Time (s),Gyroscope X (deg/s),Gyroscope Y (deg/s),Gyroscope Z (deg/s),Accelerometer X (g),Accelerometer Y (g),Accelerometer Z (g),Magnetometer X (uT),Magnetometer Y (uT),Magnetometer Z (uT),Barometer (hPa)
0.000000000,-0.04607838,0.692012,-0.5173811,-0.260167,0.9516206,-0.1470707,32.1863,-17.68522,3.327086,1006.946
0.032777786,0.2018129,0.512006,-0.5151188,-0.2601643,0.951157,-0.1437004,32.1863,-17.68522,3.327086,1006.946
0.065555096,-0.2946314,0.5685111,-0.4518533,-0.256769,0.9521394,-0.1465981,32.90894,-17.31234,4.066322,1006.946
0.098331928,-0.2313098,0.684101,-0.4499156,-0.2572313,0.941891,-0.1489884,33.27915,-17.68274,3.69863,1006.944
0.133631229,0.4505009,0.740673,-0.8139382,-0.2640673,0.9574025,-0.1514024,33.27915,-17.68274,3.69863,1006.944
0.166408062,-0.2956347,0.8559502,-0.9933891,-0.2582466,0.9619012,-0.1417957,32.9157,-17.67677,4.072052,1006.944
0.199185848,0.139597,0.7347022,-0.7457309,-0.2592025,0.9550613,-0.1437086,32.90043,-16.89225,3.686685,1006.943
0.231963158,0.3868287,0.7319111,-0.4989479,-0.257725,0.944789,-0.1518798,32.90043,-16.89225,3.686685,1006.943
0.267261982,-0.1719879,0.8469207,-1.167128,-0.2621018,0.949196,-0.1432115,33.63647,-17.31918,3.69243,1006.945
0.300039291,0.07748823,0.7841906,-0.918474,-0.2679323,0.9495943,-0.1489746,33.27301,-17.31321,4.065853,1006.944
0.332817078,0.449039,0.7810494,-0.6096682,-0.2674426,0.9471365,-0.152823,33.27301,-17.31321,4.065853,1006.944
0.365593910,0.5095047,0.5420325,-0.6075854,-0.2645468,0.9554737,-0.1480288,33.27239,-17.3183,3.6929,1006.944
0.398371220,-0.1131562,0.5989713,-0.4833713,-0.2616327,0.9544972,-0.1518851,33.64385,-17.67852,4.071113,1006.944
0.433670044,-0.9803621,0.6557315,-0.6030254,-0.260182,0.9589628,-0.1417867,33.26513,-16.88803,4.059168,1006.944
0.466447353,0.07867321,0.4169288,-0.2956011,-0.2650144,0.948678,-0.1441666,33.26513,-16.88803,4.059168,1006.944
0.499225140,0.4505701,0.4152292,-0.5383495,-0.2630721,0.9481905,-0.1465772,33.65134,-18.03701,4.511954,1006.944
0.532001972,-0.1715971,0.7084069,-0.8413702,-0.2664791,0.9510675,-0.1489803,32.90832,-17.31743,3.69337,1006.944
0.567301273,-0.04652423,0.5873529,-0.7768754,-0.2616158,0.948196,-0.1475434,32.90832,-17.31743,3.69337,1006.942
0.600078106,0.01578612,0.7620139,-0.6513201,-0.2664689,0.9471847,-0.147049,33.65062,-18.04296,4.076843,1006.942
0.632855892,0.07725795,0.700167,-0.6485311,-0.2679266,0.9476629,-0.1465649,33.6292,-16.8889,4.058698,1006.942
0.665633202,0.1390049,0.4613874,-0.706919,-0.2635764,0.9559755,-0.1470691,33.6292,-16.8889,4.058698,1006.942
0.698410034,0.26231,0.341173,-0.7038838,-0.2596836,0.952095,-0.1494793,32.90178,-16.88122,4.494749,1006.94
0.733709335,-0.2350087,0.5163231,-0.7008325,-0.2654935,0.9447343,-0.1504172,33.26585,-16.88209,4.494279,1006.94
0.766486645,0.4479916,0.691626,-0.5153599,-0.2655021,0.9486405,-0.1489789,33.26585,-16.88209,4.494279,1006.938
0.799263954,0.2603488,0.3355849,-0.452266,-0.2679238,0.9466956,-0.1456008,33.25909,-16.51765,4.488549,1006.938
0.832041264,0.5069914,0.5707731,-0.5724279,-0.2679288,0.9481332,-0.1489724,32.90894,-17.31234,4.066322,1006.938
0.867340565,-0.1155056,0.4509716,-0.6916528,-0.2664886,0.9554642,-0.1470615,32.90894,-17.31234,4.066322,1006.937
0.900117397,0.1330779,0.09520777,-0.2015396,-0.269868,0.9466492,-0.1499283,33.63782,-17.30814,4.500494,1006.935
0.932895184,0.3184106,0.03591259,0.164973,-0.2688972,0.9456431,-0.1557054,33.27374,-17.30726,4.500964,1006.935
0.965672493,0.1940792,-0.20003,0.2258111,-0.2713161,0.9417199,-0.1566565,33.27374,-17.30726,4.500964,1006.935
0.998449326,0.4413615,-0.4939179,0.6521683,-0.270851,0.9504972,-0.1557081,33.26513,-16.88803,4.059168,1006.933
1.033748627,0.25314,-0.5505652,1.198225,-0.2684202,0.9495535,-0.1542684,33.63782,-17.30814,4.500494,1006.933
1.066525459,0.3750833,-0.666228,1.437313,-0.2669661,0.95104,-0.1523486,33.63782,-17.30814,4.500494,1006.935
1.099303246,0.06314551,-0.4865123,1.004502,-0.2640634,0.9559481,-0.1504375,33.28123,-17.66576,4.941806,1006.935
1.132080555,-0.3089402,-0.2482882,0.6953837,-0.2630864,0.9540281,-0.1475487,33.27374,-17.30726,4.500964,1006.935
1.167379379,0.2505282,-0.3055313,0.6314725,-0.2592033,0.9540371,-0.1509275,33.27374,-17.30726,4.500964,1006.939
1.200156689,0.5587859,-0.3634528,0.5068355,-0.2645378,0.951067,-0.1513917,34.0019,-17.30901,4.500025,1006.939
1.232934475,0.309077,-0.3028972,0.4437761,-0.2625846,0.9456992,-0.1552391,33.25712,-16.53378,3.307532,1006.939
1.265711308,0.121728,-0.4195138,0.3197892,-0.2659813,0.9467151,-0.145124,33.25712,-16.53378,3.307532,1006.937
1.298488617,0.6791101,-0.5361005,0.6234898,-0.2620994,0.9456965,-0.156203,33.27301,-17.31321,4.065853,1006.937
1.333787441,0.6138334,-0.5341921,0.8035408,-0.26406,0.954487,-0.1504353,33.27374,-17.30726,4.500964,1006.937
1.366564751,0.1153592,-0.827181,0.8606643,-0.2630838,0.9525536,-0.149472,33.2805,-17.6717,4.506694,1006.937
1.399342537,-0.1949352,-0.7652543,0.7963929,-0.2625893,0.9496657,-0.1451365,33.2805,-17.6717,4.506694,1006.937
1.432119370,0.5502754,-0.7620419,0.7321914,-0.2635671,0.9510684,-0.1523567,33.2645,-16.89313,3.686215,1006.939
1.467418671,0.2381919,-0.8765677,0.8507344,-0.2659931,0.9515821,-0.1456127,33.26513,-16.88803,4.059168,1006.939
1.500195503,0.5475323,-0.6372538,0.9693487,-0.2557991,0.9526311,-0.1470825,33.26513,-16.88803,4.059168,1006.941
1.532973290,0.2972265,-0.3986006,0.416612,-0.2577424,0.9520944,-0.1518907,32.90178,-16.88122,4.494749,1006.939
1.565750599,0.04809715,-0.3970873,0.231628,-0.2587174,0.9545516,-0.1475599,33.63647,-17.31918,3.69243,1006.939
1.598527432,0.3582124,-0.5135798,0.4142379,-0.2591982,0.9526027,-0.1470744,33.63647,-17.31918,3.69243,1006.943
1.633826733,1.03987,-0.9243628,0.5340608,-0.2606462,0.9471697,-0.1562087,33.62317,-16.51852,4.48808,1006.942
1.666603565,-0.0195641,-0.4485762,0.8362943,-0.2567799,0.9560088,-0.1504548,33.26513,-16.88803,4.059168,1006.942
1.699381351,0.2291536,-0.5646178,0.7110714,-0.2611315,0.9481799,-0.1504327,33.26513,-16.88803,4.059168,1006.942
1.732158661,0.9716415,-0.6212234,0.8914398,-0.2577419,0.9515973,-0.1533341,33.6292,-16.8889,4.058698,1006.942
1.767457485,0.5337594,-0.5596823,0.704854,-0.257742,0.9510902,-0.1562215,32.90178,-16.88122,4.494749,1006.942
1.800234795,0.7795793,-0.5570303,0.8848645,-0.2611529,0.9564325,-0.154296,32.90178,-16.88122,4.494749,1006.942
1.833012581,0.1561683,-0.7315189,0.7594435,-0.2538672,0.9555159,-0.1547932,32.90043,-16.89225,3.686685,1006.942
1.865789413,-0.1535328,-0.4924443,0.5729274,-0.2572578,0.951578,-0.1567047,33.62182,-16.52956,3.680015,1006.942
1.898566723,-0.4013707,-0.4905298,0.570075,-0.2533718,0.9516338,-0.1533445,33.62182,-16.52956,3.680015,1006.942
1.933865547,0.2199809,-0.6655063,0.4457589,-0.2587175,0.9535407,-0.1528533,33.27301,-17.31321,4.065853,1006.942
1.966642857,-0.401597,-0.4858492,0.2609622,-0.2538552,0.9501486,-0.1562293,33.63782,-17.30814,4.500494,1006.942
1.999420643,-0.3373908,-0.3662024,0.3207189,-0.2557982,0.9521408,-0.1475632,33.63782,-17.30814,4.500494,1006.942
2.032197475,0.7806959,-0.2462276,0.3194501,-0.2538558,0.9521604,-0.1470864,32.90894,-17.31234,4.066322,1006.942
2.064975262,-0.3385352,-0.1856676,0.1352258,-0.2558143,0.9579516,-0.1523855,33.62858,-16.894,3.685745,1006.942
2.100274086,-0.2748508,-0.4203892,0.2569636,-0.2519267,0.95702,-0.1509492,33.62858,-16.894,3.685745,1006.942
2.133051395,-0.1499178,-0.5367127,0.3174651,-0.255811,0.9564871,-0.1528647,33.27374,-17.30726,4.500964,1006.942
2.165828705,-0.8322061,-0.6528954,0.1336896,-0.2558226,0.9603465,-0.1581654,32.91643,-17.67083,4.507164,1006.942
2.198606491,-3.932702,-0.8861229,-0.1716226,-0.2505465,0.9846286,-0.1745809,32.91643,-17.67083,4.507164,1006.94
2.233904839,-11.07659,1.063936,1.355603,-0.2467209,1.006974,-0.1876204,33.27301,-17.31321,4.065853,1006.938
2.266682148,-24.05983,4.136755,5.448567,-0.2593123,0.9972886,-0.1644705,32.89981,-16.89735,3.313732,1006.938
2.299459934,-16.17049,-1.595235,17.17766,-0.2549317,1.007088,-0.09132871,32.89981,-16.89735,3.313732,1006.938
2.332236767,2.217255,-3.781664,28.29586,-0.2891595,1.108653,-0.08273609,33.28654,-18.04208,4.077312,1006.942
2.365014553,6.441468,-12.4092,54.13651,-0.33708,1.256073,-0.04722385,32.9415,-19.14471,3.349067,1006.938
2.400312901,-17.972,-18.023,77.96124,-0.2957964,1.272745,0.05951542,31.8553,-19.51247,2.921095,1006.941
2.433090687,-44.87029,-30.60974,96.41012,-0.2210798,1.088564,0.02832728,31.8553,-19.51247,2.921095,1006.941
2.465867996,-10.45538,-48.81029,109.1777,-0.144571,1.18188,0.04822236,30.44632,-22.06004,2.963084,1006.939
2.498645783,-27.41436,-60.51064,115.6532,-0.07851218,1.16812,0.02113016,27.15482,-24.61499,2.137278,1006.937
2.533944130,-21.2644,-70.14274,128.2375,0.02007321,1.155034,-0.01807425,27.15482,-24.61499,2.137278,1006.937
2.566721916,-43.31728,-73.6883,135.2627,0.1071663,1.081234,-0.01961367,23.20373,-27.59352,1.319018,1006.937
2.599498749,-58.22626,-75.16562,134.2853,0.1680868,0.9842283,-0.03501554,20.28838,-30.89009,-0.3660212,1006.937
2.632276058,-67.73074,-76.58385,129.7036,0.1998082,0.9172786,-0.03547123,20.28838,-30.89009,-0.3660212,1006.937
2.665053845,-66.05348,-77.17477,121.8842,0.2530381,0.7931486,-0.02000682,15.22906,-33.08743,-2.003351,1006.937
2.700352192,-61.95351,-75.10653,113.6372,0.3117641,0.8043165,-0.02545792,10.10074,-34.93291,-4.578714,1006.935
2.733129978,-60.40049,-70.79276,100.5031,0.3614866,0.7183654,-0.04855168,10.10074,-34.93291,-4.578714,1006.935
2.765906811,-51.88994,-64.64713,86.20825,0.4256101,0.7016667,-0.07563486,5.750021,-36.03273,-5.799063,1006.935
2.798684597,-41.32941,-55.84232,72.95193,0.4718089,0.671322,-0.08243777,2.477906,-36.40715,-7.094439,1006.935
2.833982944,-29.6507,-42.48737,57.00769,0.5403099,0.642146,-0.1581301,2.477906,-36.40715,-7.094439,1006.934
2.866760731,-22.94166,-25.2914,43.81247,0.6029541,0.6346787,-0.1866677,-1.953482,-36.48105,-8.828213,1006.932
2.899538040,-1.882716,-5.377167,31.83902,0.6433616,0.5735205,-0.2752419,-3.789245,-35.69302,-9.273391,1006.934
2.932315826,18.4929,24.22827,17.29984,0.6992165,0.5489554,-0.3730538,-3.789245,-35.69302,-9.273391,1006.932
2.965092659,42.22303,62.63852,3.37154,0.737046,0.5404846,-0.5160952,-5.616393,-35.32422,-9.276772,1006.932
3.000391960,88.00605,112.5127,-7.868839,0.7972425,0.488734,-0.8165297,-5.959459,-36.41071,-8.823999,1006.932
3.033168793,151.4314,191.2242,-14.28319,0.7869582,0.6595066,-1.180191,-5.959459,-36.41071,-8.823999,1006.931
3.065946102,144.8466,323.1781,-36.33632,0.5688902,0.7185646,-0.9698889,-5.949391,-36.81805,-7.511979,1006.935
3.098723888,554.2225,-73.51102,211.8073,-15.88176,6.315807,15.82412,-4.837201,-37.4969,-3.648082,1006.935
3.134022236,-513.8821,-64.11529,65.68234,3.20276,-1.483663,-3.692029,-4.837201,-37.4969,-3.648082,1006.935
3.166800022,280.2077,-82.31583,-25.8901,-0.9677654,2.23228,0.9468127,-3.349486,-38.92248,-1.016372,1006.935
3.199576855,-210.1737,-10.51823,-11.77854,0.8322989,0.3400175,-0.3225116,-3.731771,-37.81131,0.210084,1006.935
3.232354641,116.4574,29.96026,-20.331,0.4182238,0.7626366,0.01623086,-3.731771,-37.81131,0.210084,1006.933
3.265131950,-57.72929,9.75056,-15.74932,0.6352022,1.040651,0.2333541,-2.264742,-38.5666,-1.458623,1006.933
3.300430775,-3.994822,3.36855,-15.44388,0.4957823,0.6405069,0.1500495,-1.15826,-39.29215,-1.013461,1006.933
3.333208084,33.40189,5.495886,-12.93923,0.4904557,0.8422225,0.1680499,-1.15826,-39.29215,-1.013461,1006.933
3.365985870,-3.249373,14.65525,-18.92595,0.5332884,0.7956939,0.1492453,-0.8002176,-38.92264,-0.5845497,1006.931
3.398762703,-7.03874,9.75056,-29.31108,0.4649543,0.7532268,0.2178248,-0.4429016,-38.55908,-0.5907495,1006.93
3.434062004,3.335429,1.063936,-41.83434,0.3941404,0.7139661,0.1901329,0.6560919,-38.92613,-0.5864294,1006.928
3.466838837,17.56109,-2.304347,-57.47312,0.3868726,0.696471,0.1343386,0.6560919,-38.92613,-0.5864294,1006.932
3.499616146,25.01558,-2.481625,-74.76131,0.3205201,0.8248447,0.1145666,1.802865,-38.55936,-0.2206943,1006.932
3.532393932,-2.690286,-2.895274,-93.1491,0.2846183,0.8123894,0.1175587,4.351407,-38.56547,-0.2239833,1006.932
3.565170765,-1.38575,-3.368015,-99.92999,0.1696046,0.7776068,0.08659543,4.351407,-38.56547,-0.2239833,1006.93
3.600470066,35.70036,-13.70923,-120.3337,0.1440306,0.7001003,0.03767401,6.887153,-37.83676,0.1963794,1006.932
3.633247376,43.03061,-7.563596,-126.3204,0.04817946,0.9851809,0.0360276,12.01602,-36.33658,-0.269264,1006.932
3.666024685,4.764207,-7.090855,-125.7096,-0.0008864645,1.199067,0.03582161,12.01602,-36.33658,-0.269264,1006.932
3.698801994,-35.98702,-3.781664,-116.4851,0.01264446,1.241607,0.113706,15.98851,-34.51211,0.5671408,1006.932
3.734101295,-66.67468,2.659438,-108.2992,-0.02624224,1.066385,0.1766393,20.31542,-32.34784,-0.3431013,1006.936
3.766878128,-79.09884,1.654862,-101.7016,-0.07226682,1.025707,0.1955829,20.31542,-32.34784,-0.3431013,1006.936
3.799655914,-89.41089,7.209574,-105.6113,0.001244948,0.9560654,0.247982,24.66786,-28.37258,-2.090136,1006.938
3.832433224,18.61714,-22.1004,-90.82772,0.1495333,1.098668,0.3355045,27.52308,-25.42116,-3.446025,1006.938
3.865210533,35.76247,-11.05006,-29.92197,-0.3447541,1.881289,0.2214146,27.52308,-25.42116,-3.446025,1006.938
3.900509357,-50.95813,-13.82742,1.477781,-0.08422301,1.15221,0.1915697,30.41451,-21.06098,-3.953734,1006.938
3.933287144,-29.40222,-2.304347,-8.662995,-0.1798141,0.7064409,0.148183,31.12238,-19.96942,-3.971864,1006.94
3.966063976,-12.25689,1.950326,-17.94853,-0.2133431,0.7239588,0.1862637,31.12238,-19.96942,-3.971864,1006.94
3.998841286,10.35508,6.67774,-27.47841,-0.3082292,1.031687,0.2885551,31.12093,-19.98131,-4.842088,1006.94
4.034140110,-3.870581,4.786774,-10.19022,-0.2975537,1.032676,0.2779383,31.10741,-19.25243,-4.853547,1006.94
4.066917419,0.9748396,2.423067,-0.2938006,-0.2715853,0.9218739,0.2116158,31.10741,-19.25243,-4.853547,1006.94
4.099695206,12.96415,0.05935998,2.271938,-0.2666811,0.9024702,0.2169283,31.82953,-18.8838,-4.425105,1006.942
4.132472038,6.56571,-3.308923,0.8668907,-0.2677545,0.9513757,0.247183,32.18008,-18.1558,-4.437035,1006.94
4.165249825,4.143,-7.090855,3.493718,-0.2682784,0.9659256,0.2389791,32.18008,-18.1558,-4.437035,1006.94
4.200548172,3.770274,-8.3318,6.181635,-0.2497616,0.9398236,0.2452323,32.18612,-18.52617,-4.866417,1006.94
4.233325958,9.85811,-5.790816,4.471142,-0.2239506,0.9058661,0.2336695,31.83556,-19.25418,-4.854487,1006.94
4.266103268,10.78992,-1.004308,0.9279797,-0.2366327,0.9336553,0.2529122,31.83556,-19.25418,-4.854487,1006.942
4.298881054,11.41113,-3.013459,-1.393403,-0.2424855,0.9422927,0.2413604,31.45869,-18.51849,-4.430366,1006.942
4.331657887,6.938435,-3.190737,-2.554094,-0.233816,0.9655052,0.2071282,31.47149,-19.2533,-4.854017,1006.942
4.366957188,-1.447871,-0.2361034,-3.40934,-0.2396604,0.9737695,0.2119432,30.73657,-18.88712,-4.858808,1006.942
4.399734020,-8.156915,-0.7088449,-0.6603347,-0.2517666,0.9630708,0.2288357,30.73657,-18.88712,-4.858808,1006.942
4.432511807,-4.678151,-1.299772,1.355603,-0.257991,0.927015,0.2341998,31.82953,-18.8838,-4.425105,1006.941
4.465289116,1.533927,-2.245255,4.348964,-0.2726401,0.9634941,0.2447695,31.82808,-18.89568,-5.295329,1006.941
4.500587940,-10.57963,-3.368015,14.30647,-0.3205561,1.103408,0.2514113,31.82808,-18.89568,-5.295329,1006.941
4.533365250,-59.77928,5.436794,13.93994,-0.3391432,1.16478,0.2744683,31.46473,-18.88887,-4.859747,1006.941
4.566142082,-122.9561,-0.6497522,24.63052,-0.3707565,0.9849134,0.2911806,30.74874,-19.62704,-5.655412,1006.941
4.598919869,-101.5244,7.682316,12.29054,-0.4051301,0.9488369,0.3274187,30.74874,-19.62704,-5.655412,1006.941
4.631697178,-85.43516,-4.608962,26.76863,-0.298063,0.6676322,0.4527426,31.11667,-20.01612,-7.390599,1006.946
4.666996002,-6.479653,-18.31846,25.54685,-0.3977166,0.7276852,0.5236486,29.59605,-20.0422,-9.564199,1006.946
4.699773312,19.9838,-30.19609,20.90409,-0.3109393,0.7828034,0.5012171,29.59605,-20.0422,-9.564199,1006.946
4.732551098,23.77316,-33.44619,13.08469,-0.2858997,0.8605499,0.4452026,28.86114,-19.67602,-9.56899,1006.946
4.765327930,7.683884,-33.97802,0.9890687,-0.2291111,0.8581402,0.380569,27.06707,-21.13535,-9.978832,1006.946
4.800627232,1.471806,-39.71001,-11.47309,-0.2206329,0.9960586,0.5228241,27.06707,-21.13535,-9.978832,1006.946
4.833404064,8.491453,-43.31467,-19.65902,-0.1498177,0.8176427,0.4848975,25.95455,-20.03942,-9.994613,1006.945
4.866181850,-5.050875,-52.35585,-25.21812,-0.1363704,1.100311,0.5653083,25.59661,-20.40808,-10.36137,1006.945
4.898959160,-75.55796,-50.52398,-40.97909,-0.1363796,0.9006562,0.5699415,25.59661,-20.40808,-10.36137,1006.945
4.931736946,-77.67007,-55.1923,-53.01362,-0.1730742,0.8086467,0.5499501,24.84672,-19.32491,-11.24784,1006.943
4.967035294,-95.93357,-62.10614,-68.04152,-0.1550608,0.797416,0.5942096,24.0961,-18.24769,-12.56942,1006.945
4.999813080,-85.31092,-67.60175,-80.01497,-0.1618229,0.778725,0.575962,24.0961,-18.24769,-12.56942,1006.944
5.032589912,-77.67007,-66.30172,-86.79585,-0.1563939,0.7346794,0.5389507,23.70563,-17.13352,-15.57072,1006.942
5.065367699,-51.02025,-68.36996,-88.93396,-0.1325499,0.7033501,0.4874356,23.6554,-14.60624,-17.35128,1006.942
5.100666046,-21.94773,-58.20602,-95.9592,-0.1003712,0.6379809,0.4335453,23.6554,-14.60624,-17.35128,1006.94
5.133443832,-2.690286,-44.79198,-97.91405,-0.1558307,0.695487,0.5053131,22.51969,-12.44077,-19.1247,1006.938
5.198998928,120.3089,-22.39586,-59.36688,-0.1277157,0.6995159,0.4205206,21.76314,-10.99232,-19.95474,1006.937
5.231775761,198.7674,-5.377167,-43.97245,-0.1432608,0.6821009,0.3161283,21.00794,-9.532826,-19.97672,1006.937
5.267075062,263.7457,6.914111,-36.70286,-0.1679959,0.8379055,0.1287024,21.02427,-10.23877,-18.28697,1006.935
5.299851894,213.9249,19.9145,-42.62849,-0.2465257,1.003975,0.2215412,21.02427,-10.23877,-18.28697,1006.937
5.332629204,141.1193,26.3556,-44.70552,-0.2679473,1.030694,0.2374367,20.69971,-12.01338,-14.83912,1006.937
5.365406990,116.8301,26.4147,-43.30047,-0.2470814,0.8094244,0.1202684,21.10871,-14.16522,-12.19454,1006.937
5.400705338,155.4071,18.96902,-31.999,-0.2378706,1.003723,0.03475267,21.4838,-14.49571,-9.640767,1006.937
5.433483124,189.8841,-0.1770107,-19.72011,-0.3425902,0.936196,0.04521143,21.4838,-14.49571,-9.640767,1006.937
5.466260433,175.3479,-11.87736,-11.22873,-0.3476797,1.22394,-0.03270942,21.48671,-14.47194,-7.90032,1006.937
5.499037743,140.9951,-15.12746,-0.9657798,-0.3596095,1.321556,-0.1286193,21.1195,-14.07691,-5.730021,1006.937
5.531815052,13.21263,-14.30016,13.26796,-0.3986796,1.228832,-0.03837218,21.1195,-14.07691,-5.730021,1006.936
5.567114353,99.00143,-16.25022,15.03954,-0.45336,0.7090514,-0.1982339,20.74326,-13.33612,-4.932947,1006.936
5.599891186,69.43194,0.236638,-0.1105335,-0.4549238,1.17862,-0.1175878,20.39415,-14.05223,-4.050794,1006.936
5.632668972,-34.30976,11.70062,-0.5992457,-0.3984867,1.105562,-0.2557623,20.39415,-14.05223,-4.050794,1006.934
5.665446282,-101.4002,25.82377,-4.325676,-0.2749623,1.218152,-0.3221716,20.76645,-14.40566,-3.17531,1006.936
5.700745106,-199.4889,40.77422,-0.6603347,-0.3659697,1.119728,-0.218796,21.12304,-14.04804,-3.616622,1006.936
5.733522415,-125.5652,33.86037,20.59864,-0.3776821,0.7570708,-0.1075084,21.12304,-14.04804,-3.616622,1006.934
5.766300201,-24.8674,34.27402,23.77527,-0.3366461,0.8446246,-0.1732029,21.8693,-15.16092,-4.905707,1006.934
5.799077034,-18.2826,38.05595,24.56943,-0.3599813,1.092001,-0.01082011,22.60286,-15.53815,-5.708982,1006.934
5.831854820,-98.79113,36.46045,25.36359,-0.3529761,1.231168,0.1025549,22.60286,-15.53815,-5.708982,1006.934
5.867153168,-126.3106,34.92404,32.69427,-0.3589722,0.8799598,0.03233827,22.60962,-15.90258,-5.703251,1006.934
5.899930954,-59.34443,35.81043,29.63982,-0.2941334,0.9714058,0.007497212,23.716,-16.62898,-5.320249,1006.934
5.932708263,-54.93386,38.35142,26.27992,-0.3636054,1.011186,0.1385324,23.716,-16.62898,-5.320249,1006.934
5.965486050,-69.71861,30.84665,27.19626,-0.3958532,1.099718,0.1615808,23.37802,-18.16358,-6.539079,1006.934
6.000784397,-69.90497,24.58282,24.56943,-0.3431588,0.9838921,0.1110874,24.10544,-18.17127,-6.975131,1006.936
6.066339016,-32.50826,23.1055,18.82706,-0.2033695,1.01654,0.1554733,24.85919,-19.64265,-7.823374,1006.936
6.099116802,-76.11704,26.00105,17.97182,-0.1824182,0.9986458,0.218509,24.50864,-20.37065,-7.811444,1006.936
6.131894112,-43.06879,23.28278,19.07142,-0.1380919,0.937552,0.2045364,24.50864,-20.37065,-7.811444,1006.936
6.167192936,-41.51577,24.7601,15.52825,-0.1288699,0.9582834,0.3031625,24.89082,-21.48266,-9.100059,1006.935
6.199970245,-52.44903,31.2603,7.70886,-0.09761956,1.089046,0.2995217,24.18149,-22.58612,-9.952153,1006.933
6.232747078,-47.91421,41.54242,-1.515581,-0.1159955,0.8466187,0.2686422,24.18149,-22.58612,-9.952153,1006.931
6.265524864,-70.15345,47.33351,-2.859539,-0.1359262,0.869845,0.3408587,25.28725,-23.31761,-9.942102,1006.931
6.298302174,-40.89457,50.76088,-10.00695,-0.1799716,0.8110699,0.3463468,26.00802,-22.96001,-10.32172,1006.931
6.333600998,-42.07486,49.34266,-13.30576,-0.2004724,0.8652979,0.3949312,26.00802,-22.96001,-10.32172,1006.928
6.366378307,-42.94455,46.80167,-15.81041,-0.1192738,0.6050229,0.3392929,26.38562,-23.68976,-10.31073,1006.926
6.399156094,-26.97951,53.12459,-24.36287,-0.1230416,0.5542828,0.3311952,27.47036,-23.33388,-10.75299,1006.924
6.431932926,-38.03701,63.99765,-24.30178,-0.07114099,0.327565,0.09362108,27.47036,-23.33388,-10.75299,1006.922
6.467232227,-93.51086,76.34801,-30.16633,-0.3771003,1.627353,0.373503,28.92126,-22.9619,-9.952532,1006.922
6.500009060,-35.9249,104.0625,-50.32571,-0.7196236,0.4708087,0.320702,29.64556,-22.57543,-8.218754,1006.923
6.532786846,-71.14738,70.26147,-95.77593,-1.005391,0.2771017,0.8940108,31.49958,-21.12219,-8.244102,1006.923
6.598341942,-20.51895,20.80089,-187.776,-0.7119322,1.113143,0.3009425,33.65242,-19.28741,-6.970236,1006.918
6.633640289,-67.17165,99.74872,-153.6883,-0.3275854,1.05223,-0.5162668,36.13222,-15.58841,-7.03178,1006.916
6.666418076,-145.0711,140.0499,-87.46783,-0.5212371,0.8035528,0.5161255,36.13222,-15.58841,-7.03178,1006.916
6.699194908,-82.08064,96.02588,-56.55679,-0.846276,-0.08962254,0.7752898,38.55656,-8.635401,-4.595428,1006.914
6.731972694,-23.93559,61.87031,-64.98707,-1.095185,0.3930696,0.5190682,40.02414,-5.615251,-1.163287,1006.913
6.767271042,-75.80644,82.84821,-80.32041,-0.834871,0.1596316,0.4653714,40.02414,-5.615251,-1.163287,1006.911
6.800048828,-18.96593,104.417,-60.64975,-0.8404536,0.852842,0.3536267,39.98783,-3.393815,1.350844,1006.907
6.832826138,-145.4438,98.2714,-10.12913,-0.8161381,0.2025555,0.2419105,40.31487,-1.179195,3.429394,1006.907
6.865603924,-74.81251,83.20277,-15.01625,-1.09822,-0.05082219,0.07400344,40.31487,-1.179195,3.429394,1006.906
6.898380756,-130.2864,117.2992,-31.51029,-1.062519,-0.1632305,0.04520648,40.66438,-0.0400548,6.830469,1006.906
6.933680058,22.84135,102.467,-61.505,-1.086354,-0.1797589,-0.1318532,39.58462,-0.3551717,10.25634,1006.908
6.966456890,-98.35629,84.5619,-12.75596,-0.7534207,1.309478,0.8494973,39.58462,-0.3551717,10.25634,1006.908
6.999234676,-49.59147,3.723106,27.01299,-1.429211,-0.4792941,0.3498105,38.42534,0.4350548,14.53533,1006.908
7.032011986,-15.67353,-23.87318,-0.2938006,-1.06307,0.13275,0.3759386,37.32853,0.819941,15.83634,1006.908
7.067310810,12.65355,18.08263,-34.50365,-0.9992487,0.02243266,0.2637962,37.32853,0.819941,15.83634,1006.91
7.100088120,32.09735,-2.422533,26.70754,-0.503562,1.214825,-0.1054929,37.71144,-0.28613,14.98284,1006.908
7.132865906,-143.9529,47.92443,31.47249,-1.260908,-0.530378,-0.3350081,37.33529,0.4555044,15.84207,1006.906
7.165642738,124.5331,38.88326,-4.020231,-1.045872,0.1016763,-0.4014546,37.33529,0.4555044,15.84207,1006.906
7.198420525,-39.52791,54.42463,-1.637759,-0.8732648,0.07643078,-0.03695374,37.35703,-0.6259189,16.72949,1006.905
7.233718872,68.68649,-2.954367,47.41672,-0.9623238,1.024673,0.2063601,37.35983,-0.6029925,18.40777,1006.903
7.266496658,-59.28231,-14.59562,57.43532,-1.086338,-0.3199105,0.2351556,37.35983,-0.6029925,18.40777,1006.903
7.299273968,53.59114,-15.42292,6.914703,-1.238124,-0.02414141,0.08681046,36.63989,-0.9537964,19.28467,1006.903
7.332051754,-14.05839,0.8866575,-13.73338,-1.021886,-0.1072203,-0.003591845,35.95158,-3.144617,18.88488,1006.903
7.367350102,45.63968,-23.81409,8.075395,-0.6356252,0.6441668,0.1455071,36.3142,-3.157377,18.01418,1006.903
7.400127888,-85.68365,23.28278,33.48842,-0.956604,0.171451,-0.2101895,36.3142,-3.157377,18.01418,1006.907
7.432905197,19.9838,38.94234,-1.57667,-1.16556,-0.3798265,-0.231487,36.65799,-2.064939,17.99652,1006.906
7.465682507,1.906651,49.46084,-3.40934,-0.867662,0.8018333,0.05484248,37.06554,-4.228658,19.77088,1006.906
7.498459816,-11.20083,7.386852,27.5017,-1.106707,0.3162362,0.4099422,37.06554,-4.228658,19.77088,1006.904
7.533759117,41.91243,-52.53313,39.53624,-0.8191591,0.4200551,0.07552003,35.22561,-3.12504,20.19115,1006.904
7.566535950,-21.88561,-19.73669,17.42201,-1.370586,-0.2520098,0.1856659,35.98756,-4.94897,20.21886,1006.904
7.599313736,27.25193,-26.41416,-0.9046907,-0.5852304,0.4146449,-0.2133623,35.98756,-4.94897,20.21886,1006.906
7.632091046,-57.04597,56.72924,4.654409,-1.064818,0.1412924,-0.214701,36.72633,-5.703365,18.48894,1006.906
7.667389870,8.98842,4.25494,-4.753299,-0.8642667,0.1608385,-0.0963098,36.35019,-4.96173,19.34817,1006.905
7.700167179,4.702086,41.83789,11.86291,-0.7895323,0.7729571,-0.1994583,36.35019,-4.96173,19.34817,1006.905
7.732944965,19.79744,31.43757,45.95058,-0.9317011,0.5748806,0.06303821,36.00857,-6.036337,20.67116,1006.905
7.765721798,16.81564,-11.87736,52.48711,-1.052169,0.1756289,0.01530815,35.64668,-6.017633,21.97697,1006.905
7.798499584,17.74745,-30.25519,32.511,-1.306826,0.1003898,0.2177161,35.64668,-6.017633,21.97697,1006.905
7.833797932,21.16409,-92.12522,1.783226,-1.10037,0.07270433,0.2605907,34.94524,-7.546263,21.13156,1006.907
7.866575718,-22.7553,-47.27388,-20.26991,-1.040926,0.1465876,0.02784066,35.32066,-8.293841,19.83721,1006.907
7.899353027,29.36403,-30.37337,-14.58863,-0.6829945,0.7198718,-0.04703933,35.32066,-8.293841,19.83721,1006.907
7.932130814,-37.1052,27.36018,17.78855,-0.7313791,0.451429,-0.0007906095,37.14418,-8.692361,17.66504,1006.907
7.967429161,27.56253,-18.49574,-12.93923,-1.329759,-0.1374308,-0.1958422,37.48734,-7.605017,17.27442,1006.905
8.000206947,-20.45683,26.76925,-18.86486,-0.691355,0.5731923,0.02155494,37.48734,-7.605017,17.27442,1006.904
8.032983780,-1.199388,23.46006,-10.43458,-0.990536,0.219059,0.1633559,36.76595,-7.967709,17.28109,1006.902
8.065761566,50.7957,-19.73669,42.77395,-0.4051071,1.360344,0.3913009,37.12461,-7.593106,18.08296,1006.902
8.098538876,-20.95379,-21.09582,70.26402,-1.053588,0.221679,0.335829,37.12461,-7.593106,18.08296,1006.904
8.133837700,30.1716,-44.79198,44.91207,-1.046999,0.1896662,-0.2836509,37.11858,-7.222725,18.51234,1006.908
8.166615009,9.299024,27.77383,17.78855,-1.136899,0.01810698,-0.2629619,36.42216,-9.060147,17.29875,1006.908
8.199392796,-2.938769,36.57864,-11.65636,-1.082452,0.03118194,-0.05901339,36.42216,-9.060147,17.29875,1006.906
8.232169628,17.49897,28.66022,-11.47309,-0.7106584,0.7526904,0.1532233,36.81328,-10.51877,17.3212,1006.906
8.264947414,20.54288,9.041448,-0.9046907,-1.004413,0.3458804,0.207483,36.44452,-10.13648,18.55912,1006.906
8.300245762,97.75901,-37.05084,7.892128,-0.8174388,0.7570462,0.2776614,36.44452,-10.13648,18.55912,1006.91
8.333023548,48.37299,-29.84154,28.17368,-0.7612374,0.56767,0.08189923,36.07441,-9.765223,18.98897,1006.91
8.365800858,8.056608,-25.52777,24.01963,-0.9275472,0.3907042,-0.3030103,36.05412,-8.671911,18.97178,1006.91
8.398578644,60.23806,7.505038,22.98112,-0.8698921,0.4942657,-0.04770009,36.05412,-8.671911,18.97178,1006.91
8.433876991,35.32763,18.85083,-2.126471,-1.110322,0.3178672,-0.05167758,36.77551,-8.309219,18.96511,1006.91
8.466654778,40.67002,17.60989,-24.36287,-1.09313,0.2372396,-0.04052552,36.42569,-9.031277,19.41215,1006.91
8.499431610,32.15947,-0.9452156,-2.248649,-0.5171552,0.6238028,0.01625187,36.77697,-8.297332,19.83533,1006.91
8.532209396,64.15167,-7.268133,-2.493005,-1.083578,0.7535622,0.1666219,36.77697,-8.297332,19.83533,1006.908
8.564986706,112.668,-37.81905,32.08338,-0.6528748,0.7627876,0.2050581,36.37941,-6.401647,20.67642,1006.908
8.600285530,93.09995,-21.86403,47.47781,-0.6851888,0.8351253,0.0004469832,36.00712,-6.048225,19.80094,1006.908
8.633062840,59.67897,-6.32265,65.13254,-1.146248,0.9444817,0.03170151,36.00712,-6.048225,19.80094,1006.908
8.665840626,5.385415,-40.12366,94.33309,-0.7427408,0.777136,0.2052496,37.07231,-4.593095,19.77661,1006.907
8.698617458,5.261174,-78.47481,101.6638,-0.6917408,0.7944735,0.3259243,37.0979,-6.062731,18.92931,1006.907
8.733916759,-19.02805,-67.06992,71.73015,-0.3436722,-0.06158601,-0.06977171,37.0979,-6.062731,18.92931,1006.911
8.766693592,-15.42505,-27.7142,20.47647,-0.4543716,0.5538589,-0.0319278,37.50618,-8.710216,16.42139,1006.911
8.799471378,-110.1592,7.032296,-21.00298,-0.7117775,0.7902701,0.02560846,37.5506,-11.28505,14.72105,1006.909
8.832248688,-106.432,20.38724,-44.40007,-0.6394412,0.389119,0.03326192,37.5506,-11.28505,14.72105,1006.909
8.865026474,64.835,50.11086,-80.50368,0.3836512,0.3500548,-3.383404,38.66311,-12.38098,14.73683,1006.907
8.900324821,-865.5479,-39.05999,70.20293,0.415645,1.359955,3.832054,38.30725,-12.73266,15.61326,1006.907
8.933102608,318.2878,85.27101,-22.5302,-1.676803,-0.8640247,-0.4687815,38.30725,-12.73266,15.61326,1006.907
8.965879440,-94.44267,-8.213615,-38.84097,-0.8349425,1.209611,0.4536805,38.2773,-11.29868,13.84989,1006.906
8.998657227,-26.91739,8.805078,-49.83699,-1.071152,-0.01919485,-0.03297073,37.9439,-12.72584,16.04884,1006.906
9.033955574,-85.00031,-10.63642,-62.78786,-0.7506877,0.3924354,-0.05649386,37.9439,-12.72584,16.04884,1006.906
9.066733360,-69.408,47.62897,-54.54085,-0.9675269,0.422164,-0.4935822,37.92289,-11.63847,15.59654,1006.906
9.099510670,-41.8885,64.52948,-23.50763,-0.6928883,0.5340884,-0.3471056,38.61651,-9.823977,15.13183,1006.906
9.132288456,-78.22915,53.24277,-6.280524,-0.9572708,0.1827467,-0.5461954,38.61651,-9.823977,15.13183,1006.906
9.165065289,54.64719,47.68806,2.882828,-1.118856,0.2245279,-0.08665607,38.99026,-10.16551,16.87754,1006.906
9.200364590,-27.60072,48.81083,-10.98438,-0.8764075,0.5183061,-0.3649383,37.90759,-10.5044,18.56297,1006.904
9.233141422,-20.51895,94.07582,-6.402702,-1.039381,0.02118207,-0.4283049,37.90759,-10.5044,18.56297,1006.902
9.265919209,13.27475,43.72885,-26.37881,-1.301934,0.2636316,0.08363991,37.53217,-9.756825,19.85732,1006.9
9.298696518,-6.044808,20.85998,-27.90604,-0.9575556,0.4263263,0.09316786,35.72894,-10.45162,22.04668,1006.9
9.333995342,32.59431,24.05099,-17.15437,-1.12588,0.6669711,0.6525468,34.98112,-9.351465,22.40339,1006.9
9.366772652,-16.7917,-17.55026,-17.09328,-0.9768133,0.4585617,0.6197747,34.98112,-9.351465,22.40339,1006.9
9.399550438,4.018758,-59.74243,13.93994,-1.229199,0.6905288,1.012815,35.69648,-8.618393,22.8261,1006.9
9.432328224,14.45505,-130.7127,35.19892,-0.7472566,0.6712888,0.3979646,35.6944,-8.635376,21.58292,1006.9
9.465105057,-43.13091,-69.61091,14.24539,-1.024268,-0.6732651,-0.7161111,35.6944,-8.635376,21.58292,1006.9
9.500404358,36.4458,27.47836,-23.01892,-0.9541181,0.7825313,-0.09558961,36.79362,-9.420362,17.67697,1006.903
9.533181191,-51.33085,79.89358,-31.51029,-1.05197,-0.125886,-1.111106,38.2777,-10.87566,18.13312,1006.903
9.565958977,94.59085,55.90195,-35.3589,-0.8774333,1.147291,-0.4029486,38.2777,-10.87566,18.13312,1006.905
9.598736286,-5.361479,48.1608,18.39944,-0.6551567,0.9524013,-0.610649,37.90228,-10.12808,19.42746,1006.903
9.634035111,17.62321,71.14786,26.09665,-1.03159,0.2903095,-0.04700917,37.14468,-8.268485,22.01042,1006.903
9.666812420,43.58969,30.96483,23.77527,-0.837583,0.8026834,0.0008573338,37.14468,-8.268485,22.01042,1006.901
9.699590206,-21.575,43.3152,26.89081,-1.140842,0.1131475,0.1017764,35.69117,-8.242068,23.69059,1006.899
9.732367039,20.72925,-43.13739,-13.91665,-1.528284,-0.4192619,0.6272193,34.97196,-8.586928,25.0026,1006.899
9.765144825,19.36259,-49.16484,-40.67364,-0.783961,0.6165078,0.5488004,34.97196,-8.586928,25.0026,1006.898
9.800443172,-38.34761,-29.07333,-14.28319,-0.7919897,0.4653966,0.2597488,34.62671,-9.691255,24.15003,1006.898
9.833220959,2.341497,-58.61967,-11.22873,-0.8354257,0.4822888,-0.130558,35.68223,-7.895463,22.37953,1006.898
9.865998268,-20.95379,27.41927,-25.03485,-1.067056,0.4073886,-0.5376091,35.68223,-7.895463,22.37953,1006.898
9.898776054,-10.95235,31.73304,-21.36951,-0.9455567,0.5327995,-0.7190784,36.75098,-6.761013,21.11679,1006.902
9.934074402,-62.20199,71.50242,-6.830326,-0.7815596,0.6297118,-0.4972243,36.76635,-7.544683,21.56432,1006.904
9.966852188,18.18229,11.75971,17.42201,-0.8987167,0.5528949,-0.1266634,36.76635,-7.544683,21.56432,1006.904
9.999629498,27.37617,-4.963518,25.18032,-0.866447,0.6783607,-0.05279934,36.76167,-7.163263,22.80177,1006.904
10.032406807,-32.25978,13.05975,16.75003,-1.048259,-0.05628964,-0.07195942,36.041,-7.520011,23.24355,1006.904
10.065184116,26.38224,3.013994,-19.10922,-1.16615,-0.1077024,-0.1096299,36.041,-7.520011,23.24355,1006.904
10.100483418,-24.24619,32.91489,-55.33501,-1.13821,0.001691978,-0.03043635,35.33386,-8.605633,23.69679,1006.902
10.133260250,32.90492,9.809652,-61.07737,-0.9212054,0.4745748,0.1940949,35.32034,-7.876759,23.68533,1006.902
10.166038036,0.4157526,-22.69132,-21.55278,-0.5765783,1.168474,0.3207552,35.32034,-7.876759,23.68533,1006.902
10.198815346,9.050541,-73.27465,5.387478,-0.9837504,0.2335709,0.2109728,34.92954,-6.345511,24.53215,1006.908
10.231592655,-26.91739,-24.34592,2.76065,-0.8151814,0.316469,-0.2574356,35.25836,-4.536086,23.63281,1006.906
10.266891480,-5.858445,32.8558,-45.07205,-1.426209,-0.670358,-0.4451183,35.25836,-4.536086,23.63281,1006.904
10.299669266,43.83818,33.38763,-81.54219,-1.022272,0.2493992,-0.05804094,36.71862,-4.92694,21.95837,1006.906
10.332446098,49.49117,-9.868211,-60.22213,-0.7628157,0.84508,0.1946049,36.70645,-4.187027,22.75497,1006.906
10.365223885,97.32417,-21.09582,-9.02953,-0.7512041,0.8374447,0.06317709,36.70645,-4.187027,22.75497,1006.904
10.400523186,14.57929,25.35103,48.88285,-0.9313486,0.616747,-0.01019271,36.2965,-1.623209,23.58556,1006.904
10.433300018,13.77172,16.01438,79.67172,-1.16289,0.6109354,0.1328483,36.59296,2.02029,23.52779,1006.904
10.466077805,23.46256,-47.39206,114.2481,-2.03211,0.2255471,0.1773693,35.89934,0.2057929,23.99249,1006.908
10.498855114,56.38657,-91.53429,102.3357,-1.19671,0.1531653,0.2505894,35.89934,0.2057929,23.99249,1006.908
10.531632424,-469.5901,50.16996,113.2707,0.1130963,0.02633042,2.149053,36.67192,-2.370786,22.29121,1006.908
10.566931248,240.3262,19.9145,-16.36021,0.06935935,-0.02115986,-0.285981,38.89124,-4.609346,18.90404,1006.904
10.599709034,-36.73247,-41.30552,50.53226,-1.490402,2.473925,2.916939,38.89124,-4.609346,18.90404,1006.902
10.632485867,80.80004,-14.41835,64.76601,-1.200812,1.090732,0.3974454,39.35729,-6.791042,19.37298,1006.907
10.665263653,-286.7686,-59.74243,35.01565,-0.03174847,-1.026832,-0.4348917,39.29443,-6.808728,18.06772,1006.905
10.700562000,282.8789,-13.29559,-50.44788,0.7475845,0.07563662,-1.119529,39.29443,-6.808728,18.06772,1006.905
10.733339786,-337.1486,-259.8303,137.523,-3.558315,3.413083,0.7302324,39.36713,-10.9012,16.45342,1006.903
10.766117096,4.515724,109.7354,7.342326,-0.833663,-1.241883,-0.9799739,38.92828,-6.824838,16.82502,1006.902
10.798894882,-119.0425,0.05935998,-29.24999,-0.4278493,-0.3205623,0.3303485,38.92828,-6.824838,16.82502,1006.902
10.831671715,693.0003,241.6893,49.06612,-2.589412,1.466165,5.839561,39.79792,-11.2726,16.02349,1006.9
10.866971016,-564.759,-6.913577,-40.73473,-0.06146643,-0.4871803,-1.028191,39.80073,-11.24967,17.70178,1006.9
10.899747848,141.8648,97.73957,-56.55679,-1.060304,0.5501474,-0.9580691,39.80073,-11.24967,17.70178,1006.898
10.932525635,-108.0471,144.1273,-51.79184,-0.8746203,-0.2962975,-0.6862271,38.97132,-9.061161,17.66842,1006.898
10.965302944,81.66973,104.3579,-43.30047,-1.144808,0.8917265,0.7783697,38.20801,-6.758559,21.55003,1006.898
11.000601768,10.10659,-13.35468,-14.89408,-1.376145,0.1940991,0.9599991,38.20801,-6.758559,21.55003,1006.898
11.033379078,76.07886,-105.0665,19.13251,-1.301278,0.8007303,1.118238,36.01646,-5.971804,25.39523,1006.902
11.066156864,-62.88532,-123.4443,39.96386,-0.5262482,0.1959733,0.2075375,35.98651,-4.537831,23.63187,1006.902
11.098934650,-46.73392,-27.95057,-20.8808,-1.414883,-1.001675,-0.7575309,35.98651,-4.537831,23.63187,1006.9
11.131711483,39.36548,76.34801,-50.08135,-0.546423,0.7775235,-0.535551,38.17203,-4.954206,20.21604,1006.9
11.167010784,-144.8226,153.5231,9.846976,-0.6630675,0.8349694,-0.4689329,38.92047,-6.049262,20.23229,1006.899
11.199787617,66.57438,-2.895274,41.43,-1.104643,0.6141093,0.09901004,38.92047,-6.049262,20.23229,1006.897
11.232565403,35.88671,-22.39586,70.3251,-0.7809327,0.5117406,0.2572459,37.0855,-4.904886,23.63619,1006.897
11.265342712,31.84887,-76.87931,27.99041,-1.749842,-0.5798624,0.5610776,36.37836,-5.990508,24.08943,1006.895
11.300641537,20.66713,-63.28799,-13.42794,-0.5893849,0.4730614,0.5581823,36.37836,-5.990508,24.08943,1006.899
11.333418846,6.317227,-43.55104,-12.69487,-0.9302429,0.3880364,0.1571819,36.03955,-7.531898,22.37333,1006.899
11.366196632,-30.33403,-19.55941,8.564107,-0.3373801,1.174107,-0.06731679,37.8511,-7.188807,21.12207,1006.898
11.398973465,-121.2788,58.26565,6.425991,-1.265913,-0.1458611,-0.7846863,37.8511,-7.188807,21.12207,1006.898
11.431751251,23.33832,2.777623,-22.22476,-0.9917966,0.2478465,-0.3180462,38.54214,-5.325459,19.78619,1006.898
11.467049599,-10.76599,30.84665,-11.16765,-1.010192,0.2233178,-0.3213352,37.86462,-7.917681,21.13353,1006.898
11.499827385,76.38947,-19.32304,-26.74534,-0.977632,0.4583789,-0.1061166,37.48775,-7.181991,21.55765,1006.896
11.532604694,-16.66746,23.34188,-6.891415,-0.7078854,0.7045383,-0.4012394,37.48775,-7.181991,21.55765,1006.898
11.565382481,-5.361479,23.1055,12.4738,-0.9408947,0.3212375,-0.1209192,37.45885,-5.669447,21.09867,1006.898
11.600680828,2.155134,-9.927303,17.23875,-0.8107729,0.5181337,-0.1884339,37.46093,-5.652464,22.34184,1006.898
11.633458614,30.91705,6.795926,1.355603,-1.190387,0.0553733,-0.2325654,37.46093,-5.652464,22.34184,1006.898
11.666235447,-0.1433343,25.76468,-2.370827,-0.8752126,0.4389742,-0.288285,37.47383,-6.386433,21.98035,1006.9
11.699013233,-34.24764,59.86116,-2.309738,-0.8161762,0.5302495,-0.2606436,37.45489,-5.282084,22.77122,1006.9
11.731791019,18.74138,29.19205,-19.04813,-1.196965,0.2355462,0.1209795,37.45489,-5.282084,22.77122,1006.9
11.767089367,19.36259,-17.84572,-21.18624,-0.7725296,0.2383458,0.2234613,36.36556,-5.255691,24.51308,1006.9
11.799867153,34.83066,-26.53235,-23.81307,-0.9755063,0.4536979,0.2688662,36.00076,-5.260761,24.07844,1006.898
11.832644463,0.2293903,-29.48698,6.48708,-0.6956583,0.5974441,0.2925352,36.00076,-5.260761,24.07844,1006.9
11.865422249,10.47932,-36.6372,4.59332,-0.9297412,0.3711165,0.1047378,36.70187,-3.804759,24.05458,1006.9
11.900720596,-13.99627,-31.20067,-5.791812,-0.9304242,0.195278,-0.1770736,36.32147,-3.097939,22.3653,1006.9
11.933498383,11.65961,-27.35965,-24.24069,-1.034869,0.2052838,-0.223533,36.32147,-3.097939,22.3653,1006.9
11.966275215,-4.305426,-11.81827,-39.2075,-1.011575,0.2113327,-0.2221533,37.79057,-3.836247,21.93977,1006.898
11.999053001,28.24586,-6.499928,-40.42929,-0.9198667,0.4383822,-0.2496693,38.13968,-3.120133,21.05762,1006.897
12.031830311,17.12624,-11.81827,-38.53553,-0.9653293,0.3999183,-0.05310787,38.13968,-3.120133,21.05762,1006.897
12.067129135,19.9838,-9.63184,-22.40802,-0.8917859,0.5004766,-0.1087905,38.8333,-1.305638,20.59291,1006.895
12.099906445,45.63968,-0.4133815,-4.875477,-0.7771971,0.4816484,-0.2226353,38.44217,0.1529827,20.57046,1006.895
12.132684231,20.97773,20.62361,1.53887,-0.9848862,0.2527003,-0.04850735,38.44217,0.1529827,20.57046,1006.893
12.165461063,78.31521,11.0506,-15.62714,-1.150126,-0.09544142,-0.04662799,38.78597,1.245422,20.5528,1006.893
12.198238850,107.8226,9.868746,-20.14773,-1.238405,0.2790675,-0.01425046,38.4091,1.981112,20.97692,1006.896
12.233538151,95.08781,1.59577,39.23079,-1.943273,1.07299,0.2793741,38.4091,1.981112,20.97692,1006.897
12.266314983,-47.41724,-42.96011,91.88953,-1.388356,0.4928783,0.2360911,38.01009,3.864909,20.94779,1006.897
12.299092770,29.79888,-78.53391,110.8882,-0.989898,0.1391085,0.08164341,37.61751,5.311642,20.05512,1006.897
12.331870079,-7.78419,-72.03371,93.29458,-0.5272257,-0.06527979,-0.1001379,37.61751,5.311642,20.05512,1006.896
12.367168903,23.40044,-51.05581,67.94263,-0.6014224,0.08862728,-0.1507369,39.1996,1.573177,17.93586,1006.894
12.399946213,-33.50219,-38.82362,62.07808,-0.5766054,0.5149587,0.05410314,39.98435,-1.743315,15.43797,1006.894
12.432723999,1.347564,-42.78283,64.46056,-0.7018909,0.3430572,0.2082138,40.75162,-3.94357,14.60119,1006.894
12.465500832,-42.57182,-32.50071,38.25337,-0.5386021,-0.3524787,0.07601894,40.75162,-3.94357,14.60119,1006.894
12.498278618,7.311159,-5.790816,-14.34427,-0.6585519,-0.1233794,0.1775255,41.51005,-5.796371,12.5155,1006.894
12.533576965,347.1739,71.56151,47.11127,-4.098562,1.94371,-0.08699341,41.5456,-7.6742,12.91806,1006.892
12.566354752,-360.2575,21.03726,20.35429,-0.3557189,-1.466952,-0.7920744,41.5456,-7.6742,12.91806,1006.897
12.599132061,225.9763,-53.24224,-22.83565,-1.452238,0.8345876,0.3551053,41.1438,-5.81333,11.21064,1006.895
12.631909847,-89.96998,-5.377167,-46.84363,-0.9314829,0.05096564,-0.05699447,41.55487,-8.437888,10.38101,1006.895
12.667208195,-58.84747,16.07348,-42.20087,-0.6262401,0.7260175,-0.1420115,41.55487,-8.437888,10.38101,1006.895
12.699985981,-76.55189,80.72088,-27.23406,-0.6698757,0.432701,-0.4567578,42.26275,-7.346323,10.36288,1006.895
12.732763767,-64.9353,95.13949,-16.29912,-1.101449,0.460422,-0.08368336,41.87268,-5.809131,11.64481,1006.895
12.765540600,-7.84631,46.62439,-26.62317,-1.170901,0.1024964,0.1471117,41.87268,-5.809131,11.64481,1006.895
12.798318386,22.28227,1.83214,-9.57933,-0.6769375,0.8927341,0.2906017,41.51358,-5.7675,14.6289,1006.895
12.833616734,-12.07052,-3.663479,25.8523,-0.7313688,0.4470424,-0.001265384,40.76587,-4.6665,15.04776,1006.895
12.866394520,6.006623,30.84665,23.28656,-1.045632,0.2049266,-0.4020922,40.76587,-4.6665,15.04776,1006.893
12.899171829,1.658168,87.57563,0.8668907,-1.160182,-0.2064686,-0.3121485,40.05124,-5.393629,15.06016,1006.891
12.931949615,12.90203,64.29311,-38.59661,-1.314413,-0.01452157,0.02103036,40.80259,-6.46491,16.81686,1006.891
12.967247963,7.932367,36.99229,-29.61653,-0.6132594,0.8776717,0.3593081,40.80259,-6.46491,16.81686,1006.89
13.000025749,28.3701,-11.52281,-18.19288,-1.218047,0.382232,0.4389885,38.54141,-5.331403,19.35108,1006.89
13.032802582,50.05025,-38.82362,9.358264,-0.7433549,1.098395,0.5292047,38.52331,-4.220261,20.63922,1006.89
13.065580368,-3.125132,-27.83239,35.62654,-0.8323252,0.4680744,0.2030397,38.52331,-4.220261,20.63922,1006.891
13.098357677,-9.647813,-54.77865,28.23477,-1.062762,0.3921205,0.2734982,38.87169,-3.510091,19.32196,1006.891
13.133656502,-26.79315,-39.88729,-2.126471,-1.055031,-0.08422586,-0.1590277,39.30102,-3.893378,18.02181,1006.896
13.166434288,-16.29474,-7.445411,-49.59264,-1.161529,-0.06335631,-0.3917857,39.30102,-3.893378,18.02181,1006.896
13.199211597,26.258,15.54164,-47.0269,-0.7601193,0.6275356,-0.3456429,39.69683,-5.733418,16.80681,1006.896
13.231989384,-14.9902,34.03765,-28.33366,-0.6716897,0.7508665,-0.6464082,40.40397,-4.647796,16.35357,1006.896
13.267287731,40.60789,12.11427,21.88151,-0.6466176,1.13624,-0.09829613,40.40397,-4.647796,16.35357,1006.894
13.300065517,4.764207,-4.313499,57.80185,-0.6974307,0.8480631,-0.1555047,39.28012,-2.805161,17.63166,1006.894
13.332842350,2.838463,24.64191,53.52562,-1.091937,0.1179628,-0.1751299,39.61705,-1.349135,17.54611,1006.894
13.365620136,-5.299358,24.05099,21.14845,-1.225743,0.05751139,-0.02261108,39.61705,-1.349135,17.54611,1006.892
13.398397446,25.01558,20.97817,-22.65238,-1.299293,-0.01889615,0.1442297,39.30175,-3.887434,18.45692,1006.892
13.433696270,-2.752407,-7.918152,-52.76927,-1.036082,0.2055622,0.3083742,38.54141,-5.331403,19.35108,1006.892
13.466473580,5.696019,-36.10536,-61.56609,-0.8765324,0.5451822,0.5587547,38.1585,-4.225332,20.20458,1006.892
13.499251366,25.13982,-62.63797,-41.83434,-0.5533325,0.6121159,0.480388,38.1585,-4.225332,20.20458,1006.892
13.532028198,-5.361479,-58.32421,-32.18227,-0.7536923,0.4359406,-0.03007741,39.63733,-2.442446,17.5633,1006.89
13.567327500,30.73069,-48.21936,-26.86752,-0.9511197,0.3262686,-0.1555606,40.32211,-0.2804956,15.8497,1006.892
13.600105286,-7.722069,-30.137,-33.15969,-0.9186726,0.3443875,-0.2504932,40.32211,-0.2804956,15.8497,1006.89
13.632882118,38.55791,-17.90482,-43.42265,-1.057868,0.08716378,-0.1626488,40.66976,0.4237299,14.09732,1006.89
13.665659905,3.086946,12.58701,-64.55944,-1.200848,0.1183284,-0.4819809,41.36942,1.867845,13.20324,1006.895
13.698437214,40.67002,42.07426,-69.2633,-1.179727,0.03490997,-0.3865956,41.36942,1.867845,13.20324,1006.895
13.733736038,38.37155,44.85161,-73.173,-0.9454939,0.2878389,0.2647128,41.32241,4.491531,14.03239,1006.895
13.766513348,63.71682,18.14172,-42.68958,-0.7700118,0.6337462,0.3494576,40.91246,7.05535,14.86298,1006.895
13.799291134,50.4851,2.304882,-3.103895,-0.7740078,0.6597503,0.2416028,40.91246,7.05535,14.86298,1006.895
13.832067966,40.60789,-5.377167,3.615896,-1.17725,0.1175449,0.1475855,39.04547,9.616716,15.26033,1006.895
13.867367268,101.6105,-10.04549,18.6438,-1.430053,-0.001507782,-0.06969235,38.59367,11.07548,15.23796,1006.895
13.900144100,44.45938,-38.94181,82.48182,-1.9309,0.5650806,0.2752966,38.59367,11.07548,15.23796,1006.895
13.932921886,-10.57963,-72.44736,139.3557,-1.530047,0.2249578,0.1193787,38.94204,11.78565,13.92069,1006.895
13.965699673,66.26378,-106.4257,165.8072,-1.125987,0.2137296,0.1901601,40.11847,10.29627,11.82872,1006.896
13.998476982,-15.36292,-108.6712,134.2853,-0.3757924,-0.2458348,-0.1223676,40.11847,10.29627,11.82872,1006.895
14.033775806,34.6443,-62.4016,67.51501,-0.03207729,-0.4026062,-0.03726419,42.02698,5.136295,7.990591,1006.895
14.066553116,27.81101,-9.454561,20.10993,-0.03076075,0.2624418,-0.07485315,43.21677,-0.4343753,5.092463,1006.893
14.099330902,1.285444,15.83711,10.88549,-0.3355666,0.9074634,0.3874863,43.21677,-0.4343753,5.092463,1006.893
14.132107735,-136.9954,29.54661,-10.74002,-0.5344719,-0.06374376,-0.01058978,43.2484,-2.274392,3.815778,1006.893
14.164885521,363.8223,177.6329,92.0117,-6.128281,1.711014,2.930052,43.25058,-2.25656,5.121113,1006.897
14.200184345,-1057.066,92.06667,91.15646,0.7775441,-0.3091672,0.8001695,43.25058,-2.25656,5.121113,1006.897
14.232961655,492.5987,7.623223,-10.25131,-2.080043,-0.6329182,-0.7887603,43.26701,-2.961659,6.873019,1006.897
14.265738964,-154.0786,-18.31846,-30.59395,-0.9545767,0.9092523,0.6185613,42.26016,-7.787181,4.774316,1006.897
14.298516750,14.26869,34.56949,-57.65639,-0.7335294,0.5309973,-0.04230254,42.26016,-7.787181,4.774316,1006.897
14.333815575,-61.6429,39.71055,-36.33632,-0.6558142,0.738107,0.02122209,43.33099,-6.635748,4.754761,1006.897
14.366592884,-29.15374,58.7384,-23.32436,-0.8546136,0.3817424,-0.1385441,42.58472,-5.522861,6.043846,1006.897
14.399370670,-35.98702,49.28357,-7.746661,-0.835923,0.5710147,0.302535,42.58472,-5.522861,6.043846,1006.897
14.432147503,-28.47041,29.96026,2.088671,-0.8567114,0.5227605,0.2521141,43.65282,-4.043955,7.759963,1006.895
14.464925289,36.50792,26.00105,17.17766,-0.9166257,0.3773683,0.1475384,42.56339,-4.018411,9.439661,1006.895
14.500224114,-16.91595,15.18709,6.731436,-1.034238,0.203014,0.07972681,42.55881,-3.636142,10.73927,1006.895
14.533001423,-20.33259,27.30109,-11.412,-1.026188,0.07158651,0.01058972,42.55881,-3.636142,10.73927,1006.898
14.565778732,15.2005,11.16878,-28.88346,-1.00216,0.3850918,0.03027741,42.20222,-3.993762,11.18058,1006.898
14.598556519,20.91561,-11.52281,-20.81971,-0.7198132,0.6920946,-0.005031661,42.5663,-3.994635,11.18011,1006.893
14.633854866,23.02772,-2.481625,14.97845,-0.6346923,1.045119,0.02119063,42.5663,-3.994635,11.18011,1006.892
14.666632652,-38.84458,11.8779,16.75003,-0.8436318,0.4632795,-0.1228081,42.19691,-3.617438,12.04507,1006.894
14.699409962,1.161202,34.80586,11.31311,-1.057281,0.2311826,-0.254326,42.54747,-2.889436,12.03314,1006.894
14.732187271,1.161202,42.31063,-9.273886,-1.121988,0.3130185,-0.1045924,42.54747,-2.889436,12.03314,1006.894
14.764965057,-10.89023,21.21454,-16.23803,-0.7815319,0.2887189,-0.08610882,42.5691,-3.971709,12.85839,1006.894
14.800263882,45.63968,10.99151,-16.91001,-0.8286719,0.736228,0.02885534,41.47229,-3.586822,14.15941,1006.892
14.833041191,-0.7024214,2.600345,12.77925,-0.6890427,0.8557826,0.1741966,41.47229,-3.586822,14.15941,1006.892
14.865818500,-13.37506,-17.37298,20.78191,-0.8579852,0.4422616,0.2339467,40.7381,-3.214696,14.58973,1006.892
14.898596287,-19.4629,-14.71381,-1.087958,-1.026466,0.2319241,0.235626,41.09615,-2.845188,15.01864,1006.892
14.933894634,-16.97807,-11.05006,-27.47841,-1.033619,0.1768327,0.2362074,41.09615,-2.845188,15.01864,1006.891
14.966672420,7.497521,-21.98221,-34.19821,-0.8112945,0.6100143,0.2080709,41.10748,-3.591893,13.72477,1006.891
14.999449730,-8.778122,-4.963518,-39.57404,-0.9295095,0.4626162,0.02517464,41.46407,-3.234273,13.28346,1006.889
15.032227039,12.71567,-10.69551,-24.24069,-0.7868823,0.7355438,0.09037155,41.46407,-3.234273,13.28346,1006.889
15.065004826,-37.22944,-3.190737,-9.762598,-0.7101728,0.4971081,-0.1111416,41.79976,-1.788436,12.452,1006.889
15.100303650,18.98986,3.723106,-2.309738,-0.9496002,0.520714,-0.07065626,42.14959,-1.066379,12.00496,1006.889
15.133080959,-30.27191,29.01477,-6.52488,-0.9541957,0.1681339,-0.2698791,42.14959,-1.066379,12.00496,1006.885
15.165858269,2.341497,44.37887,-24.7905,-1.162744,0.1121583,-0.01417835,41.40998,-0.3187766,13.23762,1006.884
15.198636055,8.056608,36.22408,-29.18891,-0.9198813,0.3124013,0.1240574,41.41892,-0.6653824,14.54868,1006.884
15.233934403,-4.553909,12.6461,-17.64308,-0.760022,0.4457189,-0.01708037,41.41892,-0.6653824,14.54868,1006.884
15.266712189,-0.3296967,9.632375,-8.968441,-1.010097,0.2813836,0.1844883,41.03602,0.4406891,15.40218,1006.884
15.299489498,-8.902364,3.191272,-16.91001,-1.068933,0.09575722,0.1059643,40.6659,0.8119416,15.83204,1006.888
15.332266808,9.112661,-4.195313,-35.72543,-1.127355,-0.1031173,-0.1973367,40.6659,0.8119416,15.83204,1006.888
15.365044117,-23.93559,25.41012,-48.98175,-1.113597,0.009630257,-0.3193237,41.01864,1.557775,17.12544,1006.888
15.400343418,19.54895,39.11963,-72.5621,-1.059456,0.1477237,-0.1367428,40.26835,2.707628,16.67312,1006.888
15.433120728,5.136932,26.53288,-67.73608,-0.9209003,0.3101252,0.008055025,40.24338,4.182357,17.89338,1006.888
15.465898037,33.02916,13.35521,-82.092,-1.225188,-0.1262578,0.2347118,40.24338,4.182357,17.89338,1006.888
15.498675823,114.4074,-29.19152,-73.173,-0.9788662,0.2517421,0.366895,39.03711,7.106561,18.28414,1006.886
15.533974171,117.3271,-44.91017,3.982431,-0.5473695,1.338583,0.3045446,39.04224,10.01002,17.368,1006.886
15.566751957,24.7671,-17.78663,92.74477,-0.7377213,1.09541,0.0930821,39.04224,10.01002,17.368,1006.884
15.599529266,-14.12051,-25.23231,116.8749,-1.201439,0.2621705,0.03286078,38.97601,13.31588,14.76696,1006.883
15.632307053,67.38195,-56.31506,142.8988,-1.904277,0.2255988,0.4514422,40.47328,11.05909,14.36531,1006.883
15.665083885,-57.72929,-81.31126,131.2919,-1.185905,-0.1357742,0.07963443,40.47328,11.05909,14.36531,1006.887
15.700383186,29.17767,-81.01579,138.4393,-1.09355,0.2620108,0.2304448,41.64312,6.654355,12.31926,1006.887
15.733160973,25.0777,-88.99331,142.4101,-0.5975148,0.7992011,0.4022302,42.82001,1.817652,9.782622,1006.887
15.765937805,-83.4473,-38.76453,72.21886,-0.4129986,-0.7706208,-0.3226977,42.82001,1.817652,9.782622,1006.887
15.798715591,9.609628,47.68806,-5.791812,-0.5819424,0.06038779,-0.1728832,43.6446,-3.691406,6.884009,1006.887
15.834013939,13.83384,29.48751,9.785888,-1.950692,1.772392,0.4299665,43.70691,-6.959451,7.805803,1006.887
15.866791725,-104.382,-36.04627,89.07943,-0.8283517,0.3775563,-0.07169081,43.70691,-6.959451,7.805803,1006.887
15.899569035,-2.441803,-37.34631,35.01565,0.1791981,-0.2444477,-0.1698968,43.68725,-5.861045,8.161566,1006.889
15.932346821,12.5293,23.28278,-35.66434,-0.1321199,0.1877711,-0.1852134,43.75994,-9.953518,6.547263,1006.889
15.965123653,-37.29156,40.59694,-56.00698,-0.9004411,0.5123487,0.1381507,43.75994,-9.953518,6.547263,1006.889
16.000422955,-25.42649,22.04184,-34.87019,-0.9787157,0.6066471,0.4154586,43.76743,-10.31201,6.988105,1006.889
16.033200741,668.7732,211.0793,97.99843,-5.782849,4.147893,2.194853,43.37236,-8.466027,8.638212,1006.889
16.065977573,-615.8223,42.78337,16.75003,-0.07309613,-1.121764,-0.02886258,43.37236,-8.466027,8.638212,1006.889
16.098755360,429.1733,-0.05882538,-44.70552,-1.65696,0.4332232,-0.2455064,43.7176,-7.361701,9.490776,1006.889
16.134053707,-109.2895,19.9145,-62.17698,-0.729211,0.5847843,0.1231946,43.78376,-11.01796,8.677853,1006.887
16.166831493,-29.0295,18.2599,-43.667,-0.6634897,0.8986044,-0.002106966,43.78376,-11.01796,8.677853,1006.887
16.199608803,-52.38691,50.6427,-20.20882,-0.4683881,0.7224457,-0.07498984,44.08844,-7.727011,9.496037,1006.885
16.232386589,-48.59754,22.98732,10.39678,-0.7847412,0.8538246,0.07767279,44.43932,-6.926382,10.35337,1006.885
16.265163422,-47.23088,4.609496,24.50834,-0.7309975,0.5276003,0.1666076,44.43932,-6.926382,10.35337,1006.887
16.300462723,-5.547842,-8.568172,6.425991,-1.067585,0.1703449,0.2545895,43.70513,-6.554256,10.7837,1006.887
16.333240509,-30.39615,-6.32265,-16.29912,-1.028023,0.2586296,0.1556834,43.71978,-7.343869,10.79611,1006.887
16.366017342,-8.902364,17.60989,-33.77058,-1.010715,0.3272989,0.1343589,43.71978,-7.343869,10.79611,1006.891
16.398795128,-33.81279,28.71931,-35.17563,-0.7478677,0.5041552,0.3173491,44.09666,-8.079559,10.37199,1006.893
16.431572437,-19.83562,6.973204,-26.74534,-0.8680694,0.609609,0.2881123,43.71978,-7.343869,10.79611,1006.893
16.466871262,-22.56894,-10.04549,-10.00695,-0.6520748,0.6485029,0.2986126,43.69982,-6.177931,11.64819,1006.895
16.499648571,-11.6978,-18.73211,0.3781786,-0.8752407,0.5799888,0.3796326,43.69982,-6.177931,11.64819,1006.895
16.532426357,-20.45683,-21.33219,-9.151708,-0.9268895,0.2226978,0.2599532,44.05569,-5.826254,10.77177,1006.895
16.565203190,-26.73103,-23.40044,-23.14109,-0.9995651,0.3579243,0.2527013,44.05423,-5.838142,9.901543,1006.893
16.600502491,7.186918,6.145906,-29.98306,-1.004709,0.06801457,0.2415978,44.05423,-5.838142,9.901543,1006.893
16.633280277,-11.63568,26.76925,-38.71879,-0.9914188,0.1850729,0.1797755,44.4101,-5.486465,9.02512,1006.891
16.666057110,-2.814528,25.70558,-22.34694,-0.810893,0.4091884,0.04374693,44.39054,-4.387211,9.443042,1006.891
16.698834896,-43.37939,46.26984,-15.07734,-0.8778426,0.3949006,0.1007279,44.39054,-4.387211,9.443042,1006.891
16.731612205,-6.169049,32.32397,-17.09328,-1.040214,0.09660071,0.2628188,44.37244,-3.276068,10.73119,1006.891
16.766911030,-6.044808,-1.358864,-17.88744,-0.8886451,0.2393923,0.09328615,44.36244,-2.518324,12.83313,1006.897
16.799688339,-0.1433343,16.30985,-8.968441,-0.9577192,0.5061034,0.1493673,44.36244,-2.518324,12.83313,1006.897
16.832466125,-4.678151,11.70062,6.670347,-0.8128184,0.4397497,0.2386569,43.63366,-2.521673,12.46111,1006.897
16.865242958,-9.709934,12.88247,11.86291,-0.8455333,0.3083436,0.2216036,43.62076,-1.787705,12.82261,1006.897
16.900542259,19.67319,-7.504504,1.53887,-1.164004,0.07026723,0.1967242,43.62076,-1.787705,12.82261,1006.895
16.933320045,-13.93415,2.009419,-2.920628,-0.9604061,0.1964583,0.09881604,43.26418,-2.145325,13.26392,1006.897
16.966096878,-6.169049,18.61446,-14.2221,-1.075086,0.01182371,0.01994164,43.26418,-2.145325,13.26392,1006.897
16.998874664,13.77172,16.48713,-14.40536,-1.02968,0.3110453,-0.009017376,43.26418,-2.145325,13.26392,1006.897
17.031651974,-4.61603,42.84246,-16.60457,-0.9220906,0.404684,0.01994937,43.25814,-1.774944,13.6933,1006.897
17.066950798,-20.39471,48.9881,-15.68823,-1.057624,0.266247,0.2361296,43.2468,-1.028239,14.98717,1006.895
17.099728107,-19.71138,25.35103,-8.479729,-0.808818,0.2036959,0.3270924,43.2468,-1.028239,14.98717,1006.895
17.132505894,7.435401,7.505038,-8.601907,-1.020669,0.2557484,0.2928584,41.77915,-0.2780423,16.28293,1006.895
17.165282726,4.080879,0.236638,10.15242,-0.7711452,0.4503723,0.1052049,41.7934,-1.000973,16.7295,1006.895
17.200582027,-22.50681,21.45091,32.44991,-0.7376604,0.6746129,0.163995,41.7934,-1.000973,16.7295,1006.895
17.233359814,-21.82349,20.6827,41.49109,-0.9024132,0.3017437,0.04123777,41.7806,-0.2661548,17.15315,1006.893
17.266136646,-31.63857,31.73304,25.18032,-1.150911,0.05948947,0.1018811,40.71676,-1.710247,17.98555,1006.893
17.298918247,-43.31728,37.16957,6.731436,-1.253913,-0.1383114,0.006632583,40.71676,-1.710247,17.98555,1006.892
17.331691742,-52.20055,46.80167,-2.79845,-1.130783,-0.06318583,-0.05394291,41.10862,-3.162923,18.44311,1006.894
17.366990566,-19.58714,42.42881,-14.95516,-0.9463812,0.2012434,-0.0003849453,40.40292,-4.236657,19.76657,1006.894
17.399767876,-12.07052,31.14211,-12.87814,-0.9151725,0.370254,0.1032604,40.40292,-4.236657,19.76657,1006.894
17.432545662,-10.14478,24.52373,-1.698848,-0.8272772,0.3519078,0.02076676,39.25968,-4.574555,21.51424,1006.894
17.465323448,-10.39326,26.47379,13.87885,-0.9002528,0.402647,-0.01908965,38.52684,-4.191391,22.75262,1006.894
17.500621796,-5.175117,29.78298,20.23211,-0.9587078,0.2608436,-0.09960606,38.15745,-3.814193,23.61759,1006.888
17.533399582,11.03841,23.28278,11.86291,-1.058252,0.2281486,-0.2692414,38.15745,-3.814193,23.61759,1006.889
17.566176415,13.89596,29.54661,-3.40934,-1.096513,0.17734,-0.3157662,37.44427,-4.529434,24.50021,1006.889
17.598954201,-4.553909,50.40633,-8.113194,-1.0377,0.1565383,-0.2961385,36.35953,-4.885309,24.94246,1006.889
17.631731510,-2.938769,65.53406,-11.16765,-1.00529,0.2286355,-0.1928312,36.35953,-4.885309,24.94246,1006.887
17.667030335,-12.44325,48.33808,-22.89674,-1.082876,0.2149784,-0.03233314,35.62076,-4.130915,26.67239,1006.885
17.699807644,0.5399942,16.25075,-30.22742,-0.9729964,0.1605203,-0.01133176,33.79642,-3.739188,28.3473,1006.884
17.732585430,17.87169,7.859594,-36.51959,-0.9562579,0.2627268,-0.0418513,33.79642,-3.739188,28.3473,1006.884
17.765363216,-6.914499,14.53707,-34.56474,-0.9395269,0.3845199,0.0128007,33.06222,-3.367062,28.77761,1006.884
17.800661564,-39.40366,11.70062,-22.77456,-0.8508459,0.4451101,-0.06548157,33.05016,-2.6263,29.63638,1006.882
17.833439350,-22.00985,-1.71342,-7.502305,-0.8373474,0.4760283,-0.1180286,33.05016,-2.6263,29.63638,1006.88
17.866216183,-11.6978,-21.86403,1.966493,-0.9483421,0.4049906,-0.0444913,32.67183,-1.902497,29.19028,1006.878
17.898993969,-34.62037,-16.4275,8.503018,-0.9731919,0.4175837,-0.1647918,32.30775,-1.901625,29.19075,1006.878
17.931771278,-62.13987,-0.8861229,21.02627,-1.092842,0.450312,-0.4273808,32.30775,-1.901625,29.19075,1006.877
17.967070103,-51.95206,6.44137,55.78592,-1.495566,0.5844461,-0.124814,32.68463,-2.637315,28.76662,1006.877
17.999847889,-28.84313,-34.56895,70.20293,-1.205041,0.3019022,-0.2025765,32.71095,-4.101007,28.35443,1006.875
18.032625198,-9.39933,-44.37833,77.96124,-1.097083,0.4720083,-0.03364955,32.71095,-4.101007,28.35443,1006.875
18.065402985,-44.37333,-43.61013,83.09271,-0.9435772,0.421794,-0.1552411,32.77292,-7.44168,28.40696,1006.875
18.098179817,-32.3219,-32.14615,77.41143,-0.8046637,0.6175516,-0.1168754,33.55236,-10.38185,26.77357,1006.875
18.133479118,-59.40656,-37.52359,99.70892,-0.9512334,0.8164601,0.01747243,33.55236,-10.38185,26.77357,1006.878
18.166255951,-107.7986,-49.75577,94.08873,-0.6910417,0.4225118,-0.07545378,33.96087,-12.95755,25.07277,1006.876
18.199033737,-72.45192,-39.35546,86.33043,-0.7669216,0.6819727,-0.07325804,33.30457,-17.05507,22.96213,1006.876
18.231811047,-102.0835,-28.00966,92.98913,-0.5684453,0.7307341,-0.09353813,33.30457,-17.05507,22.96213,1006.873
18.267109871,-88.35484,-1.772513,77.47252,-0.4231253,0.4653469,-0.1209204,33.01134,-21.09188,20.91223,1006.873
18.299887657,-79.03672,21.86456,56.88552,-0.4380909,0.6640765,0.03959037,31.63181,-25.4973,18.3722,1006.878
18.332664967,-104.6305,29.6057,40.81911,-0.3056081,0.4962873,0.05493261,31.63181,-25.4973,18.3722,1006.878
18.365442753,-93.51086,53.30187,21.75933,-0.2617342,0.4347009,0.1107593,29.82344,-29.58526,16.76033,1006.876
18.398219586,-89.10029,74.98888,-12.69487,-0.4154164,0.3447763,0.1810568,28.03395,-31.42686,15.05088,1006.876
18.433518887,-105.438,86.03922,-27.60059,-0.7267855,0.8065046,0.207093,27.33815,-33.25919,14.21024,1006.876
18.466295719,-71.89283,60.86573,-21.55278,-1.132418,1.054824,0.0541264,27.33815,-33.25919,14.21024,1006.878
18.499073506,-612.5299,-285.7719,87.18568,-0.5118636,0.7736151,0.6822182,26.98011,-33.6287,13.78133,1006.878
18.531851292,195.2886,105.5989,-1.087958,-1.289237,-0.3220405,0.3829368,25.5106,-33.31341,9.923636,1006.878
18.567149639,-227.2569,49.75631,-6.647058,-0.7502806,0.4972964,0.314477,25.5106,-33.31341,9.923636,1006.878
18.599927426,-4.056943,45.56073,-36.82504,-1.059524,0.4739878,0.3460528,24.84806,-36.62262,12.15266,1006.878
18.632704735,-111.8986,46.21075,-38.71879,-0.7061553,0.4770003,0.07420345,24.48711,-37.0159,9.983301,1006.876
18.665482521,-118.3592,78.71172,-36.39741,-0.7686744,0.6227922,0.03321626,24.48711,-37.0159,9.983301,1006.876
18.698259354,-122.4591,81.96182,-25.95119,-0.8356682,0.4507375,0.2353251,25.93458,-36.67194,8.732515,1006.876
18.733558655,-114.2592,68.54778,-33.95385,-1.022065,0.2577047,0.4358232,26.66586,-37.06784,6.561747,1006.876
18.766335487,-51.82782,34.21493,-31.51029,-0.9079915,0.2419436,0.2733575,26.66586,-37.06784,6.561747,1006.876
18.799113274,-19.4629,36.57864,-25.21812,-0.8402469,0.5398772,0.242422,27.39184,-37.08742,5.255472,1006.876
18.831891060,-83.4473,39.53327,-10.00695,-0.8091313,0.3008264,0.1473988,28.10461,-36.30549,4.807006,1006.876
18.867189407,9.85811,50.76088,-17.33764,-1.112302,0.1753411,0.1863346,28.10461,-36.30549,4.807006,1006.88
18.899967194,-34.37188,47.21532,-8.540817,-0.7896176,0.4503973,0.06096338,28.0965,-35.9521,3.993211,1006.88
18.932744503,-20.45683,58.6793,6.242724,-0.8800148,0.4907985,0.09625629,28.83277,-36.30724,4.806066,1006.88
18.965522289,-33.81279,44.55615,18.76597,-0.760358,0.4020918,0.08310943,28.83277,-36.30724,4.806066,1006.88
18.998299122,-19.21441,40.00602,27.86824,-0.8950084,0.2693563,0.1375414,28.46266,-35.93599,5.235918,1006.88
19.033598423,-25.73709,34.15584,14.79519,-1.045558,0.2697472,0.0945753,28.47731,-36.7256,5.248333,1006.882
19.066376209,-22.00985,49.69721,3.432629,-1.122033,0.1708985,0.1194551,28.47731,-36.7256,5.248333,1006.88
19.099153042,-35.80066,33.6831,-20.94189,-1.197805,0.01334149,0.3157865,27.0367,-37.43315,6.567007,1006.882
19.131930828,-1.572112,4.25494,-39.2686,-1.11978,0.106586,0.4637204,27.02994,-37.06871,6.561277,1006.882
19.167229176,-9.33721,-9.809117,-17.09328,-0.5315816,0.6511497,0.4643927,27.02994,-37.06871,6.561277,1006.882
19.200006962,-13.62354,2.245789,14.79519,-0.685212,0.9125615,0.3502803,27.02245,-36.71022,6.120436,1006.882
19.232784271,-42.69607,20.20996,34.28258,-0.8307126,0.6185134,0.2629794,28.10679,-36.28766,6.112341,1006.882
19.265562058,-70.83678,2.363975,31.47249,-0.9009914,0.3385927,0.155743,28.10679,-36.28766,6.112341,1006.882
19.298338890,-64.50046,0.1184527,20.843,-1.02465,0.2425925,0.01658604,27.02703,-37.09249,4.82083,1006.882
19.333638191,-44.99453,15.42346,8.808463,-1.008378,0.3349908,-0.02306348,26.32249,-38.57652,2.793449,1006.88
19.366415978,-96.67902,31.49667,9.846976,-0.7898531,0.523995,-0.0710401,26.32249,-38.57652,2.793449,1006.882
19.399192810,-31.63857,30.25572,11.80182,-0.9614486,0.4165616,0.02435708,25.24015,-39.33249,0.6307607,1006.88
19.431970596,-81.9564,12.46882,2.76065,-0.8276162,0.3375327,0.265321,25.60954,-39.70969,-0.2342026,1006.882
19.467268944,-22.63106,-6.795392,-4.264587,-0.8562195,0.5066975,0.182821,24.5145,-39.73,-1.911081,1006.882
19.500046730,-23.74923,-0.4133815,-10.74002,-0.9193152,0.4737741,0.07663935,24.5145,-39.73,-1.911081,1006.882
19.532824040,-48.65966,31.67394,-0.4770676,-0.7925379,0.6295658,-0.08467098,24.88243,-40.11908,-3.646268,1006.88
19.565601826,6.689951,49.75631,25.73012,-0.7742597,0.8724819,-0.2636657,24.86819,-39.39615,-4.092839,1006.88
19.598379612,-51.88994,72.32971,42.10197,-0.8527843,0.6254683,-0.1812756,24.86819,-39.39615,-4.092839,1006.88
19.633677960,-16.10837,55.90195,40.08604,-0.9064937,0.5976686,0.08797488,24.14003,-39.39441,-4.091899,1006.88
19.666455746,-67.66862,50.40633,19.01033,-1.032804,0.2344956,0.192796,22.33317,-40.11892,-4.07809,1006.88
19.699232578,-16.66746,34.33312,0.1949115,-1.031747,0.2040353,0.2236465,22.33317,-40.11892,-4.07809,1006.88
19.732010364,-1.634233,43.13793,-6.52488,-0.9954129,0.6535732,0.2498391,21.61105,-40.48755,-4.506533,1006.878
19.767308712,-96.36842,60.98392,8.441929,-0.857565,0.6367084,0.04014518,22.33317,-40.11892,-4.07809,1006.878
19.800086498,-20.58107,36.99229,44.78989,-1.165614,0.9603601,0.237265,22.33317,-40.11892,-4.07809,1006.878
19.832864284,-34.86885,-16.07294,88.34637,-1.049803,0.8651643,0.276124,22.32288,-39.78335,-6.19722,1006.878
19.865641594,-50.64753,-42.84193,94.14982,-0.8008883,0.4784997,-0.01655148,21.22992,-39.78667,-6.630922,1006.878
19.898419380,-37.35368,-30.78702,78.81647,-0.564186,0.3360731,-0.26143,21.22992,-39.78667,-6.630922,1006.878
19.933717728,-28.22193,0.8275648,61.46719,-0.6630163,0.6731443,-0.1370309,17.18852,-41.25845,-8.343203,1006.878
19.966495514,-49.40511,-1.240679,70.87491,-0.6978178,0.6091726,-0.119523,14.63718,-41.27527,-10.0182,1006.882
19.999272346,-51.14449,-12.52738,70.69164,-0.598765,0.6422838,0.04048567,14.63718,-41.27527,-10.0182,1006.882
20.032050133,-68.97315,-5.554445,43.50702,-0.534444,0.3286436,-0.03476797,12.44981,-41.29381,-11.75583,1006.884
20.064827919,-61.14594,15.95529,0.5614457,-0.4433259,0.1984782,-0.0222725,9.836226,-41.32322,-14.36313,1006.88
20.100126267,-57.10809,45.44254,-63.39875,-0.5051472,0.04958547,-0.06763083,9.836226,-41.32322,-14.36313,1006.882
20.132904053,-267.946,-199.5557,77.5947,-1.591852,1.387432,-2.622138,8.735157,-40.97315,-15.61063,1006.878
20.165681362,25.94739,64.05674,-43.48374,-0.8365191,-1.162198,-0.4433688,10.54097,-39.8375,-12.21143,1006.88
20.198459148,-139.7908,5.909535,-67.49171,-1.355567,0.8896234,0.7292924,10.54097,-39.8375,-12.21143,1006.88
20.233757496,-109.9729,50.40633,-88.75069,-0.8982235,0.1388445,-0.1366305,10.48284,-37.37475,-18.71606,1006.88
20.266535282,-57.35657,86.27559,-69.01894,-0.6723449,0.7027741,-0.2073323,13.43578,-36.63896,-22.15104,1006.882
20.299313068,-62.88532,78.17989,-31.51029,-0.6281114,0.9291525,0.00594623,13.43578,-36.63896,-22.15104,1006.886
20.332089901,-29.71282,32.08759,-10.80111,-0.8902726,0.3660277,0.3761399,17.37761,-33.38646,-23.51312,1006.886
20.364867687,14.08232,-33.68256,-9.457152,-0.9210876,0.5158307,0.6638415,19.88485,-31.21189,-23.9859,1006.886
20.400166035,-26.10982,-1.004308,-18.98704,-0.9867301,0.05017282,0.1756355,21.01748,-30.12134,-24.00458,1006.886
20.432943821,21.97166,7.682316,-33.0986,-1.165314,0.2205479,0.2374166,21.01748,-30.12134,-24.00458,1006.888
20.465721130,7.435401,6.973204,-53.07471,-0.8888312,0.3536749,0.27892,21.01072,-29.75691,-24.01031,1006.886
20.498498917,21.16409,-2.540718,-47.75997,-0.828635,0.5095122,-0.005942454,21.36876,-29.3874,-23.5814,1006.886
20.533797741,20.85349,22.3373,-5.180922,-0.5840643,1.150583,-0.2120675,21.36876,-29.3874,-23.5814,1006.886
20.566575050,-22.00985,44.73343,48.27197,-0.6365162,0.7575289,-0.1506991,23.54719,-29.02225,-23.15483,1006.884
20.599352837,4.95057,40.65603,66.23214,-0.8796465,0.4980557,-0.121331,24.26255,-28.28918,-22.73212,1006.884
20.632129669,-10.89023,67.42502,47.78325,-1.252304,-0.05814391,-0.303489,24.26255,-28.28918,-22.73212,1006.878
20.664907456,-3.994822,87.39835,1.722137,-1.460724,-0.224255,-0.3374024,23.19954,-29.72648,-21.40246,1006.876
20.700205803,-26.60678,83.61642,-57.77857,-1.383465,-0.1762866,0.02432612,23.21597,-30.43158,-19.65055,1006.875
20.732983589,1.03696,59.03386,-89.91138,-1.144805,0.1755351,0.2533207,23.21597,-30.43158,-19.65055,1006.875
20.765761375,52.2866,20.32815,-74.2726,-0.5599225,0.918862,0.4053303,25.02491,-29.69008,-18.42118,1006.875
20.798538685,7.311159,25.05556,-17.09328,-0.5777656,1.090346,0.5033119,28.99741,-27.86561,-17.58478,1006.879
20.833837509,5.199053,-9.336376,32.26664,-0.7410497,0.7040374,0.3372489,28.99741,-27.86561,-17.58478,1006.875
20.866614819,4.515724,16.30985,28.60131,-1.291484,-0.009614411,0.2789785,30.4959,-26.69142,-15.86444,1006.875
20.899392605,-3.932702,-26.47326,-4.69221,-1.385834,-0.1172989,0.455543,29.72171,-27.47914,-15.851,1006.875
20.932169437,-0.8887837,-42.84193,-36.51959,-1.184473,-0.08208667,0.3043461,29.72171,-27.47914,-15.851,1006.875
20.964947224,8.18085,-48.33754,-57.5953,-1.007739,0.3591244,0.435155,29.3697,-28.21903,-16.7093,1006.874
21.000246525,-32.69462,-22.63223,-31.08266,-0.5023403,0.7257806,0.02520891,29.34724,-27.14355,-18.03182,1006.874
21.033023357,7.435401,-3.072552,3.188273,-0.9358064,0.6522134,-0.01745602,29.34724,-27.14355,-18.03182,1006.874
21.065801144,5.261174,-10.34095,26.70754,-0.7335698,0.5333937,-0.1178799,29.74841,-26.00835,-19.35585,1006.874
21.098578453,2.527859,-5.67263,47.29454,-0.8930476,0.3913735,-0.2482179,29.66817,-24.90895,-18.93785,1006.874
21.133877277,-14.80384,13.82796,29.51764,-1.123972,0.1290094,-0.08890679,29.66817,-24.90895,-18.93785,1006.875
21.166654587,-0.2054551,18.73265,11.924,-1.055001,0.1031327,-0.1809715,28.94677,-25.27164,-18.93118,1006.875
21.199432373,13.58536,26.3556,-10.98438,-1.101911,0.2557173,-0.03427484,28.25283,-27.15877,-19.33574,1006.881
21.232210159,7.000556,23.34188,-1.882115,-0.744195,0.7746351,0.1975551,28.25283,-27.15877,-19.33574,1006.881
21.264986992,4.329362,11.70062,18.09399,-0.8210502,0.6360135,0.2465638,28.6273,-27.49436,-17.15493,1006.881
21.300286293,6.255106,-5.790816,41.12455,-0.7742719,0.5581434,0.1984341,28.99137,-27.49523,-17.1554,1006.881
21.333063126,-10.89023,-0.1770107,34.77129,-0.9837783,0.2023155,-0.01136918,28.99137,-27.49523,-17.1554,1006.881
21.365840912,-11.75992,16.54622,3.188273,-1.278702,0.05807552,-0.08795151,28.26322,-27.49348,-17.15446,1006.88
21.398618221,-13.1887,23.22369,-34.99236,-1.256608,-0.05259851,-0.1311597,27.18524,-28.2138,-16.70647,1006.88
21.433917046,2.714221,19.9145,-53.74669,-0.7966794,0.5760322,0.1363646,27.54183,-27.85618,-17.14779,1006.88
21.466694832,-24.12195,3.486736,-40.00166,-0.7822299,0.6278589,0.1478049,27.54183,-27.85618,-17.14779,1006.881
21.499472141,16.56715,-19.08667,-13.48903,-0.7228526,0.7931514,0.2432059,28.96393,-25.9708,-16.74416,1006.881
21.532249928,-9.834175,-15.18655,-0.4770676,-0.7201377,0.8804907,0.2628036,30.10332,-25.24469,-16.75711,1006.881
21.565026760,3.521791,-18.31846,33.67169,-0.663076,0.7449535,0.1040232,30.10332,-25.24469,-16.75711,1006.881
21.600326061,42.34728,25.11466,55.78592,-0.9502442,0.7520865,-0.2760636,30.09583,-24.88619,-17.19795,1006.881
21.633103848,-39.46579,56.78833,63.36096,-1.114424,0.6053669,-0.09590509,28.95041,-25.24192,-16.75562,1006.881
21.665880680,-9.585692,15.24618,80.77132,-1.966743,0.4848462,0.05648299,28.95041,-25.24192,-16.75562,1006.88
21.698658466,69.6183,-63.40617,107.5283,-1.313225,0.8030957,0.4920111,28.6301,-27.47143,-15.47664,1006.88
21.733956814,-55.24446,-117.3578,124.5111,-0.873418,2.072201,0.435624,26.10871,-28.92222,-15.38827,1006.878
21.766734600,-119.9743,-21.33219,68.00372,-0.9024298,-1.444681,-1.625011,26.10871,-28.92222,-15.38827,1006.878
21.799511909,118.6316,-10.69551,-45.62185,-0.08897617,0.02487842,-0.1287509,22.13861,-31.14679,-18.82962,1006.88
21.832289696,93.72116,18.2599,-49.04284,-1.750059,1.708329,0.2914364,19.8942,-31.13547,-18.39161,1006.878
21.865067482,-87.17455,-89.99788,94.8218,-1.149173,1.813549,0.2720422,19.8942,-31.13547,-18.39161,1006.877
21.900365829,-158.1786,-110.9167,39.53624,0.01159775,-0.9203918,-0.6589881,21.44259,-32.56119,-15.75998,1006.877
21.933143616,38.99276,5.436794,-107.9937,0.5816029,-1.299804,-0.644846,19.20235,-33.35516,-20.9048,1006.875
21.965920448,17.68533,103.7079,-171.9539,-0.6622216,0.7815236,0.03898223,19.20235,-33.35516,-20.9048,1006.875
21.998698235,772.5149,109.499,40.75802,-8.130006,6.469604,1.792577,18.07018,-31.16082,-20.56482,1006.875
22.033997536,-628.6813,74.75252,-64.49835,0.3078803,-2.257651,-2.113795,23.93694,-29.65265,-15.87126,1006.875
22.066774368,304.9939,45.20617,-83.43595,-2.177556,0.5167263,0.06174858,23.93694,-29.65265,-15.87126,1006.875
22.099552155,-144.3257,5.673164,-96.44791,-0.7047972,0.05168911,-0.2255285,22.80697,-28.27975,-22.29513,1006.877
22.132329464,49.3048,1.359399,-34.99236,-0.4543987,1.391385,0.01157661,25.35976,-28.25104,-19.74991,1006.877
22.165107250,-13.93415,19.79631,23.95854,-0.7028531,0.7058364,-0.01038758,25.35976,-28.25104,-19.74991,1006.877
22.200405598,-89.22453,38.70597,37.03159,-0.9820028,0.08154015,0.05812473,28.58946,-25.63521,-18.92498,1006.885
22.233183384,4.577845,18.43718,9.358264,-1.482312,-0.2622456,0.03864961,28.58873,-25.64115,-19.36009,1006.885
22.265961170,-8.094794,0.9457502,-13.36685,-1.034831,0.05234235,0.1252033,28.58873,-25.64115,-19.36009,1006.885
22.298738003,-5.547842,8.036872,-31.75464,-1.096244,0.1295334,0.02318395,27.85985,-25.64535,-19.79426,1006.885
22.331515789,-3.622098,18.79174,-20.39209,-0.7718746,0.567787,0.1815662,28.21717,-25.28179,-19.80046,1006.885
22.366814137,-12.81597,17.84626,-12.69487,-0.9734482,0.37268,0.1019509,28.21717,-25.28179,-19.80046,1006.885
22.399591923,-35.24157,11.34606,7.953216,-0.6774786,0.5024362,0.2656791,29.65392,-24.18602,-19.38442,1006.887
22.432369232,-7.970552,-15.30474,12.29054,-0.8677613,0.2699466,0.2597418,30.06588,-23.45222,-18.96132,1006.887
22.465147019,1.596047,-32.08706,19.80449,-0.8854216,0.5483271,0.2511809,30.06588,-23.45222,-18.96132,1006.887
22.500445843,7.870246,-23.22316,27.25735,-0.768038,0.3246145,-0.1232598,28.91828,-23.82578,-19.82432,1006.885
22.533223152,-38.9067,29.01477,12.10727,-1.267158,0.08474314,-0.189105,28.9318,-24.55466,-19.81286,1006.885
22.566000939,30.54433,47.92443,-6.585969,-1.162326,0.1181637,-0.1316407,28.56637,-24.56482,-20.62046,1006.885
22.598777771,-0.9509045,51.52909,-15.81041,-1.013602,0.2372644,-0.2727305,28.56637,-24.56482,-20.62046,1006.885
22.631555557,15.13838,50.5836,-13.61121,-0.9721709,0.4390867,0.05467435,28.94823,-25.25975,-18.06096,1006.885
22.666854859,13.02627,32.50124,5.143122,-0.6705253,0.640282,0.2591971,30.09583,-24.88619,-17.19795,1006.883
22.699631691,29.67464,21.33273,19.37686,-0.9614022,0.4748817,0.4266875,30.09583,-24.88619,-17.19795,1006.885
22.732409477,20.35652,-7.268133,25.18032,-0.8768528,0.4730044,0.5453861,31.56181,-25.23035,-15.45365,1006.889
22.765186787,26.94132,-28.48241,29.15111,-0.7964081,0.5439193,0.5609734,30.47769,-25.58113,-14.63845,1006.889
22.800485611,4.267241,-42.07372,21.14845,-0.8980544,0.3824331,0.4334156,30.47769,-25.58113,-14.63845,1006.891
22.833262920,-11.01447,-24.81866,-13.48903,-1.184706,-0.02613759,0.08572406,30.50586,-27.09961,-14.61457,1006.891
22.866040707,10.23083,-14.89109,-36.21415,-0.949104,0.3173345,-0.04195057,29.35898,-27.46723,-15.04247,1006.891
22.898818493,-5.547842,20.85998,-30.3496,-0.8160498,0.6726377,-0.3061065,29.35898,-27.46723,-15.04247,1006.889
22.931595325,19.11411,16.19166,-1.515581,-0.6929081,0.7691558,-0.231933,29.72316,-27.46725,-14.98078,1006.887
22.966894627,17.18836,7.032296,26.70754,-0.7918708,0.7324066,-0.2147952,31.2126,-25.94731,-14.63366,1006.885
22.999671459,6.814193,5.377701,35.56545,-0.8171384,0.5692827,-0.03927376,31.2126,-25.94731,-14.63366,1006.885
23.032449245,-9.523572,10.75514,18.33835,-1.120713,0.2021136,-0.01585771,31.59239,-26.65922,-13.31733,1006.885
23.065227032,10.10659,17.07805,-2.004293,-1.020862,0.09817337,0.1154739,30.15749,-27.80978,-13.29731,1006.884
23.100525379,21.90954,20.15087,-29.00564,-1.045505,0.2417791,0.0647729,30.15749,-27.80978,-13.29731,1006.882
23.133303165,16.19443,34.21493,-33.28187,-0.9237855,0.4863097,-0.07644198,30.17246,-28.52677,-12.41562,1006.882
23.166080475,14.33081,43.55157,-24.48505,-0.7929532,0.6094481,-0.03554077,30.53799,-28.51575,-11.54587,1006.882
23.198858261,65.58044,40.06511,8.319751,-0.7417406,0.7291005,0.01999538,30.53799,-28.51575,-11.54587,1006.882
23.231635094,61.23199,28.42385,16.01697,-0.9119845,0.8761221,0.1453316,31.9918,-28.12,-9.00497,1006.884
23.266934395,92.3545,6.204998,60.48977,-1.57956,1.044545,0.1639902,32.73035,-28.45646,-6.824621,1006.884
23.299712181,-12.81597,-54.18772,109.9719,-1.225113,1.075012,0.2670777,32.73035,-28.45646,-6.824621,1006.885
23.332489014,-39.65215,-73.86558,118.5854,-1.052034,0.3302849,0.05310231,32.02528,-29.52509,-5.128204,1006.891
23.365266800,-10.2069,-93.83891,98.54823,-0.4751975,0.1155953,-0.06635727,28.37439,-32.46059,-7.190987,1006.891
23.400565147,-248.6264,-80.60214,8.197573,-0.1573604,-0.2335466,-0.2288038,24.41999,-35.39621,-9.315536,1006.89
23.433342934,16.44291,-0.7088449,-18.37615,-0.2522798,-0.1258518,-0.1762726,24.41999,-35.39621,-9.315536,1006.888
23.466120720,28.3701,-1.47705,-60.28321,-1.20814,0.8389361,0.05655684,21.89464,-36.94934,-12.27199,1006.882
23.498898029,137.0193,-105.0074,49.24939,-1.703814,1.581767,0.9461695,21.51206,-35.77065,-10.54922,1006.886
23.531675339,-149.109,-41.95554,-8.113194,-0.552343,-0.7624779,-0.2448802,21.51206,-35.77065,-10.54922,1006.886
23.566974163,236.7232,5.614072,-94.37088,-1.975674,0.814604,-0.7690468,21.52267,-36.5233,-12.27821,1006.884
23.599751949,-366.6559,-8.745449,-55.45718,-0.5172977,0.002322471,-0.3361306,21.52765,-36.48254,-9.294587,1006.884
23.632529259,-164.1422,60.62936,-69.69092,-1.151939,0.2025399,-0.3373339,21.52765,-36.48254,-9.294587,1006.884
23.665306568,23.5868,70.67512,-43.60592,-0.8818346,-0.0007865329,-0.06473602,22.59847,-35.82082,-14.03153,1006.883
23.700605869,-24.37044,4.491311,-44.27789,-1.034951,0.2267212,-0.2923999,26.18371,-32.92593,-14.95229,1006.883
23.733382702,-5.982687,30.96483,-62.78786,-1.264334,0.1854101,0.1361371,26.18371,-32.92593,-14.95229,1006.881
23.766160488,-20.20835,51.52909,-91.68297,-1.121747,0.03293426,0.03012909,26.90125,-32.17503,-13.22424,1006.881
23.798937797,23.83529,43.3152,-72.19557,-0.7146082,0.7516335,0.005937577,29.40391,-29.61819,-12.39742,1006.881
23.831715107,6.503589,15.8962,-29.98306,-0.6919142,0.8230722,0.09627209,29.40391,-29.61819,-12.39742,1006.883
23.867014408,1.347564,-8.922728,43.93465,-0.5586059,0.8787848,-0.1067814,32.36587,-28.87861,-11.10738,1006.883
23.899791718,6.689951,-18.8503,57.25205,-1.052608,0.1066374,-0.2401899,32.71039,-27.78023,-10.68993,1006.883
23.932569027,-41.95062,27.47836,38.49772,-1.102258,0.1103743,-0.4836468,32.71039,-27.78023,-10.68993,1006.881
23.965346336,-50.2748,63.76128,9.60262,-1.490699,-0.5194796,-0.522692,31.26687,-28.51156,-11.1117,1006.885
24.000645638,43.71393,64.58857,-31.08266,-1.260146,-0.01438794,-0.235183,30.92308,-29.60399,-11.09404,1006.879
24.033422947,2.714221,56.96561,-50.87551,-1.131852,0.1893343,-0.01918156,30.92308,-29.60399,-11.09404,1006.883
24.066200256,18.86562,39.41509,-60.89411,-0.9356843,0.417235,0.09024151,31.28923,-29.58788,-9.851334,1006.883
24.098978043,38.74427,16.78259,-22.28585,-0.6797726,0.8560489,0.2714093,33.08018,-27.7344,-7.271664,1006.881
24.131754875,-26.60678,-22.92769,10.58004,-0.9800369,0.6239175,0.7995624,33.08018,-27.7344,-7.271664,1006.885
24.167054176,17.93381,-95.43441,26.4021,-0.9325619,0.1932455,0.4438912,35.25257,-26.99887,-6.415718,1006.887
24.199831963,3.956637,-73.39284,14.06212,-0.7983016,0.4643431,0.2559145,33.79408,-27.01322,-7.719174,1006.889
24.232608795,-10.2069,-11.05006,-9.518242,-1.294956,-0.2941718,-0.2953303,33.79408,-27.01322,-7.719174,1006.889
24.265386581,29.17767,5.082238,-8.724085,-0.8440698,0.4508873,-0.08331673,32.34838,-27.76237,-9.446281,1006.887
24.298163891,7.497521,-9.809117,3.249362,-0.9025085,0.2800395,-0.2783535,33.07519,-27.77516,-10.25529,1006.887
24.333462715,50.91994,-14.95018,23.22547,-0.7407238,0.6692023,-0.1902718,33.07519,-27.77516,-10.25529,1006.887
24.366240025,28.68071,7.268667,33.42733,-0.9217417,0.2212203,-0.1689501,33.0833,-28.12856,-9.441491,1006.885
24.399017811,15.75958,9.927838,0.1949115,-1.309006,0.1223995,-0.1866557,33.47588,-29.57529,-8.548819,1006.885
24.431795597,17.43685,27.53746,-41.58998,-1.141837,-0.1509157,-0.2598073,33.47588,-29.57529,-8.548819,1006.883
24.467093945,-11.20083,71.44332,-84.47446,-1.138541,-0.07116026,-0.07076015,31.66225,-29.93536,-8.540739,1006.883
24.499871731,-0.2675759,75.698,-99.92999,-0.9434226,0.1731824,-0.04704176,32.37979,-29.18446,-6.812692,1006.882
24.532649040,12.15658,62.69761,-97.73078,-0.82494,0.5500159,-0.2091469,35.2561,-26.97,-4.302319,1006.88
24.565426350,-2.441803,61.33847,-79.15972,-0.9294119,0.5919213,-0.1507175,35.2561,-26.97,-4.302319,1006.88
24.598204136,14.64141,44.49706,-42.62849,-0.9008026,0.6551998,0.08980012,38.48121,-23.9719,-2.177785,1006.878
24.633502960,-3.74634,17.25533,-18.43724,-0.921667,0.2815003,0.3051002,39.94691,-21.03712,-0.5472944,1006.876
24.666280270,72.41373,-30.60974,1.111247,-1.08021,0.2146917,0.4836808,39.94691,-21.03712,-0.5472944,1006.876
24.699057579,144.7844,-65.6517,29.70091,-1.16395,0.2423338,0.1468845,40.65624,-19.93366,0.3047993,1006.878
24.731835365,190.9402,-60.51064,99.77001,-1.647926,1.014213,0.2267751,39.94161,-20.66079,0.3171992,1006.876
24.767134190,-94.06995,-62.46069,148.7634,-1.629066,0.7666638,-0.1652064,39.94161,-20.66079,0.3171992,1006.876
24.799911499,-89.84573,-76.70203,193.6638,-1.493276,0.3787591,-0.4301741,38.82178,-22.48616,-0.08777475,1006.876
24.832689285,-21.69924,-103.1756,209.7302,-1.164805,0.1860599,0.1099065,34.89275,-26.96319,-3.866737,1006.878
24.865466118,-117.241,-94.19347,169.4726,-0.5311304,0.08689963,-0.4137245,34.89275,-26.96319,-3.866737,1006.878
24.898243904,-44.99453,-73.86558,111.5602,-0.2834519,-0.5907953,-0.6732259,29.10109,-32.47422,-8.062149,1006.876
24.933543205,-63.94137,-15.95476,46.9891,-0.07956934,0.3278,-0.2827842,22.96546,-35.79791,-12.29155,1006.876
24.966320038,-41.32941,-8.154523,23.71418,-0.200074,0.3709458,-0.236834,22.96546,-35.79791,-12.29155,1006.876
24.999097824,-83.26093,5.377701,1.294514,-0.4910457,0.6727947,0.0262247,20.02564,-37.6856,-13.12833,1006.875
25.031875134,-137.1196,-53.71498,72.27995,-1.370832,0.09047996,-3.863102,18.19704,-37.32869,-14.00194,1006.875
25.067173958,-15.54929,68.4296,15.8337,-1.107788,-1.806437,-1.291358,18.19704,-37.32869,-14.00194,1006.875
25.099951267,-54.62326,-11.46371,-12.57269,-1.31784,1.094713,0.4102324,17.14788,-39.91194,-16.50892,1006.875
25.132729054,-46.05059,26.53288,-53.1358,-1.141484,-0.1186309,-0.3801972,14.55877,-37.71921,-16.54002,1006.875
25.165506840,-9.585692,24.87829,-66.08667,-0.9629466,0.3855902,-0.2254194,14.55877,-37.71921,-16.54002,1006.879
25.198283672,-7.722069,25.46921,-68.46914,-0.7090814,0.6191996,-0.2749912,14.89926,-36.58386,-17.86397,1006.877
25.233582974,25.82315,31.91031,-55.21283,-0.8439227,0.6037023,-0.03011624,18.16992,-36.22134,-17.43881,1006.877
25.266359806,10.47932,17.43261,-35.84761,-0.640954,0.6746294,0.3303168,18.16992,-36.22134,-17.43881,1006.877
25.299137592,-7.908431,14.41888,-18.6205,-0.7923669,0.4307217,0.3166026,19.95119,-34.02719,-16.60532,1006.877
25.331915379,11.34901,-5.790816,-10.19022,-0.7649489,0.5319595,0.2740252,21.83226,-34.0317,-16.60775,1006.875
25.367213726,-14.6796,8.155058,-15.44388,-1.011129,0.3172968,0.2373864,22.19779,-34.02068,-15.738,1006.874
25.399991512,7.311159,5.023145,-32.24336,-1.139611,0.2434939,0.2844945,22.19779,-34.02068,-15.738,1006.874
25.432768822,-18.15836,11.40516,-47.21017,-0.9760478,0.2795754,0.303788,22.18499,-33.28587,-15.31434,1006.874
25.465546608,6.503589,-9.513655,-47.88214,-0.8759291,0.4591311,0.3701892,22.18499,-33.28587,-15.31434,1006.874
25.498324394,13.52324,-26.47326,-32.06009,-0.6502134,0.6866545,0.3197306,23.61884,-32.21388,-16.63875,1006.874
25.533622742,39.24124,-38.2327,-8.479729,-0.6997527,0.6107882,-0.09497134,25.06235,-31.48255,-16.21698,1006.875
25.566400528,-37.97489,27.06471,15.22281,-0.7614704,0.7872655,-0.3468431,25.78375,-31.11986,-16.22365,1006.874
25.599177361,-13.00234,36.0468,26.03557,-1.064719,0.09232529,-0.252655,25.78375,-31.11986,-16.22365,1006.874
25.631955147,27.99738,24.93738,11.67965,-1.176804,0.2962228,-0.0726672,25.78905,-31.49618,-17.08814,1006.874
25.667254448,35.8246,6.44137,-13.61121,-1.181409,0.02685458,0.1381048,25.07057,-31.8351,-15.34102,1006.872
25.700031280,12.96415,15.42346,-25.03485,-0.9484493,0.2674545,0.06835489,25.07057,-31.8351,-15.34102,1006.872
25.732809067,20.35652,37.40594,-28.94455,-0.8753155,0.5444604,0.03310589,25.07192,-31.82406,-14.53296,1006.87
25.765586376,-7.03874,43.19702,-31.14375,-0.9476908,0.3641517,0.1052722,26.15884,-31.45035,-13.66987,1006.872
25.798364162,22.9656,27.1829,-21.55278,-0.8741983,0.503314,0.1381021,26.15884,-31.45035,-13.66987,1006.872
25.833662987,7.435401,12.82338,-16.36021,-1.012297,0.3904881,0.18818,27.97392,-31.07839,-12.80773,1006.87
25.866440296,42.22303,-10.04549,-2.493005,-0.7430164,0.4839211,0.2032854,28.69749,-30.69787,-11.50906,1006.87
25.899218082,5.509657,-11.34553,17.42201,-0.7521281,0.6457385,0.2314635,28.69749,-30.69787,-11.50906,1006.87
25.931994915,38.86852,-22.0413,29.762,-0.8976785,0.3817271,0.1912908,29.05626,-30.32242,-10.64504,1006.868
25.967294216,25.38831,-23.04588,28.47913,-0.9294351,0.4354934,0.04687662,27.98494,-31.40801,-10.25349,1006.868
26.000072002,8.802057,0.05935998,19.7434,-1.076407,0.1543336,-0.006263546,27.98494,-31.40801,-10.25349,1006.868
26.032848835,24.70498,-1.831606,-4.814388,-1.039527,0.1588372,-0.03331406,26.91299,-32.49871,-10.23489,1006.87
26.065626621,7.746005,10.69604,-25.46247,-1.058416,0.3119624,-0.1928308,26.19232,-32.85546,-9.793107,1006.87
26.098403931,27.00344,27.71474,-38.16899,-0.90579,0.4485282,-0.2083208,26.19232,-32.85546,-9.793107,1006.868
26.133702755,3.459671,47.62897,-35.84761,-0.7782725,0.5224401,-0.2385791,26.55109,-32.48,-8.929083,1006.868
26.166480064,3.521791,55.13374,-24.42396,-0.8303896,0.6195025,-0.08552876,27.63874,-32.10035,-7.630888,1006.868
26.199257851,7.994487,38.41051,-10.43458,-0.8408576,0.5232583,-0.1156847,27.63874,-32.10035,-7.630888,1006.867
26.232035637,1.285444,37.76049,-8.052106,-0.9173032,0.4193134,-0.05325101,29.44779,-31.35801,-6.339362,1006.867
26.267333984,12.59142,26.4147,-13.00032,-1.010264,0.3247421,0.04627253,29.80645,-30.98341,-5.537498,1006.867
26.300111771,22.9656,14.77344,-9.212797,-0.9065972,0.455135,0.1825369,29.80645,-30.98341,-5.537498,1006.865
26.332888603,31.84887,-9.040913,-1.271225,-0.8377557,0.5282607,0.3199328,30.22663,-30.60216,-4.238441,1006.865
26.365666390,89.43482,-45.56019,15.40608,-0.7951406,0.5793551,0.3322701,30.2363,-30.94282,-2.492264,1006.867
26.398444176,111.2392,-52.00129,29.88417,-0.8523703,0.7056849,0.07757511,30.2363,-30.94282,-2.492264,1006.867
26.433742523,39.48972,-0.7679375,71.85233,-1.840901,1.824105,-0.2500546,29.86546,-30.57751,-2.497524,1006.868
26.466520310,-211.7888,-24.70047,165.624,-1.650235,1.037233,-0.4524556,29.46389,-31.64602,-0.7393391,1006.867
26.499297619,-58.47474,-49.99214,195.13,-1.176058,0.1527997,-0.2471871,27.30524,-33.52836,-5.494099,1006.867
26.532075405,-108.5441,-57.14235,160.5536,-0.6186309,0.1937486,-0.07142985,27.30524,-33.52836,-5.494099,1006.867
26.564853192,-53.13236,-52.11948,110.3995,-0.3289643,-0.1638291,-0.292523,20.44331,-36.9051,-9.286492,1006.867
26.600151539,-34.37188,-26.70963,58.77928,-0.0349201,0.1444677,-0.2258131,15.31364,-38.76162,-12.66992,1006.868
26.632929325,-59.96564,6.086813,7.464504,0.025831,0.09430974,-0.3678833,15.31364,-38.76162,-12.66992,1006.868
26.665706158,-39.03094,29.42842,-34.44256,-0.2816661,0.4018317,-0.1096075,12.41309,-39.4954,-13.52493,1006.87
26.698483944,-15.67353,25.82377,-59.48906,-0.587422,0.75673,-0.04443339,12.39667,-38.7903,-15.27683,1006.87
26.733783245,-87.91999,58.56112,-86.06277,-0.4737151,0.6680216,-1.381792,12.39667,-38.7903,-15.27683,1006.87
26.766560078,-753.0471,-450.5815,187.3106,-0.8165902,1.431963,0.3291106,13.45978,-37.35216,-16.54434,1006.868
26.799337864,376.4949,106.0716,-27.72277,-1.539149,-1.459722,-0.9211715,16.38229,-38.11773,-18.7122,1006.873
26.832115173,34.02309,-4.372591,-55.82372,-1.179944,1.544806,0.6041785,16.38229,-38.11773,-18.7122,1006.871
26.864892960,-23.99771,29.96026,-72.68428,-0.8493454,-0.23254,-0.3027378,14.83913,-33.29799,-17.48042,1006.871
26.900191784,26.19588,28.48294,-59.61124,-0.6035511,1.079235,0.33732,16.67908,-34.4016,-17.9007,1006.871
26.932969093,-18.65532,6.67774,-32.48771,-0.6353706,0.7718959,0.3032007,16.67908,-34.4016,-17.9007,1006.871
26.965746880,24.51861,4.195848,-16.78783,-0.8307838,0.4279897,0.1799911,19.2298,-34.38988,-16.59865,1006.871
26.998523712,-21.76136,1.477584,-15.38279,-1.015265,0.417401,0.2098077,21.45466,-33.30195,-16.61874,1006.873
27.033823013,-11.26295,2.836716,-23.69089,-0.9287647,0.3939415,0.2341874,21.45466,-33.30195,-16.61874,1006.873
27.066599846,-5.361479,-26.946,-36.15305,-1.098644,0.1971302,0.4317639,21.08237,-32.94853,-17.49422,1006.873
27.099377632,-5.920566,-57.6151,-48.1265,-0.8768934,0.4531682,0.3543155,22.51839,-31.85871,-17.51329,1006.874
27.132155418,1.720289,-22.69132,-60.46648,-0.8205355,0.3712882,-0.001902443,22.51839,-31.85871,-17.51329,1006.87
27.164932728,-37.1052,16.19166,-58.81708,-0.9003573,0.6414362,-0.06902957,22.88778,-32.23591,-18.37825,1006.874
27.200231552,23.71104,38.70597,-26.9897,-0.743646,0.8276291,-0.4470695,24.30279,-30.05872,-18.84963,1006.874
27.233008862,-1.509991,37.58321,21.51498,-0.699447,0.8489034,-0.3124251,24.30279,-30.05872,-18.84963,1006.874
27.265786648,-7.100861,25.76468,58.59601,-0.772214,0.6614764,-0.07273324,25.73954,-28.96296,-18.43358,1006.872
27.298564434,24.20801,32.14669,46.01167,-1.073553,-0.05617914,-0.1657651,25.73424,-28.58663,-17.56909,1006.876
27.333862782,-58.47474,74.33887,2.638472,-1.254478,-0.106709,-0.0006341359,25.73424,-28.58663,-17.56909,1006.872
27.366640568,-41.39153,78.53445,-52.89145,-1.549531,-0.3721687,0.07074459,24.29363,-29.29418,-16.25042,1006.874
27.399417400,-16.54322,44.02431,-112.9419,-1.326519,-0.1994691,0.1941467,25.0428,-30.38329,-15.79905,1006.874
27.432195187,-15.48717,8.21415,-141.5927,-1.041153,0.348641,0.5786958,25.0428,-30.38329,-15.79905,1006.878
27.464972973,77.38339,-35.63262,-103.5953,-0.5058858,1.031074,0.2278918,27.9162,-28.19262,-15.02913,1006.878
27.500271320,47.06845,-26.05961,22.24805,-0.2927642,1.793344,-0.1612587,30.82617,-24.87011,-15.89355,1006.872
27.533049107,-120.9061,60.15662,102.0303,-0.5308087,1.187972,-0.362435,31.88667,-23.03356,-14.68044,1006.874
27.565826416,-77.11098,31.73304,104.1684,-1.150075,-0.3436552,-0.1612995,31.88667,-23.03356,-14.68044,1006.874
27.598604202,60.17594,-10.7546,58.90145,-1.461277,-0.1439896,-0.07036627,31.19014,-24.87183,-15.95618,1006.878
27.633903027,19.92168,16.60531,8.319751,-1.293229,-0.1651785,-0.09768917,29.35295,-27.09685,-14.61308,1006.876
27.666680336,-14.86596,37.81958,-23.6298,-1.130533,0.06699517,0.1061538,29.35295,-27.09685,-14.61308,1006.878
27.699458122,15.13838,12.88247,-45.80512,-1.096566,0.3063495,0.2366428,28.27424,-27.82311,-14.60022,1006.878
27.732234955,5.261174,-15.71839,-45.62185,-0.8177825,0.5127768,0.3805603,29.3544,-27.08496,-13.74286,1006.878
27.765012741,19.85956,-36.22355,-40.24602,-0.8535545,0.6594309,0.4314485,29.3544,-27.08496,-13.74286,1006.88
27.800312042,8.98842,-29.95972,-16.9711,-0.5550825,0.7110636,0.3536449,30.4859,-25.93368,-13.7625,1006.88
27.833088875,-23.99771,-23.10497,1.172336,-0.7343661,0.6952267,0.04265295,31.19232,-24.854,-14.65085,1006.88
27.865866661,4.391483,-18.31846,7.953216,-0.7650918,0.3145452,-0.1039971,31.19232,-24.854,-14.65085,1006.881
27.898643970,-25.42649,-14.89109,-6.952504,-1.043239,0.2867529,-0.05419661,31.18348,-24.50654,-15.89976,1006.881
27.933942795,-0.08121355,-4.372591,-26.86752,-1.1294,-0.03451947,-0.06554208,31.18421,-24.5006,-15.46464,1006.881
27.966720581,-21.51288,7.741408,-51.91402,-1.072733,0.2273445,-0.08725107,31.18421,-24.5006,-15.46464,1006.881
27.999497890,-9.523572,31.91031,-64.31509,-1.09445,0.1519675,-0.1848024,30.77884,-22.31905,-15.93366,1006.881
28.032275677,-4.802392,39.2969,-60.89411,-0.9712577,0.4295966,-0.1205292,32.59381,-21.94794,-15.13368,1006.88
28.065052509,-5.982687,36.8741,-40.49038,-0.9780772,0.6393218,-0.1396022,32.59381,-21.94794,-15.13368,1006.88
28.100351810,1.409685,19.97359,-0.5992457,-0.8133557,0.7662146,-0.2999963,33.63944,-19.39355,-14.74009,1006.88
28.133129597,-4.491788,38.4696,60.79522,-1.274226,1.040148,-0.06489284,35.42748,-17.56384,-13.90086,1006.88
28.165906429,-101.5866,5.318608,103.6186,-1.309224,0.6170257,-0.2162824,35.42748,-17.56384,-13.90086,1006.878
28.198684216,-119.4152,7.682316,126.7713,-1.266924,0.4106575,-0.107284,35.07838,-18.27995,-13.01871,1006.88
28.231461525,-106.4941,-9.218191,132.4526,-1.138225,0.5873558,-0.2060533,33.66722,-20.84536,-14.28206,1006.88
28.266760349,-81.83215,-21.2731,149.6797,-0.9507976,0.3479558,-0.3991631,33.66722,-20.84536,-14.28206,1006.88
28.299538136,-136.3121,-26.41416,143.2654,-0.5910041,0.5962479,-0.2155478,31.8771,-22.69205,-16.36446,1006.878
28.332315445,-106.8047,-15.6002,122.2508,-0.2433134,0.179794,-0.2181516,27.8613,-25.63346,-18.92404,1006.88
28.365093231,-125.9379,-0.1770107,88.59072,-0.03773951,0.3494709,-0.01816708,27.8613,-25.63346,-18.92404,1006.878
28.400391579,-83.4473,22.16002,56.76334,-0.08172698,0.2678626,-0.004461624,24.60707,-27.1908,-22.31467,1006.878
28.433169365,-80.96246,48.75173,16.3835,-0.2407168,0.487519,-0.3736201,22.04566,-26.80027,-25.30169,1006.878
28.465947151,-37.47792,82.37547,-8.540817,-0.8437054,0.1181707,0.04667018,21.30929,-26.44598,-26.1767,1006.878
28.498723984,762.0786,199.6154,24.7527,-3.27423,4.315934,0.1606723,21.30929,-26.44598,-26.1767,1006.876
28.531501770,-988.4849,-76.1702,61.10066,0.464613,-1.4856,0.5831839,22.38767,-25.30264,-22.34146,1006.88
28.566800118,522.2303,66.59772,-75.922,-1.901478,0.439003,0.2494233,22.03922,-26.85292,-29.15553,1006.88
28.599577904,-251.6082,-15.89566,-81.90872,-0.9833022,0.2673423,0.304305,22.03922,-26.85292,-29.15553,1006.88
28.632355213,57.0699,56.02013,-85.26862,-0.6821122,0.6765538,-0.4643168,23.08983,-24.25777,-25.77832,1006.88
28.665133000,-60.46261,91.8303,-67.12518,-0.5623834,0.8117266,-0.2202727,24.84115,-20.62965,-26.70819,1006.878
28.700431824,-82.57761,73.68884,-41.40671,-0.7844946,0.5899847,0.307198,24.84115,-20.62965,-26.70819,1006.877
28.733209133,-5.982687,7.091389,-37.98573,-1.017339,0.341591,0.5868332,27.34986,-18.4432,-26.31075,1006.878
28.765986919,-40.77032,-5.731723,-24.54614,-0.6138233,0.635502,-0.006160481,29.91125,-15.83256,-25.98223,1006.878
28.798763752,-30.08555,62.63852,-20.26991,-1.031843,0.3692009,-0.1881665,29.91125,-15.83256,-25.98223,1006.878
28.831541538,-86.55334,80.24813,-20.39209,-0.8941816,0.3100385,0.03350396,30.25514,-14.73927,-25.93773,1006.877
28.866840839,-48.59754,54.18826,-39.87949,-1.290482,0.02371443,0.5181626,31.32854,-13.63669,-25.08611,1006.878
28.899617672,-12.50537,-16.78205,-54.78521,-0.9675069,0.1942124,0.4848884,31.32854,-13.63669,-25.08611,1006.878
28.932395458,-20.64319,-7.977245,-40.85691,-0.6330341,0.7487576,-0.01543149,33.46027,-10.71539,-24.3267,1006.88
28.965172768,-85.00031,65.41587,0.2560005,-0.6107043,0.920063,-0.2015483,33.06915,-9.25677,-24.34915,1006.88
29.000471592,-65.49439,62.16577,26.15774,-0.789597,0.4572878,0.1413404,33.06915,-9.25677,-24.34915,1006.88
29.033249378,-48.41118,19.1463,28.90675,-0.911068,0.3353449,0.4012662,34.13578,-7.789752,-23.50326,1006.88
29.066026688,-35.80066,-19.08667,16.32241,-1.099501,0.1610237,0.4934346,34.83722,-6.261123,-22.65785,1006.88
29.098804474,-45.42938,-16.4275,4.898766,-0.9370217,0.1928104,0.2465441,34.83722,-6.261123,-22.65785,1006.878
29.131581306,-63.94137,30.61028,-2.309738,-0.8649366,0.4317139,-0.1539985,35.2194,-7.373138,-23.94646,1006.878
29.166880608,-39.2173,50.6427,-0.8436018,-0.9348022,0.3936176,-0.2254983,33.72856,-5.553406,-24.40835,1006.878
29.199658394,-43.81424,53.42005,0.6225346,-0.9764698,0.3952059,-0.01697222,33.72856,-5.553406,-24.40835,1006.877
29.232435226,-17.04019,25.29193,-1.026869,-0.9456558,0.3337966,0.1500798,35.54509,-5.169557,-22.67598,1006.877
29.265213013,-27.78708,17.31442,-1.821026,-0.8857208,0.2461531,0.1515138,35.52168,-3.68209,-20.52334,1006.878
29.300511360,-11.63568,30.61028,-6.463791,-0.9947785,0.3432415,0.02647209,35.52168,-3.68209,-20.52334,1006.877
29.333289147,-55.18234,58.6793,-21.9804,-1.056926,0.1382448,0.03799978,36.22955,-2.590524,-20.54147,1006.877
29.366066933,-31.32796,54.48372,-28.94455,-1.002798,0.2640168,0.1296219,35.86683,-2.578613,-19.73293,1006.877
29.398844242,-40.08699,34.74677,-40.18493,-0.9278049,0.4003412,0.24284,35.86683,-2.578613,-19.73293,1006.877
29.431622028,-20.95379,21.92365,-22.22476,-0.7257288,0.5563125,0.1569246,36.94168,-1.464144,-18.01109,1006.878
29.466920376,-62.26411,26.53288,-4.386765,-0.7516935,0.6247348,0.01199314,37.63072,0.7326207,-17.17619,1006.877
29.499698162,-31.01736,34.15584,5.631834,-0.9013051,0.1826557,-0.2762841,37.24065,2.269813,-15.89426,1006.877
29.532475948,4.577845,58.26565,-1.759937,-1.009911,0.3125515,-0.3065481,37.24065,2.269813,-15.89426,1006.879
29.565252781,-55.67931,90.53026,-9.396064,-1.090351,0.03160365,-0.3391478,37.22172,3.374162,-15.10338,1006.881
29.600552082,-22.63106,103.8852,-29.86088,-1.07301,0.1305878,-0.1333153,36.862,3.410697,-12.49224,1006.881
29.633328915,-31.07948,96.97136,-32.97643,-0.9581191,0.2281149,-0.04420153,36.862,3.410697,-12.49224,1006.883
29.666106701,-22.13409,81.31181,-43.30047,-1.061182,0.1117082,0.1492444,39.45737,4.5504,-8.658952,1006.883
29.698884487,42.22303,36.28318,-53.99105,-1.058089,0.2923301,0.4156393,38.28178,6.046576,-6.069715,1006.883
29.731661797,3.708154,-4.195313,-61.07737,-1.012621,0.3415004,0.2878964,38.28178,6.046576,-6.069715,1006.884
29.766960621,-24.05983,-22.27767,-55.70154,-0.8473117,0.3608726,-0.2068834,38.62161,7.526377,-4.414816,1006.883
29.799737930,54.58507,-28.71878,-20.02555,-0.984494,0.6052971,-0.5424355,37.47383,10.4326,-5.32947,1006.883
29.832515717,63.90319,-5.495352,50.53226,-1.543356,0.9621745,-0.7288976,37.47383,10.4326,-5.32947,1006.883
29.865293026,-55.49295,13.23703,104.4128,-1.352165,0.8936891,-0.3013172,36.34532,12.30711,-6.16573,1006.883
29.900591850,-144.7605,10.93241,131.2919,-1.458557,0.2651477,-0.4907368,36.74434,10.42331,-6.136595,1006.881
29.933369637,-124.3228,-2.304347,126.1605,-1.211691,0.2097001,-0.3564575,36.74434,10.42331,-6.136595,1006.881
29.966146469,-119.1667,-13.70923,111.6824,-0.9537687,0.1672172,-0.4022532,37.50909,8.622305,-4.430596,1006.881
29.998924255,-112.8925,-14.95018,81.38222,-0.5876672,-0.2436603,-0.4655606,37.95576,4.260077,-3.492082,1006.881
30.031702042,-137.9893,-3.368015,26.34101,-0.2437697,-0.0768524,-0.4242679,37.95576,4.260077,-3.492082,1006.881
30.067000389,-75.62008,12.29154,-13.36685,-0.2375923,-0.06578431,-0.6611292,39.16389,1.281078,-3.446776,1006.879
30.099778175,-17.90988,-39.41455,17.54419,-0.3914421,0.06584247,-2.980163,39.18345,0.1818233,-3.864698,1006.878
30.132555485,-328.8865,17.19624,-1.698848,-0.9255119,0.4638764,-0.7791922,39.18345,0.1818233,-3.864698,1006.876
30.165332794,-27.41436,34.21493,-29.00564,-1.158684,0.3816025,-0.3534727,39.91306,0.1919656,-2.995414,1006.874
30.198110580,-210.2358,43.84704,-51.85293,-1.054413,0.2163414,-0.4309702,39.91523,0.2097974,-1.690078,1006.874
30.233409405,-55.0581,71.91607,-40.97909,-0.8897149,0.3383253,-0.6669306,39.91523,0.2097974,-1.690078,1006.872
30.266186714,-62.94744,81.31181,-32.42662,-0.8919606,0.4992492,-0.4953217,39.89775,1.326035,-0.02898073,1006.869
30.298964024,-51.33085,67.77958,-15.01625,-0.8112687,0.5331254,-0.1330987,40.23802,2.879313,2.557344,1006.867
30.331741810,-43.87636,32.67852,-16.48239,-1.13643,0.292643,0.06443053,40.23802,2.879313,2.557344,1006.867
30.367040634,-38.47186,-17.78663,-31.87682,-1.249194,0.1813536,0.3050652,39.85636,3.995574,4.156754,1006.867
30.399817944,-69.15952,-26.82781,-45.62185,-1.034678,0.204744,0.1889944,39.85781,4.007461,5.026977,1006.867
30.432595730,-107.9229,-7.327226,-55.70154,-0.896996,0.4923856,0.1348031,39.8368,5.094828,4.574675,1006.867
30.465373039,-162.7134,18.02353,-49.53155,-0.7502723,0.4332677,0.001688383,39.8368,5.094828,4.574675,1006.867
30.498150349,-95.06388,14.83253,-35.54216,-0.9255707,0.4367257,0.009319378,39.46066,5.836463,5.433908,1006.865
30.533449650,-40.95668,-17.43208,-20.14773,-0.9783329,0.1923772,0.1638485,39.07775,6.942534,6.287412,1006.863
30.566226959,-28.47041,-46.86023,-17.33764,-0.9434762,0.4400522,0.1590603,39.07775,6.942534,6.287412,1006.863
30.599004269,-5.361479,-30.01882,-4.753299,-0.8771576,0.2818406,-0.04976951,38.27321,7.655468,4.971634,1006.863
30.631781578,-41.76426,26.3556,6.242724,-0.913951,0.6080139,-0.2364608,39.41115,8.36969,4.088463,1006.865
30.667080403,-71.14738,57.73382,18.33835,-0.9532364,0.2063513,-0.09809282,39.41115,8.36969,4.088463,1006.863
30.699858189,-31.1416,47.09714,13.6345,-1.043393,0.160107,0.01386664,39.42081,8.029028,5.83464,1006.863
30.732635498,-20.14622,-0.1770107,-3.164984,-1.204476,-0.07565898,0.1320563,39.07993,6.960366,7.592747,1006.863
30.765413284,-21.94773,-16.95933,-28.57801,-1.171037,-0.02033515,0.273414,39.07993,6.960366,7.592747,1006.862
30.798190117,-52.75963,7.386852,-48.98175,-0.9642155,-0.02009226,0.1997561,39.08741,6.601873,8.033588,1006.862
30.833489418,-55.61719,53.24277,-48.18759,-0.8617715,0.3720335,0.08483935,38.27757,7.691131,7.582305,1006.862
30.866267204,-11.94628,50.46542,-20.331,-0.8264083,0.4043659,0.06930316,38.27757,7.691131,7.582305,1006.862
30.899044037,-5.547842,23.1646,1.416692,-0.9688471,0.4667315,0.03392625,37.89747,8.820127,10.1141,1006.862
30.931821823,35.57611,-12.70466,16.01697,-1.029617,0.07463253,-0.03754292,37.51528,9.932142,11.40271,1006.862
30.967121124,14.88989,-8.627264,6.914703,-0.9911761,0.2408753,-0.06050866,37.51528,9.932142,11.40271,1006.86
30.999897957,12.28082,12.82338,-1.515581,-0.989425,0.09849982,-0.1556078,36.79244,9.557564,10.53916,1006.862
31.032675743,-13.31294,32.26487,-23.69089,-1.104158,-0.02836739,-0.05165173,37.89747,8.820127,10.1141,1006.862
31.065453053,-5.175117,25.11466,-54.60194,-1.103395,-0.1391945,-0.02116071,37.89747,8.820127,10.1141,1006.862
31.098230839,5.696019,18.90993,-65.53687,-0.9740778,0.2092986,0.0006313295,36.79389,9.56945,11.40938,1006.862
31.133529186,10.60356,15.12799,-40.55146,-0.8734866,0.5891759,0.01763058,36.04691,10.6764,12.26335,1006.862
31.166306973,-28.34617,23.1646,-3.40934,-0.9192659,0.658398,0.08165594,36.04691,10.6764,12.26335,1006.863
31.199084759,-32.6325,10.10512,22.43131,-0.9597556,0.3268221,0.07454994,35.6479,12.56019,12.23422,1006.865
31.231861591,-5.796325,-13.29559,22.4924,-1.076947,-0.02278478,0.01807277,34.91433,12.93741,13.03749,1006.865
31.267160893,-3.249373,-16.30931,-7.257949,-1.126273,-0.3225979,-0.03334543,34.91433,12.93741,13.03749,1006.865
31.299937725,-1.509991,-12.3501,-38.1079,-1.048953,-0.1666151,-0.03761481,35.28444,12.56616,12.60764,1006.865
31.332715511,13.83384,-6.204464,-44.09463,-0.9797447,0.1319415,-0.05074435,35.30585,11.41211,12.62579,1006.867
31.365493298,11.53537,-16.07294,-16.17694,-0.9303322,0.6149394,0.07885952,35.30585,11.41211,12.62579,1006.867
31.398270607,-16.35686,-15.06837,21.02627,-0.9276343,0.4858289,-0.0008583311,35.27029,13.28994,12.22323,1006.869
31.433569431,-22.13409,-27.41874,38.0701,-1.035479,0.1073738,0.05532446,34.89124,14.0078,11.34201,1006.869
31.466346741,-18.03412,-30.19609,18.76597,-1.012876,-0.2317409,-0.06118895,35.26812,13.27211,10.91789,1006.869
31.499124527,-8.094794,-18.67302,-6.219435,-1.126951,-0.2407581,-0.03009764,35.26812,13.27211,10.91789,1006.869
31.531902313,12.34294,-13.65014,-23.50763,-0.9775385,0.02849562,-0.011122,36.02372,11.74593,10.50572,1006.87
31.567200661,-2.814528,-11.22734,-10.98438,-0.947359,0.4208499,0.06378886,35.65891,11.74086,10.07107,1006.869
31.599978447,-24.5568,-6.677206,15.77261,-0.9502856,0.4196071,0.02865827,35.65891,11.74086,10.07107,1006.869
31.632755280,-17.72351,-14.7729,32.08338,-1.010004,0.2252633,0.09840892,36.37242,12.52873,10.05772,1006.869
31.665533066,-28.40829,-14.53653,30.8616,-1.01194,0.02735135,0.1458852,36.02226,11.73404,9.635493,1006.871
31.698310852,-9.834175,-18.43665,13.39014,-1.073675,-0.1515093,0.1333045,36.02226,11.73404,9.635493,1006.869
31.733609199,-2.752407,-14.71381,-5.791812,-0.9984712,0.07547618,0.1164177,37.13478,10.63811,9.651274,1006.868
31.766386986,-10.89023,-8.272708,-6.52488,-0.9798946,0.2139546,0.04684883,37.15361,9.532917,8.798241,1006.866
31.799164295,-17.16443,1.123028,3.127184,-0.9327325,0.4077599,0.1249068,37.15361,9.532917,8.798241,1006.866
31.831942081,-31.32796,1.536677,16.81112,-0.975023,0.2046479,0.03337318,36.77601,10.26266,8.787251,1006.866
31.867240906,-13.87203,-5.554445,13.69558,-1.036161,-0.006313873,0.09641317,36.42545,9.534662,8.79918,1006.866
31.900018215,-3.74634,-12.94103,-3.287162,-1.079053,-0.142031,0.1020144,36.42545,9.534662,8.79918,1006.866
31.932796001,-6.169049,-12.76375,-24.91267,-1.044361,-0.04289814,0.02813439,37.15289,9.526972,8.363129,1006.866
31.965572834,5.571777,-20.80036,-22.34694,-0.9953582,0.1988294,0.131628,36.79557,9.163406,8.369328,1006.866
31.998350620,0.9748396,-27.77329,-0.2938006,-0.9230889,0.4279947,0.08153091,36.79557,9.163406,8.369328,1006.866
32.033649921,-7.349344,-28.60059,26.46319,-0.9603855,0.4079106,0.1798474,37.5102,9.890535,8.356929,1006.864
32.066426754,-10.82811,-23.28225,32.69427,-0.9795767,0.1078032,0.1899725,37.50136,10.23799,7.108023,1006.864
32.099204540,-2.069078,-20.68217,27.07408,-0.9958594,0.01069023,0.1819743,37.50136,10.23799,7.108023,1006.866
32.131981850,-9.088726,-15.24564,15.40608,-1.01726,0.03218555,0.2171321,37.88427,9.13192,6.254519,1006.866
32.164759636,-3.74634,-9.868211,3.615896,-0.9873436,0.1219175,0.2679503,37.90913,7.65634,4.972105,1006.866
32.200058460,2.838463,-13.65014,4.165698,-0.9181418,0.2163188,0.242613,37.90913,7.65634,4.972105,1006.866
32.232835770,-9.647813,-9.040913,13.81776,-0.9564612,0.3939164,0.1938187,37.54506,7.657213,4.972574,1006.866
32.265613556,-15.85989,-6.618114,21.02627,-0.9232978,0.3419044,0.2385851,37.90913,7.65634,4.972105,1006.864
32.298390389,-20.27047,2.304882,19.86558,-0.9920363,0.2360425,0.1561135,37.90913,7.65634,4.972105,1006.864
32.333689690,-12.07052,0.2957307,8.686285,-1.011937,0.04254137,0.2291379,37.9212,6.915578,4.113341,1006.864
32.366467476,-17.78563,0.0002672989,-4.325676,-0.9956184,0.126585,0.2487084,38.30026,6.19772,4.994555,1006.864
32.399244309,5.385415,-19.08667,-2.370827,-0.9132274,0.1940432,0.2551504,38.30026,6.19772,4.994555,1006.864
32.432022095,-4.553909,-25.46868,6.792525,-0.9281413,0.3364965,0.2371606,38.30556,5.821395,4.130061,1006.866
32.464799404,9.423265,-24.99594,17.60528,-0.9767112,0.3480111,0.2704725,38.30484,5.815451,3.69495,1006.862
32.500098229,6.627831,-24.16864,32.26664,-0.8244368,0.4412158,0.323402,38.67505,5.445047,3.327257,1006.862
32.532876015,-15.23868,-25.11412,47.72216,-0.9157383,0.2477852,0.3523104,38.67505,5.445047,3.327257,1006.865
32.565653324,4.205121,-23.63681,49.98246,-0.9206402,0.25308,0.279147,38.6865,4.699191,2.095541,1006.863
32.598431111,12.71567,-15.89566,48.82177,-1.01271,0.1481667,0.151,39.13612,3.222593,0.8125772,1006.865
32.633729458,11.65961,8.155058,20.843,-1.037499,0.1359382,0.03314356,39.13612,3.222593,0.8125772,1006.867
32.666507244,12.09446,24.64191,-0.9046907,-0.9892469,0.068964,0.07934078,38.74026,1.711067,1.272112,1006.867
32.699285030,31.0413,28.60112,-8.235373,-0.9901662,0.2864553,0.2595258,38.38367,1.353446,1.713424,1006.867
32.732061863,31.84887,-13.00012,7.586682,-0.8218408,0.375675,0.3504508,38.38367,1.353446,1.713424,1006.865
32.764839649,34.6443,-28.60059,27.31844,-0.8445417,0.5233405,0.3209191,38.3844,1.359391,2.148535,1006.865
32.800137997,11.34901,-34.68714,38.13119,-0.8306692,0.4065508,0.3186554,38.39574,0.6126838,0.8546605,1006.865
32.832915783,9.299024,-19.44123,35.38218,-0.9026037,0.4386925,0.3346625,38.39574,0.6126838,0.8546605,1006.865
32.865693569,-4.61603,-24.70047,32.63318,-0.8809508,0.3383091,0.4411434,37.67965,-0.1263323,-0.003163099,1006.863
32.898470879,10.10659,-41.66007,33.91605,-0.8252357,0.3873304,0.4197574,38.44016,-1.96215,-0.8456762,1006.863
32.933769703,22.34439,-55.84232,38.43663,-0.824487,0.462655,0.3248138,38.44016,-1.96215,-0.8456762,1006.863
32.966547012,29.23979,-62.87434,53.03691,-0.6928617,0.6673727,0.3997669,37.35938,-2.705389,-2.075983,1006.862
32.999324799,7.621763,-65.6517,69.77531,-0.6812721,0.70991,0.4795813,37.38352,-4.186912,-3.79351,1006.862
33.032102585,-7.03874,-74.63378,78.32777,-0.6890786,0.5380398,0.5669854,37.38352,-4.186912,-3.79351,1006.862
33.064879417,3.521791,-97.32538,79.06084,-0.6607905,0.5003286,0.6430303,36.68553,-6.037071,-5.939478,1006.858
33.100178719,36.75641,-74.69288,81.44331,-0.5429794,0.7227229,0.3348255,36.35817,-8.324318,-8.887297,1006.857
33.132955551,-16.54322,-58.14693,82.11529,-0.6719989,0.6945662,0.5031692,36.35817,-8.324318,-8.887297,1006.857
33.165733337,25.82315,-65.94716,77.5947,-0.5021355,0.5522205,0.6305417,34.21074,-10.53457,-10.9635,1006.857
33.198511124,16.93988,-93.24798,81.26004,-0.4473915,0.5916352,0.5595923,32.80562,-13.47036,-12.65622,1006.857
33.233809471,25.32618,-112.8077,97.32645,-0.4252394,0.8692734,0.5364973,32.80562,-13.47036,-12.65622,1006.857
33.266587257,-49.28087,-111.8622,99.52566,-0.3131369,0.9247799,0.6795935,30.29401,-15.68059,-14.79411,1006.858
33.299364567,-69.15952,-109.6167,88.52963,-0.03605955,0.5610869,0.5047503,28.0863,-17.95738,-17.30439,1006.858
33.332142353,57.81535,-115.4668,72.15778,-0.3663604,0.4469449,0.7367593,28.0863,-17.95738,-17.30439,1006.86
33.364920139,40.17305,-103.8256,67.94263,-0.02852325,0.8989668,0.687622,24.47363,-19.81754,-20.68978,1006.86
33.400218487,54.21235,-58.02874,38.19228,0.1068518,0.4495183,0.2576408,20.48833,-20.9072,-21.10253,1006.858
33.432996273,14.88989,-12.11373,9.541532,0.1621325,0.6988465,0.3259687,17.56091,-23.46302,-21.92881,1006.86
33.465773106,5.447536,16.95987,-20.20882,0.1223177,0.4818553,0.2667013,17.56091,-23.46302,-21.92881,1006.86
33.498550892,24.70498,31.49667,-42.68958,-0.01968765,0.5772543,0.2885556,16.45588,-22.72558,-21.50374,1006.862
33.533850193,12.65355,41.06968,-69.32439,-0.2004354,0.8689098,0.4940862,17.2065,-23.80281,-20.18216,1006.863
33.566627026,-38.16125,41.48333,-73.173,-0.2625274,0.8461052,0.5111154,17.2065,-23.80281,-20.18216,1006.863
33.599404812,-6.044808,43.3743,-74.57804,-0.3773645,0.9873328,0.7171978,18.61828,-21.23232,-18.54586,1006.859
33.632182121,64.21379,-211.9652,51.63186,-0.9356696,2.546948,0.5635797,20.84459,-20.1325,-17.69573,1006.861
33.664959908,-258.2552,41.60152,-45.62185,0.260949,-0.4678028,0.1103985,20.84459,-20.1325,-17.69573,1006.863
33.700258732,184.4175,-45.97384,-73.72279,-0.7786747,1.094026,0.7839354,19.33146,-20.51707,-19.42848,1006.87
33.733036041,-33.19159,-23.45953,-73.35626,0.02251521,0.6229272,0.4323138,20.05904,-17.17235,-19.04692,1006.87
33.765813827,69.49406,-43.0192,-78.12121,0.4200883,0.8867199,0.4882553,20.05904,-17.17235,-19.04692,1006.868
33.798590660,-23.62499,-9.927303,-64.74271,-0.003091278,1.007586,0.5882373,19.99764,-17.17815,-19.48195,1006.872
33.833889961,-21.88561,8.509614,-71.58468,-0.06827172,0.802201,0.3374307,20.4096,-16.44435,-19.05885,1006.874
33.866667747,-42.75819,28.0102,-75.61655,-0.2103899,0.7720973,0.5216933,20.4096,-16.44435,-19.05885,1006.872
33.899444580,-26.48254,33.38763,-57.5953,-0.3436936,0.9013164,0.633972,21.11143,-14.9824,-18.64759,1006.872
33.932222366,-103.7608,26.65107,-44.82769,-0.2106748,0.9217084,0.6750229,21.78623,-12.0627,-18.25926,1006.872
33.964999676,-95.62297,47.62897,-39.63513,-0.2202346,0.4274846,0.5641145,21.78623,-12.0627,-18.25926,1006.875
34.000298500,-35.42794,63.64309,-54.54085,-0.2204374,0.2864234,0.4502449,22.47309,-9.883772,-18.72969,1006.877
34.033076286,17.99593,78.23898,-55.88481,-0.4769575,0.6073851,0.7589225,23.16285,-7.681063,-17.45968,1006.877
34.065853596,42.28516,48.1608,-33.7095,-0.5982908,0.8138766,0.9028262,23.16285,-7.681063,-17.45968,1006.877
34.098631382,-65.92924,43.90613,-16.17694,-0.837767,1.080178,1.034886,23.85295,-5.405728,-15.32039,1006.878
34.131408215,-58.47474,9.986931,-5.364189,-0.9965688,0.4173484,0.7402241,24.20703,-4.648856,-13.21893,1006.88
34.166707516,11.10053,5.673164,2.821739,-0.7760926,0.3878052,0.6391411,24.20703,-4.648856,-13.21893,1006.882
34.199485302,34.02309,-1.654328,2.76065,-0.805863,0.4619811,0.6959006,23.43758,-2.466433,-13.68748,1006.886
34.232262135,72.53797,-19.6185,7.403415,-0.6404245,0.5061255,0.6116847,23.79635,-2.090981,-12.82345,1006.886
34.265039921,92.78934,-25.11412,6.364902,-0.5613364,0.5119137,0.508477,23.79635,-2.090981,-12.82345,1006.886
34.300338268,71.79253,-32.79617,4.59332,-0.4850396,0.9201323,0.6381298,24.17395,-2.820727,-12.81246,1006.886
34.333116055,-9.647813,-14.59562,-2.737361,-0.4235291,0.5550356,0.5206006,23.46463,-3.924181,-13.66456,1006.888
34.365893841,32.65644,-15.83657,9.236086,-0.4844961,0.6649536,0.5018063,23.46463,-3.924181,-13.66456,1006.888
34.398671150,-30.70676,4.25494,-6.036169,-0.5841903,0.4440258,0.08840472,23.47742,-4.658998,-14.08821,1006.888
34.431448937,-11.07659,5.673164,-21.61387,-0.4004206,0.2116923,0.4257536,23.48419,-5.023436,-14.08248,1006.888
34.466747284,78.99854,10.75514,-25.95119,-0.4995584,0.4323279,0.3356416,23.8415,-4.659871,-14.08868,1006.888
34.499525070,77.694,7.386852,-7.746661,-0.7077309,1.02974,0.5590681,23.8415,-4.659871,-14.08868,1006.888
34.532301903,4.391483,10.57786,-6.402702,-0.6944687,0.7523996,0.5122812,24.21379,-5.013293,-13.2132,1006.888
34.565079689,13.52324,3.36855,0.9890687,-0.7039375,0.6606456,0.5663545,23.48106,-4.629279,-11.91265,1006.888
34.600378990,14.0202,-5.554445,1.844315,-0.6553145,0.6226842,0.5119025,23.48106,-4.629279,-11.91265,1006.888
34.633155823,17.87169,-6.618114,2.516294,-0.5967732,0.7016811,0.4553252,23.48106,-4.629279,-11.91265,1006.888
34.665933609,5.75814,-0.4724742,0.3781786,-0.5856228,0.704529,0.4312264,23.11022,-4.263969,-11.91791,1006.892
34.698710918,4.329362,-1.063401,0.2560005,-0.5880197,0.7049942,0.5010288,23.11022,-4.263969,-11.91791,1006.894
34.731488705,1.409685,-2.481625,2.882828,-0.5778944,0.7327494,0.4879662,23.47503,-4.258898,-11.48327,1006.894
34.766787529,-8.840243,-0.3542888,4.715498,-0.5563956,0.6663238,0.4350656,22.75894,-4.997915,-12.34109,1006.894
34.799564838,-1.572112,2.363975,3.188273,-0.5714,0.6482619,0.4471624,22.75894,-4.997915,-12.34109,1006.896
34.832342625,-5.361479,0.6502868,3.860253,-0.5760006,0.7496876,0.4701259,23.12301,-4.998787,-12.34156,1006.896
34.865119457,-16.29474,-0.7088449,6.914703,-0.586576,0.7053059,0.4740687,23.1305,-5.357281,-11.90072,1006.891
34.900418758,-5.920566,-2.304347,5.87619,-0.5456296,0.632865,0.4432736,23.1305,-5.357281,-11.90072,1006.893
34.933196545,1.347564,-1.417957,4.104609,-0.5680327,0.6639588,0.4591648,23.11625,-4.63435,-12.34729,1006.895
34.965973377,4.453604,-1.358864,2.455205,-0.5724096,0.6708881,0.4803447,22.75894,-4.997915,-12.34109,1006.895
34.998751163,4.764207,-0.8270302,0.6836237,-0.5642294,0.7041416,0.4899024,22.75894,-4.997915,-12.34109,1006.895
35.031528473,-0.3918175,-0.05882538,0.9890687,-0.5681407,0.7137929,0.481714,22.76643,-5.356408,-11.90025,1006.895
35.066827297,2.030893,0.4139161,0.2560005,-0.5636822,0.6798546,0.4986022,23.48178,-4.623335,-11.47754,1006.895
35.099605083,0.1672696,0.0002672989,-0.2327116,-0.5593575,0.6938274,0.4716147,23.48178,-4.623335,-11.47754,1006.895
35.132382393,1.03696,0.7093795,-0.4159786,-0.5545102,0.6972738,0.4711166,23.12447,-4.986899,-11.47134,1006.895
35.165160179,-2.503924,2.009419,-1.026869,-0.55646,0.6996659,0.4672667,23.12374,-4.992844,-11.90645,1006.893
35.200458527,1.285444,0.8866575,-1.026869,-0.5559239,0.679245,0.4716285,23.12374,-4.992844,-11.90645,1006.893
35.233236313,2.962704,0.7093795,-1.026869,-0.5496445,0.6949461,0.4807358,22.7657,-5.362352,-12.33536,1006.893
35.266014099,3.646033,0.9457502,-1.393403,-0.5593487,0.687399,0.4576648,22.7529,-4.627534,-11.91171,1006.893
35.298790932,4.080879,1.773048,-1.698848,-0.5588725,0.6943285,0.4730568,22.7529,-4.627534,-11.91171,1006.893
35.331568718,5.882381,0.9457502,-2.431916,-0.5724268,0.6792077,0.4861085,23.12447,-4.986899,-11.47134,1006.893
35.366867066,4.639966,0.6502868,-2.431916,-0.5671373,0.6961207,0.4605583,23.12374,-4.992844,-11.90645,1006.895
35.399644852,4.515724,1.182121,-2.370827,-0.570514,0.6883602,0.4692425,22.76039,-4.986027,-11.47087,1006.891
35.432422638,0.2915111,1.063936,-2.004293,-0.5890208,0.7146195,0.4856131,22.76039,-4.986027,-11.47087,1006.891
35.465199947,-2.006958,0.1184527,-1.882115,-0.5782591,0.6775573,0.4659076,23.12374,-4.992844,-11.90645,1006.891
35.500498772,0.4778734,0.8275648,-2.126471,-0.5748906,0.6856944,0.441338,22.76039,-4.986027,-11.47087,1006.893
35.533276081,-0.5781798,0.4139161,-1.698848,-0.5797564,0.6930731,0.4577047,22.76039,-4.986027,-11.47087,1006.893
35.566053867,1.223323,-0.5906595,-1.698848,-0.5661479,0.6878293,0.4576803,22.7657,-5.362352,-12.33536,1006.893
35.598831177,-0.1433343,0.5911941,-1.271225,-0.5759007,0.7067992,0.465858,22.76039,-4.986027,-11.47087,1006.893
35.631608486,-3.373615,0.236638,-0.4770676,-0.5826287,0.6750021,0.4538878,22.76039,-4.986027,-11.47087,1006.891
35.666907787,0.1672696,0.236638,-1.087958,-0.5738738,0.6692441,0.4558012,23.48782,-4.993716,-11.90692,1006.891
35.699684620,0.043028,0.4139161,-0.2327116,-0.57052,0.690792,0.4687575,22.75966,-4.991971,-11.90598,1006.891
35.732462406,1.471806,1.300306,-0.2327116,-0.5680839,0.6858884,0.4610574,22.75966,-4.991971,-11.90598,1006.893
35.765240192,-1.634233,2.245789,-0.4159786,-0.5729392,0.6868655,0.4673251,23.11698,-4.628407,-11.91218,1006.895
35.800538540,-2.131199,1.418492,0.01164449,-0.584111,0.6877229,0.4639808,23.12374,-4.992844,-11.90645,1006.901
35.833316326,-1.075146,1.83214,-0.2938006,-0.5729142,0.6741224,0.4557915,23.12374,-4.992844,-11.90645,1006.901
35.866093636,-0.4539382,1.83214,-0.5992457,-0.5782914,0.6906903,0.4634811,22.76788,-5.34452,-11.03003,1006.899
35.898870945,-1.882716,1.59577,0.2560005,-0.5758694,0.6931457,0.4634717,23.12447,-4.986899,-11.47134,1006.899
35.931648254,-2.069078,1.004843,0.4392676,-0.5792328,0.67852,0.4654271,23.12447,-4.986899,-11.47134,1006.901
35.966947556,-2.690286,1.300306,0.07273351,-0.5836223,0.6867664,0.4659065,23.10949,-4.269913,-12.35302,1006.901
35.999724865,-2.441803,0.9457502,0.4392676,-0.5782822,0.687805,0.4687804,23.8519,-4.994589,-11.90739,1006.901
36.032502174,-8.59176,2.009419,0.4392676,-0.5880972,0.7300484,0.462001,23.8519,-4.994589,-11.90739,1006.901
36.065279961,-17.66139,1.59577,1.294514,-0.5908699,0.6741332,0.4789395,22.76643,-5.356408,-11.90025,1006.901
36.098056793,-12.0084,-0.7679375,1.172336,-0.5835358,0.6542761,0.4861724,23.8519,-4.994589,-11.90739,1006.901
36.133356094,-13.68566,0.236638,0.9279797,-0.5806446,0.6635506,0.4856703,23.8519,-4.994589,-11.90739,1006.899
36.166133881,-15.92201,1.891233,1.416692,-0.5841198,0.6946585,0.480818,23.12301,-4.998787,-12.34156,1006.897
36.198910713,-22.81742,2.541253,1.294514,-0.5899112,0.6815271,0.4904788,23.12374,-4.992844,-11.90645,1006.897
36.231688500,-18.90381,0.4139161,1.050158,-0.5912307,0.6270851,0.5074116,23.12374,-4.992844,-11.90645,1006.897
36.266987324,-13.31294,-0.8270302,-0.1105335,-0.5912572,0.6372792,0.5025827,23.11698,-4.628407,-11.91218,1006.897
36.299764633,-8.156915,-0.4724742,-0.4159786,-0.5805486,0.6236312,0.488137,23.48106,-4.629279,-11.91265,1006.897
36.332542420,-10.08266,-0.2361034,-0.5381566,-0.5708835,0.6462259,0.503965,23.48106,-4.629279,-11.91265,1006.899
36.365319729,-12.0084,0.8866575,0.6836237,-0.556865,0.6741508,0.5106286,23.10949,-4.269913,-12.35302,1006.899
36.398097515,-18.22048,2.363975,1.172336,-0.5558805,0.672348,0.5303649,23.48106,-4.629279,-11.91265,1006.899
36.433395863,-30.39615,1.300306,0.3170896,-0.5821606,0.6969609,0.5294275,23.47285,-4.27673,-12.7886,1006.899
36.466173649,-49.40511,1.477584,0.4392676,-0.5718807,0.6756153,0.5992326,23.47285,-4.27673,-12.7886,1006.899
36.498951435,-74.93675,-0.5315669,0.3781786,-0.5709068,0.6766778,0.6107815,23.0967,-3.535096,-11.92937,1006.901
36.531728268,-76.73825,-0.05882538,1.53887,-0.5579837,0.5455687,0.5815853,23.4586,-3.5538,-13.23518,1006.901
36.567027569,-41.08092,-1.063401,2.14976,-0.575257,0.4602669,0.5923448,23.4586,-3.5538,-13.23518,1006.901
