Time (s),Gyroscope X (deg/s),Gyroscope Y (deg/s),Gyroscope Z (deg/s),Accelerometer X (g),Accelerometer Y (g),Accelerometer Z (g),Magnetometer X (uT),Magnetometer Y (uT),Magnetometer Z (uT),Barometer (hPa)
0.535500526,-0.243491,0.8801408,-0.01113002,0.009255901,0.5988601,-0.7885486,4.568466,-8.367295,27.96535,1006.857
0.568058967,0.7409484,0.4637742,-0.1335288,0.007272542,0.5965217,-0.8142015,4.568466,-8.367295,27.96535,1006.857
0.603121757,1.110113,0.701698,-0.01113002,0.0136353,0.5965448,-0.801156,4.200364,-8.372525,27.52047,1006.857
0.635680199,2.217607,0.3448124,-0.1335288,0.01087301,0.5848009,-0.791665,3.839342,-8.739351,27.46054,1006.857
0.668237686,2.955937,-0.01207323,-0.2559276,0.002054112,0.5881143,-0.7974065,3.839342,-8.739351,27.46054,1006.857
0.703300953,3.078992,0.1663696,-0.01113002,0.01170368,0.5941119,-0.806025,4.575545,-8.728892,28.35031,1006.861
0.735858917,1.971498,0.1068886,0.3560663,0.009797021,0.5897309,-0.8099571,4.574147,-8.731106,27.96796,1006.859
0.768417358,0.3102561,-0.249997,-0.01113002,0.01463751,0.5912741,-0.814772,4.574147,-8.731106,27.96796,1006.859
0.803479671,-1.96626,-1.142211,-0.3783264,0.0001048876,0.5847623,-0.8138906,3.841206,-8.7364,27.97034,1006.859
0.836038113,-4.058193,-1.023249,-0.5619246,0.001035567,0.5910369,-0.8017113,4.200364,-8.372525,27.52047,1006.859
0.868596554,-3.996666,-0.6663635,-0.2559276,0.004848582,0.5978971,-0.8030605,4.200364,-8.372525,27.52047,1006.859
0.901154518,-2.704589,-0.1310351,0.05006938,0.000864028,0.6056186,-0.8024555,3.842603,-8.734186,28.35268,1006.861
0.936217785,-0.3665459,0.5827361,0.3560663,-0.002491881,0.6021486,-0.797188,3.473104,-8.74163,27.52546,1006.861
0.968775272,1.233168,0.5827361,0.3560663,0.004851367,0.5983676,-0.7996697,3.473104,-8.74163,27.52546,1006.861
1.001333714,1.294695,0.4042933,0.2948669,0.008808111,0.5935504,-0.7978135,4.579828,-9.094917,27.97057,1006.861
1.036396503,0.4948385,0.2853315,0.2336676,0.00834822,0.5896899,-0.8051226,4.574147,-8.731106,27.96796,1006.861
1.068954944,0.4948385,0.3448124,0.2948669,0.00539792,0.5930333,-0.8007183,4.574147,-8.731106,27.96796,1006.861
1.101513386,0.9870582,-0.01207323,-0.2559276,0.01123321,0.5935998,-0.8016821,4.211726,-9.100147,27.52569,1006.861
1.136575699,1.233168,-0.4284398,-0.2559276,0.001441623,0.5968983,-0.8069394,4.207443,-8.734122,27.90543,1006.859
1.169134140,0.6794209,-0.4879208,-0.3783264,0.002899602,0.5978739,-0.8035423,4.207443,-8.734122,27.90543,1006.859
1.201692104,0.433311,-0.3689589,0.05006938,-0.0004707461,0.5944303,-0.8040749,4.206045,-8.736336,27.52308,1006.859
1.236755371,0.1256738,-0.07155417,0.1724682,0.004422072,0.592073,-0.8060491,3.843625,-9.105376,27.08081,1006.863
1.269312858,-0.4280733,0.4637742,0.2336676,0.005909065,0.5901418,-0.80463,3.843625,-9.105376,27.08081,1006.863
1.301871300,-0.9818203,0.3448124,0.05006938,0.002961617,0.5925288,-0.8036239,4.206045,-8.736336,27.52308,1006.862
1.334429264,-1.104875,-0.07155417,-0.01113002,0.007757768,0.5989092,-0.8035312,4.209074,-8.731539,28.3515,1006.862
1.369492531,-1.22793,0.04740771,-0.07232942,0.006800414,0.5969638,-0.8059768,4.209074,-8.731539,28.3515,1006.862
1.402050495,-0.6126557,0.4042933,0.1724682,0.00737217,0.5930104,-0.7900863,3.474735,-8.739046,27.97153,1006.863
1.434608936,0.7409484,-0.1905161,0.2948669,0.006380677,0.5920786,-0.8017006,4.201995,-8.369943,27.96654,1006.863
1.469671249,1.233168,-0.07155417,-0.07232942,0.005813669,0.5974501,-0.8088687,4.201995,-8.369943,27.96654,1006.863
1.502229690,0.433311,-0.01207323,0.1112688,0.001500786,0.5925097,-0.8036228,4.207676,-8.733753,27.96915,1006.869
1.534788132,0.06414631,-0.01207323,-0.07232942,0.006412854,0.5901173,-0.7978635,3.845256,-9.102794,27.52688,1006.869
1.569850445,0.1872012,-0.1310351,-0.1335288,0.003897245,0.5959407,-0.8030894,3.845256,-9.102794,27.52688,1006.869
1.602408886,-0.1204361,0.1068886,-0.07232942,0.006860401,0.5920981,-0.8046011,3.846887,-9.10021,27.97295,1006.869
1.634966850,-0.243491,0.1663696,0.05006938,0.006304601,0.5979248,-0.8049949,4.207676,-8.733753,27.96915,1006.869
1.670030117,-0.3050184,-0.01207323,0.05006938,0.007782348,0.5964862,-0.8050183,4.207676,-8.733753,27.96915,1006.868
1.702588081,-0.1819635,-0.1310351,-0.07232942,0.007823016,0.5930826,-0.8045869,3.480183,-9.103227,27.91041,1006.866
1.735146522,-0.1819635,-0.01207323,-0.07232942,0.003927015,0.5939839,-0.800219,3.478785,-9.10544,27.52806,1006.866
1.767704964,-0.4280733,-0.01207323,-0.1947282,0.006385112,0.5915948,-0.8021913,3.478785,-9.10544,27.52806,1006.864
1.802767277,-0.6126557,-0.1310351,-0.07232942,0.003856199,0.5988694,-0.8059449,4.210095,-9.10273,27.07962,1006.864
1.835325718,-0.1204361,-0.07155417,-0.07232942,-0.0004768302,0.5958682,-0.7997026,3.840972,-8.736769,27.90661,1006.862
1.867883682,0.3717836,0.2853315,0.1724682,0.0126993,0.592658,-0.8041147,3.840972,-8.736769,27.90661,1006.862
1.902946949,0.8024758,-0.01207323,0.1112688,0.007802871,0.5950218,-0.8035905,4.200364,-8.372525,27.52047,1006.862
1.935504436,0.1256738,0.04740771,0.05006938,0.00872203,0.5989395,-0.8073987,3.833893,-8.375172,27.52166,1006.861
1.968062878,-0.3665459,0.1068886,-0.01113002,0.004944803,0.5901115,-0.8007624,3.833893,-8.375172,27.52166,1006.861
2.003125668,-0.3050184,-0.1310351,-0.01113002,0.007336829,0.5940262,-0.7997383,4.211493,-9.100515,27.46196,1006.859
2.035684109,-0.1204361,-0.07155417,-0.1335288,0.004389449,0.5949861,-0.8055214,4.213357,-9.097564,27.97176,1006.859
2.068242550,-0.1819635,0.1663696,-0.01113002,0.006325571,0.5955085,-0.8079321,4.213357,-9.097564,27.97176,1006.859
2.103304863,0.1256738,0.1068886,-0.01113002,0.00337204,0.5993335,-0.8025538,3.850937,-9.466604,27.52949,1006.857
2.135863304,0.3717836,-0.1905161,0.1112688,0.00634489,0.5940464,-0.8069877,4.211726,-9.100147,27.52569,1006.857
2.168421268,0.2487287,-0.01207323,0.1112688,0.007316751,0.5945385,-0.805531,4.211726,-9.100147,27.52569,1006.855
2.203484535,-0.243491,0.1068886,0.05006938,0.01075671,0.5930988,-0.7997558,3.836922,-8.370375,28.35007,1006.86
2.236042023,-0.3050184,-0.1310351,-0.01113002,0.009768764,0.5935873,-0.803131,4.200364,-8.372525,27.52047,1006.86
2.268600464,-0.4280733,-0.07155417,-0.07232942,0.005397853,0.5944602,-0.7939293,4.574147,-8.731106,27.96796,1006.855
2.301158905,-0.7972381,0.04740771,-0.1947282,0.0005320888,0.5929632,-0.7992645,4.574147,-8.731106,27.96796,1006.855
2.336221695,-1.72015,0.2853315,-0.01113002,0.006404364,0.5915596,-0.7944579,4.562784,-8.003485,27.96274,1006.855
2.368780136,-3.196809,0.4042933,-0.1947282,0.01500834,0.604334,-0.8000718,4.207676,-8.733753,27.96915,1006.861
2.401337623,-2.21237,1.47495,0.9680604,0.007566598,0.6130511,-0.8144329,4.207676,-8.733753,27.96915,1006.861
2.436400890,-1.781677,0.8206599,0.6620633,0.006567346,0.5798473,-0.783519,4.572515,-8.733689,27.52189,1006.857
2.468958855,-2.950699,0.9396218,0.7232627,0.007323079,0.5964293,-0.7939011,3.841206,-8.7364,27.97034,1006.86
2.501517296,-4.734995,1.831836,2.00845,0.002111207,0.6202962,-0.8201177,3.841206,-8.7364,27.97034,1006.858
2.536579609,-8.180533,2.486126,2.681643,0.008165026,0.6047684,-0.808276,3.850937,-9.466604,27.52949,1006.86
2.569138050,-8.795808,1.712874,2.06965,0.01556672,0.6032587,-0.77592,3.852335,-9.46439,27.91183,1006.86
2.601696491,-6.765401,0.1663696,0.9680604,0.01392644,0.6154577,-0.7912002,3.852335,-9.46439,27.91183,1006.86
2.636759281,-6.826929,-1.974944,-0.9903204,0.005994011,0.6270288,-0.793433,4.217408,-9.463958,27.5283,1006.858
2.669317722,-5.227215,-3.105082,-2.948701,-0.02365163,0.6222552,-0.7905769,4.583879,-9.46131,27.52711,1006.858
2.701875687,-7.872896,-0.6663635,-2.948701,-0.02802608,0.6217077,-0.7896143,4.583879,-9.46131,27.52711,1006.858
2.734434128,-13.22579,4.924845,-0.07232942,-0.009116076,0.6263835,-0.8016456,4.214146,-9.469124,26.63616,1006.856
2.769496441,-22.14726,7.601487,1.02926,-0.006241433,0.6369709,-0.7705508,4.218196,-9.835517,26.1927,1006.856
2.802054882,-26.94641,8.910068,-1.663514,-0.005194145,0.6368495,-0.7410676,4.218196,-9.835517,26.1927,1006.858
2.834613323,-17.34812,7.304082,-6.314668,-0.01688479,0.6799296,-0.7360487,3.863088,-10.56579,26.19911,1006.85
2.869675636,3.140519,-0.7853255,-8.089451,0.06380689,0.6869487,-0.7655055,3.51203,-11.66245,25.76206,1006.856
2.902234077,12.24658,-9.35058,-9.313438,0.05949947,0.6767665,-0.7830583,3.51203,-11.66245,25.76206,1006.856
2.934792042,15.75365,-14.70387,-10.47623,0.02617093,0.6530048,-0.7833886,3.517711,-12.02626,25.76467,1006.856
2.969855309,15.13837,-15.5366,-8.640245,0.007445772,0.6322962,-0.7720854,3.509611,-11.29347,26.65159,1006.858
3.002413273,13.90782,-16.7857,-8.823843,0.02821243,0.6120118,-0.7409954,3.509611,-11.29347,26.65159,1006.856
3.034971714,16.3074,-17.43999,-10.35383,-0.001808495,0.5599978,-0.7180746,4.231189,-10.56056,26.64399,1006.858
3.070034027,17.78406,-14.88231,-7.355058,-0.0009953168,0.5745724,-0.7144694,4.22877,-10.19158,27.53352,1006.86
3.102592468,17.16878,-13.69269,-7.11026,-0.07451441,0.6035043,-0.7676118,4.22877,-10.19158,27.53352,1006.86
3.135150909,14.15393,-10.8376,-6.559465,-0.08485078,0.6353834,-0.8599238,4.944668,-9.094853,27.52331,1006.86
3.167708874,9.170209,-9.172137,-5.151879,-0.103802,0.6364902,-0.8371699,4.936334,-8.362434,28.34651,1006.86
3.202772140,11.69283,-3.58093,-2.336707,-0.1044753,0.6083431,-0.848233,4.936334,-8.362434,28.34651,1006.858
3.235329628,5.909255,-4.473144,-0.3783264,-0.03477564,0.5720871,-0.7985822,4.930653,-7.998624,28.34389,1006.858
3.267888069,2.648299,-10.71864,-4.05029,-0.07550542,0.5655295,-0.7561058,5.293073,-7.629583,28.78617,1006.858
3.302950859,-7.995951,-9.588504,-1.173918,-0.1045195,0.5832718,-0.7862598,5.293073,-7.629583,28.78617,1006.858
3.335509300,-12.24135,-15.65556,-6.13107,-0.02557843,0.5761126,-0.8023967,5.659544,-7.626937,28.78498,1006.858
3.368067741,-26.33113,-16.84518,-3.805492,-0.1208927,0.6007397,-0.8265812,5.291442,-7.632166,28.3401,1006.856
3.403130054,-37.52913,-24.99407,-5.335478,-0.02162024,0.618323,-0.7751708,5.291442,-7.632166,28.3401,1006.856
3.435688496,-44.05104,-33.79725,-13.2914,-0.07577008,0.5465682,-0.755428,5.290044,-7.634381,27.95775,1006.856
3.468246460,-66.1394,-39.80482,-18.55455,-0.1766859,0.5630676,-0.7188256,5.302195,-8.733562,26.62737,1006.856
3.503309727,-88.16623,-45.99084,-27.36726,-0.1644413,0.7649544,-0.725425,5.302195,-8.733562,26.62737,1006.854
3.535867214,-85.52055,-44.32537,-29.99883,-0.2402403,0.7778767,-0.7913772,6.064331,-10.91888,25.30244,1006.854
3.568425655,-73.83033,-45.39603,-32.26321,-0.3037733,0.9067271,-0.6660891,6.816125,-12.74777,22.70041,1006.854
3.600984096,-49.89615,-39.21001,-29.93764,-0.352146,0.9149613,-0.6915358,6.816125,-12.74777,22.70041,1006.859
3.636046886,-10.21094,-36.41441,-20.88013,-0.2790627,0.8897346,-0.5996662,7.20713,-14.94312,20.10218,1006.859
3.668605328,49.34764,-20.35456,-3.254698,-0.249733,0.7241424,-0.5466325,7.955484,-16.03184,19.66157,1006.857
3.701162815,106.4451,-7.506671,14.98272,-0.2117257,0.6002024,-0.3310405,7.955484,-16.03184,19.66157,1006.855
3.736226082,71.92822,20.74677,15.53352,-0.1859556,0.3617085,-0.2882997,9.059556,-16.01652,20.93249,1006.855
3.768784046,42.02587,27.2302,17.6143,-0.1487915,0.3751116,-0.5622058,8.295001,-13.46222,23.14695,1006.855
3.801342487,8.493407,33.95155,15.34992,-0.2275268,0.6981531,-0.7515188,8.295001,-13.46222,23.14695,1006.855
3.836404800,-18.08645,31.57231,18.04269,0.1698898,0.8556005,-0.9950558,7.905017,-11.63807,24.4733,1006.855
3.868963242,-18.76325,20.44937,22.14305,-0.1082219,0.9632785,-0.8901853,7.531234,-11.27949,24.02581,1006.855
3.901521683,-10.14941,26.10006,18.96068,-0.07342048,0.8108627,-0.7272293,7.531234,-11.27949,24.02581,1006.857
3.936584473,-14.57939,15.15557,11.00476,-0.3413024,0.6403468,-0.5512062,6.825068,-13.10642,23.59517,1006.857
3.969142914,8.062715,10.39709,6.782003,-0.2020653,0.5999416,-0.5650082,7.202901,-13.83139,23.59921,1006.857
4.001700878,27.44387,12.83581,6.965601,-0.04356558,0.7216697,-0.6933324,7.202901,-13.83139,23.59921,1006.857
4.036763668,23.44458,13.01425,5.986411,-0.1543828,0.6960649,-0.7240688,7.201271,-13.83397,23.15313,1006.855
4.069321632,25.7211,24.79148,15.16632,-0.1698765,0.6558043,-0.6792306,6.82833,-13.10125,24.48731,1006.855
4.101880073,20.1221,26.39746,17.85909,-0.06796023,0.6364153,-0.7187783,6.82833,-13.10125,24.48731,1006.855
4.134438515,13.72324,34.54635,19.87867,0.003376584,0.6924342,-0.7556959,6.468939,-13.46549,24.87346,1006.855
4.169500828,10.21618,35.67649,21.46986,-0.3085288,0.7131034,-0.7444453,6.088687,-12.37154,25.75896,1006.855
4.202059269,19.50682,26.69487,14.00353,-0.03354492,0.6913185,-0.723291,5.722216,-12.37419,25.76015,1006.855
4.234617233,32.05842,3.794707,1.396456,-0.08912003,0.7196673,-0.8102962,5.722216,-12.37419,25.76015,1006.857
4.269680500,29.78191,-4.948991,-3.193499,0.01688166,0.6182882,-0.7640908,5.722216,-12.37419,25.76015,1006.855
4.302238464,34.39647,-1.915463,0.7844621,-0.6238443,0.627836,-0.6400656,5.708434,-11.27759,26.64446,1006.855
4.334796905,32.79675,-1.201692,-1.418716,-0.1084405,0.5167929,-0.7142804,5.708434,-11.27759,26.64446,1006.855
4.369859218,38.64186,-2.391311,1.457656,-0.1668792,0.6252651,-0.7942598,5.326551,-10.18622,27.08389,1006.855
4.402417660,32.36606,-4.354182,-0.01113002,-0.09969356,0.6403772,-0.9313731,4.944668,-9.094853,27.52331,1006.854
4.434976101,6.463002,-2.569754,1.580054,-0.1248793,0.5999039,-0.8676772,4.944668,-9.094853,27.52331,1006.854
4.470038414,-22.76254,-0.7258445,2.192048,-0.02849868,0.544737,-0.7516346,5.298755,-7.993394,28.78878,1006.858
4.502597332,-23.1317,5.341211,3.354837,-0.06624927,0.4473814,-0.7197305,5.294095,-8.000774,27.51429,1006.858
4.535154819,-15.74841,5.698097,2.620444,-0.0943019,0.6394869,-0.7216063,5.294095,-8.000774,27.51429,1006.858
4.567713261,2.40219,-0.01207323,-1.296317,-0.1182518,0.6715701,-1.003386,5.318217,-9.453803,27.90708,1006.856
4.602776050,15.8767,2.06976,-1.296317,-0.1132653,0.7426506,-1.015841,5.316819,-9.456017,27.52473,1006.856
4.635334492,15.63059,6.054983,0.9068609,-0.03597777,0.5278947,-0.7035467,5.316819,-9.456017,27.52473,1006.853
4.667892933,20.30668,7.720449,2.865242,-0.01124198,0.4415277,-0.558425,5.327161,-9.812449,28.80183,1006.853
4.702955246,17.53794,6.054983,3.232438,-0.02297016,0.4993648,-0.698194,4.942015,-8.726246,28.34912,1006.853
4.735513687,12.92338,1.534431,0.8456615,-0.06309075,0.601759,-0.8846266,4.942015,-8.726246,28.34912,1006.853
4.768071651,12.49269,0.4637742,0.2948669,-0.07136569,0.6220412,-0.9858183,4.571495,-8.362498,28.79377,1006.853
4.803134918,8.18577,1.355988,-0.2559276,-0.04457568,0.5858091,-0.9573944,5.293073,-7.629583,28.78617,1006.853
4.835692406,1.540805,2.010279,0.2948669,-0.05559698,0.5164844,-0.8148785,5.293073,-7.629583,28.78617,1006.853
4.868250847,6.709112,-0.6068826,-1.785913,-0.05453752,0.4864327,-0.7234964,5.282395,-6.838744,29.22659,1006.851
4.903314114,2.955937,-1.320654,-1.296317,-0.04232068,0.5149937,-0.76996,4.921605,-7.205202,29.23038,1006.855
4.935872078,-4.673468,-0.6663635,-0.01113002,-0.04742882,0.5600182,-0.852409,4.921605,-7.205202,29.23038,1006.855
4.968430519,-4.85805,0.3448124,0.6008639,-0.06594528,0.5545682,-0.8824435,5.282395,-6.838744,29.22659,1006.853
5.000988960,-1.658622,-0.1905161,0.2948669,-0.06776737,0.5428985,-0.8864869,4.549454,-6.844038,29.22897,1006.853
5.036051273,0.2487287,-0.4879208,-0.5007252,-0.05432836,0.5624577,-0.8741171,4.549454,-6.844038,29.22897,1006.853
5.068609714,-0.920293,-0.07155417,-0.5619246,-0.05196115,0.5384121,-0.8169643,5.293073,-7.629583,28.78617,1006.853
5.101167679,-1.166403,0.1663696,-0.2559276,-0.04928207,0.5275341,-0.7687952,5.288076,-7.202555,29.2292,1006.852
5.136230945,-0.3050184,-0.1310351,0.2336676,-0.05055397,0.5451878,-0.8067114,5.288076,-7.202555,29.2292,1006.852
5.168788433,0.1256738,0.4637742,0.4172657,-0.05471465,0.5541822,-0.8723094,5.644815,-6.469704,29.66886,1006.85
5.201346874,0.433311,0.5232552,0.2948669,-0.05867456,0.5580538,-0.8799806,4.921605,-7.205202,29.23038,1006.85
5.236409664,1.048586,0.3448124,-0.317127,-0.05352116,0.5409523,-0.8454433,4.921605,-7.205202,29.23038,1006.85
5.268968105,0.8640033,-0.07155417,-0.4395258,-0.04611383,0.5389566,-0.8130947,5.654547,-7.199908,29.22801,1006.846
5.301526546,-0.4280733,-0.01207323,-0.317127,-0.05347994,0.5427794,-0.8197965,5.294704,-7.627001,29.23224,1006.846
5.336588859,-2.766117,1.058584,0.5396645,-0.06624468,0.5494632,-0.8298331,5.294704,-7.627001,29.23224,1006.846
5.369147301,-2.21237,0.5827361,0.5396645,-0.04054167,0.5571257,-0.8379584,4.914293,-6.843974,28.7817,1006.846
5.401705265,0.8640033,-0.9042873,-0.1947282,-0.01016825,0.540539,-0.8440413,5.641553,-6.47487,28.77671,1006.845
5.436768532,5.909255,-3.164563,-1.541115,-0.04449501,0.5225163,-0.8268816,5.641553,-6.47487,28.77671,1006.846
5.469326019,5.7862,-2.33183,-0.8067222,-0.07676622,0.5337546,-0.8257122,5.282395,-6.838744,29.22659,1006.843
5.501884460,-2.089315,-1.439616,0.3560663,-0.08866774,0.548263,-0.8438477,4.563394,-7.629711,29.68069,1006.843
5.534443378,-12.05676,-0.3689589,0.6008639,-0.07524005,0.5611843,-0.8678324,4.563394,-7.629711,29.68069,1006.843
5.569505691,-15.19466,0.761179,1.090459,-0.06745629,0.5641531,-0.8571603,4.549454,-6.844038,29.22897,1006.843
5.602064133,-7.380676,2.248202,1.151659,-0.05014387,0.5500905,-0.8148544,4.928234,-7.629647,29.23343,1006.849
5.634622097,-1.843205,2.367164,0.9680604,-0.03495302,0.5477348,-0.7878359,4.928234,-7.629647,29.23343,1006.847
5.669684887,1.848443,0.3448124,-0.2559276,-0.03265595,0.5580058,-0.7954155,4.924972,-7.634813,28.34129,1006.847
5.702242851,5.170926,-0.8448064,-0.929121,-0.04898328,0.5725361,-0.8309479,5.294704,-7.627001,29.23224,1006.847
5.734801292,5.909255,-0.7258445,-0.6843234,-0.05910825,0.5598527,-0.8494999,5.294704,-7.627001,29.23224,1006.849
5.769864559,7.693551,-0.6663635,-0.8067222,-0.06133197,0.5418379,-0.8488058,5.298755,-7.993394,28.78878,1006.849
5.802422523,5.909255,-0.3689589,-0.8067222,-0.05046305,0.5307533,-0.8383512,5.648866,-6.836097,29.2254,1006.849
5.834980965,0.6178935,-0.7853255,-0.8067222,-0.04712547,0.5399641,-0.8237126,5.648866,-6.836097,29.2254,1006.849
5.870043278,-3.996666,-1.142211,-0.623124,-0.05454067,0.5472059,-0.8342292,4.919974,-7.207785,28.78431,1006.847
5.902601719,-3.627501,-1.855982,-0.9903204,-0.06055674,0.5617135,-0.8354523,5.288076,-7.202555,29.2292,1006.847
5.935160160,-1.350985,-1.558578,-0.5007252,-0.06053653,0.5583473,-0.8432376,5.288076,-7.202555,29.2292,1006.851
5.967718124,-0.3665459,-0.9637682,-0.07232942,-0.06189836,0.5510133,-0.8375477,5.280764,-6.841327,28.78051,1006.851
6.002780914,-0.1819635,-0.5474017,0.2336676,-0.05692795,0.5447094,-0.826531,4.926602,-7.63223,28.78736,1006.851
6.035338878,-0.1819635,-1.08273,-0.1947282,-0.05110882,0.5476835,-0.8226242,5.654547,-7.199908,29.22801,1006.851
6.067897320,-0.7972381,-0.8448064,-0.5007252,-0.06335241,0.5519331,-0.8302816,5.654547,-7.199908,29.22801,1006.851
6.102960110,-1.535568,-0.3689589,-0.317127,-0.06397054,0.5612029,-0.8398072,5.282395,-6.838744,29.22659,1006.849
6.135518551,-1.47404,-0.01207323,-0.2559276,-0.0702948,0.5611094,-0.8373856,5.661175,-7.624354,29.23106,1006.849
6.168076992,0.2487287,0.6422171,-0.01113002,-0.06543461,0.5616654,-0.8388319,5.661175,-7.624354,29.23106,1006.849
6.203139305,3.632739,1.415469,0.2948669,-0.06092054,0.5529212,-0.8268852,5.294704,-7.627001,29.23224,1006.849
6.235697746,5.663145,2.010279,0.4784651,-0.05647679,0.5466835,-0.8318185,5.293073,-7.629583,28.78617,1006.849
6.268256187,6.586057,1.177545,0.2336676,-0.04323985,0.5381306,-0.8367955,5.293073,-7.629583,28.78617,1006.848
6.303318977,4.432596,0.5827361,-0.07232942,-0.06273003,0.5374236,-0.8440381,5.288076,-7.202555,29.2292,1006.846
6.335876465,0.6178935,-1.558578,-0.1947282,-0.06319418,0.5388025,-0.8280652,5.654547,-7.199908,29.22801,1006.846
6.368434906,-2.273897,-0.3094779,0.4172657,-0.06137429,0.5461956,-0.8453557,5.654547,-7.199908,29.22801,1006.846
6.400993347,-2.21237,-0.3094779,0.2336676,-0.05254487,0.5409606,-0.8444774,5.284026,-6.836161,29.67266,1006.846
6.436056137,3.448156,-0.3689589,-0.5619246,-0.05435716,0.5340292,-0.8218626,4.921605,-7.205202,29.23038,1006.846
6.468614578,5.293981,-0.249997,-0.5007252,-0.05925992,0.5345021,-0.8329684,4.921605,-7.205202,29.23038,1006.844
6.501173019,3.878849,0.1663696,-0.1947282,-0.06635287,0.5558438,-0.8437536,5.282395,-6.838744,29.22659,1006.846
6.536235332,7.878134,0.9991028,0.2948669,-0.06775974,0.55097,-0.8447933,4.919974,-7.207785,28.78431,1006.846
6.568793774,11.01603,1.891317,1.02926,-0.05681626,0.5321395,-0.8407408,4.919974,-7.207785,28.78431,1006.846
6.601351738,10.15465,1.950798,0.9068609,-0.05129917,0.5176474,-0.8443509,4.906193,-6.111186,29.66862,1006.846
6.636415005,7.632024,1.177545,0.2336676,-0.04151353,0.5129329,-0.8482993,5.278345,-6.47235,29.67005,1006.846
6.668972492,4.986343,1.058584,-0.1947282,-0.05040565,0.5211362,-0.8607333,5.278345,-6.47235,29.67005,1006.848
6.701530933,9.908539,-0.7853255,-1.785913,-0.06366799,0.5325891,-0.8523284,5.274294,-6.105957,30.11351,1006.846
6.736593723,18.95308,-0.3689589,-2.091909,-0.05870846,0.5186954,-0.8820311,4.892411,-5.014588,30.55293,1006.846
6.769152164,32.05842,2.129241,-2.520305,-0.07250113,0.5316482,-0.8842371,4.892411,-5.014588,30.55293,1006.846
6.801710606,45.28682,3.199898,-4.907082,-0.025277,0.3622342,-0.9008852,4.529991,-5.383629,30.11066,1006.846
6.836772919,60.79174,5.638616,-1.969511,-0.04244855,0.4529776,-0.9188193,4.880027,-3.915776,31.81959,1006.846
6.869331360,77.46569,7.18512,-1.357517,-0.03553477,0.4381461,-0.9504718,4.880027,-3.915776,31.81959,1006.844
6.901889324,102.5689,7.898892,-0.8679216,-0.06062213,0.3789442,-0.9358827,4.851621,-2.096723,31.80654,1006.844
6.934447765,117.7046,11.88412,-1.05152,-0.03675249,0.3322082,-0.9569205,4.812695,0.8240952,33.56993,1006.844
6.969511032,127.0568,12.41944,-0.4395258,-0.03123234,0.268778,-0.9931801,4.812695,0.8240952,33.56993,1006.844
7.002068520,129.764,14.08491,1.212858,-0.04251092,0.1866061,-1.017625,4.755095,4.833763,34.87943,1006.844
7.034627437,135.7322,18.07013,1.947251,-0.00071987,0.1065665,-1.038221,5.055631,9.578495,37.01093,1006.844
7.069689750,139.4238,16.88051,4.334027,0.01241206,-0.009116541,-0.9984286,5.055631,9.578495,37.01093,1006.847
7.102248192,137.0243,16.40466,3.354837,0.01506346,-0.1073456,-0.9791446,3.523204,13.93622,37.43042,1006.847
7.134806633,133.7018,15.0366,5.06842,0.03186526,-0.1645965,-0.9529651,4.178239,19.03745,37.83756,1006.847
7.169868946,118.3814,9.980725,4.701223,0.02714364,-0.2570877,-0.9340699,4.178239,19.03745,37.83756,1006.847
7.202427387,98.50808,8.731626,1.886051,0.03191112,-0.3256907,-0.904185,3.756587,22.67549,38.25871,1006.847
7.234985351,81.28039,11.17034,2.00845,0.01298252,-0.3792651,-0.9335033,4.068664,25.94727,37.34188,1006.847
7.270048618,68.79031,11.9436,0.2336676,0.03950374,-0.4320728,-0.8946977,4.068664,25.94727,37.34188,1006.847
7.302606106,110.3214,-7.863557,-13.96459,0.3778865,-0.3040323,-0.7219554,4.029684,28.12239,35.988,1006.845
7.335165024,34.88868,5.28173,-2.581505,0.04581547,-0.4566327,-0.820155,3.626096,30.2978,35.1451,1006.845
7.367723465,50.94735,-7.804076,-1.602314,-0.7325551,-0.5875783,-1.292694,3.626096,30.2978,35.1451,1006.845
7.402785778,15.01532,3.97315,-1.541115,0.03589943,-0.4944296,-0.8729268,3.96658,31.75053,34.24132,1006.845
7.435344219,24.92124,7.363563,-1.847112,0.04786788,-0.5247555,-0.902887,3.588747,32.4755,34.23729,1006.845
7.467902660,43.441,4.330035,-4.723484,-0.007859644,-0.5497614,-0.9075651,3.588747,32.4755,34.23729,1006.849
7.502964973,54.94664,7.423044,-3.0711,0.05318731,-0.5151058,-0.8722922,3.569913,33.25343,32.44734,1006.849
7.535523891,71.68211,7.482525,-3.0099,0.01328195,-0.5156705,-0.8625948,3.193102,33.60721,31.17143,1006.849
7.568081379,62.14535,8.017854,2.926441,0.09291083,-0.5293732,-0.8275942,3.193102,33.60721,31.17143,1006.851
7.603144646,43.31795,2.783531,4.517625,0.03416852,-0.5005584,-0.81308,3.168746,35.05987,30.71491,1006.851
7.635702610,29.35122,2.843012,6.720804,0.1146148,-0.5471999,-0.7998512,3.141128,36.50736,29.36625,1006.851
7.668261051,27.56692,8.077334,11.31076,0.1155327,-0.6292548,-0.8151219,3.141128,36.50736,29.36625,1006.849
7.703323364,22.02945,12.18152,11.80035,0.05230571,-0.6739195,-0.793507,3.124872,37.22724,28.02281,1006.849
7.735881805,17.04572,11.9436,11.80035,0.08982657,-0.6316801,-0.7832312,3.124872,37.22724,28.02281,1006.849
7.768440247,-1.96626,15.45297,14.06473,0.05195978,-0.600099,-0.7827129,3.124872,37.22724,28.02281,1006.849
7.800998211,-9.903302,17.89169,15.90071,0.0656191,-0.6004422,-0.7749972,2.74806,37.58102,26.7469,1006.849
7.836061478,-13.71801,19.25975,16.57391,0.02060016,-0.6651967,-0.7720747,3.10885,37.94748,26.7431,1006.849
7.868619919,5.847727,18.4865,13.63634,0.05112326,-0.6920447,-0.7657465,3.117793,37.58884,27.63786,1006.848
7.901177406,24.79819,18.36754,14.12593,0.05892967,-0.6848369,-0.7255238,3.117793,37.58884,27.63786,1006.848
7.936240673,40.79532,21.16314,12.77954,0.04869185,-0.6773386,-0.69398,3.1129,37.58109,26.29964,1006.848
7.968798637,28.30525,18.66494,12.41235,0.09697536,-0.7518845,-0.622174,2.739905,37.56811,24.51654,1006.848
8.001357079,33.90424,21.40106,11.06596,0.1984156,-0.7651169,-0.6277909,2.739905,37.56811,24.51654,1006.852
8.036419391,31.62773,21.69847,14.18713,0.170932,-0.8500482,-0.5203004,2.719833,38.65474,23.68029,1006.852
8.068977833,38.45728,18.30806,9.780773,0.09272945,-0.906543,-0.5051354,2.722252,38.28576,22.79075,1006.85
8.101536274,41.28754,12.71685,6.353607,0.1033433,-0.8568145,-0.5087373,2.722252,38.28576,22.79075,1006.85
8.136599064,23.56764,9.564359,6.904402,0.09435735,-0.84083,-0.5225027,2.278447,39.00255,21.4487,1006.85
8.169157505,12.00047,7.77993,4.946021,0.1096723,-0.8553028,-0.5024365,3.073488,38.63709,20.17425,1006.85
8.201714992,7.385914,7.363563,3.966831,0.08725161,-0.8911715,-0.4812101,3.073488,38.63709,20.17425,1006.85
8.236778259,2.217607,0.9991028,1.886051,0.1014272,-0.8488124,-0.4573755,2.705387,38.63186,19.72937,1006.85
8.269336700,-25.5928,-3.759372,3.110039,0.08635727,-0.7797271,-0.5157622,2.709437,38.26547,19.28591,1006.85
8.301894665,-36.85233,-4.592105,1.457656,0.09609616,-0.8052832,-0.6384559,2.709437,38.26547,19.28591,1006.85
8.334453106,-27.93085,-2.391311,2.865242,0.1108629,-0.7864131,-0.684103,3.07917,38.27328,20.17686,1006.848
8.369515419,-18.82478,-1.974944,4.334027,0.09988879,-0.7561119,-0.6459268,3.080567,38.2755,20.55921,1006.847
8.402073860,-21.47046,-1.73702,4.946021,0.0802232,-0.7365227,-0.6282074,3.080567,38.2755,20.55921,1006.849
8.434632301,-26.51571,-2.212868,4.456426,0.09385707,-0.7415756,-0.6534332,3.083829,38.28066,21.45135,1006.849
8.469695091,-35.74483,12.41944,21.28626,-0.4588773,-0.6371394,-0.9408491,3.08546,38.28325,21.89742,1006.847
8.502253532,-35.12956,16.22622,24.59103,0.1853872,-0.7099701,-0.7144282,3.08546,38.28325,21.89742,1006.847
8.534811020,-21.40894,6.649792,15.90071,-0.007370475,-0.6869889,-0.7627127,3.105766,37.19698,22.7974,1006.847
8.569874287,-17.2866,6.828235,14.61553,0.2191726,-0.7146283,-0.6623272,3.104978,37.56854,24.13301,1006.847
8.602432728,-28.17696,10.6945,16.32911,0.006780568,-0.6963158,-0.5961035,3.104978,37.56854,24.13301,1006.846
8.634990692,-59.1868,-2.807678,12.53475,-0.02054466,-0.7445496,-0.648051,3.48989,36.48197,24.522,1006.846
8.670053959,-88.22775,-2.391311,-0.1947282,0.04929711,-0.7464565,-0.775759,3.489102,36.85353,25.8576,1006.846
8.702611446,-83.42861,-4.175739,-5.825073,0.02596202,-0.5663205,-0.6975815,3.489102,36.85353,25.8576,1006.844
8.735169887,-112.3465,-9.529023,-4.233889,-0.08519707,-0.5100267,-0.6772803,3.154909,35.41077,28.48194,1006.842
8.767728805,-157.2616,-16.72622,-9.068641,0.02661164,-0.5785571,-0.889186,3.918731,33.97374,30.72037,1006.842
8.802791119,-171.782,-13.0384,-13.6586,0.01646489,-0.3955261,-0.9811257,3.918731,33.97374,30.72037,1006.844
8.835349560,-169.1979,-11.43241,-21.30852,0.06979237,-0.2685252,-1.074465,4.692209,32.11705,33.79026,1006.844
8.867908001,-146.9865,-6.257572,-26.57167,0.1011997,-0.2192098,-1.140932,4.00393,29.57283,35.14913,1006.844
8.902970314,-111.5467,-1.142211,-28.53005,0.04843392,-0.105063,-1.064216,4.00393,29.57283,35.14913,1006.844
8.935528755,-68.1698,2.605088,-21.36972,0.04291856,-0.1200066,-1.000633,4.441604,25.21454,36.0077,1006.85
8.968086720,-16.1791,2.426645,-8.211849,0.06281878,-0.02556823,-0.9769763,3.761425,21.93754,36.47964,1006.85
9.003149986,35.07327,-9.766947,1.02926,0.01979656,-0.0201071,-1.018422,3.761425,21.93754,36.47964,1006.852
9.035707474,45.59446,-11.19449,-0.317127,-0.01781404,-0.02085998,-1.067218,3.7882,20.1159,36.04663,1006.852
9.068266392,56.05413,-10.48072,-1.173918,-0.03798378,-0.05445881,-1.110732,3.772788,21.20992,36.48487,1006.853
9.103328705,94.44727,-7.685114,-5.213079,-0.03117924,-0.09281582,-1.099723,3.772788,21.20992,36.48487,1006.852
9.135887146,156.3439,-2.807678,-10.90462,-0.03727665,-0.1589027,-1.119577,4.120584,22.30141,36.02977,1006.852
9.168445587,369.9057,-35.70063,-53.3158,-0.1328414,-0.2876945,-1.179938,4.441604,25.21454,36.0077,1006.852
9.201004028,356.4927,4.03263,-33.2424,0.1354033,-0.2749357,-0.7613978,4.441604,25.21454,36.0077,1006.852
9.236066341,148.1608,34.90324,7.944791,0.0571152,-0.1549886,-0.5381057,5.095974,29.19629,31.5796,1006.852
9.268625259,-11.81065,9.802282,15.90071,0.03709488,-0.4206816,-0.629631,4.955772,36.49255,24.51724,1006.852
9.301182747,-31.43791,11.22983,19.08308,0.03429019,-0.6617912,-0.7338492,4.955772,36.49255,24.51724,1006.852
9.336246013,-20.23991,9.623839,6.843203,0.1016956,-0.8042859,-0.7341546,4.185715,38.66533,23.67553,1006.85
9.368803978,-15.13314,10.63502,17.6755,0.04256746,-0.740998,-0.7133136,4.557867,38.30416,23.67696,1006.85
9.401362419,7.755079,10.27813,11.37196,0.06992691,-0.747942,-0.7110291,4.557867,38.30416,23.67696,1006.854
9.436424732,27.44387,10.39709,7.271598,0.03589412,-0.6952708,-0.6352692,4.548923,38.66281,22.7822,1006.854
9.468983173,21.22959,8.553183,7.332798,0.04831812,-0.6713687,-0.6189651,4.528618,39.74908,21.88222,1006.854
9.501541614,16.36892,8.791106,10.94356,0.06908772,-0.7467739,-0.650105,4.528618,39.74908,21.88222,1006.854
9.536603928,31.25857,9.088511,8.862782,0.04959738,-0.8229919,-0.6183794,4.532668,39.38269,21.43876,1006.854
9.569162846,43.87169,8.672144,7.577595,0.04884261,-0.8429049,-0.6235161,4.884514,40.10778,20.54021,1006.856
9.601721287,32.30453,4.686921,3.905631,0.03742743,-0.8155475,-0.5805507,4.884514,40.10778,20.54021,1006.857
9.636783600,18.64544,0.3448124,1.396456,0.03466492,-0.8396569,-0.6302202,4.519065,39.73395,19.26952,1006.859
9.669342041,7.016749,-2.034425,-1.724713,0.03395304,-0.780332,-0.638982,4.510122,40.09259,18.37476,1006.861
9.701900005,-8.119006,-1.67754,-1.541115,0.04144769,-0.7530547,-0.630839,4.510122,40.09259,18.37476,1006.861
9.734458446,-14.57939,0.04740771,0.6620633,0.009215898,-0.7091266,-0.6572068,4.49573,40.81542,17.54112,1006.861
9.769521713,-14.33328,1.891317,3.783233,0.008513854,-0.6978011,-0.6913531,4.50281,40.45382,17.92608,1006.861
9.802079201,-11.19538,4.508478,7.210399,0.03069863,-0.687129,-0.7298819,4.136339,40.45118,17.92727,1006.867
9.834637642,1.048586,6.411868,12.53475,0.02671549,-0.6399897,-0.7402766,4.136339,40.45118,17.92727,1006.867
9.869700432,-13.10273,7.363563,20.61307,0.02302668,-0.5653824,-0.6985311,4.50281,40.45382,17.92608,1006.867
9.902258873,-32.17624,4.389516,32.36335,-0.02076623,-0.5303971,-0.7153566,4.506072,40.45899,18.81822,1006.867
9.934817314,-35.25262,2.426645,31.62896,-0.003381036,-0.5650438,-0.7415209,4.506072,40.45899,18.81822,1006.867
9.969879627,-24.2392,-1.261173,40.56407,0.02001849,-0.471678,-0.6859809,5.2317,40.82551,18.36716,1006.867
10.002438068,-43.55882,-6.257572,41.35966,-0.06645587,-0.4285246,-0.591464,4.50039,40.8228,18.81561,1006.867
10.034996509,-83.1825,-11.7893,34.68893,-0.1259026,-0.3280326,-0.5236508,4.50039,40.8228,18.81561,1006.867
10.070059299,-150.3089,2.129241,15.59472,0.03409607,-0.3046404,-0.5065302,5.607114,40.46951,19.26073,1006.867
10.102617740,-206.7296,-9.35058,58.49549,0.02074547,-0.6327004,-0.7570777,5.250985,40.11043,20.53902,1006.871
10.135175228,-248.6914,-63.35928,58.92389,-0.1678901,-0.6761924,-1.030184,5.250985,40.11043,20.53902,1006.873
10.167733669,-252.6906,-39.50742,20.18467,-0.04346498,-0.8917503,-1.363739,5.649966,38.67333,23.22471,1006.877
10.202796459,-146.002,12.59789,-7.477457,-0.1038532,-0.8322329,-1.4783,6.428789,36.88725,28.01472,1006.877
10.235354900,19.26071,22.94757,-27.06126,-0.2866981,-0.7244743,-1.650495,6.428789,36.88725,28.01472,1006.877
10.267913341,105.5837,24.61304,-27.85686,-0.125392,-0.4090901,-1.500826,6.83019,35.08118,29.81088,1006.877
10.302975654,83.24927,41.50562,-35.50678,-0.07544203,-0.08783156,-1.252834,6.089327,35.06334,27.64662,1006.875
10.335534096,3.448156,55.36468,-32.9976,-0.1122699,-0.07580115,-1.119203,6.089327,35.06334,27.64662,1006.875
10.368092537,-45.28159,42.39784,-19.59494,-0.1641498,-0.1680947,-1.065456,6.063339,36.51341,26.74403,1006.875
10.403155327,-44.11257,31.86971,-12.9242,-0.07602366,-0.2647353,-0.9374706,5.720203,35.42929,28.47362,1006.875
10.435713768,2.40219,22.59068,-12.43461,0.09762018,-0.3361408,-0.7700291,5.720203,35.42929,28.47362,1006.875
10.468271255,58.51523,11.76515,-11.51662,0.1413409,-0.2759273,-0.5279476,5.395976,33.2567,30.72084,1006.875
10.503334522,59.37661,-7.506671,-28.95844,0.014476,-0.08940425,-0.3350124,5.035186,32.89024,30.72464,1006.875
10.535892963,-17.84034,-41.52977,-50.43943,0.1148163,0.3379184,-0.2865361,5.035186,32.89024,30.72464,1006.877
10.568450928,-91.79635,-70.02113,-46.76747,-0.0639069,-0.05827906,-0.7748182,4.659772,33.24624,29.83107,1006.877
10.601009369,-10.82621,-65.67903,-16.16777,-0.1172894,-0.1867728,-1.310858,4.30803,32.08636,28.94838,1006.877
10.636071682,118.0123,-17.32103,-18.18735,-0.1508864,-0.1815631,-1.482829,4.30803,32.08636,28.94838,1006.878
10.668630123,89.27896,9.207473,-15.00498,-0.205529,-0.2409477,-1.406342,5.053355,30.99284,27.67935,1006.878
10.701188564,6.155365,3.735226,-6.06987,-0.3135211,-0.3056472,-1.064027,3.927798,32.12405,25.44429,1006.878
10.736251354,0.4948385,-13.51425,-4.417487,-0.09549917,-0.3675591,-0.8268772,3.927798,32.12405,25.44429,1006.881
10.768809795,26.45943,-17.85636,-8.456647,0.007731658,-0.319656,-0.8049774,4.286168,32.85949,26.33002,1006.881
10.801368236,33.59661,-18.62961,-9.007442,-0.002849282,-0.3343049,-0.8201753,3.538602,33.57665,25.43503,1006.881
10.836430550,35.25785,-15.23919,-3.866692,-0.03802663,-0.4167176,-0.8600689,3.538602,33.57665,25.43503,1006.881
10.868988991,12.00047,-9.2911,-7.661055,0.1111742,-0.4184616,-0.7974005,3.907725,33.21069,24.60803,1006.881
10.901546955,26.82859,-23.92341,-20.39053,-0.2558033,-0.3433634,-0.9418804,3.536361,33.20029,23.27101,1006.881
10.936610222,45.71752,-35.52219,-7.599855,-0.1153372,-0.2593576,-1.056261,3.536361,33.20029,23.27101,1006.881
10.969168663,35.87312,-19.93819,-7.416257,0.138328,-0.3210374,-0.9805902,3.170679,32.82608,21.93659,1006.879
11.001726627,45.34835,3.616264,-5.09068,-0.2298725,-0.3945616,-0.9378527,3.891648,33.18523,20.21104,1006.881
11.036789417,74.88154,-14.82283,-9.313438,-0.1568888,-0.3740033,-0.8680032,3.891648,33.18523,20.21104,1006.879
11.069347381,92.23228,-27.43279,-5.213079,0.09543643,-0.3765824,-0.8600687,3.153814,33.17218,18.8752,1006.879
11.101905823,57.1001,-19.87871,-6.008671,0.005915053,-0.2145016,-0.8483254,3.878833,33.16493,16.70619,1006.879
11.134464264,-43.68188,19.14079,-10.96582,-0.008489012,0.1042132,-0.4403128,3.878833,33.16493,16.70619,1006.877
11.169526577,-195.0394,27.88449,24.16263,-0.2627221,-0.1687725,-0.349007,3.861735,33.51066,13.58107,1006.875
11.202085018,-247.7684,-7.328229,57.4551,-0.3602349,-0.3175649,-0.5048967,3.83901,34.9659,13.57063,1006.875
11.234643936,-259.5202,-58.6008,35.72932,-0.3048172,-0.4269561,-0.869635,3.83901,34.9659,13.57063,1006.877
11.269706249,-204.4531,-72.81674,-3.193499,-0.4390098,-0.4648074,-1.158176,4.101463,43.0056,19.24721,1006.877
11.302264690,-45.28159,-79.41913,-17.75896,-0.3615974,-0.4876126,-1.47666,6.203046,52.9333,34.52719,1006.881
11.334822655,103.9225,-44.97966,4.823622,-0.1789601,-0.2810563,-1.48722,6.203046,52.9333,34.52719,1006.877
11.369885444,187.969,-7.209267,-8.15065,-0.2154192,-0.1861584,-1.40598,7.721155,51.90817,44.15268,1006.875
11.402443886,176.9556,14.14439,-11.76141,-0.2571115,-0.1090973,-1.159208,8.068163,53.37123,45.03319,1006.877
11.435001850,98.44655,8.612663,-2.153109,-0.3428639,-0.02219034,-0.9591317,8.068163,53.37123,45.03319,1006.877
11.470065117,-18.27103,2.72405,5.252018,-0.3774833,-0.08047024,-0.8546113,8.326025,59.16681,40.14716,1006.877
11.502623081,-90.25816,-5.603281,6.476006,-0.2480007,-0.1646746,-0.8835734,8.292116,60.60433,37.07793,1006.877
11.535181522,-113.3925,-4.770548,11.98395,-0.239426,-0.2292604,-0.8710325,8.292116,60.60433,37.07793,1006.877
11.567739963,-92.84232,-4.354182,8.373187,-0.3068084,-0.3186291,-0.9694896,8.690865,59.16687,39.6999,1006.881
11.602802277,-45.58923,-3.402487,6.843203,-0.261401,-0.3363338,-1.007024,8.419399,53.72256,42.41668,1006.879
11.635360718,8.924099,5.638616,4.272828,-0.2538782,-0.3267055,-1.071656,8.419399,53.72256,42.41668,1006.879
11.667919159,34.15036,13.90647,-0.1335288,-0.2385459,-0.265223,-1.081367,8.496284,48.99781,43.27905,1006.881
11.702981472,36.0577,16.64259,-1.235118,-0.2395405,-0.2157897,-1.053543,8.152538,47.53992,43.29068,1006.883
11.735540390,19.62988,18.66494,1.457656,-0.2436685,-0.1944891,-1.04693,7.758684,48.98514,42.00693,1006.881
11.768097877,-7.011511,19.67612,-0.929121,-0.1842887,-0.1827253,-1.005721,7.758684,48.98514,42.00693,1006.881
11.803161144,-24.11614,29.96632,-7.11026,-0.2437806,-0.2170582,-1.00087,7.755422,48.97997,41.11479,1006.881
11.835719585,-20.17839,25.14836,-5.09068,-0.2436116,-0.1926905,-1.015,7.016798,49.33849,41.11456,1006.883
11.868277550,-9.595665,26.45694,-3.499496,-0.2212871,-0.1775176,-0.9746699,7.016798,49.33849,41.11456,1006.881
11.903340340,5.970782,31.09646,-8.395448,-0.2584199,-0.1549425,-0.9158011,7.016798,49.33849,41.11456,1006.881
11.935898304,23.50611,25.20784,-2.091909,-0.2427332,-0.1326319,-0.9671972,6.998912,50.05578,39.32505,1006.881
11.968456745,24.18291,17.35636,0.5396645,-0.1855246,-0.1380275,-0.8996619,6.998912,50.05578,39.32505,1006.881
12.001015186,15.07685,18.18909,-3.193499,-0.1288659,-0.1528269,-0.9028426,5.891579,50.03529,37.16198,1006.883
12.036077976,12.18505,15.80986,-5.763874,-0.1507811,-0.1911012,-0.8855205,5.517796,50.39388,36.71448,1006.883
12.068636417,25.53651,15.45297,-6.681864,-0.1891939,-0.2002657,-0.9039916,5.517796,50.39388,36.71448,1006.881
12.101194858,41.28754,12.77633,-2.642704,-0.1048016,-0.227504,-0.9774786,5.883657,50.02275,34.99534,1006.881
12.136257171,53.71609,20.15196,-4.907082,-0.1004017,-0.2312835,-0.9886581,5.86577,50.74004,33.20583,1006.881
12.168815613,58.63828,22.11484,-0.9903204,-0.1307675,-0.2669725,-1.029294,5.86577,50.74004,33.20583,1006.885
12.201374054,46.08668,17.47532,-2.826302,-0.1106994,-0.2821206,-1.06048,5.484065,51.08607,30.5917,1006.885
12.236436844,26.21332,20.62781,-2.826302,-0.03812454,-0.3268146,-1.070416,4.737288,51.43167,28.36111,1006.885
12.268995285,20.86043,30.79906,-7.17146,-0.08396453,-0.3571967,-1.040383,4.737288,51.43167,28.36111,1006.881
12.301552772,27.32081,26.87331,-4.907082,-0.1266309,-0.3875808,-1.107028,5.112092,50.7019,27.53672,1006.881
12.336616039,25.04429,29.54995,-3.744293,-0.06556813,-0.417582,-1.17425,4.765084,49.23884,26.65621,1006.885
12.369174480,21.29112,45.55033,-4.05029,0.02610965,-0.4318494,-1.193892,4.765084,49.23884,26.65621,1006.885
12.401732445,35.38091,59.23094,-3.377097,-0.03680288,-0.4662048,-1.193872,5.519119,47.78631,26.21821,1006.884
12.436795711,45.53294,56.49482,-3.499496,-0.02215715,-0.4598997,-1.149319,4.091374,45.22647,25.79517,1006.884
12.469353199,51.87026,52.807,-8.579045,0.04936813,-0.3775907,-0.9833007,4.091374,45.22647,25.79517,1006.88
12.501911640,43.74864,50.78465,-5.886272,0.09774764,-0.4556413,-0.8888295,4.487883,43.41265,26.25311,1006.88
12.534470081,13.47713,57.62496,-7.783453,0.1531299,-0.5562956,-0.8266129,4.144137,41.95475,26.26474,1006.879
12.569532871,-13.96411,63.27564,-9.497037,0.1426068,-0.5814579,-0.668439,4.144137,41.95475,26.26474,1006.877
12.602091312,-1.904732,50.84413,-7.967052,0.211532,-0.5839022,-0.5752511,3.767935,42.68231,26.70678,1006.875
12.634649753,42.7642,38.17469,-12.8018,0.1492318,-0.538213,-0.541141,3.05693,41.59334,28.0552,1006.873
12.669712067,74.82001,30.44217,-20.20693,0.03530097,-0.4090977,-0.5110252,3.05693,41.59334,28.0552,1006.873
12.702270508,99.24641,3.199898,-16.77976,0.04582993,-0.22288,-0.4970767,2.69451,41.2243,27.61293,1006.873
12.769891739,60.79174,-23.98289,-1.785913,0.1980997,-0.06146644,-0.3942188,2.253124,41.57211,25.38135,1006.872
12.802450180,32.30453,-5.603281,22.69385,0.2099101,-0.177954,-0.5009001,2.654077,42.65149,22.75942,1006.87
12.835007668,-36.36011,-8.339404,28.38539,0.232976,-0.3737135,-0.5643311,2.643502,43.00756,21.41859,1006.87
12.870070934,-46.94283,-9.35058,22.08185,0.2138814,-0.4749106,-0.489483,2.643502,43.00756,21.41859,1006.874
12.902629375,13.78477,-5.722243,19.32788,-0.06673248,-0.5890298,-0.6722195,2.210272,43.36828,21.41737,1006.868
12.935187340,69.6517,-49.02436,26.12101,-0.009277958,-0.5160896,-0.7291674,3.372394,43.37925,21.85968,1006.873
12.967745781,66.57533,-60.74211,26.73301,0.1676341,-0.5582929,-0.8798288,3.372394,43.37925,21.85968,1006.871
13.002808094,-46.45061,-33.67828,9.474776,0.2156877,-0.7094127,-1.068281,2.980957,44.45548,19.6864,1006.871
13.035366535,-93.76523,-21.72262,17.73669,0.2684242,-0.8572745,-1.318077,3.331172,45.17801,18.34177,1006.871
13.067924976,-11.50302,18.66494,25.26422,0.1633936,-0.9748572,-1.412094,3.331172,45.17801,18.34177,1006.871
13.102987766,154.0674,42.99265,33.09774,0.1432998,-0.7173219,-1.033045,3.697464,45.92598,21.39414,1006.869
13.135546207,195.7215,44.12278,14.00353,-0.1773508,-0.4626038,-0.8944708,3.688521,46.28463,20.49939,1006.869
13.168104648,157.5744,7.601487,0.8456615,-0.2664631,-0.3629332,-0.4133544,3.688521,46.28463,20.49939,1006.869
13.203166961,38.08811,-10.06435,6.659604,-0.08594294,-0.4823393,-0.2514856,4.035886,46.25702,15.27278,1006.869
13.235725403,-0.8587655,11.70567,10.14797,0.07024831,-0.7090533,-0.3933409,3.6566,46.23407,11.76912,1006.867
13.268283844,149.2682,41.14874,26.9166,0.1948959,-0.6446839,-0.2977373,3.6566,46.23407,11.76912,1006.869
13.303346634,325.8521,28.36033,31.93496,-0.04291402,-0.328649,-0.04664745,4.02144,46.23414,11.32186,1006.867
13.335905075,309.2396,8.37474,41.66566,-0.09872935,-0.1016976,0.1168666,4.745795,45.10741,4.317614,1006.866
13.368463516,218.6712,11.9436,51.45756,-0.03861234,0.0227001,0.399065,4.745795,45.10741,4.317614,1006.866
13.401021480,146.0073,15.09609,74.52973,0.05820339,0.05646271,0.5188807,5.514147,40.32228,-6.165372,1006.867
13.436084270,108.414,-6.495496,105.007,0.01230877,0.06185127,0.6973733,5.933127,35.18877,-13.52205,1006.873
13.468642235,96.5392,-80.07342,71.10257,-1.027755,-0.7372976,1.162795,5.933127,35.18877,-13.52205,1006.873
13.501200676,-216.1433,-74.12532,-104.5397,-0.3537396,-5.448884,0.03456736,6.707751,31.46986,-17.89488,1006.882
13.536263943,3.571211,-83.64227,-211.0878,0.4460708,-4.318884,-1.511722,7.507236,27.10684,-18.312,1006.882
13.568821430,330.7742,-188.8641,-132.875,2.701971,0.2151977,-0.8279371,4.490937,32.60605,-17.89602,1006.882
13.601380348,290.8429,41.86251,-30.85563,1.257076,0.04050944,-0.2259534,4.490937,32.60605,-17.89602,1006.879
13.636442661,254.4802,31.39386,56.53711,-1.612031,-1.378966,1.755857,2.73066,25.56147,-27.90851,1006.882
13.669001102,325.1137,-198.3215,-86.36348,-1.023836,-0.7915171,4.311163,4.650166,17.88376,-36.65361,1006.891
13.701559544,94.81643,61.72914,-103.8665,1.154188,-1.555344,0.4932326,4.650166,17.88376,-36.65361,1006.891
13.736621857,372.1207,-88.99556,30.16017,-1.28813,-0.6112764,1.239409,3.694773,7.292466,-42.2458,1006.882
13.769180298,445.3999,-123.1376,86.58601,-0.03772594,0.4527466,0.4186763,4.902308,-0.3573318,-45.25331,1006.884
13.801738739,371.0132,-26.95694,21.22506,0.7503862,0.5849079,-0.3017497,4.902308,-0.3573318,-45.25331,1006.885
13.834297657,127.1799,116.0947,65.71703,0.7392522,0.5100264,-0.431943,4.412975,-16.06971,-45.5843,1006.885
13.869359970,190.5532,193.301,61.00467,0.09154681,0.5474226,-0.04114559,4.261371,-29.52597,-44.21201,1006.885
13.901918411,377.4736,206.0299,44.54203,-0.3415155,0.4542644,0.07144471,4.261371,-29.52597,-44.21201,1006.888
13.934476376,548.766,200.6171,81.44527,-0.1392407,1.007116,0.3803443,5.448476,-34.59846,-41.94865,1006.888
13.969539165,517.1409,141.2552,136.0963,-0.6137406,1.173862,0.7183264,7.473277,-43.97346,-29.65159,1006.888
14.002097607,383.011,116.4516,48.3364,-0.4583182,0.6308673,0.5489278,7.473277,-43.97346,-29.65159,1006.893
14.034655571,-25.46975,71.95986,-41.81032,-0.2478188,0.1395515,1.244059,6.164338,-50.13537,-13.35225,1006.893
14.069718838,-284.8695,-11.61086,43.44044,0.1342879,0.22739,0.9806231,5.062095,-49.02937,-9.46932,1006.895
14.102276802,-348.1197,-93.45663,86.52482,-0.1184001,1.102968,1.796147,5.062095,-49.02937,-9.46932,1006.895
14.134835243,-235.4014,7.601487,16.39031,0.7660986,1.146151,2.631711,4.282841,-48.36239,-19.03085,1006.902
14.169898033,64.36034,-4.175739,-10.78222,0.250822,0.643922,1.62734,4.203502,-45.07063,-26.51056,1006.904
14.202455997,106.5682,10.87294,-10.41503,-0.2537636,0.248774,0.7251341,4.203502,-45.07063,-26.51056,1006.904
14.235014438,91.98617,-4.948991,5.313218,-0.216018,0.1422675,0.3169528,4.179146,-43.61797,-26.96708,1006.904
14.270077705,7.262859,-12.80048,2.804042,-0.02110149,0.452251,0.04355225,4.589257,-45.78306,-24.33989,1006.904
14.302635193,35.99618,-1.499097,11.49436,0.3199712,0.7109042,0.1452947,4.589257,-45.78306,-24.33989,1006.904
14.335194111,60.11494,3.794707,-16.10657,0.156992,1.049665,0.6349638,3.876622,-46.87462,-23.43753,1006.904
14.367752552,-5.657907,18.66494,-6.620665,-0.05111133,1.359479,1.055595,3.890225,-47.22589,-21.26829,1006.905
14.402814865,-83.12097,-1.67754,9.780773,0.03022703,1.076422,0.9052187,3.890225,-47.22589,-21.26829,1006.905
14.435373306,-104.9632,0.8801408,14.98272,0.1542253,0.7477186,0.6554955,4.247752,-46.8646,-22.16423,1006.909
14.467931747,-91.85787,13.72802,22.20425,0.1281707,0.5611387,0.4641571,4.243196,-47.30676,-25.21996,1006.905
14.502994060,-68.72355,13.31166,16.8187,-0.01795655,0.4785711,0.4606216,4.243196,-47.30676,-25.21996,1006.907
14.535552978,-68.41591,13.01425,7.883592,-0.08052663,0.4535781,0.6459174,3.427315,-46.53936,-27.83575,1006.911
14.568111420,-89.15067,16.58311,2.498045,-0.06696767,0.5314185,0.985939,3.816905,-44.73235,-30.4629,1006.911
14.603173733,-104.6556,10.87294,1.335257,-0.04270945,0.538137,1.179852,3.816905,-44.73235,-30.4629,1006.913
14.635732174,-101.1485,0.4042933,10.69876,-0.03320521,0.3638893,1.050057,3.350375,-42.56032,-31.8154,1006.913
14.668290615,-77.89114,-6.733419,12.59595,-0.01494062,0.177874,0.8615843,3.71724,-39.29807,-34.453,1006.915
14.703352928,-30.82264,-6.792901,2.375647,0.02202879,0.1228356,0.7804685,3.71724,-39.29807,-34.453,1006.915
14.735911369,5.909255,-1.380135,-6.743064,0.06607469,0.2474474,0.8640177,2.520188,-37.50031,-36.69264,1006.915
14.768469334,9.539374,2.605088,-5.702674,0.02354996,0.3716877,0.9945325,2.852571,-35.3148,-36.7095,1006.915
14.801027775,1.048586,0.701698,-2.948701,-0.02547179,0.4063702,1.028945,2.852571,-35.3148,-36.7095,1006.915
14.836091042,-5.227215,-2.98612,-1.908311,-0.004920696,0.4254243,0.9596099,2.859883,-35.67603,-36.26082,1006.915
14.868649006,-15.31772,-4.294701,0.05006938,0.0279545,0.3901979,0.8918513,3.230404,-36.03977,-36.70547,1006.915
14.901207447,-17.71729,-3.699892,0.4172657,0.04840393,0.351524,0.9047761,3.230404,-36.03977,-36.70547,1006.915
14.936270237,-19.56311,-1.73702,1.518855,0.03914911,0.3176956,0.9424557,2.4861,-35.31744,-36.70831,1006.915
14.968828201,-15.74841,-0.6663635,2.192048,0.04390869,0.2904298,0.9666873,2.852571,-35.3148,-36.7095,1006.919
15.001386642,-9.349555,-0.1310351,1.824852,0.03009068,0.2611549,0.9522362,2.852571,-35.3148,-36.7095,1006.919
15.036449909,2.586772,-0.249997,1.457656,0.03656716,0.2481288,0.9496143,3.200367,-34.2233,-37.16459,1006.919
15.069007873,12.55422,1.47495,0.3560663,0.03318041,0.2874647,0.946834,3.622235,-33.8564,-37.16859,1006.919
15.101566314,14.03088,1.177545,0.2336676,0.0122612,0.3280034,0.9498895,3.622235,-33.8564,-37.16859,1006.919
15.136628628,11.50825,0.2258505,1.02926,0.03287851,0.3545464,0.9435074,2.829846,-33.85955,-36.71994,1006.919
15.169187069,6.770639,-0.1905161,1.763653,0.0316985,0.3710809,0.9379602,3.213361,-34.94834,-36.7133,1006.919
15.201745510,0.433311,-0.01207323,1.824852,0.03283234,0.3555819,0.9295053,3.213361,-34.94834,-36.7133,1006.917
15.234303951,-1.535568,-0.1905161,0.3560663,0.03680263,0.3526425,0.9458914,2.845259,-34.95357,-37.15818,1006.917
15.269366741,-3.935138,-0.1310351,0.1724682,0.03351393,0.3442937,0.9554347,2.85094,-35.31738,-37.15557,1006.917
15.301925182,-4.919578,-0.7853255,0.1724682,0.02351028,0.3190227,0.9265396,2.85094,-35.31738,-37.15557,1006.915
15.334483623,-2.950699,-0.3689589,-1.05152,0.03753846,0.3307917,0.9436238,3.213361,-34.94834,-36.7133,1006.915
15.369545936,-4.734995,-0.01207323,-0.5619246,0.02272901,0.3518955,0.9628118,3.207679,-34.58453,-36.71591,1006.919
15.402104378,-7.934423,-1.201692,0.1112688,0.01907614,0.3252428,0.9353396,3.207679,-34.58453,-36.71591,1006.915
15.434662342,-6.088599,-1.142211,-0.1947282,0.03916001,0.3162489,0.9400168,2.841209,-34.58717,-36.71472,1006.915
15.469725132,-4.550413,-0.1905161,0.05006938,0.0383085,0.3065004,0.9437358,2.829846,-33.85955,-36.71994,1006.919
15.502284050,-0.8587655,0.2853315,-0.317127,0.03397863,0.3044447,0.9557931,3.200367,-34.2233,-37.16459,1006.919
15.534841537,0.4948385,0.6422171,-0.4395258,0.03003551,0.3097125,0.9616778,3.200367,-34.2233,-37.16459,1006.919
15.569904804,0.3717836,-0.01207323,0.4172657,0.02760745,0.3044369,0.9393643,3.190635,-33.4931,-36.72374,1006.919
15.602463245,2.463717,-0.1310351,-0.1947282,0.03381414,0.3142574,0.9351578,2.835527,-34.22337,-36.71733,1006.919
15.635021210,1.294695,0.4042933,0.1724682,0.03316147,0.3331026,0.9571978,2.835527,-34.22337,-36.71733,1006.919
15.670084000,-0.3050184,-0.07155417,0.1112688,0.03190164,0.3146432,0.9516003,2.467426,-34.22859,-37.16222,1006.924
15.702642918,0.8640033,-0.249997,-0.3783264,0.03470054,0.3239421,0.9454556,2.839578,-34.58976,-37.16079,1006.922
15.735200405,-1.843205,-0.07155417,0.2948669,0.03904192,0.3283549,0.9493856,2.839578,-34.58976,-37.16079,1006.918
15.767758846,-2.027787,0.2853315,-0.1335288,0.02167949,0.3130763,0.9462691,3.629547,-34.21763,-36.71991,1006.918
15.802822113,-0.9818203,-0.4284398,0.1112688,0.03382679,0.3180392,0.9584175,2.478788,-34.95621,-37.15699,1006.916
15.835380077,-0.6741831,-0.1905161,0.6620633,0.03035218,0.3228714,0.9546276,2.478788,-34.95621,-37.15699,1006.919
15.867938518,0.06414631,0.5827361,0.2336676,0.04717872,0.3387086,0.9403517,3.201998,-34.22072,-36.71852,1006.919
15.903000832,-1.72015,1.415469,1.02926,0.02586515,0.336798,0.9785299,3.207679,-34.58453,-36.71591,1006.919
15.935559273,-1.47404,2.248202,2.865242,0.03581005,0.3141949,0.9544899,3.207679,-34.58453,-36.71591,1006.921
15.968117714,5.601618,2.783531,4.02803,0.04328145,0.2973382,0.9421412,2.835527,-34.22337,-36.71733,1006.921
16.003180504,12.55422,3.318859,4.211628,0.007055098,0.3048297,0.9012034,3.206048,-34.58711,-37.16198,1006.919
16.035738945,13.78477,4.330035,2.926441,0.01391044,0.3480742,0.9231251,3.206048,-34.58711,-37.16198,1006.919
16.068297386,12.67727,5.698097,2.06965,0.05440698,0.3931068,0.9687272,3.200367,-34.2233,-37.16459,1006.923
16.103359699,2.525244,3.37834,5.680414,0.008841828,0.3702526,0.9476372,3.207679,-34.58453,-36.71591,1006.921
16.135918140,-5.965544,0.3448124,4.211628,0.01558482,0.3272519,0.9112048,3.207679,-34.58453,-36.71591,1006.921
16.168476581,-7.565258,0.5827361,1.824852,0.04154223,0.3154253,0.9143829,2.841209,-34.58717,-36.71472,1006.921
16.201035023,-5.288742,1.950798,1.274057,0.03712498,0.3292244,0.966319,2.845259,-34.95357,-37.15818,1006.919
16.236097812,-3.073754,1.712874,1.702453,0.01368979,0.3314107,0.9528404,2.845259,-34.95357,-37.15818,1006.919
16.268656254,-2.273897,0.04740771,1.212858,0.003524391,0.3254596,0.9498591,3.194686,-33.85949,-37.16721,1006.918
16.301214695,0.002618853,1.296507,1.090459,0.06714425,0.3384919,0.9383956,2.829846,-33.85955,-36.71994,1006.918
16.336277008,0.1872012,2.06976,3.783233,0.004950018,0.3236405,0.9266279,2.829846,-33.85955,-36.71994,1006.916
16.368835449,0.06414631,2.486126,1.763653,0.01624056,0.3198158,0.9449271,2.828215,-33.86214,-37.16602,1006.914
16.401393890,0.4948385,1.831836,2.436846,0.03960697,0.3220356,0.9512222,2.463376,-33.8622,-36.71876,1006.912
16.436456680,-0.1204361,2.010279,3.04884,0.01682923,0.3144046,0.9607953,2.463376,-33.8622,-36.71876,1006.911
16.469015121,1.786915,1.772355,2.865242,0.008168565,0.3045875,0.9572703,2.80549,-32.40689,-37.17646,1006.911
16.501573563,6.216892,1.058584,3.293638,0.01301679,0.3037385,0.9442015,2.082513,-33.14202,-37.55121,1006.909
16.536635876,12.062,0.2853315,2.130849,0.03468895,0.3230121,0.9362573,2.082513,-33.14202,-37.55121,1006.907
16.569194317,11.81589,2.367164,2.00845,0.02338294,0.3316212,0.9344659,3.194686,-33.85949,-37.16721,1006.907
16.601752281,8.247297,0.4042933,0.1112688,0.01821319,0.3554112,0.9251664,3.196317,-33.85691,-36.72113,1006.907
16.634310722,5.663145,1.47495,1.090459,0.01710671,0.3689578,0.9355251,3.196317,-33.85691,-36.72113,1006.907
16.669373989,3.817321,0.4042933,2.681643,0.01007106,0.3474452,0.943421,2.822534,-33.49833,-37.16862,1006.906
16.701931477,5.54009,-0.6068826,1.396456,0.0192909,0.3481001,0.9327878,3.196317,-33.85691,-36.72113,1006.906
16.734489918,7.016749,-0.1905161,1.886051,0.0002649741,0.352197,0.9391526,3.196317,-33.85691,-36.72113,1006.904
16.769553184,6.955222,-0.6663635,0.2948669,0.023555,0.3583613,0.9329402,2.822534,-33.49833,-37.16862,1006.902
16.802111149,5.847727,-1.201692,0.2336676,0.003952511,0.3664206,0.9214811,2.469057,-34.22601,-36.71614,1006.906
16.834669590,4.678706,-1.855982,-0.8679216,0.01753387,0.369549,0.9137816,2.469057,-34.22601,-36.71614,1006.906
16.869732857,3.386629,-0.8448064,-1.05152,0.02460548,0.3938495,0.933964,2.841209,-34.58717,-36.71472,1006.904
16.902290344,-0.4896008,-1.558578,-0.317127,0.01397758,0.3883231,0.9430742,2.84689,-34.95098,-36.71211,1006.904
16.934848785,-2.335425,-1.796502,-0.6843234,0.007279204,0.3770781,0.9385586,2.84689,-34.95098,-36.71211,1006.903
16.969912052,-1.843205,-2.510273,-0.2559276,0.01143086,0.3552586,0.9391885,2.480419,-34.95363,-36.71092,1006.903
17.002470016,4.248013,-4.830029,-1.357517,0.0182048,0.3630363,0.9581523,2.841209,-34.58717,-36.71472,1006.903
17.035028457,8.985627,-4.711068,-2.459106,0.0327164,0.3733913,0.9669971,2.841209,-34.58717,-36.71472,1006.899
17.070091724,12.92338,-5.960167,-1.479915,0.04817269,0.3819099,0.9550278,3.201998,-34.22072,-36.71852,1006.899
17.102649212,16.79962,-7.209267,0.2336676,0.06095829,0.366627,0.9325469,2.48205,-34.95105,-36.26485,1006.899
17.135207653,18.52238,-7.209267,-0.9903204,0.05839379,0.3715884,0.9031391,2.48205,-34.95105,-36.26485,1006.898
17.167766094,18.46086,-6.079129,-2.765103,0.07378814,0.384025,0.8844622,2.859883,-35.67603,-36.26082,1006.898
17.202828884,18.09169,-5.067953,-3.621894,0.08386144,0.4390768,0.8843257,2.134254,-36.04255,-35.80976,1006.898
17.235387325,14.03088,-4.711068,-1.785913,0.09655005,0.4396663,0.897857,2.134254,-36.04255,-35.80976,1006.896
17.267945766,8.739517,-6.019648,1.518855,0.02568981,0.4173856,0.8917849,2.512088,-36.76752,-35.80573,1006.9
17.303008079,9.539374,-4.88951,-1.724713,-0.001515913,0.4131098,0.8989966,2.52345,-37.49514,-35.8005,1006.9
17.335566521,10.95451,-7.209267,-3.744293,0.02292397,0.4479222,0.901921,2.52345,-37.49514,-35.8005,1006.9
17.368124962,5.293981,-5.841205,-2.642704,0.01358462,0.4560466,0.9054376,2.534812,-38.22276,-35.79528,1006.9
17.403187752,2.279135,-6.733419,-3.132299,0.02538514,0.4569423,0.955711,2.546175,-38.95038,-35.79005,1006.898
17.435746193,-1.72015,-13.99009,-1.112719,0.005095737,0.4349767,0.9186589,2.181335,-38.95045,-35.3428,1006.898
17.468304634,-8.857336,-14.82283,-5.335478,0.09954984,0.4680429,0.8654174,2.181335,-38.95045,-35.3428,1006.898
17.503366947,-10.02636,-8.339404,-3.254698,0.09984186,0.4413509,0.8577592,2.181335,-38.95045,-35.3428,1006.902
17.535925388,-7.749841,-10.5402,-5.825073,0.08210777,0.4571903,0.8507674,2.551856,-39.31419,-35.78745,1006.902
17.568483829,-13.41037,-9.647985,-6.13107,0.07872707,0.4874786,0.8072454,2.551856,-39.31419,-35.78745,1006.902
17.601042271,-14.88703,-0.8448064,0.2948669,0.1119763,0.4392032,0.8306456,2.185386,-39.31684,-35.78625,1006.901
17.636105060,-0.1819635,3.140416,-2.703903,0.05671782,0.4189924,0.8415083,1.830278,-40.04711,-35.77985,1006.901
17.668663502,6.770639,2.605088,-1.602314,0.03146414,0.4532033,0.8343205,1.830278,-40.04711,-35.77985,1006.901
17.701221943,2.771354,7.660968,-1.235118,0.03616504,0.4369837,0.88724,2.916696,-39.31413,-36.2347,1006.901
17.736284256,1.602333,7.839411,-3.438296,0.07149419,0.4544913,0.8792556,2.555907,-39.68059,-36.2309,1006.899
17.768842697,3.448156,7.423044,-1.479915,0.0607588,0.4577222,0.8860825,2.555907,-39.68059,-36.2309,1006.901
17.801401138,3.632739,8.731626,-1.173918,0.04102053,0.4437312,0.9134406,2.551856,-39.31419,-35.78745,1006.901
17.836463928,4.863288,7.244601,-0.6843234,0.0610145,0.4444137,0.9274496,2.551856,-39.31419,-35.78745,1006.901
17.869022369,7.755079,4.567959,2.681643,0.08065902,0.4377046,0.9626149,2.551856,-39.31419,-35.78745,1006.901
17.901580811,8.062715,1.950798,4.02803,0.07145415,0.4346443,0.9678943,2.546175,-38.95038,-35.79005,1006.901
17.936643124,5.601618,-1.08273,3.232438,0.06643854,0.4386527,0.9273565,2.546175,-38.95038,-35.79005,1006.901
17.969201565,1.294695,-1.558578,2.620444,0.06732768,0.4411982,0.9046758,2.546175,-38.95038,-35.79005,1006.901
18.001760006,-2.581534,-2.093906,0.8456615,0.05771492,0.428475,0.8962736,2.914277,-38.94515,-35.34517,1006.905
18.034317970,-4.304303,-2.33183,-0.9903204,0.04807312,0.4547494,0.862364,2.547806,-38.9478,-35.34399,1006.905
18.069381237,-6.949984,-1.974944,-1.785913,0.04528404,0.4848528,0.8608924,2.547806,-38.9478,-35.34399,1006.905
18.101939678,-9.841775,-1.023249,-0.929121,0.05599179,0.4892822,0.879318,2.182966,-38.94786,-34.89672,1006.905
18.134497165,-13.16426,-0.9637682,1.151659,0.06261486,0.4636226,0.8765032,2.169973,-38.22282,-35.34802,1006.904
18.169560432,-15.87146,-0.01207323,2.00845,0.06337792,0.4426733,0.8897175,2.169973,-38.22282,-35.34802,1006.904
18.202118873,-13.59495,2.426645,2.926441,0.0831076,0.4248695,0.9068284,2.901283,-38.22012,-35.79647,1006.904
18.234676838,-9.349555,0.5232552,5.925211,0.0861676,0.3733443,0.917157,2.52345,-37.49514,-35.8005,1006.904
18.269740105,-4.61194,-0.3094779,3.966831,0.08058684,0.3504348,0.915846,2.52345,-37.49514,-35.8005,1006.902
18.302298546,-1.72015,-0.7258445,2.681643,0.07297411,0.3352635,0.9170721,2.148036,-37.13914,-36.69407,1006.902
18.334856033,-0.8587655,-0.9637682,0.7844621,0.05606035,0.3233903,0.9144904,2.142355,-36.77533,-36.69668,1006.9
18.369919300,4.124959,-1.618059,-3.0099,0.07407547,0.3635246,0.904451,2.142355,-36.77533,-36.69668,1006.9
18.402477741,7.632024,-0.07155417,-4.05029,0.0930986,0.4026579,0.9035796,2.139936,-36.40636,-35.80714,1006.9
18.435035705,7.324387,0.1663696,-2.459106,0.07379288,0.429144,0.9020688,2.884239,-37.12868,-35.8043,1006.9
18.470098972,4.186486,-1.320654,-2.520305,0.04590176,0.4404439,0.9022681,2.884239,-37.12868,-35.8043,1006.904
18.502657413,2.033025,-0.4284398,-1.908311,0.03966245,0.4772375,0.9158866,2.889921,-37.4925,-35.80169,1006.904
18.535215855,-0.8587655,0.9396218,0.9680604,0.0548331,0.4692112,0.9075322,2.151298,-37.13398,-35.80193,1006.904
18.567773342,-5.473325,0.4637742,1.824852,0.04984304,0.4404112,0.9206321,2.151298,-37.13398,-35.80193,1006.904
18.602836609,-7.934423,0.2853315,2.865242,0.0535566,0.4118375,0.9090749,2.149667,-37.13656,-36.24799,1006.904
18.635395050,-6.888456,0.5232552,1.702453,0.04964203,0.3714499,0.9084625,2.517769,-37.13133,-35.80311,1006.904
18.667953014,-0.7357106,0.1068886,-0.623124,0.05794542,0.3700848,0.9118173,2.517769,-37.13133,-35.80311,1006.902
18.703016281,5.478563,-1.023249,-2.826302,0.06647755,0.3925025,0.9227854,2.504775,-36.40629,-36.25441,1006.902
18.735574722,6.893694,-0.7258445,-3.438296,0.07903573,0.4470189,0.9405232,2.151298,-37.13398,-35.80193,1006.902
18.768132210,1.602333,-1.618059,-1.173918,0.07862679,0.478205,0.9216643,2.151298,-37.13398,-35.80193,1006.907
18.803195476,-10.45705,-3.58093,0.4172657,0.08403081,0.4278284,0.9001054,2.510457,-36.7701,-36.25179,1006.907
18.835753918,-20.79366,-3.461968,3.232438,0.09993891,0.3893874,0.8492323,2.517769,-37.13133,-35.80311,1006.905
18.868311882,-23.00865,0.6422171,2.742843,0.06291664,0.3466574,0.8413655,2.517769,-37.13133,-35.80311,1006.905
18.903375149,-16.05605,-4.948991,-1.296317,0.04298845,0.3981166,0.9035587,2.148036,-37.13914,-36.69407,1006.905
18.935933590,-29.16139,-10.06435,-3.621894,0.0879943,0.4329869,0.9523849,2.858252,-35.67861,-36.70689,1006.903
18.968491077,-54.63377,-8.398886,0.9068609,0.1034242,0.4477366,0.9593623,2.858252,-35.67861,-36.70689,1006.901
19.001049519,-74.07644,-7.447191,6.965601,0.08967864,0.3869945,1.024188,2.495832,-36.04765,-37.14916,1006.9
19.036112785,-84.41305,-4.354182,4.456426,0.1138968,0.3856452,0.9632387,2.462766,-34.23597,-38.43671,1006.9
19.068670749,-97.88757,2.486126,8.005991,0.0593208,0.3355957,0.9117732,2.462766,-34.23597,-38.43671,1006.9
19.101229191,-112.0389,0.761179,13.33034,0.07877317,0.2242937,0.9680616,1.681113,-31.33595,-39.34736,1006.902
19.136292457,-90.38122,-14.22802,0.6008639,-0.01946315,-0.04085151,0.9587941,1.625088,-28.0694,-40.70908,1006.902
19.168850899,-68.8466,-14.82283,3.171239,-0.6603752,-0.2309745,0.8521027,1.625088,-28.0694,-40.70908,1006.902
19.201408386,-11.07232,-10.30228,-0.8067222,0.173525,-0.288045,0.8301253,1.551232,-23.33986,-40.74303,1006.9
19.236471653,14.09241,6.233425,-0.317127,0.1726833,-0.00374028,1.043282,1.862521,-19.69652,-40.32425,1006.9
19.269030094,1.41775,5.162768,-5.151879,0.01922832,0.1720398,1.065447,1.474957,-18.24134,-39.88744,1006.9
19.301588058,-12.30287,1.891317,-4.601085,0.01155769,0.1418101,1.170853,1.474957,-18.24134,-39.88744,1006.9
19.336651325,-17.90187,-9.707466,-3.0711,0.1497853,0.02208563,0.9634579,1.851159,-18.9689,-40.32948,1006.9
19.369209766,-13.59495,9.742801,-4.11149,0.4548494,0.02699897,0.865113,2.209529,-18.23347,-39.44374,1006.904
19.401767254,0.06414631,12.35996,2.436846,0.2085083,-0.09409559,0.9234421,2.209529,-18.23347,-39.44374,1006.904
19.434325695,-7.811368,32.10764,-0.3783264,0.08052548,-0.00946763,0.970294,1.830065,-17.51108,-39.89384,1006.904
19.469388962,10.58534,12.65737,-1.296317,0.06714162,0.01885375,1.009409,1.476588,-18.23876,-39.44136,1006.903
19.501946926,-16.91743,14.79868,-10.53743,0.098678,0.06079928,0.9607143,1.476588,-18.23876,-39.44136,1006.901
19.534505367,-54.51071,18.72442,-15.00498,0.1776349,0.07501364,1.05318,2.567899,-17.49803,-38.55801,1006.899
19.569568634,-23.00865,11.11086,-9.741835,0.107034,-0.08264796,1.106431,2.930319,-17.12899,-38.11574,1006.898
19.602127075,2.894409,4.924845,-11.76141,-0.1069843,-0.1206502,0.8358502,2.930319,-17.12899,-38.11574,1006.898
19.634684563,43.25642,5.103288,-13.84219,0.1625788,-0.1219361,0.928862,2.553884,-16.4018,-37.73742,1006.896
19.669747829,37.28825,16.04778,-10.53743,-0.0896583,0.04957797,0.9645919,2.538471,-15.30779,-37.29918,1006.896
19.702306271,12.98491,9.088511,-7.293859,0.04812106,-0.0772467,1.138957,2.538471,-15.30779,-37.29918,1006.894
19.734864235,8.308825,5.103288,-16.47377,0.6797686,0.1088625,0.8221575,2.57419,-17.48807,-36.83744,1006.894
19.769927502,8.43188,6.828235,-5.947472,-0.03903878,-0.03373705,1.153722,2.592865,-18.57692,-36.38354,1006.894
19.802485943,-4.058193,-2.688715,0.6620633,-0.06474212,0.001770674,0.9681888,2.592865,-18.57692,-36.38354,1006.894
19.835043430,4.309541,6.590311,-4.784683,-0.03030256,0.01768489,0.9872501,2.965017,-18.93808,-36.38212,1006.897
19.867601871,-44.42021,32.16711,7.210399,-0.1240034,0.08653785,0.4373414,3.764718,-19.29616,-36.38208,1006.897
19.902665138,-4.734995,16.82103,4.640024,-0.09414269,-0.03859041,1.101497,3.764718,-19.29616,-36.38208,1006.897
19.935223579,2.525244,16.04778,2.06965,-0.05678696,-0.05068919,0.984299,2.970698,-19.3019,-36.37951,1006.897
19.967781544,9.600902,23.00705,-2.03071,-0.08435374,-0.07089648,0.9670991,4.135238,-19.65991,-36.82673,1006.895
20.002844810,29.41274,34.96272,3.416036,-0.1137388,-0.1174689,1.07711,4.135238,-19.65991,-36.82673,1006.895
20.035403251,63.80659,27.5276,9.229979,-0.06096692,0.05477874,0.9718942,3.767137,-19.66514,-37.27161,1006.895
20.067960739,47.62487,34.7248,9.780773,0.01325686,0.1323017,1.023276,4.883593,-20.74863,-37.26735,1006.893
20.103024006,55.00816,37.10403,13.63634,-0.08823173,0.1845669,0.9956526,4.883593,-20.74863,-37.26735,1006.892
20.135582447,49.28611,18.72442,26.48821,-0.2865508,0.338535,1.089551,4.562572,-23.66176,-37.24527,1006.892
20.168140411,12.062,-15.12023,40.38047,-0.3503383,0.380869,0.8969079,4.962341,-25.47042,-35.89519,1006.89
20.203203678,-45.65076,-26.30265,46.07201,-0.1854807,0.2646802,0.8422881,4.962341,-25.47042,-35.89519,1006.888
20.235762119,-63.37066,-0.4284398,48.21399,0.04348524,-0.009890875,0.9572722,4.981805,-26.93083,-36.77689,1006.892
20.268320560,-14.8255,35.9739,26.67181,0.1215227,-0.1596528,1.088324,4.59424,-25.47565,-36.34007,1006.891
20.303382873,24.92124,62.08603,14.55433,-0.06442004,-0.07765817,1.120691,4.59424,-25.47565,-36.34007,1006.891
20.335941315,64.79103,68.62893,9.658375,-0.3008501,-0.0318021,1.047178,4.560153,-23.29278,-36.35574,1006.889
20.368499756,121.8885,65.23852,-5.763874,-0.4364381,-0.04167569,1.119182,6.056072,-25.09867,-35.90137,1006.889
20.401057720,166.3729,44.59863,-17.20816,-0.5855684,0.1114378,1.009035,6.056072,-25.09867,-35.90137,1006.887
20.436120987,205.2582,11.28931,-16.53497,-0.5408655,0.3686393,0.7963628,6.814157,-26.91759,-36.78283,1006.89
20.468679428,196.7674,-18.80805,-15.37218,-0.5332128,0.4772668,0.6583168,7.281081,-32.72079,-34.12953,1006.89
20.501237869,149.5759,-9.35058,-18.55455,-0.3845876,0.5288358,0.539566,7.281081,-32.72079,-34.12953,1006.89
20.536300182,94.81643,-2.807678,-10.65983,-0.3009926,0.6047793,0.4318841,7.38908,-38.88749,-30.96264,1006.888
20.568858623,53.46998,-2.33183,-12.61821,-0.2405876,0.7228327,0.4022074,7.468438,-43.23551,-27.87253,1006.886
20.601417065,16.9842,-3.343006,-16.16777,-0.2444785,0.7090363,0.538313,7.468438,-43.23551,-27.87253,1006.884
20.636479854,33.3505,-12.20567,-27.55086,-0.4564567,0.6468566,0.9895263,7.510448,-45.40583,-25.69023,1006.884
20.669038296,44.91766,-12.68151,-28.28525,-0.3200785,0.8204667,0.8247949,8.246651,-45.39537,-24.80046,1006.884
20.701596737,36.4884,-11.90826,-26.51047,-0.2819219,0.7759905,0.8816014,8.246651,-45.39537,-24.80046,1006.884
20.736659050,28.05914,-5.781724,-38.50555,-0.4304578,0.6338921,0.6045355,8.261202,-45.80727,-22.63078,1006.886
20.769217491,51.74721,12.83581,-25.53128,-0.3209158,0.6609856,0.5188019,8.622675,-45.37759,-22.18894,1006.884
20.801775932,89.5866,15.09609,-30.97803,-0.2610589,0.5986891,0.6019014,8.622675,-45.37759,-22.18894,1006.884
20.834334373,87.1255,25.08888,-22.41011,-0.4000476,0.8214738,0.589483,8.637458,-45.78912,-19.95554,1006.889
20.869397163,60.60716,17.11844,-17.02456,-0.2691059,0.8769549,0.627423,9.378218,-45.33651,-16.01004,1006.887
20.901955605,16.55351,18.07013,5.558015,-0.3200936,0.8375053,0.5002256,9.378218,-45.33651,-16.01004,1006.887
20.934514046,-4.673468,18.90286,19.26668,-0.3702669,0.6891356,0.3868338,10.10772,-44.59104,-13.851,1006.887
20.969576359,-15.01008,27.40864,21.83706,-0.4278188,0.5982999,0.3183141,9.750191,-44.95234,-12.95506,1006.883
21.002134800,-5.904017,30.56113,15.04392,-0.3857548,0.5837608,0.3228855,9.750191,-44.95234,-12.95506,1006.883
21.034693241,-2.520007,37.34196,9.841972,-0.3963543,0.6076149,0.2841061,9.392663,-45.31363,-12.05911,1006.882
21.069756031,3.571211,47.15631,17.0635,-0.3963276,0.6274862,0.1901508,9.759134,-45.31098,-12.0603,1006.88
21.102314472,-24.05462,83.91553,10.75996,-0.5595877,0.7353032,0.06095814,9.759134,-45.31098,-12.0603,1006.878
21.134872913,-22.70101,65.06007,4.08923,-0.5834758,0.8267252,0.08799493,9.024939,-44.94545,-10.84977,1006.881
21.169935703,30.95093,61.90758,16.32911,-0.5347901,0.911504,0.2864591,9.380046,-44.21518,-10.85618,1006.881
21.202493667,51.25499,49.17867,21.28626,-0.6157514,1.221402,0.5199025,9.029043,-44.56614,-8.175949,1006.881
21.235052109,24.67513,38.35313,37.13691,-0.6116004,1.334491,0.5651277,9.029043,-44.56614,-8.175949,1006.882
21.267610550,-73.52269,69.64011,45.82722,-0.6857396,1.145631,0.4163381,9.388023,-43.45694,-5.572265,1006.882
21.302673340,-113.3925,56.43534,65.41103,-0.7768159,0.9007647,0.2444751,9.01666,-43.46733,-6.909292,1006.884
21.335231781,-74.93782,74.63651,66.75741,-0.7234574,0.912722,0.01403525,9.01666,-43.46733,-6.909292,1006.884
21.367790222,-41.28231,102.8305,56.41471,-0.7649897,0.7918028,-0.01967232,8.28879,-44.21021,-8.622255,1006.884
21.402853489,12.80033,85.581,66.63501,-0.8321231,0.6777788,0.06614409,7.566368,-45.31726,-10.39633,1006.882
21.435410976,19.81446,109.3734,58.86269,-0.7212592,0.8144249,0.04685323,7.566368,-45.31726,-10.39633,1006.882
21.467969417,-44.97395,133.2847,24.65223,-0.6859143,0.5217175,-0.03740371,6.844948,-45.73926,-9.052692,1006.881
21.503032684,-118.5608,148.036,11.00476,-0.4406572,0.1495056,-0.09890737,5.746325,-46.11875,-10.38473,1006.881
21.535591125,-97.5184,146.43,15.10512,-0.2558599,-0.1392224,0.01010288,5.746325,-46.11875,-10.38473,1006.877
21.568149090,-13.41037,176.8842,-1.296317,-0.1429251,-0.2492298,0.2620884,5.397488,-48.70313,-16.4191,1006.875
21.603211880,-22.4549,51.61738,22.87745,-1.232749,0.863791,2.032362,4.688238,-51.28056,-20.79544,1006.872
21.635770798,-201.2537,-29.87151,36.15771,0.0270612,0.860585,3.771737,4.688238,-51.28056,-20.79544,1006.872
21.668329239,-165.9985,-39.21001,16.57391,-0.09423528,0.3411172,2.877416,5.777254,-51.66189,-25.19339,1006.872
21.703391552,38.27269,18.66494,-31.59002,0.08827198,0.4381871,1.091193,4.258966,-49.89143,-31.76532,1006.874
21.735949993,77.46569,81.23889,-46.33907,-0.3996154,0.4307063,0.6990479,4.258966,-49.89143,-31.76532,1006.88
21.768508434,99.92321,68.56945,-24.55209,-0.7604774,0.6064669,0.347279,4.615705,-49.15858,-31.32566,1006.881
21.801066399,87.18703,26.04058,-20.32933,-0.7243973,0.8181113,-0.02414389,5.386606,-50.95721,-28.70227,1006.885
21.836129665,-6.396236,-10.59968,-19.59494,-0.7243289,0.9562232,0.06400421,5.386606,-50.95721,-28.70227,1006.883
21.868688107,-52.72641,-26.06473,-16.53497,-0.598941,0.8449127,0.4237508,5.772361,-51.66964,-26.5316,1006.883
21.901246548,-30.63805,-17.43999,-18.67695,-0.4922712,0.6401677,0.6501282,5.784745,-52.76846,-27.79826,1006.883
21.936308861,-4.734995,-2.33183,-14.63779,-0.5804454,0.5877203,0.3898398,5.784745,-52.76846,-27.79826,1006.885
21.968867302,-18.39409,-14.10906,-2.703903,-0.56502,0.4566318,0.2979169,5.764439,-51.68219,-28.69824,1006.891
22.001425743,-2.827644,-16.07193,3.04884,-0.605432,0.5416514,0.5085552,5.761177,-51.68735,-29.59038,1006.889
22.036488056,20.7989,-13.99009,3.171239,-0.6641549,0.6834601,0.4711384,5.761177,-51.68735,-29.59038,1006.889
22.069046974,6.709112,-24.22082,6.292408,-0.6479535,0.8159016,0.3576163,6.133329,-52.04852,-29.58896,1006.887
22.101605415,-13.28731,-33.55932,3.04884,-0.6454928,0.8349105,0.4589297,6.49738,-51.6769,-28.70061,1006.886
22.136667728,-23.5624,-39.09105,0.2948669,-0.637501,0.6773846,0.3878792,6.49738,-51.6769,-28.70061,1006.884
22.169226169,-27.13099,-54.37765,3.844432,-0.5979797,0.6468956,0.4719668,6.125229,-51.31573,-28.70204,1006.89
22.201784611,-19.07089,-61.21796,7.026801,-0.5574149,0.6975109,0.5722755,5.755496,-51.32354,-29.59299,1006.89
22.234343052,3.325102,-79.30016,17.73669,-0.6617679,0.883114,0.6056607,5.755496,-51.32354,-29.59299,1006.888
22.269405365,-40.60551,-65.32214,-1.969511,-0.7233176,0.7111955,0.507872,5.384365,-51.33357,-30.86629,1006.886
22.301964283,-43.80493,-81.79836,11.37196,-0.7429155,0.6902897,0.5597766,4.284953,-51.34151,-30.86273,1006.886
22.334522724,-28.60765,-58.54132,6.108809,-0.8997358,0.6488691,0.561713,4.284953,-51.34151,-30.86273,1006.885
22.369585514,-4.36583,-32.96451,-9.741835,-0.6057306,0.5645507,0.4953702,3.91359,-51.35191,-32.19976,1006.885
22.402143478,54.02372,-11.72982,-13.0466,-0.3086169,0.6503965,0.3189939,3.470628,-50.26098,-31.76013,1006.889
22.434701919,105.7683,20.74677,1.274057,-0.2332517,0.9522021,0.1113232,3.470628,-50.26098,-31.76013,1006.889
22.469765186,88.60216,49.95192,9.413577,-0.3351893,1.078952,0.05535009,3.47794,-50.62221,-31.31145,1006.887
22.502323627,25.41346,59.17146,26.9166,-0.4265431,0.9904821,0.1169275,3.139697,-51.69857,-28.24365,1006.885
22.534881592,-49.15782,86.17581,32.05735,-0.5990809,0.8446371,0.1651402,3.139697,-51.69857,-28.24365,1006.884
22.569944382,-95.18036,83.79657,40.38047,-0.8810306,0.754582,0.3486883,3.149429,-52.42878,-28.6845,1006.884
22.602502823,-157.9384,79.15706,29.11978,-0.7799847,0.6642361,0.4124683,2.770143,-52.45172,-32.18816,1006.882
22.635061264,-103.7327,70.35388,60.02548,-0.5668313,0.2534928,0.1831594,2.770143,-52.45172,-32.18816,1006.882
22.667619228,32.243,86.65166,58.92389,-0.5854554,0.3484269,-0.01114185,2.709637,-49.93789,-37.87792,1006.88
22.702682495,56.11566,134.5933,47.602,-0.6951447,0.5590754,-0.04939266,3.387343,-47.03761,-40.57762,1006.883
22.735240936,27.68998,153.6867,43.19564,-0.7577609,0.7113482,0.1642266,3.387343,-47.03761,-40.57762,1006.883
22.767799377,-8.857336,171.4715,43.37924,-0.8092533,0.731376,0.3139453,4.187044,-47.39568,-40.57758,1006.883
22.802861690,-41.83606,195.6802,47.4796,-1.263245,0.4844727,0.2965987,5.652138,-47.01353,-39.24673,1006.879
22.835420132,-40.79009,195.0854,60.27028,-1.188346,0.4794883,0.4308291,5.652138,-47.01353,-39.24673,1006.879
22.867979050,-40.42092,178.3713,40.13567,-1.067563,0.4705598,0.3894893,6.753181,-47.00301,-38.80423,1006.876
22.903041363,-45.89687,161.4192,28.01819,-1.341547,0.4129942,0.3995098,7.821608,-45.11797,-39.26736,1006.876
22.935599804,-40.60551,145.5973,14.24833,-1.284504,0.3907784,0.3188752,7.821608,-45.11797,-39.26736,1006.874
22.968158245,-31.74555,121.2101,-2.03071,-1.065019,0.5002999,0.376406,8.172667,-44.0213,-38.83031,1006.876
23.003220558,-42.63591,108.1838,-10.59863,-1.035215,0.5384978,0.3982286,9.252615,-42.55295,-37.95218,1006.877
23.035778999,-87.42789,112.05,-12.43461,-0.9629511,0.4905671,0.2451639,10.70448,-41.44614,-37.13634,1006.876
23.068337440,-95.79563,113.7155,-13.78099,-0.7990129,0.3984672,0.1280735,10.70448,-41.44614,-37.13634,1006.876
23.100896358,-53.77238,115.5594,-4.539886,-0.6878452,0.3982243,0.1792004,12.1509,-39.97514,-36.2594,1006.876
23.135959148,-34.45276,122.1023,1.580054,-0.6511064,0.3760041,0.3600923,13.20976,-37.04897,-34.94564,1006.876
23.168517113,-44.05104,122.7566,3.660834,-0.7361842,0.3509168,0.5019045,13.20976,-37.04897,-34.94564,1006.877
23.201075554,-60.04818,105.3287,-4.784683,-0.7930756,0.2797463,0.5985157,14.3082,-35.92413,-30.56005,1006.877
23.236138820,-71.61534,85.04567,-21.67572,-0.7697713,0.1215446,0.6125144,15.03123,-34.4433,-27.06802,1006.877
23.268697262,-82.87486,62.08603,-40.28033,-0.9527057,0.06185304,0.6030796,15.03123,-34.4433,-27.06802,1006.88
23.301255226,-101.9484,40.25652,-67.51407,-0.7502458,-0.06117719,0.5575033,15.3626,-31.8866,-25.81299,1006.882
23.336318016,-80.59835,39.89964,-79.38675,-0.7412333,0.1759026,0.3919296,15.32041,-28.97095,-24.94174,1006.883
23.368876457,-44.72784,-153.3539,-25.65368,-1.111202,0.9582703,3.397775,15.32041,-28.97095,-24.94174,1006.876
23.401434898,-226.5415,17.71325,-116.29,-0.1530164,0.8243628,0.4495926,15.9917,-24.5896,-23.19116,1006.882
23.436497688,-217.5585,39.36431,-12.7406,-0.3419389,0.6075982,0.2303985,14.91193,-26.80328,-27.12285,1006.882
23.469056129,-41.46689,54.88884,-37.15916,-0.6675943,0.24403,0.1584601,14.91193,-26.80328,-27.12285,1006.886
23.501614571,50.27055,49.89244,-47.62426,-1.007057,0.354705,0.283254,14.42694,-19.53746,-28.5121,1006.886
23.536676884,29.41274,29.37151,-44.19709,-0.8730339,0.4748703,-0.1041605,15.48882,-16.60649,-26.36992,1006.886
23.569235325,6.401474,30.20424,-44.25829,-0.9587214,0.6351565,-0.3264026,15.48882,-16.60649,-26.36992,1006.886
23.601793766,-43.62035,1.772355,-53.4382,-0.9592521,0.3442349,0.2646798,16.19825,-14.77439,-25.04714,1006.886
23.634352207,-55.00293,2.843012,-58.51775,-0.8168309,0.494783,0.2711895,16.19015,-14.0416,-24.16021,1006.884
23.669414997,-65.33954,6.411868,-61.57772,-0.7824376,0.4513854,0.1878368,16.19015,-14.0416,-24.16021,1006.883
23.701973438,-59.06374,15.86934,-62.49572,-0.9141004,0.3203939,0.2927917,16.51685,-11.49228,-24.17968,1006.883
23.734531879,-15.44077,25.20784,-66.10648,-0.9941888,0.3231012,0.2165368,16.45504,-7.427145,-23.76277,1006.887
23.769595146,-12.97968,18.30806,-59.49694,-0.8650305,0.1364477,0.1647434,16.45504,-7.427145,-23.76277,1006.887
23.802152634,-55.61821,21.2821,-40.09674,-0.8081168,0.009580371,0.3304847,16.75963,-3.048806,-22.07473,1006.888
23.834711075,-52.54183,40.37548,-30.79443,-0.9846932,0.1275223,0.1811575,16.73285,-1.227169,-21.64171,1006.888
23.869774342,-38.75968,34.36791,-26.38807,-1.068461,0.1278813,0.182694,16.73285,-1.227169,-21.64171,1006.885
23.902332783,-41.58994,34.01102,-25.22528,-0.9711031,0.07219002,0.09764281,16.69696,1.698446,-19.04989,1006.885
23.934890747,-35.62178,29.96632,-18.49335,-0.9578777,0.07507253,0.1426281,16.66371,4.255453,-17.28388,1006.885
23.969954014,-28.60765,32.10764,-13.5362,-0.8095858,0.1092882,0.2039124,16.66371,4.255453,-17.28388,1006.883
24.002512455,-23.07018,39.06691,-9.068641,-0.8340735,0.1652942,0.2154248,16.2721,6.077026,-16.4036,1006.889
24.035070896,-46.38909,49.11918,-4.601085,-0.3741355,-0.08817802,-0.1170991,17.0016,6.822487,-14.24457,1006.887
24.067629337,-34.45276,48.04853,-2.03071,-0.9896708,0.02836439,0.06315573,17.0016,6.822487,-14.24457,1006.889
24.102691650,2.279135,47.45372,3.293638,-0.9625787,0.1316641,0.0825905,16.60756,9.013035,-12.47476,1006.887
24.135250091,-11.44149,50.24932,4.823622,-1.065573,0.1459987,0.05535613,16.97036,9.75548,-10.37826,1006.887
24.167808533,-39.37496,46.91839,13.02434,-1.069834,0.170395,0.02237943,16.97036,9.75548,-10.37826,1006.886
24.202871322,-4.181248,33.83258,7.761193,-1.001897,0.1242079,-0.099235,17.33907,10.13449,-8.215425,1006.886
24.235429764,19.32224,19.61664,0.5396645,-0.9967334,0.001613772,-0.1649161,17.35128,9.781006,-6.428526,1006.886
24.267988205,6.647584,6.352387,7.332798,-0.9966815,-0.001334648,-0.1577104,17.35128,9.781006,-6.428526,1006.886
24.303051472,-70.01563,6.114463,2.06965,-1.032905,0.09693853,0.0362078,17.34155,10.51121,-5.987676,1006.886
24.335608959,-156.2156,2.010279,10.02557,-0.9731731,0.2191299,-0.04996025,17.35617,9.788755,-5.09031,1006.89
24.368167400,-118.6223,-0.01207323,1.274057,-0.8964795,0.1417373,-0.1246883,17.35617,9.788755,-5.09031,1006.886
24.403230667,-37.09844,6.471349,-0.9903204,-0.9468564,0.0778672,-0.1178801,17.34784,10.52118,-4.267113,1006.885
24.435789108,14.83074,3.37834,-8.211849,-1.013715,0.1518822,-0.02049433,17.71189,10.8928,-3.378769,1006.883
24.468347549,16.43045,-0.6068826,-12.61821,-0.919975,0.2447526,-0.08104018,17.71189,10.8928,-3.378769,1006.883
24.500905514,-23.68545,-2.510273,-23.0221,-0.9270626,0.199134,-0.009706162,17.70621,11.25661,-3.38138,1006.881
24.535968780,-66.57009,-3.699892,-21.06372,-1.097603,-0.1082613,0.08631109,17.70053,11.62042,-3.383991,1006.884
24.568527222,-36.66775,9.207473,-17.02456,-0.9368449,-0.05746651,-0.2533664,17.70053,11.62042,-3.383991,1006.885
24.601085663,7.385914,-4.830029,-1.173918,-0.9161767,-0.01526592,0.03583343,17.32027,12.71437,-2.498492,1006.884
24.636147976,7.508969,5.400692,-5.151879,-1.039443,0.201282,0.0503738,17.67538,13.44464,-2.504903,1006.884
24.668706417,-15.56383,5.638616,-7.599855,-0.9245383,0.06837565,0.001831056,17.67538,13.44464,-2.504903,1006.882
24.701264858,-6.949984,7.601487,-5.580275,-1.034175,0.01149178,-0.09367283,17.68106,13.08083,-2.502292,1006.88
24.736327648,5.663145,0.6422171,-3.254698,-0.9768777,0.07811568,-0.04534076,17.66728,14.17743,-1.617981,1006.884
24.768886089,-0.243491,2.307683,-4.05029,-0.9487805,0.05787824,-0.003622843,17.66728,14.17743,-1.617981,1006.883
24.801444530,-2.089315,5.22225,0.4784651,-1.045694,0.0855929,-0.06981248,16.92703,14.53336,-2.064287,1006.883
24.836507320,4.740233,0.9991028,-0.2559276,-0.9726999,0.06195566,-0.006921188,17.67133,13.81103,-2.061442,1006.881
24.869065762,-6.642346,-0.4284398,-3.683094,-0.9922846,0.0604703,-0.05671276,17.67133,13.81103,-2.061442,1006.879
24.901623726,-16.30216,-2.212868,-2.214308,-0.9613823,-0.006070602,-0.08434349,17.6616,14.54123,-1.620592,1006.879
24.936686993,-9.71872,0.04740771,2.314447,-0.3744369,-0.1365601,-0.2720341,17.66323,14.54382,-1.17452,1006.881
24.969245434,0.433311,0.8206599,4.272828,-1.050225,0.1105393,-0.0114223,17.65755,14.90763,-1.177132,1006.879
25.001803875,-9.47261,5.162768,3.599635,-0.9206123,0.1111203,0.01843083,17.65755,14.90763,-1.177132,1006.879
25.034362316,5.724673,3.675745,-3.866692,-1.044032,0.06241577,-0.09820354,16.92461,14.90234,-1.174754,1006.881
25.069424629,-0.920293,-6.376534,-3.377097,-0.9788396,0.02728104,-0.09396873,18.02807,14.54388,-1.621781,1006.881
25.101983547,-65.46259,-14.16854,5.374417,-0.3391704,-0.3075339,-0.4066385,18.02807,14.54388,-1.621781,1006.885
25.134541988,-4.734995,-12.02722,-2.091909,-1.016206,0.07644053,-0.003757948,16.55954,14.9019,-0.7912188,1006.885
25.169604301,-6.703874,-5.900686,-0.5007252,-0.9906448,0.06301582,0.02888219,17.28377,15.26621,-1.624626,1006.885
25.202162742,-9.47261,-3.878334,2.742843,-0.9524165,0.03262169,-0.01753921,17.28377,15.26621,-1.624626,1006.884
25.234721184,1.602333,-0.6068826,5.190819,-0.9339969,0.09336405,0.03702455,17.65592,14.90505,-1.623203,1006.884
25.269784450,1.66386,2.010279,0.6620633,-1.005489,0.1193224,0.002203074,16.91566,15.26098,-2.06951,1006.882
25.302342892,-13.71801,2.72405,0.6008639,-0.9671015,0.03922953,-0.01645747,16.91566,15.26098,-2.06951,1006.88
25.334900856,-1.350985,3.556783,1.763653,-0.9522091,0.05834607,-0.009412918,17.28945,14.9024,-1.622015,1006.88
25.369963646,8.493407,5.638616,5.496816,-0.9493102,0.1068825,0.01307673,16.90998,15.62479,-2.072121,1006.883
25.402522087,2.15608,6.768754,1.886051,-1.073066,0.05456595,-0.05865838,16.90998,15.62479,-2.072121,1006.883
25.435080528,-6.088599,5.103288,7.332798,-0.9634578,0.01363728,-0.0424704,17.28945,14.9024,-1.622015,1006.883
25.467639446,0.556366,9.088511,8.617985,-0.9063778,0.05836034,0.01181164,17.66463,14.54603,-0.7921734,1006.881
25.502701759,7.078277,7.660968,5.374417,-1.070811,0.1119435,-0.05826856,17.66463,14.54603,-0.7921734,1006.881
25.535260200,0.3102561,2.902493,2.559245,-0.9798306,0.1265913,-0.02623003,17.29676,14.54117,-1.173332,1006.879
25.567818642,-10.64163,3.794707,1.274057,-0.9760703,0.08081067,-0.1008888,16.939,14.17951,-0.3411121,1006.877
25.602880955,-2.335425,-3.343006,1.824852,-0.9955202,0.04631691,-0.05305855,16.939,14.17951,-0.3411121,1006.877
25.635439396,1.540805,-0.5474017,2.00845,-0.9509208,0.1137959,-0.01533548,17.30407,14.17995,-0.7246494,1006.876
25.667997837,-5.042633,0.8206599,-2.214308,-1.011343,0.1168892,-0.01377983,17.30244,14.17736,-1.170721,1006.876
25.703061104,-11.81065,-1.915463,-0.317127,-0.9628602,0.03288613,-0.1050163,17.30244,14.17736,-1.170721,1006.872
25.735619545,1.848443,-3.640411,3.171239,-0.9713369,0.0616778,-0.04849715,17.66486,14.5464,-0.7284489,1006.875
25.768177509,4.678706,-2.510273,2.00845,-0.9827932,0.1370916,0.007286031,18.0297,14.54647,-1.17571,1006.871
25.803240776,1.848443,0.701698,0.2948669,-0.9626319,0.07426751,-0.01351035,18.0297,14.54647,-1.17571,1006.869
25.835799217,3.017464,1.772355,4.02803,-0.9861401,0.03478892,-0.05614374,17.66728,14.17743,-1.617981,1006.869
25.868357658,6.339947,0.4042933,3.416036,-0.9748677,0.1183988,-0.02732656,18.04107,13.81885,-1.170487,1006.869
25.900916100,-3.935138,0.2853315,2.865242,-0.9949603,0.1269331,-0.03781125,18.04107,13.81885,-1.170487,1006.866
25.935978413,-5.35027,-0.4284398,-0.1947282,-0.9807504,0.07659617,-0.04294332,17.68736,13.09079,-0.7817287,1006.866
25.968536854,5.047871,0.4637742,-2.091909,-0.9617987,0.08975678,0.002676594,17.30244,14.17736,-1.170721,1006.864
26.001095295,6.339947,5.400692,-3.621894,-0.9839237,0.1055544,-0.007695327,17.30244,14.17736,-1.170721,1006.867
26.036158561,4.248013,2.961974,-2.459106,-0.9914261,0.06402282,-0.08711213,17.30244,14.17736,-1.170721,1006.867
26.068716526,4.986343,-2.867158,0.1724682,-0.9773871,0.07577208,-0.06567784,17.66728,14.17743,-1.617981,1006.865
26.101274967,0.2487287,-2.926639,1.02926,-0.985712,0.08478653,-0.04136344,17.66728,14.17743,-1.617981,1006.863
26.136338234,1.048586,-2.391311,1.212858,-0.9654611,0.06312162,-0.02866234,17.67031,14.18222,-0.7895622,1006.863
26.168896675,8.124243,1.415469,0.7232627,-0.9739043,0.085669,0.01181007,17.67622,13.81878,-0.7232265,1006.861
26.201455116,-0.3665459,7.006678,-0.8067222,-0.9815568,0.112844,-0.0008191227,17.67622,13.81878,-0.7232265,1006.861
26.236517429,-7.011511,6.292906,-0.1947282,-0.9738917,0.06662162,-0.07403823,16.93597,14.17472,-1.169532,1006.861
26.269075870,8.308825,7.18512,-0.929121,-1.02909,0.08572088,-0.05049148,17.67194,14.18481,-0.3434896,1006.861
26.301634312,14.09241,3.616264,-1.173918,-0.9953512,0.1158124,-0.05151509,17.67194,14.18481,-0.3434896,1006.864
26.336697101,2.279135,8.196297,-2.642704,-0.9666864,0.1300982,-0.01168791,17.31683,13.45454,-0.337079,1006.864
26.369255543,4.186486,9.504877,-5.702674,-1.007559,0.0743934,-0.0627695,17.65918,14.91021,-0.73106,1006.864
26.401813984,-7.811368,-4.354182,-3.499496,-1.553608,0.2447938,-0.08961213,17.65918,14.91021,-0.73106,1006.86
26.434372425,-0.8587655,-2.272349,-8.028251,-0.9785635,0.09372704,-0.0629859,17.66952,14.55378,0.5460424,1006.86
26.469435215,0.1256738,-1.796502,-10.29263,-1.002298,0.08319862,-0.06022336,17.30305,14.55114,0.5472307,1006.86
26.501994133,-7.380676,-2.33183,-10.23143,-0.9876747,0.07670286,-0.08595555,17.30305,14.55114,0.5472307,1006.859
26.534551620,-9.103446,-4.294701,-11.94501,-0.9606836,0.06430418,-0.06103516,17.67194,14.18481,-0.3434896,1006.859
26.569614887,0.433311,-3.640411,-11.51662,-0.9782197,0.05790382,-0.09301876,17.28438,15.63999,0.09332657,1006.863
26.602173328,2.033025,-7.685114,-12.7406,-0.9901839,0.048326,-0.0520663,17.28438,15.63999,0.09332657,1006.861
26.634731769,-2.150842,-4.592105,-14.27059,-0.9527642,0.06654963,0.001830441,17.27869,16.0038,0.09071541,1006.86
26.669794083,5.109398,1.058584,-17.51416,-1.007584,0.04310425,-0.02264318,17.29006,15.27617,0.09593678,1006.858
26.702353001,8.062715,-2.272349,-18.49335,-0.9967995,-0.01913701,-0.09127592,17.29006,15.27617,0.09593678,1006.856
26.734911442,-1.043348,-1.08273,-10.41503,-0.9390603,-0.02270355,0.002872419,17.62975,17.10046,0.5277643,1006.856
26.769974232,3.755794,1.177545,-17.88135,-1.031206,0.05324091,-0.07467043,16.89681,17.09516,0.5301418,1006.854
26.802532673,-20.4245,5.28173,-8.762644,-0.9570127,-0.05819622,0.06083685,17.24866,17.82027,-0.368412,1006.854
26.835090637,-13.53342,8.315259,-13.4138,-1.079685,0.02224859,-0.1311682,17.24866,17.82027,-0.368412,1006.853
26.867649078,-24.05462,-5.48432,-10.04783,-0.9575382,-0.04772424,-0.1048011,17.60703,18.5557,0.5173197,1006.853
26.902712345,-9.041918,-6.436015,-10.35383,-0.9870437,-0.01904078,-0.0845166,16.85867,19.64442,0.9579363,1006.853
26.935270786,-2.027787,-6.198091,-9.068641,-0.9411036,-0.05769439,-0.003459964,16.85867,19.64442,0.9579363,1006.857
26.967829227,9.293264,4.746402,-5.02948,-0.9227543,-0.03671943,0.03212884,16.86436,19.28061,0.9605474,1006.859
27.002891541,21.96792,10.04021,-6.06987,-1.054493,-0.03557358,-0.06246839,16.49789,19.27796,0.9617367,1006.859
27.035449981,-0.243491,3.616264,-1.173918,-0.9505425,-0.06413208,-0.1103754,16.49789,19.27796,0.9617367,1006.859
27.068008899,9.108682,2.545607,0.4784651,-0.9180561,-0.0805196,-0.04781773,16.48326,20.00042,0.06437016,1006.859
27.103071689,6.524529,5.460173,-0.1947282,-1.05664,0.02416101,-0.05865472,16.84731,20.37204,0.952714,1006.859
27.135630131,-2.520007,5.341211,-0.3783264,-0.95425,-0.05501411,0.01061154,16.84731,20.37204,0.952714,1006.861
27.168188095,-1.104875,14.14439,3.722033,-0.9541212,-0.08235931,-0.06714606,16.13141,19.27532,0.962925,1006.859
27.203251362,-9.041918,16.52363,10.57637,-1.022532,-0.02722172,-0.09717495,16.84894,20.37463,1.398786,1006.859
27.235809803,27.25928,3.735226,1.824852,-1.002219,0.02888912,-0.08715435,16.84894,20.37463,1.398786,1006.859
27.268368244,23.13694,-1.67754,-10.59863,-0.9903902,0.005953025,-0.139237,16.50115,19.28313,1.85388,1006.859
27.300926685,-4.488885,-4.294701,-7.905852,-0.943445,-0.02989111,-0.03203614,17.22272,20.01605,1.84628,1006.858
27.335988998,2.15608,1.47495,-12.49581,-1.004068,-0.06347391,-0.08807831,17.22272,20.01605,1.84628,1006.86
27.368547439,1.971498,2.307683,-15.92297,-0.9761773,-0.03012095,-0.07502859,16.85462,20.01081,1.401397,1006.86
27.401105881,-7.442203,-1.618059,-14.88258,-0.9979724,-0.04964526,-0.1188093,16.47679,20.73579,1.397364,1006.86
27.436169147,-0.1819635,-5.48432,-14.51539,-0.9793578,-0.1398617,-0.1057024,16.47679,20.73579,1.397364,1006.858
27.468727589,-0.6741831,-10.5402,-11.33302,-0.970318,-0.07329921,-0.07520961,16.48573,20.37715,2.292119,1006.858
27.501285553,-16.24063,-6.554976,-10.10903,-0.9522595,-0.1116091,-0.04245851,16.83921,21.10483,1.839636,1006.858
27.536348820,-26.57724,-3.402487,-1.296317,-0.9505731,-0.1219897,0.0004020311,16.83921,21.10483,1.839636,1006.857
27.568907261,-20.91672,2.843012,-2.826302,-1.001477,-0.07181251,-0.06403919,16.46706,21.466,1.838213,1006.857
27.601465702,-25.71586,-1.67754,0.05006938,-0.9922677,-0.1172176,-0.09906055,16.82948,21.83504,2.280486,1006.857
27.636528015,-21.7781,-6.317053,1.947251,-0.9807479,-0.1072482,-0.1206715,16.82948,21.83504,2.280486,1006.862
27.669086456,-16.30216,-12.56255,0.4784651,-0.9910879,-0.04967943,-0.0917474,16.09654,21.82974,2.282864,1006.862
27.701644897,-22.27032,-17.91584,-2.03071,-1.007269,-0.07293305,-0.04809926,16.83353,21.46864,1.837025,1006.864
27.734203339,-35.00651,-22.61483,1.457656,-0.9869224,-0.06914632,-0.07416347,16.83353,21.46864,1.837025,1006.864
27.769266605,-22.57796,-23.44756,-0.1947282,-0.9815766,-0.03719084,0.07374883,16.08681,22.55995,2.723713,1006.864
27.801825046,-23.93156,-17.20206,-0.1947282,-0.9980327,-0.05708947,0.02077306,16.46138,21.82981,1.835602,1006.864
27.834383011,-29.40751,-16.90466,5.680414,-0.9380338,-0.06839024,0.00604143,16.46138,21.82981,1.835602,1006.869
27.869446278,-25.83891,-10.30228,7.393997,-0.9288977,-0.2024899,-0.08302109,16.10059,21.46335,1.839402,1006.867
27.902004719,6.339947,-3.105082,14.18713,-0.8811799,-0.2279656,-0.009015783,16.83758,21.10225,1.393564,1006.865
27.934563160,29.35122,1.653393,20.30707,-1.008206,-0.06825808,-0.01032364,16.83758,21.10225,1.393564,1006.865
27.969625473,6.770639,-5.186915,22.87745,-1.042124,-0.03767494,0.007093878,16.10464,21.09695,1.395942,1006.865
28.002183914,-16.91743,-4.830029,32.54695,-0.9291214,-0.08899643,-0.03246832,16.84163,20.73585,0.9501038,1006.865
28.034742355,-5.59638,-4.175739,41.23726,-0.9798157,-0.08385446,-0.02605704,16.84163,20.73585,0.9501038,1006.865
28.069805622,9.477846,4.092112,49.56038,-0.9466316,0.00337217,0.01826223,16.1241,19.63655,0.5142412,1006.865
28.102364063,9.662429,12.53841,55.86392,-1.020828,0.09441915,-0.016047,16.87651,18.18143,-0.3698349,1006.865
28.134922504,-13.84106,3.199898,51.39636,-1.066558,0.1331653,-0.01057796,16.87651,18.18143,-0.3698349,1006.867
28.169984817,-69.46188,4.270555,47.3572,-1.010926,-0.05629766,0.1295574,16.53136,16.72133,-0.7405491,1006.867
28.202543258,-121.6372,1.831836,43.68524,-1.108968,-0.01922208,0.2447779,17.67925,13.82358,0.1051931,1006.869
28.235102176,-201.869,7.542006,19.69508,-0.9464094,0.3791516,0.1056857,17.67925,13.82358,0.1051931,1006.869
28.267660618,-357.7795,13.66854,-8.823843,-1.098306,0.5066797,-0.2624887,17.32578,13.09589,0.5576754,1006.869
28.302723408,-434.3197,18.66494,-52.64261,-1.128531,0.004238634,-0.4765269,18.07987,12.38906,3.236952,1006.868
28.335281372,-393.2194,35.26012,-67.26926,-0.9449353,-0.08983877,-0.530344,18.07987,12.38906,3.236952,1006.868
28.367839813,-287.5152,0.5232552,-46.76747,-0.8628567,-0.2113345,-0.4046654,17.7189,12.76794,6.29431,1006.868
28.402903080,-198.6695,25.20784,-42.42231,-0.7438937,0.001844407,-0.132287,17.34578,14.246,10.68205,1006.864
28.435461521,-170.2439,33.83258,-29.75404,-0.8179142,-0.01427578,-0.00678347,17.34578,14.246,10.68205,1006.864
28.468019962,-147.5402,19.85456,-19.71734,-0.9866801,-0.1759038,0.314776,17.34234,14.98616,12.84346,1006.864
28.503082275,-85.95124,-5.662763,-31.83482,-1.039437,-0.5599685,0.6134949,17.71105,15.36517,15.0063,1006.864
28.535640716,28.79747,-21.90106,-32.44681,-0.9818285,-0.5546803,0.8962955,17.71105,15.36517,15.0063,1006.867
28.568199158,80.41901,-9.588504,-4.907082,-1.850356,0.3397408,0.3012412,18.46351,14.65575,17.2395,1006.865
28.603262424,-2.150842,22.29328,-20.94132,-0.8578757,0.3339174,0.04690494,18.44725,15.37563,15.89606,1006.865
28.635820866,-99.91797,5.103288,-5.763874,-1.097356,0.04754092,0.1326751,17.67617,17.91959,16.32623,1006.865
28.668379307,-114.8076,20.27093,-14.33179,-0.920572,-0.1653711,0.1133048,17.67617,17.91959,16.32623,1006.865
28.700937271,-62.93997,11.76515,-14.02579,-1.003414,-0.2257893,-0.1954481,16.95381,17.55824,17.66944,1006.865
28.736000538,-31.99166,11.34879,-17.33056,-0.9698334,-0.3626034,-0.2589566,18.07189,16.47733,18.11978,1006.863
28.768558979,-0.4280733,4.62744,-10.53743,-0.8496506,-0.3318539,-0.1575777,18.07189,16.47733,18.11978,1006.866
28.801117420,15.99976,5.22225,-7.293859,-0.9785374,-0.2050922,-0.080596,16.97388,16.4716,18.50569,1006.866
28.836179733,1.048586,1.593912,-7.355058,-1.016167,-0.1193047,0.07639647,17.33062,17.20445,18.94535,1006.866
28.868738174,-10.76469,9.02903,-5.825073,-0.9880972,-0.1124372,0.03635387,17.33062,17.20445,18.94535,1006.864
28.901296616,-14.8255,9.980725,-6.987861,-0.9833561,-0.2019192,-0.04428967,17.32089,17.93466,19.3862,1006.862
28.936359882,-6.826929,10.27813,-3.621894,-0.9168142,-0.221611,-0.01226808,17.32657,17.57085,19.38881,1006.862
28.968918324,16.12281,14.62024,-4.417487,-0.9902298,-0.1040395,0.0007141628,17.32657,17.57085,19.38881,1006.862
29.001476765,5.847727,11.11086,-8.640245,-1.058326,-0.1240923,-0.05946477,16.97067,17.21214,20.73083,1006.862
29.036539554,-10.02636,2.248202,-6.498266,-0.9231064,-0.1951844,-0.06986405,17.33551,17.2122,20.28357,1006.862
29.069097996,-9.96483,-1.855982,-0.5619246,-0.9358402,-0.2327335,-0.07864203,17.33551,17.2122,20.28357,1006.866
29.101656437,-2.827644,-0.3094779,3.660834,-0.9406484,-0.2210185,0.002748648,17.31605,18.67261,21.16527,1006.866
29.134214878,-5.904017,7.125639,9.352378,-0.986449,-0.1826198,-0.02224029,16.94795,18.66738,20.72038,1006.866
29.169278145,-12.61051,5.579135,10.69876,-0.997156,-0.1500082,-0.06330283,16.94795,18.66738,20.72038,1006.865
29.201836586,-13.34884,4.03263,13.02434,-0.987476,-0.1963283,-0.1094563,17.32415,17.93982,20.27835,1006.863
29.234394073,-1.843205,-2.569754,12.35115,-0.9459461,-0.2079341,-0.1101568,17.69388,17.94764,21.1693,1006.861
29.269457340,7.693551,-2.867158,14.98272,-0.9314562,-0.1870759,-0.06006475,17.69388,17.94764,21.1693,1006.861
29.302015781,10.52381,-1.558578,15.83951,-1.028619,-0.1246614,-0.06288577,16.97472,16.84574,20.28737,1006.859
29.334574222,8.308825,-1.380135,13.69753,-0.9563472,-0.1393147,-0.05351154,16.99177,15.75431,20.2952,1006.859
29.369637489,6.709112,-7.030824,19.20548,-0.9916047,-0.1774045,-0.1144807,16.99177,15.75431,20.2952,1006.863
29.402195454,14.64615,-12.38411,25.08062,-0.9511088,-0.1722667,-0.05981985,17.34524,16.482,19.84272,1006.863
29.434753895,13.60019,-10.77812,31.26176,-0.9703448,-0.1430541,-0.0197187,17.74012,14.66559,19.85459,1006.862
29.469816685,9.108682,-2.98612,35.30092,-0.9583287,-0.08368715,-0.001423009,17.74012,14.66559,19.85459,1006.862
29.502375126,8.370353,1.831836,34.32173,-0.973421,-0.03638382,0.02686571,17.0082,14.28911,18.58508,1006.862
29.534934044,3.632739,7.482525,34.75013,-0.9727252,-0.01636313,0.008318788,17.39716,12.83614,18.53061,1006.863
29.569996357,-0.3665459,12.12204,35.48452,-0.9586293,-0.06316249,-0.02672856,17.39716,12.83614,18.53061,1006.863
29.602554798,5.170926,14.62024,38.97289,-0.9630699,-0.02131522,-0.05025468,17.77765,11.74256,17.70884,1006.866
29.635113239,17.90711,14.62024,33.77094,-1.016721,0.06126748,-0.0880965,17.42557,11.01709,18.54367,1006.866
29.667671680,21.16807,8.731626,28.20179,-1.008694,0.0822849,-0.09116724,17.42557,11.01709,18.54367,1006.866
29.702734947,20.86043,1.831836,21.10266,-1.008944,0.1392833,-0.1212335,17.08183,9.559196,18.5553,1006.864
29.735293388,12.43116,-4.770548,12.90194,-1.006622,0.1048575,-0.1323953,17.1005,8.470348,19.00921,1006.864
29.767851829,5.417035,-6.317053,11.49436,-0.977845,0.03058522,-0.06975043,17.1005,8.470348,19.00921,1006.863
29.802914143,19.87599,-1.439616,11.12716,-0.96706,0.07429387,-0.03187399,17.83749,8.109249,18.56337,1006.863
29.835472584,30.52024,4.567959,12.10635,-0.9651347,0.08862843,0.02731482,17.83912,8.111832,19.00944,1006.863
29.868031025,29.59733,10.6945,12.65715,-0.9532726,0.1497036,-0.00946824,17.83912,8.111832,19.00944,1006.861
29.903094292,19.81446,12.59789,8.985181,-0.9967872,0.1499364,-0.0780622,17.83772,8.109617,18.62709,1006.859
29.935652733,8.616462,10.39709,8.06719,-0.9855039,0.09481434,-0.1079167,16.74134,8.106474,19.45908,1006.859
29.968211174,8.124243,8.017854,5.190819,-0.9762249,0.08204399,-0.1583916,16.74134,8.106474,19.45908,1006.857
30.003273964,16.36892,3.556783,4.456426,-0.9655079,0.09359059,-0.1021541,17.82939,8.842035,19.45029,1006.856
30.035832405,19.32224,2.248202,3.04884,-0.9739408,0.1560152,-0.06687384,17.84402,8.119579,20.34766,1006.856
30.068390846,9.354792,1.355988,0.2948669,-0.9761447,0.1702504,-0.1038745,17.84402,8.119579,20.34766,1006.856
30.100949287,-0.3050184,1.891317,-0.7455228,-0.9644965,0.09068123,-0.1007493,17.47591,8.114349,19.90277,1006.86
30.136012554,5.847727,2.248202,0.1112688,-0.9698831,0.04981944,-0.1081348,17.09645,8.836742,19.45267,1006.862
30.168570041,15.69212,-0.249997,0.2948669,-0.9846113,0.143908,-0.1066852,17.09645,8.836742,19.45267,1006.86
30.201128483,14.95379,1.237026,-3.377097,-0.9920603,0.160248,-0.08757698,17.83102,8.844618,19.89636,1006.86
30.236191749,4.371068,1.118065,-4.478686,-0.9701593,0.1173298,-0.09888719,17.82534,9.208427,19.89375,1006.862
30.268750191,-2.027787,1.058584,-5.09068,-0.9654915,0.04320132,-0.1362759,17.82534,9.208427,19.89375,1006.862
30.301308632,4.740233,0.1663696,-2.948701,-0.9757473,0.04169596,-0.1551407,17.82697,9.21101,20.33982,1006.862
30.336371422,17.10725,0.4637742,-0.8679216,-0.9836372,0.05984794,-0.1084519,17.4605,9.208364,20.34101,1006.866
30.368929863,17.47642,1.177545,2.559245,-0.9538165,0.09658811,-0.0866516,17.4605,9.208364,20.34101,1006.866
30.401488304,11.3852,3.140416,4.02803,-0.9820089,0.09137172,-0.08912086,17.81156,10.30503,20.77806,1006.866
30.436551094,6.03231,2.605088,6.414806,-0.991501,0.105958,-0.1174084,17.08104,9.930756,19.89091,1006.864
30.469110012,2.094552,1.712874,3.477236,-0.9769202,0.1047721,-0.1353255,17.08104,9.930756,19.89091,1006.864
30.501668453,-1.043348,-3.343006,2.192048,-0.9687225,0.1069292,-0.1585026,17.44914,9.935986,20.33579,1006.864
30.534226894,-0.920293,-7.447191,-0.3783264,-0.9817542,0.09941193,-0.1460369,17.44345,10.2998,20.33318,1006.864
30.569289207,-3.319864,-13.0384,-2.336707,-0.9827393,0.1003711,-0.1460213,17.82129,9.574821,20.33721,1006.864
30.601847649,-7.134566,-15.29868,-4.05029,-0.9631529,0.1009022,-0.1001113,17.82129,9.574821,20.33721,1006.864
30.634406090,-8.488171,-13.69269,-3.377097,-0.9794927,0.08935215,-0.06546863,17.44992,9.564428,19.00019,1006.864
30.669469356,-9.841775,-11.67034,-2.336707,-0.9791453,0.1000771,-0.07158924,17.45561,9.200617,19.0028,1006.864
30.702027798,-12.17982,-9.529023,-1.724713,-0.9678211,0.09333687,-0.05333469,17.45561,9.200617,19.0028,1006.864
30.734586239,-7.134566,-7.744595,-1.173918,-0.9761593,0.09619273,-0.06391735,17.8164,9.567074,18.999,1006.866
30.769648552,-1.22793,-6.317053,-0.8679216,-0.9818907,0.0854485,-0.06890951,17.44284,9.926023,18.61523,1006.866
30.802206993,-0.1204361,-3.997296,0.2336676,-0.9786857,0.06594475,-0.04600808,17.44284,9.926023,18.61523,1006.866
30.834765911,-1.412513,-2.807678,2.130849,-0.9776262,0.0947577,-0.07312199,17.44284,9.926023,18.61523,1006.864
30.869828701,-2.827644,-3.521449,0.2948669,-0.9864919,0.1043396,-0.06813349,17.81905,9.198465,18.17319,1006.864
30.902387142,-7.565258,-5.008472,-0.6843234,-0.9812192,0.111221,-0.0699671,17.81905,9.198465,18.17319,1006.864
30.934945583,-11.87218,-5.722243,-0.8067222,-0.976074,0.08985393,-0.05918038,17.45663,8.829426,17.73092,1006.867
30.970008373,-1.412513,-4.473144,0.1112688,-0.9747174,0.06063076,-0.04174259,17.8231,8.832071,17.72973,1006.868
31.002566814,6.155365,-1.023249,3.599635,-0.9649655,0.06501447,-0.01606615,17.8231,8.832071,17.72973,1006.868
31.035125255,1.171641,0.701698,4.456426,-0.9825386,0.1479857,-0.03605193,17.82473,8.834656,18.1758,1006.868
31.067683697,-6.334709,1.712874,2.742843,-0.9796336,0.1091096,-0.02891381,17.81174,9.559692,17.72451,1006.868
31.102746963,-3.258336,1.831836,3.477236,-0.9719746,0.06908096,-0.07496931,17.81174,9.559692,17.72451,1006.867
31.135305404,4.248013,1.058584,4.08923,-0.9783794,0.07817135,-0.06177327,17.45663,8.829426,17.73092,1006.865
31.167863846,6.401474,1.712874,4.640024,-0.976265,0.1087516,-0.04729084,17.46231,8.465614,17.73353,1006.865
31.202926159,5.601618,3.913669,4.884822,-0.9747713,0.1077593,-0.03860664,17.46231,8.465614,17.73353,1006.865
31.235484600,5.663145,4.567959,5.06842,-0.9770914,0.137902,-0.04732869,17.46394,8.468199,18.1796,1006.865
31.268043041,2.709827,5.22225,3.660834,-0.981815,0.1228281,-0.05915515,17.82878,8.46826,17.73234,1006.863
31.303106308,4.124959,4.03263,2.926441,-0.9788576,0.1147156,-0.08345062,17.82878,8.46826,17.73234,1006.865
31.335664749,6.093837,2.783531,2.00845,-0.9792588,0.1088454,-0.07628913,17.45826,8.83201,18.17699,1006.864
31.368223190,5.724673,2.367164,1.886051,-0.9780076,0.1287472,-0.06728593,17.83204,8.473427,18.62448,1006.864
31.403285980,4.555651,3.140416,-0.623124,-0.9766048,0.1360065,-0.05654224,17.83204,8.473427,18.62448,1006.864
31.435844421,1.786915,3.97315,-1.05152,-0.9784031,0.1209641,-0.06692091,18.20824,7.745869,18.18244,1006.864
31.468402862,3.694266,4.924845,-2.03071,-0.975887,0.1127617,-0.072849,17.46962,8.104387,18.18221,1006.862
31.500961304,6.401474,6.471349,-2.397906,-0.9779677,0.1243938,-0.07170278,17.46962,8.104387,18.18221,1006.862
31.536024094,5.417035,6.233425,-3.0099,-0.9814411,0.1292238,-0.07500937,17.45989,8.834593,18.62306,1006.862
31.568583012,2.094552,4.924845,-4.417487,-0.9808906,0.1181751,-0.1017642,18.19423,8.8421,19.00303,1006.862
31.601140499,1.66386,3.675745,-5.02948,-0.9781697,0.0962816,-0.08904966,18.19423,8.8421,19.00303,1006.862
31.636203766,2.525244,3.556783,-4.233889,-0.9762602,0.09970617,-0.08851587,17.45966,8.834223,18.55934,1006.862
31.668762207,2.094552,4.03263,-4.172689,-0.9744329,0.1118419,-0.08011509,17.07777,9.925591,18.99876,1006.862
31.701320648,-0.6741831,2.664569,-3.193499,-0.9729723,0.1071052,-0.1029075,17.07777,9.925591,18.99876,1006.862
31.736383915,-1.658622,0.04740771,-3.499496,-0.9810269,0.0832844,-0.1245317,17.44992,9.564428,19.00019,1006.86
31.768942356,-3.935138,-3.461968,-2.153109,-0.9776934,0.09059989,-0.1205563,16.71862,9.561716,19.44864,1006.86
31.801500797,-7.011511,-5.365358,-2.520305,-0.978756,0.1031154,-0.09716224,16.71862,9.561716,19.44864,1006.862
31.836563110,-10.70316,-5.127434,-2.642704,-0.9757146,0.09627599,-0.08083471,17.44992,9.564428,19.00019,1006.862
31.869121551,-8.795808,-2.926639,-0.3783264,-0.972108,0.08311739,-0.06267062,17.44588,9.93082,19.44365,1006.867
31.901679993,-3.319864,0.2853315,1.641254,-0.9753977,0.07048984,-0.07397776,17.44588,9.93082,19.44365,1006.867
31.934238911,1.725388,0.6422171,1.763653,-0.9787514,0.1059605,-0.08165078,17.45561,9.200617,19.0028,1006.867
31.969301701,-1.166403,1.355988,1.090459,-0.9816502,0.1058806,-0.07246504,17.82534,9.208427,19.89375,1006.865
32.001860142,-1.412513,2.248202,1.212858,-0.9771664,0.09243561,-0.0953932,17.82534,9.208427,19.89375,1006.865
32.034418106,2.217607,1.653393,1.151659,-0.9704012,0.09832684,-0.08902596,17.83102,8.844618,19.89636,1006.863
32.069481373,2.217607,1.593912,-0.3783264,-0.9871434,0.1155729,-0.08197941,17.8164,9.567074,18.999,1006.863
32.102039814,0.8640033,1.653393,-1.112719,-0.9732315,0.09193897,-0.08187002,17.8164,9.567074,18.999,1006.863
32.134598255,2.217607,1.593912,-0.4395258,-0.9760051,0.07498414,-0.1019445,17.45561,9.200617,19.0028,1006.861
32.169661522,3.878849,1.831836,0.2948669,-0.9651507,0.1090537,-0.08161671,17.82371,9.205845,19.44768,1006.859
32.202219963,0.6794209,3.080935,-0.1947282,-0.9826873,0.1112151,-0.07286603,17.82371,9.205845,19.44768,1006.859
32.234778404,-1.412513,3.556783,-0.07232942,-0.9771997,0.09297206,-0.1065027,17.45156,9.567011,19.44626,1006.859
32.269840717,-0.920293,2.783531,-0.317127,-0.9688635,0.08583971,-0.1172538,17.45156,9.567011,19.44626,1006.859
32.302399158,-2.273897,1.118065,0.2336676,-0.97816,0.09483706,-0.09197196,17.45156,9.567011,19.44626,1006.862
32.334957599,-4.181248,0.9991028,0.1112688,-0.9729864,0.1090334,-0.09949441,17.45724,9.203199,19.44887,1006.862
32.370020866,-3.504446,0.5827361,-1.357517,-0.9822353,0.1098582,-0.09367236,17.45156,9.567011,19.44626,1006.862
32.402579307,-3.504446,1.177545,-1.173918,-0.973198,0.08712163,-0.09112771,17.08104,9.930756,19.89091,1006.86
32.435137749,0.3102561,2.961974,-0.7455228,-0.974104,0.07842409,-0.1047941,17.08104,9.930756,19.89091,1006.86
32.467696190,3.571211,2.010279,0.05006938,-0.9749005,0.1089465,-0.08595933,17.45887,9.205782,19.89494,1006.86
32.502758980,-4.11972,0.8801408,-3.132299,-0.9795956,0.1308629,-0.1093059,18.1845,9.572304,19.44388,1006.859
32.535317421,-12.67204,-1.142211,-4.233889,-0.9812167,0.09932598,-0.1257369,18.1845,9.572304,19.44388,1006.861
32.567875862,-7.749841,-1.796502,-3.621894,-0.9720198,0.06535851,-0.1112793,17.45319,9.569593,19.89233,1006.859
32.602938652,0.8024758,-1.796502,-2.214308,-0.9716899,0.08134713,-0.09943467,17.45482,9.572176,20.3384,1006.857
32.635497093,-2.396952,-1.558578,-1.663514,-0.9773266,0.1046185,-0.1029412,17.45482,9.572176,20.3384,1006.857
32.668056011,-5.842489,-0.9637682,-1.296317,-0.9693584,0.09250643,-0.08863238,17.81966,9.572239,19.89114,1006.856
32.703118324,-4.36583,-0.6068826,-0.1335288,-0.9734958,0.06726992,-0.1083485,17.81966,9.572239,19.89114,1006.854
32.735676765,-0.4896008,-0.7853255,-0.317127,-0.9723429,0.09686349,-0.09339679,17.81966,9.572239,19.89114,1006.856
32.768235207,-3.073754,-0.3094779,-0.5619246,-0.9829158,0.08315132,-0.1008464,17.45156,9.567011,19.44626,1006.854
32.803298473,-4.796523,-0.8448064,-1.173918,-0.9747264,0.09150653,-0.09782661,17.0924,9.203135,19.89613,1006.854
32.835856914,-7.134566,-0.1905161,-0.8679216,-0.9784874,0.08027102,-0.09606089,17.0924,9.203135,19.89613,1006.852
32.868415356,-2.581534,0.8206599,-0.1947282,-0.9763842,0.06812232,-0.09044775,17.45156,9.567011,19.44626,1006.852
32.900973797,4.617178,1.653393,0.1112688,-0.9690366,0.1075584,-0.08453604,17.0924,9.203135,19.89613,1006.856
32.936036110,0.1256738,2.010279,-0.929121,-0.9845991,0.1035141,-0.09473363,17.0924,9.203135,19.89613,1006.856
32.968594551,-3.073754,1.177545,-1.541115,-0.9708328,0.09060967,-0.1031612,17.09645,8.836742,19.45267,1006.856
33.001152992,-1.104875,0.9396218,-1.296317,-0.9745981,0.08175977,-0.09169154,17.44751,9.933403,19.88972,1006.858
33.036216259,-1.22793,1.355988,-0.623124,-0.9824402,0.08555643,-0.09404293,17.44751,9.933403,19.88972,1006.858
33.068774700,-2.027787,0.4637742,-0.317127,-0.9735784,0.07407924,-0.1096946,16.7243,9.197905,19.45125,1006.858
33.101333141,0.556366,-0.9042873,-0.3783264,-0.9813542,0.07062022,-0.1194075,17.44751,9.933403,19.88972,1006.858
33.136395931,1.786915,-1.67754,0.7844621,-0.974513,0.07209213,-0.1029568,17.44751,9.933403,19.88972,1006.858
33.168954372,0.2487287,-2.034425,1.02926,-0.974902,0.1056199,-0.1024449,17.46129,8.836807,19.00541,1006.856
33.201512813,-2.766117,-2.093906,0.1112688,-0.9854329,0.09325773,-0.08618852,17.82534,9.208427,19.89375,1006.856
33.236576080,1.294695,-0.7853255,0.6008639,-0.9724807,0.06625586,-0.09628051,17.82534,9.208427,19.89375,1006.858
33.269134521,6.647584,-0.6663635,1.335257,-0.9736829,0.08806291,-0.08579574,17.08267,9.933338,20.33698,1006.861
33.301692962,2.340662,0.4637742,0.8456615,-0.9875792,0.1102413,-0.08641072,17.46292,8.83939,19.45148,1006.861
33.334251404,-2.150842,0.3448124,-0.5007252,-0.981204,0.1031078,-0.1024771,17.46292,8.83939,19.45148,1006.862
33.369313717,0.002618853,-1.796502,-1.479915,-0.9804371,0.07787102,-0.10818,17.83102,8.844618,19.89636,1006.861
33.401872158,1.356223,-2.450792,-1.05152,-0.9735016,0.07060974,-0.09476297,17.81966,9.572239,19.89114,1006.861
33.434430599,2.15608,-1.499097,-0.1335288,-0.9681986,0.07791109,-0.0820889,17.81966,9.572239,19.89114,1006.859
33.469493866,3.694266,-0.01207323,0.4784651,-0.9758486,0.1079356,-0.08017331,17.08345,9.561781,19.00137,1006.861
33.502052307,1.971498,0.5827361,-0.1335288,-0.982936,0.08651751,-0.09306104,17.09077,9.200552,19.45006,1006.861
33.534610748,-1.47404,1.47495,1.702453,-0.9995831,0.09312633,-0.09777791,17.09077,9.200552,19.45006,1006.861
33.569674015,-17.22507,3.616264,4.395226,-1.054237,0.1420348,-0.1080967,17.45319,9.569593,19.89233,1006.861
33.602232456,8.247297,-6.257572,-6.375867,-1.071975,-0.0007510275,-0.07497142,17.09077,9.200552,19.45006,1006.862
33.634790420,71.98975,-3.343006,-9.497037,-1.003351,-0.03213274,-0.2437316,17.09077,9.200552,19.45006,1006.862
33.669853210,168.2187,-4.23522,6.231208,-0.8930545,0.267567,-0.316606,18.19586,8.844683,19.4491,1006.862
33.702411652,171.9719,8.255777,21.89825,-0.758351,0.80215,-0.2438077,17.80262,10.66367,19.88331,1006.867
33.734970570,57.96148,21.93639,31.99615,-0.7435949,0.807778,-0.1572116,17.80262,10.66367,19.88331,1006.865
33.767529011,-77.09129,38.94794,29.48698,-0.947381,0.5643458,-0.007981762,17.39801,13.21028,20.31229,1006.865
33.802591801,-189.8096,48.04853,24.89702,-1.169538,0.07719318,0.03217142,17.01612,14.30165,20.75172,1006.863
33.835150242,-177.8117,-6.198091,8.495586,-1.134868,-0.4478379,0.1599568,17.01612,14.30165,20.75172,1006.863
33.867708683,-79.73696,-24.75614,0.2948669,-0.8177035,-0.5356857,0.187313,17.06889,11.02994,21.22129,1006.863
33.902771473,-25.53127,15.80986,-8.762644,-0.864808,-0.1282325,-0.4087128,17.49459,7.025501,20.35668,1006.861
33.935329914,-30.45347,9.68332,-6.865462,-1.065842,0.158159,-0.7966515,17.49459,7.025501,20.35668,1006.859
33.967888355,-2.766117,2.010279,-22.8997,-1.396272,0.231473,-0.3413232,17.1338,6.659044,20.36048,1006.859
34.002951622,38.08811,-8.042,-12.7406,-0.9442965,0.1609024,0.3300245,17.14679,5.934004,20.81177,1006.859
34.035510063,2.340662,25.74317,-34.03799,-0.8556737,0.3714164,-0.06950228,17.14679,5.934004,20.81177,1006.866
34.068068504,-49.7731,20.033,-15.80057,-0.9570115,-0.1532654,-0.1929363,16.75597,7.384018,20.35645,1006.864
34.103130817,25.90568,28.4793,-11.33302,-0.9890731,0.01146652,-0.1720238,17.11597,8.122034,21.68825,1006.862
34.135689258,15.69212,19.67612,-11.57782,-0.9695259,0.2101219,-0.1951143,17.11597,8.122034,21.68825,1006.862
34.168247700,-33.46832,17.95117,-12.9854,-0.9707354,0.05856582,-0.216277,17.11494,8.493225,22.96013,1006.862
34.203310966,8.616462,7.304082,-19.53374,-0.9935682,0.04390108,-0.2628828,16.37795,8.854326,23.40597,1006.862
34.235869407,8.493407,0.4637742,-23.0833,-0.975214,0.2035794,-0.1623389,16.73469,9.587177,23.84563,1006.862
34.268427849,-20.30144,-2.034425,-24.91928,-0.9871057,0.03755913,-0.2393004,16.73469,9.587177,23.84563,1006.862
34.300986290,1.356223,-6.13861,-26.93886,-0.9330365,0.005468731,-0.1886042,16.73227,9.956152,24.73516,1006.862
34.336049080,7.385914,-1.439616,-22.59371,-0.9764853,0.01271551,-0.1966691,16.35281,10.67855,24.28506,1006.861
34.368607521,0.2487287,-3.461968,-20.75772,-0.9278241,0.01388694,-0.2078159,16.35281,10.67855,24.28506,1006.861
34.401165962,9.908539,-3.164563,-19.28894,-0.9649138,-0.01825641,-0.1928024,16.33739,11.77256,24.7233,1006.866
34.436228752,8.124243,-3.521449,-15.49458,-0.9583253,-0.03434072,-0.1640515,16.6925,12.50283,24.71688,1006.866
34.468787670,25.53651,-1.73702,-16.04537,-0.9630414,0.05794902,-0.05967971,16.6925,12.50283,24.71688,1006.866
34.501346111,-10.64163,-5.48432,-17.69776,-1.025829,-0.03180487,-0.2731909,16.32035,12.86399,24.71546,1006.865
34.536408901,5.478563,-6.971343,-15.06618,-0.9067388,-0.07065584,-0.1530543,16.66652,13.95291,23.8143,1006.865
34.568967342,35.93465,-0.9637682,-12.37341,-0.9490272,0.02509158,-0.06164466,16.66652,13.95291,23.8143,1006.863
34.601526260,1.479278,2.129241,-10.04783,-0.9970462,-0.09562447,-0.1581818,17.02163,14.68317,23.80789,1006.861
34.636588573,7.632024,5.93602,-6.559465,-0.9332296,-0.08818331,-0.1155928,16.2749,15.77448,24.69457,1006.859
34.669147015,8.616462,6.233425,0.6008639,-1.013663,-0.06154126,-0.2190347,16.2749,15.77448,24.69457,1006.864
34.701705456,16.86114,2.129241,0.05006938,-0.9626204,-0.04264294,-0.1675577,17.00784,15.77977,24.6922,1006.864
34.734263897,15.07685,2.902493,-4.662284,-0.9766411,-0.04491358,-0.1361593,15.90275,16.13564,24.69315,1006.862
34.769327164,-8.611226,1.177545,-4.233889,-0.9698967,-0.04849657,-0.1835914,15.90275,16.13564,24.69315,1006.862
34.801885605,-11.87218,-3.818853,-3.683094,-0.9641106,-0.09296775,-0.2200453,16.26517,16.50468,25.13543,1006.86
34.834444046,7.262859,-2.807678,-3.0099,-0.9614348,-0.1019373,-0.1641131,15.90438,16.13823,25.13923,1006.86
34.869506359,2.955937,-0.1905161,2.00845,-0.9545672,-0.05681292,-0.1281447,15.90438,16.13823,25.13923,1006.86
34.902064800,7.016749,5.103288,2.804042,-0.9775503,-0.05170263,-0.1420625,16.26922,16.13829,24.69196,1006.86
34.934623241,8.18577,4.448997,2.865242,-0.9794723,-0.06461682,-0.1930123,16.26922,16.13829,24.69196,1006.862
34.969686508,6.093837,1.534431,0.9680604,-0.9751735,-0.05774815,-0.1948451,16.26922,16.13829,24.69196,1006.862
35.002244949,3.878849,-1.08273,-0.317127,-0.9648725,-0.06155702,-0.1828288,15.90033,16.50462,25.58268,1006.86
35.034803390,-1.22793,-1.439616,-0.8679216,-0.9682869,-0.05826164,-0.1692406,16.26517,16.50468,25.13543,1006.86
35.069866657,0.06414631,-1.855982,-3.193499,-0.9718477,-0.0466135,-0.1758268,16.26517,16.50468,25.13543,1006.86
35.102425098,-0.0589086,-1.796502,-4.295088,-0.9746059,-0.06074297,-0.1760397,16.62838,16.50216,24.24209,1006.862
35.134983539,1.171641,-1.73702,-4.233889,-0.9497657,-0.1055579,-0.1893152,16.61865,17.23237,24.68294,1006.866
35.167541504,4.063431,-1.618059,-2.397906,-0.9557708,-0.08346028,-0.1498187,16.61865,17.23237,24.68294,1006.868
35.202604770,6.586057,0.8206599,-4.539886,-0.9815172,-0.04734289,-0.1502096,16.62028,17.23495,25.12901,1006.868
35.235163212,-1.043348,0.2258505,-6.192269,-0.9618162,-0.0769845,-0.2014354,15.89302,16.86585,25.134,1006.868
35.267721653,-8.365116,-4.354182,-7.844653,-0.9596091,-0.04657343,-0.1497356,15.89302,16.86585,25.134,1006.866
35.302784443,-8.611226,1.177545,-12.67941,-0.9954725,-0.1081775,-0.1719094,16.61297,17.59618,24.68033,1006.864
35.335343361,-15.87146,-2.153387,-6.987861,-0.9194268,-0.1562701,-0.1727166,16.24245,17.95993,25.12498,1006.866
35.367901802,-1.166403,5.460173,-3.254698,-1.006496,-0.08064017,-0.1671283,16.24245,17.95993,25.12498,1006.866
35.435522556,-14.64092,-7.447191,2.804042,-0.9466435,-0.1728917,-0.2290156,15.88734,17.22966,25.13139,1006.864
35.468080997,-3.873611,-7.090305,7.638794,-0.9461635,-0.1091961,-0.1275019,15.88734,17.22966,25.13139,1006.863
35.503144264,-3.750556,-1.142211,5.496816,-0.9860612,-0.0247513,-0.1082901,16.6146,17.59876,25.1264,1006.863
35.535702705,-10.33399,2.545607,5.558015,-0.9740725,-0.1035711,-0.1617089,15.88976,16.86068,24.24186,1006.863
35.568261146,-5.965544,1.772355,10.02557,-0.9245273,-0.1378383,-0.1791977,15.88976,16.86068,24.24186,1006.863
35.600819588,-4.550413,2.545607,12.35115,-0.9548705,-0.02914907,-0.1204718,16.26112,16.87108,25.57888,1006.861
35.635882854,-15.31772,2.902493,9.597176,-1.006945,-0.0408198,-0.1612032,16.26517,16.50468,25.13543,1006.859
35.668441296,-14.57939,2.367164,11.43316,-0.9609588,-0.1095209,-0.2048329,16.26517,16.50468,25.13543,1006.859
35.700999737,-3.258336,0.6422171,12.10635,-0.9433688,-0.06284744,-0.158217,16.27085,16.14087,25.13803,1006.859
35.736062050,-6.211654,1.950798,14.86032,-0.9690067,-0.03739148,-0.1650545,16.64137,15.77712,24.69339,1006.859
35.768620491,-4.427358,3.259378,16.51271,-0.9634158,-0.05915238,-0.1731259,16.64137,15.77712,24.69339,1006.856
35.801178932,-0.5511282,3.497302,17.2471,-0.97772,-0.001509183,-0.1717493,15.91411,15.40802,24.69838,1006.858
35.836242199,-4.058193,2.129241,14.30953,-0.9779155,0.01026252,-0.1957384,16.30331,13.95543,24.70763,1006.856
35.868800640,-3.012227,-0.9637682,11.73915,-0.9739535,0.004484604,-0.1963138,16.30331,13.95543,24.70763,1006.856
35.901359081,-3.750556,-3.521449,7.455196,-0.9801367,0.02690747,-0.2283519,17.04193,13.59691,24.70786,1006.856
35.936421871,-7.257621,-8.755771,4.272828,-0.9636814,0.01119212,-0.1459501,15.95388,12.86135,24.71665,1006.856
35.968980312,-7.196094,-6.971343,3.660834,-0.957153,-0.00478231,-0.1413664,15.95388,12.86135,24.71665,1006.858
36.001538754,-1.843205,-4.354182,2.681643,-0.9985487,0.03315684,-0.1595993,16.68114,13.23045,24.71166,1006.858
36.036601543,-4.181248,-2.807678,4.150429,-0.9366426,-0.009379107,-0.1404895,17.05408,12.49773,23.37748,1006.856
36.069160461,5.232453,-2.33183,6.292408,-0.9997002,0.006889907,-0.1580654,17.05408,12.49773,23.37748,1006.856
36.101718902,-1.350985,-4.711068,4.823622,-0.9717535,0.02301826,-0.2042505,16.68519,12.86406,24.2682,1006.856
36.134277344,-2.704589,-9.94539,5.252018,-0.9823597,-0.03243132,-0.2249047,15.95793,12.49495,24.27319,1006.856
36.169340133,7.693551,-14.94179,4.640024,-0.9616651,0.04718335,-0.1458864,16.69897,11.76746,23.38389,1006.856
36.201899051,-0.1204361,-12.14618,3.966831,-0.95713,0.001358696,-0.1026026,16.69897,11.76746,23.38389,1006.855
36.234457493,10.95451,-6.792901,4.456426,-0.9827391,0.02676191,-0.09783989,16.69329,12.13127,23.38128,1006.856
36.269519806,10.89298,-4.473144,7.455196,-0.9819152,0.04131673,-0.08988461,16.33516,11.3962,22.55927,1006.856
36.302078247,3.448156,-3.699892,10.27037,-0.954895,0.05163883,-0.1443748,16.33516,11.3962,22.55927,1006.861
36.334636688,8.739517,-2.153387,11.24956,-0.9845695,0.01986346,-0.08247531,16.69595,11.76266,22.55547,1006.859
36.369699955,22.64472,4.924845,8.373187,-0.9938132,0.05724548,-0.09978103,16.7,11.39627,22.11201,1006.859
36.402258396,3.940376,1.355988,8.923982,-0.9592558,0.05011516,-0.1424603,16.7,11.39627,22.11201,1006.859
36.434816837,-6.949984,-0.4879208,8.311988,-0.986915,0.03340593,-0.1808753,17.4313,11.39898,21.66356,1006.859
36.469880104,6.339947,-4.770548,8.373187,-0.9800221,0.07991111,-0.1279678,16.33352,11.39362,22.1132,1006.857
36.502438545,6.401474,-4.770548,4.884822,-0.9851885,0.1094024,-0.1086612,16.33352,11.39362,22.1132,1006.859
36.534996986,-5.965544,-9.707466,-0.317127,-0.9797226,0.09262581,-0.1442089,17.07215,11.0351,22.11343,1006.859
36.567555427,-11.37996,-11.13501,-0.8679216,-0.9647889,0.01760612,-0.17002,16.71215,10.29709,20.78163,1006.859
36.602617741,5.355508,-13.15736,-0.1335288,-0.9733022,0.01560556,-0.07578387,16.71215,10.29709,20.78163,1006.859
36.635176182,-0.7972381,-7.268748,-0.5007252,-0.9797457,0.1150218,-0.04670845,17.08025,10.30232,21.22651,1006.857
36.667734623,-14.88703,-4.116258,0.7844621,-0.975025,0.07688773,-0.09031533,16.71215,10.29709,20.78163,1006.862
36.702797890,-8.365116,-3.640411,2.742843,-0.9750283,0.03652235,-0.08464725,16.71215,10.29709,20.78163,1006.863
36.735356331,-0.4896008,-0.8448064,2.498045,-0.9743775,0.1012772,-0.1078288,16.71783,9.933275,20.78424,1006.862
36.767914772,-2.089315,-1.73702,1.02926,-0.9636351,0.06004015,-0.09348362,17.0843,9.935923,20.78305,1006.862
36.802978039,8.862572,0.8206599,3.722033,-0.9720194,0.07344316,-0.07248584,17.0843,9.935923,20.78305,1006.863
36.835536480,7.385914,3.97315,5.313218,-0.9777139,0.05597313,-0.09449882,17.08835,9.569529,20.33959,1006.863
