Time (s),Gyroscope X (deg/s),Gyroscope Y (deg/s),Gyroscope Z (deg/s),Accelerometer X (g),Accelerometer Y (g),Accelerometer Z (g),Magnetometer X (uT),Magnetometer Y (uT),Magnetometer Z (uT),Barometer (hPa)
0.002106667,2.158841,0.2858533,1.666299,0.07368589,-0.7290136,0.6671115,-13.03372,45.84116,-18.2126,1008.341
0.036758423,-1.03554,-0.0692568,0.3179843,0.04525521,-0.7106501,0.7012681,-13.03372,45.84116,-18.2126,1008.337
0.068934917,-2.571301,-0.3651819,0.07283618,0.05243949,-0.7316034,0.6952444,-11.51696,44.68197,-17.76848,1008.337
0.103586674,2.527424,-0.0692568,-0.1723119,0.05101121,-0.7122208,0.6901155,-11.90016,45.44392,-18.21655,1008.339
0.135763168,-0.2983752,-0.0692568,0.4405583,0.05457074,-0.7048538,0.703639,-11.90016,45.44392,-18.21655,1008.339
0.167935848,-0.7283881,-0.01007179,0.1341232,0.04512194,-0.7262456,0.6929469,-12.2668,45.07952,-17.32019,1008.339
0.202587605,0.07020722,-0.1876268,0.1341232,0.04959032,-0.7184609,0.6982713,-12.27862,44.68702,-18.21089,1008.335
0.234764099,0.1316376,0.1082982,0.1954102,0.04858421,-0.7238026,0.6972727,-12.27862,44.68702,-18.21089,1008.333
0.269416332,1.175955,0.04911323,0.07283618,0.05056167,-0.7087985,0.6930399,-12.6563,45.07352,-18.21082,1008.333
0.301592827,0.5002201,-0.01007179,-0.04973787,0.05203195,-0.7150865,0.6968303,-12.27207,45.83611,-17.77019,1008.333
0.336244583,-0.2369448,-0.2468118,0.3179843,0.04908005,-0.7189622,0.6958619,-12.27207,45.83611,-17.77019,1008.333
0.368417263,0.5616505,-0.01007179,0.1341232,0.05349772,-0.7126743,0.6958725,-12.65026,45.46034,-17.7664,1008.333
0.403069019,0.3773593,0.04911323,0.07283618,0.04716274,-0.7184374,0.6997401,-12.2781,45.44929,-18.21461,1008.329
0.435245514,0.7459418,0.1674833,0.01154915,0.05106412,-0.714107,0.6973294,-12.27836,45.06815,-18.21275,1008.329
0.469897270,-0.6055273,0.2858533,0.07283618,0.0491911,-0.7058049,0.7027173,-12.27836,45.06815,-18.21275,1008.331
0.502074242,-1.711275,-0.1284418,0.1954102,0.04662598,-0.7175122,0.6934868,-12.27258,45.07384,-17.76647,1008.331
0.536725998,0.2544985,-0.1284418,0.1954102,0.05147136,-0.7248214,0.6928993,-12.2668,45.07952,-17.32019,1008.333
0.568898678,2.03598,-0.01007179,0.07283618,0.05838162,-0.7184978,0.6991529,-12.2668,45.07952,-17.32019,1008.333
0.603550434,0.7459418,-0.1284418,0.07283618,0.0539776,-0.7136512,0.695378,-12.65026,45.46034,-17.7664,1008.329
0.635726929,-0.3598056,0.1082982,0.07283618,0.04765622,-0.7073128,0.6950073,-12.28362,45.82474,-18.66275,1008.329
0.667903423,-0.6669577,-0.1284418,0.1341232,0.05495973,-0.7160683,0.6972769,-12.28362,45.82474,-18.66275,1008.329
0.702555180,0.5002201,-0.0692568,-0.04973787,0.05248589,-0.7252748,0.697706,-12.27258,45.07384,-17.76647,1008.329
0.734731674,1.605968,-0.01007179,0.01154915,0.05053539,-0.7112402,0.691092,-12.65578,45.83579,-18.21454,1008.327
0.769379616,0.7459418,-0.0692568,0.1954102,0.04909791,-0.7107252,0.6940016,-12.65578,45.83579,-18.21454,1008.328
0.801556110,0.1930681,0.04911323,0.07283618,0.04812416,-0.7131363,0.6954369,-12.65604,45.45465,-18.21268,1008.328
0.836207390,-0.3598056,0.04911323,0.07283618,0.05840981,-0.7136364,0.7001567,-12.65052,45.07921,-17.76454,1008.328
0.868384838,0.3773593,0.1674833,0.1341232,0.05005576,-0.7150988,0.6939566,-12.65052,45.07921,-17.76454,1008.324
0.903036118,-0.2369448,0.04911323,0.3792713,0.05203606,-0.7160498,0.6977863,-13.03976,45.45434,-18.65702,1008.324
0.935212612,-0.1755144,-0.2468118,0.1341232,0.05201178,-0.7180062,0.6958424,-12.27258,45.07384,-17.76647,1008.326
0.969860077,2.158841,0.2858533,0.1954102,0.04955576,-0.7180087,0.6939373,-12.27258,45.07384,-17.76647,1008.328
1.002037048,1.360246,0.1082982,-0.2335989,0.05306248,-0.7106895,0.7011949,-12.65052,45.07921,-17.76454,1008.328
1.036688805,-0.2369448,-0.01007179,0.3792713,0.04966893,-0.7063001,0.7017448,-11.89438,45.4496,-17.77026,1008.326
1.068865299,-1.281262,-0.0692568,0.07283618,0.05446986,-0.7184854,0.6982256,-11.89438,45.4496,-17.77026,1008.327
1.103517056,0.3773593,-0.01007179,0.1954102,0.05051151,-0.7209333,0.6929404,-12.2781,45.44929,-18.21461,1008.327
1.135693550,0.8688026,-0.01007179,0.1341232,0.04870707,-0.7028974,0.7017818,-11.5167,45.0631,-17.77034,1008.329
1.167866230,-2.018427,0.1082982,0.1954102,0.05644948,-0.7058972,0.6954188,-11.5167,45.0631,-17.77034,1008.327
1.202517986,-1.465553,-0.0692568,0.01154915,0.04855553,-0.718993,0.6915286,-12.65604,45.45465,-18.21268,1008.327
1.234694481,0.5002201,-0.1284418,0.1954102,0.04913858,-0.7116554,0.6992956,-12.65578,45.83579,-18.21454,1008.329
1.269346714,-0.6055273,-0.4243669,0.07283618,0.05346571,-0.7223747,0.6967569,-12.65578,45.83579,-18.21454,1008.33
1.301523209,1.605968,-0.3059969,0.07283618,0.05443942,-0.7189966,0.6948476,-12.27836,45.06815,-18.21275,1008.33
1.336174965,0.7459418,0.04911323,-0.1110249,0.05898044,-0.7014745,0.7041076,-12.65026,45.46034,-17.7664,1008.33
1.368347645,-1.956997,0.1082982,0.3179843,0.05698633,-0.7087566,0.7026203,-12.65026,45.46034,-17.7664,1008.33
1.402999401,-2.755592,0.2858533,0.1341232,0.04702921,-0.7291973,0.6890486,-12.27258,45.07384,-17.76647,1008.33
1.435175896,0.5616505,0.04911323,0.3792713,0.04459732,-0.7243422,0.6876655,-12.65001,45.84148,-17.76826,1008.328
1.469827652,1.175955,-0.0692568,0.2566972,0.04563358,-0.7126865,0.6891978,-12.2781,45.44929,-18.21461,1008.33
1.502004147,0.930233,-0.0692568,0.3179843,0.04912023,-0.7102214,0.6964156,-12.2781,45.44929,-18.21461,1008.33
1.536655426,-0.0526536,-0.1876268,0.07283618,0.04576157,-0.7130537,0.7046176,-12.27836,45.06815,-18.21275,1008.33
1.568828583,-0.851249,-0.1284418,0.01154915,0.05349337,-0.7068754,0.6925464,-12.6563,45.07352,-18.21082,1008.33
1.603479862,-0.1755144,-0.1876268,0.01154915,0.05393115,-0.7190127,0.6924422,-12.6563,45.07352,-18.21082,1008.327
1.635656357,0.8073722,-0.0692568,0.1341232,0.05979884,-0.7199982,0.6943074,-12.2781,45.44929,-18.21461,1008.329
1.670308590,0.07020722,0.04911323,0.3179843,0.05152779,-0.7160659,0.6953809,-13.02242,45.47139,-17.31818,1008.331
1.702485085,0.1930681,0.2858533,0.1954102,0.05450432,-0.7170033,0.7016114,-13.02242,45.47139,-17.31818,1008.331
1.734661579,-0.5440969,0.1082982,0.2566972,0.04473892,-0.7126078,0.6988468,-12.27258,45.07384,-17.76647,1008.331
1.769309521,-0.2983752,-0.01007179,0.1341232,0.04468866,-0.7228085,0.6977991,-12.27207,45.83611,-17.77019,1008.327
1.801486015,0.3773593,-0.01007179,0.1341232,0.04611977,-0.7180099,0.6915594,-12.27207,45.83611,-17.77019,1008.329
1.836137772,0.2544985,-0.2468118,0.01154915,0.04812029,-0.7170084,0.696851,-12.2668,45.07952,-17.32019,1008.332
1.868314266,0.07020722,-0.3059969,0.07283618,0.04810595,-0.7146035,0.6939789,-12.27232,45.45498,-17.76833,1008.328
1.902966022,0.2544985,0.04911323,0.01154915,0.05730635,-0.7219681,0.6890123,-12.27232,45.45498,-17.76833,1008.328
1.935142994,2.834576,0.2858533,-0.2335989,0.05447593,-0.7179963,0.6987116,-12.26655,45.46066,-17.32205,1008.33
1.969790459,0.3159289,-0.01007179,0.07283618,0.05417759,-0.6917087,0.708571,-12.27232,45.45498,-17.76833,1008.33
2.001966953,-4.291352,0.04911323,0.2566972,0.04810987,-0.7116986,0.6930389,-12.27232,45.45498,-17.76833,1008.332
2.036619186,-1.649844,-0.01007179,0.07283618,0.04986404,-0.7399352,0.6831497,-12.2668,45.07952,-17.32019,1008.328
2.068795681,2.588854,0.1082982,0.4405583,0.04954994,-0.7233332,0.6958215,-12.27232,45.45498,-17.76833,1008.328
2.103447437,2.650285,0.04911323,0.1341232,0.04871739,-0.706273,0.7046459,-12.27232,45.45498,-17.76833,1008.329
2.135623932,0.3159289,0.04911323,0.1954102,0.0457652,-0.7043462,0.7008334,-12.27784,45.83042,-18.21647,1008.329
2.170271397,-1.281262,0.04911323,0.1341232,0.05060069,-0.7169837,0.701648,-11.9062,45.0571,-18.66096,1008.325
2.202447891,-0.6055273,-0.3059969,-0.04973787,0.05055228,-0.7237977,0.6991823,-11.9062,45.0571,-18.66096,1008.327
2.234624863,0.1316376,-0.0692568,0.07283618,0.05584885,-0.7272742,0.6923562,-12.27232,45.45498,-17.76833,1008.329
2.269276142,2.097411,-0.01007179,-0.04973787,0.05243097,-0.723874,0.6904882,-12.27232,45.45498,-17.76833,1008.329
2.301452637,1.667398,0.04911323,0.1341232,0.05060005,-0.7044115,0.6954857,-12.27232,45.45498,-17.76833,1008.325
2.336104393,-0.7283881,0.2266683,0.1341232,0.05160072,-0.712131,0.7021607,-11.89413,45.83074,-17.77213,1008.327
2.368277073,-1.342692,0.1082982,0.2566972,0.0515765,-0.7150545,0.7006909,-12.27258,45.07384,-17.76647,1008.327
2.402928829,-1.342692,-0.1284418,0.1954102,0.04754531,-0.7233713,0.6895739,-12.2781,45.44929,-18.21461,1008.327
2.435105801,0.9916635,-0.2468118,0.07283618,0.04752103,-0.7253277,0.6876301,-12.2781,45.44929,-18.21461,1008.327
2.469757557,2.343132,0.04911323,0.1341232,0.05539687,-0.7156334,0.6910104,-11.89438,45.4496,-17.77026,1008.326
2.501934052,0.6845114,0.1082982,0.1341232,0.0492236,-0.7057753,0.7065732,-12.27207,45.83611,-17.77019,1008.326
2.536585808,-1.158401,-0.1876268,0.1341232,0.0496771,-0.7072598,0.7031828,-12.27207,45.83611,-17.77019,1008.328
2.568758488,-1.342692,-0.2468118,0.3792713,0.05392934,-0.7233664,0.6943344,-11.89464,45.06847,-17.7684,1008.328
2.603409767,-0.0526536,-0.2468118,0.2566972,0.05048938,-0.7253056,0.6924224,-12.65604,45.45465,-18.21268,1008.33
2.635586739,1.360246,0.1082982,0.1341232,0.04859386,-0.7136389,0.6935003,-12.65604,45.45465,-18.21268,1008.33
2.670238018,0.7459418,-0.01007179,0.07283618,0.04865254,-0.7092335,0.6983561,-12.27207,45.83611,-17.77019,1008.328
2.702414513,-1.404123,-0.1284418,0.2566972,0.04283761,-0.7072328,0.7022828,-12.27784,45.83042,-18.21647,1008.328
2.734591007,-1.711275,-0.3651819,0.07283618,0.04557534,-0.7257959,0.6886083,-12.27784,45.83042,-18.21647,1008.329
2.769238949,0.7459418,-0.0692568,0.01154915,0.05294535,-0.724336,0.6938535,-12.26655,45.46066,-17.32205,1008.327
2.801415443,1.421676,0.04911323,-0.04973787,0.05692985,-0.716545,0.6996646,-11.88886,45.07415,-17.32212,1008.327
2.836067677,0.8073722,-0.01007179,0.1954102,0.04814653,-0.7135995,0.6983249,-11.88886,45.07415,-17.32212,1008.329
2.868244171,0.07020722,-0.01007179,0.1341232,0.05548228,-0.71749,0.7020802,-12.65052,45.07921,-17.76454,1008.331
2.902895927,0.1930681,-0.01007179,0.1341232,0.05005375,-0.7155842,0.6939526,-12.27232,45.45498,-17.76833,1008.334
2.935072422,-0.0526536,0.1674833,0.01154915,0.05400829,-0.7179754,0.7011261,-12.27232,45.45498,-17.76833,1008.332
2.969720364,-0.1755144,0.1674833,0.1341232,0.04758549,-0.7146305,0.6901276,-12.64448,45.46603,-17.32012,1008.332
3.001896858,0.2544985,-0.1284418,-0.04973787,0.05300198,-0.7194488,0.6982313,-12.27258,45.07384,-17.76647,1008.332
3.036548615,0.5616505,0.04911323,-0.1110249,0.05255216,-0.7102239,0.6983116,-12.27258,45.07384,-17.76647,1008.334
3.068725109,2.281702,1.706294,0.2566972,0.05596182,-0.7116973,0.6982676,-11.89438,45.4496,-17.77026,1008.334
3.103376389,5.721805,1.943034,3.0759,0.04992601,-0.7200524,0.680903,-12.65001,45.84148,-17.76826,1008.334
3.135552883,7.318996,1.232813,1.972734,0.04415315,-0.6832713,0.789228,-12.65001,45.84148,-17.76826,1008.334
3.170200825,-4.967087,0.4042233,0.07283618,0.05740337,-0.7440867,0.6531612,-12.27784,45.83042,-18.21647,1008.331
3.202377319,1.298815,0.2858533,0.7469934,0.03856859,-0.6805028,0.703989,-12.27258,45.07384,-17.76647,1008.333
3.234553814,-5.765682,-1.371327,-0.294886,0.04473403,-0.7363071,0.7097375,-12.27258,45.07384,-17.76647,1008.331
3.269206047,-0.1755144,-2.495842,-1.581913,0.0442125,-0.7150581,0.6954575,-11.52222,45.43855,-18.21848,1008.333
3.301382542,1.667398,-1.252957,-0.7851821,0.05777492,-0.7002276,0.6761732,-12.2781,45.44929,-18.21461,1008.331
3.336034298,6.090388,2.357329,1.176003,0.02750596,-0.7005357,0.6166852,-12.2781,45.44929,-18.21461,1008.331
3.368206978,-16.27028,-0.2468118,-1.949636,0.07516272,-0.7362253,0.6140183,-12.27258,45.07384,-17.76647,1008.331
3.402858734,-0.6669577,1.114444,-0.6013211,0.0412809,-0.7189155,0.6968991,-11.90042,45.06278,-18.21468,1008.333
3.435035229,5.168931,1.232813,1.23729,0.0576368,-0.7404894,0.6792166,-12.27232,45.45498,-17.76833,1008.332
3.469686508,3.878893,0.1082982,-0.2335989,0.03946123,-0.6893251,0.7564459,-12.27232,45.45498,-17.76833,1008.334
3.501863003,-2.325579,-0.4835519,-0.04973787,0.05141742,-0.7026263,0.6757308,-12.27232,45.45498,-17.76833,1008.334
3.536514759,-3.92277,-0.7794769,-0.04973787,0.03947401,-0.6926611,0.7014704,-11.90042,45.06278,-18.21468,1008.334
3.568687439,-6.564277,0.5225934,-0.2335989,0.07209746,-0.7561994,0.6654562,-11.90042,45.06278,-18.21468,1008.334
3.603339195,-3.185605,1.883849,-0.2335989,0.0587943,-0.7078927,0.6269366,-11.90016,45.44392,-18.21655,1008.332
3.635515690,4.124615,1.291999,1.176003,0.02521424,-0.7042947,0.6942775,-12.27258,45.07384,-17.76647,1008.335
3.670167923,2.404563,-0.1876268,0.6244195,0.04685377,-0.6912297,0.7660013,-12.27258,45.07384,-17.76647,1008.335
3.702344418,-2.018427,-0.5427369,-0.41746,0.05130308,-0.7312608,0.6759778,-11.89438,45.4496,-17.77026,1008.335
3.734520912,-1.465553,-1.193772,0.3792713,0.0488074,-0.6786277,0.7019809,-11.9062,45.0571,-18.66096,1008.339
3.769168854,3.51031,-2.377472,-0.8464692,0.03830599,-0.749892,0.7063115,-11.9062,45.0571,-18.66096,1008.337
3.801345348,4.124615,-0.3651819,-0.6626081,0.06681141,-0.7198305,0.6576114,-12.64423,45.84716,-17.32198,1008.338
3.835996628,2.03598,1.291999,0.1954102,0.0500052,-0.7194968,0.6900649,-11.89438,45.4496,-17.77026,1008.338
3.868173122,3.940323,1.232813,1.114716,0.05063534,-0.71937,0.70693,-11.89438,45.4496,-17.77026,1008.338
3.902846813,2.097411,0.1082982,0.8082805,0.04435095,-0.689824,0.7578422,-12.66208,45.06784,-18.6571,1008.34
3.935023308,-4.291352,-0.01007179,-0.41746,0.05606687,-0.7318742,0.6624323,-12.2781,45.44929,-18.21461,1008.342
3.969671249,2.834576,-0.3651819,0.8082805,0.04249905,-0.6887188,0.7111146,-12.2781,45.44929,-18.21461,1008.344
4.001847744,-5.827112,-2.318287,-0.9077562,0.05104513,-0.740237,0.7077182,-12.27836,45.06815,-18.21275,1008.34
4.036499500,2.404563,1.173629,-1.03033,0.04204529,-0.7369301,0.5641935,-12.27258,45.07384,-17.76647,1008.34
4.068676472,-12.52303,-0.957032,-2.562506,0.05123217,-0.6863161,0.5876611,-12.27258,45.07384,-17.76647,1008.341
4.103328228,-2.387009,0.04911323,-0.6013211,0.0319549,-0.718435,0.6902421,-12.27258,45.07384,-17.76647,1008.343
4.135504723,-2.202718,-0.4243669,-0.1110249,0.05737018,-0.738835,0.7047787,-12.26603,46.22292,-17.32577,1008.343
4.170152664,4.984641,0.04911323,0.01154915,0.0489988,-0.719036,0.6862221,-12.26603,46.22292,-17.32577,1008.343
4.202329159,0.930233,0.1674833,0.4405583,0.04527298,-0.7004791,0.6984598,-12.27784,45.83042,-18.21647,1008.343
4.234505653,-1.465553,0.1674833,0.3179843,0.0458,-0.7096338,0.7075374,-12.65001,45.84148,-17.76826,1008.343
4.269156933,-1.895566,-0.4243669,0.3179843,0.05154581,-0.7107302,0.6949428,-12.65001,45.84148,-17.76826,1008.341
4.301333427,-1.219831,-0.3059969,0.07283618,0.05090015,-0.7253782,0.6832601,-12.6563,45.07352,-18.21082,1008.341
4.335985184,2.711715,0.1674833,0.1954102,0.05291095,-0.7267851,0.6909416,-12.27207,45.83611,-17.77019,1008.343
4.368157864,1.667398,0.04911323,0.1341232,0.05210698,-0.7126004,0.7045621,-12.27207,45.83611,-17.77019,1008.344
4.403105259,-1.526984,0.04911323,0.1341232,0.04624723,-0.7077391,0.7017648,-11.89438,45.4496,-17.77026,1008.344
4.435281754,-0.7283881,-0.01007179,0.01154915,0.04850903,-0.7233874,0.6881188,-12.6563,45.07352,-18.21082,1008.346
4.469933033,0.3773593,-0.1876268,0.1954102,0.05585497,-0.7277522,0.6933162,-12.27836,45.06815,-18.21275,1008.344
4.502109528,1.237385,0.04911323,0.01154915,0.05055625,-0.7218598,0.6987163,-12.27836,45.06815,-18.21275,1008.346
4.536761284,0.9916635,-0.1876268,0.1954102,0.04869498,-0.7048427,0.7012839,-12.65026,45.46034,-17.7664,1008.348
4.568933964,0.008776814,-0.0692568,0.1341232,0.04620073,-0.7121335,0.6983551,-12.27232,45.45498,-17.76833,1008.348
4.603585720,-0.4826665,-0.01007179,0.1954102,0.04955997,-0.7209063,0.6958414,-12.27232,45.45498,-17.76833,1008.348
4.635762215,0.2544985,0.1674833,0.07283618,0.05585267,-0.7224351,0.6904681,-12.27207,45.83611,-17.77019,1008.348
4.670413971,-0.114084,-0.01007179,0.01154915,0.05103783,-0.7165487,0.6953815,-11.89413,45.83074,-17.77213,1008.349
4.702590466,-0.2983752,-0.0692568,0.2566972,0.04712422,-0.7199231,0.6958722,-11.89413,45.83074,-17.77213,1008.345
4.734766960,1.053094,-0.1284418,0.01154915,0.05493555,-0.7199588,0.6962811,-12.26655,45.46066,-17.32205,1008.345
4.769414902,0.07020722,0.04911323,0.1954102,0.04765642,-0.7111811,0.6969034,-12.27207,45.83611,-17.77019,1008.347
4.801591396,-0.3598056,-0.0692568,0.07283618,0.04373473,-0.71553,0.6969041,-12.27207,45.83611,-17.77019,1008.349
4.836242676,0.4387897,-0.3651819,-0.1723119,0.04803087,-0.7161225,0.6857732,-12.27232,45.45498,-17.76833,1008.345
4.868419170,0.6845114,0.1082982,-0.1723119,0.05785339,-0.7253019,0.6976557,-11.88309,45.07984,-16.87584,1008.345
4.903071403,3.694602,0.1082982,-0.04973787,0.05313762,-0.7101376,0.7098748,-11.88309,45.07984,-16.87584,1008.347
4.935247898,-4.782795,-0.4835519,0.2566972,0.06144982,-0.6845349,0.6994043,-12.2781,45.44929,-18.21461,1008.347
4.969895840,-6.871429,0.04911323,0.6857064,0.05084161,-0.732685,0.6798263,-12.26706,44.69839,-17.31833,1008.345
5.002072334,-0.421236,0.1082982,0.2566972,0.0366649,-0.7398909,0.6803812,-12.26706,44.69839,-17.31833,1008.345
5.036724091,5.414653,0.1082982,-0.6626081,0.04165898,-0.7151493,0.6819847,-12.26102,45.08521,-16.87391,1008.345
5.068900585,2.343132,0.2858533,-0.1723119,0.05221971,-0.692188,0.7081034,-12.26655,45.46066,-17.32205,1008.341
5.103551865,-4.291352,-0.4835519,-0.1110249,0.05399204,-0.7179902,0.6991981,-12.26655,45.46066,-17.32205,1008.341
5.135728359,-1.281262,-0.01007179,0.01154915,0.05717508,-0.7370781,0.680695,-11.89413,45.83074,-17.77213,1008.343
5.170376301,2.711715,0.1674833,0.2566972,0.05488479,-0.7204886,0.6904932,-12.27232,45.45498,-17.76833,1008.344
5.202552795,0.7459418,-0.1284418,0.1954102,0.05159676,-0.7140688,0.7026268,-12.27232,45.45498,-17.76833,1008.344
5.234729290,-1.404123,-0.1876268,0.1341232,0.05249974,-0.7180086,0.6958379,-12.27232,45.45498,-17.76833,1008.346
5.269381046,0.5002201,-0.01007179,0.4405583,0.04953149,-0.719965,0.6919935,-12.2781,45.44929,-18.21461,1008.346
5.301557541,-0.114084,-0.01007179,0.1341232,0.04422483,-0.7179483,0.6983256,-12.2781,45.44929,-18.21461,1008.348
5.336208820,-0.114084,-0.01007179,0.2566972,0.04815656,-0.7111725,0.6983448,-12.2781,45.44929,-18.21461,1008.35
5.368381977,-2.694161,-0.3651819,0.1954102,0.04368808,-0.7170231,0.6920722,-12.65001,45.84148,-17.76826,1008.347
5.403033257,-0.5440969,-0.2468118,0.01154915,0.05137239,-0.7360335,0.6865418,-11.89438,45.4496,-17.77026,1008.349
5.435209751,2.711715,-0.01007179,0.01154915,0.05340277,-0.7229155,0.689523,-11.89438,45.4496,-17.77026,1008.351
5.469861984,1.91312,-0.0692568,0.1341232,0.05163479,-0.7029122,0.7017544,-11.89438,45.4496,-17.77026,1008.351
5.502038479,-1.404123,-0.1876268,0.1341232,0.04768265,-0.7077723,0.6983772,-12.26655,45.46066,-17.32205,1008.347
5.536690235,-1.956997,-0.01007179,0.3179843,0.05293904,-0.7199896,0.6909974,-12.26655,45.46066,-17.32205,1008.349
5.568862915,0.07020722,-0.1876268,0.1954102,0.04852538,-0.7253069,0.6909947,-12.26655,45.46066,-17.32205,1008.349
5.603514195,0.2544985,-0.0692568,0.1954102,0.04711805,-0.7184781,0.6944382,-12.27784,45.83042,-18.21647,1008.349
5.635690689,0.623081,-0.1876268,0.1954102,0.04807771,-0.7184978,0.6925011,-12.27784,45.83042,-18.21647,1008.349
5.670342446,0.8073722,-0.1284418,0.07283618,0.04853918,-0.7170736,0.6886525,-11.52222,45.43855,-18.21848,1008.349
5.702518940,-0.4826665,-0.0692568,0.2566972,0.04766053,-0.7121445,0.6978593,-12.26051,45.84748,-16.87763,1008.348
5.737170696,-0.4826665,0.04911323,0.07283618,0.0461161,-0.7257504,0.6948696,-12.26051,45.84748,-16.87763,1008.348
5.769343376,0.7459418,0.2858533,-0.1723119,0.04857961,-0.7131683,0.6915764,-12.64423,45.84716,-17.32198,1008.352
5.801519871,-1.158401,0.1082982,0.01154915,0.04813204,-0.7082935,0.6940307,-12.27232,45.45498,-17.76833,1008.352
5.836171627,-1.03554,-0.4243669,0.1341232,0.05100152,-0.7214175,0.6934137,-12.27232,45.45498,-17.76833,1008.35
5.868348122,1.175955,-0.2468118,0.1341232,0.05323254,-0.7308075,0.6730716,-12.65001,45.84148,-17.76826,1008.353
5.903084278,3.817462,0.4634083,0.07283618,0.04965302,-0.7130845,0.703135,-11.89387,46.21187,-17.77399,1008.355
5.935260773,0.930233,-0.1284418,0.01154915,0.04979051,-0.7003867,0.7133604,-11.89387,46.21187,-17.77399,1008.357
5.969907761,-1.772705,-1.312142,0.2566972,0.03170316,-0.6896872,0.7044594,-12.64448,45.46603,-17.32012,1008.358
6.002084732,-34.8837,-3.620358,5.34352,0.08574531,-0.4334818,0.8559691,-12.27181,46.21724,-17.77205,1008.358
6.036736488,-234.4711,-3.206063,3.750057,0.01827971,-0.370953,0.9274861,-12.27181,46.21724,-17.77205,1008.362
6.068912983,-347.5031,-27.70866,-6.60745,0.03112258,-0.7288634,0.5961739,-11.87101,45.85348,-15.987,1008.36
6.103564739,-384.4228,-33.56797,-37.86383,0.04446631,-0.8543172,0.3863094,-11.34594,47.51639,-4.711856,1008.362
6.135741234,-506.5464,-25.81474,-84.19682,0.09953831,-1.126494,-0.1297777,-11.34594,47.51639,-4.711856,1008.362
6.170388699,-513.6109,-5.395908,-138.7423,0.1850588,-1.706902,-0.8805318,-12.27536,48.49536,11.03755,1008.362
6.202565193,-247.1258,45.73994,-149.2224,0.2929427,-1.977382,-1.268404,-13.55104,42.65502,29.62758,1008.362
6.237216950,-17.56032,54.49932,-187.7719,0.07257853,-1.274069,-0.6537122,-13.55104,42.65502,29.62758,1008.357
6.269393444,8.117592,41.83373,-201.3163,0.3709312,-1.005956,-0.8779336,-18.07194,29.02128,36.41262,1008.359
6.301569939,19.78937,83.38161,-190.0395,0.5666904,-0.9149081,-1.029876,-22.23998,21.76959,36.02328,1008.357
6.336222172,28.9425,102.3208,-186.9752,0.7063808,-0.7501453,-1.037051,-22.23998,21.76959,36.02328,1008.357
6.368394375,2.343132,146.6504,-173.6146,0.6964374,-0.632906,-0.8831974,-26.42955,16.84548,33.83733,1008.357
6.403046608,32.93547,166.8325,-156.1478,0.5332133,-0.6164262,-0.8024906,-30.32789,12.21096,29.79935,1008.354
6.435223103,92.89156,172.3367,-151.9803,0.4855333,-0.4299963,-0.7012169,-34.9133,7.655494,26.21089,1008.352
6.469873905,77.84112,189.2636,-145.1161,0.3970146,-0.1374716,-0.4005856,-34.9133,7.655494,26.21089,1008.35
6.502050877,33.73407,170.4428,-138.4358,0.4081682,0.1059408,-0.2362492,-39.15937,4.580206,19.55284,1008.345
6.536702633,3.756032,171.4489,-102.5216,0.5122514,0.2747266,-0.1852189,-42.32418,1.05561,13.72029,1008.345
6.568875313,-22.10617,186.4227,-58.02726,0.5142852,0.3457266,0.02260717,-42.32418,1.05561,13.72029,1008.343
6.603527069,-48.02981,190.98,-14.02318,0.4186509,0.3036963,-0.01347892,-44.3108,-3.202599,6.482428,1008.343
6.635703564,-44.774,232.3503,25.99725,0.429686,0.2909334,-0.08791502,-45.16728,-5.576118,-1.153065,1008.335
6.670354843,-879.0604,724.5328,-8.139625,-3.486882,0.8837347,15.79732,-45.16728,-5.576118,-1.153065,1008.334
6.702531338,591.8294,-71.68312,15.63974,-0.5444106,0.2720262,-1.59487,-45.67373,-5.316307,-11.09867,1008.334
6.737183094,202.6677,-127.0211,-88.79335,1.278325,-0.9752649,-1.159923,-43.4224,-3.841039,-12.45656,1008.332
6.769355774,138.7187,114.217,6.446687,0.9905295,0.63871,0.7469519,-43.4224,-3.841039,-12.45656,1008.33
6.801532268,-4.107061,-18.8309,53.88284,0.4757487,0.4851973,0.7124118,-43.41316,-7.25987,-11.54725,1008.324
6.836184025,-50.42559,-16.58187,41.13514,1.066417,-0.2647447,0.458272,-42.66909,-7.663111,-12.44182,1008.326
6.868360519,7.626148,9.992195,38.4998,0.5986097,-0.3154498,0.505117,-42.66909,-7.663111,-12.44182,1008.326
6.903011799,66.78364,-38.53952,28.81645,0.6447057,-0.3555349,0.4349485,-44.54016,-5.713546,-11.10261,1008.324
6.935188293,120.6581,8.157459,43.09633,0.5551444,-0.174212,0.6652648,-44.1612,-4.19438,-11.11199,1008.323
6.969836235,160.8336,-13.85937,57.13106,0.3130365,-0.05131958,0.773131,-44.1612,-4.19438,-11.11199,1008.321
7.002012730,138.8415,-38.00685,67.61114,0.5222697,0.004037607,0.8482729,-44.53254,-4.182515,-10.60002,1008.321
7.036664963,79.68403,-43.62943,79.37824,0.5236248,0.002071795,0.7200322,-44.13675,-3.408562,-9.266836,1008.323
7.068841457,75.93678,-70.61779,110.7572,0.6979781,-0.1498745,0.5773728,-44.13675,-3.408562,-9.266836,1008.323
7.103492260,123.6682,-56.29502,133.0657,0.6743087,-0.2083813,0.4021455,-45.25246,-2.232002,-7.927774,1008.324
7.135669231,163.168,-57.24198,160.7061,0.5470067,-0.113394,0.3641104,-45.59894,1.613127,-5.713045,1008.32
7.170316696,172.1368,-55.5848,189.94,0.7497929,-0.1532501,0.2987477,-45.59894,1.613127,-5.713045,1008.32
7.202493668,178.3413,-22.08608,213.0452,0.639024,-0.1589436,0.2443044,-45.18815,6.274119,-3.44246,1008.324
7.237145424,118.8766,0.2266683,245.0984,0.8422063,-0.2390592,0.2456041,-44.43342,13.1181,-3.926103,1008.324
7.269321919,57.20049,42.18884,250.4303,0.6653823,-0.4433698,0.3246176,-44.43342,13.1181,-3.926103,1008.326
7.301498413,-5.581391,115.1048,283.8317,1.667661,-1.140726,0.4203761,-41.3717,20.35008,-6.272718,1008.327
7.336149693,163.5365,103.978,268.6938,-0.2030498,-0.7882739,0.9237009,-36.09248,28.26167,-7.67771,1008.329
7.368322373,139.4558,112.619,208.3261,-0.4861915,-0.7157668,0.7023289,-36.09248,28.26167,-7.67771,1008.329
7.402974129,-22.59761,78.46925,196.559,-0.07800181,-0.5509053,0.881111,-28.18662,35.73677,-15.40669,1008.329
7.435150623,-47.66123,58.1688,165.1801,0.08080512,-0.9962394,1.644265,-21.45124,38.23986,-20.80989,1008.33
7.469802380,-488.9159,12.77389,88.14229,-0.2030911,-1.601342,2.300337,-12.30956,41.60953,-20.42741,1008.332
7.501978874,-169.6006,-14.27366,-88.11919,0.02310599,-2.397657,-0.3641559,-12.30956,41.60953,-20.42741,1008.336
7.536630154,358.8238,-23.26978,-59.92716,0.106001,-0.8549135,0.1596726,-6.829857,45.90956,-6.130215,1008.334
7.568802834,280.5615,2.416514,-25.48385,0.1452879,0.07360507,0.4368805,-8.76475,47.41546,-9.698235,1008.335
7.603454590,-70.39047,6.0268,2.953326,0.2556699,-0.04786038,0.6811509,-8.76475,47.41546,-9.698235,1008.335
7.635631085,-171.935,8.335014,21.46201,0.1552393,-0.8249998,0.5460232,-10.37762,44.29041,-17.32614,1008.337
7.670282841,-53.00567,13.18819,14.9043,0.06823527,-1.122463,0.4990749,-9.563444,45.09879,-12.87092,1008.337
7.702459812,18.13075,15.73314,-5.197848,0.1106773,-1.103418,0.6043937,-9.563444,45.09879,-12.87092,1008.335
7.737110615,58.30624,13.36574,-24.13554,0.0337264,-0.9027366,0.5836303,-9.5327,46.65256,-10.58321,1008.338
7.769283295,19.29793,12.06367,-40.00888,0.08022483,-0.6592337,0.6565397,-9.556895,46.24788,-12.43022,1008.338
7.801459789,-37.40235,2.534884,-31.91899,-0.02418979,-0.6079256,0.6338371,-9.556895,46.24788,-12.43022,1008.342
7.836112022,-93.54974,-2.259102,-22.72594,0.0249076,-0.6977661,0.5964883,-10.69752,44.73376,-12.86326,1008.345
7.868288517,-71.12764,10.22894,-13.59417,0.1505451,-1.009902,0.4833288,-12.17853,46.30901,-10.56781,1008.343
7.902940273,39.69282,12.95145,-16.84238,0.07129065,-1.035803,0.4722869,-12.17853,46.30901,-10.56781,1008.345
7.935116768,66.78364,11.47182,-15.06506,0.1459978,-0.7770902,0.5845825,-12.90552,46.34817,-8.332538,1008.345
7.969763756,23.41376,11.76775,-16.7811,0.137344,-0.7324773,0.636605,-13.30632,46.71193,-10.11759,1008.345
8.001940727,12.54058,11.9453,-13.77803,0.1176508,-0.7987496,0.5899705,-13.30632,46.71193,-10.11759,1008.344
8.036592484,15.79639,8.74931,-10.65239,0.1222735,-0.757979,0.6558153,-14.07427,45.94903,-11.00256,1008.346
8.068768978,5.598945,5.494134,-9.242791,0.04344527,-0.7674977,0.6294804,-15.23202,45.94159,-12.84563,1008.348
8.103420258,10.26766,5.494134,-3.972107,0.1651906,-0.7480614,0.6477847,-15.23202,45.94159,-12.84563,1008.346
8.135596752,10.7591,8.571754,-0.7851821,0.2743509,-0.7622811,0.6365268,-14.4764,45.54972,-12.84764,1008.346
8.170244694,17.20929,5.612504,4.791937,0.1257984,-0.7080894,0.6446258,-14.86063,44.78713,-13.28827,1008.348
8.202421188,-5.335669,0.9960735,7.978862,0.1225295,-0.7176101,0.6667497,-14.86063,44.78713,-13.28827,1008.349
8.237072945,-6.748569,7.151315,19.43954,0.1134,-0.729449,0.5732294,-14.11002,45.53298,-13.74214,1008.351
8.269249439,-13.44448,10.22894,29.18417,-0.08581082,-0.7063525,0.6075727,-14.11053,44.77071,-13.73841,1008.353
8.301425934,-32.18076,17.56788,46.83484,-0.1453596,-0.7364966,0.5625718,-14.11053,44.77071,-13.73841,1008.353
8.336077213,-45.01972,19.93528,54.0667,-0.1883849,-0.807405,0.5291308,-12.59274,45.13605,-13.30173,1008.351
8.368249893,-32.67221,6.441094,40.76742,-0.1387817,-1.017678,0.6103203,-11.44711,45.51245,-12.41683,1008.354
8.402901650,-21.98331,-34.10064,25.32309,-0.1910229,-0.944423,0.5718877,-8.788688,47.39191,-11.54711,1008.354
8.435078144,20.52654,-25.81474,45.42524,-0.02630173,-1.102119,0.6215886,-8.788688,47.39191,-11.54711,1008.356
8.469730377,41.35144,23.24964,88.14229,-0.2715603,-1.29366,0.7389419,-7.270326,47.37693,-11.04481,1008.356
8.501905918,-49.87272,-62.45026,61.11471,0.3624799,-0.6319647,0.7240208,-5.393009,47.33791,-12.0108,1008.354
8.536557675,-104.9758,-47.00297,99.11266,-0.0197111,-0.7465782,0.5950562,-5.393009,47.33791,-12.0108,1008.354
8.568730354,-26.03772,-42.20899,106.4671,0.05257277,-0.9690992,0.3611875,-2.723495,47.32388,-10.17546,1008.354
8.603382111,49.09167,-26.70251,90.34862,0.3325058,-0.8842783,0.5891885,1.909698,47.67381,-7.523163,1008.354
8.635559082,37.4199,-18.41661,100.5223,0.3215553,-0.5779121,0.5315664,1.909698,47.67381,-7.523163,1008.355
8.670209885,-79.66647,-12.143,69.63361,0.2379043,-0.4834618,0.5779516,4.904325,47.60244,-9.770037,1008.355
8.702386856,-37.34092,34.55397,85.01665,-0.2417312,-1.538994,0.2257216,8.70054,46.80354,-8.446812,1008.355
8.769210815,51.9789,76.16104,22.07488,-0.3934243,-0.4725395,0.7063604,12.17051,46.37888,-8.016397,1008.353
8.803863049,-37.89379,33.54783,5.95639,-0.6287549,-0.5168212,0.5399734,15.16462,45.54524,-10.25955,1008.355
8.836038589,-41.1496,18.75158,1.911447,-0.3399145,-0.8251458,0.3337426,15.16462,45.54524,-10.25955,1008.355
8.868216038,-13.0759,35.50093,5.649955,-0.5114836,-0.9610309,0.5405191,16.32104,44.7896,-8.476508,1008.355
8.902867317,-21.5533,17.39032,7.427279,-0.292779,-0.7599468,0.5107341,16.33285,45.18211,-7.585808,1008.357
8.935043812,-6.195695,31.2988,17.17192,-0.385678,-0.8234811,0.5202352,16.33285,45.18211,-7.585808,1008.354
8.969691753,-3.492757,29.99673,11.53351,-0.3992906,-0.7784321,0.5626675,16.33914,45.95006,-7.143249,1008.356
9.001868248,-38.75382,25.3803,2.46303,-0.3705886,-1.003442,0.5446388,17.10606,45.18843,-6.250834,1008.356
9.036519527,-9.697227,79.59377,-0.7238951,-0.2079631,-0.8401318,0.3637178,17.10606,45.18843,-6.250834,1008.354
9.068696022,8.547605,59.3525,3.811345,-0.3518552,-0.9403852,0.362306,17.87376,45.57019,-5.364,1008.356
9.103347778,43.44007,43.72765,27.52942,-0.6640537,-0.7641956,0.3498016,17.90296,44.83716,-3.065122,1008.356
9.135524273,-24.80911,14.54944,39.54168,-0.6835838,-0.7278404,0.3310036,17.90296,44.83716,-3.065122,1008.358
9.170171738,21.75514,5.612504,25.62952,-0.5133095,-0.8612168,0.3909752,18.64753,45.19619,-3.963411,1008.355
9.202348232,-18.35892,-4.330578,16.74291,-0.559403,-0.7035846,0.3464328,19.7811,44.79895,-3.967352,1008.355
9.236999989,-17.74461,7.624795,22.19745,-0.6871198,-0.7352609,0.4365333,19.7811,44.79895,-3.967352,1008.357
9.269176483,-26.59059,6.500279,14.84301,-0.6518844,-0.8296032,0.4359088,21.29812,44.02089,-3.525085,1008.359
9.303828240,-32.0579,-6.993904,8.714307,-0.5788883,-0.7421046,0.3111111,21.68736,43.64576,-2.632598,1008.361
9.336004734,-27.63491,-9.953155,21.58458,-0.6348815,-0.7833354,0.4043196,22.45505,44.02753,-1.745766,1008.362
9.368177414,-30.46071,-28.47806,28.32615,-0.5507237,-0.7694514,0.3077309,22.45505,44.02753,-1.745766,1008.362
9.402828693,-72.23338,-58.54405,35.00644,-0.3669642,-0.8705842,0.2145666,22.83273,43.64103,-1.745838,1008.358
9.435005188,-5.827112,-54.16436,52.53453,-0.587767,-0.7005602,0.2797245,23.59991,43.26052,-0.8552837,1008.358
9.469656944,-49.13556,-68.07284,54.25057,-0.4762311,-0.6921228,0.2498334,23.59991,43.26052,-0.8552837,1008.36
9.501833916,-35.74373,-64.40337,68.77559,-0.4906106,-0.6260105,0.1907446,25.55209,42.47052,-0.8615551,1008.36
9.536484718,17.94646,-53.39495,87.71328,-0.715963,-0.6964045,0.295415,27.81287,40.84457,-1.311685,1008.36
9.568657398,21.878,-44.99068,88.93902,-0.4612544,-0.4633104,0.4116037,27.81287,40.84457,-1.311685,1008.356
9.603309155,-60.93019,-44.22128,86.48753,-0.5813748,-0.7046031,0.5779892,29.6842,39.27614,-2.652753,1008.356
9.635485649,-96.80555,-42.44573,74.23013,-0.405778,-0.9176868,0.4386702,32.70618,36.94639,-2.65706,1008.356
9.670136929,-14.98024,-16.64106,65.71124,-0.4986495,-0.7302613,0.388062,32.70618,36.94639,-2.65706,1008.354
9.702313423,0.008776814,4.073694,62.21788,-1.055773,-0.4749939,0.4016309,35.36203,35.01451,-1.768732,1008.356
9.736965656,50.81173,12.00449,67.05955,-0.8580526,-0.5791973,0.1709412,37.68007,33.4455,-2.665775,1008.356
9.769137859,151.7419,34.37642,63.07589,-1.568014,0.01393652,0.5328693,37.68007,33.4455,-2.665775,1008.356
9.803790092,43.44007,8.453384,20.5427,-1.169249,-0.7439795,0.4428882,39.18451,31.13154,-3.108627,1008.357
9.835966587,50.32028,10.16975,4.853224,-0.3800398,-0.1459313,0.4568424,40.68342,29.19303,-3.999619,1008.353
9.868143082,-14.24308,18.69239,14.414,-0.8162517,-0.6000167,0.3935453,40.68342,29.19303,-3.999619,1008.355
9.902832031,99.58748,37.39486,16.00746,-0.7451857,-0.1618261,-0.01465093,40.67739,28.80621,-4.44404,1008.355
9.935009003,-65.04603,31.00287,12.39153,-0.9376623,-0.4194719,0.3764046,41.05533,28.80084,-4.445974,1008.355
9.969656467,43.25578,37.86834,6.140252,-0.5399945,-0.3352658,0.09672046,41.05533,28.80084,-4.445974,1008.355
10.001832962,-16.45457,63.43626,25.62952,-0.7446221,-0.3182516,0.5349796,41.44979,27.6056,-3.103173,1008.357
10.036484241,-6.011404,74.08956,22.50389,-0.6602454,-0.2553281,0.4407212,42.2233,28.05658,-1.77037,1008.355
10.068660736,-18.78893,80.30399,28.26487,-0.8208157,-0.4840948,0.3169416,42.2233,28.05658,-1.77037,1008.355
10.103312969,-8.837202,75.33245,17.47835,-0.929572,-0.2800235,0.4006147,42.2635,26.50913,1.425102,1008.353
10.135489464,-55.52432,74.44467,26.61012,-1.027046,-0.6104079,0.1688868,43.0475,25.38342,3.65822,1008.353
10.170136452,28.57392,80.6591,22.13616,-0.8801131,-0.2233853,0.1610664,43.0475,25.38342,3.65822,1008.353
10.202312946,-31.56646,81.90199,26.79398,-0.9736004,-0.3029288,0.108263,43.08139,24.27412,6.341484,1008.355
10.236965179,4.431767,73.85282,21.64587,-1.133687,-0.3653542,-0.09657162,43.50035,23.92823,9.529131,1008.355
10.269141674,-17.74461,76.16104,33.10654,-0.7092071,-0.1694174,0.03122272,43.50035,23.92823,9.529131,1008.355
10.303793430,-25.6077,84.92043,40.15455,-0.9878711,-0.4025071,0.02611734,42.78389,22.45423,12.66441,1008.351
10.335969448,3.018867,82.07954,44.26078,-1.069956,-0.2295581,-0.06953681,42.44645,21.3568,15.85964,1008.352
10.368141651,-18.91179,79.0611,41.13514,-1.065594,-0.3373312,-0.1953039,42.44645,21.3568,15.85964,1008.352
10.402793884,-5.45853,73.43853,47.0187,-0.9771919,-0.246828,-0.1722467,41.72998,19.8828,18.99492,1008.352
10.434970379,-11.23299,78.88355,45.48652,-0.9972381,-0.233782,-0.06687616,41.76419,18.01205,21.74566,1008.352
10.469622135,1.360246,74.26712,48.36701,-1.183102,-0.2824602,-0.267983,40.2869,16.54391,24.50227,1008.354
10.501798153,11.86485,75.21408,50.51206,-1.153019,-0.2209457,-0.2022046,40.2869,16.54391,24.50227,1008.35
10.536449909,11.61913,73.02423,53.82156,-1.285296,-0.1549597,-0.3537022,38.79723,15.06359,26.30257,1008.352
10.568622589,-3.92277,68.76292,59.21482,-1.283639,-0.1721257,-0.438691,37.70831,13.15599,29.88823,1008.354
10.603274346,-7.915746,57.7545,66.99826,-1.267092,-0.2384977,-0.4119186,37.70831,13.15599,29.88823,1008.354
10.635450840,-12.27731,26.68237,67.05955,-1.316006,-0.1205925,-0.1338225,35.39455,11.30129,31.31206,1008.354
10.670102120,-103.7472,-24.51267,25.2618,-1.182108,-0.1293436,-0.04934817,33.15477,9.837395,33.56251,1008.357
10.702278614,-144.9056,-42.68247,-12.24586,-1.078892,-0.2093056,-0.1555644,33.15477,9.837395,33.56251,1008.355
10.736930371,-138.6397,-56.41339,-49.99866,-0.9922813,-0.1500414,-0.156366,32.00677,7.173383,32.62502,1008.357
10.769103050,-81.26366,-53.45414,-28.73207,-0.9250705,0.2135564,-0.2320795,31.62105,2.98141,32.2649,1008.357
10.803754330,17.8236,-83.40176,44.75108,-0.7797604,0.1753125,-0.6921321,31.62105,2.98141,32.2649,1008.357
10.835930824,95.90166,6.085985,3.627484,-0.8960721,0.925971,0.08682278,32.35197,0.2164769,30.48924,1008.355
10.868107319,-209.0389,-111.0412,-38.72185,-1.220761,0.8996032,-0.2689725,32.72228,-1.319923,29.98471,1008.355
10.902759075,-422.4482,-148.091,-50.3051,-0.6760169,0.2623257,-0.2932873,32.72228,-1.319923,29.98471,1008.353
10.934935570,-329.8726,-115.5392,-71.20397,-0.6480358,0.01675967,-0.2709909,34.57071,-1.387371,26.78733,1008.353
10.969583035,-170.3992,-78.96288,-63.97211,-0.6650967,0.01533627,-0.1517895,37.12498,-8.370628,20.11308,1008.353
11.001759529,-135.691,-77.36488,-61.6432,-0.7907607,0.06639494,-0.03162418,37.12498,-8.370628,20.11308,1008.353
11.036411285,-125.4936,-83.16502,-67.7719,-0.8591796,0.06813172,-0.1023073,39.39439,-12.33625,15.59351,1008.351
11.068587780,-134.3395,-76.95059,-69.6718,-0.7684123,0.2484239,-0.01539006,41.22548,-12.42075,11.05728,1008.347
11.103239059,-203.4487,-62.15434,-75.43278,-0.8414698,0.2590712,-0.003534596,41.22548,-12.42075,11.05728,1008.347
11.135415554,-222.0622,-53.75006,-71.44912,-0.9303448,0.09177135,-0.1038584,43.0645,-10.52957,7.021467,1008.347
11.170063496,-192.7599,-45.34579,-57.23053,-0.8866292,0.02604865,-0.03829223,43.39013,-9.824648,2.935532,1008.347
11.202239990,-191.1627,-29.78013,-42.70551,-0.9073447,-0.05480536,-0.02526952,43.39013,-9.824648,2.935532,1008.347
11.236891270,-170.3378,-25.75555,-29.65137,-0.9139135,-0.2376928,-0.07973589,44.4966,-7.582377,0.6871643,1008.346
11.269067764,-120.9477,-25.04533,-13.22645,-0.7909988,-0.2683766,-0.01413785,44.84008,-6.098133,-2.063651,1008.342
11.303719521,-88.51244,-9.361304,16.19132,-0.7100302,-0.2514428,0.03103618,45.20145,-4.977156,-3.410008,1008.34
11.335896492,-85.44093,1.824664,48.4283,-0.8372574,-0.2593504,-0.006401809,45.20145,-4.977156,-3.410008,1008.34
11.368068218,-96.4984,-6.816349,82.93289,-0.9276441,-0.2628312,-0.07547703,44.81799,-4.596338,-3.856215,1008.338
11.402751923,-120.4563,-11.61034,120.8083,-0.9221017,-0.2665677,-0.05290557,44.05531,-6.11582,-4.291186,1008.338
11.434927940,-135.7524,-8.177604,145.5069,-0.9898981,-0.3619459,-0.002449322,44.05531,-6.11582,-4.291186,1008.336
11.469579697,-110.5045,-9.006194,157.3353,-1.098703,-0.5634838,0.0393204,43.66349,-9.552023,-5.165067,1008.332
11.501756191,-50.60989,-4.804058,148.1423,-1.226867,-0.5539418,-0.001820992,41.38008,-14.55025,-6.085279,1008.332
11.536408425,-35.6823,-11.01849,124.3016,-1.265019,-0.5127675,0.02586642,41.38008,-14.55025,-6.085279,1008.332
11.568580151,-36.97234,-14.39203,86.85526,-1.207826,-0.6038734,0.08145761,39.46368,-19.88202,-7.834682,1008.334
11.603231907,-3.677048,-1.075402,48.55087,-1.146249,-0.6282759,0.1038178,38.3097,-24.07544,-9.147253,1008.334
11.635408402,29.12679,11.64937,19.37825,-1.276706,-0.5117192,0.02839411,38.3097,-24.07544,-9.147253,1008.33
11.670060635,23.59806,0.5817784,-11.81685,-1.114675,-0.3853678,0.02695985,35.60588,-25.55581,-8.67967,1008.33
11.702236176,11.5577,13.89841,-35.22849,-1.084836,-0.3912539,0.03820089,35.60532,-26.3816,-8.675639,1008.33
11.736887932,35.39269,0.3450383,-63.97211,-0.9233834,-0.4133997,0.03988579,35.60532,-26.3816,-8.675639,1008.328
11.769060612,57.56907,10.11057,-84.74841,-0.7359118,-0.3354717,0.06962691,36.37301,-25.99983,-7.788806,1008.328
11.803712368,64.81786,38.46019,-102.6442,-0.877553,-0.3281105,0.05172926,37.56537,-24.05333,-8.250825,1008.323
11.835888386,80.97407,44.37869,-106.873,-1.232764,-0.3363818,-0.05395632,37.56537,-24.05333,-8.250825,1008.323
11.870540142,94.55019,16.26581,-113.9823,-1.442844,-0.2649588,-0.1169592,39.86319,-22.15145,-6.040328,1008.323
11.902717113,76.48965,-22.91467,-125.7494,-1.343617,-0.1308697,-0.1625696,41.03507,-18.3213,-3.323299,1008.323
11.934893608,32.19831,-35.16597,-134.1458,-1.036443,-0.09212741,-0.03883256,41.03507,-18.3213,-3.323299,1008.321
11.969540596,-6.93286,-11.90626,-143.0324,-1.018015,-0.1193671,-0.09755103,43.30502,-14.92331,-3.351649,1008.319
12.001717091,-26.77488,-17.82476,-145.9741,-0.9406493,-0.1209248,-0.1238317,44.81991,-10.30766,-3.382024,1008.319
12.036368847,-41.33389,-4.212208,-133.8393,-0.8323767,-0.1930876,-0.09651697,44.81991,-10.30766,-3.382024,1008.319
12.068545818,-20.81613,3.659399,-113.6759,-0.8129886,-0.2633845,-0.1363194,45.56149,-4.619257,-4.8164,1008.319
12.103196621,14.38349,7.624795,-80.94861,-0.7626747,-0.2665271,-0.07078084,45.5717,0.7231084,-4.332416,1008.32
12.135373592,35.63841,15.9107,-50.48896,-0.847256,-0.2541624,-0.09543564,45.5717,0.7231084,-4.332416,1008.32
12.170021057,31.7683,-0.957032,-19.96802,-0.8623787,-0.1718758,-0.1346221,45.20292,5.752419,-3.9087,1008.318
12.202197552,5.353223,1.410369,10.73678,-0.8257405,-0.1594871,-0.07798591,45.57637,7.647034,-4.36622,1008.318
12.236848831,-18.05176,14.07596,48.85731,-0.9590698,-0.2382279,-0.05232699,45.57637,7.647034,-4.36622,1008.318
12.269025326,-29.35496,31.59472,97.39663,-1.315059,-0.2661405,-0.1249093,45.20446,8.039221,-3.919865,1008.318
12.303677559,-39.55241,-27.05762,127.1821,-1.353219,-0.2572975,-0.1987082,45.20947,6.901505,-3.468002,1008.316
12.335854054,-47.5998,-52.86229,148.2649,-0.903924,-0.3923493,0.1386876,45.20947,6.901505,-3.468002,1008.318
12.370501041,14.44492,-45.46416,144.4038,-0.6534402,-0.6023272,0.1987252,46.34046,2.692931,-3.453336,1008.318
12.402677536,126.4326,-11.07767,125.5887,-0.6478888,-0.4473703,0.0293231,45.54544,-2.730645,-6.164545,1008.318
12.434854031,140.5001,38.16426,117.9891,-0.8432151,-0.09358707,-0.04064761,45.15838,-7.685697,-6.584702,1008.319
12.469505310,41.10572,66.57307,105.0575,-1.319243,0.0462691,0.03917512,45.15838,-7.685697,-6.584702,1008.321
12.501681805,-55.95433,9.755455,69.44975,-1.563658,-0.07182006,-0.01109172,44.06746,-13.78496,-2.914819,1008.317
12.536334038,-141.2197,-37.59256,50.57335,-1.036897,-0.2275677,0.1470709,43.31503,-17.19874,-2.447924,1008.319
12.568506241,-175.6822,-22.08608,39.54168,-0.7489169,-0.3599129,0.1018407,43.31503,-17.19874,-2.447924,1008.319
12.603157520,-124.1421,4.783914,29.91962,-0.7011321,-0.4577918,0.028288,42.13263,-19.51572,-6.064957,1008.319
12.635334015,-58.53441,14.19433,21.033,-0.8597615,-0.4256005,0.009307581,41.34182,-19.92023,-8.736912,1008.321
12.669986248,-24.3791,7.2105,12.57539,-0.9582053,-0.4051654,0.01521463,41.34182,-19.92023,-8.736912,1008.322
12.702162743,-8.345758,6.381909,4.608076,-0.9899104,-0.3673137,0.05679248,41.33026,-19.9316,-9.629474,1008.318
12.736814022,-12.95304,0.7001484,-2.868941,-1.000285,-0.2997159,0.06708656,41.32423,-20.31842,-10.07389,1008.318
12.768986225,-32.0579,0.8185185,-5.810718,-0.944539,-0.3337375,0.09713387,41.32423,-20.31842,-10.07389,1008.318
12.803638458,-11.72443,3.777769,-9.978235,-1.03441,-0.4396746,0.02287119,40.95759,-20.68281,-9.177538,1008.32
12.835814953,33.7955,3.777769,-14.94248,-1.022538,-0.4057376,0.02545019,40.9581,-19.92055,-9.181259,1008.318
12.870466232,50.566,5.316579,-18.1907,-1.069543,-0.3263797,0.02654302,40.9581,-19.92055,-9.181259,1008.32
12.902642727,40.12283,2.653254,-17.27139,-0.9722882,-0.3078725,0.03446411,41.72002,-19.54446,-8.740706,1008.32
12.934819221,38.21849,21.11898,-7.83319,-1.184486,-0.3651823,-0.04404026,41.72605,-19.15765,-8.296288,1008.32
12.969466209,63.65068,-1.252957,-6.79131,-1.188783,-0.4114598,-0.06848165,41.72605,-19.15765,-8.296288,1008.32
13.001642704,101.9833,-4.389763,-15.98436,-1.100531,-0.4477504,-0.05996432,42.49952,-18.7702,-6.963174,1008.316
13.036294937,157.2706,-12.79403,-43.62481,-0.901753,-0.3953953,-0.0662075,42.51634,-19.51541,-5.62061,1008.316
13.068471432,193.6375,17.98217,-66.97517,-0.9209192,-0.2856902,-0.07717423,42.51634,-19.51541,-5.62061,1008.316
13.103122711,183.9314,41.89292,-80.94861,-1.419516,-0.1210216,-0.2562521,42.91848,-19.11609,-3.775528,1008.316
13.135299206,108.1877,-28.77399,-103.87,-1.420877,0.03185034,-0.2597991,43.7279,-16.78886,0.2259636,1008.316
13.169946671,6.45897,-37.17826,-121.1529,-0.975968,-0.03346565,-0.0716892,43.7279,-16.78886,0.2259636,1008.312
13.202123642,-40.04386,-9.479674,-129.7331,-0.8541686,-0.1430183,-0.1007209,45.25988,-13.7434,1.60594,1008.314
13.236774445,-44.28255,5.90843,-128.6912,-0.7768967,-0.2229993,-0.1001732,46.00625,-9.510332,0.6249771,1008.314
13.268951416,-20.7547,27.45178,-113.5533,-0.812125,-0.2925057,-0.1356035,46.00625,-9.510332,0.6249771,1008.314
13.303603172,18.80648,25.61704,-91.61255,-0.9515083,-0.2935055,-0.2292651,47.15027,-4.184071,1.103161,1008.31
13.335779667,44.23867,7.44724,-71.02011,-0.8473335,-0.240172,-0.1695475,48.29321,0.7602444,1.519451,1008.311
13.370426655,47.80164,19.34343,-46.62787,-0.8828475,-0.2263929,-0.1049966,47.9297,5.032973,2.393167,1008.315
13.402696610,41.04429,1.291999,-32.83829,-0.8896671,-0.1886667,-0.06365199,47.9297,5.032973,2.393167,1008.315
13.434873104,21.50942,5.257394,-17.27139,-0.7983425,-0.1963475,0.006286462,47.94281,7.331144,3.274563,1008.315
13.469525337,5.046071,19.63935,8.04015,-0.9084822,-0.1835394,-0.04029818,47.93831,9.231127,2.818977,1008.309
13.501700878,-21.49187,7.506425,39.97069,-0.9090509,-0.2015398,0.01691667,47.93831,9.231127,2.818977,1008.309
13.536353111,-32.97936,20.88224,91.94209,-0.9388244,-0.3106465,0.01099301,47.95038,10.00476,3.707819,1008.309
13.568525314,-17.80604,6.618649,134.5979,-0.983479,-0.34212,0.05501216,48.33885,8.486231,4.60589,1008.307
13.603176594,-1.895566,2.061404,170.1443,-0.9584309,-0.4185017,0.1110247,48.33885,8.486231,4.60589,1008.307
13.635353089,36.25272,-6.579608,179.0922,-0.9130635,-0.4168074,0.1082053,49.09138,3.520758,4.626211,1008.307
13.670004845,67.09079,6.381909,171.7378,-0.8978673,-0.3481536,0.08308355,49.09826,-3.391797,5.552576,1008.307
13.702181816,65.06359,35.6193,152.8614,-1.088882,-0.2361754,0.004331158,49.09826,-3.391797,5.552576,1008.307
13.736832619,29.37251,35.6193,115.1086,-1.415631,-0.1796822,-0.05577813,47.96585,-9.849276,6.036289,1008.307
13.769005299,-7.731455,4.487989,63.56619,-1.340599,-0.1695624,-0.01687088,45.72929,-16.32494,8.821274,1008.309
13.803657055,-48.39839,0.8777034,21.52329,-1.092114,-0.1611121,0.1062,45.72929,-16.32494,8.821274,1008.309
13.835833073,-87.95957,0.9960735,-5.688144,-0.9109874,-0.2325018,0.0918714,44.20919,-20.12048,8.401337,1008.306
13.870484829,-110.566,8.039089,-15.06506,-0.7874278,-0.2958534,0.07573621,43.81866,-21.65102,7.518154,1008.31
13.902661324,-108.9688,16.08825,-19.72287,-0.8243719,-0.3646143,0.009962134,43.81866,-21.65102,7.518154,1008.31
13.934838295,-75.55063,10.70242,-19.66158,-0.8794118,-0.4222374,-0.007833316,43.79472,-21.67457,5.669277,1008.308
13.969485283,-27.02061,2.179774,-19.6003,-0.8445356,-0.4202673,0.01836747,43.78368,-20.92367,4.772995,1008.31
14.001661777,8.179023,5.79006,-18.98743,-0.791773,-0.361517,0.05499144,43.78368,-20.92367,4.772995,1008.31
14.036313534,20.28081,16.91684,-17.27139,-0.9242911,-0.324877,0.06327803,44.15032,-20.55928,3.876638,1008.31
14.068489552,25.5024,16.44336,-15.18763,-1.08613,-0.3432184,0.03523497,44.54084,-19.02874,4.759823,1008.311
14.103141308,34.16408,8.86768,-17.63911,-1.204035,-0.3192106,-0.01166688,44.54084,-19.02874,4.759823,1008.313
14.135317802,29.61824,12.83308,-18.74228,-1.281684,-0.304408,0.03255965,44.17549,-17.48747,5.646875,1008.311
14.169965267,19.97366,-8.177604,-32.53186,-1.367934,-0.2786455,-0.08113903,43.8041,-16.33301,6.089506,1008.311
14.202141762,5.168931,-12.02463,-40.07016,-1.181472,-0.2636069,-0.024915,43.8041,-16.33301,6.089506,1008.313
14.236793518,8.117592,-15.51655,-51.95984,-1.076954,-0.3099476,-0.05037227,43.42693,-15.18425,6.085857,1008.313
14.268970013,29.98682,-20.60645,-63.78824,-0.8270915,-0.3034805,0.005189507,43.78857,-13.68213,4.73764,1008.313
14.303621292,50.13599,1.114444,-75.00377,-0.6448134,-0.2838417,0.02582255,44.91768,-12.11587,4.277803,1008.308
14.335797787,75.19961,33.07435,-76.96495,-0.899318,-0.3181156,0.0120088,44.91768,-12.11587,4.277803,1008.308
14.370445728,89.88148,29.16814,-72.30714,-1.27809,-0.2354839,-0.1539215,45.2919,-9.077854,3.814705,1008.31
14.402621746,62.17635,-14.27366,-71.44912,-1.268306,-0.1185249,-0.1496745,46.05561,-6.033838,4.242229,1008.31
14.434798241,11.80342,-23.32897,-70.28467,-1.062979,-0.1288782,-0.1010659,46.05561,-6.033838,4.242229,1008.308
14.469449997,-24.74768,-23.38815,-70.65239,-0.8505416,-0.1438105,-0.07521526,46.43535,-3.371273,4.22727,1008.308
14.501626492,-48.8284,-5.632648,-68.13963,-0.6839158,-0.1811884,-0.03128824,46.4256,-0.7147076,3.321684,1008.308
14.536277771,-43.48396,19.4618,-56.37251,-0.7434057,-0.2828098,-0.09278484,46.4256,-0.7147076,3.321684,1008.31
14.568450451,-8.898633,13.78004,-41.7862,-0.7908022,-0.3145084,-0.1427319,45.66579,2.021801,2.865936,1008.31
14.603101730,35.08554,10.70242,-22.97108,-0.714407,-0.3170606,-0.1097258,45.67311,4.314287,3.301052,1008.312
14.635278225,59.90343,11.35345,-6.117153,-0.7141141,-0.2442588,-0.1100923,45.67311,4.314287,3.301052,1008.312
14.669929981,52.71607,21.65164,21.46201,-0.8929203,-0.2184456,-0.08796711,45.67362,5.076554,3.297331,1008.309
14.702106476,33.11977,5.434949,41.25772,-1.067348,-0.2110046,-0.1166441,45.30146,5.087607,3.745546,1008.309
14.736757755,-6.687138,-18.00231,58.23422,-0.9549356,-0.1785589,-0.05380165,45.30146,5.087607,3.745546,1008.309
14.768930435,-42.80822,-2.495842,75.39458,-0.9112427,-0.2380158,0.00603242,45.67285,3.933154,3.302914,1008.309
14.803582191,-53.0671,18.21891,99.66425,-1.317025,-0.3115988,-0.1045397,45.28759,1.646036,2.86973,1008.309
14.835758209,-50.05701,-14.68796,114.6796,-1.348993,-0.3324982,-0.06585376,45.28759,1.646036,2.86973,1008.309
14.870409965,-51.53134,-21.55342,120.6857,-1.279747,-0.3551314,-0.06090249,45.29049,-2.60427,3.33679,1008.309
14.902586460,-37.95522,-46.23357,109.4089,-0.9680827,-0.4038105,0.05869792,44.90395,-6.797055,2.91291,1008.307
14.937237740,-17.86747,-27.82703,90.77763,-0.665741,-0.4031654,0.148426,44.90395,-6.797055,2.91291,1008.309
14.969410419,10.7591,2.238959,65.95638,-0.7580451,-0.3630839,0.0623758,44.49269,-12.15679,0.6457386,1008.309
15.001586914,12.97059,10.46568,40.70613,-0.9416219,-0.2742457,0.008909205,42.96702,-15.64041,-0.2220306,1008.309
15.036238670,-17.00745,14.60863,12.69796,-1.04597,-0.1866465,0.03470503,42.96702,-15.64041,-0.2220306,1008.307
15.068414688,-60.1316,14.54944,-12.12328,-1.176686,-0.1902892,0.04457071,42.20382,-17.92216,-0.6532784,1008.307
15.103066444,-99.56992,2.002218,-30.20295,-1.114727,-0.2674985,0.079988,42.21511,-18.29192,0.2411423,1008.307
15.135242939,-105.8358,3.126734,-35.6575,-1.012755,-0.3738864,0.07092944,42.21511,-18.29192,0.2411423,1008.308
15.169890404,-65.41461,-1.430512,-36.76066,-0.9098103,-0.4488506,0.04621487,42.56994,-18.32003,-1.545913,1008.31
15.202066898,-8.345758,1.114444,-33.32859,-0.8140834,-0.4202387,0.04170153,42.187,-17.17695,-1.995842,1008.312
15.236718178,27.09959,8.630939,-28.85464,-0.8336599,-0.3191649,0.04416345,42.187,-17.17695,-1.995842,1008.312
15.268894672,23.78235,12.06367,-23.03237,-0.931464,-0.248303,0.04373226,42.93184,-16.43679,-2.895992,1008.31
15.303546429,3.694602,11.88612,-14.32961,-1.036141,-0.2750879,0.0276182,43.32184,-15.66852,-2.009087,1008.31
15.335722923,0.7459418,-0.2468118,-9.181504,-1.039765,-0.3226503,0.02581391,43.31709,-14.14967,-2.462811,1008.311
15.370370388,13.03203,-1.548882,-3.972107,-0.9021838,-0.3383544,0.02922067,43.31709,-14.14967,-2.462811,1008.311
15.402546883,33.61121,2.653254,-1.336765,-0.8309764,-0.3508337,0.03038135,44.07875,-14.15472,-2.020397,1008.311
15.437198639,64.14214,10.64323,-1.888349,-0.8183581,-0.3615985,0.02728286,44.0785,-14.53586,-2.018537,1008.313
15.469374657,81.77266,16.97603,-4.891413,-0.9277855,-0.2857249,-0.0231265,44.0785,-14.53586,-2.018537,1008.309
15.501551151,63.34353,17.74543,-8.507347,-0.9891905,-0.2162316,0.01127734,44.47377,-14.52417,-0.6816292,1008.309
15.536202908,35.2084,28.04362,-6.975172,-1.249323,-0.2850485,-0.01674666,44.11368,-13.73948,0.655426,1008.311
15.568375588,30.66255,-16.04921,-17.88426,-1.16865,-0.3118677,-0.04374849,44.11368,-13.73948,0.655426,1008.307
15.603026867,29.24965,-11.13686,-22.60336,-0.805077,-0.2958028,0.007939382,44.5153,-14.10243,2.504229,1008.307
15.635203362,48.47737,10.05138,-27.87405,-0.8157107,-0.3217319,-0.02543312,44.50895,-13.72779,1.992334,1008.307
15.669854641,73.3567,19.99446,-31.79642,-0.9793893,-0.3070788,-0.05607899,44.50895,-13.72779,1.992334,1008.309
15.702031136,70.16232,21.88838,-28.85464,-1.133912,-0.2432901,-0.06616125,44.89375,-13.34553,2.498573,1008.305
15.736682892,49.21453,2.179774,-28.73207,-1.152086,-0.2283181,-0.0875582,45.67382,-11.74547,4.272076,1008.305
15.768854618,38.34135,-4.567318,-27.01603,-0.9508543,-0.2692906,-0.04687573,45.67382,-11.74547,4.272076,1008.305
15.803506374,37.60419,6.677835,-23.46138,-0.8494477,-0.2597273,-0.06316711,45.68011,-10.97752,4.714636,1008.305
15.835683346,36.49844,14.90455,-20.0906,-0.8443487,-0.2532285,-0.09834707,45.69873,-9.054798,6.044172,1008.305
15.870334148,40.73714,21.23735,-15.24892,-0.8547558,-0.2596089,-0.1142085,45.69873,-9.054798,6.044172,1008.307
15.902511120,50.87316,30.82532,-5.994579,-0.8484864,-0.2853372,-0.1106232,45.69976,-7.530264,6.036728,1008.302
15.937162876,66.2922,39.22959,11.47222,-0.9552169,-0.3025337,-0.143509,46.10189,-7.130947,7.881811,1008.302
15.969334602,79.00829,31.83146,30.28734,-0.9629811,-0.3106758,-0.1343457,46.10189,-7.130947,7.881811,1008.304
16.001511097,96.3931,35.56012,48.91859,-0.8989715,-0.3563739,-0.1025437,45.74681,-7.483973,9.670731,1008.304
16.036162853,135.34,38.51937,63.93391,-0.9386619,-0.365997,-0.1171947,45.39775,-7.450181,11.90406,1008.306
16.068339825,162.6151,34.13968,69.81747,-0.8972414,-0.358557,-0.0698019,45.39775,-7.450181,11.90406,1008.304
16.102990627,190.0745,35.44175,69.63361,-0.9389991,-0.3745617,-0.09509017,44.28711,-8.553925,13.76433,1008.306
16.135167599,213.5409,31.83146,63.25975,-0.9394379,-0.3421155,-0.1049406,43.94961,-8.50876,16.89022,1008.306
16.169814587,219.6839,35.6193,53.08611,-0.9961184,-0.2882247,-0.1396354,43.94961,-8.50876,16.89022,1008.306
16.201991081,209.4865,28.63548,37.70307,-1.045598,-0.2262955,-0.1343251,42.84468,-8.464231,19.12743,1008.306
16.236642838,180.4913,27.68852,20.11369,-1.001061,-0.1906509,-0.07805291,41.73526,-6.519719,20.90905,1008.306
16.268818855,154.322,27.7477,6.875696,-1.038787,-0.2365407,-0.07374121,41.73526,-6.519719,20.90905,1008.307
16.303470612,141.053,18.57402,-3.29795,-0.9836662,-0.287126,-0.0520186,41.00486,-4.198629,22.75063,1008.307
16.335647106,140.5616,20.11283,-8.752495,-0.9376252,-0.2910309,-0.08814836,40.64683,-0.3648709,24.0728,1008.303
16.370294571,142.0973,19.10669,-10.40724,-0.9723946,-0.276946,-0.1093978,40.27626,1.996506,24.50954,1008.305
16.402471066,145.7832,11.76775,-12.79744,-0.9813938,-0.3017603,-0.1230144,40.27626,1.996506,24.50954,1008.307
16.437122822,155.0591,15.31885,-12.61358,-1.048273,-0.2738492,-0.1973521,39.88933,5.801839,23.6003,1008.307
16.469298840,144.7388,-0.4243669,-20.27446,-1.074575,-0.1643867,-0.2444042,39.12447,9.612541,22.693,1008.307
16.501475334,109.6621,-5.928573,-29.5288,-0.8934156,-0.1453936,-0.1823141,39.12447,9.612541,22.693,1008.309
16.536127091,89.69718,9.81464,-35.10592,-0.9372509,-0.2035733,-0.2021467,38.73043,12.64911,21.27745,1008.31
16.568299294,94.3659,7.151315,-39.57986,-1.019188,-0.2509602,-0.2316568,38.27375,14.98864,19.92939,1008.306
16.602951050,104.2562,9.81464,-43.37966,-1.073695,-0.2302067,-0.2820691,38.27375,14.98864,19.92939,1008.308
16.635127545,96.70025,2.002218,-48.22134,-1.081615,-0.1316595,-0.2850387,37.50234,17.65026,18.58139,1008.31
16.669778824,57.56907,4.073694,-55.20806,-0.981488,-0.1258268,-0.219409,37.48655,19.92001,17.23138,1008.31
16.701955319,38.77137,12.95145,-59.49815,-1.011082,-0.1719062,-0.2344547,37.48655,19.92001,17.23138,1008.31
16.736606598,35.8227,14.37189,-60.23359,-0.9950728,-0.2122086,-0.2262603,36.34272,22.21154,16.33347,1008.308
16.768779278,44.23867,21.88838,-55.82093,-0.9884968,-0.2240809,-0.2510015,36.33849,24.49266,15.87602,1008.308
16.803431034,50.38171,22.36186,-45.34085,-0.9800444,-0.1988342,-0.2446063,36.33849,24.49266,15.87602,1008.308
16.835607529,42.82577,25.67623,-33.02216,-0.9549043,-0.2108174,-0.2087897,34.82827,26.80093,15.87259,1008.308
16.870258808,36.31415,26.74156,-21.43891,-0.9134579,-0.2260442,-0.205446,33.31836,29.55387,15.86699,1008.304
16.902435303,32.62832,31.89065,-12.06199,-0.8351189,-0.2295807,-0.1729482,33.31836,29.55387,15.86699,1008.305
16.937086582,42.2729,45.26646,2.217882,-0.8402038,-0.3075974,-0.1595659,32.18531,30.71337,15.86721,1008.307
16.969258785,67.70509,58.28717,19.56211,-1.036017,-0.3091597,-0.1736576,31.80236,31.85645,15.41728,1008.311
17.001435757,68.25797,44.26032,29.5519,-1.172896,-0.2100885,-0.1918076,31.80236,31.85645,15.41728,1008.311
17.036086559,42.08861,17.98217,34.14842,-0.9304968,-0.196574,0.01763972,31.42468,32.24296,15.41735,1008.307
17.068263054,47.1259,24.90682,40.15455,-0.791096,-0.3318873,0.1212633,31.41967,33.38067,14.96549,1008.309
17.102915287,111.9964,32.24576,41.68673,-0.8745064,-0.3575522,0.138218,31.41967,33.38067,14.96549,1008.31
17.135090828,156.6563,34.73153,42.2996,-0.9826265,-0.2083632,0.09177487,31.401,32.60054,13.56662,1008.308
17.169738770,135.8929,29.10896,44.68979,-1.114389,-0.08830807,0.0915841,32.11643,32.55001,10.43878,1008.312
17.201915264,84.78275,18.92913,45.18009,-1.117363,-0.07003468,0.1934644,32.11643,32.55001,10.43878,1008.312
17.236566544,30.78541,24.55171,44.68979,-1.174471,-0.1364947,0.2242973,32.44783,33.26062,6.799129,1008.312
17.268743038,-3.369896,7.151315,41.8093,-1.104974,-0.2086701,0.2249818,33.94123,31.69755,5.459995,1008.313
17.303394318,-9.144354,2.002218,40.89,-0.937171,-0.3091429,0.2071638,35.07428,30.53804,5.459776,1008.311
17.335570812,24.45808,6.73702,43.15762,-0.9047999,-0.3632392,0.1365258,35.07428,30.53804,5.459776,1008.311
17.370218754,66.9065,1.765479,50.87978,-0.9353397,-0.357061,0.09974776,35.8299,30.14617,5.457769,1008.311
17.402394772,81.0355,-7.112273,55.59888,-0.8869041,-0.3214039,0.09717976,36.9448,27.76269,4.124599,1008.313
17.437046528,69.30228,-3.738728,51.55394,-0.8933136,-0.2590517,0.05919364,36.9448,27.76269,4.124599,1008.313
17.469223023,56.46332,-4.330578,36.84505,-0.9217918,-0.2977552,0.0572123,38.11195,26.57387,1.892654,1008.311
17.501399040,67.39794,-3.383618,19.50082,-0.9575061,-0.3256704,0.001885479,39.22079,25.00968,0.04541779,1008.311
17.536050797,80.91264,-8.177604,0.8695675,-0.9416584,-0.3071242,-0.03763346,39.22079,25.00968,0.04541779,1008.311
17.568227291,88.89859,-8.118419,-18.1907,-0.8800391,-0.2869996,-0.03177653,39.95305,24.21393,-1.73985,1008.313
17.602874756,85.64278,-6.402053,-37.43482,-0.8185065,-0.2079958,-0.006635402,40.30133,23.03674,-3.967604,1008.313
17.635051251,57.50764,1.883849,-50.12123,-0.8302989,-0.171297,0.02414315,40.30133,23.03674,-3.967604,1008.313
17.669702530,23.10661,14.3127,-53.55331,-1.021808,-0.2140265,-0.03852807,38.77192,23.80261,-5.366186,1008.313
17.701879025,-1.895566,11.59019,-55.82093,-1.200063,-0.2122622,-0.1134881,38.38294,24.55888,-6.260534,1008.308
17.736530304,-26.83631,16.38418,-49.69223,-1.256265,-0.2260815,-0.1164517,38.38294,24.55888,-6.260534,1008.308
17.768706798,-39.55241,16.20662,-45.21827,-1.392898,-0.2949949,-0.1403268,36.80948,26.48692,-6.261781,1008.308
17.803354740,-25.30055,-4.863243,-46.015,-1.108425,-0.333222,-0.06762247,35.32273,28.12,-4.412922,1008.31
17.835531235,0.4387897,9.81464,-49.26321,-0.8391684,-0.3342193,-0.02338918,35.32273,28.12,-4.412922,1008.31
17.870182514,64.81786,32.30494,-55.26934,-0.7517208,-0.4099647,-0.0335056,34.5734,29.27982,-3.968355,1008.31
17.902359009,142.0359,55.50547,-59.13042,-0.9677996,-0.3928024,-0.08725981,33.80643,31.18404,-4.930107,1008.31
17.937010288,183.9314,58.99739,-53.73717,-1.376166,-0.2417195,-0.2075237,33.80643,31.18404,-4.930107,1008.308
17.969186783,152.4791,-3.383618,-63.72696,-1.376152,-0.03965029,-0.1875419,32.26051,31.93367,-7.603777,1008.308
18.001358986,70.3466,-28.7148,-76.04565,-0.9267321,0.002919272,0.02069522,31.07438,32.66007,-11.68198,1008.31
18.036010265,-1.219831,-7.644938,-86.21929,-0.6798381,-0.06555155,0.04963893,31.07438,32.66007,-11.68198,1008.31
18.068186760,-30.09212,14.43107,-81.50019,-0.6877338,-0.1559826,0.02486712,29.14424,32.64712,-14.79627,1008.31
18.102838039,-26.65202,15.08211,-63.29795,-0.7951344,-0.2617979,-0.044893,26.89522,34.60205,-13.45513,1008.307
18.135014534,1.053094,8.453384,-40.19274,-0.8184149,-0.3151901,-0.06005791,26.89522,34.60205,-13.45513,1008.307
18.169666767,31.64544,5.494134,-15.31021,-0.8847641,-0.2834121,-0.07315481,25.01811,36.1648,-12.56034,1008.307
18.201838493,29.55681,-0.957032,9.511038,-0.867619,-0.1693901,-0.004412865,23.43861,37.70602,-13.00601,1008.309
18.236490250,-5.888543,5.90843,37.0902,-0.9451441,-0.1849024,0.01112462,23.43861,37.70602,-13.00601,1008.307
18.268666744,-24.9934,-2.377472,61.85016,-1.024373,-0.2305693,-0.04538851,23.04885,37.31889,-13.89478,1008.307
18.303318024,-34.76084,-3.797913,92.30981,-1.017034,-0.2552505,-0.03120048,24.18242,36.92165,-13.89872,1008.309
18.335494518,-39.42955,21.05979,132.2689,-1.323958,-0.2643051,-0.08143115,26.14563,35.38074,-13.0087,1008.309
18.370141983,-52.88281,-40.49262,146.794,-1.377405,-0.2768456,-0.1056178,26.14563,35.38074,-13.0087,1008.311
18.402336598,-66.3975,-49.252,150.655,-1.028583,-0.3638472,0.04079393,29.56314,33.44381,-11.67796,1008.312
18.436988354,-33.40937,-36.88234,122.2792,-0.914817,-0.385594,0.0005111317,33.34625,30.34674,-11.23613,1008.312
18.469164372,-11.0487,-24.57185,84.58764,-0.769455,-0.2099433,0.02422081,33.34625,30.34674,-11.23613,1008.308
18.501340866,-43.60682,13.78004,48.67345,-0.8781556,-0.04636632,0.01790765,36.3556,26.41757,-12.12525,1008.31
18.535992623,-99.56992,32.95598,21.40072,-1.231971,-0.1209555,-0.06375571,37.8766,22.97726,-11.22368,1008.312
18.568168640,-126.5379,-0.4835519,5.037085,-1.277442,-0.2604868,-0.1228037,37.8766,22.97726,-11.22368,1008.308
18.602816105,-140.8512,-25.75555,1.911447,-0.8809385,-0.3536576,0.009616286,38.73674,23.00624,-8.040149,1008.308
18.634993076,-131.3909,-12.26137,4.791937,-0.6102709,-0.3827201,0.002995092,39.13253,23.78019,-6.706963,1008.31
18.669643879,-87.46812,11.23508,7.672427,-0.6333433,-0.3832514,0.04513996,39.13253,23.78019,-6.706963,1008.311
18.701820851,-45.69545,18.92913,3.995206,-0.8098482,-0.3807505,0.003909592,39.54647,24.57201,-3.971179,1008.31
18.736471653,-18.60464,12.59634,1.605012,-0.8818712,-0.3309231,0.06186836,39.1851,23.45103,-2.624822,1008.311
18.768648148,-10.55725,11.05752,-3.788246,-0.8604273,-0.3475337,0.1246733,39.1851,23.45103,-2.624822,1008.309
18.803295612,8.117592,28.04362,-0.41746,-0.9866626,-0.357887,0.1484198,39.19717,24.22467,-1.735982,1008.309
18.835472107,22.18516,42.66232,5.711242,-1.346125,-0.3776515,0.123173,39.58063,23.84385,-1.289774,1008.309
18.870123863,32.93547,-15.16144,-11.20398,-1.352026,-0.314762,0.02927466,39.58063,23.84385,-1.289774,1008.309
18.902299881,31.39972,2.416514,-14.57476,-1.045796,-0.2658685,0.2099801,39.5927,24.61749,-0.4009342,1008.309
18.936951637,24.15093,-2.732583,-28.48692,-1.328768,-0.2531698,0.0377594,39.20898,24.61717,-0.8452816,1008.311
18.969127655,6.950414,-29.30665,-36.51551,-0.9713952,-0.259708,0.1755967,39.20898,24.61717,-0.8452816,1008.311
19.003775597,-1.158401,-17.41047,-46.93431,-0.9127387,-0.2922348,0.08657531,38.81974,24.9923,-1.737769,1008.307
19.035952091,28.81964,-2.555027,-59.37558,-0.9860273,-0.3243144,0.03349276,38.05886,26.14076,-2.185764,1008.309
19.068128109,49.58312,12.3596,-64.52369,-1.285194,-0.2720404,-0.05245466,38.05886,26.14076,-2.185764,1008.307
19.102779865,41.04429,-28.35969,-79.53901,-1.398775,-0.149952,-0.1549822,36.47966,28.12663,-2.633601,1008.309
19.134956360,-0.6669577,-54.4011,-95.04462,-0.9852456,-0.1064437,-0.03701831,35.70221,30.40143,-4.426021,1008.309
19.169607639,-45.51116,-30.01687,-109.5084,-0.6937649,-0.105859,0.0378686,35.70221,30.40143,-4.426021,1008.305
19.201780319,-61.85165,3.955324,-115.5145,-0.7270009,-0.172437,0.005817892,33.05106,31.95705,-4.929961,1008.305
19.236431122,-51.40848,7.80235,-106.7505,-0.8324383,-0.2608433,-0.07104701,29.2795,35.06548,-4.479228,1008.303
19.268608093,-24.87054,2.889994,-90.01909,-0.8259339,-0.302762,-0.08976927,29.2795,35.06548,-4.479228,1008.301
19.303258896,10.88196,-6.224498,-66.85259,-0.7828606,-0.2893173,-0.08090235,26.28223,38.56219,-2.631627,1008.302
19.335435867,26.30099,-5.218353,-42.58293,-0.7640086,-0.2364575,-0.01171656,22.83089,40.90957,-1.732503,1008.302
19.370086670,16.59499,-0.6611069,-12.79744,-0.9640439,-0.1861011,-0.03064286,20.55251,42.13733,-2.619353,1008.304
19.402259350,-16.02456,-20.48808,9.511038,-1.038547,-0.1323546,-0.0955385,20.55251,42.13733,-2.619353,1008.304
19.436911106,-63.75599,-31.4965,37.88693,-0.8600449,-0.1807635,-0.02674928,19.79086,42.14239,-3.061766,1008.308
19.469087124,-64.37029,7.506425,81.40071,-0.9877489,-0.3279264,0.004559075,20.55854,42.52415,-2.174933,1008.305
19.503738880,-38.13951,-10.30826,118.3568,-1.41691,-0.3220094,-0.1972014,20.55854,42.52415,-2.174933,1008.305
19.535914898,-35.37514,-51.6194,142.6877,-1.064442,-0.3658556,0.07195994,21.70889,41.31818,-0.8360004,1008.307
19.568091393,-10.2501,-38.42115,137.4171,-0.9618136,-0.420835,0.05801707,26.68907,38.58524,-0.4021568,1008.309
19.602739334,40.61428,-28.89236,110.3895,-0.8118949,-0.2899906,0.06492686,26.68907,38.58524,-0.4021568,1008.305
19.634915352,22.43088,12.59634,91.08406,-0.8181711,-0.06704704,0.08128338,30.08847,35.48786,-0.4046764,1008.307
19.669567108,-44.95829,46.86446,78.39765,-1.309689,-0.1028687,0.02869848,33.47053,32.37342,-1.746037,1008.307
19.701743126,-81.93939,-9.834785,53.51512,-1.471502,-0.2550604,-0.04768424,33.47053,32.37342,-1.746037,1008.307
19.736394882,-110.6274,-37.00071,38.07079,-0.9038076,-0.2848911,0.1005305,35.75974,30.07714,0.0386467,1008.31
19.768571377,-121.4391,-12.97159,30.71635,-0.6802018,-0.3023476,0.1209541,36.90905,27.34664,1.385021,1008.306
19.803218365,-97.9113,5.434949,17.96865,-0.7579135,-0.3557106,0.07448535,36.90905,27.34664,1.385021,1008.308
19.835395336,-74.81346,2.712439,11.47222,-0.8477287,-0.2924227,0.0411412,37.68784,25.83492,3.237474,1008.308
19.870046139,-84.08945,-7.585753,7.488566,-0.8127852,-0.2947436,0.07742797,38.91302,25.08407,5.466475,1008.308
19.902223110,-80.15791,0.1674833,5.588668,-0.8265585,-0.3165359,0.07496683,38.91302,25.08407,5.466475,1008.312
19.936873913,-80.03505,4.843099,7.059557,-0.9356982,-0.3081003,0.09147874,38.55742,23.96878,7.259113,1008.309
19.969050407,-81.81653,2.475699,5.159659,-0.9985221,-0.3463199,0.06716789,39.33724,23.9816,9.104122,1008.309
20.003697872,-61.97451,5.67169,3.995206,-1.013843,-0.3541577,0.04796626,39.33724,23.9816,9.104122,1008.307
20.035874367,-43.66825,8.926865,0.5018454,-1.07041,-0.3480365,0.04999054,38.98767,23.25312,11.34118,1008.307
20.068050861,-35.55944,6.085985,-7.342894,-1.038406,-0.3034478,0.0621095,38.99846,22.12109,12.23932,1008.311
20.102702141,-35.98945,26.44563,-11.0814,-1.300171,-0.3047482,0.03947734,38.99846,22.12109,12.23932,1008.313
20.134878635,-32.91793,-12.49811,-36.94452,-1.284967,-0.1949836,-0.004585573,39.00975,21.75133,13.13375,1008.31
20.169529915,-62.89597,-22.67793,-69.12022,-0.9110645,-0.05034116,0.1107258,37.82399,21.01743,14.03615,1008.312
20.201702595,-97.1127,-3.679543,-97.00581,-0.7446642,-0.01639327,0.151387,37.82399,21.01743,14.03615,1008.312
20.268530369,-67.93326,37.69078,-101.6023,-1.540791,-0.06712342,-0.07971029,35.21571,23.75787,16.7781,1008.31
20.303182125,-74.01487,-54.10518,-105.0957,-1.362967,0.08107332,-0.07050784,32.97247,25.71848,18.56553,1008.31
20.335358143,-123.4049,-57.30117,-90.87711,-0.9004961,0.02050054,0.1145853,32.97247,25.71848,18.56553,1008.312
20.402181625,-94.16404,-36.82315,-48.65034,-0.9093383,-0.0790494,0.03961915,30.36945,27.70234,21.75748,1008.313
20.436833382,-99.99993,-55.64399,-26.52573,-1.022743,-0.06556614,-0.04741742,30.36945,27.70234,21.75748,1008.311
20.469009400,-119.7805,-91.21418,-11.69427,-0.9285442,-0.04325435,-0.1146284,29.25823,26.97892,23.55212,1008.311
20.503661156,-154.5501,-86.24264,3.750057,-0.9275573,-0.05823998,-0.1060851,30.01308,25.44364,23.5557,1008.309
20.535838127,-182.4395,-105.7145,10.92064,-1.120973,-0.1018106,-0.2791234,30.01308,25.44364,23.5557,1008.309
20.568013668,-204.9231,-129.5661,20.84914,-0.9766651,-0.1562929,-0.327673,31.91304,23.5225,24.4479,1008.309
20.602661610,-201.3601,-115.4208,34.57743,-1.058115,-0.2476509,-0.3941821,33.42197,19.30856,24.46062,1008.311
20.634837628,-185.0196,-117.5515,43.95435,-1.225591,-0.2400975,-0.466785,33.42197,19.30856,24.46062,1008.312
20.669489384,-197.3057,-131.6375,48.91859,-1.040822,-0.2006353,-0.3915459,36.42451,13.84917,23.13267,1008.31
20.701665402,-194.9713,-112.4616,51.79908,-0.9274293,-0.2919466,-0.3263588,38.70475,8.815037,19.51094,1008.31
20.736317158,-139.6225,-79.96902,54.61829,-1.030661,-0.308601,-0.3496328,38.70475,8.815037,19.51094,1008.31
20.768493652,-126.6607,-72.5709,57.62135,-1.162518,-0.1634864,-0.3732341,41.30679,4.164062,16.39577,1008.312
20.803141117,-159.2189,-76.77303,61.6663,-0.9648565,-0.1983337,-0.2958359,42.40199,-0.5240899,13.67117,1008.312
20.869968891,-119.1048,-29.78013,69.51103,-0.928565,-0.3608286,-0.1958122,43.87098,-4.01556,10.55621,1008.315
20.902145386,-93.42688,-20.60645,74.04627,-0.973793,-0.3875417,-0.1642804,43.46101,-7.46963,8.279736,1008.312
20.936796188,-49.81129,-15.87165,77.2332,-0.9400508,-0.4829452,-0.05162992,43.46101,-7.46963,8.279736,1008.312
20.968973160,-0.6669577,-7.408198,74.29142,-0.8914733,-0.4887834,0.04089457,43.44136,-10.91689,6.957642,1008.312
21.003620148,39.4471,2.357329,65.8951,-0.8201106,-0.4063793,0.07271999,42.6663,-13.65466,5.636002,1008.313
21.035796642,60.14915,13.01063,60.37927,-0.8818882,-0.4295492,0.04948745,42.6663,-13.65466,5.636002,1008.313
21.067973137,107.2048,13.72085,54.0667,-0.774842,-0.3878873,0.108118,42.29286,-15.54927,6.093519,1008.313
21.102624416,142.6502,32.95598,50.81849,-0.6978239,-0.2525395,0.1485211,40.4305,-17.78081,8.345757,1008.313
21.134800911,169.6181,48.22571,41.62544,-0.7722601,-0.1625019,0.132124,40.4305,-17.78081,8.345757,1008.311
21.169452190,192.286,50.11963,36.66119,-0.9062512,0.06131586,-0.009380423,40.09358,-18.11597,11.53727,1008.311
21.201624870,145.1689,38.75611,26.61012,-0.733688,0.2748804,0.03896997,39.3897,-18.05407,15.55766,1008.311
21.236276150,121.1496,50.47474,22.99418,-0.603994,0.255349,-0.08145509,39.3897,-18.05407,15.55766,1008.313
21.268452644,169.5567,77.64066,31.14536,-0.8374858,0.23026,-0.2125151,37.85751,-16.08542,18.74414,1008.313
21.303103924,159.5436,67.28329,40.89,-1.003369,0.4647168,-0.3796621,37.16127,-14.49249,23.26712,1008.311
21.335280418,88.83716,64.79752,40.95128,-0.9543598,0.3970777,-0.4963569,35.69231,-10.9375,26.38176,1008.313
21.369931698,68.93371,48.22571,14.29143,-1.36979,0.3019938,-0.002106966,35.69231,-10.9375,26.38176,1008.311
21.402103901,31.33829,-5.810203,5.711242,-1.176902,-0.05356021,-0.1634879,34.59476,-9.743073,29.12342,1008.313
21.436755180,132.4528,-1.963177,-10.10081,-1.009851,-0.01411023,-0.1642394,34.22858,-8.202612,29.94672,1008.314
21.468931675,120.4738,-12.32055,-11.02011,-0.9518731,0.3729648,0.2182263,34.22858,-8.202612,29.94672,1008.314
21.503582955,7.073275,-55.17051,-8.017051,-0.9792961,0.2299522,0.1599452,34.99839,-5.914366,30.888,1008.316
21.535759449,32.62832,-62.21352,-22.29693,-0.894512,0.009652737,-0.1554797,36.48935,-2.528378,29.0784,1008.314
21.570410729,54.86613,-47.12134,-44.36025,-1.039057,0.01039263,-0.3416227,36.48935,-2.528378,29.0784,1008.317
21.602583408,22.24659,-54.57866,-72.92001,-1.231538,-0.1340277,-0.1221894,38.3614,-1.81082,27.66241,1008.319
21.634759903,-15.34883,-76.35874,-94.30918,-1.390711,-0.1425036,-0.1280041,40.29333,1.632427,25.85024,1008.319
21.669411183,10.82053,-92.6938,-86.21929,-1.311283,0.02419878,-0.04832301,40.29333,1.632427,25.85024,1008.321
21.701587677,-11.41728,-84.4079,-74.26833,-0.9687908,-0.1250636,0.01376658,42.14464,4.614858,22.70172,1008.319
21.736238957,1.360246,-79.02206,-80.70346,-0.8726922,-0.277861,0.0251062,42.86734,7.999402,19.93967,1008.322
21.768415451,30.29397,-73.22193,-90.08038,-1.022236,-0.2092086,0.08249752,42.86734,7.999402,19.93967,1008.324
21.803062439,43.62437,-78.0751,-98.53799,-1.214746,-0.3327491,0.1141233,44.33385,10.59957,16.28491,1008.326
21.835238934,48.10879,-70.14431,-109.5696,-1.087184,-0.3742702,0.09909475,45.05242,15.18616,13.13444,1008.326
21.869890213,44.05438,-67.77691,-102.7055,-0.7698425,-0.3183931,0.4373679,45.05242,15.18616,13.13444,1008.323
21.902128220,77.04252,-56.47258,-97.43482,-1.035341,-0.5509995,0.3145358,43.49123,18.96781,9.10704,1008.325
21.936779499,109.2935,-55.76236,-108.4665,-0.9904218,-0.5101721,0.4137451,42.70268,23.13609,6.349001,1008.329
21.968955994,140.0087,-68.90143,-96.20908,-0.9097565,-0.4466454,0.4583421,42.70268,23.13609,6.349001,1008.328
22.003602982,224.7212,-101.4532,-73.04259,-0.7351921,-0.2465856,0.5190945,41.14093,27.29806,2.255987,1008.328
22.035779953,131.0399,-120.4516,-54.41133,-0.7658169,-0.2255687,0.5812495,38.34145,30.73849,-4.951453,1008.33
22.070430756,19.05221,-130.6906,-50.55024,-0.4983218,-0.3149885,0.865288,38.34145,30.73849,-4.951453,1008.332
22.102607250,-38.50809,-137.0826,-48.16005,-0.3809909,-0.2781049,0.8143693,35.97001,32.19209,-13.0441,1008.334
22.134783268,-178.508,-137.9703,-49.01807,-0.1679645,-0.1908776,0.7446567,31.7667,32.5868,-16.59493,1008.33
22.169435024,-284.5369,-110.8044,-56.74023,0.1902662,-0.6514477,0.1003137,31.7667,32.5868,-16.59493,1008.33
22.201607704,-136.7968,-71.91986,-60.72389,-0.09764384,-1.123463,0.3883086,29.13371,34.16029,-15.69628,1008.331
22.236258984,-94.34834,-77.71999,-66.85259,-0.698982,-1.31804,0.7007953,25.80499,38.08897,-10.27836,1008.331
22.268435478,-16.70029,-117.9658,-110.1825,-0.1435547,-0.9721755,0.7172619,25.80499,38.08897,-10.27836,1008.331
22.303086758,-69.65331,-123.3516,-61.88834,-0.4724827,-0.5410386,0.3325019,21.99933,41.22673,-7.595899,1008.327
22.335263252,-149.7586,-113.5269,-59.7433,-0.09743558,-0.6947942,0.1474669,18.20367,42.85141,-8.923154,1008.327
22.369914532,-49.99558,-112.58,-30.75454,-0.06473596,-0.7636945,0.2974596,15.22689,43.7021,-5.34116,1008.329
22.402087212,-86.48524,-120.9251,24.71022,-0.1957533,-0.4743831,0.5946048,15.22689,43.7021,-5.34116,1008.329
22.436738491,-148.0385,-153.3584,13.49469,-0.5711223,-0.9272014,0.1051449,12.58761,44.50764,-4.885064,1008.327
22.468914032,-137.4725,-147.9726,19.74597,-0.2980518,-1.047482,0.5450448,13.0013,44.91832,-2.147421,1008.329
22.503565788,-93.0583,-115.1841,6.262825,-0.6509925,-1.476251,0.04159587,13.0013,44.91832,-2.147421,1008.329
22.535741806,-55.83147,-100.743,-22.35821,-0.3161836,-1.152656,0.2382773,14.18134,44.9477,1.417023,1008.329
22.570393562,-54.60286,-55.17051,-59.55944,0.134885,-0.8236528,0.3298066,14.1979,43.82135,2.761448,1008.332
22.602565766,-131.698,-47.47645,-60.84646,0.2758823,-0.8432425,0.3350774,14.1979,43.82135,2.761448,1008.328
22.634742260,-154.1201,-58.54405,-47.66975,0.08138987,-0.9462671,0.004427254,12.34447,45.02652,5.506973,1008.33
22.669393540,-106.6958,-49.37037,-51.53083,0.3430681,-1.117306,-0.480942,10.44461,45.10623,9.597244,1008.332
22.701570034,5.967527,-23.03304,-39.8863,0.2498378,-1.129362,-0.5939233,10.44461,45.10623,9.597244,1008.332
22.736221314,-58.47298,-5.099983,-26.58702,0.2243193,-0.951749,-0.1738454,9.356502,44.40554,13.17701,1008.333
22.768397808,-56.56864,-23.56571,-33.2673,0.1804285,-1.030922,0.04232918,7.47284,44.81921,13.6311,1008.331
22.803044796,-96.12981,-47.77238,-49.07935,0.2197072,-1.081003,-0.1955939,7.47284,44.81921,13.6311,1008.333
22.835221291,-85.56378,-58.54405,-69.6718,0.1926903,-0.9326872,-0.1141072,6.751941,44.1026,16.38013,1008.333
22.869872570,-169.1706,-101.6307,-116.3112,0.255127,-0.8881244,-0.02274253,5.274077,43.01478,19.07113,1008.333
22.902049065,-210.5747,-96.6592,-140.9486,0.2661036,-0.9070401,-0.3917305,5.274077,43.01478,19.07113,1008.333
22.936700344,-240.737,-102.8736,-184.156,0.2082385,-0.7749586,-0.5472335,3.069182,41.9026,23.99771,1008.334
22.968876839,-188.3983,-87.60389,-171.8986,0.2670726,-0.5761405,-0.7852151,0.8980799,37.07834,31.74778,1008.336
23.003524303,-167.3277,-118.0842,-137.1488,0.2828023,-0.3222409,-0.8946106,0.8980799,37.07834,31.74778,1008.338
23.035700798,-83.53658,-120.8067,-107.302,0.38433,-0.2177879,-0.9424148,-1.749963,31.46316,36.7624,1008.336
23.070352078,-23.33478,-70.79535,-73.16516,0.1611321,-0.5189666,-0.9924611,-2.463519,25.73885,40.36473,1008.336
23.102528572,-22.29046,-80.8568,-75.37149,0.270696,0.08841744,-1.024144,-2.463519,25.73885,40.36473,1008.337
23.134705067,-40.78102,-23.86163,-31.06097,0.3978979,-0.2062252,-1.1338,-0.4963264,21.5357,41.71405,1008.339
23.169356346,59.90343,7.92072,-30.9384,0.2135437,-0.2342627,-1.048925,-0.1186447,21.1492,41.71397,1008.335
23.201528549,-13.13733,-5.455093,-30.38681,0.2396135,-0.3440112,-0.9131851,-0.1186447,21.1492,41.71397,1008.337
23.236179829,16.47213,-16.99617,-28.36434,0.2471219,-0.2587307,-0.990154,0.258523,20.00043,41.71762,1008.337
23.268356323,33.91836,-4.153023,-22.05178,0.3439548,-0.1579911,-0.9560051,-0.8863382,20.76743,40.82714,1008.337
23.303007603,25.31811,3.955324,-17.82298,0.2431002,-0.2622407,-0.9443555,-0.1299438,21.51896,40.81955,1008.336
23.335183621,67.95082,13.78004,-1.398052,0.2972176,-0.1884944,-1.102348,-0.1299438,21.51896,40.81955,1008.336
23.369835377,69.54801,22.36186,15.21073,0.2334331,-0.1301682,-0.8809985,-0.9026432,22.27491,39.48086,1008.338
23.402007580,27.59103,34.08049,32.30981,0.2178505,-0.2943618,-0.9718586,-1.731266,24.94311,38.57946,1008.338
23.436659336,48.23165,37.80915,53.51512,0.304538,-0.3611271,-1.076848,-1.731266,24.94311,38.57946,1008.338
23.468835354,64.75644,54.67688,63.32104,0.3146469,-0.1955897,-0.9410996,-1.741794,26.45627,37.67945,1008.336
23.503487110,49.27597,66.33633,70.98192,0.2686999,-0.1703597,-0.845991,-2.136863,27.96831,36.27135,1008.337
23.535663128,39.32424,78.11414,88.81644,0.3493767,-0.2618986,-0.9573942,-2.136863,27.96831,36.27135,1008.339
23.570314884,-12.76875,95.69209,111.3701,0.3926355,-0.4034362,-0.9676408,-1.780192,30.67166,34.47096,1008.339
23.602486611,-44.28255,115.1048,126.3854,0.6055835,-0.6377787,-1.007228,-1.344012,32.18425,34.01498,1008.339
23.634663105,-30.39928,197.4311,123.2598,0.361285,-0.6826679,-1.195226,-1.344012,32.18425,34.01498,1008.337
23.669314385,-6.318556,200.8639,113.1474,0.2101453,-0.5498882,-1.068365,-0.5660496,30.67171,35.80368,1008.339
23.701490879,-39.06097,248.1527,114.6796,-0.001212646,-0.3778934,-0.8673553,-2.90297,29.93686,35.37304,1008.34
23.736142159,-108.7231,212.2274,121.1147,0.1266107,-0.603379,-0.820279,-2.90297,29.93686,35.37304,1008.34
23.768318653,-72.78625,233.9483,137.4171,0.1771807,-0.7860642,-0.8116529,-6.67602,29.61592,35.90428,1008.34
23.802966118,-34.14654,225.0114,134.7204,-0.1590028,-0.7742735,-0.6951489,-9.690907,26.55683,36.76375,1008.336
23.835142612,-26.16058,183.1676,140.9104,0.1446741,-0.67332,-0.4368705,-9.690907,26.55683,36.76375,1008.336
23.869793892,-16.94602,183.7002,149.0616,0.1133377,-0.6887716,-0.3836856,-14.61067,25.47753,36.34819,1008.338
23.902161598,-18.66607,145.6443,139.5008,-0.07397875,-0.8459759,-0.18224,-17.34158,26.63667,34.57135,1008.334
23.968989372,51.42603,96.16557,118.3568,0.5593609,-1.088596,-0.01711206,-19.62,27.80091,33.68481,1008.336
24.003637314,110.1535,113.1517,97.88692,0.3762399,-1.07664,-0.09531669,-20.39244,28.93799,32.34425,1008.338
24.035812855,178.157,112.3823,95.06772,0.1594084,-1.057522,0.1671439,-20.39244,28.93799,32.34425,1008.34
24.070465088,151.5576,64.38322,63.5049,-0.0700803,-0.9000129,0.3662755,-21.57648,32.77698,28.25086,1008.337
24.102640629,20.6494,70.65683,39.84812,0.5097024,-1.344684,0.3533437,-21.64881,38.03814,22.35941,1008.337
24.137291908,107.4506,51.89518,12.88182,-0.09951949,-1.309892,0.2552033,-21.64881,38.03814,22.35941,1008.337
24.169468403,66.1079,54.61769,4.424215,0.3810126,-1.04838,0.1106855,-21.6872,41.04741,19.22055,1008.339
24.201641083,173.6726,40.17655,5.588668,-0.03744692,-0.9107956,0.2477923,-22.49488,42.5307,15.1367,1008.341
24.236292362,38.40278,4.073694,23.66834,0.1545716,-0.3499246,0.4689702,-22.49488,42.5307,15.1367,1008.339
24.268468857,-115.849,25.61704,26.91655,0.3860103,-1.085978,0.08478295,-22.9485,42.84249,9.271368,1008.339
24.303120136,117.8937,46.92365,22.32003,-0.08587009,-1.334002,0.03267541,-22.19181,44.03868,9.261608,1008.339
24.335296154,135.7086,43.5501,22.25874,0.04207041,-0.6628838,0.4732239,-22.19181,44.03868,9.261608,1008.34
24.369947910,51.42603,43.25417,33.10654,0.1922663,-0.7971173,0.4090198,-21.84854,43.9992,6.581991,1008.336
24.402119637,72.74239,29.75999,20.35884,0.2067927,-0.747002,0.3712195,-20.76678,45.07452,2.490328,1008.338
24.436771393,69.42515,32.42331,27.71328,0.4504578,-0.7012008,0.4252354,-19.69022,45.76383,-1.982001,1008.34
24.468947411,71.82093,24.67008,37.02891,0.1880284,-0.2196136,0.9613717,-19.69022,45.76383,-1.982001,1008.34
24.503598690,-171.8735,1.232813,32.8614,-0.06745321,-0.8304076,0.6454206,-18.9751,46.47475,-5.177309,1008.339
24.535775185,-100.9828,-0.3059969,19.01053,0.02153726,-1.889554,0.190973,-17.43285,47.62592,-2.895469,1008.339
24.570426464,121.8867,26.80074,13.12697,-0.02410959,-1.152499,0.3840091,-17.43285,47.62592,-2.895469,1008.341
24.602599144,61.68491,2.298144,8.714307,0.02561667,-0.674765,0.4954515,-16.26912,49.16277,-0.6773109,1008.343
24.634775639,43.93152,2.534884,15.94618,0.1620345,-0.7534989,0.5070254,-15.93848,48.72998,-4.311383,1008.341
24.669426918,5.967527,5.553319,13.37212,0.07290979,-0.735076,0.6357388,-15.93848,48.72998,-4.311383,1008.341
24.701602459,-41.02674,-5.987758,3.872632,0.02577661,-0.9680712,0.5402679,-15.58918,49.07732,-6.546581,1008.342
24.736254692,-3.124174,-13.56344,-6.852597,0.03379241,-1.017654,0.4727864,-13.9971,49.072,-5.215796,1008.342
24.768430233,29.49538,-15.45736,-5.442996,2.099574E-05,-0.7739334,0.4592047,-13.9971,49.072,-5.215796,1008.34
24.803078175,-73.21627,-4.626503,-2.68508,0.09104254,-0.8147724,0.5091107,-13.99684,49.45314,-5.217657,1008.342
24.835254192,-31.38217,0.5225934,3.811345,0.05121216,-1.065637,0.3040104,-14.74116,49.47524,-4.321229,1008.342
24.869905472,26.66958,-5.987758,-0.6013211,-0.01965881,-0.9344521,0.4016711,-14.74116,49.47524,-4.321229,1008.344
24.902081966,4.001754,-16.70024,-3.972107,0.01609806,-0.7301075,0.5509959,-14.72352,48.73085,-2.91491,1008.346
24.936733246,-37.58664,-18.47579,3.014613,0.05200159,-0.7319269,0.527028,-14.7359,48.71867,-3.871226,1008.343
24.968909740,-48.58268,-19.77786,10.43034,0.06051721,-0.8786238,0.3917433,-14.7359,48.71867,-3.871226,1008.345
25.003556728,-50.85561,-18.65335,13.31083,-0.004765541,-1.012074,0.3531743,-15.0899,48.74758,-2.020415,1008.347
25.035733223,-13.32162,-19.06764,3.688771,0.02972482,-1.020647,0.3966437,-13.92616,50.28444,0.1977425,1008.347
25.070384502,1.175955,-12.02463,1.053429,0.03524752,-0.9567021,0.3841054,-13.92616,50.28444,0.1977425,1008.349
25.102560997,-33.65509,-5.928573,-4.217256,0.1024186,-0.8851787,0.3869602,-13.5314,49.53386,1.538372,1008.35
25.137212276,-14.4888,-6.461238,-1.336765,-0.006215307,-1.009636,0.3536899,-13.53166,49.15272,1.540234,1008.348
25.169388294,35.51555,-1.371327,-5.626857,0.09014634,-0.8392448,0.3561234,-13.53166,49.15272,1.540234,1008.352
25.201560974,-38.13951,-5.810203,-0.478747,0.07792386,-0.7189084,0.4695354,-13.89779,49.55059,2.432867,1008.352
25.236211777,-70.26761,-5.514278,3.688771,0.07046405,-1.022456,0.2511669,-14.27572,49.55596,2.434801,1008.352
25.268388748,-19.95611,-3.265248,2.217882,0.04878209,-1.04817,0.2386252,-14.27572,49.55596,2.434801,1008.349
25.303039551,-10.00438,-1.075402,-0.5400341,0.1007365,-0.9704033,0.2860174,-14.24575,49.96633,4.728098,1008.353
25.335216522,-0.3598056,0.8185185,3.137187,0.05660411,-0.9554254,0.3116167,-14.23497,48.8343,5.626242,1008.351
25.369867325,-10.80298,0.1082982,1.911447,0.05062477,-0.9241139,0.3398866,-13.47832,49.96696,5.616791,1008.351
25.402040005,-29.8464,-1.489697,-0.04973787,0.04455973,-0.9571577,0.3309948,-13.47832,49.96696,5.616791,1008.354
25.436691284,-28.12635,-1.608067,-0.1723119,0.06628294,-0.9666324,0.2492561,-13.85099,49.21575,6.068726,1008.354
25.468867302,-23.88765,-1.548882,0.1954102,0.04793289,-0.9915097,0.2844082,-13.8334,49.61394,7.405708,1008.352
25.503519058,-19.58752,-3.324433,2.524317,0.07050854,-0.9784111,0.2351415,-13.8334,49.61394,7.405708,1008.352
25.535695076,-8.53005,-0.2468118,1.666299,0.05503396,-1.005731,0.2071047,-13.82236,48.86304,8.301991,1008.354
25.570345879,1.114524,0.7001484,0.1954102,0.05842917,-0.9709874,0.2459194,-13.43813,49.62563,8.742617,1008.354
25.602518559,1.298815,1.351184,-0.6013211,0.05600731,-0.9637052,0.2445561,-13.43813,49.62563,8.742617,1008.352
25.637169838,-8.898633,0.2266683,1.114716,0.05488006,-0.9836643,0.2362081,-13.43864,48.86336,8.746338,1008.353
25.669346333,-2.632731,2.120589,0.8695675,0.05673633,-0.9823104,0.2241519,-13.0607,48.85799,8.744404,1008.351
25.701522350,2.281702,0.2858533,-0.41746,0.04702243,-0.9918914,0.2342856,-13.0607,48.85799,8.744404,1008.353
25.736174107,5.353223,0.5225934,-0.9690433,0.06372374,-0.9749493,0.2390894,-13.8221,49.24417,8.300129,1008.353
25.768350124,-3.369896,-0.0692568,0.9308546,0.05949431,-0.9680098,0.255092,-13.43813,49.62563,8.742617,1008.353
25.802997112,-1.711275,0.6409634,0.7469934,0.05532518,-0.9803208,0.2294835,-13.43813,49.62563,8.742617,1008.355
25.835173607,2.097411,0.7001484,0.01154915,0.05786652,-0.9802406,0.2415104,-13.43261,49.25018,9.190758,1008.352
25.869824886,-0.3598056,0.9368885,1.359864,0.05397219,-0.9632876,0.2344565,-13.44416,49.2388,8.298197,1008.354
25.902001381,-1.895566,0.9960735,0.8082805,0.05014428,-0.9743212,0.2488613,-13.44416,49.2388,8.298197,1008.354
25.936652660,1.298815,0.1082982,0.3792713,0.05627888,-0.9827637,0.2280085,-13.81607,49.63099,8.744551,1008.354
25.968829155,3.203158,0.1674833,-0.04973787,0.05446875,-0.9729536,0.2401562,-13.43813,49.62563,8.742617,1008.354
26.003476620,3.940323,0.4634083,-0.2335989,0.0608525,-0.9671461,0.2420725,-13.43813,49.62563,8.742617,1008.355
26.035652161,3.018867,0.6409634,-0.5400341,0.04867806,-0.9680296,0.2455528,-14.18823,49.64204,9.192764,1008.355
26.070304394,1.175955,0.1082982,0.3179843,0.06489215,-0.9655914,0.2574716,-13.05993,50.00139,8.738823,1008.357
26.102479935,0.9916635,0.4634083,0.1954102,0.05115239,-0.968494,0.2498639,-13.05993,50.00139,8.738823,1008.357
26.137131214,4.493197,-0.2468118,-0.294886,0.05300137,-0.983588,0.2449022,-13.06044,49.23912,8.742544,1008.355
26.169307709,1.790259,0.2858533,0.6244195,0.05803225,-0.9636486,0.2532136,-13.44416,49.2388,8.298197,1008.355
26.201480389,-2.141288,0.2266683,0.5018454,0.05217485,-0.9650716,0.2537386,-13.44416,49.2388,8.298197,1008.357
26.236131668,-2.141288,0.2858533,0.2566972,0.04819427,-0.9699575,0.2469874,-13.43813,49.62563,8.742617,1008.354
26.268307686,1.421676,0.3450383,-0.41746,0.05823705,-0.988087,0.2313203,-13.44994,49.23312,7.851917,1008.354
26.302959442,5.046071,0.8185185,0.1341232,0.05256598,-0.9787021,0.2488026,-13.0607,48.85799,8.744404,1008.356
26.335135460,2.896006,0.5225934,0.3179843,0.0497735,-0.9616393,0.2566813,-13.0607,48.85799,8.744404,1008.358
26.369786739,1.667398,0.1674833,-0.356173,0.05747778,-0.9738616,0.2502427,-13.82737,50.00076,7.850128,1008.362
26.401958943,3.756032,0.7001484,-0.1110249,0.05655268,-0.974294,0.2565137,-13.44442,48.85767,8.300056,1008.359
26.436610222,2.773145,0.9960735,0.1341232,0.05275017,-0.9654781,0.2643338,-13.44442,48.85767,8.300056,1008.359
26.468786717,4.124615,0.7001484,0.5018454,0.04785056,-0.9703075,0.2643397,-13.44943,49.99539,7.848194,1008.359
26.503437996,4.370336,0.4634083,-0.294886,0.04687651,-0.9669159,0.2629308,-13.44968,49.61425,7.850056,1008.361
26.535614014,1.851689,0.6409634,-0.1723119,0.06125993,-0.9498507,0.2822172,-13.44968,49.61425,7.850056,1008.363
26.570265770,-1.465553,0.2266683,0.3792713,0.05170138,-0.9703752,0.2580373,-14.21108,50.00044,7.405781,1008.359
26.602437496,0.8073722,0.1674833,-0.1110249,0.05220975,-0.9722934,0.2613907,-13.82814,48.85736,7.855711,1008.361
26.637088776,2.588854,0.3450383,-0.294886,0.05857752,-0.9723032,0.2642232,-13.82814,48.85736,7.855711,1008.361
26.669265270,1.114524,0.3450383,-0.04973787,0.05716819,-0.9659598,0.2676626,-13.44968,49.61425,7.850056,1008.364
26.701441765,0.6845114,0.4634083,0.07283618,0.05714822,-0.9727479,0.2685709,-13.45572,49.22744,7.405636,1008.364
26.736093044,1.851689,0.2266683,-0.04973787,0.05671655,-0.9610886,0.269635,-13.45572,49.22744,7.405636,1008.36
26.768269062,1.544537,0.1674833,0.3179843,0.05315139,-0.9776487,0.2598917,-13.82762,49.61962,7.85199,1008.362
26.802917004,1.053094,0.2266683,0.1341232,0.05082087,-0.9688328,0.2686622,-13.82788,49.23849,7.853849,1008.362
26.835093021,2.281702,0.2858533,-0.1723119,0.05327689,-0.9688303,0.2705673,-13.82788,49.23849,7.853849,1008.364
26.869743824,-0.2983752,-0.01007179,-0.1110249,0.06109826,-0.966439,0.270996,-13.46702,49.5972,6.511213,1008.36
26.901920319,1.605968,0.4634083,-0.1110249,0.0576744,-0.9654621,0.26959,-13.83969,48.84599,6.96315,1008.36
26.936571598,-1.895566,0.1082982,0.07283618,0.05480741,-0.9615236,0.2749512,-13.83969,48.84599,6.96315,1008.36
26.968748093,-0.2983752,0.2858533,0.1954102,0.05765619,-0.9669294,0.2681321,-14.2116,49.23817,7.409502,1008.36
27.003395557,-0.851249,-0.1876268,0.01154915,0.05909171,-0.9688968,0.2656925,-13.45598,48.84631,7.407495,1008.357
27.035571575,2.465993,0.2858533,-0.04973787,0.05187156,-0.9615162,0.2740147,-13.45598,48.84631,7.407495,1008.357
27.070222378,-0.3598056,-0.01007179,0.4405583,0.056814,-0.9600329,0.2807288,-13.83314,49.99507,7.403847,1008.361
27.102399349,-1.03554,0.04911323,0.2566972,0.05480541,-0.962009,0.2749473,-13.45572,49.22744,7.405636,1008.361
27.137050152,-0.2983752,0.1082982,0.2566972,0.0572233,-0.971229,0.2767767,-13.45572,49.22744,7.405636,1008.363
27.169227123,-0.1755144,-0.1876268,-0.1110249,0.05125023,-0.975175,0.2647499,-13.45572,49.22744,7.405636,1008.363
27.201398850,2.957437,0.2858533,0.07283618,0.05772917,-0.9639617,0.2753859,-13.07752,49.6032,7.40184,1008.36
27.236050129,-0.7283881,0.1674833,0.7469934,0.0508958,-0.9644126,0.2754459,-13.07752,49.6032,7.40184,1008.36
27.268226624,-2.079857,-0.0692568,-0.04973787,0.05373038,-0.9703149,0.2671768,-13.46098,49.98402,6.955633,1008.36
27.302877903,-0.114084,-0.1284418,0.07283618,0.06199311,-0.9703862,0.2632431,-13.45546,49.60857,7.403774,1008.362
27.335054398,0.5616505,0.2266683,0.3792713,0.05082111,-0.9736683,0.2710323,-13.45546,49.60857,7.403774,1008.362
27.369705677,-0.2369448,0.5225934,0.5018454,0.058211,-0.9634861,0.2744213,-13.8334,49.61394,7.405708,1008.358
27.401877403,-3.492757,-0.01007179,0.6857064,0.04797816,-0.9629379,0.2759673,-13.83392,48.85167,7.40943,1008.36
27.436529160,-0.114084,-0.01007179,-0.04973787,0.05315927,-0.9728059,0.2584856,-13.8334,49.61394,7.405708,1008.359
27.468705177,-0.4826665,-0.2468118,0.3179843,0.05375662,-0.966906,0.2686507,-13.8334,49.61394,7.405708,1008.359
27.503356457,2.281702,-0.01007179,-0.04973787,0.05524661,-0.9615703,0.2691627,-13.82737,50.00076,7.850128,1008.359
27.535532951,1.544537,0.04911323,-0.2335989,0.05625914,-0.9625092,0.2739656,-13.82236,48.86304,8.301991,1008.361
27.570184231,0.07020722,0.1674833,-0.04973787,0.05131881,-0.9654412,0.2682035,-13.82236,48.86304,8.301991,1008.363
27.602356434,0.008776814,0.1674833,0.1954102,0.05333548,-0.9624907,0.274475,-13.83366,49.2328,7.407568,1008.361
27.637007713,-1.711275,-0.2468118,0.3792713,0.05321409,-0.9722724,0.2647555,-13.45495,50.37084,7.400053,1008.361
27.669183731,1.175955,-0.3651819,-0.1723119,0.04636252,-0.9741906,0.2633576,-13.45495,50.37084,7.400053,1008.359
27.703835011,2.03598,-0.01007179,0.01154915,0.05283362,-0.9687873,0.2758738,-13.8334,49.61394,7.405708,1008.359
27.736011505,1.667398,-0.0692568,-0.2335989,0.05430135,-0.9649226,0.2744459,-13.45598,48.84631,7.407495,1008.359
27.768188000,0.5616505,-0.2468118,-0.1110249,0.05914252,-0.9693342,0.2719544,-13.45598,48.84631,7.407495,1008.362
27.802835464,0.2544985,-0.0692568,-0.1110249,0.05043208,-0.9614867,0.2769203,-13.83366,49.2328,7.407568,1008.358
27.835011005,-0.7898185,-0.1876268,-0.04973787,0.0542874,-0.9702545,0.2753661,-13.46124,49.60289,6.957495,1008.358
27.869662285,0.6845114,0.04911323,0.2566972,0.05574896,-0.9649448,0.2725042,-13.46124,49.60289,6.957495,1008.358
27.901838779,-0.7898185,-0.1284418,0.2566972,0.05475475,-0.9644728,0.2701074,-14.21712,49.61362,6.961363,1008.358
27.936490059,0.623081,-0.2468118,-0.1110249,0.04845589,-0.961499,0.2740467,-13.4552,49.9897,7.401913,1008.354
27.968666553,2.404563,-0.1284418,-0.2335989,0.05514975,-0.9742312,0.2637573,-13.4552,49.9897,7.401913,1008.354
28.003314018,2.896006,-0.01007179,-0.2335989,0.05484192,-0.9610086,0.2788112,-13.83892,49.98938,6.957567,1008.356
28.035489559,0.3773593,-0.1876268,0.01154915,0.05002503,-0.9546406,0.2832466,-13.45572,49.22744,7.405636,1008.356
28.070140839,-1.281262,0.04911323,-0.5400341,0.0512985,-0.9654596,0.2657935,-13.45572,49.22744,7.405636,1008.354
28.102317333,0.8688026,-0.1284418,-0.41746,0.06603438,-0.9606094,0.274854,-13.45546,49.60857,7.403774,1008.352
28.136968613,-0.9126794,-0.1284418,0.1341232,0.05865682,-0.9736818,0.2743331,-13.46098,49.98402,6.955633,1008.354
28.169145107,2.834576,-0.7202919,1.23729,0.05343924,-0.9657813,0.2884249,-13.46098,49.98402,6.955633,1008.35
28.203792572,-0.6669577,0.4042233,0.3179843,0.0445669,-1.001565,0.2371207,-13.83892,49.98938,6.957567,1008.35
28.235968113,1.175955,-0.5427369,-0.41746,0.06185913,-0.9405642,0.2909642,-14.21712,49.61362,6.961363,1008.35
28.268145084,5.967527,-0.6611069,0.1341232,0.04603829,-0.9580815,0.2750614,-14.21712,49.61362,6.961363,1008.351
28.302795887,1.667398,0.2858533,-0.356173,0.05282359,-0.9712142,0.2758538,-13.83314,49.99507,7.403847,1008.351
28.334972859,2.097411,-0.3059969,-0.356173,0.06226255,-0.9561176,0.2884222,-13.46124,49.60289,6.957495,1008.347
28.369623661,0.008776814,-0.0692568,0.2566972,0.06248772,-0.9815047,0.2694128,-13.45546,49.60857,7.403774,1008.347
28.401795864,-3.001313,0.1674833,0.6244195,0.06058842,-0.9756443,0.2728529,-13.45546,49.60857,7.403774,1008.347
28.436447144,0.2544985,-0.0692568,0.2566972,0.05583603,-0.9595463,0.2802599,-13.83366,49.2328,7.407568,1008.343
28.468623638,3.756032,0.1674833,0.5018454,0.05431971,-0.9663566,0.2773259,-13.82762,49.61962,7.85199,1008.345
28.503274441,0.8073722,0.4634083,0.4405583,0.05242668,-0.9638755,0.283148,-13.82762,49.61962,7.85199,1008.347
28.535451412,-0.1755144,-0.0692568,0.1954102,0.05501788,-0.9458579,0.2924304,-13.83944,49.22712,6.961288,1008.349
28.570102215,0.07020722,-0.3651819,0.07283618,0.04804718,-0.961908,0.2836871,-13.83892,49.98938,6.957567,1008.349
28.602274418,0.623081,-0.0692568,0.1954102,0.05915872,-0.9683524,0.2734083,-13.83892,49.98938,6.957567,1008.346
28.636925697,-1.588414,0.04911323,0.3792713,0.06164509,-0.9659044,0.2777433,-13.46124,49.60289,6.957495,1008.348
28.669102192,0.3773593,-0.0692568,0.01154915,0.05340449,-0.9614608,0.2821948,-13.07778,49.22207,7.403702,1008.348
28.703753472,-2.325579,-0.1876268,0.1954102,0.05707734,-0.9771645,0.2622691,-13.07778,49.22207,7.403702,1008.346
28.735929012,0.7459418,0.4042233,0.3179843,0.05577515,-0.9605688,0.2735041,-13.46702,49.5972,6.511213,1008.346
28.768105507,-0.5440969,-0.1876268,0.8082805,0.04750616,-0.9571182,0.2750557,-13.83918,49.60825,6.959429,1008.346
28.802752972,-1.834136,-0.2468118,-0.1110249,0.05082508,-0.9717304,0.2705662,-13.83918,49.60825,6.959429,1008.348
28.834929466,2.03598,-0.3059969,-0.04973787,0.06193848,-0.974788,0.2588694,-14.21712,49.61362,6.961363,1008.348
28.869580746,3.326019,0.3450383,0.1954102,0.05387228,-0.964383,0.2812023,-13.46124,49.60289,6.957495,1008.344
28.901756763,-0.1755144,0.04911323,0.2566972,0.04906528,-0.9526867,0.2842357,-13.46124,49.60289,6.957495,1008.346
28.936407566,-0.6055273,-0.2468118,0.01154915,0.05922352,-0.9644248,0.2792241,-13.8334,49.61394,7.405708,1008.346
28.968584537,-0.0526536,-0.5427369,-0.1110249,0.05190235,-0.9677746,0.2807108,-13.83918,49.60825,6.959429,1008.346
29.003231525,-0.9741098,-0.6611069,-0.5400341,0.0557493,-0.9717144,0.2758224,-13.83918,49.60825,6.959429,1008.347
29.035407543,1.175955,-0.0692568,-0.04973787,0.0534715,-0.9609162,0.2899107,-13.83969,48.84599,6.96315,1008.345
29.070059299,-4.04563,-0.1876268,0.4405583,0.0646316,-0.9634479,0.2835197,-13.0833,49.59752,6.955561,1008.347
29.102235317,-3.369896,0.1082982,1.176003,0.05082899,-0.9688254,0.2696261,-13.0833,49.59752,6.955561,1008.347
29.136886120,0.4387897,0.1082982,0.8082805,0.04929626,-0.9727492,0.2633421,-13.45546,49.60857,7.403774,1008.35
29.169063091,1.790259,-0.0692568,-0.04973787,0.0485085,-0.9575825,0.2784165,-13.46124,49.60289,6.957495,1008.348
29.203710079,0.1316376,-0.2468118,-0.41746,0.05140809,-0.9634258,0.2778593,-13.46124,49.60289,6.957495,1008.348
29.235886097,-0.114084,-0.1876268,-0.41746,0.05763617,-0.9727504,0.2685663,-13.4552,49.9897,7.401913,1008.35
29.268062592,1.790259,-0.0692568,-0.356173,0.05380332,-0.96638,0.2739566,-14.21738,49.23249,6.963223,1008.352
29.302713871,1.790259,-0.2468118,-0.5400341,0.05040795,-0.9663443,0.2763985,-14.21738,49.23249,6.963223,1008.352
29.334889412,2.03598,-0.2468118,-0.6626081,0.04995445,-0.9648598,0.279789,-13.8334,49.61394,7.405708,1008.353
29.369540691,-1.588414,-0.2468118,-0.1110249,0.05827605,-0.964394,0.2826072,-13.07778,49.22207,7.403702,1008.349
29.401713371,-0.3598056,0.5817784,0.6857064,0.06069566,-0.967326,0.2815965,-13.83944,49.22712,6.961288,1008.351
29.436364651,-4.229922,0.5817784,1.23729,0.05486209,-0.9580889,0.279799,-13.83944,49.22712,6.961288,1008.351
29.468541145,-2.141288,1.055259,0.9921415,0.05474878,-0.9668961,0.2705695,-13.4615,49.22175,6.959356,1008.351
29.503192425,-3.861339,0.6409634,0.1954102,0.04649599,-0.9624636,0.273575,-13.83314,49.99507,7.403847,1008.349
29.535368443,-3.492757,-1.193772,0.3179843,0.0497456,-0.9723032,0.2585216,-13.83314,49.99507,7.403847,1008.351
29.570019245,-7.301442,-0.3651819,0.3179843,0.05807783,-1.012894,0.2243693,-13.45546,49.60857,7.403774,1008.351
29.602191925,-2.202718,-0.1876268,0.3179843,0.06444517,-0.9723216,0.2656143,-14.20556,49.62499,7.853924,1008.349
29.636843205,2.773145,-0.01007179,0.3179843,0.05080844,-0.9640085,0.2648461,-14.20556,49.62499,7.853924,1008.349
29.669019222,-0.9741098,0.1082982,-0.04973787,0.05381516,-0.9595992,0.2720844,-13.82814,48.85736,7.855711,1008.349
29.703670502,-3.308465,-0.1284418,0.1341232,0.04995191,-0.9547071,0.2745707,-14.20531,50.00612,7.852062,1008.349
29.735846996,1.97455,-0.3059969,0.4405583,0.05076389,-0.9669504,0.2609662,-14.20531,50.00612,7.852062,1008.347
29.768022537,3.326019,0.2858533,-0.1110249,0.04717631,-0.9820802,0.247861,-13.07174,49.60889,7.848122,1008.347
29.802670479,0.6845114,0.1674833,-0.1110249,0.05960199,-0.9683954,0.2681018,-13.072,49.22775,7.849983,1008.348
29.834846497,0.7459418,0.04911323,0.1341232,0.05435177,-0.9576232,0.2769156,-13.072,49.22775,7.849983,1008.348
29.869497776,-0.6669577,0.4042233,0.1341232,0.05086717,-0.96057,0.2701758,-13.83366,49.2328,7.407568,1008.346
29.901674271,-1.588414,-0.3059969,0.07283618,0.05905329,-0.9723167,0.2627726,-13.44968,49.61425,7.850056,1008.344
29.936325550,1.114524,-0.1284418,0.07283618,0.05416558,-0.9713324,0.2613804,-13.44968,49.61425,7.850056,1008.346
29.968501091,3.940323,0.04911323,-0.04973787,0.05571259,-0.9688463,0.2700624,-13.4552,49.9897,7.401913,1008.344
30.003148556,0.07020722,0.04911323,0.1341232,0.05733642,-0.9585533,0.2841101,-14.21134,49.6193,7.407642,1008.344
30.035325050,-3.492757,0.04911323,0.4405583,0.05424653,-0.9654559,0.268176,-14.21134,49.6193,7.407642,1008.346
30.069976330,-1.526984,0.1082982,0.1341232,0.05555445,-0.974793,0.2541089,-13.44994,49.23312,7.851917,1008.345
30.102152348,0.07020722,0.1082982,-0.1723119,0.05417365,-0.970358,0.2618703,-13.82788,49.23849,7.853849,1008.347
30.136803150,0.623081,0.6409634,-0.1723119,0.05516184,-0.9722859,0.2642552,-13.82788,49.23849,7.853849,1008.349
30.168980122,0.8688026,0.04911323,-0.5400341,0.05081861,-0.9644827,0.266288,-13.82814,48.85736,7.855711,1008.349
30.203627110,3.756032,0.7593334,-0.9077562,0.05596682,-0.9347653,0.283837,-13.45546,49.60857,7.403774,1008.346
30.235803127,-7.178581,0.6409634,-0.1110249,0.05884863,-0.9507796,0.2860881,-13.45546,49.60857,7.403774,1008.346
30.270454884,-18.54321,-0.5427369,0.2566972,0.04958434,-0.8937029,0.317493,-13.82788,49.23849,7.853849,1008.348
30.302630901,-51.96136,-3.620358,0.5018454,0.0474063,-0.9190444,0.3028445,-13.82762,49.61962,7.85199,1008.348
30.334806442,-75.24348,-3.561173,-0.04973787,0.04821933,-0.9433385,0.2370847,-13.82762,49.61962,7.85199,1008.346
30.369458675,-84.82662,-7.704123,-1.643201,0.04819439,-0.9955118,0.1431469,-13.42079,49.64268,10.08146,1008.346
30.401630402,-82.79942,-7.171458,-1.275478,0.05168825,-1.006543,0.09964338,-13.00787,48.90997,12.82468,1008.346
30.436281681,-71.55765,-11.55115,-1.581913,0.06635436,-1.051005,0.008042079,-12.95639,48.19886,16.84493,1008.346
30.468457699,-36.60375,-5.869388,1.605012,0.07419305,-1.061617,-0.0412825,-12.95639,48.19886,16.84493,1008.342
30.503109455,3.080297,-0.01007179,2.46303,0.06750673,-1.06915,-0.07839617,-12.92827,47.08389,19.08192,1008.342
30.535284996,42.39576,2.594069,-0.1723119,0.03657844,-1.071621,-0.04101399,-13.29408,46.7203,20.04203,1008.342
30.569936276,44.73011,1.943034,-2.256071,0.05583093,-0.9536359,0.1024509,-13.29408,46.7203,20.04203,1008.344
30.602108956,16.77928,2.771624,-1.888349,0.06155363,-0.9480208,0.1419678,-12.95112,47.44228,17.29493,1008.34
30.636760235,-23.88765,2.771624,-2.501219,0.05714597,-0.9200036,0.1846558,-12.9569,47.4366,16.84865,1008.34
30.668936253,-86.66953,-0.8386619,-8.139625,0.03271,-0.8232763,0.2497872,-12.9569,47.4366,16.84865,1008.337
30.703587055,-256.4018,-13.44507,-42.82808,-0.06622822,-0.8109532,0.08452214,-13.31668,47.45983,18.25318,1008.339
30.735764027,-504.0892,-32.32509,-99.45729,0.01859632,-0.7154828,-0.3208438,-13.23078,46.40171,24.95298,1008.339
30.770414829,-649.8635,21.94757,-144.6258,0.5353243,-1.666823,-1.437287,-13.23078,46.40171,24.95298,1008.339
30.802587032,-330.364,127.0602,-152.777,0.43319,-2.226195,-1.532044,-15.35637,38.57457,41.26165,1008.335
30.834763527,133.6814,79.23866,-204.5033,-0.197271,-1.651572,-1.631319,-18.70395,14.55346,46.81602,1008.335
30.869414806,265.081,91.19403,-247.159,0.2042243,-0.6585344,-1.314061,-18.70395,14.55346,46.81602,1008.333
30.901590347,90.80293,119.9579,-229.3245,0.4099609,-0.05137154,-0.934534,-22.92158,3.507672,42.81098,1008.333
30.936241627,-107.3102,145.8218,-189.6105,0.8352081,-0.1672699,-1.087431,-25.23922,7.680375,38.72183,1008.332
30.968418121,-69.28472,204.7701,-141.6228,0.6087077,-0.3856754,-1.105916,-25.23922,7.680375,38.72183,1008.33
31.003065586,45.28299,208.3212,-123.1141,0.5026454,-0.2452909,-0.8449357,-29.14221,3.485638,34.29916,1008.33
31.035241604,63.03638,219.0928,-105.0957,0.4266829,-0.04620302,-0.6309878,-34.14156,-3.067764,28.04456,1008.33
31.069892406,28.3282,222.1705,-87.1386,0.4620754,0.09349541,-0.4937605,-34.14156,-3.067764,28.04456,1008.33
31.102069378,4.001754,213.5887,-67.2816,0.4007789,0.2128201,-0.354353,-37.6318,-5.0112,21.3133,1008.33
31.136720181,-64.00171,230.4564,-42.70551,0.4603901,0.2449178,-0.2447487,-41.12204,-6.954636,14.58205,1008.325
31.168896198,-96.68269,250.6976,-8.813782,0.3885897,0.1345149,-0.2570389,-41.12204,-6.954636,14.58205,1008.325
31.203543663,-43.05395,270.8205,30.4712,0.4977776,0.1265694,-0.2099233,-43.57694,-8.948206,5.103876,1008.325
31.235720158,-1969.143,159.316,-32.348,-14.10234,-0.4713506,14.25219,-45.22319,-10.2017,-5.211015,1008.325
31.270371437,634.2164,-79.73228,31.57437,0.4975356,0.4447883,2.977755,-45.22319,-10.2017,-5.211015,1008.323
31.302546978,410.1182,-217.5742,-5.504283,1.40701,-0.6927422,-0.4425436,-43.03707,-9.234335,-16.44929,1008.323
31.334723473,121.8253,96.57987,-1.398052,1.357732,0.6922243,0.7478227,-42.64783,-9.609467,-15.5568,1008.323
31.369374752,-36.54232,9.637085,46.58969,0.4404601,0.4575946,0.8238554,-42.62104,-12.69363,-13.31021,1008.319
31.401546955,-24.87054,-14.86551,42.11573,0.8387706,-0.3272566,0.5765247,-42.62104,-12.69363,-13.31021,1008.319
31.436197758,46.94161,25.14356,47.07999,0.5124319,-0.3251084,0.7077993,-42.25385,-11.50345,-14.21059,1008.319
31.468374252,127.7226,-17.76557,43.7092,0.3188059,-0.4177112,0.5333949,-42.63653,-9.979231,-14.66238,1008.319
31.503025532,250.7677,-25.34126,47.509,0.383055,-0.1948854,0.5799403,-42.63653,-9.979231,-14.66238,1008.315
31.535201550,259.7365,-53.09903,49.04117,0.3783826,0.01214566,0.7368945,-42.60687,-8.807405,-12.43656,1008.317
31.569852829,238.6659,-89.49781,61.54372,0.382646,0.1131476,0.5564556,-43.75714,-9.506382,-8.792717,1008.315
31.602025509,238.7274,-106.0696,84.89407,0.5344142,0.2551605,0.3132824,-43.75714,-9.506382,-8.792717,1008.315
31.636676312,236.5773,-88.66922,138.7041,0.8198903,0.4824702,0.2025967,-44.06601,-9.813929,-3.433556,1008.311
31.668852329,157.9464,-28.06377,188.224,0.9300802,0.3285431,0.2653695,-45.13364,-7.066542,1.532063,1008.313
31.703503609,121.7024,-7.289828,223.7705,0.7158691,0.07545338,0.09995595,-45.13364,-7.066542,1.532063,1008.311
31.735680103,51.67175,-2.791767,242.5243,1.201232,-0.2142973,0.1002683,-45.11771,-0.5759029,2.392992,1008.311
31.770331383,0.2544985,61.77908,245.7725,0.8252342,-0.4920797,0.09040068,-45.10623,7.878241,2.798025,1008.311
31.802503109,-26.83631,43.37254,240.1954,1.314457,-0.9708911,0.06068041,-45.10623,7.878241,2.798025,1008.311
31.834679127,125.3883,142.3299,262.1974,1.287346,-0.8579611,0.1481423,-42.0361,17.78465,0.9484196,1008.307
31.869330406,121.7639,121.1416,219.603,0.02368916,-0.6017515,0.5211353,-38.67604,26.07498,-2.74392,1008.307
31.901506901,-20.44755,103.327,167.6928,-0.3533679,-0.6863638,0.6984399,-38.67604,26.07498,-2.74392,1008.311
31.936158180,-140.3597,74.62223,158.7449,0.2238275,-0.9228128,0.6833928,-31.94305,33.59064,-8.617904,1008.309
31.968334198,-72.41768,62.66685,129.511,0.3414668,-1.426538,0.5822244,-26.58608,37.70705,-8.665769,1008.309
32.002981186,77.16538,56.03814,110.8185,0.1077828,-1.238289,0.6736808,-26.58608,37.70705,-8.665769,1008.31
32.035157681,23.84378,45.97668,71.59479,0.02412538,-0.960684,0.8049619,-22.03616,42.2276,-7.818743,1008.314
32.069808960,-56.20005,23.72312,13.67856,-0.03930955,-1.166291,0.7889168,-17.15659,44.85435,-10.59866,1008.312
32.101984978,19.11364,-6.697978,-0.6013211,0.01465973,-1.153684,0.7591151,-17.15659,44.85435,-10.59866,1008.315
32.136636257,4.001754,-10.01234,-18.06812,0.1810136,-0.6208094,0.6689301,-15.19736,45.9757,-10.16795,1008.315
32.168812752,-64.55458,0.4042233,-23.46138,0.0226276,-0.675327,0.5465667,-15.20313,45.97001,-10.61423,1008.32
32.203459740,-68.48613,5.375764,-16.53595,0.1735223,-0.9118506,0.4988647,-15.20313,45.97001,-10.61423,1008.324
32.235635758,-20.32469,5.434949,-19.29386,0.2076483,-0.9768117,0.4681268,-15.99254,45.62975,-8.313023,1008.322
32.270287037,14.01491,3.659399,-14.81991,0.1964034,-0.8728451,0.4734269,-17.10299,46.04972,-6.523959,1008.325
32.302463532,28.38963,6.0268,-9.242791,0.1857622,-0.8403065,0.4689744,-17.10299,46.04972,-6.523959,1008.325
32.334639072,36.86702,8.453384,-0.478747,0.1677716,-0.7193774,0.5925671,-18.24285,45.67901,-6.962578,1008.327
32.369290352,-4.352782,7.624795,2.095308,0.1509705,-0.8113635,0.6122095,-18.26018,45.66196,-8.301419,1008.329
32.401463032,6.643261,9.69627,8.714307,0.1732078,-0.8174317,0.5319401,-18.26018,45.66196,-8.301419,1008.328
32.436114311,18.62219,12.89226,15.70103,0.2388663,-0.7130999,0.5712295,-17.89406,45.26408,-9.194054,1008.332
32.468290329,2.404563,9.045235,23.42319,0.1492085,-0.7086644,0.5851166,-17.51586,45.63985,-9.197847,1008.334
32.502941132,-22.04474,12.30041,29.36803,0.2030685,-0.7459641,0.5664726,-17.89932,46.02067,-9.644056,1008.334
32.535117149,-20.87756,13.30656,29.85833,0.1041778,-0.9164243,0.553458,-17.89932,46.02067,-9.644056,1008.33
32.569768429,18.37647,7.388055,35.80317,0.004418496,-0.7788231,0.5203374,-16.3873,46.38033,-9.653652,1008.333
32.601941109,-0.0526536,8.571754,40.58356,0.0511942,-0.730318,0.5463288,-14.42858,46.7394,-9.219223,1008.331
32.636592388,-9.021493,5.020654,42.05445,0.01042917,-0.9073036,0.5428401,-14.42858,46.7394,-9.219223,1008.336
32.668767929,14.44492,-0.01007179,36.10961,-0.01104741,-1.017455,0.5956343,-13.30663,47.47339,-10.18506,1008.336
32.703419209,39.07852,0.5225934,43.40276,-0.1504847,-0.9334705,0.5706358,-11.04425,48.19776,-10.64667,1008.338
32.735595703,13.46204,-5.218353,47.81543,-0.2215388,-0.8193023,0.5385,-11.04425,48.19776,-10.64667,1008.336
32.770246983,-10.55725,5.434949,58.23422,-0.05158876,-0.7833155,0.5940868,-9.16637,47.77841,-11.54704,1008.337
32.802418709,-12.89161,3.481844,65.64995,-0.2174613,-0.9304222,0.6710597,-7.293749,48.11565,-12.89741,1008.335
32.834594727,24.15093,18.33728,74.16885,-0.2733603,-0.8583748,0.6625353,-7.293749,48.11565,-12.89741,1008.335
32.869246006,12.7863,5.079839,73.67855,-0.1626983,-0.5950735,0.6376454,-4.258418,48.46521,-12.02218,1008.339
32.901422501,-30.58357,-12.43892,88.38744,-0.5714909,-0.8820086,0.6786183,-0.03783607,48.78639,-12.04564,1008.339
32.936073780,30.90828,-12.20218,105.0575,-0.3184738,-0.8747168,0.5283437,-0.03783607,48.78639,-12.04564,1008.337
32.968249798,11.5577,-15.57573,112.2281,-0.1912254,-0.4694083,0.5502597,3.357072,47.58899,-12.50374,1008.338
33.002896786,-69.40759,-26.11066,119.1535,-0.1790976,-0.6048216,0.4328683,7.880532,47.13206,-13.41765,1008.34
33.035073280,-39.18383,-43.39269,109.2863,-0.110651,-0.9192529,0.4257814,7.880532,47.13206,-13.41765,1008.34
33.069724560,12.66344,-36.17212,95.80316,0.1319691,-0.6820536,0.437041,12.06021,45.95235,-11.64821,1008.338
33.101900578,-36.48089,-29.66176,95.80316,0.277196,-0.4142014,0.4581381,16.29736,45.14719,-10.32725,1008.34
33.136551857,-186.0639,36.62545,89.85832,0.1043541,-1.794089,0.476331,16.29736,45.14719,-10.32725,1008.337
33.168727398,168.3895,28.99059,60.80828,-0.390772,-1.094338,0.4515338,20.0881,43.58115,-9.382826,1008.339
33.203374863,67.88939,52.25029,23.79091,-0.6296669,-0.05822483,0.9067082,22.36096,42.72884,-8.944117,1008.339
33.235551357,-57.9201,12.77389,-7.159032,-0.9964875,-0.2938817,0.5746447,22.36096,42.72884,-8.944117,1008.341
33.270202637,-57.61295,-21.67179,-25.66771,-0.4503466,-0.6899265,0.4255397,25.36529,41.14349,-10.35474,1008.339
33.302378178,-11.47871,-4.685688,-30.4481,-0.4826061,-0.8072837,0.4181253,25.76717,41.16167,-8.507798,1008.339
33.337029457,-8.468619,18.15973,-22.11307,-0.4487205,-0.6304194,0.590377,25.01733,41.55922,-8.05951,1008.339
33.369205952,-33.10222,17.44951,-19.96802,-0.4375847,-0.9190966,0.4871553,25.01733,41.55922,-8.05951,1008.336
33.401378155,0.7459418,43.25417,3.0759,-0.4263789,-0.7277875,0.5667118,23.51186,42.34865,-7.609216,1008.336
33.436029434,-22.41332,33.84375,1.359864,-0.5822901,-0.658604,0.5629529,22.76779,42.75189,-6.714648,1008.338
33.468204975,-47.47694,48.34408,-5.872005,-0.5999621,-0.7286917,0.5263902,22.76779,42.75189,-6.714648,1008.342
33.502856255,-48.95127,38.87448,-15.61664,-0.4269014,-0.8045171,0.3091784,23.92498,43.13966,-4.937187,1008.339
33.535032749,-46.67834,34.8499,-48.22134,-0.1393527,-1.350484,0.8196618,24.70975,43.15734,-2.709652,1008.341
33.569684029,41.90432,41.06433,-5.259135,-0.3145378,-0.942666,0.2163751,24.70975,43.15734,-2.709652,1008.341
33.601855755,44.48439,17.03521,23.3619,-0.4399287,-0.651434,0.1365602,23.98363,43.26084,-0.4109364,1008.339
33.636507034,43.31721,-8.887824,17.53964,-0.653341,-0.6783442,0.5379072,23.96651,43.5614,-1.751329,1008.341
33.668683529,39.50853,-7.763309,25.44566,-0.4537307,-0.8135995,0.3729778,23.96651,43.5614,-1.751329,1008.342
33.703334332,20.28081,-15.75329,12.5141,-0.6868568,-0.7857592,0.4341865,24.32603,43.15703,-3.153998,1008.342
33.735510826,20.21938,-21.67179,21.033,-0.7227336,-0.7809768,0.4017848,25.442,42.3616,-4.494921,1008.342
33.770162106,37.4199,-23.68408,22.87161,-0.6631312,-0.6961781,0.4848317,25.442,42.3616,-4.494921,1008.344
33.802333832,45.83586,-29.78013,22.25874,-0.626432,-0.7730446,0.3594996,25.42492,42.72569,-5.835623,1008.346
33.836985111,42.76434,-16.28595,40.33841,-0.4217802,-0.534231,0.5557325,26.14562,41.91857,-8.513453,1008.347
33.869161606,14.50636,-19.48194,37.15149,-0.5864196,-0.649602,0.5317358,26.14562,41.91857,-8.513453,1008.347
33.901337624,21.878,-17.05536,32.8614,-0.4691977,-0.6161652,0.4113817,26.56184,40.74535,-10.359,1008.347
33.968164444,19.78937,-2.614213,44.56721,-0.6457372,-0.4866665,0.5370065,28.81767,40.32064,-11.26131,1008.345
34.002811909,2.281702,-1.075402,56.4569,-0.7819115,-0.6291109,0.5452968,29.18302,38.77937,-12.14836,1008.345
34.034988403,25.37954,-10.66337,53.39255,-0.4687528,-0.5040936,0.4682135,31.06668,38.3657,-12.60245,1008.342
34.069639683,2.773145,7.032945,63.9952,-0.5959845,-0.457808,0.3459084,31.06668,38.3657,-12.60245,1008.344
34.101815701,-7.547164,71.48542,66.56925,-0.5303341,-0.3258477,1.010097,32.20474,36.06848,-12.15081,1008.344
34.136466503,-34.45369,40.41329,50.75721,-0.5950668,-0.3424425,0.5155507,34.86084,34.51774,-11.26434,1008.346
34.168642521,-82.06225,87.70212,51.30879,-0.8514662,-0.3578702,0.6156619,34.86084,34.51774,-11.26434,1008.342
34.203289986,-31.01358,61.18723,26.79398,-0.5151996,-0.3898204,0.402591,36.40758,33.76892,-8.526915,1008.345
34.235466480,-81.7551,82.37547,34.57743,-1.083528,-0.5666039,0.3370288,38.73197,32.26902,-4.068269,1008.341
34.270117760,-2.632731,61.42397,31.57437,-0.4963859,-0.4523442,0.1743962,38.73197,32.26902,-4.068269,1008.341
34.302293301,-34.02367,90.1287,28.20358,-1.093624,-0.3091936,0.2886351,39.51127,31.51957,-2.219539,1008.343
34.336944580,-57.55153,61.60153,32.18724,-0.9600323,-0.5732868,0.05336963,40.6958,29.64896,1.800489,1008.345
34.369120598,-6.93286,57.28102,42.17702,-1.041113,-0.504285,0.0113151,40.79951,28.86288,4.991917,1008.341
34.401293278,-22.78191,31.89065,43.09633,-0.9260627,-0.4184408,0.01384126,40.79951,28.86288,4.991917,1008.343
34.435944080,-7.915746,26.14971,42.2996,-0.8039891,-0.3277335,0.2110698,40.82711,26.98564,7.232624,1008.34
34.468120098,-19.09608,20.17202,38.92881,-1.022459,-0.4042149,0.03413799,42.35518,25.45669,8.571175,1008.34
34.502771378,-25.11626,25.73541,36.41604,-0.8543293,-0.2696001,0.2901027,42.35518,25.45669,8.571175,1008.342
34.534947395,-15.04167,27.86607,28.81645,-1.060166,-0.4027345,0.07595401,43.12711,23.55734,9.915453,1008.342
34.569598198,-2.141288,32.89679,45.97682,-0.6391688,-0.2506968,-0.01540883,43.51583,22.41994,10.81166,1008.34
34.601770878,-1.281262,52.36866,41.68673,-0.934796,-0.3140498,0.2017992,43.51583,22.41994,10.81166,1008.34
34.636422157,14.81351,76.22022,34.94516,-0.7915097,-0.07522899,0.2964209,43.91693,21.29472,12.66419,1008.34
34.668598175,28.38963,93.62062,30.59377,-1.264754,-0.4046909,0.005064968,43.93902,19.79292,14.45675,1008.342
34.703249455,4.308906,98.88808,34.82258,-1.035597,-0.3107493,-0.06474276,43.93902,19.79292,14.45675,1008.34
34.735424996,19.8508,111.3169,49.16374,-1.078826,-0.194776,-0.09664126,43.98473,19.07614,18.03072,1008.34
34.770076275,11.49626,124.1009,41.50286,-1.22803,-0.2847225,-0.2126344,43.27461,17.2275,21.67789,1008.34
34.802248955,34.04122,126.9418,37.5805,-1.279673,-0.287699,-0.317253,43.27461,17.2275,21.67789,1008.34
34.836900234,32.81261,115.5191,44.07692,-1.375011,-0.2613136,-0.2930099,41.05846,16.5486,25.70974,1008.337
34.869075775,29.43394,94.62676,55.0473,-1.391879,-0.2358155,-0.3962722,38.39613,15.42645,29.36349,1008.339
34.901251793,27.59103,58.81983,50.57335,-1.328094,-0.1332624,-0.4630198,38.39613,15.42645,29.36349,1008.339
34.935903072,-42.7468,7.92072,27.34556,-1.304465,-0.07813952,-0.349034,35.77341,15.10563,31.16401,1008.339
34.968079090,-59.70159,-30.19443,-5.933292,-1.225659,-0.2054168,-0.3754006,33.5113,14.7624,31.62375,1008.339
35.002726078,-16.516,-48.36423,-7.22032,-0.9484599,0.04780237,-0.08959188,33.5113,14.7624,31.62375,1008.337
35.034902573,-104.5458,-64.16663,-14.75862,-0.8057414,0.2183698,0.02857244,32.76017,13.25428,32.08134,1008.337
35.069553852,-176.7265,-68.48713,-12.85873,-0.7376477,0.2666659,-0.02179273,32.74155,11.33156,30.75181,1008.337
35.101729870,-200.1315,-80.26495,5.527381,-0.7700559,0.3744045,0.01843983,32.74155,11.33156,30.75181,1008.333
35.136381149,-273.1108,-94.2918,5.649955,-0.7630665,0.436969,-0.1093215,33.11711,9.038581,30.69728,1008.333
35.168556690,-367.4065,-109.0289,-27.93533,-0.8083642,0.4609673,-0.1106289,34.59638,3.652814,28.4842,1008.333
35.203204155,-432.6456,-116.6637,-94.6769,-0.6845523,0.001059195,-0.2534276,34.59638,3.652814,28.4842,1008.333
35.235380650,-293.1372,-71.91986,-135.065,-0.5460058,-0.3115337,-0.1657175,36.04465,-4.873968,24.0549,1008.329
35.270031929,-130.6537,-27.29436,-150.0191,-0.6775918,-0.3334502,-0.1343044,39.35424,-11.48764,17.31117,1008.327
35.302207947,-73.76914,-14.80633,-146.5257,-0.8089188,-0.3048773,-0.03837153,39.35424,-11.48764,17.31117,1008.325
35.336858749,-59.45587,-22.61875,-103.0119,-0.9377776,-0.4018694,-0.1107507,40.06968,-11.53817,14.18333,1008.325
35.369034767,-47.72266,-21.84934,-63.48181,-1.067692,-0.4288861,-0.1102432,42.37919,-7.40236,12.30206,1008.321
35.403682232,-49.50414,-40.07833,-25.66771,-1.095834,-0.4034153,-0.1613445,42.7529,-5.126612,11.84268,1008.323
35.435857773,-62.22023,-44.39883,-13.71674,-0.8570359,-0.3237661,-0.06410623,42.7529,-5.126612,11.84268,1008.323
35.468034268,-56.38435,-20.78401,-9.549227,-0.7452805,-0.3180305,-0.06654774,43.10824,-4.392453,10.05191,1008.319
35.502685547,-15.59455,1.055259,-19.17129,-0.7312376,-0.3887635,-0.1034119,43.46859,-4.79601,8.712992,1008.319
35.534861565,45.77443,17.0944,-24.50326,-0.7852859,-0.3946353,-0.1444079,43.46859,-4.79601,8.712992,1008.319
35.569512844,93.26015,34.19886,-25.54514,-0.8834205,-0.3361632,-0.1781961,44.22421,-5.18788,8.710985,1008.317
35.601684570,104.1948,48.40327,-16.22951,-1.094594,-0.2852269,-0.1290518,44.24232,-4.027425,10.04424,1008.317
35.636335850,83.79987,44.20113,-9.855661,-1.395061,-0.207168,-0.2080265,44.24232,-4.027425,10.04424,1008.317
35.668512345,41.59716,-24.09837,-22.60336,-1.129531,-0.117148,-0.07046419,43.88852,-2.474783,11.82386,1008.315
35.703163147,-6.871429,25.02519,-8.262199,-0.9407983,-0.140069,0.1001416,43.88903,-1.712516,11.82014,1008.315
35.735339642,-6.93286,16.08825,0.9921415,-1.26,-0.02526516,-0.1354872,43.88903,-1.712516,11.82014,1008.315
35.769990921,-59.27158,-25.99229,16.55905,-0.9693615,-0.05598603,-0.02952056,44.27987,-0.9434357,12.7708,1008.317
35.802162647,-93.4883,-27.82703,27.03913,-0.7824939,-0.1231945,-0.001452333,43.88955,-0.950249,11.81641,1008.315
35.836813927,-92.38256,-22.97386,28.26487,-0.6514757,-0.2208269,0.07364017,43.88955,-0.950249,11.81641,1008.315
35.868989468,-56.20005,16.20662,28.51002,-0.7414119,-0.2543629,0.07275689,43.49324,-2.486469,10.48695,1008.315
35.903640747,-38.3238,36.38871,40.89,-1.101397,-0.143072,-0.07817042,43.86964,-4.778639,10.49618,1008.318
35.935817242,-71.8648,2.594069,57.25363,-1.257362,-0.1677124,-0.1010182,43.86964,-4.778639,10.49618,1008.32
35.967993259,-95.02407,-21.37586,78.52023,-1.113249,-0.3583298,0.009335469,43.86861,-6.303173,10.50362,1008.32
36.002640724,-68.36327,-24.63104,93.22911,-0.9343203,-0.3985385,0.008780394,43.48335,-8.59029,10.07044,1008.318
36.034816265,-49.81129,-24.27593,94.2097,-0.8100575,-0.3960062,0.1025957,43.48335,-8.59029,10.07044,1008.319
36.069467545,-17.9289,-8.769454,85.81338,-0.7361143,-0.4294682,0.09102585,42.33459,-13.60381,9.208179,1008.319
36.101643562,30.47826,6.322724,78.27508,-0.8332589,-0.4087066,0.07716149,42.31494,-17.05107,7.886086,1008.315
36.136294842,57.69193,5.90843,62.27917,-0.9528938,-0.3608297,0.1032545,42.31494,-17.05107,7.886086,1008.317
36.168471336,58.4291,-1.134587,42.78989,-0.9237564,-0.3355128,0.1321113,40.73236,-20.08345,7.462749,1008.319
36.203117847,51.3646,20.05365,33.96456,-1.06224,-0.3284411,0.1416558,39.23613,-22.71286,8.822351,1008.315
36.235294342,42.51862,16.26581,18.64281,-1.3655,-0.3014655,0.04541599,39.23613,-22.71286,8.822351,1008.315
36.269945622,14.44492,-38.12522,-19.96802,-1.189973,-0.2367467,0.05395167,38.50863,-23.43596,11.06134,1008.317
36.302121639,-18.42035,-28.7148,-45.52471,-0.8200729,-0.2463583,0.1159728,38.49078,-24.21528,9.726223,1008.317
36.336772442,-8.407189,34.90908,-47.9149,-1.110659,-0.3311627,0.0721952,38.86423,-22.32067,9.268705,1008.317
