Time (s),Gyroscope X (deg/s),Gyroscope Y (deg/s),Gyroscope Z (deg/s),Accelerometer X (g),Accelerometer Y (g),Accelerometer Z (g),Magnetometer X (uT),Magnetometer Y (uT),Magnetometer Z (uT),Barometer (hPa)
-0.001288891,6.32817,0.4067584,-0.8316121,0.8275518,0.326477,0.4350089,-42.04876,-19.74391,-2.757946,1008.06
0.033358574,11.30404,-0.8953119,0.2102673,0.8267481,0.3749955,0.4320424,-42.04927,-20.50618,-2.754225,1008.058
0.065530777,3.19522,-1.664717,0.8844246,0.8249155,0.38817,0.4398801,-42.04927,-20.50618,-2.754225,1008.064
0.100174427,-1.22777,-1.664717,-0.46389,0.8274739,0.3409132,0.4187407,-42.04927,-20.50618,-2.754225,1008.062
0.132346630,0.2465598,-0.1259068,-0.2187418,0.8359997,0.3613909,0.4361819,-42.04953,-20.88731,-2.752364,1008.062
0.166994095,1.413738,-1.250422,-0.46389,0.8377796,0.3462341,0.4230264,-42.42144,-20.49512,-2.30601,1008.062
0.199165821,4.055245,-0.4810168,-0.4026029,0.8363193,0.3539819,0.4197299,-42.42144,-20.49512,-2.30601,1008.062
0.233813286,3.563802,-1.309607,-0.2800289,0.8421581,0.3626415,0.4134808,-42.0435,-20.50049,-2.307944,1008.062
0.265985489,4.239536,-2.611677,-0.5251769,0.8504435,0.3563043,0.4152792,-41.28159,-20.12441,-1.867392,1008.062
0.300628662,6.26674,-3.262712,-1.628343,0.8449203,0.3411992,0.4041203,-41.28159,-20.12441,-1.867392,1008.062
0.332801342,9.399693,-1.013682,-1.505769,0.8434858,0.3649281,0.3961353,-42.04324,-20.11936,-2.309805,1008.062
0.367448330,5.529575,-0.6585718,-0.2800289,0.8465119,0.3877305,0.396777,-41.65426,-20.87562,-1.415455,1008.06
0.399620533,-5.036456,0.1700183,-0.7703251,0.8388367,0.3854722,0.4137,-41.65426,-20.87562,-1.415455,1008.062
0.434267521,-2.272087,0.7026834,-0.2187418,0.8419966,0.344119,0.4032076,-41.28762,-20.51123,-2.311811,1008.06
0.466440201,3.379511,0.2883883,-0.2187418,0.8415507,0.3552817,0.4028218,-42.42144,-20.49512,-2.30601,1008.06
0.498608589,3.133789,0.8210535,-0.09616779,0.8388247,0.383527,0.4132021,-41.65978,-20.50018,-1.863597,1008.06
0.533255100,-2.087796,0.4659434,0.02640625,0.8320478,0.3898973,0.4166918,-41.65978,-20.50018,-1.863597,1008.062
0.565427780,-5.835052,-0.4810168,0.5167025,0.8357881,0.3670014,0.4082742,-42.04401,-21.26276,-2.304223,1008.058
0.600075245,-5.957912,1.768014,0.2102673,0.8382063,0.3519788,0.4129478,-42.79912,-20.10862,-2.305937,1008.064
0.632247448,-4.729304,1.590459,-0.2800289,0.8357929,0.3524987,0.4158666,-42.79912,-20.10862,-2.305937,1008.064
0.666894913,-3.623556,1.649644,-0.2187418,0.8372565,0.3582938,0.4130087,-41.66004,-20.88131,-1.861736,1008.064
0.699062824,-6.940799,2.537419,-0.8316121,0.8373395,0.3636886,0.4202824,-42.41566,-20.48944,-1.859729,1008.064
0.733709812,-8.353698,3.366009,-0.7703251,0.8358777,0.3632143,0.4207741,-42.41566,-20.48944,-1.859729,1008.065
0.765882492,-8.476558,3.070084,-1.321908,0.8534722,0.3689541,0.4211392,-41.67134,-20.51155,-2.756159,1008.065
0.800529480,-15.54106,14.90709,-5.734574,0.8456328,0.3940725,0.4633535,-42.04979,-21.26844,-2.750504,1008.065
0.832702160,-18.98116,27.45431,-10.20853,0.840812,0.354498,0.4895822,-42.04979,-21.26844,-2.750504,1008.065
0.867349625,4.178106,76.22276,-20.44346,0.7092283,0.3046113,0.4185808,-42.43877,-20.51218,-3.644852,1008.065
0.899517059,49.63661,90.90064,-2.363787,0.7585629,0.367236,0.4518947,-41.70601,-20.54565,-5.433842,1008.065
0.934164524,22.79152,102.856,11.24193,0.5849278,0.5556942,0.5461664,-41.70601,-20.54565,-5.433842,1008.065
0.966337204,-31.20581,87.34954,22.15102,0.6156064,0.4669891,0.5812988,-40.60051,-20.97051,-7.605432,1008.067
1.000984192,-28.13429,51.48342,36.92119,0.7560878,0.5033956,0.6723501,-40.64121,-21.39143,-10.72754,1008.065
1.033156872,-45.45767,39.40968,37.96307,0.8672079,0.5684788,0.6236498,-40.64121,-21.39143,-10.72754,1008.065
1.065328598,-58.2352,31.24215,43.29504,0.8539095,0.3490046,0.5409886,-40.3079,-20.29807,-14.24154,1008.067
1.099971771,-3.869278,22.3644,51.56879,0.7621588,0.1880158,0.5019576,-40.70766,-18.40977,-16.03403,1008.065
1.132144451,-2.579239,15.32138,60.33284,0.6730869,0.3568395,0.6222704,-40.70766,-18.40977,-16.03403,1008.067
1.166791439,-58.41949,7.686515,65.72609,0.6443104,0.2660853,0.6680626,-40.71659,-15.7524,-16.87587,1008.067
1.198963642,-55.59369,1.531274,70.69034,0.6574516,0.09387518,0.6891743,-41.48243,-14.60881,-17.70639,1008.067
1.233610630,-23.7113,6.266075,75.65459,0.749769,0.1539045,0.7283317,-41.48243,-14.60881,-17.70639,1008.065
1.265783310,-71.68845,29.94008,85.58308,0.6004005,0.2285937,0.6874433,-42.23048,-11.54332,-17.27112,1008.067
1.300426483,-76.60288,15.55812,67.50342,0.6322186,-0.2330584,0.5739266,-42.62369,-8.505943,-18.62292,1008.071
1.332599163,-94.84772,20.64803,61.55858,0.4900203,-0.3135079,0.9389818,-42.62369,-8.505943,-18.62292,1008.071
1.367246151,-2.210657,3.010899,31.58922,0.5909877,-0.4788377,0.8388308,-43.37648,-3.921604,-18.64138,1008.071
1.399418354,59.28119,-4.623968,3.152045,0.673102,-0.6840093,0.7211753,-43.00804,-0.8892744,-19.55076,1008.071
1.434065342,94.48082,-11.25269,-10.14724,0.6736478,-0.1106705,0.7991607,-42.62933,0.2487574,-19.55828,1008.073
1.500881195,56.63968,-11.96291,-9.963378,0.7223832,0.1825179,0.7076151,-43.0083,-1.270408,-19.5489,1008.075
1.533053398,10.13686,-1.664717,-1.444482,0.7068365,0.2788512,0.7273524,-42.99803,-3.164706,-18.64704,1008.073
1.567700863,-29.24004,1.649644,2.723035,0.6928176,0.1011637,0.7130044,-42.99803,-3.164706,-18.64704,1008.073
1.599872589,-30.10007,3.247639,4.193924,0.6787868,-0.01129017,0.7237762,-42.9988,-4.308106,-18.64145,1008.071
1.632045269,-18.30543,0.9394235,3.887489,0.6802529,-0.05578385,0.7455677,-43.00432,-3.932658,-19.08959,1008.071
1.666692257,-4.545012,-0.4810168,1.681156,0.690891,-0.06753176,0.7395875,-43.00432,-3.932658,-19.08959,1008.071
1.698861122,6.635323,-1.250422,-0.03488077,0.6923283,-0.0250092,0.7158247,-42.99803,-3.164706,-18.64704,1008.069
1.733507633,4.915271,-0.7769418,-0.09616779,0.6852315,0.03277481,0.7144393,-42.62561,-2.794625,-19.09711,1008.069
1.765680313,-5.220747,-0.007536724,0.2715543,0.6902956,0.03920441,0.733243,-42.62561,-2.794625,-19.09711,1008.068
1.800327301,-9.029432,-0.3034618,0.8844246,0.6750007,-0.005360789,0.7349464,-42.99777,-2.783572,-18.6489,1008.068
1.832499981,-6.817938,0.05164829,0.5167025,0.6811283,-0.03702096,0.7245062,-43.00355,-2.789257,-19.09518,1008.066
1.867146969,2.642346,-1.132052,0.02640625,0.6792653,-0.02532472,0.72944,-43.00355,-2.789257,-19.09518,1008.066
1.899314880,6.021019,-0.7769418,-0.09616779,0.6876987,0.0139282,0.7267929,-43.37546,-2.39707,-18.64882,1008.064
1.933962345,-0.7977573,-0.5402018,0.5167025,0.6824621,0.03583493,0.7318423,-42.99803,-3.164706,-18.64704,1008.064
1.966134548,-6.449356,-0.4218318,0.8844246,0.6711271,0.003873989,0.7340947,-42.99803,-3.164706,-18.64704,1008.064
2.000782013,-4.667873,-0.7769418,0.8844246,0.6808081,-0.01897395,0.735744,-42.99803,-3.164706,-18.64704,1008.064
2.032954693,-3.377835,-1.960642,1.006999,0.6890466,-0.02390297,0.7312884,-42.99752,-2.402439,-18.65076,1008.066
2.067601681,-0.4291748,-0.3626468,0.3941284,0.6767973,-0.02823956,0.727511,-42.99752,-2.402439,-18.65076,1008.066
2.099769592,1.905181,-0.8361269,0.2102673,0.691012,-0.009877022,0.7260838,-42.61405,-2.783256,-18.20455,1008.066
2.131942272,0.6765727,-0.5993868,0.1489803,0.6905963,0.005665433,0.7271798,-42.99225,-3.159021,-18.20075,1008.062
2.166589260,-0.7977573,-0.1259068,-0.03488077,0.6934108,-0.004123707,0.7183968,-42.99225,-3.159021,-18.20075,1008.061
2.198761940,-0.6748964,0.1700183,0.02640625,0.6958994,-0.004091676,0.7241578,-42.99777,-2.783572,-18.6489,1008.061
2.233408928,-1.350631,0.4659434,0.1489803,0.6875964,-0.01179399,0.7270638,-42.99174,-2.396754,-18.20448,1008.066
2.265581131,-1.043479,0.5251284,-0.03488077,0.6865497,-0.01813983,0.7217193,-42.99174,-2.396754,-18.20448,1008.066
2.300224304,-0.3677444,0.1700183,-0.2187418,0.6910106,-0.02293463,0.7322421,-42.61354,-2.020989,-18.20827,1008.066
2.332396507,0.5537118,-0.007536724,-0.03488077,0.6847013,-0.01368386,0.7318953,-43.0033,-2.408124,-19.09704,1008.066
2.367043972,-0.1834531,0.2883883,-0.3413159,0.6818138,-0.005895405,0.7329504,-43.0033,-2.408124,-19.09704,1008.066
2.399216652,0.7994335,0.1108333,-0.4026029,0.6831784,-0.01131231,0.723735,-43.00355,-2.789257,-19.09518,1008.066
2.433863163,0.430851,-0.5993868,-0.1574548,0.6837531,-0.002047955,0.72959,-43.36993,-2.772519,-18.20068,1008.066
2.466035366,-1.719213,0.1108333,-0.1574548,0.685665,-0.01369986,0.7304401,-43.36993,-2.772519,-18.20068,1008.066
2.500678539,-0.4906052,-0.06672174,0.3941284,0.686651,-0.01224491,0.7309249,-42.99752,-2.402439,-18.65076,1008.066
2.532851219,0.5537118,-0.1850918,-0.09616779,0.6895059,-0.02006292,0.7260138,-42.62535,-2.413492,-19.09897,1008.066
2.567498684,1.290877,-0.007536724,0.3328413,0.6930304,-0.001605611,0.7299891,-42.99174,-2.396754,-18.20448,1008.066
2.599670410,-0.7977573,0.1700183,0.08769328,0.6851604,-0.006942525,0.7251986,-42.99174,-2.396754,-18.20448,1008.065
2.634317398,-1.104909,0.1700183,0.02640625,0.6850777,-0.01813983,0.720769,-42.99777,-2.783572,-18.6489,1008.065
2.666490078,1.106586,-0.1850918,0.02640625,0.6889957,-0.02153141,0.7240785,-42.99752,-2.402439,-18.65076,1008.065
2.698658466,0.0008381084,0.2292033,0.3328413,0.6877276,0.00331603,0.7353811,-42.99752,-2.402439,-18.65076,1008.066
2.733305931,-1.903505,0.1108333,0.2102673,0.6846667,-0.01323171,0.7275613,-43.7534,-2.391702,-18.64689,1008.066
2.765477657,-0.7977573,-0.007536724,0.02640625,0.6816542,-0.02489966,0.7231552,-42.61958,-2.407807,-18.65269,1008.066
2.800125122,1.536598,-0.06672174,-0.09616779,0.6871047,-0.01856488,0.7299046,-42.61958,-2.407807,-18.65269,1008.07
2.832297325,1.168016,-0.007536724,-0.1574548,0.6930021,-0.005499846,0.7285113,-43.37494,-1.634803,-18.65254,1008.07
2.866944790,-0.2448835,0.5251284,-0.03488077,0.6861666,-0.00353491,0.7271453,-42.99174,-2.396754,-18.20448,1008.07
2.899113178,-1.534922,0.1700183,0.2102673,0.6866367,-0.0108072,0.7285269,-42.99174,-2.396754,-18.20448,1008.07
2.933760643,-1.043479,-0.007536724,0.2102673,0.6841708,-0.01710501,0.728498,-42.61983,-2.78894,-18.65083,1008.07
2.965932369,0.1851293,0.05164829,0.08769328,0.6817291,-0.0185452,0.7289909,-43.38123,-2.402755,-19.0951,1008.07
3.000579357,0.06226853,0.05164829,-0.09616779,0.6875641,-0.0176261,0.726052,-43.38123,-2.402755,-19.0951,1008.07
3.032752037,0.3079902,-0.007536724,0.1489803,0.691907,-0.01769258,0.7202269,-42.23611,-2.788624,-18.20648,1008.07
3.067399502,-0.3063139,0.5843135,-0.1574548,0.6846139,-0.01424683,0.7217694,-43.37546,-2.39707,-18.64882,1008.07
3.099567890,0.5537118,0.2883883,0.08769328,0.6881551,-0.005445688,0.7324129,-43.37546,-2.39707,-18.64882,1008.069
3.134214401,-0.4291748,-0.2442768,-0.4026029,0.6929417,-0.01619329,0.7264957,-42.99752,-2.402439,-18.65076,1008.069
3.166387081,-0.6748964,0.2883883,-0.46389,0.6871169,-0.01855379,0.7313505,-42.62561,-2.794625,-19.09711,1008.069
3.198559284,0.06226853,0.1700183,0.2715543,0.6881456,-0.0165765,0.7366592,-42.62561,-2.794625,-19.09711,1008.069
3.233206749,1.168016,-0.3034618,-0.03488077,0.6831869,-0.02000877,0.7289652,-42.61958,-2.407807,-18.65269,1008.067
3.265378475,3.440941,0.2883883,-0.1574548,0.6871486,-0.002083649,0.7271481,-43.37546,-2.39707,-18.64882,1008.071
3.300021648,-0.3063139,0.8802385,-0.586464,0.6837085,-0.002088594,0.7242881,-43.37546,-2.39707,-18.64882,1008.071
3.332194328,-1.657783,0.4659434,-0.09616779,0.6798927,-0.01214396,0.7396649,-42.99752,-2.402439,-18.65076,1008.071
3.366841793,0.6765727,0.1108333,-0.03488077,0.6924582,-0.02295679,0.7303005,-43.37546,-2.39707,-18.64882,1008.071
3.399013996,0.8608639,0.3475733,-0.03488077,0.6857601,-0.007326935,0.7386857,-43.37546,-2.39707,-18.64882,1008.071
3.433661461,-1.350631,0.1700183,0.02640625,0.6812918,-0.01511174,0.7333612,-42.6138,-2.402122,-18.20641,1008.071
3.465833187,0.6765727,-0.06672174,-0.1574548,0.6880017,-0.02396085,0.7231037,-43.38123,-2.402755,-19.0951,1008.069
3.500476360,1.966611,0.1108333,-0.03488077,0.6895196,-0.008928409,0.7222495,-43.38123,-2.402755,-19.0951,1008.069
3.532649040,0.6765727,0.4067584,0.02640625,0.6881304,0.001301799,0.7262028,-42.99174,-2.396754,-18.20448,1008.068
3.567296028,-1.22777,0.7026834,0.2102673,0.6886266,-0.001594552,0.7285843,-42.99777,-2.783572,-18.6489,1008.068
3.599468708,-0.9820485,0.5843135,0.5167025,0.6852359,-0.01219319,0.7367225,-42.99777,-2.783572,-18.6489,1008.068
3.634115696,-0.613466,0.5251284,0.2102673,0.6817901,-0.01848979,0.7362208,-43.36968,-2.391386,-18.20254,1008.066
3.666287899,0.1851293,0.5843135,-0.03488077,0.6880645,-0.01955167,0.7284415,-43.00304,-2.02699,-19.0989,1008.066
3.700931072,0.7380031,0.4659434,-0.09616779,0.6896659,-0.009762502,0.7400752,-42.61983,-2.78894,-18.65083,1008.066
3.733103752,1.290877,0.2883883,-0.2187418,0.6846971,-0.01175336,0.7304652,-42.61983,-2.78894,-18.65083,1008.066
3.765275955,0.06226853,0.8210535,-0.5251769,0.6778147,-0.007413182,0.7223712,-43.38149,-2.783888,-19.09324,1008.066
3.799923420,-0.5520356,0.7618685,-0.3413159,0.6856992,-0.008349445,0.7319299,-42.99752,-2.402439,-18.65076,1008.068
3.832095146,0.7994335,0.5251284,-0.3413159,0.6832636,-0.01026764,0.7333828,-42.99752,-2.402439,-18.65076,1008.07
3.866742611,0.1236989,0.6434985,-0.1574548,0.6842459,-0.01365184,0.7357558,-42.99199,-2.777887,-18.20262,1008.071
3.898910999,1.352307,0.5843135,0.02640625,0.6876248,-0.01176813,0.7304378,-42.99752,-2.402439,-18.65076,1008.071
3.933557987,1.290877,0.3475733,-0.03488077,0.6804003,0.002378451,0.7349598,-42.99752,-2.402439,-18.65076,1008.07
3.965730667,-0.9820485,0.5843135,0.1489803,0.6818722,0.003345553,0.735436,-42.61983,-2.78894,-18.65083,1008.071
4.000377178,-1.289201,0.5843135,0.08769328,0.67983,-0.01655314,0.734327,-43.38149,-2.783888,-19.09324,1008.071
4.032549858,0.6151423,0.2292033,0.08769328,0.6817857,-0.01269092,0.7328947,-43.38149,-2.783888,-19.09324,1008.071
4.067196846,0.2465598,0.3475733,-0.2800289,0.6833125,-0.01409168,0.7410628,-43.0033,-2.408124,-19.09704,1008.073
4.099365711,0.0008381084,0.3475733,-0.3413159,0.6822878,-0.0121969,0.73434,-42.62561,-2.794625,-19.09711,1008.073
4.134012699,0.2465598,-0.007536724,-0.03488077,0.6842153,-0.013196,0.7319038,-42.62561,-2.794625,-19.09711,1008.073
4.166184425,0.3694206,0.1700183,-0.3413159,0.6798599,-0.006370957,0.7329647,-42.99752,-2.402439,-18.65076,1008.077
4.200831890,-0.2448835,0.1700183,0.02640625,0.6822875,-0.006394341,0.7314959,-42.99777,-2.783572,-18.6489,1008.077
4.233004570,-0.5520356,0.1108333,0.1489803,0.6842253,-0.008834846,0.7309757,-42.99777,-2.783572,-18.6489,1008.077
4.267651558,-0.5520356,0.4659434,0.08769328,0.6793782,-0.009747782,0.7353513,-42.62535,-2.413492,-19.09897,1008.077
4.299819946,-0.4906052,0.1700183,-0.09616779,0.6803604,-0.01409908,0.7381983,-42.99777,-2.783572,-18.6489,1008.077
4.331992149,0.3079902,-0.1259068,0.2102673,0.6877488,-0.01310609,0.7458495,-42.99777,-2.783572,-18.6489,1008.075
4.366639137,1.045155,-0.1850918,-0.09616779,0.6749341,-0.01557623,0.7319708,-43.0033,-2.408124,-19.09704,1008.075
4.398811817,-0.1834531,0.5843135,0.02640625,0.6774079,-0.005402645,0.7310676,-43.0033,-2.408124,-19.09704,1008.071
4.433458805,-0.8591877,-0.2442768,-0.2800289,0.686716,-0.0121858,0.7386367,-43.0033,-2.408124,-19.09704,1008.071
4.465631485,0.3694206,-0.007536724,-0.2187418,0.6778213,-0.01756212,0.7280714,-43.38149,-2.783888,-19.09324,1008.071
4.500274658,0.7994335,0.4067584,-0.1574548,0.6749562,-0.01023689,0.7320146,-43.00355,-2.789257,-19.09518,1008.07
4.532446861,0.7380031,0.1700183,0.08769328,0.6866447,-0.007898526,0.7280688,-43.00355,-2.789257,-19.09518,1008.07
4.567093849,0.7994335,0.1108333,0.2102673,0.6793618,-0.004927093,0.7310533,-43.0033,-2.408124,-19.09704,1008.072
4.599266529,-1.350631,0.2292033,0.2715543,0.6798497,-0.004929553,0.7310487,-43.00355,-2.789257,-19.09518,1008.068
4.633913517,-1.780644,0.1108333,0.1489803,0.6788602,-0.01702623,0.7352962,-43.00355,-2.789257,-19.09518,1008.068
4.666086197,0.6765727,-0.4810168,0.02640625,0.6841813,-0.02338189,0.7327842,-43.00355,-2.789257,-19.09518,1008.068
4.700728893,0.1236989,-0.2442768,0.2102673,0.6774587,-0.004872918,0.7368554,-42.99752,-2.402439,-18.65076,1008.067
4.732901096,-0.4291748,-0.007536724,0.02640625,0.6842337,-0.01559711,0.7352578,-43.37546,-2.39707,-18.64882,1008.067
4.767548561,-0.4906052,-0.3626468,0.2715543,0.6837414,-0.01076288,0.7324103,-43.37546,-2.39707,-18.64882,1008.065
4.799720764,0.0008381084,-0.4810168,0.2102673,0.6807833,-0.01222647,0.7295338,-42.99777,-2.783572,-18.6489,1008.063
4.831893444,-0.3063139,-0.2442768,0.1489803,0.6900869,-0.01127656,0.7328289,-42.2537,-3.186812,-19.54346,1008.063
4.866539955,-0.3677444,-0.06672174,0.2715543,0.6778556,-0.01124461,0.7290872,-42.2537,-3.186812,-19.54346,1008.063
4.898708820,-0.613466,-0.1850918,0.5779895,0.6842416,-0.009787163,0.7333776,-43.00304,-2.02699,-19.0989,1008.063
4.933355808,-0.7977573,-0.3626468,0.3328413,0.6773655,-0.009793358,0.7281397,-42.63139,-2.80031,-19.54339,1008.061
4.965528488,-1.043479,-0.3626468,0.1489803,0.6866554,-0.01997796,0.7351991,-42.63139,-2.80031,-19.54339,1008.061
5.000175476,0.1851293,-0.3626468,0.1489803,0.6842359,-0.0170459,0.7362099,-43.0033,-2.408124,-19.09704,1008.061
5.032347679,0.430851,-0.1259068,0.08769328,0.6828023,-0.01362599,0.7381794,-42.24716,-2.037727,-19.10277,1008.061
5.066994667,1.290877,-0.3034618,-0.1574548,0.6832717,-0.01026025,0.7343468,-42.24716,-2.037727,-19.10277,1008.061
5.099163055,-0.3677444,-0.6585718,-0.1574548,0.6812366,-0.009842595,0.7242472,-42.99777,-2.783572,-18.6489,1008.061
5.133810520,-1.412061,-0.4810168,-0.2800289,0.6871961,-0.0189653,0.7409863,-42.24767,-2.799994,-19.09904,1008.061
5.165983200,-0.0605923,-0.6585718,-0.03488077,0.6916304,-0.01943219,0.7462432,-42.24767,-2.799994,-19.09904,1008.061
5.200630188,1.413738,-1.309607,-0.2187418,0.6885302,-0.02295927,0.727445,-42.61958,-2.407807,-18.65269,1008.06
5.232801914,2.089472,-0.6585718,-0.03488077,0.6896573,-0.001066051,0.734845,-42.99174,-2.396754,-18.20448,1008.06
5.267449379,-2.087796,-0.5993868,0.2102673,0.6770251,0.004366805,0.7388636,-42.99174,-2.396754,-18.20448,1008.06
5.299617767,0.4922814,-1.842272,-1.199334,0.6754009,-0.0383257,0.7404549,-42.61983,-2.78894,-18.65083,1008.06
5.334265232,10.19829,-7.760774,-8.982786,0.7334046,-0.05760956,0.8578445,-42.997,-1.640172,-18.65448,1008.064
5.398609638,79.98324,-51.08421,-15.35664,0.8559229,-0.216204,0.763814,-42.99199,-2.777887,-18.20262,1008.064
5.433256626,120.4045,-66.76823,-15.72436,0.8369117,0.01683996,0.8859305,-43.35317,-2.375143,-16.92746,1008.065
5.465429306,94.54225,-99.08324,-11.49555,0.9256081,0.3024518,0.9077014,-43.35317,-2.375143,-16.92746,1008.065
5.500072479,-21.99125,-106.8365,-17.50168,0.8567635,0.2554818,0.7517887,-44.07123,-4.993359,-13.85035,1008.065
5.532245159,-43.36903,-104.2915,-31.72027,0.9736274,-0.03722035,0.5723554,-44.77092,-6.069985,-9.441851,1008.065
5.566892147,18.85997,-87.12788,-43.11966,1.00215,-0.1051586,0.3406514,-44.77092,-6.069985,-9.441851,1008.065
5.599063873,66.52998,-65.7029,-56.97053,1.01948,-0.06048971,0.29073,-44.34206,-6.406136,-5.489152,1008.065
5.633711338,76.23598,-60.61299,-53.84489,0.9358885,0.2583531,0.2936566,-45.05878,-8.261272,-2.352017,1008.065
5.665884018,13.20838,-61.55995,-48.51292,0.8554606,0.3762685,0.3638231,-45.05878,-8.261272,-2.352017,1008.065
5.700531006,-54.97939,-57.35782,-43.30352,0.7521563,0.3890458,0.3176564,-44.27009,-9.763247,0.2654877,1008.065
5.732699394,-75.25141,-51.79443,-44.22282,0.7006063,0.1807491,0.1491664,-44.6149,-12.01057,2.95627,1008.065
5.767346859,-42.20186,-27.76531,-50.59668,0.7476839,0.1170068,0.03300373,-43.46504,-13.91529,4.298615,1008.062
5.799518585,-32.25013,8.57429,-57.70597,0.7561076,0.2292697,-0.006155327,-43.46504,-13.91529,4.298615,1008.06
5.834166050,-59.83239,50.29972,-67.94091,0.7708537,0.2511289,-0.1203466,-42.70467,-15.82601,4.75033,1008.058
5.866338253,-48.46776,103.3887,-78.60485,0.8085485,0.1785901,-0.1873302,-41.97896,-17.77084,2.524363,1008.057
5.900985718,5.529575,152.8082,-83.44653,0.6802375,0.3642763,0.0173556,-41.97896,-17.77084,2.524363,1008.057
5.933154106,-73.16278,57.63866,-49.86123,-2.647487,-0.4376251,-0.1216021,-40.53752,-20.52765,-2.76196,1008.057
5.965325832,293.0239,-160.9316,-76.82752,1.598015,0.6626388,0.08692544,-38.70657,-23.27846,-7.157656,1008.057
5.999973297,28.99599,202.5236,-23.32395,0.7742088,0.787704,0.5424569,-38.70657,-23.27846,-7.157656,1008.057
6.032145977,36.18335,-30.25108,1.313434,0.2266375,1.080749,0.8035139,-38.62779,-25.10536,-0.9641781,1008.055
6.066792965,-50.00352,-3.025972,29.07645,0.8483716,0.5746661,0.4696367,-37.88424,-26.27086,-1.855024,1008.055
6.098965645,39.80774,1.472089,47.58514,0.4569523,0.5399272,0.3071948,-37.88424,-26.27086,-1.855024,1008.055
6.133607864,39.62345,26.80328,53.28483,0.6255428,0.5301145,0.3392808,-38.63987,-25.87899,-1.853017,1008.053
6.165780544,32.12894,62.49183,62.17145,0.5070139,0.4384655,0.2740793,-39.39446,-23.96259,-1.858453,1008.053
6.200428009,4.178106,95.16196,63.45847,0.5097628,0.3628513,0.2893363,-39.39446,-23.96259,-1.858453,1008.057
6.232600212,-8.906571,120.2564,75.22558,0.5663083,0.4795002,0.2835043,-40.54432,-22.05787,-3.200798,1008.057
6.267247677,-54.36508,136.5915,83.74448,0.6471744,0.3624296,0.3232366,-41.72174,-19.4185,-6.714512,1008.057
6.299420357,-42.26329,125.1688,100.5984,0.7665545,0.2982138,0.507163,-41.72174,-19.4185,-6.714512,1008.057
6.334062576,-85.20314,111.6746,108.2593,0.8549879,0.3606612,0.6056626,-42.17243,-17.19942,-12.46164,1008.057
6.366235256,-136.8661,99.18655,111.5688,0.8191758,0.1715912,0.6748099,-41.85909,-12.69778,-17.71376,1008.055
6.400950432,-120.7713,74.38802,105.3175,1.140829,0.171838,0.9142563,-41.85909,-12.69778,-17.71376,1008.057
6.433123112,-157.5682,119.1911,98.7598,1.215944,-0.2124098,0.9214737,-41.5298,-7.799576,-21.7564,1008.057
6.465295315,-268.7572,25.85632,62.8456,0.2025829,-0.6948528,1.529933,-40.05907,-1.386447,-25.30227,1008.057
6.499942780,-54.11936,-18.11815,43.78534,0.3512464,-1.108381,0.4305163,-40.05907,-1.386447,-25.30227,1008.059
6.532111168,132.1377,-27.23264,28.70873,0.1655202,-0.5248739,0.6370896,-37.78676,5.505267,-25.34767,1008.057
6.566757679,103.7568,-26.69998,3.02947,0.4876396,-0.172798,0.9941479,-38.91801,9.332707,-25.36048,1008.057
6.598930359,46.93367,-15.45482,-7.511898,0.6487138,-0.2808053,0.8760747,-38.91801,9.332707,-25.36048,1008.055
6.633577824,96.93803,-3.972933,-11.00526,0.5419333,-0.1553942,0.7682091,-39.3025,8.188991,-25.79924,1008.055
6.665750027,101.8525,-5.215818,-2.854084,0.554555,0.1006622,0.8106902,-39.29274,5.532425,-24.89366,1008.054
6.700397491,10.44401,-4.387228,-2.118639,0.5608273,0.2068758,0.8669373,-39.29274,5.532425,-24.89366,1008.054
6.732565403,-26.47567,-3.972933,-2.670223,0.5955063,-0.04412786,0.8177905,-39.67775,3.626442,-25.3287,1008.054
6.767212391,8.293944,-0.4810168,2.661748,0.5986623,-0.0903203,0.8091862,-39.67852,2.483041,-25.32312,1008.054
6.799385071,0.9837248,0.8210535,5.113229,0.5528712,-0.006399327,0.8363333,-39.67852,2.483041,-25.32312,1008.054
6.834032059,-16.0325,1.768014,2.355313,0.5513627,-0.07941408,0.8082714,-39.67274,2.488726,-24.87683,1008.054
6.866204739,2.150903,0.8802385,-0.03488077,0.541094,-0.09340558,0.8125899,-39.67248,2.86986,-24.8787,1008.054
6.900851727,8.416805,-0.8953119,-0.7703251,0.5757021,-0.02159911,0.831175,-39.68404,2.85849,-25.77126,1008.054
6.933019638,1.168016,0.8802385,0.2715543,0.5698793,-0.02347422,0.8360338,-39.68404,2.85849,-25.77126,1008.054
6.967667103,-5.097887,0.2883883,1.436008,0.5497499,-0.0365418,0.8279199,-39.30006,3.23994,-25.32877,1008.054
6.999839783,-5.896482,0.7026834,1.742443,0.5530043,-0.05894994,0.8195108,-40.05671,2.107276,-25.31932,1008.054
7.032011986,-1.534922,0.9986085,1.681156,0.542715,-0.06715737,0.8185752,-40.05671,2.107276,-25.31932,1008.06
7.066659451,-2.456378,-0.06672174,1.068286,0.5575766,-0.05832414,0.8406814,-39.678,3.245308,-25.32684,1008.058
7.098831177,0.1851293,-1.250422,0.9457116,0.5623677,-0.0758377,0.8385643,-40.05016,3.256362,-24.87862,1008.06
7.133474350,4.853841,-3.025972,3.45848,0.5548242,-0.03058651,0.8481657,-40.05016,3.256362,-24.87862,1008.06
7.165647030,-2.210657,-2.907602,5.235803,0.5690025,-0.0141914,0.8433486,-40.06146,3.626126,-25.77304,1008.06
7.200294018,-0.1834531,-0.5402018,6.829266,0.5571539,-0.05580708,0.7891321,-40.05594,3.250677,-25.32491,1008.06
7.232466698,1.106586,-2.197382,6.890553,0.5362796,-0.05608694,0.8023385,-40.05594,3.250677,-25.32491,1008.06
7.267114163,7.126766,-7.168923,8.974312,0.5416402,-0.04112959,0.7942179,-40.05543,4.012944,-25.32862,1008.058
7.299285889,4.485258,-8.352623,9.525895,0.5504704,-0.006314178,0.7828544,-39.67197,3.632127,-24.88242,1008.063
7.333929062,-9.336584,-8.885288,11.91609,0.5583649,0.03724694,0.7720539,-39.67197,3.632127,-24.88242,1008.063
7.366101742,-28.31858,-7.287293,10.4452,0.5677083,0.02182911,0.7299057,-39.66568,4.400079,-24.43986,1008.063
7.400748730,-40.05179,-10.54247,13.7547,0.5697636,-0.05594124,0.7798553,-40.03758,4.792266,-23.99351,1008.063
7.432921410,-42.6933,-8.648548,24.17349,0.6652939,-0.04398689,0.8181044,-40.03758,4.792266,-23.99351,1008.063
7.467568398,-67.94119,6.325259,31.28279,0.5956064,-0.1373656,0.8748608,-40.40923,5.565586,-23.54901,1008.063
7.499740601,-61.6753,5.97015,35.20516,0.5285123,-0.2759977,0.855546,-40.78614,7.095489,-23.55452,1008.063
7.531908989,-36.05882,1.294533,37.8405,0.5228367,-0.2477203,0.8052221,-40.78614,7.095489,-23.55452,1008.063
7.566555977,-37.0417,2.596604,40.53713,0.5700855,-0.2591563,0.800349,-40.01169,10.15006,-22.29819,1008.062
7.598728657,-48.22204,2.714974,40.41455,0.552319,-0.2771418,0.7854245,-39.26577,11.27217,-23.13644,1008.063
7.633376122,-60.81527,2.833344,39.86297,0.5741982,-0.3276153,0.8002282,-39.26577,11.27217,-23.13644,1008.062
7.665547848,-67.08117,2.182309,37.3502,0.559961,-0.3744915,0.7546667,-39.62566,13.58058,-21.87059,1008.062
7.700194836,-101.6051,6.443629,29.62804,0.4971197,-0.3175013,0.7402988,-39.2404,15.8677,-21.4374,1008.063
7.732363701,-140.0605,6.147705,36.98248,0.4908021,-0.4503525,0.6915447,-39.2404,15.8677,-21.4374,1008.063
7.767010689,-121.4471,0.2883883,55.73631,0.5920746,-0.5109913,0.6351518,-38.08192,18.16113,-19.66925,1008.063
7.799183369,-138.709,3.602749,59.90383,0.5694063,-0.5705594,0.6377643,-37.67278,21.61439,-17.45653,1008.063
7.833830357,-132.3203,-3.913748,59.04581,0.4393181,-0.8200266,0.4928036,-37.67278,21.61439,-17.45653,1008.062
7.866002560,-82.00876,-13.91601,59.1071,0.3157413,-0.8740857,0.3893992,-36.49785,25.06665,-14.48262,1008.063
7.900649548,-50.43353,-22.49784,61.25214,0.4093969,-0.7861686,0.458176,-35.32679,28.89599,-11.82934,1008.063
7.932817936,-57.37517,-18.41407,62.90689,0.4588376,-0.7350529,0.50971,-35.32679,28.89599,-11.82934,1008.063
7.967465401,-123.0443,-8.707733,56.53304,0.4170589,-0.7674808,0.4317486,-34.16362,30.81317,-9.676802,1008.065
7.999638081,-108.4853,-16.3426,53.16225,0.3128449,-1.145213,0.3500771,-32.61591,32.73147,-7.016158,1008.063
8.034285069,-9.705167,-33.15115,45.50138,0.3152505,-1.135026,0.2248187,-30.67323,35.42292,-3.086082,1008.065
8.066456795,20.15001,-38.65535,47.46256,0.3511323,-1.014151,0.3132043,-30.67323,35.42292,-3.086082,1008.065
8.098629475,37.65768,-41.73298,51.38493,0.312032,-0.9632749,0.3395346,-29.91029,37.32353,-2.652972,1008.065
8.133272648,55.4725,-44.45548,58.1265,0.2525434,-0.9387209,0.2752222,-28.00325,37.31375,-1.323799,1008.067
8.165445328,62.29128,-49.42702,63.45847,0.24737,-0.7935961,0.4605906,-28.00325,37.31375,-1.323799,1008.071
8.200092316,27.64452,-43.03505,76.57389,0.2015074,-0.7971539,0.3472374,-25.74614,38.7947,-2.235407,1008.071
8.232264519,41.22064,-40.72683,103.295,0.04421154,-0.9261545,0.4488615,-24.2444,41.04865,-3.146869,1008.071
8.266911507,21.62434,-24.68769,128.7905,-0.06489889,-0.7808796,0.4607173,-24.2444,41.04865,-3.146869,1008.071
8.299084187,-18.12113,-24.03665,139.8834,-0.2765022,-0.9754664,0.5194095,-21.60382,42.14879,-3.612268,1008.071
8.333727360,14.12983,-15.21808,177.5136,-0.1541809,-0.777553,0.5198997,-16.6722,43.68411,-2.306319,1008.071
8.365900040,-45.39624,34.49732,207.912,-0.2501274,-0.3784807,0.4074411,-16.6722,43.68411,-2.306319,1008.069
8.400547028,-69.41552,69.00219,244.5004,-0.5740159,-0.6967549,0.4044655,-10.17718,45.5033,-1.902541,1008.069
8.432719231,91.28644,79.12283,268.1571,-0.8890409,-0.9355828,0.1981762,-1.47198,46.91573,-1.061901,1008.069
8.467366219,179.0705,114.1604,264.2348,-0.928206,-0.6241968,0.2068928,-1.47198,46.91573,-1.061901,1008.069
8.499538899,180.852,150.204,251.6709,-0.8924543,-0.7156144,0.2082155,9.07566,46.7313,-3.793735,1008.069
8.534182072,216.6659,175.8311,217.1663,-0.7141113,-0.7810179,0.1501003,19.9703,42.2579,-8.674371,1008.069
8.566354275,230.9792,192.6397,175.7976,-0.6365239,-0.435358,0.2727258,19.9703,42.2579,-8.674371,1008.069
8.598526478,202.1683,185.8334,135.532,-0.5664978,-0.4920613,0.3289629,29.83802,35.62111,-10.03218,1008.069
8.633173466,237.798,149.7306,101.3339,-0.4839942,-0.2852518,0.6393417,37.38614,28.26651,-10.48179,1008.069
8.665346146,144.2395,84.68622,79.3931,-0.7160179,0.2372757,1.405928,37.38614,28.26651,-10.48179,1008.069
8.699993133,-57.68232,-8.826103,61.55858,-0.9251373,-0.4518208,-0.03416051,41.17824,21.36948,-9.12879,1008.071
8.732161999,13.39267,10.34984,72.7741,-1.289358,0.4321904,-0.2500139,43.44857,16.76935,-8.671783,1008.071
8.766808987,-69.7841,-27.52857,75.71587,-1.289483,-0.04152358,0.2550734,43.44857,16.76935,-8.671783,1008.071
8.798981190,-34.64592,-39.30639,89.07645,-0.9263196,0.07095674,0.09499821,45.33698,14.83684,-8.672149,1008.071
8.833628178,-46.50199,-36.58388,79.20924,-0.798017,0.2161713,0.25213,46.07925,11.76567,-9.553692,1008.071
8.865800858,-21.80696,-33.743,63.39718,-0.9234607,0.2027816,0.1972782,46.07925,11.76567,-9.553692,1008.069
8.900447845,-6.940799,-15.86912,42.37574,-1.006628,0.3594936,0.387326,46.81548,8.307674,-10.87965,1008.068
8.932616711,-1.719213,-9.773064,25.64438,-1.042077,0.4319183,0.3149899,46.80867,6.777455,-11.31849,1008.069
8.967263699,-11.67094,-10.06899,8.055007,-0.8771509,0.2957976,0.2043609,46.80867,6.777455,-11.31849,1008.068
8.999435425,-9.336584,-16.63853,2.171452,-0.783833,0.2471161,0.1828448,46.04521,4.114573,-11.74788,1008.068
9.034082890,-13.14527,-30.84293,9.464608,-0.9048091,0.2496937,0.1873689,46.41846,4.485465,-12.1342,1008.068
9.066255569,-29.85434,-51.85361,23.00904,-0.9383204,0.1871428,0.2368119,46.41846,4.485465,-12.1342,1008.069
9.100902557,-13.2067,-71.32548,34.16328,-0.8559613,0.2891106,0.232064,46.39457,3.319325,-13.91374,1008.069
9.133070946,-45.27338,-80.20323,34.28585,-0.842912,0.3357241,0.3687324,46.36594,3.672034,-16.14701,1008.068
9.165243626,-54.54937,-96.18318,31.16021,-0.8361675,0.3809541,0.5107502,44.81461,2.511938,-19.13014,1008.068
9.199890137,-99.20927,-83.63596,18.35122,-0.8587636,0.2741367,0.4286225,44.81461,2.511938,-19.13014,1008.069
9.232062817,-66.65115,-59.37011,5.174516,-0.548135,0.2075536,0.4916911,43.64587,2.112801,-21.80016,1008.072
9.266709805,-22.78984,-33.3287,0.8844246,-0.4774584,0.3641376,0.6383683,42.4732,3.233325,-24.86015,1008.075
9.298882485,-46.07198,12.71724,1.497295,-0.8186919,0.4047746,0.7787752,42.4732,3.233325,-24.86015,1008.075
9.333525658,-36.4274,25.26447,-1.628343,-0.748392,0.2248256,0.4623721,41.70551,2.851558,-25.74699,1008.075
9.365698338,3.25665,23.60728,-2.73151,-0.9692186,0.1095597,0.6047082,42.48502,3.625828,-23.96945,1008.073
9.400345326,-10.93377,21.23988,4.07135,-0.7560703,0.1640526,0.5072506,42.48502,3.625828,-23.96945,1008.075
9.432517529,9.583983,21.35825,14.67401,-0.7688171,0.1447193,0.5096202,42.48528,4.006961,-23.97132,1008.075
9.467164517,20.64146,13.24991,25.52181,-0.8378929,0.2182819,0.5002672,43.25766,4.012466,-22.7001,1008.075
9.499337196,17.13992,5.378299,34.65357,-0.762808,0.1994728,0.5013395,43.25766,4.012466,-22.7001,1008.077
9.533980370,25.06445,3.306824,42.86604,-0.8270854,0.2279652,0.5041022,43.25663,2.487933,-22.69265,1008.077
9.566153050,30.83891,-6.103593,50.89463,-0.820162,0.2961976,0.4819461,43.6338,1.339164,-22.689,1008.077
9.600800038,49.14517,-1.842272,59.16838,-0.9068674,0.4296417,0.6106212,43.6338,1.339164,-22.689,1008.079
9.632971764,-8.169406,-24.03665,71.18063,-0.7259353,0.5646338,0.356996,43.63195,-1.392293,-22.67567,1008.08
9.667619228,-55.22511,6.266075,73.20311,-0.8077288,0.08261167,0.6131012,44.00288,-4.451602,-23.04524,1008.08
9.699791908,18.18424,-9.595509,74.12241,-0.6760373,0.7147387,0.5312877,44.00288,-4.451602,-23.04524,1008.08
9.731960297,-43.4919,-8.530178,66.58411,-0.6932728,0.6010058,0.6259468,43.2402,-5.971084,-23.48021,1008.08
9.766607284,-81.33302,-5.156633,68.5453,-0.4909389,0.5365227,0.5767733,42.85519,-7.877068,-23.91525,1008.082
9.798779488,-81.82447,15.38057,69.89361,-0.637593,0.3789276,0.5647925,42.85519,-7.877068,-23.91525,1008.082
9.833426475,-29.91577,25.73795,54.14285,-0.5449696,0.4315727,0.5277303,42.08095,-9.407919,-25.24279,1008.078
9.865599155,-9.459445,41.65871,37.71793,-0.5750529,0.6038435,0.7554889,42.09225,-9.777683,-24.34836,1008.084
9.900246143,-43.00045,50.47728,27.60557,-0.4850444,0.734159,0.7181275,42.09225,-9.777683,-24.34836,1008.084
9.932415009,-93.37338,62.01836,32.07952,-0.5714063,0.4508944,0.6245362,42.11377,-10.89916,-22.62141,1008.082
9.967061996,-55.53226,64.85924,32.38595,-0.607529,0.4467115,0.6253207,42.88621,-12.03624,-21.28086,1008.078
9.999233723,-33.41731,65.92457,30.97635,-0.7205302,0.4137302,0.4925894,42.88621,-12.03624,-21.28086,1008.076
10.033881187,-18.244,53.43653,18.4738,-0.8319825,0.4876129,0.4344705,42.90354,-12.01918,-19.94202,1008.076
10.066053867,-8.230837,31.12378,2.477887,-0.8938963,0.504939,0.3754231,44.07146,-11.62086,-17.33575,1008.076
10.100700855,5.099562,15.49894,-23.20138,-0.722736,0.4716121,0.3181214,44.0872,-12.74802,-16.05508,1008.08
10.132869244,10.38258,5.496669,-29.63651,-0.7074429,0.4140679,0.4818661,44.0872,-12.74802,-16.05508,1008.075
10.167516708,-2.456378,13.01317,-21.36277,-0.4956098,0.4047975,0.5492209,44.47117,-12.36657,-15.61259,1008.075
10.199688435,8.355375,24.37669,-14.92763,-0.6158335,0.407167,0.5272264,44.47798,-10.83635,-15.17376,1008.079
10.231861115,-3.316404,21.9501,-4.631408,-0.7915791,0.3915741,0.4689697,44.47798,-10.83635,-15.17376,1008.079
10.266508102,-14.80389,18.57656,-0.46389,-0.7353227,0.4010914,0.4805732,45.25145,-10.4489,-13.84064,1008.075
10.298680782,-29.48576,17.09693,-5.673287,-0.785597,0.4511013,0.5132666,45.24567,-10.45458,-14.28692,1008.08
10.333323956,-19.41117,20.64803,-19.40158,-0.8182029,0.498735,0.5009496,45.24567,-10.45458,-14.28692,1008.082
10.365495682,14.12983,20.94396,-33.86532,-0.8946962,0.423306,0.5521334,44.88532,-10.05103,-12.94801,1008.082
10.400143147,7.67964,6.561999,-58.19627,-0.9026727,0.5072951,0.5495263,46.03199,-8.150093,-12.07055,1008.082
10.432315827,-33.90875,3.661934,-79.03386,-0.7523285,0.4055582,0.5453566,46.03199,-8.150093,-12.07055,1008.082
10.466962814,-24.87848,16.4459,-65.73457,-0.430416,0.1394468,0.4215872,46.4107,-7.012062,-12.07807,1008.082
10.499135494,9.338262,40.29745,-47.34846,-0.7562874,0.1585359,0.4840712,46.80091,-4.720072,-11.26236,1008.082
10.533778668,-14.98818,9.106956,-51.94499,-1.036753,0.1387347,0.5679829,46.80091,-4.720072,-11.26236,1008.082
10.565951347,-14.86532,-32.145,-45.01956,-0.9758189,-0.1038585,0.6193984,46.8203,-1.653949,-9.938404,1008.084
10.600597859,51.11094,-56.52923,-32.88473,-0.8182372,0.1167964,0.5074411,46.82185,0.6328517,-9.949569,1008.084
10.632770062,-10.87234,-50.84747,-31.47512,-0.6216378,0.3917314,0.5989712,46.82185,0.6328517,-9.949569,1008.084
10.667417526,-67.01974,-39.06965,-27.36889,-0.8230073,0.2029958,0.4787943,45.64973,2.579165,-13.01359,1008.086
10.699590206,-44.7205,-38.65535,-35.15234,-0.7500593,0.1501784,0.4743042,45.26679,3.722249,-13.46352,1008.086
10.731758594,3.625232,-26.69998,-36.25551,-0.7233169,0.1334779,0.5288649,45.26679,3.722249,-13.46352,1008.086
10.766405582,33.29612,-28.88982,-48.75806,-0.7336108,-0.05748536,0.5577527,44.86728,5.991679,-15.25787,1008.086
10.798577785,69.23292,-1.132052,-31.29126,-0.5278267,0.2242063,0.4612729,44.47882,7.510212,-16.15594,1008.086
10.833224773,-41.52612,29.99927,-17.56297,-0.9143218,0.5568464,0.3586897,44.47882,7.510212,-16.15594,1008.084
10.865397453,-161.3768,58.2897,-7.573184,-0.9838024,0.5044251,0.187796,43.71215,8.652979,-17.05022,1008.084
10.900044441,-196.2693,54.67941,-24.4884,-1.134959,-0.1629677,0.4676021,43.36939,9.454725,-14.37432,1008.084
10.932213306,-51.41642,56.21822,10.38391,-0.5066791,-0.4027884,0.5518245,43.36939,9.454725,-14.37432,1008.082
10.966860294,-9.275153,71.3104,22.2736,-0.8356779,-0.01103446,0.4101501,43.80005,11.78651,-10.43465,1008.082
10.999032021,-32.43442,72.55329,16.51262,-0.8272759,0.005945752,0.4145497,43.82946,12.5772,-8.206968,1008.082
11.033679485,-3.992139,80.06979,12.89668,-0.9297314,-0.118731,0.4197799,43.82946,12.5772,-8.206968,1008.082
11.065852165,-3.439265,81.96371,7.748571,-1.123578,-0.03666891,0.4251572,45.00238,11.83781,-5.148838,1008.084
11.100499153,3.870954,72.84921,4.990655,-0.9762612,-0.000627497,0.2842999,45.79794,10.72346,-2.02316,1008.082
11.132667542,-4.422152,78.17587,7.503423,-1.053488,-0.1134747,0.2662562,45.79794,10.72346,-2.02316,1008.084
11.167315006,17.38564,66.2205,9.096886,-0.9848589,0.05337367,0.1060035,45.45988,11.14895,1.037123,1008.084
11.199486733,-11.11807,73.32269,7.56471,-0.9909976,-0.05859615,0.1846676,45.11609,10.42616,3.720463,1008.084
11.234134197,10.68973,71.13285,9.587182,-0.9546399,-0.03530301,0.1445144,45.1439,10.07264,5.889973,1008.082
11.266306400,13.63839,72.43492,9.342034,-1.152265,-0.003845007,0.1311938,45.1439,10.07264,5.889973,1008.082
11.298479080,8.969679,69.7716,-4.079824,-1.320463,-0.03570849,0.1079186,44.80011,9.349851,8.573311,1008.084
11.333122253,23.03724,62.96531,-8.676351,-0.9211987,0.1669357,0.01910376,43.31616,9.017803,10.75056,1008.084
11.365294933,4.116676,65.86539,-1.873491,-1.040657,-0.1895869,-0.02851073,43.31616,9.017803,10.75056,1008.082
11.399941444,11.97977,62.96531,6.400257,-1.00292,0.05018575,-0.0673741,42.58943,9.438099,12.98396,1008.082
11.432114124,7.495348,61.13058,15.34816,-1.032058,-0.04089729,-0.06447911,42.24667,10.23984,15.65986,1008.08
11.466761112,16.83277,60.89384,24.35735,-1.055349,0.05847163,-0.09670054,42.24667,10.23984,15.65986,1008.084
11.498933792,2.458055,64.20821,27.912,-1.131836,-0.04298966,-0.1483972,41.51886,10.27819,17.83138,1008.084
11.533576965,7.188196,63.91227,31.65051,-1.254964,0.02953285,-0.2015984,39.65702,8.808925,20.0799,1008.079
11.565749645,-3.070683,67.99605,44.94979,-1.521656,0.0760498,-0.1948704,39.65702,8.808925,20.0799,1008.079
11.600396633,-62.16674,54.97534,31.77308,-1.640017,0.03238937,-0.2052119,38.93473,8.471825,22.69955,1008.077
11.632568360,-165.4927,-35.93284,-39.31986,-1.554494,0.003323116,0.17212,37.07867,7.008243,25.39434,1008.077
11.667215824,-149.2136,-91.92186,-69.04408,-1.109547,0.2296716,0.1654963,37.07867,7.008243,25.39434,1008.075
11.699388504,-125.8701,-97.84036,-44.77441,-0.9524196,0.6229939,-0.02600909,35.94986,5.886633,25.85201,1008.075
11.734031677,-127.4058,-82.98492,-11.18912,-0.7418894,0.4433644,-0.1475443,37.43118,3.549934,23.62403,1008.073
11.766203880,-66.71259,-62.21099,1.006999,-0.939658,0.2794046,-0.1995886,37.43118,3.549934,23.62403,1008.073
11.800851345,-51.96929,-65.46616,-2.241214,-0.9923325,0.1800027,-0.03169871,38.54638,1.611106,22.2887,1008.077
11.833023071,-77.09432,-71.38466,-7.021602,-0.9237069,0.331187,0.1057952,39.65055,-0.7829349,20.12672,1008.076
11.865195751,-113.2154,-69.49074,-10.39239,-0.8758458,0.2150394,-0.00791483,39.65055,-0.7829349,20.12672,1008.076
11.899842739,-89.74899,-81.80122,-18.17584,-0.7618902,-0.003756533,-0.04644988,40.3828,-1.578678,18.34145,1008.074
11.932011604,-46.44056,-87.89728,-24.9787,-0.6770835,-0.0884141,-0.01805517,41.48123,-3.914882,15.73289,1008.074
11.966658592,-23.21986,-90.56061,-34.53947,-0.6101317,-0.06741865,0.04126112,41.48123,-3.914882,15.73289,1008.072
11.998830795,-30.71437,-85.64825,-39.01343,-0.5933805,-0.03983011,0.1049562,42.93496,-4.374338,11.26421,1008.072
12.033477783,-47.85345,-78.13175,-41.34233,-0.5867599,-0.05798564,0.1466787,43.65751,-3.656105,8.642687,1008.07
12.065650463,-56.57658,-65.99883,-40.42303,-0.5643247,-0.1291931,0.1796223,43.65751,-3.656105,8.642687,1008.07
12.100297451,-58.60378,-42.0289,-31.41384,-0.6597698,-0.2276662,0.251519,43.98999,-2.563553,5.064928,1008.069
12.132466316,-62.78105,-23.62236,-21.79177,-0.7974231,-0.2782764,0.2716662,45.09678,-1.082736,2.884033,1008.069
12.167113304,-77.83149,-5.097448,-14.49862,-0.8498394,-0.3232091,0.3276968,45.09678,-1.082736,2.884033,1008.069
12.199285984,-105.3523,12.24376,-14.49862,-0.8659283,-0.3438717,0.2814046,44.71331,-0.7019191,2.437826,1008.071
12.233932972,-109.6524,29.40742,-18.85,-0.8475536,-0.4267331,0.1851141,45.46997,0.4307444,2.428375,1008.071
12.266104698,-61.12243,39.17294,-21.60791,-0.8403123,-0.5553955,0.1218079,45.46997,0.4307444,2.428375,1008.071
12.300752163,38.88629,45.03226,-21.36277,-0.896613,-0.6045684,0.06601597,45.48153,0.4421142,3.320938,1008.069
12.332920551,110.8213,45.09144,-27.98176,-0.8863487,-0.5538669,0.1015241,45.12587,0.46941,5.044239,1008.067
12.365093231,136.2535,49.17521,-32.57829,-0.90995,-0.4756487,0.1587831,45.12587,0.46941,5.044239,1008.066
12.399740219,134.2877,42.84241,-33.06859,-0.9746627,-0.4514955,0.22803,44.76634,2.079889,6.37726,1008.064
12.431912422,125.8103,28.46045,-29.45265,-0.960502,-0.4172617,0.2705961,44.03485,4.019033,8.156948,1008.064
12.466559410,113.2785,13.24991,-24.85612,-0.9380305,-0.3994596,0.2647492,44.04744,5.554937,9.042067,1008.062
12.498732090,108.4255,-0.4218318,-18.66614,-0.9175342,-0.3647439,0.2479741,44.04744,5.554937,9.042067,1008.062
12.533375263,99.57954,-5.866853,-10.39239,-0.9511327,-0.3103504,0.2304201,43.67104,7.847107,9.032837,1008.062
12.565547943,93.37507,-9.950619,-0.4026029,-1.064434,-0.2688009,0.2583298,43.27654,8.978821,7.690346,1008.06
12.600194931,78.26319,-27.46938,6.155108,-1.091488,-0.1427256,0.2880596,43.27654,8.978821,7.690346,1008.06
12.632367134,39.19344,-30.547,12.89668,-1.050679,-0.04210352,0.3338163,44.02741,10.1058,7.234613,1008.059
12.667014122,-24.75562,-25.27954,21.53815,-1.132863,0.0876797,0.3052871,43.99826,9.696241,5.005074,1008.06
12.699186802,-100.3764,-19.65696,25.39923,-1.003213,0.1081324,0.3346119,43.99826,9.696241,5.005074,1008.06
12.733829975,-147.7393,-5.570928,37.77921,-0.9359411,-0.02230991,0.3309808,43.98702,8.923417,4.179987,1008.06
12.766002655,-151.4866,4.549709,42.68217,-0.9104417,-0.1223475,0.2778623,45.13106,8.155602,5.006714,1008.06
12.800649643,-97.55065,18.93167,47.769,-0.9064856,-0.2586113,0.233804,45.13106,8.155602,5.006714,1008.064
12.832822323,-1.534922,19.34596,45.80781,-0.8468148,-0.272361,0.3145918,45.51849,5.112535,5.912228,1008.063
12.867469311,88.82922,18.57656,40.10812,-0.7805341,-0.1644872,0.3100426,45.52825,2.455971,6.817814,1008.057
12.899641514,119.483,21.12151,34.0407,-0.7984103,-0.07138897,0.286395,45.52825,2.455971,6.817814,1008.055
12.931809902,114.9371,22.83788,26.0121,-0.7979831,-0.035179,0.2616255,45.53873,0.8792843,7.718128,1008.053
12.966456890,84.83624,27.75024,21.293,-0.7768755,0.0436138,0.2963001,45.54426,0.5038357,8.166271,1008.053
13.033276558,11.36547,34.73406,17.92222,-0.753065,-0.04122164,0.3252625,44.7939,0.139124,8.618279,1008.052
13.065448761,10.81259,36.5688,23.62191,-0.7788674,-0.08746001,0.355006,45.19387,-0.2254505,10.33957,1008.054
13.100095749,13.51553,36.62798,29.07645,-0.8446006,-0.0952207,0.3762814,45.19387,-0.2254505,10.33957,1008.054
13.132264614,13.02409,37.51576,31.2215,-0.8763257,-0.09796946,0.3770368,44.46033,-1.335374,12.13415,1008.054
13.166911602,24.26585,41.24442,30.60863,-0.9371103,-0.105692,0.4064603,44.09895,-2.456352,13.4805,1008.054
13.199084282,41.22064,39.46886,28.03457,-1.060419,-0.09865224,0.4216469,44.09895,-2.456352,13.4805,1008.05
13.233731270,52.15526,29.11149,22.33488,-1.033702,-0.08249371,0.4571987,44.49345,-3.588066,14.82299,1008.056
13.265903950,68.37289,31.89318,23.37676,-1.184101,-0.1451822,0.4764013,43.37067,-4.322858,15.72508,1008.056
13.300550461,104.924,8.988585,22.94775,-1.562703,-0.053767,0.4426097,43.37067,-4.322858,15.72508,1008.057
13.332718849,76.91172,-29.06738,1.558582,-1.411126,0.1038801,0.401525,42.63682,-4.671327,17.45218,1008.057
13.367366314,28.99599,-56.11493,-26.69474,-1.042807,0.1270895,0.3756256,42.64286,-4.284509,17.8966,1008.057
13.399538994,24.75729,-62.38854,-46.36787,-0.9627241,0.02526471,0.314753,43.37614,-3.555718,16.10389,1008.057
13.431711197,45.27505,-80.08486,-56.41894,-1.047244,0.002905331,0.2560714,43.37614,-3.555718,16.10389,1008.053
13.466358662,52.89242,-88.07484,-61.68962,-1.05141,-0.07420091,0.2622226,43.72101,-2.450983,13.48244,1008.053
13.498530388,68.37289,-96.53829,-63.28309,-1.202423,-0.08912845,0.2432646,45.56159,0.5208903,9.505112,1008.053
13.533173561,71.87443,-118.2,-69.65694,-1.140932,0.0483494,0.2351482,45.56159,0.5208903,9.505112,1008.055
13.565346241,35.20046,-127.7288,-78.60485,-0.9008402,0.1235219,0.2561816,46.27309,3.196131,5.917664,1008.055
13.599993229,-3.684987,-122.2838,-86.75602,-0.7620548,0.06647069,0.2486323,45.82291,6.177476,0.1668167,1008.057
13.632165909,-18.48972,-114.5897,-83.44653,-0.8710976,0.05859029,0.2264488,45.82291,6.177476,0.1668167,1008.055
13.666812897,-49.14349,-108.0794,-80.38217,-0.8115721,0.001745543,0.1945768,45.37878,9.545639,-5.139608,1008.056
13.698985100,-52.70646,-87.18706,-64.93784,-0.8054467,-0.1048699,0.2201507,44.20214,13.32841,-8.658904,1008.056
13.733628273,-31.5744,-76.17865,-44.71312,-0.8597412,-0.08299319,0.2526496,44.20214,13.32841,-8.658904,1008.058
13.765800953,-26.16852,-60.31707,-24.85612,-0.8450342,-0.03661962,0.2962746,42.65199,16.35916,-11.79002,1008.056
13.800447941,-18.73544,-41.55542,-3.037945,-0.9059964,0.002365301,0.3400628,41.50294,18.26469,-13.06861,1008.057
13.832620621,-18.18256,-25.8122,11.60965,-0.8383059,0.05505564,0.3557716,41.50294,18.26469,-13.06861,1008.057
13.867267609,-27.51999,14.0785,34.96001,-0.8363486,0.05791487,0.4131348,40.72973,18.25837,-14.40358,1008.057
13.899439812,-30.89866,51.77935,63.09075,-1.03718,0.05915282,0.381279,40.35809,19.03169,-13.95909,1008.056
13.934082985,-49.38922,86.87606,87.54427,-0.8928671,0.04135186,0.4318416,40.35809,19.03169,-13.95909,1008.06
13.966255188,-64.80824,109.7807,108.5657,-0.7797678,0.008285549,0.4338877,42.27482,17.50793,-11.79367,1008.058
13.998427868,-57.80518,124.0443,116.4105,-0.6713079,-0.09409711,0.3819036,43.4591,15.25619,-7.77178,1008.055
14.033075333,1.905181,132.5077,130.9968,-0.8296759,-0.1534714,0.32216,43.4591,15.25619,-7.77178,1008.057
14.065247059,60.07978,127.7137,135.6546,-0.9458484,-0.09586059,0.290943,45.41422,10.72315,-2.467506,1008.057
14.099894047,77.89461,131.4424,134.9804,-1.076593,-0.07486642,0.285588,46.61346,6.200849,2.840633,1008.06
14.132062912,64.07276,121.7952,122.4166,-1.241274,0.04511079,0.3170337,46.61346,6.200849,2.840633,1008.06
14.166709900,1.106586,93.0313,89.99575,-1.129954,0.1518882,0.3882112,47.05049,0.8578103,7.710392,1008.059
14.198882580,-69.7841,72.07981,56.65562,-0.9610748,0.1965347,0.3701335,45.59235,-4.019414,12.14137,1008.061
14.233529568,-130.0473,63.0245,23.31547,-0.9042194,0.1656428,0.2401724,45.59235,-4.019414,12.14137,1008.061
14.265701771,-166.8442,60.24281,4.193924,-0.9447721,0.1899404,0.2807571,44.49088,-7.399402,14.8416,1008.059
14.300348759,-222.3158,61.01221,-3.160519,-0.9973472,0.1105299,0.334577,43.36656,-10.42099,15.75485,1008.058
14.332517147,-239.5163,44.38122,-3.528241,-1.055386,-0.1159082,0.3901277,43.36656,-10.42099,15.75485,1008.062
14.367164612,-194.1807,29.05231,-7.695759,-0.8735173,-0.4118543,0.3985229,42.22541,-12.69737,15.32553,1008.061
14.399477005,-56.26942,32.07074,3.703628,-0.8545664,-0.5609244,0.4029011,42.19947,-16.91258,13.56088,1008.061
14.434124470,111.6813,29.17068,12.83539,-0.9989553,-0.4026232,0.5077373,41.06463,-18.42101,13.57413,1008.063
14.466296673,192.0323,20.58885,15.96103,-1.120744,-0.1688579,0.5941868,41.06463,-18.42101,13.57413,1008.059
14.500944138,216.7273,-2.966787,21.23172,-1.512072,0.1265765,0.5732819,41.09295,-18.01227,15.73991,1008.061
14.533112526,125.4417,-54.57612,-2.118639,-1.490564,0.4417529,0.4831356,40.7683,-16.05007,19.74907,1008.058
14.565284729,3.625232,-91.33001,-33.68146,-1.223568,0.4265355,0.381227,40.7683,-16.05007,19.74907,1008.06
14.599931717,-63.51821,-121.9878,-73.27288,-0.9959323,0.3150277,0.2297278,41.1307,-13.40455,18.39527,1008.06
14.632104397,-87.90607,-133.1738,-91.53641,-1.049341,0.2464649,0.1790509,43.34845,-11.58145,14.42159,1008.06
14.666751385,-124.8258,-151.5212,-115.2545,-1.258069,0.1688769,0.116735,43.34845,-11.58145,14.42159,1008.061
14.698924065,-140.0605,-155.6049,-137.5017,-1.291002,-0.005224565,0.114643,45.54334,-9.399952,8.660929,1008.063
14.733567238,-122.1228,-152.1722,-147.7979,-1.417077,-0.06185418,0.1799405,47.72745,-6.086421,2.002125,1008.061
14.765738964,-107.7481,-156.9662,-153.804,-1.20028,-0.01352768,0.2294079,47.72745,-6.086421,2.002125,1008.061
14.800386429,-112.1097,-138.9739,-150.1268,-0.8956305,-0.04054123,0.2586365,48.41265,-0.8343801,-3.765687,1008.063
14.832558632,-102.0351,-116.6612,-144.2432,-0.7652359,-0.08696163,0.1765431,46.8373,6.424747,-9.085229,1008.06
14.867206097,-72.42561,-89.96876,-124.4475,-0.5497616,-0.1529932,0.1238602,46.8373,6.424747,-9.085229,1008.058
14.899378777,-36.85741,-58.65989,-87.98177,-0.4808242,-0.2208788,0.1139813,45.6509,12.86408,-13.51011,1008.06
14.934020996,0.6765727,-32.02663,-46.30658,-0.3774386,-0.2664275,0.1275831,42.23623,18.99348,-14.86132,1008.059
14.966193676,22.60723,-3.617823,0.1489803,-0.4257719,-0.2855875,0.1924641,42.23623,18.99348,-14.86132,1008.059
15.000841141,38.76343,11.06006,44.03049,-0.4886819,-0.3239602,0.2741927,40.33729,22.43916,-15.76096,1008.057
15.033013344,50.86522,25.32365,84.78635,-0.5359256,-0.344956,0.3535083,40.32522,21.66552,-16.6498,1008.055
15.065186024,54.55104,42.30975,117.0846,-0.6843366,-0.3216215,0.4514854,40.32522,21.66552,-16.6498,1008.058
15.099832535,42.87926,56.04067,138.9641,-0.7940207,-0.2190135,0.5319207,41.84147,19.74406,-16.20195,1008.058
15.132000923,17.13992,69.06138,153.4891,-0.7763849,-0.1136583,0.5470847,44.49526,14.76312,-15.29874,1008.058
15.166648388,-0.6748964,82.85149,174.5106,-1.021028,-0.1414897,0.3679062,44.49526,14.76312,-15.29874,1008.057
15.198821068,11.30404,75.98602,176.533,-1.136818,-0.1849687,0.2568043,46.77611,8.649826,-13.94173,1008.057
15.233468056,-34.70735,99.24574,182.723,-1.149889,0.07516611,0.4340367,48.71814,1.818617,-9.518849,1008.056
15.265639782,-172.7415,121.9136,178.6168,-1.625188,0.2230501,0.4223389,48.71814,1.818617,-9.518849,1008.06
15.300287247,-314.6458,82.73312,146.3185,-1.681996,0.03946738,0.3712275,49.13655,-5.447144,-5.978628,1008.059
15.332455635,-369.2574,36.92391,108.6883,-1.121378,-0.1726699,0.2880916,48.02647,-13.02528,-3.704209,1008.059
15.367103100,-327.4233,15.49894,80.12854,-0.8180152,-0.2583985,0.1924923,48.02647,-13.02528,-3.704209,1008.061
15.399275303,-339.6479,6.266075,53.34612,-0.8764945,0.044121,0.171914,45.71561,-18.36792,-6.726765,1008.06
15.433922768,-392.2938,-12.67313,45.56266,-1.119775,-0.07375348,0.02427441,45.26865,-19.19223,-12.01272,1008.062
15.466094494,-336.8835,-39.36557,30.97635,-1.140228,-0.4573053,-0.1917405,45.26865,-19.19223,-12.01272,1008.06
15.500741959,-257.1469,-41.43705,10.50649,-0.9258785,-0.419612,-0.1379999,44.06709,-18.10013,-17.30412,1008.06
15.532910347,-231.0389,-28.29797,-8.798924,-0.9023613,-0.3955396,-0.02234106,43.24006,-14.73147,-22.99113,1008.06
15.567557335,-170.3457,-26.46324,-18.60485,-0.9319054,-0.4672403,0.03903944,42.45234,-10.56237,-25.68542,1008.056
15.599730015,-111.9254,-25.98976,-19.89188,-0.9014986,-0.391891,0.1367408,42.45234,-10.56237,-25.68542,1008.058
15.631901741,-96.87492,-24.09584,-15.78565,-0.9053301,-0.3077395,0.2208562,42.06093,-4.857057,-27.05024,1008.06
15.666549206,-87.5375,-23.68154,-2.854084,-0.8519205,-0.330533,0.2577659,41.67374,-1.432857,-27.95761,1008.06
15.698721886,-47.91489,-25.0428,14.61272,-0.8085834,-0.3820929,0.2713964,41.67374,-1.432857,-27.95761,1008.057
15.733365059,-3.070683,-38.71454,35.14387,-0.7659875,-0.3048423,0.3087498,41.28611,0.08648813,-28.79193,1008.057
15.765537262,-21.49981,-42.0289,63.70362,-0.7957384,-0.138481,0.4627107,40.14154,1.298147,-29.68458,1008.059
15.800184727,-99.08641,-42.79831,85.21536,-1.152424,-0.1757688,0.3698137,40.14154,1.298147,-29.68458,1008.059
15.832356453,-114.7512,-55.40471,86.74754,-1.237746,-0.3313552,0.2801572,40.11684,-1.074916,-31.45823,1008.053
15.867003918,-80.04298,-66.41312,73.87727,-1.219976,-0.4897943,0.2647073,38.21534,-1.440577,-32.33926,1008.053
15.899176121,-29.79291,-76.06028,66.09381,-0.9721808,-0.3291638,0.2319074,38.21534,-1.440577,-32.33926,1008.053
15.933819294,-36.55026,-69.43156,67.0744,-0.7075734,-0.06932089,0.2354365,36.66973,-1.4524,-34.94545,1008.055
15.965991974,-110.2667,-46.29022,69.15816,-0.7160047,-0.02878306,0.1996994,33.61656,-2.581276,-37.1558,1008.055
16.000638485,-172.8643,-32.67767,68.36143,-0.7565172,-0.1378393,0.1933943,33.61656,-2.581276,-37.1558,1008.055
16.032811165,-230.1789,-21.01822,72.28381,-0.7754884,-0.1802437,0.2211777,32.8436,-2.206461,-38.49264,1008.055
16.067458153,-266.4229,-12.55476,79.27052,-0.766469,-0.3583607,0.1029813,30.95022,0.9272869,-38.94444,1008.055
16.099630833,-224.4044,-5.985223,88.8313,-0.7486674,-0.49356,0.08001062,30.95022,0.9272869,-38.94444,1008.059
16.131798744,-127.2215,4.076229,112.4881,-0.7268493,-0.644113,0.01976193,31.34961,7.037109,-37.63731,1008.057
16.166445732,-58.35806,12.83561,107.8916,-0.9623747,-0.7266267,0.371693,32.14325,11.63408,-34.98582,1008.057
16.198618412,67.08286,5.496669,95.45029,-0.9016955,-0.7693287,0.4122267,32.14325,11.63408,-34.98582,1008.057
16.233265877,60.50979,23.48891,73.75469,-0.8570836,-0.1434777,0.6565238,33.65501,11.61261,-34.99356,1008.059
16.265438080,-11.11807,26.38898,46.05296,-0.9314725,-0.306638,0.5358549,34.78625,7.785169,-34.98075,1008.057
16.300085545,1.045155,24.61343,12.03866,-0.9544173,-0.4036923,0.5237009,34.78625,7.785169,-34.98075,1008.057
16.332253456,24.88016,21.59499,-15.35664,-1.091521,-0.4251971,0.4790129,36.31272,5.112002,-33.70037,1008.058
16.366900444,71.38298,13.84176,-40.5456,-1.112985,-0.3747927,0.4555288,36.30725,4.344863,-34.07918,1008.054
16.399073124,112.3571,-2.256567,-61.8122,-1.009431,-0.2664505,0.4728077,36.30725,4.344863,-34.07918,1008.054
16.433720112,119.9744,-15.09972,-77.19524,-0.9685416,-0.1004739,0.4964485,36.31773,3.974287,-33.24851,1008.056
16.465892792,82.56332,-24.45095,-84.9787,-1.046235,-0.04408732,0.4571503,37.07283,2.820149,-33.2468,1008.056
16.500540257,51.66381,-42.0289,-90.73968,-1.108712,-0.08578579,0.3595436,37.07283,2.820149,-33.2468,1008.054
16.532708168,61.61554,-60.55381,-91.04611,-1.088501,-0.004944093,0.3445975,35.54958,1.687666,-34.06229,1008.054
16.567355156,20.94861,-71.56222,-104.7131,-1.104404,0.1282631,0.362232,34.77135,2.819063,-35.84912,1008.054
16.599527836,-33.97018,-73.75206,-115.1319,-1.014319,-0.05117025,0.2514623,34.77135,2.819063,-35.84912,1008.054
16.634174824,-39.43749,-65.2886,-111.516,-0.9852749,-0.1631974,0.2194198,32.10921,3.982989,-37.18001,1008.054
16.666347027,-35.99739,-64.1049,-103.7938,-0.9825134,-0.1328983,0.1849399,29.07067,7.439084,-38.52013,1008.05
16.698519230,-37.90173,-55.64145,-90.06552,-0.7665245,-0.1704149,0.1797232,25.97601,11.2837,-39.35175,1008.05
16.733162403,-24.07988,-36.82062,-61.87349,-0.7262638,-0.2148417,0.1722333,25.97601,11.2837,-39.35175,1008.048
16.765335083,-9.643736,-23.8591,-28.65592,-0.7338333,-0.2160369,0.201214,22.94325,14.74548,-40.24558,1008.048
16.799982548,-2.824961,-9.832249,6.400257,-0.6992202,-0.2008035,0.2477705,20.30525,17.45668,-39.79879,1008.049
16.832154274,-1.657783,6.917109,32.44724,-0.6401398,-0.1982026,0.3084547,20.30525,17.45668,-39.79879,1008.049
16.866801262,11.67262,21.59499,52.91711,-0.625653,-0.2148933,0.3563818,19.54359,17.46173,-40.2412,1008.048
16.933617115,78.81606,44.61796,93.24397,-0.8399011,-0.181447,0.3384127,19.92706,17.08092,-39.795,1008.048
16.965788841,108.7327,54.44267,105.8691,-0.8981126,-0.09524809,0.3382205,21.05355,14.77233,-40.23592,1008.048
17.000436306,115.49,73.32269,114.9396,-0.9985332,0.006859985,0.3597613,24.46374,10.54291,-39.34029,1008.051
17.032608986,95.03369,97.05589,123.0907,-1.236438,0.09042713,0.4060501,24.46374,10.54291,-39.34029,1008.051
17.067255974,36.24478,100.4886,121.2521,-1.566153,0.2498632,0.3497092,27.17314,4.411174,-38.94185,1008.048
17.099428654,-57.25231,82.25964,100.9048,-1.084612,0.1322447,0.4507681,29.84897,-2.135088,-36.24577,1008.046
17.134070873,-99.88501,82.0229,85.15408,-0.8725117,0.01162472,0.4294786,29.84897,-2.135088,-36.24577,1008.046
17.166243553,-93.0048,62.6102,67.74857,-0.9696124,-0.05405793,0.3464572,32.89881,-5.960947,-34.01122,1008.044
17.200891018,-64.99253,46.33433,45.99167,-1.045313,-0.1436073,0.2664135,34.43889,-5.573675,-31.85317,1008.046
17.233063221,-30.28436,31.30133,27.42171,-1.171167,-0.163694,0.2240423,34.43889,-5.573675,-31.85317,1008.043
17.265235424,-21.49981,7.923255,7.319562,-0.9899711,-0.1045314,0.2710392,35.9622,-5.58378,-30.96835,1008.041
17.299882412,-53.01361,2.300679,-6.347444,-0.8098778,-0.02516947,0.293149,35.59056,-4.810459,-30.52385,1008.041
17.332050800,-95.09344,4.964004,-15.96951,-0.808163,-0.03651701,0.2703855,35.59056,-4.810459,-30.52385,1008.043
17.366698265,-111.4339,7.923255,-21.30148,-0.8746966,-0.09436689,0.2787234,36.35247,-4.434378,-30.0833,1008.042
17.399010182,-106.8881,5.200744,-19.70802,-0.9070346,-0.1219263,0.3347099,35.98211,-1.75539,-29.64811,1008.044
17.433657169,-89.74899,3.010899,-15.66307,-0.8915238,-0.1671087,0.4021546,35.98211,-1.75539,-29.64811,1008.042
17.465829849,-58.41949,1.886384,-14.00832,-0.8334708,-0.2225406,0.4267018,35.97869,1.732649,-30.11145,1008.045
17.500477314,3.625232,2.300679,-14.19218,-0.8118751,-0.2176988,0.4390723,36.36999,4.406584,-29.23385,1008.045
17.532645702,73.28732,2.004754,-14.86634,-0.8628133,-0.1847714,0.459099,36.36999,4.406584,-29.23385,1008.047
17.567292214,129.189,-1.191237,-11.00526,-1.043025,-0.07814123,0.4491276,36.37705,6.317937,-28.79687,1008.047
17.599464893,130.4176,-9.003658,-9.963378,-1.084389,0.03532496,0.4080331,36.37653,5.55567,-28.79315,1008.048
17.634111881,105.2926,-5.807668,2.048878,-1.256449,0.09439267,0.4038595,35.99679,2.893104,-28.77819,1008.048
17.666284561,64.62564,-26.46324,-6.83774,-1.176483,0.1287528,0.3792967,35.99679,2.893104,-28.77819,1008.048
17.700931549,15.41987,-32.5593,-15.84693,-1.076376,0.0814487,0.3519446,35.98365,0.5314109,-29.65928,1008.049
17.733099461,-4.852165,-44.15956,-35.02977,-1.044167,-0.02743803,0.2885684,35.97684,-0.9988079,-30.09811,1008.053
17.765272140,19.78143,-54.99042,-44.46797,-1.14867,-0.06853454,0.2419688,35.97684,-0.9988079,-30.09811,1008.051
17.799919128,25.67875,-73.16021,-62.05735,-1.139906,-0.01540346,0.2138871,34.44275,0.1433271,-31.88108,1008.056
17.866738319,20.02715,-81.68285,-90.31067,-1.018153,-0.03457167,0.1354731,33.28689,1.724749,-33.66816,1008.054
17.898910999,7.8025,-79.1379,-97.78769,-0.8887044,-0.008982809,0.1383321,30.99221,3.253882,-35.83164,1008.057
17.933554173,-14.98818,-68.0703,-99.93273,-0.6930205,-0.05154331,0.1583273,27.94713,5.560891,-37.61246,1008.057
17.965726852,-25.55421,-45.34326,-85.83672,-0.7069697,-0.1295896,0.1621521,27.94713,5.560891,-37.61246,1008.058
18.000373363,-24.93991,-33.21033,-68.67635,-0.7100763,-0.1679394,0.1594549,24.84539,7.494159,-38.88106,1008.057
18.032545567,-24.07988,-13.08742,-44.10025,-0.628242,-0.2545571,0.1835232,22.20162,10.19967,-38.88055,1008.057
18.067193031,3.625232,8.81103,-16.70495,-0.7511647,-0.3462235,0.1762025,22.20162,10.19967,-38.88055,1008.057
18.099365711,51.90953,16.0316,2.784323,-0.7935435,-0.3169661,0.2293771,21.07538,12.8894,-38.44149,1008.06
18.134007931,109.4698,21.83173,22.02845,-0.8812342,-0.3014417,0.2978032,19.93604,13.28095,-38.88383,1008.06
18.166180611,151.6725,23.07462,31.89566,-0.996169,-0.1290292,0.300297,19.93604,13.28095,-38.88383,1008.061
18.200828075,151.0582,26.80328,30.24091,-0.9581071,0.02593115,0.3412254,21.81239,10.57481,-39.77303,1008.061
18.233000279,124.7046,34.85243,29.38289,-0.9567483,0.1181152,0.4002946,22.17516,5.222198,-40.64148,1008.059
18.267646790,69.35578,75.45335,40.6597,-1.327503,0.2221001,0.3650874,22.17516,5.222198,-40.64148,1008.06
18.299819470,-9.889458,70.541,28.15715,-1.30141,0.2941947,0.4155662,22.93895,-0.1765602,-39.72643,1008.06
18.331987858,-63.14962,66.39805,26.0121,-0.7750097,0.1342499,0.5327277,24.09249,-3.982073,-37.99225,1008.061
18.366635323,-71.19701,74.38802,23.49934,-0.5810302,-0.03224099,0.4678491,24.09249,-3.982073,-37.99225,1008.06
18.398807049,-22.97414,83.68008,28.89259,-0.8677163,-0.1547494,0.3837183,26.81236,-4.390311,-37.11169,1008.06
18.433454514,62.35271,67.58175,26.74755,-1.134333,-0.2149957,0.3929394,28.72645,-2.488747,-35.34554,1008.06
18.465626717,112.9099,43.73019,18.9641,-1.112388,-0.09716433,0.3922601,28.72645,-2.488747,-35.34554,1008.063
18.500274181,87.41632,26.03387,3.274619,-0.9128816,0.08448284,0.410212,31.01669,-3.260485,-33.5683,1008.061
18.532442093,64.25706,19.16841,-9.227934,-0.7793284,0.04644079,0.4096162,31.79228,-7.06063,-31.83219,1008.059
18.567089081,56.39396,14.96627,-16.70495,-0.8548636,0.04207533,0.424263,31.79228,-7.06063,-31.83219,1008.059
18.599261761,46.19651,7.27222,-25.40771,-0.9033262,0.01558159,0.4191948,32.18023,-9.341429,-30.9304,1008.061
18.633908749,49.51375,6.384444,-27.12374,-0.8824208,-0.07453778,0.4534428,32.57448,-10.85428,-29.58605,1008.062
18.666080952,79.55323,5.082374,-25.03999,-0.9180315,-0.1493024,0.4912366,32.57448,-10.85428,-29.58605,1008.06
18.700727940,131.0933,-3.499453,-24.05939,-0.9527259,-0.2037787,0.4539973,32.58,-11.22973,-29.13791,1008.062
18.732896328,183.9235,-10.48328,-24.61098,-0.8964491,-0.2188302,0.3636962,32.96294,-12.37281,-28.68798,1008.06
18.767543793,241.3609,-11.43024,-22.34336,-0.9319127,-0.2140809,0.2642924,32.61127,-15.00776,-26.50537,1008.06
18.799715519,279.0178,-15.45482,-16.82753,-1.037534,-0.1170756,0.2501716,32.61127,-15.00776,-26.50537,1008.06
18.831888199,281.1064,-20.42636,-13.08902,-1.080746,-0.04122383,0.2396322,32.2872,-19.51996,-22.08205,1008.061
18.866535187,261.6944,-19.65696,-13.76317,-1.11422,-0.03648707,0.2028696,31.97308,-25.165,-16.82435,1008.063
18.898707390,254.077,-18.76918,-18.66614,-1.136619,-0.05805511,0.1609669,31.97308,-25.165,-16.82435,1008.061
18.933350563,254.7528,-16.81608,-22.40464,-1.150265,-0.03234162,0.1507022,31.67289,-28.51106,-10.6215,1008.061
18.965523243,244.0639,-21.13659,-23.26266,-1.176055,-0.0002306417,0.1439776,31.76375,-29.56431,-3.53918,1008.064
19.000170231,224.0376,-31.61234,-23.50781,-1.048997,-0.05336921,0.1327139,31.76375,-29.56431,-3.53918,1008.068
19.032342911,200.694,-39.95742,-22.40464,-0.9925422,-0.1228648,0.03184032,32.22176,-29.49091,2.643061,1008.07
19.066989422,196.271,-35.75529,-18.23713,-0.9391575,-0.2542972,-0.1721811,34.1584,-27.18628,6.128717,1008.067
19.099162102,232.5764,-20.13044,-0.1574548,-0.9452583,-0.3356929,-0.2200312,34.1584,-27.18628,6.128717,1008.067
19.133805275,236.0779,-8.234253,32.50853,-1.031602,-0.1578399,-0.1859473,35.34468,-25.24637,10.06638,1008.069
19.165977001,180.6063,8.396735,55.55245,-1.100074,-0.2925187,-0.1970227,36.15932,-22.53313,14.44854,1008.069
19.200623989,141.9051,24.7318,61.49729,-1.113481,-0.4048135,-0.2281893,36.15932,-22.53313,14.44854,1008.069
19.232796669,148.9696,28.63801,46.91098,-1.070718,-0.3079941,-0.2967161,35.4512,-20.19011,18.01149,1008.069
19.267444134,164.3272,22.95625,22.39617,-0.8522007,-0.1134038,-0.2875108,35.49108,-19.77,21.06984,1008.065
19.299615860,161.3171,23.96239,-0.5251769,-0.7089963,-0.007080572,-0.2547126,35.49108,-19.77,21.06984,1008.065
19.334259033,168.0744,20.41129,-15.90822,-0.7390924,-0.0424946,-0.3347357,33.6426,-18.55996,24.19789,1008.067
19.366431713,189.4522,7.15385,-25.16256,-0.6511325,0.03213236,-0.3566312,33.67324,-14.72101,26.34693,1008.067
19.398603916,170.1017,8.870215,-22.95623,-0.6131228,0.1435614,-0.3589592,33.67324,-14.72101,26.34693,1008.069
19.433250427,112.6642,8.396735,-21.97564,-0.6198159,0.2210926,-0.3799476,33.71099,-10.1133,29.00229,1008.069
19.465423107,68.74148,19.997,-22.89494,-0.5080341,0.08427408,-0.4264625,33.33691,-4.390932,28.97631,1008.069
19.500070572,86.5563,29.4666,-19.15643,-0.6758392,-0.02597919,-0.4812356,33.33691,-4.390932,28.97631,1008.069
19.532238960,173.296,39.35049,-8.615064,-0.9205805,-0.02287673,-0.8033119,33.35053,-1.330494,29.85398,1008.069
19.566885471,243.6953,36.50961,-17.62426,-0.9850375,0.1678567,-0.7842681,32.60748,1.80339,30.67146,1008.067
19.599058151,218.8774,36.74635,-27.92048,-0.9785066,0.3848935,-0.518404,32.60748,1.80339,30.67146,1008.067
19.633705139,83.17762,41.7179,-44.10025,-1.083663,0.4683349,-0.5287849,30.71669,7.542363,30.27069,1008.069
19.665877819,-47.73059,55.33045,-51.08697,-0.5927252,0.3083794,-0.6248184,29.18696,15.16377,28.45609,1008.069
19.700524330,17.13992,96.22729,-2.486362,-0.76394,-0.5105392,-0.684438,29.18696,15.16377,28.45609,1008.069
19.732692718,157.877,3.129269,8.913025,-1.25842,0.1154767,-0.07360974,27.68908,18.62681,29.33965,1008.069
19.767340183,38.76343,-28.29797,7.380849,-0.8731722,0.2840559,-0.2459605,26.11433,18.64918,29.3477,1008.07
19.799512863,-5.159317,-39.42476,9.587182,-0.9557037,0.1147899,-0.3453958,26.11433,18.64918,29.3477,1008.071
19.834159374,-1.780644,-57.94967,4.07135,-1.136944,-0.6203297,-0.2446891,26.45465,22.79649,26.20133,1008.071
19.866331577,-24.14131,-85.82581,-18.17584,-1.049799,-0.1699687,-0.1969635,28.77424,23.51428,25.29313,1008.071
19.900979042,-40.48181,-93.69741,-11.49555,-1.318592,-0.1195592,-0.4422695,31.40331,23.46046,24.0045,1008.073
19.933147430,-24.26418,-94.05252,-16.15337,-1.218698,-0.1014404,-0.2941144,31.40331,23.46046,24.0045,1008.074
19.965319157,-29.85434,-97.89954,-12.231,-0.8944521,0.07015334,-0.1776355,34.39215,23.3834,21.31134,1008.074
19.999966621,-57.74375,-89.67283,-13.70189,-1.003763,-0.2131219,-0.09845693,36.24249,23.69871,18.23961,1008.076
20.032139301,-27.88857,-93.93415,-9.779517,-1.071192,-0.03788787,-0.07710312,36.24249,23.69871,18.23961,1008.076
20.066786289,-27.88857,-91.68512,-21.1789,-1.325112,0.002840144,-0.05752805,38.85365,24.00815,15.54652,1008.078
20.098958015,-54.85652,-86.6544,-27.18503,-1.208634,-0.2430483,0.04298786,41.08744,23.94264,12.92099,1008.08
20.133601189,-8.537989,-78.48686,-18.54356,-1.351804,-0.1864888,0.10986,41.08744,23.94264,12.92099,1008.08
20.165773869,-23.58844,-70.73363,-28.7785,-1.064191,-0.07649048,0.0198772,42.94274,24.26283,10.23178,1008.082
20.200421333,35.81477,-63.7498,-27.30761,-1.208185,-0.2533158,0.1595429,43.65951,24.97537,7.163979,1008.082
20.232593060,79.92181,-84.28699,-39.56501,-1.317273,-0.2351612,0.1775804,43.65951,24.97537,7.163979,1008.088
20.267240048,112.8485,-130.037,-66.65388,-0.8997616,-0.282326,0.05809794,43.63087,25.32808,4.930716,1008.089
20.299412727,291.5496,-170.4012,-116.9705,-0.9703939,-0.2429517,0.4610692,41.66817,27.1875,-0.8068123,1008.089
20.334055901,404.1515,-185.6117,-110.2902,-1.564288,0.1088711,-0.05731415,41.66817,27.1875,-0.8068123,1008.093
20.366228104,336.4552,-161.4051,-102.2004,-0.671732,0.5332997,0.6087997,38.87112,30.12309,-12.66647,1008.093
20.400875092,170.6545,-140.6903,-24.79484,-0.2686127,0.3801975,0.3377123,33.01883,28.88074,-26.7216,1008.093
20.433047772,64.25706,-115.0632,-9.595656,-0.4955231,-0.01125244,0.4122764,33.01883,28.88074,-26.7216,1008.09
20.465219498,45.33648,-87.06869,-6.899027,-0.350253,-0.3461472,0.38165,27.64979,23.54694,-32.40637,1008.092
20.499866963,12.10263,-50.55154,11.11936,-0.5651811,-0.3061779,0.4538749,24.52186,20.88387,-35.43776,1008.09
20.532035351,2.642346,-43.44934,1.681156,-0.5472997,-0.3266613,0.3267733,24.52186,20.88387,-35.43776,1008.09
20.566682339,0.7994335,-14.86298,8.545302,-0.3571838,-0.1099248,0.5460959,22.61958,19.37481,-36.31321,1008.09
20.598854542,-188.8362,-32.85522,-3.712102,-0.6620141,0.1618673,1.480958,21.47395,18.99841,-37.19811,1008.09
20.633501530,-205.361,-116.7204,-13.1503,-0.6215532,-0.8369404,1.203872,21.47395,18.99841,-37.19811,1008.089
20.665674210,57.56113,-108.612,-20.38217,-0.2844358,-0.8710164,0.3376668,21.88103,19.4026,-34.9705,1008.093
20.700321197,216.7273,-115.1224,-8.247341,-0.3293414,0.07691576,0.7493342,19.23379,25.53263,-35.43301,1008.091
20.732489109,115.4286,-128.1431,8.116294,-0.2643277,0.3930579,1.190435,19.23379,25.53263,-35.43301,1008.091
20.767136574,43.24785,-130.3921,13.44827,-0.2332935,-0.07220858,0.9853163,15.01218,23.24316,-40.24591,1008.089
20.799308777,111.3742,-149.6272,45.74652,-0.1820473,0.1082111,1.189247,11.18327,17.15404,-43.70329,1008.091
20.833956242,-18.36686,-165.4888,132.8967,-0.1724291,0.6787552,1.477277,11.18327,17.15404,-43.70329,1008.09
20.866127968,-117.3312,-164.3051,118.3716,-0.4123836,0.3913105,0.9941826,6.995242,14.51674,-45.90039,1008.088
20.900896072,-148.845,-142.0516,30.36348,-0.1473729,0.1580205,0.9358026,2.068671,11.90722,-46.75479,1008.088
20.933064461,-100.3764,-125.3614,0.2102673,0.4313058,-0.1620011,0.8472708,-3.16822,16.60633,-42.79728,1008.088
20.967711925,-66.65115,-74.28473,26.80883,0.4392259,0.0004666005,0.8981823,-3.16822,16.60633,-42.79728,1008.09
20.999883652,-94.90914,-54.57612,22.39617,0.3679895,-0.2399123,0.8997573,-7.659962,21.28415,-39.67243,1008.088
21.032056332,-82.07019,-44.45548,19.63825,0.4004449,-0.3548617,0.8686228,-9.52583,23.61972,-37.95256,1008.09
21.066703320,-70.21412,-29.48167,9.464608,0.3401542,-0.456765,0.7700173,-9.52583,23.61972,-37.95256,1008.09
21.098875046,-43.73762,-28.94901,-4.141111,0.2765135,-0.4261683,0.7313395,-9.872564,27.08372,-35.73597,1008.09
21.133518219,-35.87453,-19.12429,-12.53743,0.3503521,-0.3360065,0.7636878,-10.60404,29.02286,-33.95628,1008.092
21.165690899,-45.64196,-14.50786,-15.41792,0.370085,-0.3252711,0.7838361,-10.60404,29.02286,-33.95628,1008.091
21.200338364,-27.27427,-12.25883,-14.00832,0.3486231,-0.4044608,0.8233895,-11.34264,30.19324,-32.68291,1008.089
21.232510090,-1.043479,-18.47326,-14.37604,0.3082666,-0.393971,0.8359026,-12.84233,30.98835,-31.78633,1008.091
21.267157078,1.475168,-22.20192,-14.25347,0.3913862,-0.338664,0.8861929,-12.84233,30.98835,-31.78633,1008.091
21.299329758,-4.17643,-21.61007,-14.25347,0.405634,-0.3710461,0.9132669,-13.22001,31.37485,-31.78626,1008.091
21.333972931,-0.0605923,-22.14273,-16.4598,0.3777845,-0.4115211,0.8707771,-14.34228,31.40233,-30.8879,1008.091
21.366145134,9.768274,-23.14888,-21.1789,0.4146291,-0.4070906,0.8396219,-14.34228,31.40233,-30.8879,1008.09
21.400792122,19.22856,-22.73458,-25.03999,0.4117837,-0.3891089,0.8407607,-15.47635,31.0373,-30.88024,1008.092
21.432964802,15.23558,-28.5939,-29.08493,0.3633662,-0.3009559,0.7855453,-16.67945,30.28635,-31.31667,1008.092
21.467611790,-3.254974,-33.15115,-26.26573,0.5647308,0.01733436,0.9005243,-16.67945,30.28635,-31.31667,1008.092
21.499783516,-119.1127,-21.84681,-38.40056,0.5554986,-0.2533074,0.9200691,-18.19147,29.92669,-31.30708,1008.09
21.531952381,-124.6415,-30.78374,-44.89698,0.5353411,-0.5984631,0.8369179,-19.66882,29.60114,-28.6198,1008.088
21.566599369,-28.07286,-31.13885,-52.25143,0.4805341,-0.7002504,0.6939182,-19.66882,29.60114,-28.6198,1008.088
21.598771572,53.99817,-41.73298,-55.92865,0.5331476,-0.4313207,0.6691344,-20.75595,31.56758,-25.11681,1008.09
21.633418560,57.13112,-34.86751,-53.53845,0.611627,-0.2495598,0.6867706,-23.02333,31.98092,-25.10707,1008.089
21.665591240,45.02933,-29.30412,-49.37093,0.6271905,-0.1713842,0.7007658,-23.02333,31.98092,-25.10707,1008.089
21.700238228,13.39267,-20.54473,-41.9552,0.699515,-0.09528414,0.7339763,-24.91984,30.47755,-25.53623,1008.087
21.732406139,-28.13429,-7.524034,-33.86532,0.7067915,-0.1394022,0.8082545,-26.81686,28.2119,-25.96168,1008.085
21.767053604,-43.55333,-9.773064,-33.12988,0.6191152,-0.2958658,0.7292169,-26.81686,28.2119,-25.96168,1008.087
21.799225807,-17.38397,-17.46712,-34.11047,0.6802291,-0.2815202,0.6776729,-28.32386,26.71453,-25.50022,1008.087
21.833873272,-18.8583,-13.85683,-35.76522,0.662298,-0.147852,0.6278503,-29.44061,26.36656,-24.15372,1008.087
21.866044998,-20.20977,-15.21808,-37.66512,0.7344919,-0.2023596,0.5925053,-29.44061,26.36656,-24.15372,1008.086
21.900692463,-16.46251,-5.570928,-33.31374,0.7372007,-0.1382962,0.5934902,-30.18467,26.76979,-23.25915,1008.084
21.932860851,-30.28436,4.608894,-25.95929,0.7263083,-0.119526,0.5657906,-32.05838,26.05062,-21.97067,1008.086
21.967507839,-53.44362,24.02158,-16.03079,0.7623276,-0.0414511,0.5169342,-32.43105,25.2994,-21.51873,1008.085
21.999680042,-96.81348,50.06298,-1.68963,0.8307075,0.2542089,0.3808818,-32.43105,25.2994,-21.51873,1008.085
22.034327030,-259.2355,107.7684,15.6546,0.7385265,0.1498153,0.3794353,-32.80322,25.31046,-21.07052,1008.085
22.066499710,-326.6247,107.5316,28.95388,0.6106485,-0.7014327,0.4984486,-32.01086,28.00176,-18.40973,1008.085
22.098671436,-146.8793,92.20271,13.69341,0.5141046,-1.80881,0.4049063,-32.01086,28.00176,-18.40973,1008.083
22.133314610,223.9147,72.96758,-3.221806,0.702238,-0.9722683,0.4948792,-29.30029,32.59869,-13.66402,1008.087
22.165487289,159.7813,70.24507,-6.531305,0.715413,0.0271631,0.8244893,-28.21033,34.82473,-17.18747,1008.087
22.200134277,-28.01143,96.28648,-3.650815,0.467072,-0.1319923,0.7334326,-28.21033,34.82473,-17.18747,1008.087
22.232306480,-88.82754,107.9459,-7.818333,0.0856937,-0.6007689,0.8145846,-27.52997,31.69264,-22.85059,1008.085
22.266953468,30.53175,50.89157,-17.80812,-0.142473,-0.7990786,0.8203807,-26.76806,32.06872,-22.41004,1008.085
22.299126148,132.8748,25.02773,-15.5405,0.2271953,-0.3342228,0.9157175,-26.76806,32.06872,-22.41004,1008.083
22.333769322,89.3821,31.24215,-4.508833,0.1292849,-0.115114,1.005197,-25.66839,32.78077,-25.09725,1008.086
22.365941048,63.33559,0.3475733,18.65766,0.001322768,-0.003914331,1.055026,-26.46569,30.08459,-28.14057,1008.086
22.400627136,-34.33876,-41.67379,27.48299,0.2469589,-0.1035103,0.9492471,-26.46569,30.08459,-28.14057,1008.086
22.432799816,-51.96929,-65.7029,37.3502,0.363129,-0.3772039,0.9685606,-25.35024,28.5269,-29.47777,1008.086
22.467446804,-22.66698,-54.93123,45.19494,0.6501914,-0.4703592,0.9694521,-25.69986,28.94101,-27.31004,1008.086
22.499618530,-23.58844,-41.6146,41.94673,0.5351105,-0.4140987,0.9526737,-25.69986,28.94101,-27.31004,1008.086
22.534262180,-12.4081,-26.93672,30.91507,0.4531686,-0.4648004,0.8079385,-25.66968,30.8751,-25.08795,1008.084
22.566434384,20.15001,-16.57934,22.88647,0.2746218,-0.4014044,0.6684194,-25.27389,31.64906,-23.75476,1008.084
22.601080895,12.77837,-9.181213,10.01619,0.4576491,-0.398418,0.6701102,-25.27389,31.64906,-23.75476,1008.086
22.633253575,18.12281,13.54583,7.932432,0.4818716,-0.4591091,0.6202198,-24.89518,32.78709,-23.76228,1008.086
22.665426254,34.52473,19.34596,3.335906,0.5340677,-0.4443954,0.6106961,-24.5288,32.77035,-24.65677,1008.084
22.700073242,27.46023,35.08917,4.010063,0.6021962,-0.4395889,0.5855181,-24.5288,32.77035,-24.65677,1008.082
22.732241154,33.0504,57.22437,7.074414,0.4559304,-0.4836757,0.5648294,-24.16845,32.36679,-25.99569,1008.082
22.766888618,54.55104,75.09824,2.4166,0.3204201,-0.5061124,0.6521868,-23.43068,31.1956,-27.33281,1008.082
22.799060821,98.22807,90.13124,-6.83774,0.1991951,-0.4627323,0.7235656,-23.43068,31.1956,-27.33281,1008.085
22.833708286,145.3452,97.23344,-18.23713,0.1125553,-0.3408342,0.8656407,-21.9588,30.75401,-30.3989,1008.085
22.865880012,171.2688,97.23344,-27.7979,0.09948423,-0.1270481,0.9489831,-20.889,28.77052,-35.24073,1008.085
22.900527477,175.6304,88.17813,-33.43631,0.02683898,-0.0836641,1.052202,-20.889,28.77052,-35.24073,1008.087
22.932695866,220.2903,56.98763,-20.7499,-0.1621131,0.04566437,1.210718,-18.68718,24.10298,-40.07533,1008.087
22.967342377,113.5857,-29.12656,-18.17584,0.04438397,1.019022,1.619767,-16.86433,17.91628,-44.90057,1008.087
22.999515057,-73.46993,-13.67927,-14.49862,0.2214251,0.3543371,0.825048,-16.86433,17.91628,-44.90057,1008.091
23.034162045,43.06356,8.633475,0.08769328,0.1041206,-0.0472808,0.5326679,-14.94542,10.61859,-47.10661,1008.092
23.066334724,0.8608639,25.20528,-0.586464,0.127287,0.5364432,1.091081,-16.13722,9.497871,-46.64862,1008.094
23.100981236,-82.37734,18.45819,3.642341,-0.01629058,0.1681326,1.198799,-15.31913,8.342838,-46.64722,1008.094
23.133149624,8.293944,2.004754,-1.199334,-0.01763612,-0.2149237,0.9334456,-15.31913,8.342838,-46.64722,1008.094
23.165322304,47.36369,-5.393373,-3.466954,0.05158658,0.2588605,0.9858695,-14.93361,11.01109,-46.2159,1008.094
23.199968815,-3.746417,-3.972933,0.3328413,0.09147312,0.1734364,1.011785,-14.56145,11.00004,-46.66412,1008.098
23.232141495,4.79241,-1.605532,6.52283,0.1178023,0.1834773,0.9460702,-14.56145,11.00004,-46.66412,1008.1
23.266788483,8.171083,5.437484,12.40639,0.1240841,0.1640839,0.8899397,-15.31784,10.2485,-46.65653,1008.1
23.298961163,-9.152292,11.35599,18.04479,0.09046526,0.2111679,0.9316115,-14.95723,10.22608,-47.99731,1008.098
23.333603859,-51.66214,12.59887,16.5739,0.1162111,0.04893675,0.9960677,-14.95723,10.22608,-47.99731,1008.098
23.365776062,-11.42522,3.306824,14.55143,0.03601607,0.03995992,1.039158,-14.1898,10.22672,-47.10861,1008.098
23.400423527,-19.53403,2.714974,11.18064,0.03186795,0.05426434,1.003165,-14.18877,11.75125,-47.11605,1008.098
23.432596207,-18.0597,4.076229,5.90996,0.01627741,-0.009912423,0.9791632,-14.18877,11.75125,-47.11605,1008.1
23.467242718,2.580915,0.6434985,5.358377,0.06502074,0.04730152,1.002798,-13.42056,12.89528,-46.23294,1008.1
23.499414921,-1.719213,2.951714,4.929368,0.05714435,0.1686538,0.93591,-13.80428,12.89497,-46.67729,1008.102
23.534058094,-12.53097,-0.6585718,1.068286,0.01876229,0.0935627,0.9925249,-13.80428,12.89497,-46.67729,1008.1
23.566230774,-16.33965,-0.9544969,-4.508833,0.0737159,0.003581255,1.129604,-13.42005,13.65755,-46.23666,1008.102
23.600877285,-2.456378,-1.250422,-10.88268,0.07028723,-0.03547033,0.9726645,-13.04185,14.03332,-46.24046,1008.102
23.633049965,21.68577,0.7026834,-17.07267,0.06886853,0.02692116,1.005968,-13.04185,14.03332,-46.24046,1008.102
23.667696953,12.28692,7.923255,-22.95623,0.1086935,0.08268049,0.8980883,-13.41375,14.4255,-45.79411,1008.1
23.699869156,73.2259,11.88865,-27.36889,0.04767701,0.04041375,0.9166251,-13.04789,13.6465,-46.68488,1008.1
23.732037544,79.73752,5.023189,-25.59157,0.08644824,0.3391182,1.03055,-13.04789,13.6465,-46.68488,1008.1
23.766684532,27.03022,5.200744,-19.34029,0.02654684,0.2613011,0.9085213,-13.06047,12.11059,-47.57,1008.1
23.798857212,18.06138,0.1700183,-6.83774,-0.05543374,0.249063,1.031131,-13.44047,9.066893,-47.55318,1008.099
23.833503723,-59.15665,-16.40178,3.335906,0.1144618,0.06267062,1.013549,-13.44047,9.066893,-47.55318,1008.099
23.865676403,7.249627,-8.766918,11.60965,0.06271002,-0.03711866,0.9428377,-13.83074,7.917491,-48.43822,1008.099
23.900323391,35.44619,-5.393373,17.61578,0.0871492,0.1696889,0.9635946,-13.44047,9.066893,-47.55318,1008.1
23.932491302,20.45716,-3.440268,15.53202,0.003963538,0.3187966,0.922702,-13.44047,9.066893,-47.55318,1008.103
23.967138767,-9.398014,1.353719,10.01619,0.04501219,0.287213,0.9447126,-13.81892,8.309994,-47.54752,1008.103
23.999311447,-19.59546,1.472089,4.132637,0.049266,0.2000232,0.9704641,-14.19738,7.553096,-47.54187,1008.103
24.033958435,-5.835052,-0.8361269,0.7005635,0.09033879,0.1331609,1.012428,-14.19712,7.93423,-47.54372,1008.103
24.066130161,-0.1834531,-0.6585718,1.006999,0.08612643,0.163811,1.018985,-14.19712,7.93423,-47.54372,1008.099
24.100777626,-0.6748964,1.057793,0.7618505,0.07347453,0.1649112,0.9646467,-13.82444,8.685443,-47.99566,1008.099
24.132946014,-1.903505,-0.1259068,0.7618505,0.05265256,0.1733832,0.9798528,-14.56902,8.326416,-47.09737,1008.097
24.167593479,-1.473492,-0.5993868,0.2715543,0.06002699,0.1680772,0.9888982,-14.56902,8.326416,-47.09737,1008.096
24.199765205,-1.412061,-0.1850918,0.3328413,0.06137118,0.164576,0.9763249,-14.20238,8.690811,-47.99373,1008.096
24.231937885,-1.043479,0.1700183,0.5779895,0.06764747,0.1659337,0.9676015,-14.19686,8.315363,-47.54559,1008.098
24.266584873,0.1851293,-0.06672174,0.4554154,0.05748747,0.1723508,0.9749792,-14.19686,8.315363,-47.54559,1008.098
24.298756599,-0.4291748,-0.2442768,-0.1574548,0.06724434,0.1756846,0.9729876,-14.95248,8.707233,-47.54358,1008.1
24.333400250,-0.8591877,-0.06672174,-0.5251769,0.06663705,0.1654236,0.9637508,-14.56851,9.088684,-47.1011,1008.1
24.365572453,0.6765727,-0.06672174,0.08769328,0.068253,0.1708738,0.9792046,-14.56851,9.088684,-47.1011,1008.1
24.400219917,-0.1220227,0.1108333,0.3941284,0.06431266,0.1737615,0.9734811,-14.20264,8.309678,-47.99187,1008.1
24.432391644,0.0008381084,-0.1850918,0.5779895,0.06871251,0.1708455,0.975826,-14.20187,9.453079,-47.99745,1008.098
24.467038632,0.7380031,-0.007536724,0.4554154,0.06623579,0.1785613,0.9677188,-14.20187,9.453079,-47.99745,1008.104
24.499211311,-0.4906052,0.2883883,0.2715543,0.05984966,0.1800051,0.9620063,-14.57429,9.082998,-47.54737,1008.104
24.533854485,-0.7977573,0.4659434,-0.09616779,0.05992709,0.1752398,0.9735342,-13.82444,8.685443,-47.99566,1008.104
24.566026688,-1.534922,-0.06672174,-0.03488077,0.05554426,0.1626972,0.9807017,-13.82444,8.685443,-47.99566,1008.104
24.600673676,-0.613466,-0.4810168,0.08769328,0.06331321,0.1573037,0.9786568,-14.1966,8.696497,-47.54745,1008.102
24.632846356,2.458055,-0.3626468,0.4554154,0.07108773,0.1620702,0.9723576,-13.81237,9.45908,-47.10683,1008.102
24.667493343,1.536598,0.3475733,0.4554154,0.06973683,0.1776546,0.9782827,-13.81237,9.45908,-47.10683,1008.1
24.699665546,-0.4291748,0.1108333,0.02640625,0.0643896,0.1786672,0.9802689,-14.95248,8.707233,-47.54358,1008.1
24.734308720,-2.026366,0.2883883,-0.2187418,0.06480101,0.1660223,0.9772688,-14.19057,9.083315,-47.10303,1008.1
24.766480923,-0.5520356,0.1700183,-0.2800289,0.0696826,0.165516,0.9777011,-14.19057,9.083315,-47.10303,1008.1
24.798653126,0.8608639,-0.1850918,0.08769328,0.06036688,0.1635879,0.973434,-14.56851,9.088684,-47.1011,1008.098
24.833300114,0.9222943,-0.3034618,0.02640625,0.05752182,0.1757671,0.977417,-13.44073,8.68576,-47.55132,1008.098
24.865472794,0.7380031,-0.1850918,0.02640625,0.06283636,0.1785933,0.9696788,-13.44073,8.68576,-47.55132,1008.097
24.900119781,-0.3677444,-0.1259068,0.02640625,0.06677068,0.1742494,0.9753903,-14.19635,9.077629,-47.54931,1008.097
24.932287693,0.1236989,0.2292033,-0.03488077,0.06875084,0.1761996,0.9777979,-14.5748,8.320731,-47.54366,1008.097
24.966935158,0.5537118,-0.007536724,0.08769328,0.06484956,0.169935,0.9811565,-14.5748,8.320731,-47.54366,1008.097
24.999107361,-0.3677444,0.1108333,0.2715543,0.06135449,0.173265,0.9701306,-13.81841,9.072262,-47.55124,1008.097
25.033754826,-0.0605923,-0.007536724,0.1489803,0.06234704,0.1655381,0.9758417,-13.81263,9.077946,-47.10497,1008.097
25.065926552,0.6765727,-0.06672174,0.3328413,0.06282286,0.1645575,0.9748652,-13.81263,9.077946,-47.10497,1008.097
25.100574017,0.2465598,0.05164829,0.08769328,0.06283485,0.1684369,0.9744151,-14.19057,9.083315,-47.10303,1008.097
25.132742405,0.3694206,0.05164829,-0.2187418,0.06682721,0.1810708,0.97882,-13.81314,8.31568,-47.10124,1008.095
25.167389393,-1.043479,-0.1259068,-0.2800289,0.06823067,0.1703699,0.9767906,-14.20213,9.071945,-47.99559,1008.093
25.199561596,-1.22777,-0.2442768,-0.1574548,0.05944594,0.161225,0.9811351,-14.20213,9.071945,-47.99559,1008.093
25.234208584,0.9222943,-0.1259068,0.1489803,0.06918271,0.1606719,0.9786298,-14.18505,8.707867,-46.65488,1008.091
25.266381264,1.106586,0.1700183,0.08769328,0.07066027,0.170832,0.9753258,-14.1966,8.696497,-47.54745,1008.091
25.301027775,-0.3063139,0.1108333,-0.09616779,0.06533707,0.1786364,0.9768857,-14.1966,8.696497,-47.54745,1008.093
25.333196163,-0.7363268,0.2292033,-0.09616779,0.0653008,0.1728006,0.975392,-14.19108,8.321048,-47.09931,1008.093
25.365368843,-0.3677444,-0.007536724,-0.03488077,0.06428045,0.1679294,0.9724694,-14.19057,9.083315,-47.10303,1008.091
25.400016308,-0.1220227,-0.007536724,0.1489803,0.06087926,0.1626405,0.9767955,-14.19057,9.083315,-47.10303,1008.094
25.432188034,0.6765727,-0.06672174,-0.09616779,0.06236529,0.1660383,0.9777737,-14.57429,9.082998,-47.54737,1008.094
25.466835022,0.6151423,0.05164829,0.02640625,0.05938667,0.1684246,0.9705912,-14.57429,9.082998,-47.54737,1008.094
25.499007702,0.06226853,-0.007536724,-0.03488077,0.06722413,0.173732,0.9715257,-14.57429,9.082998,-47.54737,1008.094
25.533650398,-0.0605923,0.1700183,-0.03488077,0.06584563,0.1728498,0.9821354,-14.58006,9.077314,-47.99366,1008.094
25.565822601,0.3079902,0.1700183,0.02640625,0.06341188,0.1743183,0.9821702,-14.19057,9.083315,-47.10303,1008.088
25.600470066,0.1851293,0.1108333,0.1489803,0.06579076,0.1732835,0.9753914,-14.19057,9.083315,-47.10303,1008.092
25.632642746,0.0008381084,0.1700183,0.08769328,0.06382681,0.1723152,0.9744378,-13.81841,9.072262,-47.55124,1008.092
25.667289257,-0.0605923,-0.06672174,0.08769328,0.05940894,0.1698956,0.972531,-14.1966,8.696497,-47.54745,1008.092
25.699461460,0.5537118,-0.1850918,0.08769328,0.06185918,0.1636064,0.9767943,-14.1966,8.696497,-47.54745,1008.092
25.734105110,0.3079902,-0.007536724,-0.03488077,0.06973919,0.1713703,0.9816048,-14.19031,9.464449,-47.10489,1008.092
25.766276836,-0.1834531,0.1108333,-0.2187418,0.06681106,0.1791218,0.9778401,-14.19057,9.083315,-47.10303,1008.092
25.800923824,-1.22777,-0.1850918,-0.1574548,0.07167882,0.1713494,0.9801406,-14.19057,9.083315,-47.10303,1008.094
25.833096504,-0.7977573,-0.2442768,-0.09616779,0.06671033,0.1625888,0.9738488,-13.81841,9.072262,-47.55124,1008.094
25.865269184,1.84375,-0.1259068,0.02640625,0.06574431,0.167922,0.9724557,-13.81866,8.691128,-47.54938,1008.092
25.899915695,0.6151423,0.2883883,0.1489803,0.06386934,0.1747717,0.9783137,-13.81866,8.691128,-47.54938,1008.092
25.932084084,-2.149226,0.3475733,1.619869,0.06108851,0.2024835,0.982424,-13.81815,9.453396,-47.5531,1008.092
25.966731548,-5.58933,-0.3626468,3.45848,0.06469636,0.1465844,0.9742176,-14.57981,9.458448,-47.99552,1008.092
25.998903275,2.888068,-1.013682,2.4166,0.06570061,0.1485395,0.9766343,-14.57981,9.458448,-47.99552,1008.092
26.033550262,2.580915,-0.8953119,1.742443,0.06483218,0.1921634,0.968326,-14.18453,9.470133,-46.65861,1008.09
26.065722942,-1.412061,0.05164829,0.4554154,0.06090104,0.1737824,0.9739953,-14.19635,9.077629,-47.54931,1008.088
26.100370407,-0.0605923,-0.1259068,-0.2187418,0.06724504,0.1621453,0.979624,-14.19635,9.077629,-47.54931,1008.088
26.132538319,0.9837248,0.05164829,0.02640625,0.07065009,0.1713063,0.9738839,-14.19057,9.083315,-47.10303,1008.088
26.167185307,-1.104909,-0.06672174,0.5779895,0.07264826,0.1785921,0.9758531,-14.1966,8.696497,-47.54745,1008.088
26.199357986,-0.6748964,-0.8953119,1.436008,0.06346103,0.1666259,0.9917462,-14.1966,8.696497,-47.54745,1008.088
26.234004974,7.433918,-4.328043,0.1489803,0.06073301,0.1223713,0.9788749,-14.57429,9.082998,-47.54737,1008.087
26.266176701,16.64848,-8.589363,-2.363787,0.02116348,0.1249099,1.030839,-14.19057,9.083315,-47.10303,1008.085
26.300824165,55.04249,-32.20419,-5.979722,0.00677816,0.01689464,1.113469,-14.20238,8.690811,-47.99373,1008.087
26.332992554,117.4558,-56.47004,14.30628,0.1031018,0.4714778,1.148129,-14.20238,8.690811,-47.99373,1008.087
26.367640019,45.45934,-56.88434,25.03151,0.08069649,0.5292472,1.009035,-15.33094,7.950335,-47.53793,1008.087
26.399811745,-84.46597,-75.64598,30.79249,0.2096117,0.8007097,1.236128,-17.65862,3.796657,-47.05925,1008.087
26.431984425,-107.0109,-90.44224,56.2266,0.1241278,0.507605,1.251861,-17.65862,3.796657,-47.05925,1008.085
26.466631413,-102.7722,-132.8779,77.12548,0.06728046,0.4776492,1.296006,-19.89711,4.238426,-44.81811,1008.085
26.498803616,-200.2623,-165.6072,65.48094,0.098258,0.3500844,1.327442,-22.48213,9.667912,-40.43157,1008.087
26.533446789,-212.6712,-208.5755,40.59842,0.2484026,-0.3132555,0.8159186,-22.48213,9.667912,-40.43157,1008.087
26.565618992,-264.8871,-214.2573,-19.52415,0.456828,-0.3267041,0.6538391,-25.02593,16.28059,-32.92665,1008.087
26.600266457,-300.8239,-191.9445,-85.77543,0.8120456,-0.7721618,0.4569443,-29.80327,23.33991,-22.79805,1008.085
26.632438183,-303.2197,-161.2867,-114.0287,0.8380917,-0.566124,0.37887,-29.80327,23.33991,-22.79805,1008.085
26.667085648,-392.7852,-109.3223,-163.1809,0.9654932,-0.4587021,0.04020314,-33.81059,28.11713,-11.45083,1008.085
26.699257851,-352.9169,-53.51079,-194.0696,0.9874712,-0.9159893,-0.1430756,-36.67526,26.41196,0.9422913,1008.085
26.733901024,-120.4642,-21.31414,-188.9215,0.7203573,-0.7500806,-0.01196758,-36.67526,26.41196,0.9422913,1008.084
26.766073227,42.69497,-26.10813,-178.6253,0.563963,-0.1302545,-0.04926032,-39.98317,20.8391,8.510624,1008.082
26.800720215,16.8942,0.05164829,-175.6835,0.8271157,0.1503975,-0.05470408,-42.23418,12.5083,10.28453,1008.08
26.832892895,-74.94426,56.45496,-164.1002,0.7483375,0.07467547,-0.04302527,-42.23418,12.5083,10.28453,1008.078
26.867539883,-60.01668,93.74152,-155.9491,0.7063929,0.01836461,-0.07105409,-43.37738,7.182856,9.870102,1008.078
26.899712086,-45.94911,144.6406,-146.8173,0.7324892,0.143804,-0.2784872,-44.17281,-1.288163,7.301287,1008.078
26.931880474,-4.360722,210.0993,-141.3627,0.5260451,0.1534757,-0.2273172,-44.17281,-1.288163,7.301287,1008.077
26.966527462,76.11313,236.6733,-137.6242,0.440933,0.2792184,0.03672131,-44.62864,-6.691754,1.591377,1008.081
26.998699665,48.16228,-322.0924,16.69648,-1.555078,1.18865,0.05175757,-43.98475,-12.52588,-6.736403,1008.081
27.033346653,-113.4611,-13.08742,-55.62221,3.438261,0.3414648,0.4734319,-43.98475,-12.52588,-6.736403,1008.079
27.065519333,142.5194,77.52483,33.48912,-0.7280996,0.3345706,-0.02180401,-42.07611,-17.48553,-5.000513,1008.079
27.100166321,196.5782,-67.71519,38.82109,0.8289962,1.195089,0.5351823,-42.08895,-19.40257,-5.883771,1008.079
27.132334232,-76.91003,16.91938,77.24805,0.9398449,0.8717316,0.4678582,-42.08895,-19.40257,-5.883771,1008.077
27.166981697,-91.83762,14.43361,82.39616,0.5100687,0.2588655,0.08555436,-42.03065,-18.58345,-1.424686,1008.079
27.199154377,38.94772,21.59499,100.721,0.6796654,0.2495591,0.1210091,-43.1863,-16.68442,-3.213311,1008.079
27.233801365,156.9556,25.50121,137.7996,0.5608569,0.3876477,0.201822,-43.94012,-13.62462,-3.224329,1008.079
27.265973091,189.5137,41.12605,153.8568,0.5845225,0.4587986,0.2542437,-43.94012,-13.62462,-3.224329,1008.079
27.300620556,130.6633,70.71855,166.7884,0.6652424,0.4527785,0.2809148,-45.07111,-9.416042,-3.238996,1008.079
27.332788944,31.08463,101.3764,175.3686,0.6466562,0.461945,0.3876857,-45.84624,-3.711042,-5.048162,1008.077
27.367435455,-152.838,119.2503,197.0029,0.5676955,0.3792871,0.3809931,-45.84624,-3.711042,-5.048162,1008.077
27.399608135,-242.9564,117.6523,226.0529,0.3496417,-0.01775631,0.1763507,-45.88723,2.787083,-8.586595,1008.077
27.434255123,-206.5896,58.17133,215.5729,1.559303,-1.03494,0.5991531,-42.88668,11.48178,-10.87627,1008.077
27.466427803,153.8226,196.901,237.9426,1.453377,-1.537242,0.6644444,-42.88668,11.48178,-10.87627,1008.079
27.498599529,334.3051,138.0711,190.5678,0.3887155,-0.3967405,0.6543792,-39.11216,21.3262,-11.83655,1008.081
27.533243179,159.4128,152.2755,130.7516,-0.3768106,-0.08396189,0.7532709,-33.94152,27.22654,-21.5203,1008.081
27.565415383,-4.545012,106.9398,73.14182,-0.2853198,-0.340901,0.7893409,-33.94152,27.22654,-21.5203,1008.083
27.600062847,7.74107,116.1135,44.39821,0.4908615,-0.8362613,1.001662,-27.22993,26.27831,-28.56437,1008.083
27.632234574,165.3715,135.3486,48.13672,0.2929337,-0.7172185,1.142342,-23.48969,28.0905,-31.71698,1008.083
27.666881561,233.7436,100.1927,22.51874,-0.09388594,-0.3492388,1.216465,-23.48969,28.0905,-31.71698,1008.085
27.699054241,247.1354,56.21822,-21.11762,0.0191692,-0.2397299,1.202335,-19.4069,27.57722,-37.47428,1008.083
27.733696937,259.7286,24.13995,-19.52415,0.03293082,0.2684101,1.14229,-16.08983,19.82827,-43.57489,1008.085
27.765869617,247.8726,-0.8361269,-9.902091,-0.05172576,0.6288012,1.056399,-16.08983,19.82827,-43.57489,1008.085
27.800516605,140.1236,-8.411808,0.6392765,0.09100281,0.9141331,0.8877559,-14.57351,10.2264,-47.55296,1008.085
27.832689285,-60.13954,-9.536324,7.56471,-0.02941207,0.9355593,1.00811,-14.96396,0.2530893,-47.94862,1008.086
27.867335796,-61.98245,-17.94059,7.56471,0.1275837,0.2323262,0.8668517,-14.96396,0.2530893,-47.94862,1008.09
27.899508476,-15.41819,-12.55476,10.62906,0.1687502,0.2791879,0.8649259,-16.16335,-3.541245,-47.92388,1008.09
27.934151649,-49.08207,-6.636259,4.745507,0.1698682,0.2822136,0.8803644,-16.1437,-0.09398925,-46.60179,1008.09
27.966323853,-36.67312,2.655789,-0.5251769,0.1560376,0.08297423,0.8407729,-16.1437,-0.09398925,-46.60179,1008.09
27.998496056,24.51157,-1.368792,-1.015473,0.1038472,0.1721208,0.9750267,-16.14318,0.6682777,-46.60551,1008.09
28.033143044,50.6195,-2.079012,0.6392765,0.1563643,0.3467043,0.92633,-16.90351,2.642519,-47.05754,1008.092
28.065315723,20.5186,0.4067584,2.906896,0.1117048,0.4922126,0.8840843,-16.90351,2.642519,-47.05754,1008.094
28.099962235,-5.282177,2.300679,4.929368,0.08319864,0.4056101,0.9019524,-16.15448,1.038041,-47.49993,1008.094
28.132130623,-12.5924,2.182309,5.726099,0.1215606,0.388284,0.9457955,-16.91062,0.667645,-47.4942,1008.094
28.166778088,-34.4002,-1.546347,5.848673,0.1143847,0.3231695,0.9944896,-16.91062,0.667645,-47.4942,1008.094
28.198950291,-32.61871,-11.31187,2.048878,0.133277,0.2799104,0.9987767,-16.52664,1.049095,-47.05172,1008.094
28.233597279,-47.5463,-17.40793,-2.425075,0.1463701,0.2875069,0.9852213,-16.52634,1.493751,-47.05389,1008.096
28.265769482,-59.34094,-28.12042,-6.715167,0.05705495,0.1839347,1.092205,-16.52634,1.493751,-47.05389,1008.096
28.300416946,-40.85039,-67.41927,-11.06654,0.01740686,0.09307303,1.180031,-17.27516,3.41584,-46.61304,1008.097
28.332584858,2.826637,-79.19708,-8.737638,0.2136116,0.06854411,1.020867,-18.01216,5.730433,-45.2815,1008.097
28.367231846,58.35973,-74.10717,-6.776453,0.2371517,0.1639088,0.8141733,-20.26143,7.304232,-43.9385,1008.097
28.399404526,87.1706,-62.03343,-6.83774,0.3279265,0.3114746,0.685367,-20.26143,7.304232,-43.9385,1008.1
28.434051514,78.81606,-39.06965,1.865017,0.3962112,0.5039731,0.7041508,-23.26947,5.838889,-42.6405,1008.1
28.466223717,37.71911,-16.22423,10.99678,0.3514019,0.6623269,0.7540743,-25.53365,2.446583,-42.16586,1008.098
28.500870705,-37.22599,5.082374,10.99678,0.397797,0.5658988,0.8049024,-25.53365,2.446583,-42.16586,1008.098
28.533039093,-84.65027,14.01931,13.57084,0.3104019,0.4477807,0.915122,-25.53549,-0.2848737,-42.15253,1008.098
28.565211773,-86.06316,13.48665,13.63213,0.3371971,0.176883,0.9246887,-26.29004,1.695053,-42.15828,1008.098
28.599858284,-53.01361,11.94784,9.158173,0.331202,0.09558332,0.8893704,-26.29004,1.695053,-42.15828,1008.096
28.632030964,-26.35281,19.52352,6.890553,0.3651514,0.09812396,0.8630466,-25.1539,5.109149,-42.18082,1008.096
28.666677952,-14.92675,23.60728,-4.753982,0.3061292,0.1631636,0.9508934,-24.7689,7.015133,-41.74578,1008.1
28.698850155,-0.8591877,13.48665,-8.676351,0.3020421,0.09531677,0.9619402,-24.7689,7.015133,-41.74578,1008.1
28.733493328,23.34439,16.97856,3.948776,0.2761874,0.3037969,0.9783602,-23.63983,8.517876,-42.20531,1008.1
28.765665531,-40.35894,19.34596,-0.2187418,0.3437667,0.3544892,0.9236816,-23.64638,7.368791,-42.646,1008.101
28.800312996,-57.37517,31.834,5.174516,0.309079,0.1458351,0.8456472,-23.64638,7.368791,-42.646,1008.101
28.832484722,-46.68628,40.06071,17.67707,0.1536794,0.1492723,0.8765275,-22.13488,6.966184,-42.65188,1008.101
28.867132187,-56.14656,47.87313,28.4023,0.158564,0.1690786,0.8674872,-21.7554,9.247616,-42.66498,1008.103
28.899304390,-75.25141,66.51642,38.88238,0.1268736,0.1267086,0.8915336,-21.7554,9.247616,-42.66498,1008.103
28.933948040,-82.5002,80.78001,52.61067,0.06705516,0.04602819,0.8388886,-19.4857,12.26447,-42.69147,1008.103
28.966119766,-93.49625,100.4294,61.00699,-0.02970856,-0.06387372,0.8755175,-16.84436,14.50801,-43.16245,1008.105
29.000766754,-101.1136,99.18655,50.15919,-0.1052741,-0.4299765,1.061666,-16.84436,14.50801,-43.16245,1008.105
29.032939434,18.79854,86.99443,53.59126,-0.1179753,-0.5552073,1.178842,-12.62069,19.4028,-43.20823,1008.105
29.067586422,43.18642,75.80846,41.08871,-0.05975201,-0.1324588,1.340844,-8.455517,22.39849,-42.79811,1008.105
29.099758625,-10.93377,77.52483,38.39208,-0.1846417,0.2168111,1.234511,-8.455517,22.39849,-42.79811,1008.105
29.131927013,-65.17683,83.26578,38.39208,-0.270268,0.1373517,1.071739,-3.936749,22.31783,-44.09641,1008.105
29.166574478,-77.52434,102.0866,24.41864,-0.3958211,-0.1607728,0.8511429,-0.1468801,21.89357,-43.28508,1008.105
29.198746204,-29.73148,119.0727,9.587182,-0.5946572,-0.2194676,0.8534784,-0.1468801,21.89357,-43.28508,1008.105
29.233393192,-9.828027,155.7082,4.806794,-0.7039533,-0.04092062,0.7108883,4.040891,24.14974,-41.08611,1008.105
29.265565872,-19.53403,185.5375,10.81292,-0.7942218,0.01075827,0.7454146,8.978501,26.00836,-39.33543,1008.105
29.300213337,-20.02548,204.6543,25.21537,-0.8881816,-0.1253089,0.6637117,8.978501,26.00836,-39.33543,1008.105
29.332381249,23.77441,207.0217,43.29504,-0.7802602,-0.4646465,0.6623172,14.30324,25.58537,-36.74672,1008.103
29.367028236,72.67302,216.5504,45.25623,-0.3372528,-0.3266207,0.4674856,21.54105,25.5394,-32.38441,1008.103
29.399200916,28.32026,229.3344,58.49422,0.1906713,0.158301,0.686349,21.54105,25.5394,-32.38441,1008.103
29.433847904,-48.28347,149.9673,77.0029,-0.4284097,-0.09545765,1.936484,28.08603,24.36069,-27.94922,1008.103
29.466019631,-78.20007,9.994731,63.82619,-0.5079166,-0.6737849,1.349239,34.58215,20.9115,-22.29121,1008.103
29.500667095,-11.60951,56.98763,97.3502,-0.5819994,0.1112428,-0.1238183,38.39492,18.98626,-19.62356,1008.105
29.532835484,-19.90262,27.8686,61.12957,-2.021925,0.03896106,0.3382453,38.39492,18.98626,-19.62356,1008.105
29.567482948,1.84375,-4.801523,76.26746,-0.9437375,0.209703,0.4525022,39.92273,17.07617,-18.28315,1008.105
29.599654675,-28.87146,1.412904,57.2072,-0.6348963,0.05296391,0.4044662,41.81037,14.00026,-18.27793,1008.105
29.631827355,4.546689,12.36213,49.30117,-0.9027376,0.2172442,0.4497718,41.81037,14.00026,-18.27793,1008.103
29.666474342,-4.17643,15.91323,29.87319,-0.8949186,0.2752811,0.3648634,42.9429,12.07849,-18.27443,1008.103
29.698646545,-2.149226,13.54583,17.30935,-0.9364296,0.1715285,0.3533094,42.9474,10.1785,-17.81885,1008.103
29.733289719,-3.193543,3.602749,16.5739,-0.8849142,0.1498392,0.28035,42.9474,10.1785,-17.81885,1008.103
29.765461922,-5.282177,0.7026834,19.45439,-0.9204252,0.03990207,0.288933,43.71266,9.415247,-17.05394,1008.103
29.800109386,-1.964935,-10.77921,30.05705,-0.952987,0.1291255,0.3198563,44.09009,8.647612,-17.05215,1008.103
29.832281113,-11.36379,-18.41407,34.96001,-0.9130877,0.1843941,0.3372917,44.09009,8.647612,-17.05215,1008.103
29.866928577,-11.73237,-27.76531,26.37983,-0.8600081,0.3208036,0.3740709,44.46752,7.879975,-17.05037,1008.103
29.899100780,-36.05882,-45.04733,29.75061,-0.9241314,0.3817604,0.4956716,44.07312,6.726513,-18.25418,1008.103
29.933743954,0.3079902,-50.43317,29.68933,-0.9382327,0.1615187,0.3758976,44.07312,6.726513,-18.25418,1008.101
29.965916157,8.662527,-51.55769,29.56675,-0.8173263,0.2699864,0.4836316,44.43321,5.941823,-19.59124,1008.101
30.000563145,-6.695077,-51.43932,28.09586,-0.8541592,0.3080831,0.5536972,43.64767,4.780735,-21.81319,1008.101
30.032735825,-35.13736,-52.03117,24.47993,-0.672021,0.4242339,0.6271832,43.64767,4.780735,-21.81319,1008.101
30.067382813,-29.79291,-45.40244,15.89975,-0.8230287,0.2159953,0.5280656,42.49657,3.637198,-23.07689,1008.101
30.099555016,-6.817938,-44.45548,-3.95725,-0.7659248,0.3467293,0.5237906,41.71732,3.244062,-24.85629,1008.101
30.134198189,-37.59458,-39.83905,-16.88881,-0.6795069,0.3119687,0.6036735,41.71732,3.244062,-24.85629,1008.101
30.166370869,-23.03557,-21.96518,-18.60485,-0.7214544,0.2251529,0.6481752,40.18271,3.62393,-26.63553,1008.101
30.198542595,-15.11104,-22.08355,-22.71108,-0.7888796,0.2699011,0.6168793,40.17167,4.374826,-27.53182,1008.105
30.233189583,-26.96711,-13.32416,-34.23304,-0.6143054,0.2867345,0.7093791,40.17167,4.374826,-27.53182,1008.105
30.265362263,-29.54719,2.833344,-39.93273,-0.7031028,0.2847738,0.7126014,39.03341,5.148327,-27.91226,1008.105
30.300009251,-44.16763,9.106956,-46.73559,-0.5776342,0.1610021,0.6043704,38.28351,6.68847,-27.53331,1008.105
30.332177162,-41.58755,15.97242,-42.69065,-0.7980036,0.06947529,0.6153121,38.28351,6.68847,-27.53331,1008.105
30.366824627,-35.93596,9.935546,-32.08799,-0.6618811,0.07747795,0.607842,38.28011,8.970399,-27.927,1008.107
30.398997307,-26.96711,14.25605,-20.62732,-0.8166454,-0.04218881,0.5996235,39.04826,11.25702,-27.11323,1008.105
30.433644295,-26.41424,13.01317,-16.39852,-0.7939281,0.005297218,0.6668009,37.93909,13.58267,-25.33347,1008.105
30.465816021,-14.68103,7.213035,-14.31476,-0.7612112,-0.01801979,0.6224415,37.93909,13.58267,-25.33347,1008.105
30.500463486,-7.923685,9.876361,-13.51803,-0.8279641,-0.004054758,0.6279995,38.70704,14.34557,-24.4485,1008.104
30.532631874,-9.582306,1.590459,-11.98585,-0.7392796,0.02878912,0.5382729,38.32936,14.73207,-24.44842,1008.104
30.567279339,-13.51385,11.82947,-5.612,-0.8122628,-0.1060502,0.6294221,38.32936,14.73207,-24.44842,1008.104
30.599451065,-1.842074,2.774159,1.19086,-0.7433215,-0.04868798,0.5593618,38.33014,15.87547,-24.45401,1008.104
30.634098053,2.765207,7.094665,6.706692,-0.8011286,-0.04481169,0.6471751,39.08627,16.24586,-24.45973,1008.104
30.666270733,7.065335,5.437484,12.22252,-0.8108723,0.009894917,0.622653,39.08627,16.24586,-24.45973,1008.104
30.698442459,1.78232,4.608894,16.88034,-0.766432,0.01357266,0.6246786,38.71963,15.88147,-23.56338,1008.104
30.733086109,9.399693,1.531274,27.23784,-0.7522296,0.003914308,0.5772306,39.09179,15.87042,-24.01159,1008.102
30.765258312,9.215401,1.768014,35.08258,-0.7792987,0.03378303,0.5936353,39.09179,15.87042,-24.01159,1008.102
30.799905777,20.94861,-6.636259,41.39515,-0.7948547,-0.02065364,0.5109098,39.09654,14.35157,-23.55787,1008.102
30.832077503,9.461123,-7.109738,48.62701,-0.7920027,0.022263,0.539193,40.22381,13.18638,-24.00437,1008.104
30.866724968,20.02715,-4.919893,53.65255,-0.745339,-0.003319766,0.5877106,40.22381,13.18638,-24.00437,1008.104
30.898897171,43.06356,-2.966787,56.65562,-0.7635188,0.2020619,0.6478953,40.22252,11.28071,-23.99507,1008.104
30.933540344,10.56687,-2.611677,62.8456,-0.6607304,0.2917409,0.6992495,40.9653,8.971802,-24.88033,1008.104
30.965712547,-38.20888,5.674224,82.76389,-0.6586249,0.154091,0.726051,40.9653,8.971802,-24.88033,1008.104
31.000359535,-38.63889,15.61731,107.5238,-0.7375544,0.1386774,0.6905105,41.33592,6.673946,-25.31738,1008.104
31.032532215,-32.55728,19.70107,105.5627,-0.7474087,0.3977582,0.6700844,41.34041,4.773964,-24.8618,1008.105
31.067179203,-49.88066,34.02384,96.92119,-0.6745309,0.5410939,0.7366199,41.34041,4.773964,-24.8618,1008.105
31.099351406,-107.6867,47.63639,89.68932,-0.6646882,0.3671854,0.5982065,42.48347,1.339027,-23.95829,1008.105
31.133994579,-78.56866,53.31816,77.12548,-0.7243071,0.3582547,0.5345832,42.87716,-0.9996102,-22.60991,1008.105
31.166166782,-44.9048,54.38349,58.98452,-0.7455392,0.4026214,0.4835732,42.87716,-0.9996102,-22.60991,1008.107
31.200814247,-7.309381,54.97534,45.07237,-0.791531,0.3896087,0.591863,43.6543,-2.512954,-20.88496,1008.105
31.232985973,-22.66698,52.25283,40.53713,-0.7799373,0.3933864,0.459718,44.432,-4.406619,-19.09441,1008.105
31.265158653,-18.48972,49.64869,45.50138,-0.7653426,0.473433,0.5898997,44.432,-4.406619,-19.09441,1008.105
31.299805641,-59.52523,48.4058,61.74244,-0.6940969,0.2594898,0.4607052,45.59781,-5.914773,-16.54259,1008.105
31.331973553,-41.58755,49.47113,74.79657,-0.7819275,0.3508072,0.4757736,45.61411,-7.422252,-15.1963,1008.105
31.366621018,-32.43442,49.29358,73.93855,-0.8509035,0.5210996,0.547711,45.61411,-7.422252,-15.1963,1008.104
31.398793221,-25.43135,51.42424,55.24601,-0.8630108,0.5735447,0.4171525,46.01966,-9.304863,-12.95753,1008.105
31.433440685,-18.8583,40.53419,35.9406,-0.8432717,0.5930272,0.375677,45.65668,-11.57006,-11.66935,1008.105
31.465612412,-23.83416,26.98083,32.07952,-0.844467,0.4733911,0.4074778,45.65668,-11.57006,-11.66935,1008.105
31.500259876,-14.86532,2.123124,24.29607,-0.9382251,0.485963,0.2778344,45.67876,-13.07185,-9.87678,1008.107
31.532428265,7.495348,-39.48394,10.99678,-0.914865,0.6216716,0.2045073,45.30558,-14.58533,-9.421122,1008.111
31.599247456,-71.50416,-124.7695,-57.39954,-0.8355854,0.526108,0.4516915,45.28798,-14.98352,-10.7581,1008.111
31.633894444,-114.1983,-97.42606,-103.3035,-0.4625846,0.2082343,0.5092144,44.10325,-14.63663,-14.70693,1008.111
31.666067123,-92.02192,-34.27566,-100.7295,-0.3550357,0.2314942,0.6366144,44.05521,-11.25597,-18.6127,1008.111
31.700714111,-49.57351,-2.079012,-86.02058,-0.3184653,0.2094505,0.7599654,44.05521,-11.25597,-18.6127,1008.109
31.732882023,20.70289,19.16841,-66.96031,-0.286747,0.1603391,0.9578483,43.65776,-5.93747,-20.42194,1008.109
31.765054703,34.21758,40.29745,-52.55786,-0.4751258,0.3147038,0.649507,44.04405,-2.125819,-19.9962,1008.109
31.799702167,-40.97325,73.02677,-39.38115,-0.5746055,0.3322626,0.5334541,44.04405,-2.125819,-19.9962,1008.109
31.831873894,-62.71962,85.39644,-37.17482,-0.945947,0.147507,0.5681719,44.07423,-0.1917272,-17.7741,1008.109
31.866520882,-37.90173,71.60633,-28.53335,-0.8170787,0.09088216,0.4835987,45.23687,2.169291,-15.68748,1008.111
31.898693562,-52.21502,73.26351,-20.07574,-0.7104037,-0.1095406,0.557107,45.23687,2.169291,-15.68748,1008.111
31.933336735,-6.387925,66.75316,-4.38626,-0.8550755,-0.0576952,0.3892205,46.03918,3.727755,-12.1923,1008.109
31.965508938,-18.55115,57.28355,0.1489803,-0.9534352,0.08895319,0.4602732,46.84205,4.905897,-8.631505,1008.109
32.000155926,-21.31552,38.9362,5.174516,-0.868579,0.08758918,0.3380063,46.84205,4.905897,-8.631505,1008.107
32.032328606,-42.93902,41.18523,5.603525,-0.8914514,-0.01869925,0.5132733,46.85964,5.304085,-7.294524,1008.107
32.066975594,6.573892,40.06071,6.767979,-0.8893624,-0.02286174,0.4153736,47.25961,4.93951,-5.573229,1008.106
32.099147320,11.79548,49.64869,5.664812,-1.010799,0.1049128,0.478774,47.25961,4.93951,-5.573229,1008.104
32.133790970,13.76125,54.62023,2.171452,-0.9670246,0.1345816,0.3889582,46.90479,4.967618,-3.786173,1008.104
32.165963173,14.37556,59.11829,1.129573,-0.9453113,0.008595159,0.3043311,47.67748,4.211669,-2.447476,1008.104
32.200610638,17.63137,63.20205,1.742443,-0.8699154,0.03411106,0.2628679,47.67748,4.211669,-2.447476,1008.104
32.232782364,26.7845,73.50025,2.661748,-0.9346418,0.02008704,0.2908303,47.33313,3.869201,0.1702461,1008.102
32.267429829,32.74325,79.83305,3.397193,-1.018914,0.1057895,0.2094193,47.36832,4.665577,2.844208,1008.104
32.299602032,23.09867,87.5271,4.68422,-0.9966377,0.09391603,0.1946535,47.36832,4.665577,2.844208,1008.104
32.331769943,28.93456,92.32108,6.645405,-0.9750851,0.05144097,0.0504664,47.41346,4.329111,6.35256,1008.104
32.366417408,23.77441,93.14967,7.871145,-0.9979643,0.06131516,-0.005632655,46.70298,4.384515,9.862917,1008.104
32.398589611,30.83891,95.45789,11.73223,-1.005068,0.1311823,-0.01366637,46.70298,4.384515,9.862917,1008.104
32.433237076,30.2246,91.72923,18.10608,-1.017938,0.1142295,-0.1433439,45.98806,5.197313,12.98703,1008.104
32.465408802,21.07147,91.49249,22.39617,-0.9646087,0.04981301,-0.1540126,44.52093,4.120053,16.50684,1008.104
32.500056267,26.47735,88.23732,31.03764,-1.032116,0.07369299,-0.1849977,44.52093,4.120053,16.50684,1008.104
32.532224655,23.34439,85.45562,34.96001,-1.043348,0.1405112,-0.276404,43.05431,3.805061,20.02292,1008.104
32.566871643,25.61732,84.62704,35.26645,-1.065422,0.1714655,-0.3048628,41.57696,3.47951,22.71021,1008.106
32.599043846,22.60723,82.67393,29.26031,-1.09998,0.1959347,-0.3641065,41.57696,3.47951,22.71021,1008.108
32.633690834,31.26892,76.16357,27.42171,-1.09,0.221269,-0.4083347,39.34843,2.788436,25.78574,1008.106
32.665863514,35.0776,66.2205,26.37983,-1.060636,0.1917404,-0.4421102,37.86531,2.457201,28.02674,1008.106
32.700510502,18.98284,55.74474,17.37063,-1.2319,0.1253569,-0.3489974,36.00945,2.517341,30.65034,1008.106
32.732678413,18.3071,21.1807,-2.608936,-1.215388,0.02272335,-0.3668676,36.00945,2.517341,30.65034,1008.106
32.767325878,-0.613466,-22.91214,-43.60995,-1.032645,0.1506953,-0.4595797,33.38699,2.57766,32.44899,1008.102
32.799498081,6.573892,-49.19028,-71.86327,-0.8527724,0.1036824,-0.4606817,32.99826,3.715059,31.55279,1008.104
32.834145546,21.31719,-69.6683,-64.57012,-0.8633378,0.2991405,-0.3606438,32.99826,3.715059,31.55279,1008.103
32.866317272,3.010928,-77.36235,-42.87451,-0.8422084,0.3180279,-0.3524913,32.61609,6.001544,31.09727,1008.103
32.898489952,-2.272087,-77.9542,-20.13703,-0.8634685,0.2075151,-0.1575122,32.58957,8.260733,28.91846,1008.101
32.933133125,17.20135,-105.416,6.829266,-0.9892744,0.2434167,0.0112115,32.58957,8.260733,28.91846,1008.101
32.999952316,-25.79994,-106.5997,23.1929,-0.920722,0.1577725,-0.03592417,36.67364,9.653122,23.15185,1008.097
33.032124996,-82.00876,-97.60362,5.174516,-1.004181,0.1466451,-0.148025,36.67364,9.653122,23.15185,1008.097
33.066771984,-123.5971,-87.54217,-7.818333,-1.080062,0.03271626,-0.1795862,38.16152,8.465508,21.36457,1008.094
33.098943710,-125.3172,-94.17089,-11.00526,-1.007968,0.1327472,-0.1273783,40.01634,6.880834,18.74842,1008.094
33.133586884,-165.6156,-89.7912,-17.86941,-0.9088417,0.2221822,-0.04707202,40.01634,6.880834,18.74842,1008.09
33.165759563,-205.2382,-87.54217,-31.16869,-0.8628599,0.1359793,0.007700204,41.49266,5.68185,16.06858,1008.087
33.200407028,-192.5835,-80.38078,-41.9552,-0.9083482,-0.08681588,0.1031698,42.21315,3.351015,13.46195,1008.087
33.232578754,-134.0403,-90.14631,-52.55786,-1.057349,-0.1224922,0.101374,42.21315,3.351015,13.46195,1008.087
33.267225742,-101.5436,-100.2669,-66.59259,-0.8743442,-0.04702818,0.1234245,43.69525,2.157717,11.2284,1008.085
33.299398422,-84.95742,-88.13402,-72.84387,-0.753481,-0.06614979,0.1134631,44.02779,2.107681,7.719971,1008.083
33.334041596,-55.96227,-67.95193,-65.85715,-0.7131138,-0.1269211,0.1265634,44.02779,2.107681,7.719971,1008.082
33.366213799,-32.9873,-47.88821,-55.49964,-0.681145,-0.165054,0.1746327,44.37209,3.592737,5.032911,1008.08
33.398386002,-38.51603,-25.16117,-45.26471,-0.6549047,-0.1895394,0.2893839,44.72377,6.227691,2.850302,1008.08
33.433033466,-84.5274,2.714974,-35.21363,-0.7298873,-0.1963037,0.3710037,44.72377,6.227691,2.850302,1008.08
33.465205193,-137.6033,19.40515,-27.98176,-0.7830877,-0.2448508,0.3354319,44.71299,7.359722,1.952158,1008.078
33.499852181,-173.2944,28.93394,-24.4884,-0.8076991,-0.4919138,0.2555408,44.72583,9.27676,2.835417,1008.08
33.532021046,-136.3747,27.39513,-26.57216,-0.8367056,-0.7177182,0.223102,44.72583,9.27676,2.835417,1008.079
33.566668034,-72.42561,21.47662,-31.1074,-0.8046272,-0.7764702,0.1779743,44.00379,9.320793,5.453213,1008.077
33.598840237,-26.59853,27.45431,-37.54254,-0.7830043,-0.6763779,0.2055897,43.64948,10.11117,7.236547,1008.077
33.633487225,-15.47963,30.94622,-48.5742,-0.77336,-0.6644797,0.2441578,43.64948,10.11117,7.236547,1008.077
33.665659904,-14.0053,28.57882,-58.62527,-0.7420608,-0.7186956,0.2202828,43.30512,9.7687,9.854273,1008.075
33.700306892,2.089472,24.37669,-61.44448,-0.727256,-0.7736705,0.1502835,42.55579,10.92852,10.29884,1008.075
33.732474804,22.60723,18.33982,-59.05428,-0.7066305,-0.7204617,0.1399257,42.19699,13.61888,11.62659,1008.073
33.767122269,28.25883,11.47436,-50.65796,-0.7022489,-0.6518636,0.1635863,42.19699,13.61888,11.62659,1008.073
33.799294472,27.82882,0.2883883,-36.56195,-0.7046049,-0.6208267,0.1585622,41.43661,15.5296,11.17487,1008.072
33.833941936,36.73622,-9.832249,-12.78258,-0.7226756,-0.57868,0.1364243,40.3096,17.07592,11.61951,1008.072
33.866113663,68.49576,-16.7569,15.34816,-0.7814558,-0.575205,0.1085635,40.3096,17.07592,11.61951,1008.07
33.900761127,132.3834,-22.61621,43.29504,-0.8511137,-0.529289,0.101398,39.54319,18.59982,10.72338,1008.07
33.932929516,194.7353,-26.64079,64.68421,-0.8622438,-0.4445608,0.1296743,40.64317,18.55042,8.103645,1008.068
33.965102196,242.9581,-16.7569,90.91505,-0.9299651,-0.3077948,0.1348077,40.64317,18.55042,8.103645,1008.068
33.999748707,238.1051,4.194599,113.8364,-0.9751706,-0.0836272,0.2219095,41.7187,17.7152,3.638758,1008.066
34.031920910,176.7361,32.18911,127.8099,-0.9865577,0.0757084,0.3578072,43.18955,15.74908,0.5801182,1008.065
34.066568375,53.56816,53.61408,121.3134,-0.9964117,0.2414233,0.4407232,43.18955,15.74908,0.5801182,1008.065
34.098741055,-62.90391,57.75703,104.4595,-0.8999,0.1296962,0.3651557,44.31425,10.77255,0.1522236,1008.063
34.133383274,-110.8196,60.00607,91.46664,-0.8206518,-0.04687414,0.2410146,45.47964,6.216954,2.846434,1008.063
34.165555954,-91.65334,63.7939,84.29606,-0.939108,-0.1278186,0.1792747,45.47964,6.216954,2.846434,1008.061
34.200202942,-47.79203,58.11214,73.50954,-1.0545,-0.1907987,0.1832062,45.11513,1.664963,4.145784,1008.061
34.232375622,-5.712191,53.96919,63.94877,-1.050631,-0.2285683,0.1973187,45.53115,-1.794335,7.284872,1008.061
34.267022133,17.99995,53.08142,53.65255,-1.009304,-0.1521001,0.2582954,45.53115,-1.794335,7.284872,1008.059
34.299194813,9.891135,50.95076,44.03049,-0.9282987,-0.05731611,0.3282109,45.17344,-4.816107,9.02306,1008.059
34.333837986,-19.59546,52.07527,33.67298,-0.8303569,-0.04926829,0.3649594,44.44465,-7.444881,11.27136,1008.059
34.366010666,-30.53008,51.60179,27.29913,-0.8301259,-0.1084999,0.3630229,44.44465,-7.444881,11.27136,1008.058
34.400657177,-12.10095,47.81395,20.61884,-0.8692869,-0.1727312,0.3797287,43.7056,-8.179356,12.61779,1008.059
34.432829857,22.60723,38.69946,17.67707,-0.9181951,-0.1291412,0.4620024,42.59907,-9.279037,14.79682,1008.059
34.465002060,41.77352,29.17068,7.687284,-0.9719235,-0.08543529,0.49323,42.59907,-9.279037,14.79682,1008.058
34.499649525,66.40712,9.935546,-6.592592,-0.9905865,-0.07581761,0.5325254,41.86476,-11.53236,16.59698,1008.058
34.531817436,94.11224,-8.589363,-19.09515,-0.9656365,-0.02220844,0.5139366,41.11517,-10.75367,17.0434,1008.059
34.566464424,97.79807,-21.31414,-26.44959,-1.003939,0.05561835,0.4479376,41.11517,-10.75367,17.0434,1008.061
34.598637104,79.67609,-34.27566,-25.10127,-1.072888,0.09161471,0.4136918,41.12724,-9.980038,17.93224,1008.061
34.633283615,46.50366,-50.43317,-24.30454,-1.077097,0.1019953,0.3723647,41.50673,-7.698604,17.91914,1008.061
34.665456295,12.90123,-61.3824,-32.21057,-0.954191,0.05928912,0.3265218,41.50673,-7.698604,17.91914,1008.061
34.700103283,6.389601,-53.74753,-39.38115,-0.9532666,-0.03888975,0.3097978,42.24104,-5.445281,16.11899,1008.063
34.732271671,28.1974,-52.26791,-31.29126,-1.287922,0.04455721,0.3410824,42.97432,-4.71649,14.32628,1008.063
34.766918659,-4.975026,-72.27244,-36.43937,-1.315508,0.1188529,0.3906343,44.46482,-3.235357,12.58973,1008.063
34.799090862,-53.93507,-70.49689,-41.77134,-1.197624,0.03203741,0.3492946,44.46482,-3.235357,12.58973,1008.063
34.833738327,-76.60288,-72.39081,-59.66716,-1.042885,-0.06239112,0.2256084,45.55427,-1.771595,9.069996,1008.065
34.865910530,-52.70646,-67.77438,-69.65694,-0.8785838,-0.1208538,0.1773214,45.89831,-0.6676726,6.384794,1008.065
34.900557041,-11.48665,-63.15795,-75.90822,-0.843887,-0.1373852,0.1329994,45.89831,-0.6676726,6.384794,1008.065
34.932725906,21.68577,-51.32095,-73.88575,-0.8808744,-0.2004201,0.1174009,46.24291,1.262039,3.695564,1008.066
34.967372894,61.49268,-35.51855,-57.64468,-0.9999784,-0.2327416,0.1293318,46.58329,4.266757,0.6185341,1008.068
34.999545574,81.58043,-29.71841,-41.0359,-1.015819,-0.1657267,0.186426,46.58329,4.266757,0.6185341,1008.068
35.031717300,69.04863,-27.70612,-30.55582,-0.8731322,-0.1058511,0.2381261,46.18981,6.923005,-0.7313995,1008.068
35.066364765,38.08769,-21.43251,-29.75909,-0.7400386,-0.0635924,0.2020466,45.79062,8.43098,-2.458276,1008.066
35.098537445,20.5186,-9.240398,-30.61711,-0.7248555,-0.08775838,0.1621818,45.79062,8.43098,-2.458276,1008.068
35.133179665,22.11579,4.312969,-27.73662,-0.7925004,-0.1186466,0.1413504,45.77431,9.938459,-3.804561,1008.065
35.165352345,30.40889,15.02546,-25.28514,-0.8363397,-0.1468861,0.1646626,45.39714,11.08723,-3.808209,1008.067
35.199999332,43.24785,24.96854,-21.1789,-0.8589729,-0.14553,0.2000709,45.39714,11.08723,-3.808209,1008.065
35.232172012,57.56113,34.43814,-15.72436,-0.8879607,-0.1262599,0.2255643,45.39766,11.84949,-3.811931,1008.065
35.266818523,68.25003,41.42197,-10.02466,-0.8875185,-0.07508297,0.253456,45.03127,11.86623,-2.917437,1008.067
35.298991203,64.25706,50.12217,-3.650815,-0.865674,-0.0492215,0.2852773,45.03127,11.86623,-2.917437,1008.066
35.333634377,58.97403,69.41649,7.56471,-0.919451,-0.04666325,0.3306262,45.04335,12.63987,-2.028596,1008.066
35.365807057,47.54798,85.57399,20.25112,-1.058715,0.0524323,0.3770866,44.68192,12.66148,-0.7515736,1008.064
35.400453568,0.8608639,105.105,43.66277,-1.143636,0.07166618,0.4247915,44.68192,12.66148,-0.7515736,1008.064
35.432625771,-20.57835,106.052,63.21332,-1.209366,0.004466986,0.4171388,45.47247,12.68485,1.922241,1008.064
35.467273235,1.84375,78.23505,78.9028,-1.03783,0.1047235,0.6886944,45.52813,10.83522,6.330597,1008.065
35.499444962,-488.7395,18.69493,39.7404,-1.015599,1.525993,0.9045718,45.52813,10.83522,6.330597,1008.067
35.534088135,-466.4403,-29.95515,43.78534,-1.005743,-0.7366561,-0.1389045,45.57147,7.830822,9.851973,1008.068
35.566260815,-164.6941,-19.4794,39.31139,-1.024965,-0.7948745,0.04106274,44.8414,3.296381,12.10957,1008.066
35.598433495,23.28296,-25.75302,30.24091,-0.9400201,-0.3989258,0.1437902,44.8414,3.296381,12.10957,1008.066
35.633080006,81.45757,-13.38335,21.17043,-0.8496578,-0.2142034,0.2384598,45.57026,-2.51762,10.3488,1008.066
35.665252685,41.58923,-5.097448,5.235803,-0.8335667,-0.02101695,0.3758262,45.18526,-4.423604,9.913761,1008.064
35.699899673,-65.48398,-10.48328,-20.62732,-0.8751993,0.08245897,0.4238217,45.18526,-4.423604,9.913761,1008.066
35.732068062,-160.4554,-17.34875,-42.50679,-0.8732774,-0.03988369,0.4213491,45.185,-4.804738,9.915621,1008.067
35.766714573,-215.067,-33.97974,-66.77645,-0.8253878,-0.4031467,0.4887615,45.5519,-4.059208,9.017405,1008.067
35.798887253,-113.4611,-41.14112,-77.99198,-0.8570372,-0.9356314,0.4644229,45.5519,-4.059208,9.017405,1008.067
35.833534718,-8.476558,-59.96196,-66.40873,-0.6912648,-0.3609563,0.6334216,45.52383,-4.086821,6.849756,1008.063
35.865706444,-77.40147,-60.25788,-82.6498,-0.4909855,-0.4159264,0.6836375,46.64135,-2.595447,5.497669,1008.065
35.900353432,-95.27773,-53.92509,-94.17175,-0.4128357,-0.7033404,0.598599,47.36518,0.02845335,2.866848,1008.067
35.932522297,-45.94911,-47.17799,-101.7101,-0.2882181,-0.8767639,0.4711686,47.36518,0.02845335,2.866848,1008.067
35.967169285,34.15615,-40.78601,-101.7713,-0.1966087,-0.7961015,0.4160308,46.21639,3.521228,1.516752,1008.067
35.999341011,51.60238,-37.05736,-104.4067,-0.1984489,-0.6432195,0.4134524,46.57353,6.923321,-0.2870522,1008.065
36.033988476,54.91962,-33.743,-102.2616,-0.1147651,-0.7033066,0.3543362,46.57353,6.923321,-0.2870522,1008.066
36.066161156,83.05476,-29.7776,-98.09412,-0.05743422,-0.6892403,0.2011234,45.40895,11.47973,-2.917509,1008.066
36.098332882,105.7226,-16.93445,-96.99096,-0.03495849,-0.6916322,0.03123011,44.2659,14.91467,-3.821015,1008.068
36.132976055,146.3895,8.81103,-86.26572,-0.03618342,-0.6511592,-0.1342326,44.2659,14.91467,-3.821015,1008.068
36.165148735,217.4645,29.64416,-50.4741,-0.02829707,-0.4480276,-0.2232475,42.71575,17.94542,-6.95213,1008.07
36.199795723,298.3069,16.26834,-13.45674,0.02148271,-0.08767787,-0.1648293,41.17721,19.84495,-9.121346,1008.066
36.231967926,367.8461,38.10761,40.84356,0.1486265,0.1232528,-0.2356127,41.17721,19.84495,-9.121346,1008.068
36.266614914,336.148,128.6607,74.61271,-0.5649191,0.3936021,-1.074081,41.5032,18.64582,-13.07047,1008.071
36.298787594,229.0749,233.9508,39.37267,-0.9783692,0.2082959,-1.578814,43.38904,12.90198,-13.05223,1008.071
36.333430767,432.6552,418.9632,57.51363,-1.102938,-0.3106585,-4.945805,43.38904,12.90198,-13.05223,1008.076
36.365602493,-1214.54,210.987,-208.2269,-2.562927,2.344151,2.906291,45.76018,6.115755,-4.678514,1008.076
36.400249958,710.9965,-50.78828,-197.8081,-4.373356,1.837541,1.880298,46.58568,-0.745816,1.089314,1008.085
36.432422161,-606.6859,-31.67152,-130.515,0.2376136,-2.13742,1.16971,46.58568,-0.745816,1.089314,1008.093
36.467068672,319.439,-29.18575,-27.49147,0.07463463,1.443813,1.587801,45.05496,5.414577,-0.7181549,1008.094
36.499241352,-66.03685,126.2933,47.70771,-0.5545236,-1.608253,-0.1454803,43.54732,11.53419,-0.7401905,1008.094
