Time (s),Gyroscope X (deg/s),Gyroscope Y (deg/s),Gyroscope Z (deg/s),Accelerometer X (g),Accelerometer Y (g),Accelerometer Z (g),Magnetometer X (uT),Magnetometer Y (uT),Magnetometer Z (uT),Barometer (hPa)
0.025568962,0.1309509,0.1182386,-0.0928518,0.003966903,0.004873471,-0.9996573,4.174992,-4.622492,36.35163,1008.101
0.060634136,-0.3612688,0.1182386,-0.0928518,0.001987328,0.00728421,-1.001069,4.911983,-4.983592,35.9058,1008.097
0.093194962,-0.2382139,0.4156432,0.02954699,0.004395063,0.009743308,-1.00055,4.911983,-4.983592,35.9058,1008.099
0.125755787,0.684698,0.1182386,0.09074639,0.01026937,0.007860484,-0.9972008,4.913614,-4.981009,36.35187,1008.099
0.160820961,0.8077529,0.05875763,0.09074639,0.007816977,0.008336622,-1.002025,4.554456,-5.344884,36.80174,1008.101
0.193381309,0.007895961,-0.1196852,-0.1540512,0.006317057,0.01219386,-0.9995478,4.554456,-5.344884,36.80174,1008.101
0.225937843,-0.2997413,-0.2386471,-0.03165241,0.005466755,0.002443195,-0.9953453,4.551194,-5.35005,35.9096,1008.102
0.258498668,-0.5458511,-0.1196852,-0.0928518,0.001468207,0.009239078,-1.004905,4.549562,-5.352633,35.46353,1008.098
0.293563843,0.1309509,-0.1791661,0.02954699,0.004849073,0.01076103,-1.009236,4.549562,-5.352633,35.46353,1008.098
0.326124668,0.1924783,-0.06020425,0.02954699,0.005874013,0.008302432,-1.00009,4.543881,-4.988822,35.46091,1008.1
0.358685016,0.5001156,0.05875763,0.02954699,0.003465073,0.005845532,-1.001092,4.917664,-5.347403,35.90841,1008.1
0.393750191,1.053863,-0.0007233131,0.1519458,0.005415257,0.005866536,-1.000127,4.917664,-5.347403,35.90841,1008.102
0.426306724,1.423028,0.5940861,0.09074639,0.0005623498,0.00387039,-1.00257,4.174992,-4.622492,36.35163,1008.099
0.458867550,0.6231706,0.4751242,0.09074639,0.005894603,0.005411151,-1.005451,4.919295,-5.34482,36.35448,1008.101
0.493932724,-0.3612688,0.3561623,0.02954699,0.0107833,0.005439486,-0.9977217,4.190404,-5.716507,35.9134,1008.103
0.526493549,-1.099598,0.1777195,-0.1540512,0.00541158,0.007300089,-0.9947878,4.190404,-5.716507,35.9134,1008.103
0.559053898,-0.791961,-0.0007233131,0.02954699,0.01076879,0.006892818,-0.9967327,4.911983,-4.983592,35.9058,1008.103
0.594119072,0.1924783,-0.2386471,0.02954699,0.01124446,0.007870986,-0.9967182,4.180673,-4.986302,36.35425,1008.105
0.626676083,0.4385881,-0.4765708,-0.03165241,0.00441806,0.006847631,-1.004945,4.180673,-4.986302,36.35425,1008.1
0.659236431,1.053863,-0.1791661,0.09074639,-0.0009061486,0.004816566,-1.001104,4.545512,-4.986239,35.90699,1008.102
0.691797256,0.8077529,0.05875763,-0.1540512,0.002986998,0.00487176,-1.002073,4.552824,-5.347466,36.35567,1008.102
0.726862431,0.6231706,0.2966814,0.02954699,0.004955298,0.003432838,-1.000647,4.552824,-5.347466,36.35567,1008.104
0.759422779,0.1924783,0.1777195,0.09074639,0.008827544,0.004477432,-1.005468,4.556875,-5.713861,35.91221,1008.101
0.791983604,-0.3612688,0.2372005,-0.03165241,0.006426581,0.002957188,-0.9987221,4.552824,-5.347466,36.35567,1008.103
0.827044964,-0.4843237,0.1777195,0.02954699,0.008395706,0.001041147,-0.9992366,4.552824,-5.347466,36.35567,1008.105
0.859605312,0.007895961,-0.06020425,-0.1540512,0.01125257,0.005953722,-1.002548,4.17336,-4.625075,35.90556,1008.105
0.892166138,0.2540058,-0.2386471,-0.0928518,0.009298331,0.00689135,-1.000598,3.819883,-5.35276,36.35805,1008.108
0.927230835,0.3770607,0.05875763,0.02954699,0.006824971,0.009783847,-1.002485,3.819883,-5.35276,36.35805,1008.104
0.959791660,0.2540058,-0.0007233131,-0.0928518,0.006939687,0.001013307,-0.9973021,4.177411,-4.991468,35.4621,1008.106
0.992352486,0.2540058,0.1777195,-0.1540512,0.002966854,0.006811,-1.001077,4.919295,-5.34482,36.35448,1008.107
1.027413845,-0.05363149,-0.0007233131,0.02954699,0.002530271,0.001956548,-1.003567,4.919295,-5.34482,36.35448,1008.105
1.059974194,-0.1766864,-0.0007233131,0.02954699,0.005360529,0.009771391,-1.003934,4.179042,-4.988886,35.90818,1008.105
1.092534542,-0.05363149,0.1182386,-0.03165241,0.00788824,0.002499118,-1.000664,4.913614,-4.981009,36.35187,1008.105
1.125095367,0.007895961,-0.1791661,0.02954699,0.006880525,0.005401874,-1.000619,4.913614,-4.981009,36.35187,1008.105
1.160160541,0.2540058,-0.0007233131,0.09074639,0.006894206,0.004425661,-0.9996669,4.551194,-5.35005,35.9096,1008.105
1.192721367,0.5001156,-0.1196852,-0.03165241,0.0039778,0.003426732,-1.002096,4.179042,-4.988886,35.90818,1008.103
1.225277901,0.5001156,-0.1196852,0.09074639,0.0107769,0.004975554,-1.002563,4.179042,-4.988886,35.90818,1008.103
1.260343075,-0.05363149,-0.0007233131,-0.03165241,0.004026891,7.786322E-06,-0.9982814,4.919295,-5.34482,36.35448,1008.103
1.292903423,-0.1766864,-0.1791661,0.02954699,0.007922066,-0.0004163361,-1.000708,4.915245,-4.978426,36.79794,1008.103
1.325464249,-0.2382139,-0.06020425,-0.0928518,0.006381925,0.005892422,-1.003028,4.915245,-4.978426,36.79794,1008.104
1.360529423,0.06942342,0.05875763,-0.03165241,0.005944072,0.002467126,-0.9992124,4.551194,-5.35005,35.9096,1008.102
1.393090248,0.06942342,0.1182386,0.02954699,0.005887315,0.006851297,-1.001562,4.179042,-4.988886,35.90818,1008.102
1.425646782,0.06942342,-0.06020425,-0.03165241,0.007363412,0.006366856,-0.9977043,4.179042,-4.988886,35.90818,1008.102
1.460711956,0.6231706,0.05875763,-0.03165241,0.005456371,0.001510935,-1.00406,4.541462,-4.619845,36.35045,1008.103
1.493272304,0.3770607,-0.1196852,0.09074639,0.005418867,0.005859943,-0.9986768,3.814202,-4.988949,36.35543,1008.105
1.525833130,0.3770607,-0.06020425,0.09074639,0.006412142,0.00298356,-1.004522,3.814202,-4.988949,36.35543,1008.103
1.558393478,0.2540058,-0.06020425,-0.03165241,0.009844884,0.001557095,-1.001647,4.560137,-5.708694,36.80435,1008.103
1.593459129,0.06942342,0.05875763,-0.03165241,0.003525886,0.0005027293,-1.001657,4.547143,-4.983656,36.35306,1008.103
1.626015663,0.1924783,0.1777195,-0.1540512,0.007430687,6.102538E-05,-1.000217,4.547143,-4.983656,36.35306,1008.104
1.658576012,0.5616431,-0.1196852,0.02954699,0.004952067,0.003914353,-0.9996728,4.182303,-4.98372,36.80032,1008.106
1.693641186,0.5616431,-0.1196852,0.1519458,0.007392115,0.001558311,-1.008895,4.186354,-5.350113,36.35686,1008.104
1.726202011,0.1309509,0.1777195,0.09074639,0.007914401,0.0005488885,-0.9992436,4.186354,-5.350113,36.35686,1008.104
1.758762360,-0.1766864,-0.0007233131,0.02954699,0.007874869,0.005377213,-0.9924027,4.547143,-4.983656,36.35306,1008.106
1.793828011,-0.4227962,-0.1196852,0.09074639,0.008879486,0.0001020511,-1.005052,4.547143,-4.983656,36.35306,1008.107
1.826384544,-0.1151589,-0.298128,0.02954699,0.006900669,0.003462633,-1.001615,4.547143,-4.983656,36.35306,1008.109
1.858944893,0.2540058,-0.1791661,0.02954699,0.004463162,0.002960358,-1.005004,4.192035,-5.713924,36.35947,1008.111
1.894010067,0.5001156,-0.0007233131,0.09074639,0.004523461,-3.445428E-06,-0.994415,4.547143,-4.983656,36.35306,1008.111
1.926570415,0.5001156,-0.06020425,-0.0928518,0.006464843,-0.0004419787,-0.9992573,4.547143,-4.983656,36.35306,1008.107
1.959131241,0.6231706,0.1182386,0.2131452,0.00593888,0.002000996,-1.00357,4.547143,-4.983656,36.35306,1008.107
1.991692066,0.2540058,0.05875763,-0.0928518,0.007862525,0.003497309,-1.006449,4.909564,-4.614615,36.79533,1008.105
2.026753426,-0.2382139,-0.06020425,-0.1540512,0.007473382,-0.003821854,-1.001243,4.909564,-4.614615,36.79533,1008.107
2.059313774,-0.4227962,-0.1791661,0.02954699,0.00741783,0.0005601202,-1.00311,4.551194,-5.35005,35.9096,1008.107
2.091874123,-0.6073786,0.2966814,0.09074639,0.002046937,0.001943605,-1.002117,4.539831,-4.622428,35.90438,1008.108
2.126939297,-1.345708,0.3561623,-0.03165241,0.003005114,0.003411834,-1.001612,4.539831,-4.622428,35.90438,1008.104
2.159500122,-0.1766864,-0.6550136,0.02954699,0.02096852,0.007549433,-1.00495,4.913614,-4.981009,36.35187,1008.106
2.192060470,2.222884,-1.904113,0.09074639,0.02010365,0.0006790634,-0.9929695,4.913614,-4.981009,36.35187,1008.108
2.227122307,4.745511,-1.547228,-0.03165241,0.007014046,-0.002451789,-0.983337,5.291447,-5.705984,36.3559,1008.108
2.259682655,3.945653,-0.9524183,0.1519458,-0.006080855,-0.01223153,-1.007643,5.291447,-5.705984,36.3559,1008.108
2.292243004,0.007895961,0.05875763,0.1519458,-0.01924018,-0.01666188,-1.032833,4.547143,-4.983656,36.35306,1008.105
2.327308178,-4.422081,1.664743,-0.1540512,-0.01688796,-0.002211088,-0.9978117,4.551194,-5.35005,35.9096,1008.105
2.359869003,-7.190816,2.794881,-0.03165241,-0.0005096792,0.0183053,-0.973829,4.551194,-5.35005,35.9096,1008.107
2.392429352,-6.452487,2.675919,0.09074639,0.01314098,0.01464857,-0.985499,4.919295,-5.34482,36.35448,1008.104
2.427491188,-1.468763,1.129414,0.09074639,0.02185266,0.01438464,-1.009197,5.285766,-5.342173,36.35329,1008.104
2.460051536,4.068708,0.05875763,-0.0928518,0.02815608,0.01404061,-1.022259,5.285766,-5.342173,36.35329,1008.108
2.492611885,7.268136,-0.8929374,-0.0928518,0.01763929,-0.0002497826,-1.009416,3.815833,-4.986366,36.80151,1008.109
2.525172710,8.191048,-0.9524183,-0.0928518,0.0070499,-0.00584656,-0.984839,4.186354,-5.350113,36.35686,1008.109
2.560237884,6.037587,-1.011899,0.02954699,-0.003027318,-0.01909286,-0.9864815,4.186354,-5.350113,36.35686,1008.107
2.592798233,3.391906,-0.5360518,0.02954699,-0.004697437,-0.00351007,-0.9978433,4.174992,-4.622492,36.35163,1008.107
2.625354767,0.5616431,0.5940861,-0.0928518,-0.006652812,-0.003997206,-1.003166,4.174992,-4.622492,36.35163,1008.111
2.660420418,-2.207093,0.8914908,0.09074639,0.009470006,-0.01054424,-1.013432,4.174992,-4.622492,36.35163,1008.111
2.692980766,-2.822367,0.5346051,0.02954699,0.0178055,-0.01244366,-0.9994514,4.528469,-3.894807,35.89915,1008.112
2.725541592,-2.02251,-0.0007233131,-0.03165241,0.01730918,-0.00910359,-0.9873155,4.547143,-4.983656,36.35306,1008.114
2.760606289,-0.6073786,-0.2386471,-0.03165241,0.01131693,0.002031285,-0.9948739,4.547143,-4.983656,36.35306,1008.114
2.793167114,0.1924783,-0.7739756,-0.1540512,0.004030568,-0.001425767,-1.00362,4.179042,-4.988886,35.90818,1008.114
2.825723648,0.684698,-0.5360518,-0.03165241,0.002559731,-0.001902155,-1.00991,5.267091,-4.253324,35.89939,1008.116
2.860788822,-0.6073786,-0.2386471,-0.03165241,0.001662297,-0.007286229,-1.004191,5.267091,-4.253324,35.89939,1008.113
2.893349647,-0.4843237,-0.1196852,0.09074639,-0.0003334347,-0.002467919,-1.000732,4.180673,-4.986302,36.35425,1008.115
2.925909996,0.3155332,0.4156432,-0.0928518,0.003119452,-0.005833625,-0.998853,5.278454,-4.980946,35.90461,1008.115
2.958470821,0.9923353,0.3561623,0.02954699,0.006470101,-0.001402809,-1.001689,5.278454,-4.980946,35.90461,1008.115
2.993535995,0.3770607,0.8914908,-0.03165241,0.001621562,-0.002455705,-0.9978333,4.547143,-4.983656,36.35306,1008.115
3.026092529,-0.6073786,0.2966814,0.02954699,0.01722443,-0.006570753,-1.009995,4.911983,-4.983592,35.9058,1008.113
3.058652878,0.5001156,-0.3576089,-0.0928518,0.01186303,-0.002350931,-0.9915576,4.911983,-4.983592,35.9058,1008.114
3.093718052,1.3615,-1.725671,-0.03165241,0.02831373,0.004716039,-1.0021,4.913614,-4.981009,36.35187,1008.114
3.126278400,1.053863,-1.130861,-0.2152506,-0.00360763,-0.01227011,-0.9921775,4.907933,-4.617198,36.34926,1008.116
3.158839702,0.007895961,-0.4170899,-0.2152506,-0.007591981,-0.008829439,-1.01194,4.907933,-4.617198,36.34926,1008.116
3.193904877,1.484555,-0.1791661,0.09074639,-0.01232825,-0.0262582,-1.040237,4.907933,-4.617198,36.34926,1008.112
3.226460934,-0.6073786,1.545781,0.3967434,-0.01064926,0.0008924017,-1.020972,5.272772,-4.617135,35.902,1008.114
3.259021759,-2.637785,2.259552,0.3967434,0.02213489,-0.0003992156,-0.9639853,5.272772,-4.617135,35.902,1008.114
3.294086933,-3.437642,0.7130479,-0.03165241,0.01974503,-0.007647079,-0.980045,4.90062,-4.25597,35.90057,1008.114
3.326647281,-3.560697,-1.190342,-0.3376494,0.01129953,-0.003168668,-1.026856,4.174992,-4.622492,36.35163,1008.112
3.359207630,-0.2997413,-1.011899,-0.3988488,0.01221057,0.002666149,-1.024834,4.174992,-4.622492,36.35163,1008.107
3.391767979,-0.3612688,-0.9524183,-0.3376494,0.008943705,-0.0009664646,-0.9837996,4.178253,-4.617326,37.24378,1008.109
3.426829815,0.3155332,-0.7739756,-0.0928518,-0.003820661,0.006192241,-0.9914121,4.913614,-4.981009,36.35187,1008.109
3.459390640,4.253291,-0.3576089,0.2743446,-0.006790011,0.00529001,-1.015108,4.913614,-4.981009,36.35187,1008.109
3.491950989,6.160642,0.2966814,0.2743446,-0.001758413,-0.005881739,-1.002233,4.551194,-5.35005,35.9096,1008.109
3.527016163,2.099829,0.8914908,0.1519458,0.007631239,-0.01742731,-1.001451,3.815833,-4.986366,36.80151,1008.109
3.559576511,-1.407236,0.2372005,-0.03165241,0.005151417,-0.01357178,-1.00139,3.815833,-4.986366,36.80151,1008.107
3.592136860,-3.929861,-0.06020425,-0.0928518,0.01193151,-0.008658959,-0.9935874,4.913614,-4.981009,36.35187,1008.107
3.627198219,-2.637785,-0.2386471,-0.1540512,0.005490955,-0.0004546782,-0.9992566,4.545512,-4.986239,35.90699,1008.107
3.659758568,-1.284181,-0.06020425,0.02954699,0.004948903,0.002968906,-1.005488,4.545512,-4.986239,35.90699,1008.109
3.692319870,-0.05363149,-0.1791661,-0.0928518,-0.007194552,0.00132826,-1.000184,4.535781,-4.256034,36.34784,1008.109
3.727385044,-1.099598,-0.4170899,0.02954699,-0.00915766,0.003233311,-0.9972526,4.180673,-4.986302,36.35425,1008.106
3.759945393,-1.837928,0.4156432,-0.0928518,0.005420584,0.003478746,-1.009347,4.180673,-4.986302,36.35425,1008.108
3.792505741,-0.4843237,0.9509717,-0.0928518,0.01724578,-0.008512193,-1.010509,4.919295,-5.34482,36.35448,1008.108
3.825062275,0.7462255,0.1777195,-0.03165241,0.03049012,-0.01232252,-0.9897942,4.179042,-4.988886,35.90818,1008.11
3.860127449,-1.284181,-1.07138,-0.1540512,0.01580248,-0.006185207,-0.9921033,4.179042,-4.988886,35.90818,1008.11
3.892687798,-4.66819,-0.8929374,-0.03165241,-0.001352804,0.0009317335,-1.003096,4.17336,-4.625075,35.90556,1008.111
3.925248623,-5.837212,-0.5360518,0.02954699,-0.006881108,0.01496864,-1.00626,4.541462,-4.619845,36.35045,1008.111
3.960314274,-7.621509,-0.06020425,0.02954699,-0.01076109,0.01631623,-0.9931845,4.539831,-4.622428,35.90438,1008.111
3.992874622,-8.482893,0.653567,-0.1540512,-0.00640506,0.01642172,-1.003821,4.539831,-4.622428,35.90438,1008.107
4.025461197,-6.514014,0.653567,-0.2152506,-0.0001319209,0.02041352,-1.0086,4.192035,-5.713924,36.35947,1008.109
4.060526848,-2.02251,0.7725289,-0.5212476,0.01257614,0.01668695,-1.007703,4.552824,-5.347466,36.35567,1008.109
4.093087673,-1.407236,0.8320099,-0.3376494,0.01453468,0.01811953,-0.996565,4.552824,-5.347466,36.35567,1008.109
4.125648022,-0.5458511,1.129414,0.09074639,0.008586702,0.02584425,-1.002242,4.562556,-6.077671,35.91482,1008.109
4.160713196,-1.714873,0.7130479,0.09074639,0.01156835,0.02101666,-1.000868,4.551194,-5.35005,35.9096,1008.107
4.193273544,-2.883894,-0.0007233131,0.02954699,0.01200298,0.02492347,-1.003709,4.551194,-5.35005,35.9096,1008.107
4.225830078,-4.791245,0.4751242,-0.03165241,0.00627474,0.01655165,-0.9960977,4.560137,-5.708694,36.80435,1008.108
4.258390426,-14.94328,1.129414,-0.1540512,0.0143653,0.02936796,-1.012345,4.924976,-5.708631,36.35709,1008.108
4.293455601,-11.62079,0.5346051,-0.0928518,-0.006720329,0.0426806,-1.007771,4.924976,-5.708631,36.35709,1008.108
4.326015949,-22.32657,3.092285,0.5803416,2.435525E-05,0.05003615,-1.002831,4.936339,-6.436252,36.36231,1008.106
4.358577251,-23.31101,3.092285,3.334314,0.01304771,0.05471484,-1.032259,4.562556,-6.077671,35.91482,1008.106
4.393642425,-35.12428,2.913843,2.293925,0.00867285,0.06272915,-0.9905616,4.562556,-6.077671,35.91482,1008.108
4.426198959,-49.2756,2.7354,-2.540828,0.02390793,0.09305431,-0.989147,4.205817,-6.810522,35.47516,1008.108
4.458759308,-66.31871,2.378514,-4.009614,0.021107,0.1279355,-0.9726607,3.863018,-8.329047,35.48723,1008.108
4.493824482,-74.87103,-0.7144946,-2.846825,0.02870264,0.1835096,-0.9877716,3.863018,-8.329047,35.48723,1008.109
4.526384830,-91.36038,-1.249823,-5.967994,-0.1437566,0.2516893,-1.084207,4.989205,-10.14274,35.05064,1008.108
4.558945656,-101.6355,-27.89728,-19.49306,0.01543852,0.3041902,-1.057941,4.285691,-12.33828,33.7942,1008.11
4.594010830,-57.15111,-38.48489,-18.39147,0.04317174,0.3259404,-1.164945,4.285691,-12.33828,33.7942,1008.112
4.626566887,-34.2629,-6.722069,-12.69993,-0.06236186,0.3300264,-1.084057,4.688436,-14.88784,32.85542,1008.114
4.659127712,-2.637785,-2.379961,-16.0047,-0.04671668,0.259835,-0.9947518,5.074369,-16.34561,31.97253,1008.114
4.691688538,9.421597,-1.368785,-11.10874,-0.01395075,0.2975214,-0.9589219,5.074369,-16.34561,31.97253,1008.111
4.726753712,7.268136,-6.305703,-7.497979,-0.01913323,0.3626573,-0.9758081,5.817042,-17.07052,31.5293,1008.113
4.759314537,4.683983,-4.87816,-8.477169,-0.02458501,0.3261952,-0.9889269,5.825376,-17.80294,30.7061,1008.113
4.791874886,9.175487,-2.082556,-13.37312,-0.01907895,0.2723029,-0.985404,5.825376,-17.80294,30.7061,1008.115
4.826935768,20.61959,-0.8929374,-14.35231,-0.03353446,0.2718333,-0.9240084,6.197528,-18.1641,30.70753,1008.115
4.859496593,12.99019,-7.971169,-14.29111,-0.09357338,0.2965242,-0.8617015,5.821093,-17.43691,31.08584,1008.116
4.892056942,10.0984,-13.56238,-21.32904,-0.02216633,0.1766603,-0.9104867,5.821093,-17.43691,31.08584,1008.114
4.927122116,22.95764,-9.636635,-26.0414,-0.08185317,0.1954209,-0.9318948,6.558317,-17.79764,30.70373,1008.116
4.959682465,15.82045,-20.10528,-27.69378,-0.1222527,0.2115095,-0.8455693,6.924788,-17.795,30.70254,1008.117
4.992242813,26.28012,-17.5476,-29.04017,-0.06819769,0.2521026,-0.8532196,6.924788,-17.795,30.70254,1008.117
5.027304173,12.31339,-21.11646,-29.52976,-0.1538255,0.2114289,-0.8117036,8.005525,-16.69821,30.24507,1008.117
5.059865475,8.37563,-23.85258,-29.65216,-0.1677666,0.2346406,-0.8258374,8.001474,-16.33181,30.68853,1008.113
5.092425823,2.715104,-26.82663,-31.30454,-0.1859982,0.2101215,-0.8300609,8.001474,-16.33181,30.68853,1008.115
5.124986172,13.60546,-28.19469,-30.75375,-0.2073751,0.2420393,-0.856139,9.095993,-16.33162,29.34675,1008.115
5.160051346,12.5595,-31.52562,-25.1846,-0.1988968,0.3025489,-0.8851934,10.17673,-15.23483,28.88928,1008.115
5.192611694,0.8692804,-33.42901,-21.51264,-0.2509571,0.3132061,-0.8134409,10.17673,-15.23483,28.88928,1008.115
5.225168228,-8.298311,-37.8306,-19.06466,-0.1937203,0.2873076,-0.8322595,10.891,-14.14069,28.43299,1008.113
5.260233402,-9.221223,-40.44776,-16.0659,-0.2334127,0.3148353,-0.8008651,11.98147,-13.77411,27.53467,1008.114
5.292793751,-22.08046,-33.96434,-2.785625,-0.1706841,0.5575118,-1.080482,11.98147,-13.77411,27.53467,1008.116
5.325354576,-22.81879,-4.402313,-0.5824471,-0.2068871,0.5639538,-1.31672,13.0703,-13.4101,26.19028,1008.116
5.360419750,-34.13984,-1.547228,2.599922,-0.3174677,0.3252311,-0.8692649,14.5305,-13.0357,26.18291,1008.112
5.392980099,-29.15612,-23.67414,5.598692,-0.4896877,0.308537,-0.4734677,14.5305,-13.0357,26.18291,1008.113
5.425536632,-64.2883,-37.65216,-7.620378,-0.5214584,0.1197461,-0.6227805,14.1624,-13.04093,25.73803,1008.115
5.460602283,-56.53584,-38.18748,-7.681577,-0.2854305,0.313358,-1.369289,14.90913,-14.13224,24.85134,1008.117
5.493162632,-14.57411,-26.88611,-2.540828,-0.2617852,0.4456398,-1.426749,14.90913,-14.13224,24.85134,1008.117
5.525723457,-11.31316,-35.98669,3.946308,-0.4869051,0.3937971,-0.7230422,15.64285,-14.49851,23.51336,1008.113
5.558283806,-54.81307,-26.46974,-0.3988488,-0.4060074,0.1776554,-0.7346352,17.11847,-15.21812,23.06775,1008.115
5.593348980,-46.38381,-26.23182,2.538722,-0.3465954,0.3816502,-0.9611843,17.11847,-15.21812,23.06775,1008.116
5.625905514,-27.18724,-30.0386,5.476293,-0.4020624,0.3342903,-0.9657204,16.7601,-15.95356,22.18202,1008.112
5.658465862,-23.92628,-27.18351,7.434674,-0.4025557,0.3490951,-0.6977032,17.86784,-16.67804,21.35526,1008.112
5.693531036,-27.5564,-21.47334,9.515453,-0.4568613,0.4020686,-0.7456637,18.59589,-16.68049,20.01466,1008.112
5.726091385,-30.75583,-19.56995,10.18865,-0.399022,0.4467206,-0.7798415,18.59589,-16.68049,20.01466,1008.114
5.758651733,-18.94256,-15.64421,2.599922,-0.3490076,0.2985116,-0.7492812,18.25457,-18.50736,19.13676,1008.114
5.793716907,-31.67875,-19.68891,5.170296,-0.5161322,0.5444579,-0.8053064,18.24725,-18.14613,18.68808,1008.111
5.826273441,-45.64548,-20.81905,5.353894,-0.5230374,0.5397736,-0.8633764,18.24725,-18.14613,18.68808,1008.113
5.858834743,-60.59665,-28.90846,5.537492,-0.5253434,0.3528685,-0.703811,18.98666,-18.87621,17.35271,1008.113
5.893899918,-35.49345,-43.00544,12.57542,-0.5139076,0.5577704,-0.6281896,18.61935,-19.253,15.57222,1008.115
5.926460266,-43.86118,-39.31762,13.12622,-0.4627047,0.594869,-0.623806,18.61935,-19.253,15.57222,1008.117
5.959020615,-55.5514,-39.19866,18.69536,-0.5135622,0.662559,-0.5855041,19.37418,-21.07709,13.79861,1008.114
5.991581440,-73.33284,-39.19866,24.8153,-0.498795,0.6097219,-0.5737566,19.36523,-20.71844,12.90386,1008.114
6.026642323,-72.71756,-40.98309,29.83365,-0.5170296,0.6327139,-0.5521198,19.36523,-20.71844,12.90386,1008.114
6.059202671,-69.39508,-41.87531,31.79203,-0.538307,0.6730111,-0.4973463,19.00625,-21.82765,10.30017,1008.116
6.091763496,-48.90643,-48.00184,32.15923,-0.5774779,0.713799,-0.3884098,18.64541,-22.93981,7.186691,1008.118
6.126828671,-34.63206,-41.99427,26.52888,-0.623439,0.8304356,-0.3053786,18.64541,-22.93981,7.186691,1008.113
6.159389019,-33.64762,-31.22821,19.24616,-0.6354663,0.7720405,-0.3236595,18.28541,-23.67783,5.854887,1008.113
6.191949367,-29.70987,-28.49209,14.901,-0.6059569,0.7918072,-0.3108186,18.29188,-24.4132,4.521893,1008.113
6.227010727,-33.27846,-23.49569,12.26943,-0.6228489,0.7770406,-0.3182783,18.29188,-24.4132,4.521893,1008.113
6.259571075,-39.67731,-17.90449,8.107867,-0.599129,0.6892552,-0.3969807,17.1892,-24.42631,3.633315,1008.111
6.292131424,-29.40223,-8.03065,7.128677,-0.6801814,0.6786146,-0.5328937,16.46678,-25.53337,1.859239,1008.111
6.327197552,-4.299026,7.79128,4.864299,-0.6131433,0.7894834,-0.6728963,16.46678,-25.53337,1.859239,1008.111
6.359757900,11.51353,45.20479,-9.945954,-0.3839599,0.6901585,-0.8307636,16.45784,-25.17472,0.9644833,1008.111
6.392318249,2.222884,88.80431,-14.59711,-0.5184019,0.6286172,-0.9350154,15.35843,-25.18266,0.968049,1008.112
6.427379608,3.576488,109.5037,-23.22622,-0.5825102,0.455522,-0.8892566,15.35843,-25.18266,0.968049,1008.112
6.459939957,-5.283465,118.3069,-19.92146,-0.6247153,0.4489716,-0.8525792,15.0009,-25.54395,1.863994,1008.112
6.492500305,19.57363,92.61109,-3.214021,-0.5707389,0.7500662,-0.6474363,14.99359,-25.18272,1.415311,1008.112
6.525086880,-15.92771,116.5224,-26.1638,-0.7103059,0.3736213,-0.5616866,14.99359,-25.18272,1.415311,1008.112
6.560152054,-23.24948,120.0913,-49.35837,-0.498105,0.239775,-0.6586752,14.24928,-24.4604,1.412466,1008.114
6.592712402,15.88198,118.4258,-64.53582,-0.6513861,0.2033923,-0.5793252,12.4234,-25.209,0.08541584,1008.109
6.625268936,13.29783,95.76359,-81.30445,-0.685394,0.3595905,-0.3985433,12.4234,-25.209,0.08541584,1008.109
6.660334110,6.714389,69.94886,-95.01311,-0.5475799,0.2611834,-0.2740163,12.41143,-24.85515,-1.637758,1008.109
6.692894459,3.638016,55.55447,-105.7842,-0.51162,0.3273675,-0.1903838,13.49295,-24.12992,-3.430835,1008.109
6.725454807,-17.71201,26.58726,-115.2701,-0.4704883,0.3573917,-0.1556457,13.49295,-24.12992,-3.430835,1008.109
6.760519981,-44.3534,2.973324,-115.0865,-0.3873323,0.5054787,-0.09884512,16.05982,-24.85451,-6.110366,1008.108
6.793080807,-36.78552,-5.056603,-104.2542,-0.4225372,0.6915041,-0.06697047,18.63074,-25.9455,-9.233356,1008.104
6.825637817,-66.38023,-20.10528,-97.64469,-0.5173553,0.5935793,-0.07320669,18.63074,-25.9455,-9.233356,1008.105
6.860702991,-96.65174,-31.22821,-100.4599,-0.661824,0.4840352,-0.1245263,20.83498,-27.10161,-12.67335,1008.105
6.893263340,-79.73169,-22.8414,-99.97027,-0.6888623,0.4433072,-0.2227637,23.8245,-27.83087,-16.69248,1008.105
6.925823688,-48.10658,-26.88611,-95.19672,-0.8913198,0.5829795,-0.09669293,23.8245,-27.83087,-16.69248,1008.105
6.958384514,-48.04505,-42.58908,-94.46233,-0.9958051,0.5836131,-0.001840551,27.13405,-29.28037,-19.81524,1008.103
6.993449688,-53.82863,-48.89405,-99.05228,-0.95432,0.6062778,-0.05712314,30.07718,-29.98682,-19.81953,1008.103
7.026005745,-45.64548,-54.3663,-102.5406,-1.004496,0.6550697,-0.02926123,30.07718,-29.98682,-19.81953,1008.105
7.058566570,-33.40151,-50.67848,-97.95069,-1.046894,0.6299034,0.03903526,31.53901,-29.60984,-19.38082,1008.105
7.093631744,-17.95812,-49.78627,-88.40358,-1.032427,0.595212,0.01432319,31.86071,-26.63348,-18.95726,1008.108
7.126192093,-17.34285,-58.94633,-84.85402,-1.066574,0.533636,0.09704091,31.86071,-26.63348,-18.95726,1008.11
7.158752441,-25.77211,-28.43261,-82.58964,-1.02812,0.5264987,-0.1452769,31.80064,-23.00054,-19.87552,1008.111
7.193817615,-9.77497,-13.5029,-78.48928,-1.134703,0.4509185,-0.07623745,32.45157,-18.27863,-22.1422,1008.114
7.226374149,-13.6512,-3.153213,-83.20164,-1.195373,0.2910747,-0.1549911,32.45157,-18.27863,-22.1422,1008.114
7.258934498,0.007895961,2.378514,-84.30322,-1.285728,0.2476435,-0.2677099,32.36574,-13.19524,-23.89932,1008.116
7.293999672,36.55521,-1.963594,-82.28365,-1.350622,0.143996,-0.2126734,33.78128,-10.28191,-25.26318,1008.119
7.326560020,53.16762,-13.97874,-72.43054,-1.242854,0.120387,-0.2692094,33.78128,-10.28191,-25.26318,1008.124
7.359120846,75.37903,-26.05338,-65.94341,-1.102141,0.0035115,-0.242609,34.81399,-6.216587,-26.18805,1008.126
7.391681194,69.7185,-33.36953,-54.31552,-1.052127,0.1165575,-0.1635924,36.24494,-4.397278,-27.99014,1008.126
7.426742554,52.73693,-36.10565,-37.66928,-0.9513124,0.002377449,-0.3085112,35.50142,-4.04651,-29.32859,1008.124
7.459302902,31.94064,-35.09448,-24.57261,-0.9180068,0.0456813,-0.2242585,35.50142,-4.04651,-29.32859,1008.124
7.491864204,1.299973,-29.02742,-13.06712,-0.9170467,-0.03312169,-0.2066099,34.7506,-3.334514,-31.11572,1008.127
7.526928902,-21.09602,-7.971169,-7.803976,-0.9142413,-0.163498,-0.2777246,34.36461,-2.622454,-33.35012,1008.131
7.559489727,12.74408,7.255951,-12.02673,-0.8664836,-0.2384548,-0.2238093,34.36461,-2.622454,-33.35012,1008.131
7.592050075,16.3742,16.23757,-11.65954,-0.9642559,-0.110189,0.03781529,34.35753,-2.260858,-33.73508,1008.128
7.627110958,-40.96939,-28.90846,-21.26784,-0.9607528,-0.03718395,0.02539115,35.08479,-1.891753,-33.74007,1008.132
7.659671783,-28.11015,-1.606709,-17.47348,-0.9738831,-0.04457659,-0.2018961,35.08479,-1.891753,-33.74007,1008.134
7.692232132,-11.37468,-5.532451,-13.98512,-0.8959852,-0.1926566,-0.1201229,35.79905,-0.7976103,-34.19635,1008.135
7.727297306,-4.975828,-0.2386471,-10.31315,-1.061072,-0.05559794,-0.05986727,36.13688,1.023721,-34.27431,1008.135
7.792418480,-16.7891,-0.6550136,1.192336,-1.008502,-0.09049097,-0.03821503,36.48958,2.122965,-33.3912,1008.142
7.824974537,-37.70844,-8.328054,4.7419,-0.8971723,-0.1608894,-0.05583132,36.84632,2.855818,-32.95153,1008.14
7.860039711,-17.03521,-11.65899,1.987928,-0.9585255,-0.1654976,-0.07324398,36.84632,2.855818,-32.95153,1008.143
7.892600536,-11.55927,-18.08293,-0.5212476,-0.9535733,-0.2021518,-0.01483598,37.55817,4.318936,-32.51829,1008.143
7.925160885,-7.313871,-21.11646,-5.478399,-0.9580839,-0.2266514,0.01573071,38.27406,5.415662,-32.5285,1008.145
7.960226059,-96.71327,-24.74479,-5.4172,-0.8514262,-0.1580877,-0.8558214,38.27406,5.415662,-32.5285,1008.147
7.992786407,-44.10729,-22.42504,-5.4172,-1.275815,-0.2822443,-0.5295764,38.99401,6.145996,-32.98217,1008.15
8.025342941,-23.61865,-2.439442,-8.966764,-1.065355,-0.2392559,-0.2966195,38.19857,10.14262,-33.00851,1008.148
8.060408115,-1.099598,-4.937641,-11.29234,-0.9137414,-0.2014531,-0.05401729,38.19857,10.14262,-33.00851,1008.15
8.092968464,-6.944706,-1.428266,-4.31561,-0.8816081,-0.216189,0.07140486,37.81343,11.22882,-33.46123,1008.15
8.125528812,-1.222653,1.664743,-4.560408,-0.857192,-0.1884675,0.03071718,38.1749,11.6585,-33.01939,1008.151
8.160593986,3.822598,11.12221,1.253535,-1.283486,-0.1109799,-0.06146429,38.1749,11.6585,-33.01939,1008.153
8.193154812,5.668422,-26.11286,-8.293571,-1.321767,-0.03060553,0.002154497,37.80033,12.38864,-32.13128,1008.153
8.225710869,-11.00552,-1.66619,-5.478399,-0.7148924,-0.2908658,-0.02173696,38.54137,11.66114,-33.02058,1008.149
8.258271694,-5.837212,-5.354008,-4.988804,-1.151681,-0.2253314,-0.08073767,38.54137,11.66114,-33.02058,1008.149
8.293336868,6.714389,-9.93404,-2.846825,-0.9466562,-0.2050992,0.0116981,38.17248,12.02747,-32.12986,1008.15
8.325897217,1.176918,-7.495321,-2.234831,-0.9692083,-0.1989295,-0.02008888,37.4306,12.38083,-33.02224,1008.152
8.358458519,-4.9143,-6.305703,-0.6436464,-0.9749808,-0.1962814,0.02201088,37.4306,12.38083,-33.02224,1008.154
8.393523216,-0.5458511,-4.87816,-0.7660452,-0.9387757,-0.2275145,-0.0592245,37.0747,12.02212,-31.68022,1008.154
8.426079750,2.653577,-4.283351,-1.378039,-0.9656129,-0.1973238,0.06403972,37.43628,12.01701,-33.01963,1008.154
8.458640575,3.391906,-2.32048,-2.234831,-0.9862078,-0.194475,0.02011577,37.43628,12.01701,-33.01963,1008.156
8.493705749,0.8692804,-1.011899,-1.439238,-0.9951642,-0.2212943,0.01391472,37.43223,12.38341,-32.57616,1008.155
8.526266098,-2.330148,-2.736847,-1.439238,-0.9762669,-0.2189734,-0.01458734,37.06413,12.37818,-33.02105,1008.157
8.558826446,-4.114443,-3.510099,0.335544,-0.9621446,-0.2206933,-0.023328,37.06413,12.37818,-33.02105,1008.158
8.593891621,-1.837928,-3.807503,0.7639397,-0.9530209,-0.2060701,-0.006678889,36.3255,12.73669,-33.02128,1008.158
8.626448154,-1.714873,-3.272175,-0.5824471,-0.9365222,-0.1948102,0.02247958,37.06739,12.38334,-32.1289,1008.156
8.659008503,-2.26862,-1.011899,-0.3988488,-0.9510963,-0.1988681,0.01808135,37.06739,12.38334,-32.1289,1008.158
8.691568851,-0.05363149,0.3561623,-0.27645,-0.9615638,-0.2222853,0.007583276,36.33142,12.37325,-32.95495,1008.159
8.726634026,2.776632,2.675919,-0.1540512,-0.94761,-0.2056242,0.01749153,37.06576,12.38076,-32.57497,1008.161
8.759194851,2.222884,5.174119,0.4579428,-0.943871,-0.1933971,0.01139057,37.06576,12.38076,-32.57497,1008.161
8.791755199,1.915247,7.493875,2.171526,-0.9629687,-0.2233575,0.02545322,36.68793,13.10574,-32.57901,1008.159
8.826816082,0.8077529,10.82481,3.150716,-0.955232,-0.2293398,-0.02588346,37.07144,12.01695,-32.57236,1008.159
8.859376907,-2.26862,10.88429,5.476293,-0.9667306,-0.193269,0.02446576,37.07144,12.01695,-32.57236,1008.16
8.891937256,-2.699312,14.51263,8.352665,-0.9791402,-0.2143436,0.02753985,36.69361,12.74192,-32.5764,1008.16
8.927002430,-6.514014,9.992075,7.006278,-0.9722046,-0.1988313,-0.05005385,38.16843,12.39387,-31.6864,1008.16
8.959562778,-3.314587,7.7318,7.679471,-0.951984,-0.187679,-0.09292376,38.16843,12.39387,-31.6864,1008.16
8.992123127,-21.89588,8.088684,9.454254,-0.9373409,-0.2222164,-0.04464375,38.16275,12.75768,-31.68901,1008.158
9.027184486,-6.267904,11.18169,10.61704,-0.9662098,-0.1676967,-0.03943373,39.27515,12.04058,-31.24128,1008.158
9.059744835,-3.683751,11.00325,6.027088,-0.9879506,-0.1070531,-0.07764106,39.27515,12.04058,-31.24128,1008.16
9.092305660,-10.02108,10.23,3.885109,-0.9760417,-0.2146842,-0.1015299,39.26542,12.77078,-30.80043,1008.16
9.127370358,4.191763,4.995676,2.293925,-0.9723917,-0.1509839,-0.09814475,39.27274,12.40956,-30.35175,1008.16
9.159931183,-1.837928,1.367338,0.5803416,-0.9680704,-0.1897597,-0.1088914,39.27274,12.40956,-30.35175,1008.158
9.192491531,-1.099598,-1.725671,1.559532,-0.9848136,-0.1677556,-0.07953694,39.63352,12.77601,-30.35555,1008.156
9.225048065,-1.714873,-3.748023,-0.5824471,-0.963836,-0.1761146,-0.1048203,39.63189,12.77343,-30.80162,1008.157
9.260113239,0.684698,-4.22387,-2.724426,-0.9967881,-0.1796926,-0.05408853,40.36646,12.78131,-30.35793,1008.159
9.292673588,-1.222653,-0.8334565,-1.622837,-0.9653928,-0.2025374,-0.0704188,40.36646,12.78131,-30.35793,1008.159
9.325233936,-2.945422,-1.547228,-1.31684,-0.9865595,-0.1805157,-0.0574946,40.00568,12.41485,-30.35413,1008.156
9.360299110,-0.5458511,-4.104908,-3.030423,-0.9678845,-0.157813,-0.07988498,39.99431,13.14247,-30.35935,1008.156
9.392859936,-2.822367,-4.104908,-3.214021,-0.9800442,-0.1978929,-0.06501665,39.99431,13.14247,-30.35935,1008.156
9.425415993,1.546082,-2.855808,-3.030423,-0.9632955,-0.1662185,-0.03554697,39.63758,12.40962,-30.79901,1008.154
9.460481167,0.684698,-2.260999,-2.479628,-0.9699177,-0.1861637,-0.05034617,39.26542,12.77078,-30.80043,1008.154
9.493041992,-1.038071,-1.844633,-1.25564,-0.9599854,-0.2049388,-0.06127649,39.26542,12.77078,-30.80043,1008.154
9.525602341,2.776632,-0.8929374,-1.133242,-0.9660057,-0.1851916,-0.03921745,38.89327,13.13195,-30.80185,1008.156
9.560667515,0.8077529,-0.1791661,-1.439238,-0.9630875,-0.1880009,-0.05424781,38.88028,13.85699,-31.25315,1008.157
9.593227863,0.9923353,0.8914908,-0.9496434,-0.9679551,-0.1856898,-0.04212343,38.88028,13.85699,-31.25315,1008.153
9.625784397,2.776632,2.021629,-0.7660452,-0.9802293,-0.1775793,-0.04392136,38.89164,13.12937,-31.24792,1008.153
9.658344746,0.1924783,2.616438,-0.8884439,-0.9654722,-0.1947826,-0.06595002,38.89732,12.76555,-31.24532,1008.155
9.693409920,-0.1766864,1.902667,0.02954699,-0.9738179,-0.1876327,-0.0590656,38.89732,12.76555,-31.24532,1008.157
9.725970268,-0.4227962,0.8914908,0.6415409,-0.9717904,-0.1948871,-0.06111174,39.26216,12.76562,-31.69258,1008.159
9.758531094,-0.9150159,0.2372005,0.3967434,-0.9724284,-0.1817761,-0.06042772,38.52922,12.76032,-31.6902,1008.156
9.793596268,-1.161126,-0.2386471,0.1519458,-0.9768053,-0.1808922,-0.05364274,38.52922,12.76032,-31.6902,1008.156
9.826152325,-1.714873,-0.298128,0.02954699,-0.9776749,-0.1891808,-0.05038472,39.62621,13.13724,-30.80423,1008.158
9.858713150,-1.099598,-0.1791661,0.02954699,-0.9747326,-0.1934609,-0.06253728,38.89732,12.76555,-31.24532,1008.158
9.893778324,-0.7304335,-0.06020425,-0.0928518,-0.9708665,-0.1895514,-0.05619747,38.89732,12.76555,-31.24532,1008.158
9.926338673,-0.2382139,-0.1196852,-0.03165241,-0.9709108,-0.1861412,-0.0580789,38.89895,12.76814,-30.79924,1008.154
9.958899021,-0.4227962,0.1777195,-0.3376494,-0.9684663,-0.187554,-0.06100308,39.62621,13.13724,-30.80423,1008.154
9.991459370,-0.9765432,0.4156432,-0.2152506,-0.9713636,-0.1885882,-0.05569891,39.62621,13.13724,-30.80423,1008.154
10.026520729,0.2540058,0.4156432,-0.0928518,-0.9723052,-0.191989,-0.05865015,39.25974,13.13459,-30.80304,1008.155
10.059081078,-0.4843237,0.05875763,0.335544,-0.973314,-0.1890841,-0.05908823,38.89164,13.12937,-31.24792,1008.155
10.091641903,-1.222653,0.8320099,0.2131452,-0.9684644,-0.1866064,-0.05567148,38.89164,13.12937,-31.24792,1008.157
10.126706600,-0.4227962,0.4156432,0.7639397,-0.9766276,-0.1983388,-0.06406,39.25974,13.13459,-30.80304,1008.157
10.159267425,-1.038071,-0.298128,0.3967434,-0.9752239,-0.1944105,-0.06883518,38.89327,13.13195,-30.80185,1008.154
10.191827774,0.1309509,-1.368785,0.5191422,-0.9723316,-0.1919407,-0.06928367,38.89327,13.13195,-30.80185,1008.154
10.226889133,2.345939,-3.391137,0.2743446,-0.983731,-0.1765025,-0.07677117,38.89327,13.13195,-30.80185,1008.156
10.259449482,0.5001156,-4.580755,-0.8884439,-0.9695318,-0.178363,-0.05457793,39.26705,12.77337,-30.35436,1008.158
10.292009830,0.6231706,-4.997122,-0.9496434,-0.9732295,-0.1949457,-0.05241047,39.26705,12.77337,-30.35436,1008.158
10.327075004,2.161357,-8.090131,-1.439238,-0.9901715,-0.1621154,-0.05286,38.89164,13.12937,-31.24792,1008.16
10.359635353,-9.159696,-9.696116,-2.724426,-0.9929331,-0.1881289,-0.1112594,38.15707,13.12149,-31.69162,1008.161
10.392196178,6.591334,-13.08653,-4.254411,-0.9835958,-0.1777006,-0.02700177,38.15707,13.12149,-31.69162,1008.159
10.427257061,15.0206,-9.815078,-4.132012,-0.9422801,-0.204079,0.01364295,38.53085,12.76291,-31.24413,1008.161
10.459817409,18.15849,-5.532451,-4.132012,-0.9672808,-0.1865012,0.03085344,37.41682,13.47742,-32.13792,1008.162
10.492378235,6.714389,-1.368785,-3.887214,-0.9253952,-0.1859705,0.03420475,37.41682,13.47742,-32.13792,1008.162
10.525001049,8.806322,-2.32048,-7.987574,-1.005843,-0.1160762,-0.06857729,38.16541,12.38907,-32.51482,1008.158
10.560066223,7.698828,-2.677366,-12.14913,-0.9396851,-0.2537482,0.04188528,37.80033,12.38864,-32.13128,1008.16
10.592626572,-4.237498,2.556957,-10.12955,-0.960669,-0.2187987,-0.00831583,37.80033,12.38864,-32.13128,1008.162
10.625183105,17.051,5.174119,-8.783166,-0.9539433,-0.2095061,-0.001896652,37.42515,12.745,-32.96112,1008.164
10.660248279,15.45129,11.24117,-4.37681,-0.922854,-0.1899381,0.05879398,37.41379,13.47263,-32.96635,1008.164
10.692809105,27.07998,9.218822,-7.008384,-1.063252,-0.2874958,-0.2635211,37.41379,13.47263,-32.96635,1008.164
10.725369453,14.77449,6.899066,-4.070813,-0.9471939,-0.2534699,-0.04027729,37.4225,13.11361,-32.13531,1008.159
10.760434627,-0.791961,8.505051,1.926728,-0.9258184,-0.2374038,0.01456877,38.15972,12.75288,-32.51743,1008.161
10.792994976,6.714389,5.352561,3.089517,-1.024242,-0.2889351,-0.05041153,38.15972,12.75288,-32.51743,1008.161
10.825551510,3.576488,-3.272175,-4.254411,-0.9713314,-0.2176594,-0.1813371,37.79628,12.75503,-31.68782,1008.161
10.860616684,29.6026,-12.13483,-4.193212,-0.9350438,-0.1397632,-0.1071938,38.15544,13.11891,-32.13769,1008.161
10.893177032,-8.667476,-13.97874,-0.7660452,-0.9798042,-0.325629,0.02294242,38.15544,13.11891,-32.13769,1008.159
10.925737381,0.5001156,-11.77795,-0.7048458,-0.9704645,-0.2549135,-0.003540211,37.7973,12.38384,-32.9597,1008.159
10.958298206,21.17334,-8.863383,-6.579988,-0.9476697,-0.1613386,0.004632676,37.0783,11.59287,-32.50559,1008.159
10.993363380,7.391191,-2.736847,-9.272761,-0.9842923,-0.2556339,0.1144061,37.07409,11.64834,-33.39817,1008.159
11.025919437,13.54394,-3.153213,-7.803976,-1.009846,-0.250307,0.04587252,37.07409,11.64834,-33.39817,1008.159
11.058480263,10.59062,-6.484146,-9.945954,-0.9622056,-0.2215332,-0.05234336,36.70599,11.64311,-33.84306,1008.154
11.093545437,14.46685,-7.971169,-12.76113,-1.02299,-0.2528641,0.03617865,36.34755,11.21824,-33.45647,1008.156
11.126105785,15.82045,-5.591931,-14.90311,-0.9925982,-0.3075324,-0.1445009,36.34755,11.21824,-33.45647,1008.158
11.158666134,25.29568,2.021629,-17.22868,-1.100411,-0.4496086,-0.09822673,35.60752,11.57454,-33.83905,1008.158
11.193731308,46.09196,-3.629061,-11.47594,-1.218514,-0.2429894,0.1887817,35.25647,10.47788,-34.2761,1008.159
11.226287365,28.18747,-13.5029,-3.091622,-0.9904168,-7.011986E-05,0.2207869,35.25647,10.47788,-34.2761,1008.155
11.258848190,-13.89731,-11.42106,0.8251392,-0.7716268,-0.1400141,0.2005557,34.52758,10.10619,-34.71719,1008.157
11.293912887,-21.95741,-9.160788,5.537492,-0.7268223,-0.3237558,0.1218191,34.1692,9.370754,-35.60292,1008.159
11.326473236,-14.02036,-8.090131,7.373474,-0.8063284,-0.3706245,0.04770749,34.1692,9.370754,-35.60292,1008.159
11.359033584,-1.7764,-3.391137,4.8031,-0.9233503,-0.290646,-0.02636617,33.44031,8.999067,-36.04401,1008.161
11.391594410,5.606895,-0.06020425,1.192336,-0.9954809,-0.2843367,-0.01749951,33.42895,9.726688,-36.04922,1008.161
11.426655292,8.683268,-1.606709,-0.03165241,-0.9939492,-0.2830204,0.0178056,33.42895,9.726688,-36.04922,1008.162
11.459215641,11.94422,-3.272175,0.3967434,-0.9525408,-0.2763309,0.05460433,33.06979,9.362814,-35.59936,1008.158
11.491776466,10.7752,-5.056603,1.375934,-0.9108596,-0.2511704,0.0916846,33.43868,8.996483,-36.49007,1008.158
11.526841640,3.207324,-5.829855,1.987928,-0.9552496,-0.2378129,0.126251,33.43868,8.996483,-36.49007,1008.158
11.559401989,0.3770607,-5.889336,4.129906,-0.9728875,-0.2763138,0.0990949,33.4411,8.627508,-37.37961,1008.16
11.591962337,4.868566,-4.104908,5.476293,-0.9354074,-0.2777004,0.08405289,32.71142,8.62738,-36.48508,1008.16
11.627023697,3.022741,-2.023075,5.353894,-0.9295732,-0.2799856,0.06902771,32.71142,8.62738,-36.48508,1008.16
11.692144394,-9.405806,0.5346051,9.576653,-1.089907,-0.3122227,0.07207428,32.71384,8.258404,-37.37462,1008.16
11.727209568,1.915247,-3.807503,9.637853,-1.056109,-0.3297457,0.06790731,32.71384,8.258404,-37.37462,1008.157
11.759769916,24.49582,-1.487747,17.89977,-1.05086,-0.3237724,0.05204194,32.71547,8.260986,-36.92855,1008.157
11.792330742,49.22986,-3.629061,30.07845,-1.052322,-0.1964906,0.05978573,32.35142,7.889363,-37.81689,1008.161
11.824887276,68.18031,-13.62186,47.21428,-1.158079,0.01419614,0.2366344,32.35142,7.889363,-37.81689,1008.161
11.859951973,43.9385,-13.14601,55.2314,-1.189027,0.07749172,0.2298959,32.75603,5.342751,-38.24588,1008.161
11.892512798,34.27869,-0.2386471,58.53617,-1.05178,0.01763784,0.1060726,31.71343,1.696703,-38.2162,1008.159
11.925073147,49.47597,10.5274,66.79809,-1.009973,0.04821972,0.02094108,31.71343,1.696703,-38.2162,1008.159
11.960138321,54.76733,25.39764,72.55083,-1.001349,0.001561487,-0.06050301,30.29379,-1.595929,-39.52616,1008.159
11.992698669,73.84084,36.93694,72.12244,-1.059527,0.1661002,0.03438838,29.9947,-5.592745,-38.15803,1008.16
12.025255203,61.84299,55.49499,66.0637,-1.108246,0.131797,0.06339805,29.9947,-5.592745,-38.15803,1008.16
12.060320377,50.33736,50.55807,60.24975,-1.200674,0.2083692,0.2725075,29.34472,-10.3753,-35.89091,1008.16
12.092880726,44.18461,67.21274,57.86298,-1.196168,0.1548763,-0.132416,30.53751,-15.8116,-33.62495,1008.16
12.125441551,63.62729,70.00834,60.24975,-1.196339,0.2544807,-0.1265458,30.53751,-15.8116,-33.62495,1008.156
12.160506248,56.18246,79.76321,65.8801,-1.203518,0.4526857,-0.127382,30.99306,-20.88718,-30.97688,1008.158
12.193067074,49.84513,85.77079,69.85806,-1.098185,0.3967597,-0.1384878,31.83332,-27.1118,-28.258,1008.158
12.225622654,71.74891,94.99033,77.69158,-1.124651,0.4836556,-0.1917581,31.83332,-27.1118,-28.258,1008.158
12.258183002,94.76018,96.89372,86.74909,-1.123467,0.6514293,-0.103642,32.31426,-34.01123,-26.42529,1008.158
12.293248176,84.60815,104.3883,92.74664,-1.068547,0.6594706,-0.1113063,32.40269,-40.20893,-28.61126,1008.158
12.325809002,69.65697,106.6486,97.09179,-1.087616,0.5016862,-0.09677695,32.40269,-40.20893,-28.61126,1008.156
12.358369350,64.42714,105.7564,97.64259,-1.049532,0.3499649,-0.1822692,29.51879,-43.50956,-29.4704,1008.156
12.393434524,76.48652,96.53683,89.50307,-1.050188,0.2875978,-0.1498671,23.96582,-38.79131,-24.57972,1008.15
12.425991058,102.8818,72.26862,88.82987,-0.9372095,0.5251581,-0.01825698,23.96582,-38.79131,-24.57972,1008.148
12.458551407,80.11664,62.93011,92.01224,-0.8173195,0.6329604,0.1311853,21.65876,-33.66299,-15.75123,1008.146
12.493616581,84.60815,41.33853,100.3966,-0.775672,0.6068718,0.1094785,20.17469,-30.71992,-8.311588,1008.145
12.526176929,58.21287,25.93297,109.4541,-0.7733608,0.5111665,0.001189868,20.17469,-30.71992,-8.311588,1008.145
12.558737278,30.15635,8.624013,116.6144,-0.6090154,0.458163,-0.1617086,17.61822,-29.60606,-1.237674,1008.143
12.593802452,20.74265,5.352561,116.186,-0.4635973,0.1843895,-0.3526092,16.15891,-28.86061,3.66865,1008.135
12.626358986,29.72566,-10.11248,109.0257,-0.4524124,0.03639379,-0.2669033,16.15891,-28.86061,3.66865,1008.132
12.658919811,40.86213,-22.544,90.29866,-0.4934049,-0.0152875,-0.3478928,13.22315,-27.76969,7.238903,1008.13
12.693984508,32.24828,-34.20226,71.20444,-0.527707,0.06825925,-0.435043,11.39467,-27.40398,9.854942,1008.127
12.726545334,5.914532,-41.99427,41.58394,-0.5463952,-0.03902266,-0.6222784,10.67315,-27.3912,12.97982,1008.127
12.759105682,11.26742,-45.97949,14.28901,-0.4595215,-0.1390277,-0.8244894,10.67315,-27.3912,12.97982,1008.125
12.791666031,39.07783,-39.61503,0.3967434,-0.4089333,-0.01905653,-0.8763627,9.925476,-26.23926,13.86608,1008.121
12.826727390,45.23058,-37.29527,-11.59834,-0.37819,0.04389322,-0.9503554,11.40356,-26.58215,15.64822,1008.117
12.859287739,62.95049,-34.14278,-29.95816,-0.3650588,-0.01244803,-1.027118,11.40356,-26.58215,15.64822,1008.115
12.891848087,80.73192,-21.83023,-43.48323,-0.3545837,0.09883252,-0.9935272,12.12841,-25.84406,16.53276,1008.115
12.926912785,77.96318,-16.89331,-53.27513,-0.389825,0.2198765,-0.8872371,13.20593,-24.00674,18.30043,1008.114
12.959473133,66.02686,-23.55518,-54.19312,-0.4073739,0.2819322,-0.7973322,13.20593,-24.00674,18.30043,1008.112
12.992033482,44.43072,-36.52202,-51.68394,-0.3843085,0.1987824,-0.7227328,14.63266,-21.0757,19.99535,1008.108
13.027158737,36.49368,-37.41423,-52.84673,-0.2595568,0.02257939,-0.7342422,15.33314,-18.88496,20.42338,1008.108
13.059719086,59.07425,24.62439,-46.72679,-0.2112326,-0.006239612,-1.626559,15.33314,-18.88496,20.42338,1008.108
13.092279911,94.20643,35.62836,-17.96308,-0.5561411,0.4802393,-1.541947,16.39847,-16.69416,20.40414,1008.108
13.127345085,90.76089,49.90379,-15.5763,-1.189493,0.1165898,-0.7739642,16.7187,-13.40947,21.71767,1008.108
13.159905433,8.314102,8.207646,-33.01813,-1.168028,-0.06978595,-0.4500656,16.7187,-13.40947,21.71767,1008.108
13.192465782,-20.91144,0.7130479,-31.24335,-0.7049665,-0.04865302,-0.9872218,15.96061,-11.59054,22.59914,1008.104
13.225022316,25.72637,-11.48054,-12.02673,-0.4993298,0.02831965,-0.972228,16.67246,-10.12742,23.03238,1008.104
13.260087490,24.98804,-9.577154,-5.723197,-0.4136882,-0.02498101,-0.6574788,16.67246,-10.12742,23.03238,1008.104
13.292647838,10.52909,-1.725671,-4.805206,-0.4864718,-0.01837477,-0.715313,17.04056,-10.12219,23.47727,1008.104
13.325208664,12.43644,0.7130479,-5.233602,-0.4863097,0.06819962,-0.8348365,17.0292,-9.394568,23.47205,1008.107
13.360273361,6.714389,9.75415,-7.987574,-0.5836211,-0.02156466,-0.8259611,17.0292,-9.394568,23.47205,1008.104
13.392834186,7.083554,8.267127,-5.845595,-0.6654009,-0.06590566,-0.821725,17.02189,-9.03334,23.02336,1008.104
13.460455418,15.20518,11.18169,-5.4172,-0.5774918,0.04065908,-0.8114832,17.38431,-8.6643,23.46564,1008.108
13.493016243,7.329664,11.00325,-12.08793,-0.5928583,0.01485434,-0.8452151,17.37295,-7.936678,23.46041,1008.108
13.525576115,11.02131,9.04038,-14.78071,-0.4949467,-0.07323879,-0.8577712,17.73373,-7.570221,23.45662,1008.108
13.560641289,23.26527,12.60924,-10.98634,-0.4744575,-0.02601057,-0.8179169,17.73373,-7.570221,23.45662,1008.108
13.593201637,14.46685,10.11104,-12.45513,-0.5256416,-0.02610129,-0.8376874,16.26449,-7.151196,24.35047,1008.11
13.658318520,16.49725,11.89546,-11.23114,-0.6425861,-0.03461718,-0.9029603,16.25312,-6.423575,24.34525,1008.113
13.693383694,16.12809,4.995676,-13.43432,-0.5407518,-0.03292944,-0.8754804,16.97875,-6.057054,23.89418,1008.113
13.725944042,13.9131,9.278303,-14.10751,-0.4719661,-0.07263685,-0.8176639,16.24176,-5.695953,24.34002,1008.113
13.758504391,13.35935,9.09986,-13.98512,-0.5119663,-0.06066235,-0.7869899,16.24176,-5.695953,24.34002,1008.111
13.793569565,4.99162,4.162942,-17.59588,-0.4748572,-0.1791569,-0.9140281,16.22635,-4.601938,24.77826,1008.112
13.826126099,13.2363,12.78768,-13.31192,-0.4816937,-0.1777837,-0.9149673,16.59282,-4.599291,24.77707,1008.114
13.858686924,21.66556,7.672318,-10.43555,-0.6403233,-0.09266087,-0.8511599,16.59282,-4.599291,24.77707,1008.114
13.893751621,0.9923353,2.021629,-14.22991,-0.5309938,-0.1173853,-0.8719445,16.2093,-3.510506,24.77043,1008.112
13.926312447,-2.76084,6.363737,-9.639957,-0.3522621,-0.1929867,-0.8350837,16.56767,-2.775071,25.65616,1008.112
13.958872795,13.11324,8.624013,-3.27522,-0.4828105,-0.1575596,-0.8769543,16.56767,-2.775071,25.65616,1008.112
13.993937969,0.3770607,2.556957,-6.029193,-0.5763787,-0.1875988,-0.8454194,16.57499,-3.136299,26.10484,1008.112
14.026493549,1.85372,-3.331656,-4.37681,-0.4611465,-0.1786427,-0.8811638,16.19552,-2.413908,25.65474,1008.113
14.059054375,13.54394,3.568133,0.7027403,-0.4955875,-0.1541827,-0.9078265,16.19552,-2.413908,25.65474,1008.113
14.091614723,9.852289,-0.298128,1.192336,-0.3817826,-0.1272338,-0.8437195,16.19552,-2.413908,25.65474,1008.113
14.126679897,7.698828,1.605262,0.7027403,-0.4692476,-0.2422748,-0.9120962,15.82742,-2.419137,25.20985,1008.113
14.159240246,24.24971,17.42719,9.025859,-0.6324682,-0.1725233,-1.007066,15.82742,-2.419137,25.20985,1008.115
14.191800594,3.391906,15.2264,6.210686,-0.6257868,-0.1944847,-0.9682544,16.18253,-1.688869,25.20345,1008.113
14.226861954,-14.69717,3.627614,4.007507,-0.4937767,-0.1762054,-0.8694941,15.4569,-2.05539,25.6545,1008.115
14.259422302,-20.05005,6.066333,8.107867,-0.3358171,-0.01681336,-0.8396624,15.4569,-2.05539,25.6545,1008.115
14.291982651,-34.69359,15.94017,14.16661,-0.3047492,0.05119522,-0.9561154,15.84042,-3.144176,25.66115,1008.116
14.327047825,-47.42978,30.39404,27.69167,-0.2362516,0.1212384,-1.091909,15.47721,-3.141656,26.55448,1008.116
14.359608650,-45.95311,30.45352,36.93278,-0.1609832,0.2646994,-0.8964417,15.47721,-3.141656,26.55448,1008.116
14.392168999,-82.37737,38.84033,47.82627,-0.1118441,0.2516252,-0.979346,15.8678,-4.592039,26.94608,1008.118
14.427229881,-77.82434,57.57682,56.57779,-0.1218608,0.1346959,-1.051693,15.15353,-5.686182,27.40237,1008.118
14.459789753,-56.16667,72.74446,63.18732,-0.1930453,0.07174019,-0.9853957,14.83672,-8.654783,28.31702,1008.118
14.492350578,-40.35411,79.64425,67.83848,-0.2726634,0.1201429,-0.8502017,14.83672,-8.654783,28.31702,1008.112
14.524910927,-48.72185,78.81152,64.77851,-0.3458976,0.110561,-0.77052,14.14439,-10.83261,30.11936,1008.114
14.559976101,-59.3661,79.88217,58.16897,-0.3429773,0.06214466,-0.802681,11.60345,-12.3038,30.58419,1008.114
14.592536449,-64.22678,71.55484,47.21428,-0.3307347,-0.03378525,-0.8336423,11.60345,-12.3038,30.58419,1008.114
14.625092983,-49.52171,66.26104,39.87035,-0.289495,0.05728474,-0.8627455,9.806819,-14.49731,31.05188,1008.114
14.660158157,-52.35197,56.86306,29.71125,-0.2837351,0.1007385,-0.8896406,8.017497,-17.05205,31.96824,1008.114
14.692718506,-33.95526,48.41676,25.85569,-0.2130406,0.1432977,-0.8547397,8.017497,-17.05205,31.96824,1008.114
14.725278854,-31.8018,38.95929,19.79695,-0.2269452,0.2514662,-0.8477589,6.197295,-18.16447,30.6438,1008.11
14.760344028,-23.31101,25.99245,13.43221,-0.1354279,0.2911806,-0.8752772,5.12387,-19.62249,31.54996,1008.11
14.792904854,-33.89373,13.32301,12.08583,-0.1050305,0.336324,-0.7764923,5.12387,-19.62249,31.54996,1008.111
14.825460911,-24.60309,6.066333,7.067477,-0.1025132,0.3295465,-0.775148,4.022827,-19.63301,31.10745,1008.111
14.860525608,-14.82022,-5.710893,0.09074639,-0.05533557,0.2994053,-0.7452007,3.24422,-20.73276,30.67179,1008.111
14.893085957,-15.55855,-7.495321,-6.763587,-0.06137759,0.2408271,-0.7064516,3.24422,-20.73276,30.67179,1008.111
14.925646782,92.85282,5.114638,18.57296,-0.124149,1.299075,-2.62472,3.24017,-20.36637,31.11525,1008.111
14.958207130,-14.20495,-12.43224,-2.234831,-0.06450104,0.5620608,-1.453199,5.127132,-19.61732,32.4421,1008.11
14.993272305,37.60117,7.434394,6.088287,-0.02397742,0.3459013,-1.045182,5.127132,-19.61732,32.4421,1008.107
15.025844097,69.16476,-6.662588,-1.684036,-0.02800884,0.3342639,-0.9564142,5.459515,-17.43181,32.42525,1008.107
15.058403969,4.007181,-7.495321,-0.1540512,0.008857479,0.2077627,-0.8215842,5.434371,-15.60759,33.30433,1008.109
15.093469143,-8.729003,-8.922864,-0.6436464,-0.01112011,0.2621103,-0.9657487,5.434371,-15.60759,33.30433,1008.109
15.126029491,-14.14342,-3.866984,-0.7660452,-0.02386131,0.2711292,-0.9549646,5.418958,-14.51357,33.74257,1008.109
15.158589840,-3.006949,-1.66619,-0.5824471,-0.01910831,0.265698,-1.029009,5.785429,-14.51093,33.74138,1008.11
15.193655014,5.72995,2.913843,0.7639397,-0.03113424,0.2904215,-1.049405,5.785429,-14.51093,33.74138,1008.112
15.226211548,11.32895,5.29308,1.681931,-0.0331523,0.3095489,-0.9867557,6.15595,-14.87467,33.29673,1008.11
15.258771896,14.65143,2.854362,1.192336,-0.006972457,0.2655056,-0.8463069,6.161631,-15.23849,33.29934,1008.11
15.293837070,8.990905,-0.5955327,0.09074639,-0.03541584,0.2840526,-0.8382624,6.161631,-15.23849,33.29934,1008.11
15.326397419,8.867849,-0.06020425,0.2131452,-0.02152694,0.2646856,-1.027088,6.150268,-14.51086,33.29412,1008.11
15.358958244,22.15778,3.568133,1.314734,-0.03021146,0.2686493,-1.174449,5.052487,-14.51622,33.74376,1008.11
15.391518116,25.7879,4.400867,1.926728,-0.01998746,0.219909,-1.008921,5.052487,-14.51622,33.74376,1008.113
15.426578998,24.37277,1.069934,0.6415409,-0.01648634,0.2046204,-0.8443264,6.508638,-13.77543,34.17986,1008.109
15.459139347,10.95978,0.7130479,0.02954699,-0.01475824,0.2193154,-0.8644057,5.037075,-13.42221,34.182,1008.109
15.491700172,5.791477,0.7725289,0.4579428,-0.0187553,0.238419,-1.014441,5.037075,-13.42221,34.182,1008.111
15.526764870,9.790761,3.032804,0.947538,-0.02199626,0.2128609,-1.067515,6.132436,-13.04787,34.62189,1008.113
15.559325695,13.05172,2.259552,1.069937,-0.009269696,0.1810949,-0.993089,5.027343,-12.692,34.62285,1008.114
15.591886043,14.65143,1.129414,0.3967434,-0.0001521574,0.1639188,-0.9310042,5.027343,-12.692,34.62285,1008.114
15.626947403,4.499401,0.4751242,-0.2152506,-0.002379078,0.1810497,-0.9636104,5.393814,-12.68935,34.62166,1008.114
15.659507751,4.253291,-0.4170899,-0.1540512,-0.01454499,0.2145899,-0.9993401,5.384082,-11.95915,35.06251,1008.116
15.692068100,7.022027,0.653567,0.4579428,-0.0202546,0.2023791,-1.002421,5.384082,-11.95915,35.06251,1008.112
15.727133274,7.821883,0.4751242,0.5803416,-0.01493681,0.1692821,-0.9768288,5.748922,-11.95909,34.61525,1008.112
15.759693146,5.791477,0.8320099,0.2743446,-0.007919416,0.1514078,-0.980492,5.748922,-11.95909,34.61525,1008.112
15.792253494,2.099829,0.3561623,0.02954699,-0.008516952,0.1577864,-0.9953789,5.748922,-11.95909,34.61525,1008.112
15.827314854,-0.8534884,-0.0007233131,-0.3376494,-0.01311932,0.1766797,-0.9950861,5.378401,-11.59534,35.0599,1008.112
15.859875202,-2.26862,0.05875763,-0.2152506,-0.01124745,0.1873072,-0.9755907,5.374351,-11.22895,35.50336,1008.11
15.892435551,-4.052916,-0.06020425,-0.0928518,-0.01067188,0.1790662,-0.9786172,5.374351,-11.22895,35.50336,1008.11
15.924996376,-2.51473,-0.298128,0.1519458,-0.007718727,0.1747663,-0.9864197,4.639779,-11.23682,35.05967,1008.112
15.960061073,0.2540058,-0.8929374,-0.0928518,0.0006044267,0.170987,-0.9864854,5.748134,-11.58753,35.95086,1008.108
15.992621899,3.330379,-1.011899,-0.2152506,-0.00193291,0.1782768,-0.9936224,5.748134,-11.58753,35.95086,1008.108
16.025178432,5.299258,-0.7739756,-0.0928518,-0.01212295,0.1761757,-0.9883274,4.651141,-11.96444,35.06489,1008.108
16.060242653,4.807038,-0.298128,-0.0928518,-0.02469209,0.1682339,-0.9879531,5.374351,-11.22895,35.50336,1008.109
16.092803001,3.576488,0.5940861,0.2131452,-0.02754325,0.1614084,-0.9914382,5.374351,-11.22895,35.50336,1008.109
16.125363827,0.007895961,0.8914908,0.2743446,-0.01935255,0.1683345,-0.994724,5.744872,-11.59269,35.05871,1008.109
16.160429001,-2.084038,1.902667,0.2131452,-0.007665201,0.1708637,-0.9830956,4.638147,-11.23941,34.61359,1008.109
16.192989349,-3.499169,1.783705,0.09074639,-0.005747331,0.1756998,-0.9723894,6.105661,-11.22624,35.05491,1008.109
16.225545883,-1.653345,0.7725289,-0.0928518,-0.003371326,0.1791681,-0.9800729,6.105661,-11.22624,35.05491,1008.105
16.260611057,2.222884,0.05875763,-0.0928518,0.001512757,0.1749243,-0.9946436,5.002199,-10.86778,35.50194,1008.105
16.293171406,5.48384,0.05875763,0.09074639,0.007442993,0.1691345,-0.9870036,5.73919,-11.22888,35.0561,1008.107
16.325731754,7.452719,-0.2386471,0.09074639,-0.0002032486,0.1587804,-0.9765199,5.73919,-11.22888,35.0561,1008.107
16.358291626,6.591334,-0.4170899,0.1519458,-0.01133885,0.1513831,-0.9848394,5.37272,-11.23153,35.05729,1008.107
16.393356800,5.299258,-0.7739756,-0.03165241,-0.0167169,0.1513528,-0.9935355,5.002199,-10.86778,35.50194,1008.109
16.425913334,2.715104,-0.1791661,-0.0928518,-0.01673216,0.1518563,-0.9973949,5.002199,-10.86778,35.50194,1008.109
16.458473682,-2.02251,0.1777195,-0.0928518,-0.01136058,0.1528496,-0.9867505,4.996518,-10.50397,35.49933,1008.106
16.493538856,-4.360553,-0.2386471,-0.27645,-0.0104451,0.1582007,-0.9852196,4.628416,-10.5092,35.05444,1008.106
16.526099205,-5.283465,-0.2386471,-0.03165241,-0.006041631,0.1558415,-0.9881602,4.628416,-10.5092,35.05444,1008.108
16.558660030,-3.130004,-0.298128,-0.03165241,-0.005157122,0.1631517,-0.989983,5.362988,-10.50132,35.49814,1008.108
16.593725204,-0.4227962,-0.0007233131,-0.03165241,-0.008589553,0.16648,-0.983645,5.73919,-11.22888,35.0561,1008.11
16.626281261,2.345939,-2.32048,-0.0928518,0.02188232,0.1810483,-1.00037,5.73919,-11.22888,35.0561,1008.107
16.658841133,6.960499,-2.558404,-0.5824471,-0.01318903,0.1483258,-0.9592653,4.998937,-10.87295,34.60979,1008.107
16.693906307,4.191763,0.4156432,-0.3376494,-0.03424998,0.1487518,-1.006126,5.733509,-10.86507,35.05349,1008.107
16.726466656,3.022741,1.069934,0.2743446,-0.03974584,0.1551197,-1.032609,5.733509,-10.86507,35.05349,1008.109
16.759027481,1.423028,1.545781,0.6415409,-0.01537762,0.1606305,-0.9991958,5.002199,-10.86778,35.50194,1008.111
16.791587830,-1.591818,1.724224,0.7027403,0.01889277,0.1564579,-0.9456376,4.996518,-10.50397,35.49933,1008.112
16.826649189,-6.329432,-0.1791661,-0.27645,0.008757594,0.1475979,-0.9501134,4.996518,-10.50397,35.49933,1008.112
16.859209537,-7.190816,-2.260999,-0.8272446,-0.01100393,0.1602281,-1.005007,4.631678,-10.50403,35.94659,1008.112
16.891769886,-2.699312,-2.082556,-0.5824471,-0.007256848,0.1705379,-1.016937,5.36867,-10.86514,35.50075,1008.11
16.926834583,-0.05363149,-0.7739756,-0.2152506,-0.01493396,0.1683257,-0.9802271,5.36867,-10.86514,35.50075,1008.108
16.959394932,0.1924783,0.1182386,-0.03165241,-0.02269416,0.167692,-0.9700783,5.365407,-10.8703,34.60861,1008.108
16.991955280,1.3615,-0.0007233131,-0.0928518,-0.017767,0.1600403,-0.983251,5.359726,-10.50649,34.606,1008.108
17.027092457,3.391906,-0.0007233131,0.09074639,-0.01538092,0.162539,-0.9914326,5.359726,-10.50649,34.606,1008.108
17.059652805,3.207324,1.843186,0.09074639,-0.01673134,0.1513792,-0.9993356,5.73514,-10.86249,35.49956,1008.11
17.092213631,0.8077529,2.7354,0.335544,-0.0220387,0.1493173,-0.9887276,5.359726,-10.50649,34.606,1008.11
17.127278328,-2.883894,2.14059,0.4579428,-0.01771842,0.1590004,-0.9682823,5.359726,-10.50649,34.606,1008.11
17.159839153,-4.729718,1.248376,0.4579428,-0.00760009,0.1678911,-0.9705732,5.371089,-11.23411,34.61122,1008.108
17.192399025,-4.114443,1.902667,0.5191422,0.003014772,0.1691608,-1.005367,5.73514,-10.86249,35.49956,1008.108
17.224955559,-0.2382139,2.259552,0.7639397,0.01540918,0.1560747,-0.9780264,5.73514,-10.86249,35.49956,1008.109
17.260020256,2.345939,1.367338,0.7027403,0.006626381,0.1593223,-0.9692675,5.744872,-11.59269,35.05871,1008.111
17.292581081,1.053863,-0.2386471,-0.0928518,-0.01241213,0.1582105,-0.9929516,5.731878,-10.86765,34.60742,1008.111
17.325141430,-2.822367,-0.4170899,-0.0928518,-0.007282387,0.1762919,-0.9999315,5.731878,-10.86765,34.60742,1008.107
17.360206604,-0.4843237,0.9509717,0.335544,-0.01888431,0.1736067,-0.9772424,5.367039,-10.86772,35.05468,1008.107
17.392766952,-1.099598,3.449171,0.947538,-0.02837976,0.1568643,-0.9567035,4.993256,-10.50914,34.60719,1008.107
17.425323009,-0.05363149,3.449171,5.721091,-0.0120532,0.1684385,-0.996663,4.993256,-10.50914,34.60719,1008.107
17.460388183,-1.038071,7.315433,4.191106,-0.02665772,0.1639605,-1.015569,5.006249,-11.23418,35.05848,1008.102
17.492948532,-1.714873,7.255951,7.373474,0.003463008,0.1735184,-1.000467,4.28062,-11.6007,35.50954,1008.104
17.525508881,-8.359838,4.341385,4.619502,0.01958257,0.1764895,-0.9666013,4.28062,-11.6007,35.50954,1008.104
17.560574055,-27.18724,-0.0007233131,-3.703616,0.04597787,0.175698,-0.930869,5.006249,-11.23418,35.05848,1008.104
17.593134403,-56.28973,-6.186741,-9.272761,0.02397229,0.1765335,-0.9637046,4.635728,-10.87043,35.50313,1008.106
17.625690937,-92.65246,-12.78913,-14.59711,0.003095649,0.234061,-1.061899,4.635728,-10.87043,35.50313,1008.106
17.658251285,-82.19279,-21.77075,-16.61669,-0.02468231,0.3144825,-1.084814,4.288721,-12.33348,34.62262,1008.106
17.693315983,-38.32371,-35.09448,-13.49552,-0.03000267,0.3594745,-1.054637,5.418958,-14.51357,33.74257,1008.106
17.725876331,-27.9871,-3.034251,-10.49675,-0.07716594,0.3292977,-0.9670769,5.418958,-14.51357,33.74257,1008.102
17.758437157,-15.55855,-12.31328,-10.06835,-0.06274866,0.3227585,-0.8777659,5.814623,-16.70154,32.41883,1008.103
17.793501854,-19.18867,-16.65539,-6.579988,-0.004787528,0.3163529,-0.9059554,6.557296,-17.42645,31.97561,1008.107
17.826058388,-12.66676,-6.662588,-5.600798,-0.0215636,0.3018503,-0.86459,6.557296,-17.42645,31.97561,1008.109
17.858619213,-13.40509,-1.66619,-6.641188,-0.03892748,0.2832451,-0.8841922,6.931867,-18.15659,31.0875,1008.109
17.893684387,1.792192,-7.138436,-7.987574,-0.06872369,0.3343375,-0.8761333,6.563766,-18.16182,30.64262,1008.104
17.926243782,4.683983,-11.77795,-9.884755,-0.08672544,0.335026,-0.8654711,7.325112,-19.97558,30.65329,1008.104
17.958804607,16.74336,-17.01227,-9.211562,-0.09501888,0.4527315,-0.9086214,7.325112,-19.97558,30.65329,1008.108
17.993869781,-0.1151589,-19.0941,-10.31315,-0.1480037,0.4556762,-0.8534204,6.939968,-18.88938,30.20058,1008.106
18.026425838,-9.651915,-25.93441,-13.37312,-0.2088516,0.391169,-0.949571,8.405849,-18.87879,30.19582,1008.106
18.058986664,-3.929861,-31.76354,-18.20787,-0.1859349,0.310138,-1.125812,8.405849,-18.87879,30.19582,1008.106
18.091547012,27.63372,-24.32843,-19.61546,-0.1931428,0.4048783,-1.033001,8.757696,-18.15369,29.29727,1008.107
18.126612186,6.652862,-20.22424,-29.46856,-0.2755889,0.258293,-0.9911706,9.49795,-18.50962,29.74357,1008.107
18.159172058,17.78933,-25.10168,-34.18092,-0.257011,0.1733754,-0.967832,9.49795,-18.50962,29.74357,1008.109
18.191732406,32.7405,-24.32843,-36.50649,-0.2803732,0.2110438,-0.981736,10.2179,-17.77929,29.2899,1008.109
18.226793766,30.52551,-25.63701,-42.50404,-0.2506585,0.1349483,-0.9428054,11.30027,-16.67992,29.2785,1008.105
18.259354114,46.76876,-22.24659,-43.17723,-0.254144,0.184928,-0.9352722,11.30027,-16.67992,29.2785,1008.105
18.291914463,32.0637,-26.2913,-43.54443,-0.3018798,0.2465834,-0.8438941,12.02021,-15.94959,28.82483,1008.107
18.326979637,23.51138,-28.61106,-46.72679,-0.3330506,0.209622,-0.8212258,12.7288,-14.49164,28.36593,1008.107
18.359539986,14.71296,-36.34358,-44.03402,-0.312984,0.2168304,-0.7462118,12.7288,-14.49164,28.36593,1008.102
18.392099857,13.05172,-43.89766,-37.91408,-0.2544451,0.2862523,-0.7746952,13.80791,-13.39743,27.46239,1008.102
18.427161217,-0.9765432,-48.41821,-26.65339,-0.2392766,0.4397161,-0.8120054,15.2594,-12.66402,26.62399,1008.104
18.459721565,-31.24805,-51.8681,-10.00715,-0.1724957,0.6133043,-0.9578182,15.2594,-12.66402,26.62399,1008.104
18.492281914,-42.75369,-29.97912,1.74313,-0.1867274,0.5957239,-1.086167,15.60533,-11.57547,25.6591,1008.098
18.527394295,-40.78481,-6.722069,2.538722,-0.352025,0.199832,-0.860027,16.70739,-11.93614,24.82973,1008.098
18.559955120,-37.95454,-25.81545,8.291466,-0.3969582,0.06606817,-0.7518144,16.70739,-11.93614,24.82973,1008.098
18.592515469,-6.390959,-24.86376,6.210686,-0.4384547,0.04860051,-0.8762687,17.45575,-13.02486,24.38911,1008.1
18.625072002,10.59062,-21.2949,5.659891,-0.486131,0.2235966,-1.018566,18.55758,-13.3859,23.49602,1008.097
18.660137176,-4.360553,-24.74479,8.964659,-0.4392049,0.4020108,-0.8950451,18.55758,-13.3859,23.49602,1008.099
18.692697525,-25.21836,-13.38393,5.721091,-0.5652666,0.2003071,-0.827911,18.18948,-13.39113,23.05113,1008.097
18.725257873,-39.98495,-24.74479,8.658662,-0.5320767,0.2120117,-0.7422068,18.93215,-14.11604,22.6079,1008.097
18.760322571,-30.50972,-21.41386,9.454254,-0.4616393,0.193742,-0.903518,18.93215,-14.11604,22.6079,1008.099
18.792882919,-25.40294,-23.85258,10.49464,-0.4784935,0.26393,-0.8893797,19.65778,-13.74952,22.15684,1008.097
18.825439453,-25.83364,-21.35438,7.924269,-0.4485572,0.2990322,-0.8279676,19.66425,-14.48489,20.82385,1008.097
18.860504627,-22.51115,-10.94522,4.007507,-0.4361675,0.283101,-0.8161382,19.66425,-14.48489,20.82385,1008.098
18.893064976,-19.98853,-11.06418,7.312275,-0.521696,0.395171,-0.8037116,19.30183,-14.85393,20.38158,1008.098
18.925625324,-34.13984,-19.15359,11.96343,-0.5571666,0.313825,-0.7589976,20.04613,-15.57626,20.38442,1008.096
18.958185196,-37.52385,-22.66296,10.86184,-0.5874203,0.3083149,-0.8093237,20.04613,-15.57626,20.38442,1008.098
18.993250370,-39.67731,-35.39188,12.39183,-0.543135,0.4096603,-0.7386974,20.4207,-16.3064,19.49631,1008.093
19.025806904,-55.48987,-29.32483,11.84103,-0.5659801,0.3646342,-0.7354952,20.05339,-16.68319,17.71582,1008.095
19.058367252,-60.0429,-40.62621,18.14457,-0.6080695,0.4438476,-0.6414378,20.05339,-16.68319,17.71582,1008.095
19.093432426,-70.9948,-40.74517,20.65374,-0.6448423,0.4101186,-0.7037891,20.43061,-17.78194,16.00191,1008.095
19.125993252,-72.65604,-54.96111,22.85692,-0.6190324,0.4655672,-0.6396456,20.06898,-18.52254,14.22403,1008.093
19.158552646,-72.71756,-61.68246,27.93647,-0.6018257,0.595166,-0.5540609,20.06898,-18.52254,14.22403,1008.094
19.193617821,-79.85474,-53.1172,33.56681,-0.5962468,0.6428111,-0.4353954,20.44839,-19.99063,11.55685,1008.094
19.226174354,-77.45518,-49.01302,39.07476,-0.5532831,0.6350786,-0.4287876,20.44428,-20.36994,8.883034,1008.094
19.258735180,-62.38095,-47.40703,42.19593,-0.6465328,0.6671276,-0.36972,20.44428,-20.36994,8.883034,1008.096
19.293799877,-60.47359,-46.33638,43.78711,-0.6679944,0.7182246,-0.3389504,20.0983,-22.20419,6.730642,1008.098
19.326360702,-63.30386,-47.52599,40.17635,-0.6832152,0.6907271,-0.3209869,19.00046,-22.95525,4.062999,1008.095
19.358920574,-54.81307,-41.33998,33.01602,-0.7357451,0.7364861,-0.2743173,19.00046,-22.95525,4.062999,1008.095
19.393985748,-66.50329,-33.01265,24.08091,-0.6590098,0.7473702,-0.3099952,18.27641,-24.06489,1.84285,1008.095
19.426541805,-45.15326,-19.80788,16.43098,-0.6124388,0.728856,-0.273586,16.79995,-23.71941,0.5067778,1008.095
19.459102630,-18.32729,-11.59951,12.51422,-0.5572625,0.8618259,-0.1792856,16.79995,-23.71941,0.5067778,1008.095
19.491662979,-29.89445,-0.2386471,9.760251,-0.6119393,0.8832469,-0.1305684,16.43101,-24.09878,-1.719782,1008.097
19.526728153,-29.03306,15.88069,-0.0928518,-0.6380841,0.7662157,-0.2265871,16.06859,-24.46783,-2.162054,1008.095
19.559288025,-1.899455,44.66946,-14.78071,-0.7024953,0.6059287,-0.6437076,16.06859,-24.46783,-2.162054,1008.093
19.591848373,27.20303,52.75887,-21.20664,-0.7127604,0.7464819,-0.5874152,14.96778,-24.47798,-2.540834,1008.093
19.626909733,20.61959,84.28376,-35.28251,-0.6999322,0.5962136,-0.6375744,14.60271,-24.47841,-2.157299,1008.093
19.659470081,7.883411,102.9013,-46.48199,-0.799077,0.4458679,-0.6711919,14.61165,-24.83706,-1.262544,1008.095
19.692030430,6.898972,114.3811,-53.64233,-0.7009847,0.3517373,-0.6384029,14.61165,-24.83706,-1.262544,1008.09
19.727095604,13.11324,121.8757,-65.08661,-0.6269454,0.2994461,-0.6832595,13.85761,-23.38452,-0.8245392,1008.09
19.759655476,6.160642,110.158,-60.98625,-0.6499766,0.4348503,-0.4941047,13.48546,-23.02336,-0.8259611,1008.09
19.792215824,3.638016,99.98673,-55.04991,-0.5499892,0.5474553,-0.4949,13.48546,-23.02336,-0.8259611,1008.09
19.827277183,-37.21622,90.23186,-61.53705,-0.458913,0.4531235,-0.5442815,13.10437,-22.30355,-1.722139,1008.089
19.859837532,-52.65961,94.51449,-63.80143,-0.5485508,0.469626,-0.4762704,13.10213,-22.67991,-3.886163,1008.09
19.892397881,-35.67803,85.35442,-50.52116,-0.534925,0.6232759,-0.346328,13.10213,-22.67991,-3.886163,1008.086
19.924958706,-46.93755,75.24266,-53.21393,-0.5280355,0.5044961,-0.2848244,13.09639,-23.0618,-7.006055,1008.086
19.960022926,-64.59594,49.36846,-54.56031,-0.5696846,0.4351562,-0.1200438,14.5598,-23.42794,-9.238559,1008.087
19.992583275,-64.84205,28.49065,-51.43915,-0.572983,0.5517446,-0.1172952,14.5598,-23.42794,-9.238559,1008.087
20.025139809,-45.27631,17.01083,-53.51992,-0.6231843,0.556882,-0.1084676,15.31019,-25.25904,-12.22293,1008.087
20.060204983,-66.99551,-2.023075,-56.3963,-0.5839645,0.5502487,-0.03416657,18.61569,-26.34215,-14.90223,1008.085
20.092765331,-70.81021,-16.59591,-57.98748,-0.6076131,0.5191119,-0.09455751,18.61569,-26.34215,-14.90223,1008.085
20.125325203,-67.67231,-20.99749,-59.76226,-0.688435,0.5075744,-0.1400929,20.10114,-28.22675,-17.56993,1008.085
20.160390377,-63.6115,-28.84898,-65.8822,-0.6742398,0.4658256,-0.1102908,21.56697,-28.96187,-20.69196,1008.087
20.192950725,-46.56839,-22.8414,-69.92136,-0.6909953,0.51776,-0.1428353,21.56697,-28.96187,-20.69196,1008.087
20.225507259,-32.78624,-15.88213,-71.08415,-0.7633701,0.601509,-0.06414748,23.46221,-29.69094,-23.30559,1008.089
20.260572433,-38.13913,-17.72604,-75.06211,-0.7575458,0.6305767,-0.1333159,24.58761,-31.13308,-22.40657,1008.089
20.293133259,-23.68018,-4.937641,-81.05965,-0.8352884,0.5793695,-0.1040527,24.58761,-31.13308,-22.40657,1008.084
20.325692653,-25.71058,4.817233,-86.01681,-0.8630319,0.5794606,-0.09677391,26.0825,-32.56777,-20.68032,1008.086
20.358253479,-14.63564,16.11861,-85.71081,-0.9612909,0.5993354,-0.1529309,27.88729,-30.36134,-18.91764,1008.09
20.393318653,8.437158,12.13339,-83.93603,-0.9265056,0.5894107,-0.1154125,27.88729,-30.36134,-18.91764,1008.09
20.425874710,27.38761,16.4755,-84.73162,-1.066921,0.5342689,-0.04216162,28.93221,-26.64949,-18.05561,1008.09
20.458435535,12.99019,0.1777195,-83.26283,-1.187141,0.4613693,0.03949966,31.43664,-22.62646,-17.64658,1008.089
20.493499756,17.78933,-10.52885,-80.63126,-1.215489,0.3077377,-0.1363491,31.43664,-22.62646,-17.64658,1008.092
20.526060581,29.29497,-22.544,-80.32526,-1.182811,0.2567559,-0.1603605,32.82867,-17.88634,-17.68528,1008.094
20.558620930,24.31124,-33.13161,-78.79528,-1.183809,0.1997688,-0.2424363,34.23284,-14.24539,-19.05436,1008.096
20.593686104,26.8954,-51.39225,-70.34976,-1.283173,0.2503094,-0.2057994,34.23284,-14.24539,-19.05436,1008.098
20.626242638,2.407467,-64.3591,-67.16739,-1.227821,0.1905569,-0.1603603,35.64372,-11.33945,-21.69271,1008.098
20.658802032,25.29568,-33.01265,-54.98871,-1.169371,0.1517569,-0.542393,35.59417,-8.808271,-24.38742,1008.099
20.693867207,11.57506,-40.50724,-41.70844,-1.09429,0.1530449,-0.5037757,35.59417,-8.808271,-24.38742,1008.101
20.726428032,8.683268,-32.35835,-37.66928,-1.015651,-0.04299929,-0.3468447,35.54367,-6.216459,-27.08257,1008.099
20.758988380,27.01845,-15.70369,-36.38409,-0.9477875,-0.04054005,-0.2661488,34.79284,-5.504463,-28.8697,1008.1
20.791548729,27.94136,-8.506497,-32.22253,-0.9439298,-0.013786,-0.1540843,34.79284,-5.504463,-28.8697,1008.1
20.826610088,11.82117,-9.577154,-25.6742,-0.8943551,0.08822721,-0.1081051,34.40848,-4.789821,-30.65802,1008.102
20.859169960,8.621739,-4.580755,-17.22868,-0.8926762,0.05503059,-0.1772527,33.67391,-4.797697,-31.10172,1008.098
20.891730309,14.83601,1.367338,-10.37435,-0.9648001,-0.02512287,-0.1788893,33.67391,-4.797697,-31.10172,1008.103
20.926795483,5.72995,2.556957,-5.906795,-1.039813,-0.05691715,-0.1357981,33.65384,-3.711061,-31.93797,1008.107
20.959355831,-12.85134,-10.70729,-2.969223,-0.9692354,-0.06260137,-0.1794568,34.38272,-3.339375,-31.49688,1008.107
20.991916180,-2.637785,-2.023075,-2.724426,-0.9280255,-0.1415239,-0.2333888,34.38272,-3.339375,-31.49688,1008.108
21.026976585,16.00504,5.352561,-0.7660452,-0.9690655,-0.08383853,-0.2112005,35.10836,-2.972853,-31.94794,1008.112
21.059537411,15.6974,4.400867,0.947538,-0.9794873,-0.05317477,-0.1445,34.73052,-2.247879,-31.95198,1008.114
21.092097759,15.45129,3.092285,-0.03165241,-0.9272118,-0.1141089,-0.1681988,34.73052,-2.247879,-31.95198,1008.111
21.127162933,20.00432,7.553356,-1.622837,-0.9376325,-0.1242942,-0.09632099,35.47078,-2.603813,-31.50567,1008.111
21.159723282,8.990905,-8.03065,-4.009614,-0.8796394,-0.07421562,-0.04147474,36.20535,-2.595936,-31.06198,1008.113
21.192283153,-4.114443,-13.38393,-3.458819,-0.9194813,-0.07679862,-0.01537334,36.20535,-2.595936,-31.06198,1008.114
21.224839687,-35.12428,-12.96757,-4.132012,-0.8472388,-0.1797506,-0.04021583,36.58482,-3.318328,-30.61187,1008.116
21.259904861,-31.98638,-9.458193,-12.02673,-0.9068155,-0.2538246,-0.06014012,36.94397,-2.954453,-31.06174,1008.112
21.292465210,-16.35841,-9.636635,-16.55549,-0.9782084,-0.2261445,-0.04611436,36.94397,-2.954453,-31.06174,1008.112
21.325025558,-9.221223,-21.41386,-17.16748,-0.9691924,-0.1533553,0.004291869,37.27799,-0.7663593,-30.63253,1008.114
21.360090256,-36.41636,-39.79347,-19.55426,-0.934859,-0.1738137,0.005880116,37.61279,1.050175,-31.53892,1008.117
21.392650604,-36.35483,-40.09088,-18.45267,-0.9557487,-0.1024696,-0.03168142,37.60953,1.045009,-32.43106,1008.117
21.425207138,-81.26988,-27.77832,-8.293571,-1.122969,-0.02317736,-0.5233546,37.59249,2.136441,-32.43889,1008.117
21.460272312,-42.13841,-6.12726,-1.194441,-1.211218,-0.1114683,-0.3858873,38.28808,4.319433,-33.34908,1008.117
21.492832184,-40.41564,-5.532451,-4.254411,-0.9407362,-0.1861939,-0.06680961,38.24263,7.229919,-33.36997,1008.121
21.525516510,-33.46304,2.794881,-6.641188,-0.6700384,-0.2756938,-0.1293418,38.24263,7.229919,-33.36997,1008.118
21.560581207,31.63301,37.23434,3.946308,-1.08754,-0.01673498,-0.3434744,38.22153,8.687744,-32.93434,1008.12
21.593141556,94.88323,-93.86165,-7.865175,-1.353779,0.3702799,-1.027092,38.58153,9.425762,-31.60254,1008.122
21.625698090,-97.75924,28.19324,7.80187,-1.068019,-0.6378297,-0.2954471,38.58153,9.425762,-31.60254,1008.122
21.658258438,3.514961,-13.14601,3.456713,-1.097599,-0.004752649,-0.01700252,38.58558,9.059368,-32.046,1008.123
21.693323612,11.57506,-10.94522,-4.254411,-0.9676965,-0.2436556,-0.01303866,39.29743,10.52249,-31.61275,1008.127
21.725883484,7.083554,-0.1791661,-4.560408,-1.025262,-0.162462,0.1352022,39.29743,10.52249,-31.61275,1008.123
21.758443832,11.57506,8.921417,-2.051233,-1.021621,-0.1785917,-0.04679711,37.83723,10.14809,-31.60538,1008.123
21.793509006,18.22002,10.17052,-1.133242,-0.9892102,-0.140257,-0.1535532,38.2037,10.15074,-31.60657,1008.126
21.826065540,7.944938,3.627614,-2.357229,-1.014429,-0.2096274,-0.04147702,38.2037,10.15074,-31.60657,1008.126
21.858625889,6.160642,-5.710893,1.74313,-1.005392,-0.1938939,-0.05526364,38.93259,10.52242,-31.16549,1008.124
21.893690586,8.867849,-15.16836,0.8251392,-0.9883411,-0.2003447,-0.08389775,38.93827,10.15861,-31.16288,1008.126
21.926250935,4.807038,-21.71127,1.74313,-1.006372,-0.1953226,-0.06446865,38.93827,10.15861,-31.16288,1008.126
21.958811283,2.345939,-25.93441,2.967118,-1.022876,-0.196585,-0.04803717,38.948,9.42841,-31.60373,1008.121
21.993876457,2.961214,-29.86016,0.09074639,-0.9966375,-0.1571938,-0.08468154,37.48291,9.046261,-32.93458,1008.121
22.026432514,2.222884,-32.89368,-4.070813,-1.005504,-0.1452329,-0.06853907,37.48291,9.046261,-32.93458,1008.123
22.058992863,-0.2997413,-35.80825,-7.497979,-1.034568,-0.1530256,-0.0415608,37.11481,9.041033,-33.37946,1008.125
22.094058037,-0.791961,-43.00544,-11.04754,-1.130059,-0.1983558,-0.07261295,36.02349,8.300306,-34.26282,1008.126
22.126618385,12.12881,-55.91281,-19.06466,-1.255785,-0.2074323,-0.1465867,36.02349,8.300306,-34.26282,1008.13
22.159178734,24.61888,-80.83532,-31.67174,-1.264676,-0.09090231,-0.0408743,34.17488,9.006943,-35.60031,1008.13
22.191738605,17.29711,-98.97701,-45.38041,-1.346667,-0.1177352,-0.03975441,32.349,8.258339,-36.92736,1008.13
22.226799965,20.1889,-110.9922,-53.09153,-1.197479,-0.07670629,0.02211641,32.349,8.258339,-36.92736,1008.128
22.259360313,37.17048,-95.70556,-48.07318,-0.8140189,-0.1306385,-0.1632431,27.94646,8.218828,-38.25131,1008.129
22.291920662,71.31821,-46.09845,-20.59465,-0.4233244,0.3157499,-0.5860485,22.82965,7.085177,-39.11898,1008.128
22.326985359,81.96246,16.23757,3.579112,-0.6916556,0.2663288,-0.2157935,22.82965,7.085177,-39.11898,1008.128
22.359545708,67.44199,-2.082556,-3.030423,-1.341415,-0.3185231,1.156435,19.85712,5.977296,-38.20929,1008.129
22.392106056,115.2488,-83.39301,-16.0047,-1.223602,-0.2665218,1.386235,21.36035,3.810184,-37.30624,1008.125
22.427167415,15.88198,-165.8931,-30.99855,-0.6418009,0.1683193,1.588076,21.36035,3.810184,-37.30624,1008.125
22.459727764,-58.6893,-148.2867,-35.8333,0.08182294,-0.0724621,0.4023307,19.91798,1.972794,-38.62664,1008.127
22.492287636,-94.25217,-117.0592,-43.78922,-0.2518143,-0.8238035,0.398924,14.80951,0.1067228,-40.3175,1008.127
22.527352810,43.01559,-126.3977,-42.07564,-1.245151,-0.6070035,0.110264,14.80951,0.1067228,-40.3175,1008.127
22.559913158,13.42088,-195.5741,-47.58358,-1.869604,0.01948021,0.6656737,10.71499,3.705385,-42.11483,1008.127
22.592473984,-54.01321,-219.9612,-45.07441,-0.9304869,0.4267702,0.4718297,5.937881,4.396015,-42.55067,1008.127
22.625029564,-284.6181,-211.5744,-72.98133,-0.174868,0.04459637,0.7485287,5.937881,4.396015,-42.55067,1008.127
22.660094738,-60.96581,-206.578,-75.61291,0.5433685,-0.720862,0.2421462,-1.828811,5.070197,-42.08466,1008.123
22.692655086,-91.36038,-169.105,-84.11962,0.7441139,-0.8490998,0.2675484,-10.3667,12.72769,-39.05381,1008.123
22.725215912,-21.64977,-138.7103,-91.40235,0.3192124,-0.6093404,0.722607,-10.3667,12.72769,-39.05381,1008.123
22.760280609,-17.52743,-109.1482,-102.2958,0.210794,-0.4899526,0.7699705,-18.53632,16.69677,-34.59546,1008.123
22.792840481,20.98876,-79.76466,-102.051,0.2138494,-0.5922489,0.9356552,-24.75653,16.66728,-31.89882,1008.121
22.825397015,44.30766,-67.03574,-72.30814,0.5976922,-1.085315,0.8083683,-24.75653,16.66728,-31.89882,1008.121
22.860462189,162.6865,-41.22101,-30.14176,1.597019,-1.316155,0.8899231,-29.11357,14.46298,-30.0846,1008.121
22.893022537,13.9131,51.80717,24.8765,-1.09835,-0.2102792,2.090769,-31.62617,11.4833,-28.33439,1008.118
22.925582409,-25.89516,-47.34755,-59.15027,-1.199332,-0.7284767,2.14435,-31.62617,11.4833,-28.33439,1008.12
22.960647583,-203.8326,-57.16191,-87.54679,-1.133017,-2.123209,0.7115469,-31.95209,8.562414,-29.65053,1008.12
22.993207932,147.8584,-93.02892,-70.83936,-0.03924097,-0.4668246,1.800157,-33.03362,7.837186,-27.85745,1008.12
23.025764465,-60.10443,-50.619,-88.40358,0.2645536,-1.324572,1.057362,-33.03362,7.837186,-27.85745,1008.12
23.058324337,94.20643,-62.51519,-84.18082,0.1876482,-1.237812,0.8900617,-35.59644,8.195385,-25.62138,1008.12
23.093389511,380.0015,-113.9662,-87.85279,1.432597,0.2020304,0.02576388,-37.39548,6.370846,-24.26417,1008.12
23.125949860,192.4043,-71.91319,-33.99732,1.545769,1.384318,-0.2473008,-37.39548,6.370846,-24.26417,1008.12
23.158510685,75.07139,58.11216,30.01725,0.9786403,0.7026218,-0.2039822,-38.10182,1.284676,-21.99468,1008.116
23.193574905,-41.03092,58.11216,38.70757,0.07450414,0.3715007,0.1190849,-39.45346,-5.628352,-20.21975,1008.116
23.226131439,-109.511,23.73217,21.93893,-0.1325177,-0.1446508,-0.3637493,-38.72844,-5.635605,-22.38876,1008.113
23.258691788,-64.71899,-2.558404,24.26451,0.2899168,-0.9414989,-0.6948593,-38.72844,-5.635605,-22.38876,1008.113
23.293756962,84.97731,-17.36916,11.29024,0.2387815,0.08246436,-0.3997962,-38.41069,-2.727639,-23.30298,1008.113
23.326316833,-56.905,-24.44739,-3.33642,0.1633066,0.3969509,-0.0913648,-38.80556,-0.911231,-23.31485,1008.111
23.358877182,-132.9529,35.09303,9.209456,0.6137112,0.2152693,0.004037537,-38.80556,-0.911231,-23.31485,1008.111
23.393942356,-106.4346,44.72894,23.22412,1.036466,-0.5788346,-0.1825013,-38.43015,-1.26723,-22.42128,1008.111
23.426498890,-80.77766,155.5419,59.57656,1.190273,-0.925922,1.120073,-38.46345,0.5440755,-23.77255,1008.106
23.459058761,42.46184,183.3195,61.77974,0.193434,0.09966357,1.658729,-38.46345,0.5440755,-23.77255,1008.106
23.491619110,-132.2761,153.7575,62.45293,-0.1491599,-0.5173194,2.219064,-36.63341,3.439823,-28.70638,1008.106
23.526684284,-122.0626,45.91856,30.62924,-0.2739922,-1.310671,2.962599,-32.28429,5.631571,-32.68723,1008.106
23.559245109,-49.82935,-9.696116,18.20577,-0.08401738,-1.011724,2.007473,-32.28429,5.631571,-32.68723,1008.108
23.591804504,-51.98281,-8.744421,-4.193212,0.3267671,-1.008717,0.7160233,-29.40771,9.293434,-32.27678,1008.11
23.626865864,35.2016,-9.993521,2.78352,0.101448,-0.405017,0.2720436,-30.18379,12.26443,-31.40358,1008.112
23.659426212,18.28155,12.78768,11.77983,0.05180556,-0.4109438,0.2574998,-30.18379,12.26443,-31.40358,1008.107
23.691987038,13.48241,10.11104,11.16784,-0.1631782,-0.5737826,0.3934687,-29.81895,12.26449,-31.85084,1008.107
23.727051258,2.161357,-13.5029,-4.805206,0.06301593,-0.5070889,0.8012713,-29.4468,11.90333,-31.84942,1008.109
23.759611607,-10.02108,-14.45459,-3.642417,0.2943057,-0.7362427,1.087578,-29.4468,11.90333,-31.84942,1008.111
23.792172432,-8.605948,5.352561,-1.439238,0.2361093,-0.8115773,1.02848,-30.17474,11.47101,-32.29007,1008.108
23.827233314,9.175487,-5.235046,0.8863385,0.1921514,-0.591024,1.03092,-30.16579,11.11236,-31.39531,1008.11
23.859793186,-15.49702,-12.07535,-5.111203,0.1783039,-0.4464484,0.8354381,-30.16579,11.11236,-31.39531,1008.112
23.892353535,-10.57483,-19.56995,-5.967994,0.1908197,-0.4284768,0.6612012,-30.53958,11.47094,-31.84281,1008.112
23.924914360,-21.28061,-10.29093,-4.805206,0.2321508,-0.4957307,0.7128233,-30.90279,11.47346,-30.94948,1008.114
23.959979057,-36.2933,-3.093732,-4.438009,0.2013,-0.5033683,0.8069951,-30.90279,11.47346,-30.94948,1008.115
23.992538929,-11.8669,-6.900512,-2.969223,0.1969156,-0.5932017,0.7771095,-31.65209,12.62282,-30.50929,1008.113
24.025095463,-9.713443,-5.532451,-1.867634,0.1642686,-0.6282517,0.8027086,-31.65614,12.98921,-30.06583,1008.115
24.060160637,-4.360553,-4.461793,-0.5824471,0.2283715,-0.6080716,0.8237398,-31.65614,12.98921,-30.06583,1008.115
24.092720985,0.3770607,0.653567,2.78352,0.2092192,-0.6460178,0.7772586,-31.65046,12.6254,-30.06322,1008.115
24.125280857,-16.66604,2.319033,-1.928834,0.1532839,-0.618858,0.73664,-31.66345,13.35044,-30.51452,1008.112
24.160346031,-6.760124,-1.487747,-3.27522,0.20267,-0.6304809,0.7620339,-31.66345,13.35044,-30.51452,1008.114
24.192906380,2.715104,-4.87816,0.02954699,0.2059619,-0.5081576,0.6986411,-31.6661,13.71905,-29.68871,1008.116
24.225462913,6.960499,0.3561623,3.028317,0.2111237,-0.5343111,0.6934032,-31.6675,13.71683,-30.07106,1008.116
24.260527611,9.421597,4.817233,2.78352,0.2224844,-0.6237631,0.7311811,-31.6675,13.71683,-30.07106,1008.117
24.293087959,13.42088,2.200071,-0.5212476,0.2278164,-0.6449959,0.81931,-31.64743,12.6302,-29.2348,1008.113
24.325648308,9.298542,0.2372005,0.8863385,0.2033796,-0.5809976,0.8899162,-31.30266,13.7169,-30.51832,1008.113
24.358209133,0.1309509,-3.510099,1.069937,0.1892534,-0.5811729,0.8879937,-31.30266,13.7169,-30.51832,1008.113
24.393273353,0.7462255,-6.067779,-2.234831,0.2143433,-0.5851766,0.7723814,-31.28399,12.62805,-30.06441,1008.113
24.425829887,9.852289,-10.70729,0.7639397,0.2654047,-0.4974601,0.7606191,-30.92078,12.62553,-30.95774,1008.115
24.458390236,-18.01965,2.556957,0.4579428,0.2030311,-0.4682276,0.8858365,-30.92078,12.62553,-30.95774,1008.111
24.493454933,10.52909,-4.283351,-3.520018,0.1931553,-0.6576518,0.7248919,-31.65209,12.62282,-30.50929,1008.111
24.526015282,14.34379,-6.841031,-0.3988488,0.2471021,-0.4961665,0.8505647,-30.91449,12.63549,-29.23718,1008.111
24.558575630,-8.79053,3.151766,3.701511,0.07349461,-0.546362,0.9166724,-30.91449,12.63549,-29.23718,1008.111
24.593640804,-6.760124,-2.558404,2.599922,0.1565048,-0.8112918,0.7395015,-32.00985,12.26116,-29.67708,1008.111
24.626196861,20.92723,-4.342832,-0.9496434,0.1564817,-0.7195675,0.7684534,-32.01693,12.62276,-30.06203,1008.108
24.658757210,27.38761,-3.748023,-2.479628,0.203129,-0.6774537,0.7260303,-32.01693,12.62276,-30.06203,1008.11
24.693822384,26.4647,-2.97477,-8.477169,0.2831196,-0.4182529,0.8140152,-32.38605,12.98872,-29.23504,1008.112
24.726382732,22.09625,-0.2386471,-8.477169,0.3106661,-0.4535998,0.7573776,-31.63607,11.90258,-29.22958,1008.112
24.758942604,18.89683,6.185295,-4.254411,0.341535,-0.456403,0.8206274,-31.63607,11.90258,-29.22958,1008.113
24.794007778,13.05172,5.768928,-5.906795,0.1116658,-0.4099343,0.8442769,-31.98352,10.37667,-30.492,1008.115
24.826564312,8.191048,-4.640236,-9.150362,0.1797507,-0.4834462,0.8527572,-31.9819,10.37926,-30.04593,1008.115
24.859124184,4.745511,1.307857,-7.069583,0.179567,-0.5187261,0.8087152,-31.9819,10.37926,-30.04593,1008.117
24.891684532,2.222884,-1.66619,-2.051233,0.1487926,-0.5046806,0.8379618,-31.97948,10.01028,-30.93546,1008.117
24.926749706,15.57434,3.330209,-0.5824471,0.1586001,-0.5213253,0.7859771,-31.60001,9.287884,-30.48536,1008.115
24.959310055,23.44986,-4.164389,-0.6436464,0.279091,-0.492621,0.8041837,-31.96406,8.916264,-31.3737,1008.116
24.991869926,12.74408,5.649966,2.232725,0.2669581,-0.3907083,0.9087094,-31.96406,8.916264,-31.3737,1008.116
25.026931286,-3.314587,1.307857,2.232725,0.2076931,-0.4487607,0.8933797,-32.32322,8.552387,-30.92383,1008.118
25.059491634,3.514961,-4.87816,-0.0928518,0.2398205,-0.4982054,0.8505406,-31.9527,8.188643,-31.36848,1008.118
25.092051983,-1.899455,-7.554802,-0.3376494,0.1143556,-0.4977701,0.9289753,-31.9527,8.188643,-31.36848,1008.118
25.127116680,-2.883894,-37.41423,-10.00715,0.1375999,-0.384676,0.8151512,-32.31591,8.19116,-30.47515,1008.114
25.159677028,22.65,-18.32085,-11.29234,0.2990957,-0.576506,0.8183526,-32.3072,7.832147,-29.64412,1008.116
25.192237377,3.761071,-16.17954,-5.4172,0.2688814,-0.3820772,0.9397754,-32.3072,7.832147,-29.64412,1008.117
25.227297783,15.94351,-20.16476,-3.703616,0.2912275,-0.4771747,0.8619295,-33.41229,8.188017,-29.64316,1008.119
25.259858608,1.11539,-17.48812,-4.988804,0.3066709,-0.5479489,0.8656685,-33.7674,7.45775,-29.63675,1008.119
25.292418957,19.5121,-20.75957,-4.682807,0.2967253,-0.4992413,0.8142166,-33.7674,7.45775,-29.63675,1008.116
25.324979305,35.38618,-20.28372,-6.029193,0.3287804,-0.48678,0.8375778,-34.4914,7.093811,-28.73962,1008.118
25.360044002,26.4647,-14.69252,-4.560408,0.3488424,-0.3679607,0.844205,-34.8465,6.363543,-28.73321,1008.12
25.392604351,33.35578,-11.12366,-1.561637,0.3328866,-0.3740847,0.8624952,-34.8465,6.363543,-28.73321,1008.122
25.425160885,35.32466,-5.116084,-1.867634,0.3647051,-0.4314707,0.8548217,-35.56077,5.269399,-28.27693,1008.122
25.460225105,32.37134,-4.937641,-4.254411,0.3976342,-0.4112046,0.8744342,-35.18131,4.547009,-27.82682,1008.123
25.492785931,31.87912,-8.744421,-2.418429,0.2766441,-0.30451,0.8984142,-35.18131,4.547009,-27.82682,1008.123
25.525346279,35.14007,-18.08293,-4.988804,0.3072096,-0.3371427,0.8945031,-36.25636,3.086408,-27.36674,1008.121
25.560411453,40.8006,-12.78913,-3.152822,0.3671522,-0.248573,0.9339833,-35.88989,3.089055,-27.36793,1008.123
25.592971325,27.75678,-15.0494,-1.928834,0.3560517,-0.2166142,0.9281977,-35.88989,3.089055,-27.36793,1008.123
25.625527859,18.34308,-13.14601,-2.112432,0.4020329,-0.2387517,0.9050968,-36.23363,1.631165,-27.35629,1008.121
25.660593033,14.22074,-9.458193,1.620731,0.3234666,-0.1834,0.9055338,-36.58144,0.5396695,-26.9012,1008.123
25.693152428,9.729234,-14.69252,0.2131452,0.3861782,-0.2194328,0.8865552,-36.58144,0.5396695,-26.9012,1008.124
25.725713253,3.268851,-12.31328,-4.866405,0.4207346,-0.3106337,0.8416265,-36.94059,0.1757941,-26.45133,1008.12
25.758273601,12.68255,-10.64781,-3.764816,0.3506093,-0.2293684,0.8322997,-36.56518,-0.1802034,-25.55776,1008.12
25.793338299,12.37491,-13.14601,-2.173631,0.355262,-0.1989454,0.8883477,-36.56518,-0.1802034,-25.55776,1008.122
25.825894356,3.576488,-13.68134,-4.682807,0.4576433,-0.1612701,0.9125092,-37.29407,-0.5518904,-25.99884,1008.124
25.858455181,-6.821651,-8.744421,-4.438009,0.4340092,-0.1696041,0.9670264,-37.29975,-0.1880798,-26.00146,1008.125
25.893520355,-19.37325,-8.62546,-1.622837,0.4403688,-0.179563,0.9310985,-37.29975,-0.1880798,-26.00146,1008.123
25.926079750,-19.37325,-13.85978,1.498333,0.4078422,-0.2238695,0.9618734,-37.71268,-0.9136229,-25.1027,1008.123
25.958640575,-26.14127,-15.16836,0.2743446,0.4227671,-0.2604037,0.9163476,-37.66133,-0.1829777,-24.66205,1008.123
25.993705750,-29.89445,-17.01227,2.110327,0.4757719,-0.2249156,0.8530321,-37.66133,-0.1829777,-24.66205,1008.125
26.026261330,-32.35555,-13.38393,2.72232,0.494635,-0.3180194,0.7544347,-38.46835,0.5363269,-25.11077,1008.126
26.058821678,-19.12714,-17.48812,5.109097,0.4205547,-0.2537629,0.8395941,-38.10266,0.9105334,-23.77635,1008.122
26.093886852,-31.55569,-13.5029,3.028317,0.5126594,-0.2284941,0.7843024,-38.10266,0.9105334,-23.77635,1008.124
26.126446724,-37.15469,-8.922864,8.291466,0.4836909,-0.2939559,0.7751142,-38.84533,1.635444,-23.33313,1008.124
26.159007072,-29.89445,-15.0494,11.35144,0.4495509,-0.3089904,0.8831942,-39.21422,2.001774,-22.44241,1008.126
26.191567898,-36.90858,-14.27615,7.86307,0.509451,-0.3595309,0.8403115,-39.21422,2.001774,-22.44241,1008.128
26.226628780,-33.03235,-13.68134,11.35144,0.4486822,-0.3282197,0.834564,-38.86317,3.098436,-22.00536,1008.129
26.259188652,-38.26218,-12.5512,12.14703,0.4786358,-0.4807941,0.8061051,-39.62451,4.912196,-22.01603,1008.127
26.291749000,-39.12357,-15.64421,5.598692,0.4505849,-0.4644462,0.764811,-39.62451,4.912196,-22.01603,1008.127
26.326814174,-25.89516,-13.68134,7.251076,0.5007203,-0.4328966,0.7043385,-40.00476,6.006148,-21.13054,1008.129
26.359374046,-30.32514,-15.70369,8.352665,0.4819016,-0.4515319,0.6871542,-40.3763,6.741086,-19.41401,1008.129
26.391934395,-29.89445,-13.20549,10.06625,0.5221426,-0.4786904,0.682834,-40.3763,6.741086,-19.41401,1008.13
26.426995754,-14.75869,-10.88573,13.92181,0.489853,-0.3776385,0.7056755,-40.01551,7.107543,-19.4178,1008.126
26.459555626,-3.991389,-9.398711,23.89731,0.4631695,-0.3301862,0.7745813,-41.14171,8.92124,-18.98122,1008.126
26.527181148,-35.18581,-4.22387,19.18496,0.540318,-0.6331521,0.6084368,-40.77928,9.290279,-18.53895,1008.128
26.559741497,-26.63349,-4.22387,16.85938,0.5154727,-0.633931,0.6016816,-40.79874,10.75069,-17.65725,1008.129
26.592301369,-22.26504,-4.818679,6.82268,0.4150301,-0.7114605,0.5831942,-40.79874,10.75069,-17.65725,1008.129
26.624857902,-13.28203,-3.331656,14.28901,0.5532617,-0.7190588,0.5133386,-40.08785,12.27444,-17.22444,1008.129
26.659923077,2.838159,2.319033,20.77614,0.6086368,-0.5589221,0.6191709,-41.20267,13.36052,-16.78263,1008.125
26.692482948,-3.868334,6.54218,28.85446,0.4756909,-0.4167485,0.5030409,-40.8362,13.36316,-16.78382,1008.125
26.725043297,-3.806806,13.50145,27.38568,0.4557118,-0.7423329,0.5420802,-40.8362,13.36316,-16.78382,1008.125
26.760108471,18.77377,24.20802,16.49218,0.4358938,-0.8197993,0.6332425,-40.84919,14.0882,-17.23511,1008.125
26.792668343,62.51979,26.28985,10.12745,0.3788629,-0.7354119,0.6162167,-39.77577,15.54622,-18.14127,1008.125
26.825224876,31.94064,16.89186,5.965888,0.3414533,-0.5569171,0.9065852,-39.77577,15.54622,-18.14127,1008.127
26.860290050,13.2363,7.434394,4.191106,0.3518123,-0.5380579,0.8507912,-39.41419,15.54112,-19.48067,1008.127
26.892849922,3.391906,8.742975,1.498333,0.3378374,-0.4863033,0.7592693,-39.02905,14.45492,-19.02796,1008.129
26.925410271,-2.945422,2.497476,-3.33642,0.4396609,-0.8009651,0.6702628,-39.02905,14.45492,-19.02796,1008.126
26.960475445,17.60475,7.077508,-10.68035,0.413994,-0.7379383,0.6311289,-39.39878,14.4471,-19.91891,1008.126
26.993035316,64.7963,-2.796328,-9.211562,0.3985271,-0.5668781,0.697076,-39.03394,14.44717,-20.36617,1008.126
27.025591850,49.04528,-6.959993,-0.8272446,0.3968969,-0.2088405,0.9389111,-39.03394,14.44717,-20.36617,1008.128
27.058152199,-3.437642,-8.209093,2.78352,0.4238211,-0.3622073,0.8625886,-39.39045,13.71468,-20.74211,1008.13
27.093217373,-17.83507,2.021629,-2.357229,0.412115,-0.6368949,0.7423988,-39.36633,12.26165,-20.34932,1008.131
27.125777245,-1.899455,7.850761,-7.987574,0.4047854,-0.6944372,0.6574204,-39.36633,12.26165,-20.34932,1008.131
27.193402767,42.27726,-2.796328,1.131136,0.3435376,-0.2869062,0.8531807,-39.7415,12.61802,-21.17916,1008.127
27.225958347,-10.39024,-4.997122,3.028317,0.4200042,-0.2925977,0.8278845,-39.7415,12.61802,-21.17916,1008.129
27.258519172,-18.88103,1.664743,8.169067,0.4378545,-0.419356,0.7524601,-39.37098,12.25427,-21.62381,1008.129
27.293583870,-21.40366,6.363737,5.721091,0.4232921,-0.6861157,0.6971664,-38.99625,11.83506,-21.17588,1008.129
27.326143741,-0.4227962,9.516227,1.559532,0.3606693,-0.7333663,0.7545112,-38.99625,11.83506,-21.17588,1008.129
27.358704567,10.52909,3.806057,-1.928834,0.4420861,-0.5401378,0.71291,-39.0003,12.20145,-20.73242,1008.129
27.393769741,9.052432,-0.8929374,3.946308,0.4027196,-0.3265675,0.7674442,-39.01424,12.98713,-21.18415,1008.131
27.426325321,-9.405806,4.222424,5.292695,0.3667532,-0.4416164,0.8474144,-39.01424,12.98713,-21.18415,1008.127
27.458885670,-13.58967,5.709447,9.148257,0.3616877,-0.5225405,0.7804454,-39.00856,12.62332,-21.18154,1008.128
27.491446495,-15.98924,-6.305703,11.10664,0.3962917,-0.5677495,0.7748885,-38.64372,12.62338,-21.6288,1008.128
27.526510715,-6.575541,0.2372005,8.597463,0.3967412,-0.6522228,0.7557144,-38.64372,12.62338,-21.6288,1008.128
27.559071064,1.915247,7.315433,8.291466,0.3921389,-0.4675629,0.7483851,-38.59074,13.35661,-20.74207,1008.128
27.591631889,-3.560697,3.984499,15.207,0.3537827,-0.3319358,0.8452332,-38.65914,13.7174,-21.19056,1008.13
27.626692295,-16.29688,-2.201518,18.20577,0.312146,-0.5998821,0.8658377,-38.65914,13.7174,-21.19056,1008.13
27.659252644,-19.31173,2.675919,6.76148,0.421501,-0.7600915,0.608065,-37.87485,14.45333,-20.75228,1008.13
27.691812992,4.437873,13.85834,-1.867634,0.4044782,-0.7137964,0.6387571,-37.52705,15.54483,-21.20738,1008.13
27.726877689,15.57434,13.08508,2.293925,0.3302452,-0.5813039,0.7873132,-37.52705,15.54483,-21.20738,1008.126
27.759438038,13.72852,6.54218,4.986698,0.3407628,-0.5252168,0.7746242,-37.53273,15.90864,-21.20999,1008.126
27.791998386,12.31339,5.352561,3.334314,0.3333375,-0.5939434,0.7967849,-37.88947,15.17579,-21.64965,1008.126
27.827059269,13.66699,12.66872,3.946308,0.4096455,-0.6050526,0.6805314,-37.88947,15.17579,-21.64965,1008.126
27.859619617,22.21931,12.96612,11.47383,0.3363044,-0.5132449,0.8009135,-37.52626,15.17327,-22.54298,1008.127
27.892179966,21.17334,9.516227,18.26697,0.3467905,-0.5734586,0.8193198,-37.52789,15.17069,-22.98906,1008.129
27.927244663,29.11038,12.7282,30.50685,0.4399089,-0.6009871,0.7279351,-37.52789,15.17069,-22.98906,1008.129
27.959805012,55.62872,25.5166,45.86789,0.4039382,-0.5464569,0.8167763,-36.7909,14.80959,-23.43489,1008.131
27.992365360,42.64642,25.33816,56.51659,0.3216018,-0.6399742,1.157176,-36.07258,15.53734,-24.33464,1008.131
28.024921417,12.5595,32.17846,67.65488,0.41298,-0.6959683,1.015088,-36.07258,15.53734,-24.33464,1008.131
28.059986591,19.32752,32.71379,82.52634,0.4022079,-0.6465917,1.027453,-34.97076,15.1763,-25.22774,1008.133
28.092546940,-39.73884,22.95892,77.01839,0.8176304,-0.6954474,0.9919866,-33.53249,16.63438,-26.58115,1008.133
28.125106812,-58.38166,41.63593,72.24483,0.4427273,-0.7285336,0.6757153,-33.53249,16.63438,-26.58115,1008.128
28.160171985,-41.46161,24.20802,80.26196,0.4397982,-0.9684647,0.5260779,-31.7318,18.4615,-27.49229,1008.128
28.192732334,9.175487,18.49785,83.50552,0.3160307,-0.6844149,0.6571756,-28.84954,21.75956,-27.07923,1008.128
28.225287914,-2.453202,32.71379,66.1861,0.2669826,-0.7052753,0.6153343,-28.84954,21.75956,-27.07923,1008.127
28.260353088,2.038302,46.39441,41.21674,-0.02530645,-0.6423867,0.4841306,-27.42506,24.31423,-27.54834,1008.128
28.292913914,10.15993,42.88503,17.96097,-0.01382014,-0.2960668,0.4565335,-25.96649,24.68605,-28.00178,1008.127
28.325473308,-40.84634,116.9388,-13.43432,0.06747687,-0.8646134,-0.07523269,-25.96649,24.68605,-28.00178,1008.127
28.360538483,85.28495,144.419,-11.04754,-0.279213,-0.1504475,0.1660849,-24.51258,25.05048,-29.7297,1008.122
28.393099308,88.91507,179.9886,-15.3927,-0.3561023,0.298787,0.3378443,-22.31544,24.31808,-33.30019,1008.122
28.425654888,-32.04791,211.9299,-14.41351,-0.3352707,-0.2987632,0.2363828,-18.96939,20.31673,-37.29681,1008.122
28.458215237,50.52194,220.1382,0.2743446,-0.9279996,-0.3514033,0.1737961,-18.96939,20.31673,-37.29681,1008.124
28.493280411,33.54036,180.167,-9.456359,-1.105015,-0.1889904,1.455943,-12.3003,18.89186,-40.36674,1008.124
28.525840282,137.7064,141.3855,-22.73663,-1.667368,-2.427091,1.021138,-4.945742,17.12058,-41.26961,1008.124
28.558400631,269.1905,94.81189,-4.805206,-0.1537486,1.32686,0.3509168,-4.945742,17.12058,-41.26961,1008.122
28.593465805,-108.9572,113.5484,-2.479628,-0.8059365,-1.035612,1.029451,1.281784,16.78885,-43.51756,1008.125
28.626021862,26.15706,83.98636,21.81653,-0.7098516,0.006927056,0.8712481,4.402193,8.748573,-43.02332,1008.125
28.658582210,16.25114,74.58837,22.06133,-0.8959046,-0.2406187,0.4833664,4.402193,8.748573,-43.02332,1008.125
28.693647385,0.3770607,76.01591,16.92058,-1.053521,-0.4947542,0.3418789,7.717473,7.680963,-43.02618,1008.125
28.726207256,9.360069,70.00834,10.61704,-0.8881227,-0.4751751,0.3579695,10.65329,7.335742,-43.47916,1008.125
28.758767605,25.04957,70.18678,15.57419,-0.722109,-0.2534365,0.593213,10.65329,7.335742,-43.47916,1008.127
28.793832779,-12.23607,73.93408,17.77737,-0.8116462,-0.1925213,0.514955,13.22589,6.993042,-43.0388,1008.129
28.826388836,-10.45177,72.50654,17.96097,-0.9709345,-0.4505699,0.2680333,16.16497,6.652988,-42.59962,1008.126
28.858949184,12.92866,73.63667,14.8398,-0.9376942,-0.5145242,0.2128873,16.16497,6.652988,-42.59962,1008.126
28.891509533,26.09554,70.00834,17.83857,-0.9806948,-0.2121781,0.3992912,18.74652,5.951644,-41.2645,1008.126
28.926574230,1.3615,58.88541,25.1213,-1.010525,-0.1567432,0.4141836,21.32481,5.245132,-40.82153,1008.126
28.959134579,-22.94184,51.92614,26.59008,-0.8825782,-0.3168719,0.1916807,21.32481,5.245132,-40.82153,1008.126
28.991694927,-2.637785,51.80717,26.77368,-0.846415,-0.4696189,0.1124585,23.59365,4.902809,-39.9341,1008.128
29.026755333,14.95907,52.63991,24.32571,-0.8792453,-0.2591957,0.2360613,26.1549,5.28773,-39.49897,1008.128
29.059316158,10.22145,49.19001,24.32571,-0.9849928,-0.163988,0.264685,26.1549,5.28773,-39.49897,1008.13
29.091875553,4.499401,45.02635,24.5093,-1.058757,-0.2039361,0.1814893,27.6368,4.578076,-38.22401,1008.128
29.126940727,1.85372,39.85151,23.46892,-1.014938,-0.2660798,0.07947317,30.21532,3.871933,-37.71731,1008.132
29.159501552,0.7462255,34.67666,19.79695,-0.9959497,-0.1727183,0.1234164,30.21532,3.871933,-37.71731,1008.128
29.192061424,12.68255,29.08546,19.30736,-0.947386,-0.2103139,0.08702603,31.69723,3.162279,-36.44235,1008.128
29.227122307,7.083554,26.7657,18.94016,-0.9523819,-0.199683,0.08622629,32.81695,2.083952,-35.54594,1008.133
29.259682655,1.60761,22.54255,20.16415,-1.013507,-0.1306225,0.114408,32.81695,2.083952,-35.54594,1008.133
29.292242527,-6.329432,19.56851,21.02094,-1.008257,-0.1265533,0.0898128,33.91962,2.097059,-34.65736,1008.135
29.324802875,-12.91287,19.68747,19.67455,-0.9452522,-0.1888054,0.06608353,34.29504,1.741061,-33.7638,1008.133
29.359868049,3.453434,20.81761,17.59377,-1.016046,-0.1299881,0.07478323,34.29504,1.741061,-33.7638,1008.133
29.392427921,-2.453202,20.46072,14.7174,-1.05304,-0.08727117,0.08707169,34.67855,0.6522756,-33.75716,1008.134
29.424984455,0.3155332,18.61681,11.53503,-0.9879645,-0.1274235,0.01920692,35.78527,0.2989879,-33.31204,1008.136
29.460049629,3.084269,16.41602,9.087058,-0.9719443,-0.1204661,0.03138202,35.78527,0.2989879,-33.31204,1008.138
29.492609501,-1.038071,13.08508,6.394284,-0.9902421,-0.1073464,-0.02012148,36.88795,0.3120942,-32.42346,1008.138
29.525169849,1.546082,8.326609,5.598692,-1.005566,-0.1375089,-0.0573035,36.89363,-0.0517168,-32.42085,1008.138
29.560234547,1.238445,6.244775,2.905919,-1.019076,-0.09231035,0.01058849,36.89363,-0.0517168,-32.42085,1008.14
29.592794895,-6.514014,6.066333,1.865529,-0.9737362,-0.1412274,-0.003736123,37.6282,-0.04383993,-31.97715,1008.135
29.625351429,-5.468048,6.661142,4.313505,-1.004118,-0.1255773,-0.005401542,37.99467,-0.04119349,-31.97834,1008.139
29.660415649,-6.452487,4.103462,0.8251392,-0.9813324,-0.07853951,-0.02355761,37.99467,-0.04119349,-31.97834,1008.14
29.692976475,-5.283465,2.913843,0.3967434,-0.9650225,-0.1448245,-0.04246956,37.62983,-0.0412569,-31.53108,1008.14
29.725536823,-5.098883,2.854362,0.09074639,-0.9862295,-0.1160705,-0.01397455,37.62983,-0.0412569,-31.53108,1008.14
29.758096695,-0.6073786,1.605262,-1.622837,-1.007952,-0.09155095,-0.01744652,37.62983,-0.0412569,-31.53108,1008.142
29.793161869,-0.2997413,-1.606709,-2.663227,-0.9925568,-0.1275731,-0.06731538,38.00362,-0.399838,-31.08359,1008.142
29.825718403,-5.960267,-2.082556,-2.602027,-0.9819563,-0.1471487,-0.007685541,37.63552,-0.4050674,-31.52847,1008.144
29.858277798,-2.945422,-1.785152,-2.785625,-0.987806,-0.102561,0.003151264,37.63552,-0.4050674,-31.52847,1008.14
29.893342972,1.423028,-1.130861,-3.214021,-0.9888446,-0.1456809,-0.02940846,38.72356,0.3304935,-31.53726,1008.14
29.925903797,3.699543,-1.368785,-2.908024,-1.005682,-0.1244553,-0.04260293,38.35141,0.6916575,-31.53868,1008.141
29.958463669,1.546082,-2.855808,-2.357229,-0.9876842,-0.1175275,-0.01834577,38.35141,0.6916575,-31.53868,1008.141
29.993528366,0.8077529,-3.391137,-0.4600482,-1.004677,-0.1135612,0.0223348,37.99225,0.3277831,-31.08881,1008.143
30.026084423,-5.529575,-2.142037,-1.31684,-1.005917,-0.1401426,-0.01383943,37.61847,0.6863637,-31.5363,1008.145
30.058644772,2.899687,-1.190342,-1.745235,-0.9878783,-0.1356663,0.01521406,37.61847,0.6863637,-31.5363,1008.145
30.093709946,4.499401,-0.298128,-0.5212476,-1.008687,-0.1134032,-0.02357972,38.71951,0.6968865,-31.0938,1008.141
30.126269817,3.145796,-0.8334565,-0.27645,-1.021185,-0.1319383,-0.04463564,37.97763,1.05024,-31.98618,1008.142
30.158830166,0.684698,-3.331656,-3.642417,-0.9865184,-0.1321338,-0.009385573,37.62983,-0.0412569,-31.53108,1008.142
30.191390991,6.406752,-3.450618,-6.579988,-0.9477593,-0.1074864,0.0252728,37.62983,-0.0412569,-31.53108,1008.142
30.226451397,-4.175971,-2.97477,-5.294801,-0.9505485,-0.1619307,0.0196111,37.252,0.6837173,-31.53512,1008.142
30.259011745,-6.698596,-1.368785,-4.37681,-0.9895204,-0.16336,0.008509247,37.61684,0.6837811,-31.98238,1008.144
30.291572094,-0.3612688,-1.309304,-4.560408,-0.9978654,-0.1039497,0.0654954,37.61684,0.6837811,-31.98238,1008.146
30.326636791,-3.253059,-0.4170899,-3.703616,-0.966708,-0.1500848,0.04010925,37.25037,0.6811347,-31.98119,1008.142
30.359197140,-2.02251,2.259552,-4.499208,-0.9209431,-0.1470958,0.04832809,37.23901,1.408757,-31.98641,1008.144
30.391757011,-1.591818,5.055157,-5.294801,-0.9548573,-0.1754395,-0.01442721,37.23901,1.408757,-31.98641,1008.144
30.426817894,9.237015,8.267127,-2.602027,-0.9859294,-0.177917,0.01360084,37.23901,1.408757,-31.98641,1008.145
30.459378719,5.053148,10.05156,-0.9496434,-0.9605893,-0.13725,0.01419681,37.97195,1.414051,-31.98879,1008.145
30.491938591,-8.298311,10.28948,-2.969223,-0.9624629,-0.2072705,-0.08982891,37.97195,1.414051,-31.98879,1008.147
30.527003288,-0.6073786,7.374913,-4.744006,-0.9891238,-0.1693716,-0.0573221,37.60143,1.777796,-31.54414,1008.147
30.559563160,-0.4227962,4.341385,-6.273991,-1.048733,-0.1559846,-0.07252838,37.97358,1.416633,-31.54272,1008.145
30.592123985,3.514961,0.4751242,-9.762357,-1.079848,-0.1650428,-0.09342176,37.97358,1.416633,-31.54272,1008.145
30.627184868,9.360069,1.069934,-15.1479,-1.088778,-0.1306112,0.003787532,39.06163,2.152194,-31.5515,1008.146
30.659744739,20.31196,-2.677366,-17.65708,-1.206747,-0.07584632,0.02020497,38.34005,1.41928,-31.5439,1008.148
30.692305088,18.71224,-6.603107,-20.59465,-1.193896,-0.08649211,0.04661587,38.34005,1.41928,-31.5439,1008.145
30.724865913,26.4647,-6.484146,-22.73663,-1.087126,-0.06732112,-0.01506694,37.96385,2.146837,-31.10187,1008.145
30.759930134,16.98947,-1.309304,-21.26784,-0.8665972,-0.1692836,0.06002155,38.33274,1.780508,-31.99259,1008.145
30.792490482,3.514961,3.508652,-13.25072,-0.7993218,-0.3870521,0.04648335,38.33274,1.780508,-31.99259,1008.145
30.825046539,-7.129289,7.13699,6.333085,-0.5962154,-0.2771197,0.1799264,36.49876,1.76469,-32.43272,1008.145
30.860111713,-38.01607,11.95495,2.599922,-0.8097953,-0.3140756,-0.1056236,37.22033,2.497605,-32.44032,1008.145
30.892672062,7.698828,14.86951,-2.846825,-1.12278,-0.5117854,-0.3814458,37.22033,2.497605,-32.44032,1008.145
30.925231934,33.60189,6.601661,-6.151592,-1.236004,-0.1051667,-0.1344113,37.59575,2.141607,-31.54675,1008.145
30.960297108,26.77234,-6.424664,-7.865175,-1.075512,0.04367105,0.08474068,38.31569,2.87194,-32.00042,1008.143
30.992857456,2.038302,-5.235046,-7.436779,-0.7307919,-0.1859102,0.1505117,38.31569,2.87194,-32.00042,1008.143
31.025455952,-4.975828,-3.093732,-4.560408,-0.8354442,-0.2087523,0.06470647,38.33437,1.78309,-31.54651,1008.145
31.060521126,-49.2756,-1.606709,-0.4600482,-0.9952853,-0.414901,-0.161121,37.59412,2.139024,-31.99282,1008.145
31.093080997,22.83458,5.174119,4.558302,-0.8333668,-0.5847844,-0.2793962,37.59412,2.139024,-31.99282,1008.145
31.125641346,3.576488,15.82121,3.273115,-0.6921832,-0.2844808,0.1344693,38.31406,2.869357,-32.44649,1008.146
31.158201694,-31.43263,11.00325,7.251076,-0.9502208,-0.100335,0.04858637,38.31569,2.87194,-32.00042,1008.146
31.193266392,-41.15397,17.48667,4.252305,-1.067678,-0.4503865,-0.2597181,38.31569,2.87194,-32.00042,1008.144
31.225822925,28.43358,11.65754,1.008737,-1.082631,-0.1862609,-0.1377301,38.68216,2.874587,-32.00161,1008.144
31.258382797,13.72852,4.579309,-5.111203,-0.8337632,-0.09325244,0.1070706,39.40537,3.610084,-31.56314,1008.144
31.293447971,-3.006949,-0.298128,-4.805206,-1.249137,-0.2160702,-0.2579016,39.40537,3.610084,-31.56314,1008.147
31.326008320,10.34451,-8.565978,-2.112432,-1.08058,-0.1750088,-0.04185177,39.41269,3.248856,-31.11445,1008.147
31.358568191,4.068708,-13.20549,-1.745235,-0.9260587,-0.2108063,0.04301064,40.15131,2.890339,-31.11422,1008.145
31.393633365,13.72852,-12.5512,5.353894,-0.7578372,-0.2940514,0.1271359,40.15131,2.890339,-31.11422,1008.145
31.426188946,21.2964,-12.49172,2.905919,-0.9972026,-0.2278682,-0.2544578,39.40537,3.610084,-31.56314,1008.145
31.458749294,-33.33998,-8.863383,10.00505,-1.253635,-0.2367881,-0.2040751,38.32706,2.144318,-31.9952,1008.147
31.493814468,5.176203,-10.11248,22.18373,-0.9439988,-0.1632002,0.1032096,38.32706,2.144318,-31.9952,1008.149
31.526374340,-14.14342,-6.484146,23.28532,-0.8192801,-0.1170339,0.1410136,37.96301,1.772695,-32.88354,1008.144
31.558934688,-32.66319,3.270728,18.69536,-0.8581553,-0.2701938,0.04445595,37.22844,1.764818,-33.32724,1008.146
31.591495514,-24.8492,7.672318,15.4518,-0.9661097,-0.2714522,-0.0941882,37.22844,1.764818,-33.32724,1008.146
31.626555920,-3.929861,6.54218,13.37102,-0.9777012,-0.1497125,-0.07250126,37.96706,1.406301,-33.327,1008.148
31.659116268,5.914532,3.984499,12.63662,-0.9895495,-0.1410086,-0.09652588,37.96464,1.775278,-32.43747,1008.15
31.691676140,7.206609,9.75415,15.0846,-1.015921,-0.176827,-0.09753025,37.96464,1.775278,-32.43747,1008.145
31.726741314,20.61959,10.58688,13.37102,-0.9996249,-0.2031909,-0.1313012,38.33516,1.411531,-32.88212,1008.145
31.759301662,16.12809,13.26353,5.292695,-0.9374798,-0.2257674,-0.1186544,39.08514,0.3253922,-32.87666,1008.147
31.791861534,9.360069,15.40484,1.131136,-0.8876639,-0.1912008,-0.09593984,39.08514,0.3253922,-32.87666,1008.147
31.826922893,10.22145,6.720623,2.416323,-0.9603688,-0.2217806,-0.09923645,39.45892,-0.0331893,-32.42917,1008.147
31.859482288,26.40318,10.34896,12.69782,-0.9802408,-0.1029983,-0.09208795,39.10545,-0.7608747,-31.97669,1008.149
31.892043114,36.43215,12.07391,16.55338,-1.002452,0.0293711,0.01919613,39.10545,-0.7608747,-31.97669,1008.144
31.927108288,11.02131,7.850761,23.59131,-1.104578,0.1470077,0.04235799,39.48086,-1.116872,-31.08312,1008.146
31.959668159,-19.80395,4.698271,28.73206,-1.079934,0.1111128,-0.008967987,39.51821,-3.294571,-30.17531,1008.146
31.992228508,-19.98853,11.95495,33.13842,-1.059768,-0.01349426,-0.1230319,39.15905,-3.658445,-29.72544,1008.146
32.024784088,13.60546,20.46072,39.50316,-1.060171,-0.0701957,-0.1596665,39.15905,-3.658445,-29.72544,1008.148
32.059849262,36.80132,19.39006,45.5007,-1.083432,0.0518358,-0.1287797,39.17773,-4.747294,-29.27153,1008.148
32.092409611,29.04885,22.24515,48.62187,-1.087638,0.04479792,-0.08972946,39.57991,-6.92493,-28.81098,1008.144
32.124969482,21.35792,33.36808,49.05026,-1.024458,0.03823783,-0.1754482,39.57991,-6.92493,-28.81098,1008.144
32.160034656,20.31196,31.82158,49.17266,-0.9976925,0.0519332,-0.1182266,40.00071,-9.880857,-26.62421,1008.145
32.192594528,16.06656,41.21957,50.64145,-1.058771,0.08904212,-0.2234611,40.04615,-12.79134,-26.60332,1008.147
32.225151062,13.35935,36.04473,49.96825,-1.066105,0.1374584,-0.2038636,40.04615,-12.79134,-26.60332,1008.145
32.260215759,3.268851,37.17486,50.64145,-1.09258,0.2281757,-0.2425743,40.81403,-14.59477,-24.80836,1008.145
32.292776108,1.792192,42.82555,49.66226,-1.118991,0.1810141,-0.3138414,40.87978,-18.59152,-23.88749,1008.145
32.325336456,4.314818,45.62116,46.60229,-1.103229,0.1547296,-0.3664623,40.87978,-18.59152,-23.88749,1008.145
32.360401153,29.47955,39.31618,52.59983,-1.129665,0.3081006,-0.2896569,41.66307,-21.48897,-22.53077,1008.145
32.392961502,24.68041,44.43154,49.47866,-1.029987,0.3628806,-0.2937511,41.33557,-23.66673,-21.17569,1008.147
32.425517082,23.69597,51.86666,49.78466,-1.000385,0.4047765,-0.3371278,41.33557,-23.66673,-21.17569,1008.148
32.458077907,31.87912,59.59918,48.62187,-1.013219,0.4115878,-0.3751982,41.76291,-27.66858,-21.59423,1008.148
32.493143082,65.84227,55.91136,55.4762,-1.011152,0.4061627,-0.3520809,42.56739,-32.45863,-22.45437,1008.144
32.525702476,65.84227,70.54367,58.10777,-1.008154,0.5551826,-0.4087823,42.56739,-32.45863,-22.45437,1008.144
32.558263302,89.09965,63.94128,67.96088,-1.042743,0.5951879,-0.2220385,42.24311,-35.37693,-23.32444,1008.144
32.593327522,58.70509,74.172,75.9168,-1.040746,0.4896482,-0.306308,40.78938,-36.4867,-24.65007,1008.144
32.625884056,65.65769,62.51374,90.54346,-0.9997661,0.4396824,-0.316294,40.78938,-36.4867,-24.65007,1008.144
32.658444405,64.24255,63.64388,92.86903,-0.9817266,0.4455834,-0.2799681,36.37716,-35.0503,-22.41589,1008.142
32.693509102,75.93278,56.38721,91.76744,-0.8468089,0.4088107,-0.2502066,30.84909,-32.15664,-18.46802,1008.141
32.726069450,60.98161,49.07105,91.15545,-0.8400781,0.3701128,-0.2711053,30.84909,-32.15664,-18.46802,1008.135
32.758629322,80.67039,29.85871,94.82742,-0.72325,0.4244446,-0.2346193,24.97874,-29.97295,-11.00889,1008.135
32.793694496,85.28495,19.68747,104.5581,-0.5564227,0.5224649,-0.256487,21.60886,-27.71497,-4.32302,1008.135
32.826251030,88.23827,19.03318,112.1468,-0.5281494,0.5564903,-0.2830643,21.60886,-27.71497,-4.32302,1008.135
32.858810902,32.61745,20.28228,107.3121,-0.5482067,0.2851576,-0.4167295,18.31618,-26.61156,1.861128,1008.133
32.891371250,20.43501,5.29308,97.33659,-0.5990736,0.2160548,-0.4361029,15.7556,-25.87701,6.261223,1008.131
32.926435947,28.18747,-2.736847,100.6414,-0.5716539,0.2346283,-0.487084,15.7556,-25.87701,6.261223,1008.125
32.958996296,9.113959,-11.65899,92.99143,-0.5240468,0.1461537,-0.5595362,13.55278,-24.78079,9.829096,1008.122
32.991556168,9.421597,-13.5029,81.85314,-0.3439921,0.09549949,-0.6600584,12.07699,-23.31584,13.32826,1008.122
33.026617050,10.95978,-6.78155,68.81767,-0.3077064,-0.02328249,-0.726678,12.07699,-23.31584,13.32826,1008.12
33.059177399,23.38833,-3.748023,51.13104,-0.3677723,-0.1182857,-0.8474635,10.98815,-23.67984,14.67265,1008.116
33.091737270,27.5722,-2.97477,39.74796,-0.3695385,-0.01036965,-0.8569331,10.26499,-23.66964,17.35146,1008.115
33.126802444,28.43358,-2.677366,23.89731,-0.2868504,-0.07517602,-1.009782,10.26499,-23.66964,17.35146,1008.113
33.159362316,51.93707,0.7725289,14.7786,-0.2461148,0.03208986,-0.9685479,10.27315,-23.65672,19.58182,1008.113
33.191922664,39.50852,-11.71847,13.06502,-0.2410757,0.2850117,-0.890254,10.26645,-22.92172,20.85109,1008.111
33.226983547,20.43501,-18.49929,7.985468,-0.2012409,0.1702979,-0.8799582,10.26645,-22.92172,20.85109,1008.111
33.259543896,26.34165,-16.47694,3.701511,-0.2360651,0.2325555,-0.8833251,9.904868,-22.91662,22.19049,1008.111
33.292104244,10.0984,-28.49209,-1.928834,-0.2812333,0.1875739,-0.8472311,10.99781,-22.17331,23.51992,1008.105
33.327168941,20.8657,-35.035,-8.660768,-0.2231998,0.1240181,-0.9188298,10.99781,-22.17331,23.51992,1008.105
33.359729290,25.48026,-33.7859,-7.191982,-0.2549984,0.2393371,-0.8261649,11.35292,-21.44304,23.51351,1008.109
33.392289162,11.32895,-34.02382,-9.089163,-0.1903845,0.2490159,-0.8454147,12.43529,-20.34367,23.50211,1008.108
33.424845695,2.222884,-30.81185,-10.25195,-0.2290557,0.1957267,-0.7809345,12.43529,-20.34367,23.50211,1008.104
33.459910869,10.83673,0.8320099,-17.65708,-0.2176623,0.05193974,-1.189176,13.52902,-19.97192,23.49593,1008.102
33.492470264,44.98447,42.88503,-2.785625,-0.4886536,0.3665514,-1.570816,14.60571,-18.50873,23.48192,1008.102
33.525031090,71.13363,48.2978,1.80433,-0.7525709,0.5522252,-1.264168,14.60571,-18.50873,23.48192,1008.104
33.560095310,39.93922,17.42719,-7.559178,-0.8436725,0.322791,-0.7730856,14.94298,-16.31547,24.80328,1008.104
33.625211716,-23.7417,-16.23902,-14.47471,-0.4655468,0.09584793,-0.9760642,14.55137,-14.4939,25.68356,1008.105
33.660276890,-6.944706,-31.34718,-0.2152506,-0.4197339,0.1904316,-0.9103763,14.18084,-14.13015,26.12821,1008.105
33.692837238,23.44986,-16.59591,-2.540828,-0.2537601,0.1585439,-0.9037722,14.54327,-13.76111,26.57048,1008.099
33.725397110,24.06513,-0.298128,-6.39639,-0.2489959,0.2652256,-0.8373768,15.28268,-14.49119,25.23511,1008.101
33.760462284,8.990905,24.08906,-14.10751,-0.3914636,0.2900415,-0.8247763,15.28268,-14.49119,25.23511,1008.101
33.793022156,13.05172,20.46072,-12.21033,-0.5072217,0.1870901,-0.8542711,14.90242,-13.39724,26.12061,1008.103
33.825578690,18.40461,14.39366,-7.926375,-0.478643,0.1402348,-0.9420214,15.26079,-12.6618,27.00634,1008.103
33.858138561,23.26527,4.400867,-3.27522,-0.4341072,0.2880971,-0.9460924,15.26079,-12.6618,27.00634,1008.105
33.893203258,8.437158,9.516227,-9.456359,-0.4365292,0.2044455,-0.9405989,15.62889,-12.65657,27.45123,1008.105
33.925764084,-2.330148,13.44197,-10.37435,-0.3862036,0.05799067,-0.973818,14.87891,-11.57044,27.44577,1008.106
33.958323956,15.14365,7.553356,-3.703616,-0.4035677,0.1401046,-0.9121264,14.87891,-11.57044,27.44577,1008.106
33.993389130,11.39048,5.471523,-3.27522,-0.375338,0.1965634,-0.8494201,14.87486,-11.20404,27.88923,1008.106
34.025944710,3.761071,6.363737,-4.31561,-0.3005742,0.245459,-0.9130353,14.87323,-11.20662,27.44316,1008.106
34.058505058,0.3770607,8.861937,-5.233602,-0.3634698,0.1583354,-0.9582912,14.87323,-11.20662,27.44316,1008.102
34.093569756,-0.3612688,1.843186,-5.784396,-0.4057135,0.0763443,-0.8981124,14.87081,-10.83765,28.33269,1008.104
34.126130104,10.71367,3.925019,-0.9496434,-0.3392897,0.1366597,-0.9320594,14.50271,-10.84288,27.88781,1008.104
34.158689976,16.06656,5.29308,1.253535,-0.377654,0.1625464,-0.9630469,14.50271,-10.84288,27.88781,1008.106
34.193755150,15.75892,10.28948,-0.9496434,-0.3849585,0.1695859,-0.9290961,14.50271,-10.84288,27.88781,1008.106
34.226311683,4.437873,6.54218,-4.927604,-0.4172156,0.101958,-0.8991607,14.85945,-10.11003,28.32747,1008.106
34.258871555,-1.591818,5.412042,-3.030423,-0.4139464,0.1070132,-0.9324396,14.85945,-10.11003,28.32747,1008.106
34.291431904,9.729234,2.913843,1.375934,-0.3941787,0.1157186,-0.9729296,14.13545,-10.47396,29.2246,1008.107
34.326496124,11.452,-1.249823,2.538722,-0.3404553,0.1108941,-0.9339015,14.49298,-10.11267,28.32866,1008.107
34.359056949,4.191763,4.043981,1.74313,-0.3298284,0.1183246,-0.9342818,14.49298,-10.11267,28.32866,1008.107
34.391616821,-3.929861,6.482699,2.049127,-0.3867503,0.1445438,-0.9845814,14.86676,-10.47125,28.77615,1008.103
34.426677704,-8.975113,8.861937,2.232725,-0.3992962,0.1911439,-1.113887,14.84972,-9.379822,28.76832,1008.103
34.459238052,-19.12714,14.45315,-0.03165241,-0.3084754,0.1737967,-1.100221,14.84972,-9.379822,28.76832,1008.103
34.491797924,-32.78624,19.68747,1.865529,-0.03327299,0.2565562,-1.089557,13.76735,-10.47919,28.77972,1008.103
34.526863098,-24.60309,36.28265,15.207,0.04120256,0.302229,-1.086998,13.7728,-10.84337,28.7186,1008.103
34.559422970,-10.02108,66.91533,25.79449,-0.004005823,0.3095824,-1.017236,13.7728,-10.84337,28.7186,1008.1
34.591983318,-12.54371,90.11289,26.52888,-0.136223,0.2328722,-0.8805164,12.34021,-12.66527,30.07463,1008.1
34.627043724,-26.38738,85.53286,30.50685,-0.2006118,0.1928741,-0.7138161,11.62758,-13.75683,30.97699,1008.1
34.659604549,-34.38595,78.03826,32.77122,-0.2433542,0.1474647,-0.6835315,11.62758,-13.75683,30.97699,1008.102
34.692164421,-33.89373,58.94489,32.40403,-0.2287494,0.1115707,-0.6575075,9.441747,-14.49774,31.43541,1008.102
34.724724770,-34.57053,46.097,31.97563,-0.1562654,0.1401758,-0.7542998,7.267279,-15.96629,31.89906,1008.104
34.759789944,-33.58609,39.73254,24.01971,-0.1644592,0.1940228,-0.8617468,7.267279,-15.96629,31.89906,1008.1
34.792349815,-33.77068,39.79203,19.42975,-0.06537138,0.223358,-0.8299754,5.450339,-17.07353,31.46677,1008.102
34.824906349,-25.58753,33.42756,15.1458,-0.1754172,0.09224093,-0.8483044,4.35987,-17.44012,32.36509,1008.102
34.859970570,4.314818,10.11104,9.270657,-0.1411802,0.05394061,-0.7715814,4.35987,-17.44012,32.36509,1008.1
34.892530918,21.05029,-9.577154,-0.4600482,-0.134461,0.2057623,-0.6866142,3.635029,-18.1782,31.48055,1008.1
34.925090790,1.299973,-35.57032,-10.92515,-0.1594905,0.5126523,-0.6983429,2.848322,-18.54516,31.9318,1008.102
34.960155964,37.23201,-61.92038,-7.987574,-0.1102139,0.3021143,-1.068485,2.848322,-18.54516,31.9318,1008.099
34.992715836,93.22199,3.38969,7.557073,-0.09424508,0.5337418,-1.403331,3.982037,-16.71514,32.36105,1008.101
35.025272369,30.15635,11.71702,11.47383,0.0004201385,0.2359513,-0.9516577,5.048992,-14.52176,32.78789,1008.101
35.060336590,59.75106,-1.963594,0.7639397,-0.0337309,0.2702897,-1.012006,5.048992,-14.52176,32.78789,1008.101
35.092897415,39.44699,-1.844633,0.947538,0.007988678,0.1552963,-0.829151,5.036841,-13.42257,34.11827,1008.103
35.125457764,21.11181,-1.606709,0.4579428,0.01060884,0.153507,-0.9616261,4.653327,-12.33379,34.11163,1008.103
35.158017635,11.20589,0.2966814,0.335544,0.0013241,0.107843,-0.9927666,4.653327,-12.33379,34.11163,1008.1
35.193082809,-1.161126,0.653567,-0.2152506,-0.01446568,0.1208604,-1.014788,4.273075,-11.23984,34.99713,1008.1
35.225638389,-7.806091,0.8914908,-0.3988488,-0.03018084,0.1684057,-1.041117,5.001733,-10.86852,35.37449,1008.1
35.258198738,-10.14413,0.8914908,-0.0928518,-0.01881738,0.2014901,-1.016454,5.001733,-10.86852,35.37449,1008.1
35.293263435,-11.43621,1.010453,0.02954699,0.0124749,0.2035654,-0.9560304,5.365174,-10.87067,34.54488,1008.102
35.325823784,-4.9143,0.3561623,0.1519458,0.02597586,0.1755058,-0.9458372,5.370856,-11.23448,34.54749,1008.104
35.358383655,3.268851,-0.5955327,-0.1540512,0.01358746,0.14488,-0.9796455,5.370856,-11.23448,34.54749,1008.104
35.393448830,12.86713,-0.2386471,0.2743446,0.006210282,0.1453938,-1.0067,5.010066,-11.60094,34.55129,1008.104
35.426004886,16.92795,-0.1196852,0.2743446,-0.005198033,0.1632264,-1.006417,4.265762,-10.87861,34.54845,1008.105
35.458565235,13.85157,-0.0007233131,0.2131452,-0.01588213,0.1673148,-0.9744411,4.626552,-10.51215,34.54465,1008.103
35.493630409,5.668422,-0.1196852,0.2743446,-0.01193367,0.1596592,-0.9895464,4.626552,-10.51215,34.54465,1008.105
35.526194096,1.546082,-0.1791661,0.335544,-0.0127013,0.1402453,-0.9975759,4.626552,-10.51215,34.54465,1008.105
35.558753967,-0.668906,0.4751242,0.09074639,0.0006007482,0.1287197,-0.9900305,4.987341,-10.1457,34.54085,1008.105
35.591314316,-1.714873,0.653567,-0.0928518,0.005004215,0.1263605,-0.992971,4.987341,-10.1457,34.54085,1008.106
35.626375675,0.2540058,0.3561623,-0.27645,0.00185178,0.1467196,-0.9902405,4.983291,-9.779302,34.98431,1008.106
35.658935547,-0.4227962,-0.06020425,-0.1540512,-0.0006566778,0.1539567,-0.9857773,4.994654,-10.50692,34.98953,1008.104
35.691494942,0.6231706,-0.1791661,0.09074639,-0.006927789,0.1494856,-0.9824557,4.994654,-10.50692,34.98953,1008.106
35.726560116,3.022741,-0.2386471,0.335544,-0.004463987,0.1451838,-0.9912245,4.993022,-10.50951,34.54346,1008.106
35.759120941,4.99162,-0.1196852,0.02954699,-0.006295399,0.1354336,-0.9899215,4.633864,-10.87338,34.99333,1008.106
35.791680336,4.314818,0.7725289,-0.03165241,-0.0009253308,0.1345272,-0.9889737,4.633864,-10.87338,34.99333,1008.107
35.826741695,7.022027,-1.547228,-0.27645,0.01264716,0.138623,-0.9956916,4.994654,-10.50692,34.98953,1008.107
35.859301567,4.745511,-1.368785,-0.2152506,-0.006714514,0.1343521,-0.9672188,4.25035,-9.784595,34.98669,1008.105
35.891861916,-0.2382139,-0.7144946,-0.2152506,-0.02089871,0.1309534,-1.008344,4.25035,-9.784595,34.98669,1008.105
35.926926613,-1.53029,-0.5360518,0.02954699,-0.02288949,0.132909,-1.01653,4.61682,-9.781948,34.9855,1008.107
35.959486961,-1.345708,1.248376,0.5803416,-0.0009188681,0.1335642,-0.9909219,5.342449,-9.415427,34.53444,1008.108
35.992046833,-3.006949,1.545781,0.2743446,0.009923235,0.1296628,-0.9571555,5.342449,-9.415427,34.53444,1008.107
36.027139664,-4.237498,-0.4765708,-0.2152506,9.276741E-05,0.1325567,-0.9803039,4.2544,-10.15099,34.54323,1008.104
36.059699535,-3.314587,-1.606709,-0.3376494,0.0007662321,0.1502402,-1.019188,4.61682,-9.781948,34.9855,1008.104
36.092260361,-0.8534884,-1.190342,-0.2152506,-0.000614604,0.1462701,-1.00523,4.61682,-9.781948,34.9855,1008.104
36.124819756,-1.407236,-0.6550136,-0.2152506,-0.002880084,0.1378438,-0.97587,4.624133,-10.14318,35.43418,1008.106
36.159884929,-1.53029,-0.6550136,-0.1540512,-0.01607464,0.140612,-0.9811321,4.623899,-10.14355,35.37046,1008.102
36.192444801,1.915247,-0.0007233131,-0.0928518,-0.01660325,0.1397305,-1.002414,4.623899,-10.14355,35.37046,1008.102
