Time (s),Gyroscope X (deg/s),Gyroscope Y (deg/s),Gyroscope Z (deg/s),Accelerometer X (g),Accelerometer Y (g),Accelerometer Z (g),Magnetometer X (uT),Magnetometer Y (uT),Magnetometer Z (uT),Barometer (hPa)
0.024825573,-0.1262236,-0.006831827,-0.1275714,0.2352728,0.8128204,0.5191308,8.439094,-44.19362,-11.26963,1006.89
0.057602406,0.1839206,-0.006803809,-0.06598146,0.2376973,0.8132942,0.5143107,8.439094,-44.19362,-11.26963,1006.89
0.090379715,-0.3127235,-0.0657206,-0.004700166,0.2367186,0.8177128,0.5205641,8.431606,-43.83512,-11.71047,1006.89
0.123156548,-0.2492497,-0.06576796,0.05629316,0.2396398,0.8148284,0.522487,8.796411,-43.83006,-11.27583,1006.886
0.158454895,0.1241205,-0.06579441,-0.1268569,0.2328402,0.8142412,0.5162463,8.796411,-43.83006,-11.27583,1006.892
0.191232681,-0.1242644,-0.0657487,-0.2487094,0.2294433,0.8132353,0.5157745,8.43982,-44.18768,-10.83452,1006.89
0.224009991,5.52386E-05,0.1118343,-0.06517565,0.2386679,0.8153139,0.5234512,8.062222,-43.45793,-10.84551,1006.89
0.256786823,-0.1854304,0.05254518,-0.06510176,0.2381774,0.8167476,0.5200807,8.062222,-43.45793,-10.84551,1006.89
0.289564133,-0.1841097,-0.006465107,-0.06527695,0.2362477,0.810867,0.5172061,8.068255,-43.82831,-11.27489,1006.89
0.324862480,-0.1838277,0.05282273,0.1177787,0.2362539,0.8084385,0.5181724,8.424845,-43.47069,-11.7162,1006.89
0.357639790,-0.3072613,-0.1247819,-0.06562368,0.2401301,0.8133914,0.5253761,8.424845,-43.47069,-11.7162,1006.89
0.390416622,0.1900998,-0.00682926,-0.1265982,0.2377045,0.8113863,0.5200899,8.068255,-43.82831,-11.27489,1006.89
0.423193932,-0.1210645,0.2882913,-0.1258713,0.23624,0.8157975,0.5258631,8.797137,-43.82411,-10.84072,1006.89
0.458492279,-0.368607,0.1102853,-0.003160045,0.2347784,0.8167193,0.5200889,8.797137,-43.82411,-10.84072,1006.889
0.491270065,-0.3044184,-0.008405361,0.1185518,0.2381864,0.8138589,0.5248986,8.431606,-43.83512,-11.71047,1006.889
0.524046898,-0.117283,-0.2446304,0.05717104,0.2362468,0.8123683,0.5229801,8.431606,-43.83512,-11.71047,1006.889
0.556824207,0.2552957,-0.1261522,-0.1261947,0.241588,0.8129166,0.5253734,8.431606,-43.83512,-11.71047,1006.889
0.589601040,0.1920761,-0.008212501,-0.1257185,0.2367215,0.815738,0.5167162,8.068255,-43.82831,-11.27489,1006.89
0.624899388,-0.4904003,0.2275455,-0.06411614,0.2357456,0.8181818,0.5191216,8.789649,-43.46562,-11.28156,1006.89
0.657676697,-0.5505026,0.1087476,0.1191822,0.2357592,0.8128378,0.5210551,8.789649,-43.46562,-11.28156,1006.889
0.690454006,-0.2382002,-0.06839906,0.1188305,0.2328493,0.8113524,0.5210642,8.061495,-43.46387,-11.28062,1006.887
0.723230839,0.3829454,-0.009360939,-0.186505,0.238173,0.8186991,0.5205592,8.075017,-44.19275,-11.26916,1006.887
0.758529186,-0.1763217,0.04990239,0.1191261,0.2381727,0.8191994,0.5224838,8.075017,-44.19275,-11.26916,1006.887
0.791306496,-0.1749015,-0.06839391,-0.0643393,0.2342914,0.8187135,0.5273075,8.07429,-44.19869,-11.70427,1006.885
0.824083328,0.1365901,-0.1274483,-0.2477845,0.2338181,0.8123346,0.5210605,8.068255,-43.82831,-11.27489,1006.887
0.856861115,0.1978032,-0.127151,-0.1252287,0.237208,0.8162625,0.5215279,8.068255,-43.82831,-11.27489,1006.887
0.889638424,-0.05055081,-0.06792945,-0.002789457,0.2333161,0.8191456,0.52057,8.068982,-43.82236,-10.83978,1006.887
0.924936771,-0.4841613,0.2860533,0.05829287,0.23382,0.8113539,0.5200992,8.061495,-43.46387,-11.28062,1006.887
0.957713604,0.1375585,-0.1868161,-0.06372031,0.2376976,0.8132975,0.5147921,8.802444,-44.20044,-11.70521,1006.889
0.990490913,0.1369393,-0.1276105,-0.06361396,0.2362358,0.8162377,0.5191234,8.802444,-44.20044,-11.70521,1006.889
1.023267746,0.01241253,-0.009238541,-0.002553211,0.2381793,0.8157668,0.5191194,8.438367,-44.19956,-11.70474,1006.889
1.058566570,-0.3598404,-0.009290703,-0.2465917,0.233811,0.8152534,0.5205747,8.431606,-43.83512,-11.71047,1006.887
1.091343403,-0.2340542,0.1086915,0.05905406,0.2343047,0.8128592,0.5258721,8.431606,-43.83512,-11.71047,1006.887
1.124120712,0.01470075,-0.009436561,-0.002141376,0.2313951,0.8103696,0.5215505,7.696691,-43.46894,-11.71526,1006.889
1.156897545,-0.10962,0.3450281,-0.002151772,0.2362375,0.8162645,0.5229743,8.431606,-43.83512,-11.71047,1006.889
1.189675331,-0.04709123,0.1083632,0.0588883,0.234794,0.8109017,0.5239485,8.431606,-43.83512,-11.71047,1006.895
1.224973679,0.6346313,0.2266846,-0.3682458,0.2333204,0.816687,0.5172042,8.061495,-43.46387,-11.28062,1006.896
1.257750988,-0.04984152,0.3446131,-0.1842249,0.2328305,0.8196453,0.5229772,8.07429,-44.19869,-11.70427,1006.896
1.290527821,-0.5450653,-0.1287548,0.243421,0.2367272,0.8138067,0.5191259,8.07429,-44.19869,-11.70427,1006.895
1.323305130,0.1390039,-0.1877859,0.05971749,0.234307,0.8118851,0.5258736,8.431606,-43.83512,-11.71047,1006.893
1.358603478,0.6347362,-0.1871468,-0.001384355,0.239162,0.8119155,0.524418,8.432333,-43.82918,-11.27536,1006.893
1.391380787,0.5703789,0.1087273,-0.1845691,0.2381811,0.8163007,0.5258577,8.432333,-43.82918,-11.27536,1006.893
1.424157620,0.07245197,-0.06897548,0.06013704,0.2347735,0.8186641,0.5196046,8.075744,-44.1868,-10.83405,1006.893
1.456934929,-0.05140292,0.1670462,-0.06180714,0.2347762,0.8171895,0.5176813,8.068255,-43.82831,-11.27489,1006.893
1.489711762,-0.2369126,0.1668472,-0.1228744,0.2318857,0.8084322,0.522515,8.068255,-43.82831,-11.27489,1006.893
1.525011063,0.07463325,-0.06971844,-0.1226417,0.2333357,0.810359,0.517695,8.795684,-43.836,-11.71094,1006.891
1.557787895,0.1981223,0.04889927,-0.0002129776,0.2352728,0.8138313,0.5244243,8.432333,-43.82918,-11.27536,1006.891
1.590565205,0.1976848,-0.1281703,-0.0003080913,0.2376986,0.8133143,0.5171989,8.432333,-43.82918,-11.27536,1006.891
1.623342037,0.07310507,-0.009907454,0.06059066,0.238181,0.8157936,0.5229703,8.796411,-43.83006,-11.27583,1006.891
1.658640385,0.258309,-0.1276046,-0.0002089366,0.234781,0.8152447,0.5181656,8.07429,-44.19869,-11.70427,1006.889
1.691417694,-0.1766536,-0.2456036,-0.06114389,0.2372113,0.8147981,0.5210487,8.07429,-44.19869,-11.70427,1006.891
1.724195004,0.07270525,0.2272123,-0.0002080053,0.2357618,0.8113634,0.5191318,8.060768,-43.46981,-11.71573,1006.891
1.756971836,0.5073513,0.04976809,-0.1832444,0.2333321,0.8123239,0.5200989,8.796411,-43.83006,-11.27583,1006.891
1.789749146,0.1334938,0.04982476,0.3054863,0.2357394,0.8206102,0.5181553,8.796411,-43.83006,-11.27583,1006.891
1.825047493,-2.596253,-0.008745618,1.706547,0.2337786,0.8288901,0.5205542,8.796411,-43.83006,-11.27583,1006.893
1.857825279,-4.518444,0.5820436,2.009638,0.2411063,0.8104472,0.521046,8.432333,-43.82918,-11.27536,1006.893
1.890602112,-2.903304,0.2865803,1.154392,0.2387018,0.8017007,0.5268412,8.061495,-43.46387,-11.28062,1006.895
1.923379421,-1.03968,0.1093022,0.1769673,0.2338501,0.799702,0.5254117,8.061495,-43.46387,-11.28062,1006.895
1.956156254,1.755755,-0.3043465,-0.3117448,0.2338326,0.8080149,0.5302128,7.704178,-43.82744,-11.27442,1006.895
1.991454601,1.320909,-0.3043465,-0.2506558,0.2410998,0.8128724,0.5195982,8.068255,-43.82831,-11.27489,1006.896
2.024231911,0.8239431,-0.06797581,-0.5561009,0.243532,0.8114449,0.5215201,8.068255,-43.82831,-11.27489,1006.896
2.057009220,-0.1699892,0.2274876,-0.4339229,0.2406166,0.8129051,0.5248944,8.424845,-43.47069,-11.7162,1006.896
2.089786053,0.07849386,0.05020955,-0.4950119,0.2333421,0.8089448,0.5244362,8.075017,-44.19275,-11.26916,1006.896
2.125084400,1.134547,-0.4225319,0.1769673,0.2313599,0.8254774,0.5229719,8.075017,-44.19275,-11.26916,1006.895
2.157861710,-1.723009,-0.3634392,1.948549,0.2429752,0.8421503,0.525326,8.432333,-43.82918,-11.27536,1006.895
2.190638542,-5.82298,0.05020955,5.308445,0.2458591,0.8543402,0.5238568,7.703452,-43.83338,-11.70953,1006.896
2.223416328,-4.580564,1.409341,12.15041,0.241399,0.8928023,0.5271789,7.703452,-43.83338,-11.70953,1006.895
2.256193638,2.687566,0.8775071,26.32307,0.2532491,1.021736,0.5640213,8.072837,-44.21058,-12.5745,1006.893
2.291491985,-12.28354,-4.618113,48.926,0.2798351,1.069581,0.5484825,7.703452,-43.83338,-11.70953,1006.893
2.324268818,-43.46817,-1.427107,63.83173,0.2978974,1.024763,0.5254019,7.703452,-43.83338,-11.70953,1006.893
2.357046127,-52.97265,-3.140795,79.71487,0.3165821,0.9285498,0.5346485,5.882338,-43.83496,-12.14229,1006.893
2.389822960,-58.12867,-2.549868,96.45326,0.3342505,0.8604133,0.5905472,3.689763,-43.47633,-12.95327,1006.893
2.425121784,-30.85765,-8.163673,115.7574,0.3633955,0.8603233,0.6126209,3.689763,-43.47633,-12.95327,1006.893
2.457898617,-19.67591,-12.41835,130.3577,0.3897438,0.8120269,0.6395874,-0.7697968,-42.03174,-14.71092,1006.891
2.490675926,-10.17143,-13.83657,147.8291,0.4581897,0.811286,0.5908086,-4.439069,-40.57715,-15.59936,1006.891
2.523452759,-9.985072,-11.53196,165.9115,0.4948431,0.7097076,0.5773966,-4.439069,-40.57715,-15.59936,1006.889
2.556230545,14.86324,-9.759175,178.4347,0.5670311,0.5668668,0.5408573,-9.973705,-39.8291,-15.16858,1006.888
2.591528893,58.96899,-5.563596,185.3378,0.656176,0.4336741,0.4705678,-15.48114,-37.18638,-13.89727,1006.888
2.624306202,94.43996,4.777624,186.9261,0.7150884,0.3699705,0.4840022,-15.48114,-37.18638,-13.89727,1006.888
2.657083035,95.30965,15.70977,183.9938,0.758283,0.3770758,0.4732991,-21.43114,-33.49903,-11.83357,1006.886
2.689860344,34.4934,27.76468,180.9394,0.6900527,0.5099843,0.617669,-26.21991,-30.16615,-8.833251,1006.886
2.725158692,-65.02408,23.09636,175.1359,0.6329949,0.2172579,0.6841921,-26.21991,-30.16615,-8.833251,1006.886
2.757936001,-45.6424,7.968628,171.4095,0.6255566,-0.1281764,0.6755846,-30.74468,-24.98758,-8.535757,1006.884
2.790712834,13.43446,-7.277283,160.6578,0.6857488,-0.1117945,0.717777,-34.48895,-19.52928,-9.860184,1006.882
2.823490143,-1.226043,-16.61393,150.3949,0.6114292,-0.09163115,0.7650963,-34.48895,-19.52928,-9.860184,1006.881
2.891566277,8.775402,-42.61471,129.1359,0.5529976,-0.2391282,0.7062497,-38.70984,-7.785069,-9.169106,1006.883
2.924343109,2.749687,-54.31506,117.6511,0.5146842,-0.2604406,0.6991522,-38.7975,-2.975611,-8.436487,1006.881
2.989897251,-4.518444,-72.16105,96.14781,0.5688977,-0.4177107,0.5702558,-38.87428,1.433297,-5.894577,1006.876
3.025195599,-8.804777,-80.55221,87.65644,0.6072987,-0.4435211,0.5244741,-38.95229,5.902094,-3.415781,1006.876
3.057972908,-12.09718,-83.50684,79.40942,0.6496387,-0.498248,0.4479197,-38.95229,5.902094,-3.415781,1006.876
3.090750217,-30.67129,-83.50684,68.9632,0.66671,-0.5388374,0.4036551,-37.90303,8.486198,-0.8466303,1006.876
3.123527050,-31.6031,-79.42945,62.18232,0.7031614,-0.5834708,0.2447866,-37.59481,11.80602,2.084953,1006.874
3.156304359,-16.01079,-70.62464,57.845,0.7114424,-0.6082488,0.1735628,-37.59481,11.80602,2.084953,1006.874
3.191603184,-17.93653,-58.0379,49.35363,0.7421244,-0.652534,0.1417869,-37.26079,13.72798,4.976342,1006.874
3.224380493,-30.29857,-46.33755,43.30581,0.7236603,-0.6564185,0.09562579,-35.45705,14.84665,7.132361,1006.874
3.257157326,-26.57132,-32.03712,36.64711,0.7053723,-0.7398893,0.02070253,-35.45705,14.84665,7.132361,1006.874
3.289934635,-17.00472,-22.40501,27.66702,0.7024464,-0.7300056,0.04476267,-34.04672,17.40525,7.898437,1006.874
3.325232983,-11.22749,-11.05921,20.09199,0.694189,-0.7240561,0.06980409,-32.95231,17.42047,9.202362,1006.873
3.358009815,-4.766927,-6.154522,15.5714,0.6878676,-0.7181875,0.08088155,-32.95231,17.42047,9.202362,1006.873
3.390787125,-3.276028,-3.199888,10.86755,0.6718417,-0.7117856,0.110273,-32.59282,17.80186,10.5015,1006.873
3.423563957,-8.804777,-1.545293,6.652403,0.687363,-0.7018183,0.1241806,-32.59813,18.17819,11.36599,1006.871
3.456341267,-3.213907,-2.313498,5.919335,0.6888879,-0.7315516,0.1189269,-32.59813,18.17819,11.36599,1006.869
3.491640568,6.104209,-4.618113,6.22478,0.6951224,-0.696853,0.128487,-32.24829,18.90024,10.91895,1006.867
3.524417400,8.775402,-4.913576,6.469136,0.7004502,-0.6970194,0.09814883,-31.51411,18.52812,10.48863,1006.867
3.557194710,9.148127,-0.1270685,5.797157,0.6849013,-0.6958018,0.08181757,-31.51411,18.52812,10.48863,1006.867
3.589971542,4.799673,5.664014,4.208843,0.6814994,-0.7004244,0.05150683,-31.88494,18.89343,10.48337,1006.867
3.625269890,12.44053,12.69604,1.276569,0.6902789,-0.7265087,0.001945058,-31.89171,19.25787,10.47764,1006.867
3.658047199,24.49196,22.32815,-1.105902,0.7238066,-0.7511196,-0.07559662,-31.89171,19.25787,10.47764,1006.87
3.690824032,50.76905,45.55157,-2.51095,0.7393038,-0.7647709,-0.2363876,-31.89919,19.61636,10.03679,1006.868
3.723601341,83.07185,81.24355,-7.947872,0.838901,-0.8469262,-0.5440902,-32.25942,19.22902,8.302548,1006.868
3.756378174,137.179,172.7781,-24.74735,0.9028741,-0.8513359,-0.8349777,-32.25942,19.22902,8.302548,1006.866
3.791676998,173.2091,319.0325,-31.95586,0.7477022,-0.648816,-0.3809908,-32.65625,20.64094,4.861363,1006.866
3.824454308,771.1837,248.0622,145.2634,-6.011192,5.436667,5.420982,-33.40539,20.89079,-3.659184,1006.865
3.857231617,-795.4402,-178.587,52.53025,3.005024,-2.185059,-3.322261,-33.0186,18.55725,-14.31659,1006.866
3.890008927,339.1958,90.34383,30.53821,-1.586345,-0.1917276,1.199834,-33.0186,18.55725,-14.31659,1006.866
3.925307274,-41.85303,-46.6921,2.253994,0.9460739,-0.5556822,0.657177,-32.32676,20.77693,-11.8034,1006.866
3.958084106,-20.04864,12.2233,-9.536186,0.4942978,-0.4882957,0.5950885,-31.59402,20.39292,-13.10394,1006.868
3.990861416,-27.62737,3.773048,-4.282531,0.3830037,-0.6286541,0.7159045,-31.59402,20.39292,-13.10394,1006.866
4.023638248,-10.48204,-21.51862,-3.610552,0.4563793,-0.6569878,0.6854474,-31.22994,20.39205,-13.10441,1006.866
4.056415558,5.731484,-14.25022,-9.536186,0.5149771,-0.588724,0.6962768,-31.23452,20.77432,-11.80481,1006.866
4.091713905,-21.7259,-3.731722,-13.20153,0.4989455,-0.5879706,0.6837983,-31.23452,20.77432,-11.80481,1006.866
4.124491692,-29.05615,-0.06797581,-23.70884,0.4467836,-0.7088041,0.6696633,-31.58508,20.04632,-11.79288,1006.871
4.157268524,-8.99114,-1.663478,-34.82704,0.4205983,-0.7296857,0.6399124,-31.94312,19.67681,-12.22179,1006.869
4.190045834,-20.11076,-2.845332,-49.42731,0.4283566,-0.7151388,0.6913778,-31.94312,19.67681,-12.22179,1006.869
4.222823143,-9.612348,0.5820436,-66.47115,0.3227996,-0.6320887,0.7146083,-32.65558,18.96751,-10.90405,1006.863
4.258121491,-35.14399,-10.88194,-92.31181,0.3627589,-0.6962013,0.6919863,-33.36272,17.88189,-10.45081,1006.863
4.290898323,-15.4517,-11.00012,-113.9373,0.4005259,-0.6728144,0.5777787,-33.36272,17.88189,-10.45081,1006.865
4.323675633,-1.226043,-12.06379,-128.4154,0.4586318,-0.6081915,0.5558822,-34.79198,16.42763,-10.42601,1006.863
4.356452465,22.56622,-17.6185,-140.0834,0.499591,-0.4794061,0.5363364,-36.53542,12.37434,-9.489456,1006.861
4.391750813,21.94501,-22.93684,-143.5044,0.6190677,-0.2916116,0.5035188,-36.53542,12.37434,-9.489456,1006.859
4.424528599,25.7965,-19.74584,-147.2919,0.6525485,-0.2831095,0.4952434,-37.90924,8.015621,-8.610752,1006.859
4.457305908,48.15998,-24.59144,-148.5748,0.6013517,-0.1908793,0.5125548,-38.9143,3.274615,-8.969964,1006.859
4.490082741,53.62661,-33.69171,-149.4911,0.6466176,-0.03021651,0.5194257,-38.9143,3.274615,-8.969964,1006.859
4.522860050,36.23279,-36.76453,-152.0569,0.770642,0.08058394,0.4751607,-38.80209,-2.593342,-7.136883,1006.858
4.558158398,12.19205,-29.37795,-157.8603,0.8051239,0.06581884,0.4115614,-39.06217,-8.107876,-6.179284,1006.858
4.590935707,5.420881,-8.872786,-169.7727,0.7623215,0.06230555,0.2378966,-39.06217,-8.107876,-6.179284,1006.862
4.623712540,-1.971492,-0.7179953,-168.4898,0.7479211,0.4380548,0.4299092,-37.86707,-13.56516,-5.22452,1006.862
4.656489849,-80.74063,3.832141,-160.6704,0.6248342,0.5550393,0.5214835,-35.57257,-19.45618,-4.699594,1006.862
4.691788197,-125.9646,9.032297,-153.2175,0.6376798,0.4631301,0.5264052,-35.57257,-19.45618,-4.699594,1006.862
4.724565983,-134.1024,17.00981,-139.778,0.4740451,0.4643171,0.5436392,-31.82797,-25.33156,-7.223282,1006.864
4.757342816,-125.0327,31.72389,-126.766,0.4544611,0.3222321,0.5159808,-28.41332,-29.8143,-10.1415,1006.864
4.790120125,-71.11191,54.2382,-132.0197,0.9963567,0.3677025,0.7302771,-28.41332,-29.8143,-10.1415,1006.864
4.822896958,-65.02408,86.68008,-149.3689,0.8372231,0.5320991,0.8194586,-23.64836,-32.08275,-15.27241,1006.864
4.858195305,-51.48175,70.54778,-151.9347,0.4671141,0.5672527,0.7865881,-19.59585,-35.06049,-19.08558,1006.864
4.890972614,-5.636618,45.72885,-144.2375,0.2667416,0.4858561,0.7385685,-14.06548,-35.84336,-22.06487,1006.864
4.923749924,50.14784,27.23284,-117.2361,0.2686416,0.7140191,0.7690273,-14.06548,-35.84336,-22.06487,1006.864
4.956526756,-27.44101,34.32397,-101.7195,0.3181695,0.9427382,0.8922751,-7.432573,-36.96441,-22.92644,1006.864
4.991825104,-42.03939,40.76507,-100.2534,0.2508339,0.4461177,0.786321,-3.010609,-39.96895,-24.19062,1006.865
5.024602890,37.04036,23.27363,-84.73676,0.196895,0.6814148,0.8592613,-3.010609,-39.96895,-24.19062,1006.867
5.057380199,22.37985,17.77802,-64.88284,0.2110533,0.8514315,0.8479001,1.774967,-39.62704,-25.0106,1006.867
5.090157032,0.1406146,14.11427,-42.2799,0.1821385,0.7591505,0.8495519,5.779818,-39.63664,-25.01577,1006.871
5.122934341,29.33738,1.232063,-16.80578,0.1924342,0.9355417,0.919059,5.779818,-39.63664,-25.01577,1006.871
5.158232689,5.917847,-4.204464,9.157052,0.1698557,0.8098388,0.799443,7.61435,-40.36478,-24.63371,1006.873
5.191009522,10.14206,-5.622688,16.97645,0.1823176,0.6508195,0.6793126,8.342505,-40.36652,-24.63465,1006.873
5.223786831,8.65116,-2.668054,18.25932,0.1862331,0.6452754,0.7178207,8.342505,-40.36652,-24.63465,1006.875
5.256564140,6.042089,-0.5998099,19.96981,0.1842689,0.6625963,0.7596777,7.986642,-40.7182,-23.75822,1006.875
5.291862488,-2.406337,2.650288,20.88614,0.1950155,0.6369166,0.7659486,7.265248,-41.08089,-23.75155,1006.875
5.324640274,-23.03044,6.136755,15.51031,0.1922542,0.5665328,0.7333286,7.265248,-41.08089,-23.75155,1006.875
5.357417107,16.35414,-2.37259,8.485073,0.2460595,0.4034011,0.7425928,6.531059,-40.70877,-23.32123,1006.875
5.390194416,13.68294,-5.504503,6.774581,0.2462232,0.7620501,0.8392869,5.802178,-40.71297,-23.7554,1006.873
5.422971249,-9.177503,-0.008883132,4.697555,0.2108042,0.5202385,0.7073609,5.802178,-40.71297,-23.7554,1006.873
5.458269596,-0.4805931,0.4047657,0.05478928,0.2242632,0.580847,0.7221598,5.07475,-40.70528,-23.31935,1006.873
5.491046906,4.116344,0.7593217,-2.083326,0.2256918,0.5980992,0.7500494,5.444861,-41.07653,-23.7492,1006.873
5.523823738,0.8860639,0.9365998,-1.350258,0.228975,0.6503667,0.7682546,5.444861,-41.07653,-23.7492,1006.875
5.556601048,1.879996,0.522951,0.1158783,0.2256492,0.6161225,0.7505038,5.803631,-40.70108,-22.88518,1006.875
5.591899872,3.308774,0.700229,-0.06738876,0.2242089,0.6067699,0.7380058,5.075477,-40.69933,-22.88424,1006.881
5.624677181,1.817876,0.2865803,-0.4339229,0.214005,0.6111216,0.7457253,5.075477,-40.69933,-22.88424,1006.879
5.657454491,2.376962,0.345673,-0.6171899,0.2256338,0.6209326,0.741832,5.803631,-40.70108,-22.88518,1006.879
5.690231323,4.861794,0.1683949,-0.2506558,0.2270941,0.6199908,0.7447181,5.088273,-41.43415,-23.30789,1006.879
5.723008633,6.042089,0.05020955,-0.2506558,0.2173821,0.6209106,0.7485906,5.088273,-41.43415,-23.30789,1006.879
5.758306980,0.9481847,0.05020955,-0.1895668,0.2159074,0.6256682,0.7341462,5.082238,-41.06377,-22.87851,1006.879
5.791083813,3.867861,-0.06797581,-0.3117448,0.2197981,0.6247869,0.7428027,5.446315,-41.06464,-22.87898,1006.883
5.823861122,1.507272,-0.1270685,-0.4339229,0.2241424,0.6365421,0.747107,5.459837,-41.79351,-22.86752,1006.883
5.856637955,0.1406146,-0.008883132,-0.3728338,0.2207619,0.6261958,0.7341338,5.459837,-41.79351,-22.86752,1006.883
5.891937256,3.184533,-0.4225319,-0.006299737,0.2251326,0.6267461,0.7379735,5.453076,-41.42908,-22.87325,1006.883
5.924714088,-0.2942308,0.4047657,-0.1284778,0.225627,0.6218362,0.7317221,5.817154,-41.42995,-22.87372,1006.882
5.957491398,1.817876,-0.06797581,-0.1895668,0.2304557,0.6335788,0.7336184,5.817154,-41.42995,-22.87372,1006.878
5.990268707,0.8860639,0.05020955,-0.06738876,0.2256065,0.6311132,0.7350777,5.453076,-41.42908,-22.87325,1006.879
6.023045540,2.004238,0.2274876,-0.006299737,0.2217422,0.6228115,0.7365434,5.090453,-41.41632,-22.00256,1006.879
6.058343887,3.557257,-0.1270685,-0.1284778,0.2202529,0.6389582,0.749038,5.090453,-41.41632,-22.00256,1006.881
6.091121197,3.992103,-0.4816246,-0.2506558,0.2280255,0.6350364,0.7360287,5.453076,-41.42908,-22.87325,1006.881
6.123898029,2.439083,-0.7179953,-0.2506558,0.2197711,0.6349709,0.7365297,5.825368,-41.7825,-21.99777,1006.883
6.156675816,3.433016,-0.5998099,-0.1895668,0.2231821,0.6276101,0.7244987,5.825368,-41.7825,-21.99777,1006.887
6.191974163,2.439083,-1.190737,-0.1284778,0.2250748,0.6495827,0.7302375,5.818607,-41.41806,-22.0035,1006.887
6.224751473,1.755755,-0.8361807,0.1769673,0.2255753,0.6417375,0.722065,5.461291,-41.78163,-21.9973,1006.881
6.257528305,2.1906,-1.072551,0.1158783,0.2163905,0.626643,0.7336622,5.461291,-41.78163,-21.9973,1006.881
6.290305615,8.029953,-3.436259,-0.800457,0.2188265,0.6252759,0.7442484,5.097214,-41.78075,-21.99683,1006.883
6.323082447,7.78147,-3.613537,-0.922635,0.2202544,0.6354452,0.7341211,5.110736,-42.50963,-21.98537,1006.883
6.358381271,13.99355,-6.272708,-2.266593,0.2208063,0.6076955,0.7351243,5.110736,-42.50963,-21.98537,1006.882
6.423935890,26.4177,-16.023,-2.51095,0.2149347,0.6311915,0.7591709,5.468779,-42.14012,-21.55645,1006.88
6.456713200,38.53126,-24.59144,-1.411347,0.2357774,0.6474611,0.7624665,5.468779,-42.14012,-21.55645,1006.88
6.489490032,51.57662,-33.7508,-0.4950119,0.2328264,0.6589714,0.7403136,5.472308,-42.11125,-19.44305,1006.876
6.524788380,63.87653,-46.39664,1.032213,0.2226534,0.6446118,0.718698,4.752368,-42.46206,-18.56616,1006.872
6.557565689,78.97189,-54.0196,2.070727,0.255945,0.7233946,0.6616997,4.752368,-42.46206,-18.56616,1006.872
6.590342522,78.78552,-60.93343,4.453198,0.2543872,0.7586743,0.6241039,4.418242,-43.89516,-16.80232,1006.871
6.623119831,91.39604,-68.91095,4.697555,0.2780557,0.7958214,0.5445672,3.702559,-44.21114,-13.37692,1006.871
6.658418179,78.84764,-69.2655,5.61389,0.2978541,0.8291202,0.476598,3.702559,-44.21114,-13.37692,1006.875
6.691195488,78.22643,-70.27008,5.186267,0.3308746,0.8107329,0.3841259,3.350952,-44.52801,-9.951986,1006.875
6.723972798,65.8644,-65.89722,2.864884,0.3719718,0.8729781,0.3208762,2.283987,-45.57794,-6.949764,1006.875
6.756750107,38.22065,-60.69706,1.276569,0.3783125,0.8537722,0.2828626,2.283987,-45.57794,-6.949764,1006.875
6.789527416,31.94645,-59.21975,-2.938573,0.3933896,0.8330644,0.2284642,2.282209,-45.17274,-3.97187,1006.871
6.824825764,13.74506,-51.12405,-9.719454,0.4248642,0.8642898,0.198498,1.549473,-44.78873,-2.671325,1006.871
6.857602596,-9.177503,-43.08745,-20.53221,0.4313627,0.7919897,0.2293987,2.285842,-45.14302,-1.796312,1006.871
6.890379906,-10.73052,-36.2327,-31.77259,0.3999365,0.7276782,0.1939494,2.285842,-45.14302,-1.796312,1006.871
6.923156738,17.03747,-19.80493,-43.62386,0.4536164,0.7959349,0.06952789,3.36986,-44.79309,-2.673675,1006.875
6.958455086,-37.5667,14.82338,-61.03423,0.4225288,1.038961,0.2458951,4.09198,-44.42446,-2.245233,1006.869
6.991232395,-80.86488,29.41927,-70.01431,0.2748632,1.113182,0.520991,4.09198,-44.42446,-2.245233,1006.869
7.024010181,-103.8496,15.82796,-62.07274,0.0953711,1.051677,0.576866,6.267503,-44.0831,-3.559117,1006.871
7.056787014,-105.1541,-10.3501,-30.48972,0.1629688,1.011433,0.5916886,9.511444,-42.6799,-7.005001,1006.871
7.089564323,-124.3494,-15.49117,-1.594614,0.279569,0.9689512,0.5057936,9.511444,-42.6799,-7.005001,1006.871
7.124862671,-148.9492,-18.68217,-2.266593,0.2339273,0.5524006,0.4718717,10.93573,-41.2664,-10.01342,1006.871
7.157639980,-4.580564,-40.48737,-12.71282,0.2823282,0.5968354,0.360014,10.89621,-39.49092,-13.46081,1006.876
7.190416813,-3.648753,-34.10536,-15.09529,0.2519183,0.93226,0.3754655,10.89621,-39.49092,-13.46081,1006.875
7.223194122,-37.06973,-25.00509,-6.78718,0.2428161,0.8694586,0.3202251,10.85982,-37.61988,-14.36064,1006.873
7.258492470,-25.63951,-17.38213,-9.658364,0.2673947,0.7480752,0.3448992,10.48295,-36.88419,-13.93651,1006.873
7.291270256,7.905712,-19.2731,-19.37152,0.308428,0.8537747,0.3672666,10.48295,-36.88419,-13.93651,1006.875
7.324047089,32.3813,-20.21858,-18.02756,0.3187007,1.022731,0.3482145,10.84027,-36.52063,-13.94271,1006.873
7.356824398,34.67977,-16.49574,-16.98905,0.2607002,1.321398,0.3637869,11.62379,-36.14619,-13.07924,1006.873
7.389601231,-19.73804,-14.13203,13.61655,0.4058664,1.569821,0.5440601,11.62379,-36.14619,-13.07924,1006.875
7.424900055,-54.21507,-14.78205,57.96718,0.3500847,0.9282988,0.5283117,12.00274,-36.8649,-12.26018,1006.875
7.457676888,17.34807,-29.49613,74.27795,0.346192,0.5073951,0.4485679,10.85524,-37.23761,-13.06103,1006.875
7.490454197,92.7627,-32.50986,78.18764,0.2855095,0.4752719,0.3144603,10.85524,-37.23761,-13.06103,1006.875
7.523231030,108.355,-21.75499,89.42802,0.2138282,0.584602,0.2239695,8.293905,-36.49669,-12.63409,1006.875
7.558530331,86.17789,-10.11373,119.606,0.1809936,0.7124621,0.2301124,5.057125,-38.331,-9.616633,1006.875
7.591307163,1.134547,2.000268,136.772,0.1221838,0.7373608,0.2393602,5.057125,-38.331,-9.616633,1006.871
7.624084473,-63.5953,-0.6589026,134.695,0.1482519,0.6210526,0.3617396,0.6520566,-39.37888,-7.045216,1006.871
7.656861305,-53.65598,-3.849908,73.11726,1.336525,0.4464799,0.6537777,-3.717598,-39.37435,-7.474689,1006.875
7.689638615,-0.7290763,10.6278,15.87684,0.958671,0.6471114,0.4733795,-3.717598,-39.37435,-7.474689,1006.875
7.724936962,-36.75912,29.71474,25.95653,0.3860934,1.069699,0.3677197,-7.010621,-38.66055,-9.160208,1006.875
7.757714272,-131.2448,51.40175,42.75601,0.4683557,0.5790432,0.3793354,-8.110341,-38.29944,-9.59964,1006.875
7.790491104,-41.29394,49.3926,32.85959,0.8002973,0.2657445,0.4517059,-8.110341,-38.29944,-9.59964,1006.875
7.823268891,3.308774,53.35181,-0.9837241,0.6947907,0.3313989,0.4946984,-8.486266,-37.97573,-12.65068,1006.875
7.858567238,39.77367,38.69682,-34.76595,0.6414217,0.5265999,0.5441111,-8.896295,-35.76231,-15.23406,1006.875
7.891344547,-14.27141,63.51575,-46.80048,0.3446564,0.771329,0.5843991,-7.445292,-35.38948,-14.37144,1006.875
7.924121380,-62.53925,80.29807,-51.68761,0.2649412,0.6219,0.6936011,-7.445292,-35.38948,-14.37144,1006.873
7.956898689,-74.83916,88.57104,-75.69559,-0.005171697,0.4781028,0.7209334,-4.870432,-36.85928,-14.78692,1006.873
7.989675522,-44.58634,72.85239,-87.48577,0.02374503,0.7982162,0.8445737,-1.981627,-35.80182,-16.92127,1006.873
8.024973869,-96.33295,82.95724,-94.14447,0.04888447,0.635078,0.8173223,-1.981627,-35.80182,-16.92127,1006.875
8.057751179,-81.48608,72.20238,-106.6066,-0.1857059,0.682681,0.9410356,3.141603,-33.99794,-17.39169,1006.875
8.090528011,12.44053,33.91032,-125.8497,0.182722,0.4899484,0.7276903,7.834769,-31.81672,-16.99707,1006.875
8.123305798,48.65694,6.373126,-147.9028,-0.01341498,0.8691494,0.6539357,7.834769,-31.81672,-16.99707,1006.875
8.158604622,61.82655,-30.20524,-178.936,0.05759241,0.7816138,0.447395,12.22203,-29.23552,-14.05927,1006.876
8.191381455,38.40701,-36.29179,-194.1472,0.1808446,0.8212652,0.4682229,14.73001,-26.5653,-9.379558,1006.878
8.224158764,-9.985072,-26.42331,-211.191,0.4886101,0.8255372,0.2922707,14.73001,-26.5653,-9.379558,1006.876
8.256935597,-6.506309,-44.2693,-221.8205,1.13609,1.312697,1.142011,17.18066,-21.07598,-7.355397,1006.876
8.289712906,10.14206,-16.55483,-126.0329,0.7660605,0.8146864,0.6396536,17.82873,-16.62591,-6.120717,1006.876
8.325011253,-59.55745,79.58896,-42.76861,1.088687,1.13283,1.668042,17.82873,-16.62591,-6.120717,1006.878
8.357789040,5.731484,64.10667,-29.39012,-0.2581386,-0.3304178,0.8103599,17.37821,-11.87547,-5.324512,1006.878
8.390565872,23.00106,65.28853,-20.41003,-0.4293889,0.8201599,0.7628212,18.41843,-8.945609,-4.128586,1006.878
8.423343182,66.85834,76.33886,-35.19357,-0.4719557,0.7440598,0.7264534,18.41843,-8.945609,-4.128586,1006.878
8.456120014,24.49196,53.4109,-21.75399,-0.3645472,0.7207294,0.8143229,19.14491,-8.54131,-1.089474,1006.878
8.491418362,77.04614,57.96104,-29.14576,-0.3461554,0.9058149,0.5834281,19.85631,-7.420874,1.005796,1006.878
8.524195671,-19.11683,51.69721,-21.57072,-0.2324871,0.6993777,0.6667452,19.85631,-7.420874,1.005796,1006.88
8.556972981,6.539055,72.55693,-28.84032,-0.4784804,0.8220099,0.6676252,20.20043,-6.255808,1.857404,1006.88
8.589749813,12.44053,75.98431,-15.09529,-0.3101989,0.4751465,0.5223776,20.18971,-5.504008,3.524232,1006.884
8.625049114,26.54194,90.69839,-13.99568,-0.4749066,0.5136256,0.5106762,20.18971,-5.504008,3.524232,1006.878
8.690603256,41.69942,89.16197,-31.83368,-0.5536279,0.7474173,0.5369855,20.17721,-4.347013,8.168953,1006.882
8.723380089,43.4388,52.87907,-18.88281,-0.7230648,0.9211711,0.4432599,20.17721,-4.347013,8.168953,1006.882
8.756157398,2.625446,51.0472,-23.40339,-0.649264,0.7146124,0.4169213,20.16805,-3.582476,10.76816,1006.884
8.791455746,15.17384,39.40594,-31.1617,-0.7838347,0.7220138,0.3122925,19.76621,-1.372055,12.41254,1006.886
8.824232578,12.12992,28.06014,-36.04882,-0.8630137,0.7567292,0.4269921,19.75559,-0.6194048,14.14153,1006.886
8.857009888,8.58904,20.61446,-44.72346,-0.7633101,0.6762446,0.3594862,19.75559,-0.6194048,14.14153,1006.886
8.889787674,7.470866,11.396,-49.67167,-0.7008651,0.7762865,0.4530529,20.09336,0.8434138,14.55325,1006.888
8.925086021,0.326977,3.123029,-56.08601,-0.6087554,0.6171516,0.3606528,19.72106,1.196835,13.67776,1006.888
8.957863331,-8.618415,1.82299,-64.88284,-0.6955542,0.5738193,0.3970261,19.72106,1.196835,13.67776,1006.889
8.990640163,-15.38958,8.44137,-65.24937,-0.7795967,0.6073593,0.4886336,20.49034,2.2942,14.09467,1006.889
9.023417473,-9.177503,8.382277,-64.63848,-0.804245,0.5362207,0.3737538,20.40003,3.800945,13.20065,1006.889
9.056194305,-3.027545,17.00981,-69.15907,-0.7939371,0.5067262,0.4623444,20.40003,3.800945,13.20065,1006.889
9.091492653,5.234519,20.85083,-71.175,-0.8298191,0.4799327,0.4345509,21.17607,4.533872,13.62328,1006.889
9.124269962,5.979968,21.38267,-70.99174,-0.8277979,0.4352143,0.3749247,21.86969,6.348369,13.15858,1006.888
9.157047749,12.81325,23.98275,-69.5256,-0.7532817,0.3443803,0.3902884,21.86969,6.348369,13.15858,1006.888
9.189824581,14.61476,32.25572,-68.30382,-0.7965968,0.3818606,0.3691548,21.85617,7.077242,13.14712,1006.888
9.290677548,-3.897236,50.10171,-57.3078,-0.9027624,0.2887259,0.2708678,22.16158,10.37413,14.40042,1006.89
9.323454380,-2.468458,52.81997,-50.95454,-0.8764184,0.2368262,0.2699208,21.04583,11.86337,16.49231,1006.89
9.356231690,-0.9154386,50.92901,-49.30513,-0.9337727,0.2495931,0.2137183,21.04583,11.86337,16.49231,1006.89
9.391530514,-3.772995,55.0064,-47.35028,-0.9802963,0.2127408,0.22303,20.28878,13.37766,16.03426,1006.89
9.424307823,-10.29568,49.21532,-40.50832,-1.066568,0.1200451,0.09388804,19.48329,14.50258,18.19365,1006.89
9.457084656,-6.319946,44.547,-38.43129,-0.9874925,0.1529229,0.1042409,19.48329,14.50258,18.19365,1006.89
9.489861965,1.134547,42.41966,-37.33169,-1.077843,0.1667734,0.1034716,18.37826,15.24002,18.61871,1006.892
9.525160313,3.246653,33.91032,-34.09397,-1.009072,0.02261229,0.02121289,18.36682,15.98587,19.85042,1006.892
9.557937145,3.495136,31.13296,-29.63447,-1.040127,0.01561499,0.03284978,18.36682,15.98587,19.85042,1006.892
9.590714455,2.501204,31.54661,-23.03686,-0.9298131,-0.01337307,0.07402893,16.89917,16.73607,21.14618,1006.894
9.623491764,-8.059328,42.06511,-24.74735,-0.9057622,0.08934948,0.1089565,16.53436,16.731,20.71154,1006.892
9.656269074,1.445151,46.43797,-21.99835,-1.033488,0.07885792,0.01444697,16.53436,16.731,20.71154,1006.894
9.691567898,-2.530579,40.58779,-15.95053,-1.091466,-0.06560419,-0.09879916,16.15821,17.47263,21.57077,1006.892
9.724344731,0.3890978,41.59237,-14.85093,-1.037435,0.1041174,0.009604639,14.34073,17.50077,23.31357,1006.892
9.757122040,-4.891168,42.00601,-8.131139,-1.099751,-0.05048819,-0.08628689,14.34073,17.50077,23.31357,1006.892
9.789898873,2.066359,42.53785,-3.182929,-1.03543,0.06975047,-0.03222679,13.96917,17.86014,22.87319,1006.89
9.825197220,-5.8851,43.89698,3.781219,-1.066839,-0.001372772,-0.06670315,13.60655,17.8729,23.74389,1006.89
9.857974529,-9.301744,42.18329,13.12784,-0.9691416,-0.05761267,-0.1472375,12.87298,18.25012,24.54716,1006.888
9.890751362,-3.772995,44.19244,9.584676,-0.8291816,0.1090251,-0.09535221,12.87298,18.25012,24.54716,1006.888
9.923529148,-13.33959,45.96523,1.459837,-0.9513273,0.00835612,-0.1372706,12.51712,17.89844,25.42358,1006.89
9.956306458,-0.04574769,34.73761,-2.144415,-1.14377,0.05024758,-0.2552923,12.53282,17.1874,26.74038,1006.888
9.991604805,-11.97294,29.65564,-10.75797,-1.21681,0.122205,-0.3255063,12.53282,17.1874,26.74038,1006.89
10.024382114,-11.35173,29.89201,-18.08865,-1.201566,0.05562318,-0.2532378,11.81288,16.83659,27.61727,1006.89
10.057158947,-5.388134,32.55119,-22.67032,-1.168692,0.1157527,-0.2606269,10.71992,16.83327,27.18357,1006.89
10.089936256,-15.70018,34.73761,-23.83102,-1.187572,0.09529026,-0.23889,10.71992,16.83327,27.18357,1006.89
10.125234604,-20.66985,26.52373,-20.95983,-1.23336,0.1577995,-0.2297297,11.83316,15.74328,27.63446,1006.89
10.158012390,-22.09862,7.673165,-5.748667,-1.17333,0.2246896,-0.2781091,12.56953,15.38899,28.50948,1006.89
10.190789223,-15.1411,-13.89566,19.29783,-1.103745,0.1588928,-0.2983922,12.56953,15.38899,28.50948,1006.89
10.223566532,48.28422,-34.16445,40.98443,-1.008186,-0.008518122,-0.32436,14.76959,14.67186,29.76129,1006.89
10.256343365,90.83695,-53.72413,48.25402,-1.019203,-0.08556329,-0.3944966,17.70718,13.19015,28.53728,1006.89
10.291641712,95.62025,-40.13281,58.63916,-0.9945407,-0.02531334,-0.3046312,17.70718,13.19015,28.53728,1006.89
10.324419022,81.14611,-39.30552,63.83173,-1.029814,-0.09714842,-0.2967375,21.40758,13.10271,27.22812,1006.89
10.357195854,116.9898,-48.64216,72.75072,-0.9214,-0.1467116,-0.2704451,24.68886,12.71259,25.92429,1006.888
10.389973641,143.2048,-49.88311,75.56081,-0.9148369,-0.02101182,-0.1320179,24.68886,12.71259,25.92429,1006.888
10.422750950,143.3911,-55.26054,72.01765,-0.8800819,0.07152878,-0.1033581,27.96203,12.67586,23.80666,1006.888
10.458049297,137.0548,-46.21936,62.3045,-0.890206,0.02661203,-0.1769148,30.13995,12.61713,19.88783,1006.891
10.490826607,142.7078,-44.3284,39.09067,-0.8376068,-0.02604123,-0.1076441,30.13995,12.61713,19.88783,1006.891
10.523603439,129.414,-36.64635,33.89811,-0.8652973,-0.01536338,-0.07967549,32.38905,12.22439,18.21238,1006.891
10.556380749,121.4625,-49.46946,31.82108,-0.8475554,0.09897685,0.02264015,33.09758,12.9715,15.2154,1006.887
10.591679096,114.505,-51.83316,32.30979,-0.8792666,0.1499198,-0.03753163,33.09758,12.9715,15.2154,1006.887
10.624455929,107.9202,-51.36042,33.10395,-0.9060971,0.1972548,-0.06208878,34.55025,12.93829,13.03796,1006.886
10.657233715,99.90659,-52.66046,32.67633,-0.9144922,0.2500475,-0.09439968,35.63935,12.84012,10.489,1006.882
10.690011025,89.03545,-51.71498,36.58602,-0.8888283,0.2834972,-0.07766331,35.63935,12.84012,10.489,1006.88
10.722787857,76.05221,-48.22851,40.43463,-0.8646428,0.3181113,-0.1018409,36.72475,12.85154,7.067898,1006.88
10.758086682,47.66301,-40.84193,38.96849,-0.848143,0.3287076,-0.06868207,37.45861,12.40678,5.768308,1006.88
10.790863514,26.97679,-36.05542,36.83038,-0.8471843,0.3360981,-0.05762416,38.21018,10.91757,3.61473,1006.88
10.823640824,16.5405,-35.05084,34.63118,-0.8349895,0.3143401,-0.04943714,38.21018,10.91757,3.61473,1006.879
10.856417656,23.62227,-35.70086,31.82108,-0.8305534,0.2886378,-0.03881897,38.58581,10.17169,2.444702,1006.879
10.891716957,39.64943,-36.70544,28.52227,-0.837879,0.3066071,-0.03738459,38.61744,8.331673,1.168017,1006.879
10.924493790,50.95541,-38.89187,23.14644,-0.855418,0.3333281,-0.02583058,38.61744,8.331673,1.168017,1006.877
10.957271099,60.45989,-41.61013,17.70951,-0.8806911,0.3428512,-0.02674771,38.98609,7.948532,-0.1320577,1006.877
10.990047932,70.21285,-41.25557,13.12784,-0.8977441,0.3680683,-0.02193166,40.09435,6.817788,-2.664789,1006.877
11.022825241,73.19466,-36.82362,9.890121,-0.9526729,0.3954681,-0.00788318,40.09435,6.817788,-2.664789,1006.877
11.058123589,74.18858,-33.57352,10.19557,-0.9842548,0.4014591,-0.01888862,39.73486,6.436392,-3.963924,1006.877
11.090901375,67.54166,-21.57771,11.41735,-1.002321,0.4492521,0.01188935,39.01066,6.050774,-5.635542,1006.877
11.123677731,47.10392,-11.29559,16.85427,-0.9877751,0.4631811,0.0363833,39.01066,6.050774,-5.635542,1006.877
11.156455517,19.33593,3.595771,21.37486,-0.9595947,0.4581324,0.04691403,39.39357,4.944703,-6.489046,1006.875
11.191753864,-9.363865,17.60074,23.57406,-0.9644119,0.4430343,0.05272455,39.77044,4.209013,-6.913167,1006.875
11.224531174,-26.88192,22.09178,20.5807,-0.9376339,0.4135686,0.05559362,39.77044,4.209013,-6.913167,1006.875
11.257308006,-36.0758,22.50543,13.61655,-0.9356433,0.3921154,0.04984489,39.78469,3.486082,-6.466596,1006.879
11.290085316,-36.20004,18.78259,5.003,-0.9040181,0.3655857,0.04884714,39.43631,2.775913,-5.149331,1006.879
11.322862148,-25.57739,13.64153,-5.198866,-0.9068975,0.3504333,0.04454455,39.43631,2.775913,-5.149331,1006.878
11.358160496,-10.29568,7.377702,-14.66766,-0.905444,0.3524171,0.04790765,40.23366,2.35394,-4.77071,1006.878
11.390938282,1.942117,2.591195,-22.18161,-0.9083855,0.3671073,0.0628147,40.16581,2.785206,-4.342205,1006.876
11.423715592,6.352693,-1.427107,-26.39676,-0.9279025,0.4058806,0.05895166,40.16581,2.785206,-4.342205,1006.874
11.456492424,4.364828,-3.613537,-28.65705,-0.9391065,0.4208853,0.05895562,40.15833,3.143699,-4.783047,1006.874
11.491790772,2.501204,-5.681781,-28.41269,-0.9604669,0.4172409,0.05082862,40.13877,4.242954,-4.365126,1006.871
11.524568081,2.439083,-7.395469,-25.54151,-0.9439526,0.4129117,0.03876193,40.13877,4.242954,-4.365126,1006.869
11.557345390,2.1906,-6.627264,-21.93726,-0.9429704,0.4075357,0.03491681,39.76793,4.608263,-4.370385,1006.867
11.590122223,2.1906,-6.036337,-17.05014,-0.9342508,0.4163785,0.03536417,40.09748,6.423632,-4.834617,1006.865
11.622899532,0.6375808,-5.977244,-12.89608,-0.9255112,0.4154305,0.0286058,40.09748,6.423632,-4.834617,1006.87
11.658198357,1.38303,-5.44541,-8.619851,-0.9225879,0.410054,0.02234927,39.71926,7.148283,-5.21856,1006.87
11.690975666,3.246653,-5.268132,-4.587976,-0.9186911,0.4042153,0.01849793,40.07719,7.516943,-4.851807,1006.868
11.723752499,3.992103,-4.795391,-1.22808,-0.9274446,0.408482,0.01225456,40.07719,7.516943,-4.851807,1006.87
11.756529808,2.99817,-3.199888,1.582015,-0.9250129,0.4075517,0.01561973,39.34904,7.518688,-4.850867,1006.87
11.791828156,2.128479,-1.545293,4.025576,-0.9216229,0.4124905,0.02138058,39.69897,8.241594,-5.23575,1006.87
11.824604988,-0.9154386,0.4047657,5.186267,-0.9303632,0.4114067,0.01610797,38.61277,7.873831,-5.663722,1006.87
11.857382298,-3.648753,2.236639,6.163691,-0.9259759,0.4036306,0.01322111,38.61277,7.873831,-5.663722,1006.87
11.890160084,-7.003274,4.363975,7.080026,-0.9235385,0.4007689,0.01899599,38.99037,7.144084,-5.652732,1006.87
11.922936916,-7.872965,5.191273,8.546163,-0.9351602,0.3870282,0.01808154,39.71853,7.142339,-5.653671,1006.868
11.958235741,-6.257825,4.954902,10.07339,-0.9443731,0.3826049,0.02340503,39.71853,7.142339,-5.653671,1006.868
11.991012573,-4.083598,4.304882,11.72279,-0.9443515,0.3728409,0.02005017,40.08333,7.147411,-5.21903,1006.868
12.023789883,-1.909371,3.418493,13.00566,-0.9482263,0.3709408,0.0316149,39.72664,6.788941,-4.839877,1006.87
12.056566715,-1.412405,3.241215,13.37219,-0.9438591,0.3724483,0.03304636,39.72664,6.788941,-4.839877,1006.87
12.091865063,-1.660888,3.241215,13.00566,-0.9360908,0.3724998,0.03110241,39.7334,6.424505,-4.834147,1006.865
12.124642849,-1.785129,3.300307,11.1119,-0.9438477,0.3670709,0.03016626,39.74693,5.695631,-4.822687,1006.871
12.157420158,-1.163922,2.70938,8.485073,-0.9414171,0.3641021,0.02053774,39.74693,5.695631,-4.822687,1006.871
12.190196991,-1.101801,2.650288,4.941911,-0.9433721,0.370454,0.02582778,40.54252,5.329302,-4.817975,1006.871
12.222974300,-2.530579,3.123029,1.398748,-0.9312133,0.3617688,0.02292386,40.48933,4.970954,-4.377055,1006.869
12.258272648,-3.151787,3.950326,-2.877484,-0.9350797,0.3544444,0.02486952,40.48933,4.970954,-4.377055,1006.869
12.291049957,-5.947221,4.304882,-7.581337,-0.9428652,0.3616983,0.0268025,40.11245,5.706645,-3.952934,1006.867
12.323826790,-9.922952,3.418493,-12.52955,-0.9380187,0.3651313,0.02437902,40.11848,5.336265,-4.382316,1006.865
12.356604576,-11.60021,3.123029,-18.33301,-0.9210175,0.3623409,0.02289882,40.11848,5.336265,-4.382316,1006.865
12.389381886,-22.16074,1.763897,-22.2427,-0.9273826,0.3877308,0.03972331,40.55074,4.976753,-3.942022,1006.864
12.424680233,-41.4803,6.432219,-27.252,-0.9371204,0.4023911,0.05849742,40.10569,6.071083,-3.958664,1006.862
12.457457066,-60.48926,9.209576,-30.6119,-0.8976747,0.3534961,0.05366394,40.10569,6.071083,-3.958664,1006.868
12.490234375,-64.15438,13.99608,-32.38348,-0.893205,0.3091228,0.04072345,40.09362,6.811844,-3.0999,1006.866
12.523011208,-68.06799,19.90535,-33.05545,-0.95298,0.3330963,0.05815811,39.70396,8.282352,-2.252127,1006.866
12.558309555,-82.66637,13.58243,-31.10061,-0.9082989,0.3290624,0.05468868,39.70396,8.282352,-2.252127,1006.866
12.591087341,-92.2951,19.90535,-33.66635,-0.8614251,0.2213682,0.0600348,40.05596,9.022242,-1.393834,1006.864
12.623864651,-80.18154,19.25533,-32.44456,-0.8487023,0.1755257,0.03600563,38.93949,10.50553,0.262944,1006.864
12.656641483,-76.39217,20.79174,-35.86555,-0.8700511,0.1750948,0.06975222,38.93949,10.50553,0.262944,1006.862
12.691940308,-69.86949,22.09178,-40.81376,-0.8542905,0.07767846,0.04964449,38.9139,11.97517,1.110247,1006.86
12.724717140,-46.82269,22.91908,-45.45653,-0.8780723,0.06401216,0.003992124,38.53059,13.14793,2.397907,1006.86
12.757494450,-35.64095,23.51,-48.87751,-0.91076,0.1350709,0.03621379,38.14144,14.62268,3.556475,1006.864
12.790271282,-57.3211,25.10551,-50.71018,-0.9481078,0.1162051,0.02959174,38.14144,14.62268,3.556475,1006.863
12.823049069,-49.36964,26.11008,-49.97711,-0.9669048,0.04701475,-0.02224646,37.01831,16.47126,5.269681,1006.858
12.858347416,-51.85447,28.11923,-45.51762,-0.9879156,0.09984273,-0.03431029,35.17982,17.58676,6.560175,1006.863
12.891124726,-99.56322,31.48752,-40.99703,-0.9767225,0.09578369,-0.001116758,35.17982,17.58676,6.560175,1006.863
12.923901558,-104.9677,37.10132,-36.35426,-0.970009,-0.09337614,-0.1062658,34.06261,19.06411,7.781841,1006.86
12.956678867,-87.8224,37.63316,-32.93328,-1.000203,-0.04804257,-0.06438405,33.32603,19.83634,10.8171,1006.858
12.989455700,-91.92237,36.86495,-28.84032,-0.9924912,-0.03674781,-0.1303659,33.32603,19.83634,10.8171,1006.858
13.024754524,-77.9452,41.53327,-26.76329,-1.034675,-0.07504997,-0.1947106,31.49492,20.5925,12.48628,1006.858
13.057531357,-66.76346,45.3152,-23.58666,-0.9917309,-0.1885374,-0.3173887,30.40778,20.63673,15.53347,1006.858
13.090309143,-66.32861,51.75631,-22.2427,-1.070568,-0.1151489,-0.3149055,30.40778,20.63673,15.53347,1006.858
13.123086453,-84.71636,38.8741,-19.18825,-1.158904,-0.07489517,-0.02305141,28.52951,20.66416,17.21419,1006.86
13.158384800,-30.36069,14.29155,-4.465798,-1.048338,-0.01053749,-0.006081632,26.34192,21.06355,19.38684,1006.86
13.191161633,-30.91977,11.15963,-1.533525,-1.017237,-0.02403213,-0.02298272,26.34192,21.06355,19.38684,1006.862
13.223938942,-25.08042,4.304882,4.147754,-0.9254506,-0.03416852,-0.0501414,25.23679,21.80014,19.74974,1006.862
13.256715775,-6.692671,-11.29559,13.00566,-1.020322,0.05407874,0.007232659,24.51539,21.43745,19.75641,1006.864
13.324791908,33.18887,-46.98756,36.89147,-1.052613,0.1495112,-0.02797399,23.04421,22.15877,18.93876,1006.868
13.357569218,18.71473,-50.06038,52.10263,-1.17195,0.09723948,-0.04734799,22.30035,22.87156,17.62291,1006.87
13.390346050,2.128479,-49.1149,57.17302,-1.229271,-0.1066675,-0.09504089,22.30035,22.87156,17.62291,1006.87
13.423123360,26.29346,-44.21021,68.77994,-1.17239,0.07470162,-0.06608608,23.37503,23.63478,15.86864,1006.87
13.458421707,10.63903,-41.72832,75.13319,-1.043837,0.1359942,-0.02123537,23.37223,23.61185,14.19035,1006.867
13.491199017,4.364828,-41.66922,72.13983,-0.9254032,0.1504253,-0.04945701,23.37223,23.61185,14.19035,1006.867
13.523975849,-0.23211,-42.43743,71.04023,-0.9608289,0.3641108,0.04513322,24.84777,22.43648,12.90128,1006.869
13.556753636,-1.723009,-42.43743,70.49043,-1.014609,0.317007,0.05977262,26.32218,21.32185,11.61125,1006.869
13.589530945,-27.44101,-44.91932,77.63784,-1.191934,0.3534895,0.05628733,26.32218,21.32185,11.61125,1006.869
13.624829292,-1.84725,-47.57849,79.10398,-0.9044956,0.160136,0.06119197,26.71195,19.85219,10.82564,1006.873
13.657606125,-15.07898,-44.3284,74.21686,-0.8892308,0.4979483,0.1549935,27.83581,18.00956,9.547544,1006.875
13.690383434,-23.09256,-42.14196,64.25935,-0.8962423,0.3778815,0.1267908,27.83581,18.00956,9.547544,1006.875
13.723160267,-10.41992,-46.6921,66.39746,-1.022957,0.6049075,0.2884867,28.94687,16.90174,8.693101,1006.875
13.758459091,-28.3107,-44.80114,73.36161,-0.9265288,0.4732969,0.226842,29.69989,15.42441,7.409746,1006.875
13.791236401,-21.66378,-38.95096,68.16904,-0.8249325,0.4178141,0.180474,30.10319,13.22588,6.635592,1006.875
13.824013710,-16.9426,-30.85526,52.59135,-0.7750826,0.4969976,0.2312607,30.10319,13.22588,6.635592,1006.875
13.856791020,-20.5456,-27.19152,57.78391,-0.8708405,0.7805119,0.424568,31.2693,12.42162,5.776296,1006.875
13.889567852,-53.09689,-33.7508,62.24341,-0.6448006,0.4484017,0.300341,31.30841,10.22311,4.940452,1006.875
13.924866199,-16.632,-14.3684,52.04154,-0.7556002,0.7223629,0.4686676,31.30841,10.22311,4.940452,1006.875
13.957643509,-57.3211,-27.54607,78.432,-0.7675043,0.8779741,0.7283965,32.0839,7.670302,4.979622,1006.875
13.990421295,-22.59559,-41.8465,78.18764,-0.486162,0.330838,0.4329978,32.8316,6.569302,4.560761,1006.877
14.023198128,25.61013,-44.62386,78.92071,-0.4730231,0.7698221,0.6503619,32.8316,6.569302,4.560761,1006.877
14.058496475,89.7809,-68.14275,92.54356,-0.4348468,0.6657573,0.7678804,32.52838,3.290242,4.612801,1006.877
14.124050617,148.4229,-171.9686,75.92735,-0.342148,0.6537041,0.6040158,33.67376,0.2944055,3.41501,1006.881
14.156827927,177.6818,-164.2274,88.69495,-0.4979033,1.321861,0.08158203,34.09973,-3.397539,0.05310559,1006.881
14.189604759,-9.86083,-118.9034,130.2355,-0.5981215,1.597861,0.04000665,34.54254,-7.861265,-1.991049,1006.881
14.224903584,-108.8813,-95.02991,132.4347,-0.4840776,0.7972329,-0.01730193,34.54254,-7.861265,-1.991049,1006.883
14.257681370,-35.95155,-70.27008,117.0403,-0.5114709,0.6943617,0.07052591,33.53853,-13.01341,-5.763266,1006.884
14.290458202,-69.74525,-41.19648,97.67504,-0.4321021,0.6515131,0.326968,31.08537,-18.59319,-9.962029,1006.884
14.323235512,-36.26216,-16.25937,84.72417,-0.4257099,0.4088517,0.3027692,31.08537,-18.59319,-9.962029,1006.884
14.358533859,51.88722,-0.5407173,80.38685,-0.3525316,0.4663351,0.286624,28.16794,-21.90675,-12.89025,1006.888
14.391310692,97.60812,14.88247,67.98578,-0.4068341,0.6323112,0.2667668,27.10275,-23.36188,-12.86592,1006.888
14.424088001,138.1109,-17.32304,52.77461,-0.0354881,1.352396,0.5550619,27.10275,-23.36188,-12.86592,1006.889
14.456864834,87.23395,-49.9422,20.21416,0.8209684,1.626928,0.6931744,26.04931,-25.14069,-9.852233,1006.889
14.489642620,-17.50169,-27.48698,54.42402,0.3550196,1.282126,0.4160908,26.80128,-26.20688,-7.722583,1006.891
14.524940968,-53.7181,-12.832,82.03625,0.1325968,1.09136,0.4255704,26.80128,-26.20688,-7.722583,1006.891
14.557718277,-17.12896,-42.14196,92.66574,0.1936058,0.9608834,0.4294732,26.42223,-25.48902,-8.603797,1006.893
14.590495587,26.66619,-38.41912,88.69495,0.1746337,0.7530888,0.3369285,23.89793,-26.96358,-10.25588,1006.893
14.623272419,86.4885,-46.81029,87.77862,0.1911442,0.7441521,0.2926176,23.89793,-26.96358,-10.25588,1006.893
14.658570767,92.38998,-44.91932,81.79189,0.5174627,0.9299787,0.2183966,21.02097,-28.83358,-9.787399,1006.893
14.691348076,53.50237,-30.38252,69.75736,0.4573717,0.8510246,0.07280547,16.99954,-30.98159,-7.634373,1006.893
14.724125862,30.45555,-20.92769,64.5037,0.4685094,0.8663027,0.08527144,14.8443,-32.41627,-6.303299,1006.891
14.756902695,20.45411,-19.09582,59.37223,0.5697261,0.7781267,0.1005678,14.8443,-32.41627,-6.303299,1006.893
14.789680004,34.80401,-16.25937,53.62986,0.4868292,0.7073137,0.03251782,11.93458,-32.38551,-4.559093,1006.891
14.824978352,41.01609,-8.400043,59.06678,0.6249263,0.8140509,-0.05269026,9.695474,-32.75051,-4.985578,1006.891
14.857755184,28.21921,8.086814,57.845,0.6671073,0.8442257,-0.03646949,9.695474,-32.75051,-4.985578,1006.891
14.890532494,26.79043,17.24618,58.45589,0.6334102,0.7439613,0.08362062,7.898175,-33.81654,-3.28775,1006.893
14.923310280,50.14784,19.19624,56.25669,0.6092447,0.7056218,0.1323533,5.734721,-34.89867,-2.832629,1006.893
14.956087112,57.10537,9.800502,53.69095,0.585883,0.731347,0.1477735,5.734721,-34.89867,-2.832629,1006.895
14.991385937,28.46769,7.377702,44.71086,0.6184704,0.7077172,0.1424368,3.545675,-34.51117,-1.530205,1006.895
15.024162769,5.234519,4.423068,34.69226,0.7041352,0.6090918,0.07451027,1.733503,-34.85935,-0.651902,1006.895
15.056940079,8.340557,0.4638583,26.26198,0.7807338,0.6583508,0.06222031,1.733503,-34.85935,-0.651902,1006.895
15.089716911,-0.8533178,1.054785,21.6803,0.7243274,0.6808664,0.006000839,0.5819408,-34.84555,0.1576505,1006.895
15.125015259,-0.791197,7.614072,16.79318,0.7788044,0.6332768,-0.03930465,-0.8796766,-34.46573,1.024023,1006.895
15.157793045,-4.207839,12.04602,15.75467,0.7482598,0.6094971,-0.06037628,-0.8796766,-34.46573,1.024023,1006.895
15.190570355,1.196668,16.18251,11.96715,0.8400438,0.6094359,-0.03941397,-1.609908,-34.48097,-0.2182128,1006.896
15.223347187,1.693634,22.80089,10.92863,0.7807442,0.6458839,0.0203606,-1.980746,-34.11566,-0.2234731,1006.896
15.256124497,5.234519,28.00105,10.31774,0.6864951,0.6706008,0.04605907,-1.980746,-34.11566,-0.2234731,1006.901
15.291422844,-0.791197,28.65107,8.851607,0.8089266,0.6413724,0.03811095,-2.344824,-34.11479,-0.2230031,1006.899
15.324200153,-10.85476,43.89698,3.781219,0.7711316,0.6140106,0.07097442,-3.080467,-33.75455,-0.6629055,1006.899
15.356976986,-7.065395,38.93319,10.74537,0.8676345,0.6785287,0.1279303,-3.080467,-33.75455,-0.6629055,1006.899
15.389754772,-26.32284,60.97477,2.315083,0.7459544,0.5805818,0.05664368,-4.517219,-34.85031,-1.078947,1006.899
15.425053120,-2.5927,68.47954,-6.970448,0.7829973,0.5280181,0.08744219,-4.896272,-34.13245,-1.960161,1006.897
15.457830429,-6.444188,86.85736,-16.80578,0.7640226,0.5580876,0.1620529,-4.896272,-34.13245,-1.960161,1006.895
15.490607262,-6.754791,89.33925,-25.48042,0.6738218,0.5217528,0.2282682,-4.890964,-34.50878,-2.824654,1006.894
15.523388386,7.905712,77.46162,-30.00101,0.5183659,0.5794103,0.3719958,-5.621922,-34.52996,-4.502003,1006.894
15.556161404,11.94356,55.95189,-26.88547,0.5206015,0.6663355,0.4026666,-5.621922,-34.52996,-4.502003,1006.894
15.591459751,-2.530579,46.31978,-22.54815,0.5216432,0.6144057,0.287697,-3.794774,-34.89876,-4.498623,1006.892
15.624237538,-11.91082,50.04262,-20.0435,0.6934946,0.6359317,0.3050673,-3.417901,-35.63445,-4.922744,1006.894
15.657014847,-17.68805,51.8154,-21.1431,0.6046555,0.63348,0.3394584,-3.417901,-35.63445,-4.922744,1006.894
15.689791680,-4.766927,51.16538,-22.30379,0.5779008,0.6506829,0.3240924,-2.683712,-36.00658,-5.353065,1006.894
15.725090504,-10.29568,59.73382,-21.38745,0.5428286,0.7006789,0.3419106,-1.222094,-36.38639,-6.219438,1006.892
15.757867336,-15.63806,67.35677,-20.5933,0.5539746,0.7176021,0.380849,-0.1373496,-36.03051,-6.66169,1006.894
15.790644646,-24.89406,77.52071,-21.75399,0.5029687,0.7269474,0.3852881,-0.1373496,-36.03051,-6.66169,1006.889
15.823421478,-37.25609,89.33925,-17.72211,0.5019528,0.7550313,0.432903,1.378186,-36.04604,-7.53387,1006.894
15.856199265,-41.91515,97.13949,-10.33034,0.4703683,0.768055,0.4526941,2.830239,-36.08434,-10.08426,1006.894
15.891497612,-125.9024,101.276,0.9711245,0.4765714,0.8583369,0.6811901,2.830239,-36.08434,-10.08426,1006.894
15.924274921,-59.06049,87.80284,6.83567,0.3711189,0.478332,0.6516872,4.647719,-36.11248,-11.82706,1006.894
15.957051754,-46.2636,82.36632,9.829032,0.3067517,0.6185147,0.7868912,5.714685,-35.06255,-14.82928,1006.894
15.989829063,-58.31503,74.50699,10.74537,0.2671295,0.5449495,0.8313814,5.714685,-35.06255,-14.82928,1006.894
16.025127411,-47.38178,66.41129,3.842308,0.1995487,0.3687715,0.7913728,6.802661,-35.09998,-17.3792,1006.892
16.057905197,-28.12434,60.85658,-3.549463,0.2202136,0.4651009,0.8215044,7.528636,-35.11956,-18.68547,1006.892
16.090682030,-39.30608,64.87488,-3.305107,0.2428515,0.5498047,0.8583879,7.528636,-35.11956,-18.68547,1006.89
16.123459339,-47.81662,59.0838,-7.764605,0.1095093,0.4778994,0.9040605,8.982765,-35.14088,-19.99269,1006.888
16.156236649,-52.04084,46.49706,-3.427285,0.108352,0.5805538,1.029544,10.41058,-33.69851,-20.88771,1006.888
16.191534996,-59.80593,40.29233,12.39477,0.1536269,0.5140621,0.9385595,10.41058,-33.69851,-20.88771,1006.887
16.224311829,-57.50747,23.03726,13.67764,0.08476824,0.2745,0.9602637,11.92404,-33.73102,-23.00307,1006.887
16.257089138,-16.32139,10.74599,9.829032,0.1199866,0.1328324,0.7866222,12.63118,-32.64539,-23.45631,1006.885
16.289866924,5.420881,34.20578,-2.449861,0.273421,0.5295175,0.7057543,12.63118,-32.64539,-23.45631,1006.883
16.325165272,-85.77242,74.68427,-10.69688,0.3495493,0.6340782,1.012525,12.25213,-31.92753,-24.33752,1006.883
16.357942104,-88.44361,70.54778,-4.404709,0.2846496,0.4245121,1.350911,12.97144,-31.58182,-25.58737,1006.883
16.390719414,-2.033613,4.836717,6.652403,0.3002848,0.1337,1.114963,12.97144,-31.58182,-25.58737,1006.883
16.423496246,48.90543,-30.32343,0.7267684,0.07464438,0.4781035,1.115461,15.12596,-30.15309,-27.35356,1006.883
16.456273556,-8.059328,-37.71001,-6.17629,-0.004921071,0.002691884,0.9223772,14.74545,-29.44712,-29.10499,1006.883
16.491572380,133.3897,-47.93305,-10.81906,-0.05482607,0.1176048,0.6980078,14.74545,-29.44712,-29.10499,1006.883
16.524349690,111.2747,-26.24603,-5.321044,-0.03464358,0.5983492,0.6086648,12.58127,-30.53519,-29.08499,1006.883
16.557126999,27.84648,7.495887,-5.137777,-0.06012695,0.4783141,0.5371833,10.36004,-31.5934,-26.88934,1006.885
16.589903832,13.37234,23.68728,-2.266593,-0.1452601,0.3387516,0.5308564,10.36004,-31.5934,-26.88934,1006.885
16.625202179,23.1253,32.19663,-2.755306,-0.1714018,0.314513,0.5786098,10.05078,-34.50208,-26.40792,1006.885
16.657979489,14.86324,35.86037,-0.739368,-0.2118886,0.4249463,0.7494228,10.79246,-35.2327,-26.3974,1006.887
16.690756321,-70.55283,46.49706,-7.520248,-0.1690026,0.7146606,1.527728,12.32973,-36.32965,-26.38216,1006.889
16.723534107,-104.9056,12.2233,-1.22808,0.07529192,0.3523733,1.874756,12.32973,-36.32965,-26.38216,1006.889
16.756311417,49.65088,-21.45953,28.46118,-0.2940572,0.1245905,1.079803,13.78241,-36.36286,-28.5596,1006.889
16.791609764,64.0629,-43.08745,28.339,0.1478584,0.2507537,0.7613475,14.47748,-34.53648,-28.15408,1006.891
16.824386597,68.41135,-28.72793,21.80248,0.1278019,0.2906976,0.6462894,14.47748,-34.53648,-28.15408,1006.891
16.857163906,69.28104,-17.6776,5.064089,0.2734984,0.4994122,0.7187963,11.95213,-35.5999,-26.39315,1006.891
16.889940739,58.78263,-7.159098,-6.665002,0.2863469,0.6252432,0.7984822,11.26131,-37.39147,-24.25017,1006.889
16.922718048,64.55987,-3.554444,-12.04084,0.1660808,0.7615138,0.7884535,11.26131,-37.39147,-24.25017,1006.889
16.958017349,26.04498,-1.249829,-2.205504,0.09716929,0.7418507,0.7751684,10.49752,-38.51391,-22.05544,1006.891
16.990794182,-8.556294,2.354824,4.33102,0.07009592,0.6909429,0.7709771,10.8901,-39.96064,-21.16277,1006.889
17.023571491,-25.63951,6.550404,3.842308,0.05722853,0.5971454,0.8154343,10.8901,-39.96064,-21.16277,1006.887
17.056348324,-20.79409,4.304882,3.475774,0.07245955,0.5258087,0.8342788,11.30809,-39.59723,-21.16905,1006.887
17.091646671,-3.586632,-0.1861612,1.704193,0.07247825,0.5205452,0.8477647,11.31268,-39.97949,-22.46865,1006.887
17.124423981,7.470866,-3.318073,0.6045904,0.08603444,0.5321597,0.8207589,11.31268,-39.97949,-22.46865,1006.887
17.157201767,12.93749,-3.790815,0.3602343,0.09319448,0.5813065,0.8057457,11.3134,-39.97355,-22.03354,1006.886
17.189978600,5.855726,-1.663478,-0.1895668,0.1038224,0.6017569,0.7922115,11.31413,-39.96761,-21.59843,1006.887
17.222755909,1.072426,-1.131644,-0.1284778,0.1125542,0.6067502,0.7994037,11.31413,-39.96761,-21.59843,1006.886
17.258054256,-4.207839,-0.7179953,-0.006299737,0.1111561,0.581893,0.7984818,10.88865,-39.97253,-22.03299,1006.89
17.290831566,-5.512376,-0.2452539,0.1769673,0.1039155,0.5648232,0.8038195,11.67821,-39.96848,-21.5989,1006.89
17.323608399,-1.412405,0.05020955,0.2380563,0.1054298,0.5394698,0.7980779,11.67821,-39.96848,-21.5989,1006.892
17.356385708,5.110277,-0.8361807,-0.06738876,0.1160078,0.5838917,0.7999113,11.3134,-39.97355,-22.03354,1006.892
17.391684532,2.625446,-0.008883132,-0.800457,0.1271758,0.589036,0.8258706,11.30799,-39.59808,-21.23121,1006.892
17.424461842,-4.145719,0.1093022,-0.800457,0.07754885,0.6385974,0.8687547,11.30799,-39.59808,-21.23121,1006.893
17.457238674,-8.121449,-1.545293,4.025576,0.0230263,0.4783831,0.7974027,10.88937,-39.96659,-21.59788,1006.893
17.490015984,21.6344,-5.622688,1.582015,0.08213668,0.5283834,0.7726376,11.31413,-39.96761,-21.59843,1006.893
17.522792816,20.26775,-4.381742,-0.4950119,0.134283,0.6575599,0.795906,11.31413,-39.96761,-21.59843,1006.892
17.558091164,3.122412,-2.254405,-2.144415,0.155583,0.6824828,0.7823398,10.88937,-39.96659,-21.59788,1006.89
17.590868950,-17.81229,2.591195,-0.6171899,0.09751098,0.5951519,0.7604665,10.90362,-40.68952,-21.15131,1006.888
17.623646259,-18.24714,1.882083,-0.739368,0.07835855,0.4896064,0.8039935,10.90362,-40.68952,-21.15131,1006.888
17.656423092,9.582973,-2.490776,-1.289169,0.1292429,0.5445337,0.8673298,10.17474,-40.69372,-21.58548,1006.892
17.691721916,17.34807,-2.195312,-1.105902,0.1221989,0.63256,0.7873078,11.30799,-39.59808,-21.23121,1006.894
17.724498749,1.258789,0.6411363,0.1158783,0.09018359,0.6130944,0.75805,10.53206,-40.33015,-21.59168,1006.894
17.757276058,-1.474526,0.522951,-0.006299737,0.06937622,0.5857605,0.7745069,10.53206,-40.33015,-21.59168,1006.894
17.790052891,-6.195704,0.4047657,0.4824124,0.1009343,0.5930365,0.80234,11.67893,-39.96254,-21.16379,1006.894
17.822830677,-4.145719,0.2274876,0.4213234,0.1184586,0.5777045,0.8177252,10.89613,-40.33102,-21.59215,1006.892
17.858129025,2.066359,-0.777088,0.05478928,0.1126702,0.558051,0.7999582,10.89613,-40.33102,-21.59215,1006.892
17.890906334,5.545122,-0.777088,-0.06738876,0.1086947,0.5985222,0.8114593,10.89686,-40.32508,-21.15704,1006.89
17.923683166,2.128479,-0.3043465,0.1769673,0.09697542,0.6221486,0.7912343,11.30196,-39.2277,-20.80183,1006.89
17.956460476,-3.151787,0.5820436,0.2991453,0.09608936,0.5855867,0.7874405,11.30196,-39.2277,-20.80183,1006.89
17.991758823,-0.4184723,-0.06797581,-0.006299737,0.1092224,0.5794853,0.8047476,11.32765,-40.69648,-21.58697,1006.89
18.024536610,1.879996,-0.4816246,-0.1284778,0.12036,0.5922344,0.8037392,10.53206,-40.33015,-21.59168,1006.89
18.057313442,0.6375808,0.1683949,-0.4339229,0.10433,0.5935183,0.7975176,10.53206,-40.33015,-21.59168,1006.89
18.090090752,0.1406146,0.1093022,-0.06738876,0.102394,0.5915807,0.8013761,10.8901,-39.96064,-21.16277,1006.887
18.122868061,0.3890978,-0.1861612,0.1158783,0.1014291,0.5881334,0.7970513,10.89686,-40.32508,-21.15704,1006.887
18.158166409,0.5133393,-0.1861612,-0.06738876,0.1023729,0.5998368,0.7979941,10.89686,-40.32508,-21.15704,1006.887
18.190943241,-1.101801,0.05020955,0.1158783,0.1077345,0.5911083,0.7970318,10.88999,-39.96149,-21.22493,1006.887
18.223721027,-0.5427139,-0.1861612,-0.006299737,0.1058108,0.5843105,0.8023416,10.89676,-40.32593,-21.2192,1006.887
18.256498337,0.8239431,-0.1861612,-0.006299737,0.1106429,0.5930739,0.7960593,10.89676,-40.32593,-21.2192,1006.887
18.291796684,0.2027354,-0.008883132,0.1158783,0.1082372,0.5838035,0.7965603,11.31413,-39.96761,-21.59843,1006.889
18.324573517,0.326977,-0.008883132,0.1769673,0.1072486,0.5921083,0.8013638,11.31486,-39.96166,-21.16332,1006.889
18.357350826,0.2648562,-0.008883132,-0.1284778,0.1062793,0.5901086,0.7951114,11.31486,-39.96166,-21.16332,1006.889
18.390127659,-0.04574769,0.1093022,-0.2506558,0.1014165,0.5929869,0.7946372,11.32224,-40.321,-20.78464,1006.893
18.422904968,-0.4805931,0.05020955,-0.06738876,0.1091814,0.5945027,0.7931724,10.88865,-39.97253,-22.03299,1006.889
18.458203793,0.01637308,-0.1270685,0.05478928,0.1082334,0.5862688,0.8008888,10.88865,-39.97253,-22.03299,1006.889
18.490981102,0.2648562,-0.06797581,0.05478928,0.1072459,0.592572,0.7979935,10.89613,-40.33102,-21.59215,1006.89
18.523758412,0.01637308,0.1683949,0.1158783,0.1087057,0.5911164,0.7970296,11.31413,-39.96761,-21.59843,1006.89
18.556535244,-0.1078685,0.1683949,-0.1895668,0.1091929,0.5911472,0.8008792,11.31413,-39.96761,-21.59843,1006.889
18.591833592,0.07849386,-0.1270685,0.1158783,0.1043299,0.5925075,0.7922242,11.30809,-39.59723,-21.16905,1006.889
18.624610901,-0.23211,-0.06797581,-0.1284778,0.10628,0.5906258,0.7994428,10.53341,-40.31911,-20.78362,1006.889
18.657388687,0.01637308,0.05020955,-0.1284778,0.1092003,0.5872208,0.7965528,11.32162,-40.3261,-21.15759,1006.889
18.690165520,0.4512185,-0.1270685,0.05478928,0.1019083,0.5915734,0.8008958,11.32162,-40.3261,-21.15759,1006.889
18.722942829,0.01637308,-0.06797581,-0.006299737,0.1057832,0.5960025,0.8028054,10.8901,-39.96064,-21.16277,1006.889
18.758241177,-0.6048347,-0.008883132,0.1158783,0.1077478,0.5852539,0.7955966,11.32079,-40.33289,-21.65486,1006.889
18.791018009,0.01637308,-0.3043465,0.05478928,0.1057965,0.5891372,0.7960767,11.32079,-40.33289,-21.65486,1006.89
18.823795319,0.07849386,-0.008883132,-0.1895668,0.1077328,0.5920923,0.7984745,10.88937,-39.96659,-21.59788,1006.889
18.856573105,0.1406146,0.1093022,-0.06738876,0.1072535,0.5896598,0.799442,10.51853,-39.60128,-21.60314,1006.889
18.891871453,0.3890978,0.2865803,-0.1284778,0.104333,0.5920505,0.7965571,10.51853,-39.60128,-21.60314,1006.89
18.924648762,0.1406146,0.05020955,-0.1284778,0.1048215,0.5915943,0.8004075,11.32162,-40.3261,-21.15759,1006.889
18.957425594,0.07849386,0.05020955,-0.06738876,0.1033652,0.5900742,0.7936742,10.89072,-39.95555,-20.78982,1006.89
18.990202904,-0.2942308,-0.008883132,-0.006299737,0.1077355,0.5906178,0.7965512,10.89072,-39.95555,-20.78982,1006.892
19.022979736,0.1406146,-0.1270685,-0.06738876,0.1096741,0.5920917,0.796063,11.32151,-40.32695,-21.21975,1006.892
19.058279037,0.2648562,-0.06797581,-0.006299737,0.108228,0.5876997,0.7965544,11.32838,-40.69054,-21.15186,1006.896
19.091055870,0.1406146,-0.1270685,-0.006299737,0.1087122,0.5881875,0.7960712,11.32838,-40.69054,-21.15186,1006.895
19.123833180,0.2027354,-0.008883132,-0.1895668,0.1087126,0.5881942,0.7970339,10.90362,-40.68952,-21.15131,1006.895
19.156610012,0.5754601,0.05020955,-0.1284778,0.1053025,0.5930428,0.7979975,11.32151,-40.32695,-21.21975,1006.895
19.189387322,0.3890978,-0.008883132,-0.006299737,0.1009247,0.5954112,0.793672,11.32151,-40.32695,-21.21975,1006.893
19.224685669,-0.4805931,0.05020955,-0.006299737,0.1096917,0.5852969,0.7994428,11.67821,-39.96848,-21.5989,1006.893
19.257462978,-0.3563516,0.1093022,-0.1895668,0.1096877,0.5862441,0.7955905,10.89686,-40.32508,-21.15704,1006.893
19.290240288,0.07849386,-0.008883132,-0.06738876,0.1106624,0.585802,0.8008838,10.89686,-40.32508,-21.15704,1006.891
19.323017597,0.326977,0.1093022,-0.1284778,0.1048121,0.5959944,0.8028077,10.8901,-39.96064,-21.16277,1006.891
19.358315945,0.5133393,0.05020955,-0.1895668,0.1072553,0.588172,0.7955934,10.88999,-39.96149,-21.22493,1006.891
19.391093254,-0.4184723,-0.008883132,-0.3728338,0.1048128,0.5944897,0.7965523,10.88999,-39.96149,-21.22493,1006.891
19.423870087,-0.23211,0.1093022,-0.1284778,0.1014298,0.5876396,0.7960893,11.67883,-39.96338,-21.22595,1006.891
19.456647396,-0.04574769,0.1093022,-0.3728338,0.1023862,0.5934787,0.7941528,10.89613,-40.33102,-21.59215,1006.889
19.489425182,0.07849386,-0.1861612,-0.1284778,0.1067591,0.5925478,0.7951066,10.89613,-40.33102,-21.59215,1006.889
19.524723530,0.2027354,0.05020955,-0.006299737,0.1116158,0.5926051,0.7975017,11.32162,-40.3261,-21.15759,1006.889
19.557500363,0.1406146,-0.06797581,-0.1895668,0.1072526,0.5896464,0.7975165,11.31413,-39.96761,-21.59843,1006.889
19.590277672,-0.3563516,-0.1270685,-0.006299737,0.1062676,0.5954826,0.79751,11.31413,-39.96761,-21.59843,1006.889
19.623054505,-0.04574769,0.05020955,0.05478928,0.1048191,0.5925685,0.800406,12.04977,-40.32785,-21.15853,1006.889
19.658353329,0.7618224,-0.06797581,-0.1284778,0.1067569,0.5940289,0.7979925,10.90352,-40.69036,-21.21347,1006.889
19.691130638,0.3890978,-0.008883132,-0.006299737,0.1028624,0.5978827,0.7965518,10.89613,-40.33102,-21.59215,1006.889
19.723907948,-0.04574769,0.05020955,0.1158783,0.09898664,0.5944511,0.7980103,10.89613,-40.33102,-21.59215,1006.889
19.756685257,-0.9154386,-0.3043465,0.4824124,0.1043226,0.5974447,0.801844,11.30737,-39.60317,-21.60416,1006.889
19.789462090,-2.965424,-0.7179953,1.337659,0.1033296,0.6071972,0.8047198,10.90362,-40.68952,-21.15131,1006.889
19.824760437,-4.145719,-1.545293,2.620528,0.1033813,0.5877998,0.816783,10.90362,-40.68952,-21.15131,1006.891
19.857537747,3.681499,-5.149947,3.536863,0.1063301,0.5737305,0.8211294,10.53278,-40.32421,-21.15657,1006.893
19.890315533,-2.282096,-6.449986,5.858246,0.105194,0.6489321,0.8508632,11.31486,-39.96166,-21.16332,1006.893
19.923092365,1.320909,-15.07752,12.70022,0.1057357,0.6260726,0.8547472,11.31486,-39.96166,-21.16332,1006.893
19.958390713,7.470866,-18.62308,20.70288,0.1304061,0.6647209,0.8498169,10.5125,-39.2309,-21.17376,1006.893
19.991168022,4.178465,-21.6959,25.0402,0.1363125,0.626614,0.8257923,9.812011,-40.6818,-20.77695,1006.893
20.023944855,-0.6669555,-25.47783,26.07871,0.1465955,0.5896549,0.8214913,9.812011,-40.6818,-20.77695,1006.891
20.056722164,8.65116,-27.90063,28.15574,0.1849617,0.5804771,0.7862747,8.699495,-39.58588,-20.79273,1006.891
20.089499950,2.314842,-26.12785,28.03356,0.2174319,0.6070413,0.7851949,6.527932,-40.31461,-21.1514,1006.891
20.124798298,-5.01541,-28.84611,29.37752,0.2068285,0.573841,0.7862329,6.527932,-40.31461,-21.1514,1006.891
20.157575607,4.178465,-30.50071,26.99504,0.2782292,0.5611463,0.7658654,5.786877,-39.5789,-20.78897,1006.889
20.190352440,-6.257825,-29.14157,25.83435,0.2597258,0.5889738,0.7976373,3.245823,-39.93128,-20.34484,1006.891
20.223129749,-12.59414,-31.26891,29.13316,0.2941263,0.613852,0.7618974,3.245823,-39.93128,-20.34484,1006.891
20.258428097,-28.06222,-27.90063,32.12653,0.326185,0.6148006,0.7897389,2.51018,-39.57104,-20.78474,1006.891
20.291205883,-26.26072,-32.9826,33.3483,0.3307775,0.5248678,0.8086367,0.2657633,-39.55972,-20.34673,1006.891
20.323982716,-12.59414,-41.55104,36.52493,0.350996,0.6021053,0.82532,0.2657633,-39.55972,-20.34673,1006.895
20.356760025,-11.91082,-51.77407,43.97779,0.3513758,0.6534949,0.8608624,-1.569599,-38.83837,-21.22606,1006.897
20.389536858,4.613311,-64.36082,65.29786,0.4933387,0.7963449,0.9214433,-3.774747,-37.67314,-20.80628,1006.897
20.424835205,-19.36531,-65.60176,88.69495,0.5129507,0.696924,0.8185352,-3.774747,-37.67314,-20.80628,1006.897
20.457612515,22.62834,-76.593,105.7999,0.5815324,0.4119125,0.6527324,-6.342119,-36.56183,-19.94996,1006.897
20.490390301,113.2626,-80.55221,129.3192,0.7144324,0.4466071,0.5094004,-10.78983,-35.44007,-18.65609,1006.895
20.523167133,145.7517,-65.42448,148.7455,0.7276589,0.5838895,0.4143339,-10.78983,-35.44007,-18.65609,1006.894
20.558465958,129.414,-46.45573,152.9606,0.7720755,0.4928913,0.4422846,-15.53596,-34.27683,-14.37822,1006.894
20.591242790,128.1094,-33.86899,160.6578,0.7672965,0.463743,0.4587062,-20.71891,-32.3718,-9.241032,1006.892
20.624020100,75.36888,-17.6776,159.436,0.7898793,0.3622179,0.4698769,-25.85616,-29.74994,-4.985604,1006.892
20.656796932,58.53415,-7.690932,154.9765,0.8162631,0.3023534,0.5141899,-25.85616,-29.74994,-4.985604,1006.89
20.689574719,8.713282,-0.8361807,145.019,0.77679,0.162422,0.5400066,-30.35774,-25.6409,-2.930473,1006.888
20.724873066,21.13744,-4.027186,137.0775,0.7653508,0.06818806,0.5199586,-33.72015,-20.87754,-1.695399,1006.887
20.757650376,23.43591,-7.513654,128.5861,0.7780019,0.05759555,0.5223513,-33.72015,-20.87754,-1.695399,1006.887
20.790427208,13.74506,-10.05464,122.7826,0.7523249,0.03606215,0.5383296,-36.3652,-15.71452,-2.208397,1006.887
20.823204518,3.557257,-21.99136,121.9885,0.6955944,0.003518055,0.5491032,-37.90192,-11.33184,-1.840165,1006.885
20.858502865,-7.997208,-36.70544,119.6671,0.7240406,-0.1130463,0.5617269,-37.90192,-11.33184,-1.840165,1006.883
20.891280651,-14.02292,-46.57392,116.0017,0.6755061,-0.1338146,0.5050725,-38.71016,-6.878277,-0.6036055,1006.881
20.924057484,-17.00472,-50.94677,110.8092,0.6996272,-0.2936605,0.3921362,-39.94889,-2.12085,0.5665684,1006.88
20.956834793,11.50872,-54.90598,103.6007,0.7070076,-0.3365384,0.3806307,-39.94889,-2.12085,0.5665684,1006.878
20.989612103,0.9481847,-53.84232,93.4599,0.7193052,-0.4152837,0.3181432,-38.49588,1.549603,2.682869,1006.878
21.024910450,-7.624482,-48.05124,82.03625,0.7363792,-0.4528003,0.2955352,-39.3036,6.00741,4.230223,1006.876
21.057687283,-24.21073,-40.60556,69.94063,0.7637274,-0.5314535,0.2281982,-39.3036,6.00741,4.230223,1006.876
21.090465069,-38.12578,-31.328,58.33371,0.7671762,-0.55944,0.1916488,-38.25579,8.579626,5.92915,1006.876
21.123242378,-36.44852,-27.19152,49.29254,0.7823499,-0.6210682,0.1358677,-37.9301,10.78321,7.199636,1006.874
21.156019211,-31.47886,-22.70047,41.10661,0.7896767,-0.6476082,0.09256775,-37.9301,10.78321,7.199636,1006.874
21.191317558,-12.59414,-19.39128,34.99771,0.7741583,-0.6590466,0.07721822,-36.49875,12.25445,8.418012,1006.873
21.224094868,-0.791197,-16.8503,29.13316,0.7585939,-0.6499897,0.06761426,-35.06989,13.77539,8.827369,1006.871
21.256871700,0.9481847,-10.58647,22.71881,0.7799646,-0.660834,0.02329463,-35.06989,13.77539,8.827369,1006.871
21.289649487,9.210248,-0.06797581,16.73209,0.7634589,-0.6684948,-0.007943185,-35.08123,14.52209,10.12124,1006.867
21.324948311,13.2481,11.396,9.890121,0.7542831,-0.6884996,-0.00211493,-34.00325,15.2424,9.673263,1006.867
21.357725144,28.90253,20.85083,6.102602,0.7634591,-0.671017,-0.02045479,-34.00325,15.2424,9.673263,1006.867
21.390502453,36.04642,33.49667,1.948549,0.7964944,-0.7012972,-0.142272,-34.74638,15.96114,8.792519,1006.867
21.423279286,79.84158,59.49745,-3.977086,0.8503773,-0.749077,-0.4244058,-34.39728,16.67725,7.910366,1006.87
21.456056595,120.3443,126.154,-20.16568,0.8270363,-0.7720298,-0.6154164,-34.39728,16.67725,7.910366,1006.87
21.491355419,170.4137,260.4717,-33.78852,0.9650743,-0.6788512,-0.8994063,-34.76489,16.64925,5.797436,1006.868
21.524132729,301.4264,376.3524,-39.4698,-0.8592258,0.6705397,3.997854,-35.15453,17.2805,-1.423976,1006.868
21.556909561,-76.70278,-370.6973,48.3762,4.143703,0.3009756,2.129452,-35.15453,17.2805,-1.423976,1006.868
21.589686871,-142.3023,544.3529,35.66969,-0.8284701,-1.702716,0.5418115,-35.50421,15.3004,-13.01855,1006.868
21.624985218,129.7867,-125.4036,-38.3702,1.206652,0.01508308,1.107697,-35.85186,14.59617,-11.26618,1006.867
21.657762051,-22.90619,43.06968,-27.61854,0.4578333,-0.3004345,0.4090862,-34.397,14.5808,-12.13828,1006.867
21.690539837,7.160263,-20.51404,-23.46448,0.7386516,-0.5375261,0.5758101,-34.397,14.5808,-12.13828,1006.867
21.723317146,-3.959357,-17.20485,-10.94123,0.5663365,-0.3243437,0.7626658,-35.11164,13.85367,-12.12588,1006.867
21.756093979,-17.62593,-8.813693,-15.27855,0.5883392,-0.4005828,0.6987074,-35.81878,12.76805,-11.67264,1006.867
21.791392803,-10.85476,-9.936454,-20.47112,0.5785167,-0.5665549,0.6561396,-35.81878,12.76805,-11.67264,1006.869
21.824169636,-4.642685,-10.29101,-31.40606,0.5526732,-0.5073439,0.7273532,-36.54621,12.77574,-11.23659,1006.866
21.856947422,-10.60628,-15.1957,-49.54949,0.4973862,-0.5360432,0.7289717,-35.80195,11.99627,-10.35489,1006.866
21.889724732,-23.5274,-14.95933,-66.1657,0.5429797,-0.5238149,0.6816717,-35.80195,11.99627,-10.35489,1006.867
21.925023079,-29.61524,-16.08209,-85.53092,0.5346166,-0.4775928,0.6849914,-37.23122,10.54201,-10.33009,1006.867
21.957799911,-25.88799,-23.76414,-102.086,0.5922435,-0.4340886,0.5682996,-37.56617,9.102116,-9.063524,1006.866
21.990577221,-12.78051,-18.56399,-112.0436,0.7342564,-0.3409725,0.480696,-37.56617,9.102116,-9.063524,1006.866
22.023359776,-18.37138,-7.927303,-121.7567,0.6424027,-0.2975475,0.5323541,-38.23203,5.835816,-8.14079,1006.866
22.056131840,-12.28354,-13.83657,-128.7209,0.6651111,-0.2450812,0.5558079,-39.2473,1.780775,-7.205173,1006.866
22.091430187,0.5133393,-15.31389,-134.7076,0.6556864,-0.1689662,0.5167252,-39.2473,1.780775,-7.205173,1006.864
22.124207497,10.32842,-18.91854,-142.0383,0.6928661,-0.08857615,0.4760815,-39.16544,-2.586525,-6.701301,1006.866
22.156984806,12.25417,-19.86402,-149.6133,0.7115845,0.007670043,0.4965906,-38.36291,-6.597077,-6.639211,1006.864
22.189761639,-1.536646,-17.6776,-156.0276,0.677883,0.0927005,0.5080951,-38.36291,-6.597077,-6.639211,1006.864
22.225060940,4.302707,-19.68675,-161.2202,0.7572712,0.1774245,0.4095812,-37.89557,-12.1193,-6.117664,1006.864
22.257837772,12.99961,-18.26852,-155.8444,0.6469225,0.4427602,0.4575793,-35.24375,-17.64676,-5.598936,1006.862
22.290615082,-42.34999,-24.41416,-147.7806,0.6921124,0.6355734,0.4653646,-35.24375,-17.64676,-5.598936,1006.866
22.323391914,-125.4676,0.9365998,-135.6239,0.6923436,0.7275702,0.3872448,-33.32121,-23.11173,-5.080224,1006.866
22.356169224,-178.4566,41.47418,-123.8337,0.6007952,0.3999652,0.2421031,-29.23025,-27.94353,-6.750394,1006.866
22.391467571,-118.5101,62.98392,-119.924,0.5111756,0.1373356,0.4034863,-29.23025,-27.94353,-6.750394,1006.866
22.424245358,-10.23356,49.51078,-116.5641,0.871456,0.4321289,0.830118,-25.13276,-30.21037,-11.88044,1006.866
22.457022190,-4.704806,63.87031,-121.8789,0.9992555,0.619549,0.9436152,-20.37988,-31.73805,-16.15259,1006.866
22.489799500,-19.55167,66.3522,-123.345,0.675872,0.5936843,0.8346707,-20.37988,-31.73805,-16.15259,1006.866
22.525097847,5.172398,49.98352,-115.0369,0.3068953,0.5419593,0.7037307,-16.26233,-34.68028,-17.35517,1006.866
22.557875157,34.43129,28.76925,-93.16705,0.2588925,0.7168818,0.7021368,-10.77028,-36.53933,-19.07402,1006.866
22.590651989,-14.89261,33.02393,-77.46717,0.340816,0.7765368,0.707629,-6.66981,-38.432,-19.04966,1006.868
22.623429775,-28.3107,34.26487,-72.94659,0.3723634,0.5937328,0.7862916,-6.66981,-38.432,-19.04966,1006.868
22.656207085,-13.40172,28.3556,-72.64114,0.3557488,0.6374108,0.7838584,-2.282778,-39.55361,-20.34344,1006.87
22.691505432,-38.37426,34.50124,-70.31976,0.2441642,0.5985813,0.7971783,0.6345257,-39.94201,-21.58465,1006.87
22.724282265,-6.63055,29.83292,-72.70222,0.1653872,0.428941,0.7302302,0.6345257,-39.94201,-21.58465,1006.87
22.757059574,51.57662,18.84168,-75.6345,0.14453,0.6407497,0.8175683,4.698603,-39.96364,-22.46012,1006.87
22.789836407,56.04932,6.550404,-67.2653,0.09290273,0.7095919,0.8339533,7.605188,-39.60024,-22.03449,1006.876
22.825135708,69.84013,-16.7912,-36.65971,0.1168117,1.091437,0.9459597,7.605188,-39.60024,-22.03449,1006.876
22.857912541,33.8722,-21.75499,5.674979,0.1859691,0.9603722,0.7154209,10.52737,-39.94873,-20.35424,1006.876
22.890689850,-34.77126,-10.3501,23.39079,0.1610969,0.7998763,0.7080201,12.07358,-41.39229,-19.02794,1006.876
22.923466682,0.07849386,-13.30474,25.28455,0.1915395,0.6331541,0.5791942,12.07358,-41.39229,-19.02794,1006.876
22.956243992,-5.512376,-1.958942,16.91536,0.2322105,0.6806657,0.5689176,11.3447,-41.39648,-19.46211,1006.878
22.991542816,-18.55774,10.92326,5.858246,0.2404831,0.6784902,0.5963388,9.820952,-41.02841,-19.46588,1006.879
23.024320126,-30.48493,18.25076,-0.06738876,0.2022826,0.6281322,0.6845945,9.820952,-41.02841,-19.46588,1006.878
23.057097435,-18.49562,14.82338,-0.3728338,0.1824328,0.6218106,0.7799607,9.456148,-41.03348,-19.90053,1006.878
23.089874268,-5.388134,7.732258,1.704193,0.1600663,0.6418601,0.8184925,9.818772,-41.04624,-20.77122,1006.878
23.125172615,-6.071463,2.768473,2.864884,0.1591434,0.6158354,0.7891709,9.818772,-41.04624,-20.77122,1006.876
23.157949925,4.178465,-1.131644,0.9100355,0.1606481,0.585784,0.7381882,9.441173,-40.31649,-20.78221,1006.878
23.190727711,9.645093,-2.018034,-1.350258,0.185781,0.633166,0.7279486,9.812011,-40.6818,-20.77695,1006.878
23.223504543,5.607243,-0.008883132,-1.83897,0.1958726,0.6750449,0.7148648,9.812011,-40.6818,-20.77695,1006.879
23.256281853,-2.095733,2.118454,-0.6782789,0.1836999,0.6910892,0.7254595,10.53341,-40.31911,-20.78362,1006.879
23.291580200,-3.40027,2.236639,0.1158783,0.1794253,0.6501157,0.7216804,9.447934,-40.68093,-20.77648,1006.879
23.324357033,0.7618224,1.941175,0.1769673,0.1654004,0.6291632,0.7371489,9.447934,-40.68093,-20.77648,1006.878
23.357134819,-1.660888,0.7593217,-0.4339229,0.1775273,0.6356394,0.743368,10.18223,-41.05221,-21.14464,1006.883
23.389912129,6.104209,-0.06797581,-0.06738876,0.176533,0.6443609,0.7380623,10.53341,-40.31911,-20.78362,1006.883
23.422688961,2.99817,0.2274876,-0.3117448,0.1784746,0.6423452,0.7260266,10.53341,-40.31911,-20.78362,1006.883
23.457987785,3.619378,0.700229,-0.2506558,0.1769632,0.6657238,0.7279205,9.454072,-41.05046,-21.1437,1006.883
23.490764618,-0.2942308,0.6411363,-0.3117448,0.1755044,0.6651744,0.7207043,10.17005,-40.3123,-20.34804,1006.883
23.523541927,-0.8533178,1.232063,-0.06738876,0.1750662,0.645706,0.7231414,10.17005,-40.3123,-20.34804,1006.883
23.556319714,-0.4184723,0.4047657,-0.4339229,0.1716519,0.655035,0.7380577,10.17609,-40.68268,-20.77742,1006.882
23.591618061,-0.1078685,0.345673,-0.2506558,0.1677912,0.6422428,0.7241268,10.18358,-41.04117,-20.33658,1006.882
23.624394894,-0.2942308,0.522951,-0.3117448,0.1789286,0.6559995,0.7279304,10.54089,-40.67761,-20.34278,1006.882
23.657172203,1.507272,0.4047657,-0.2506558,0.1750416,0.6569378,0.7274569,10.54089,-40.67761,-20.34278,1006.88
23.689949036,1.693634,0.1683949,-0.4950119,0.1794104,0.657965,0.7298518,10.53268,-40.32506,-21.21873,1006.874
23.722726345,0.2648562,0.522951,-0.1895668,0.1750444,0.6554666,0.726015,10.90424,-40.68442,-20.77836,1006.878
23.758025170,1.569392,0.05020955,-0.3117448,0.1706744,0.6559373,0.7289128,10.90424,-40.68442,-20.77836,1006.878
23.790802479,1.010306,0.4638583,-0.1284778,0.1692209,0.6544607,0.7284372,10.54089,-40.67761,-20.34278,1006.878
23.823579312,2.501204,-0.008883132,-0.1895668,0.1677644,0.6549557,0.7313281,10.18285,-41.04712,-20.77169,1006.878
23.856356621,0.2027354,0.2865803,-0.1895668,0.1701782,0.6587985,0.7207265,10.18285,-41.04712,-20.77169,1006.877
23.891654968,2.128479,0.1683949,-0.1895668,0.1721241,0.6588717,0.728905,10.1686,-40.32418,-21.21826,1006.878
23.924432754,1.942117,0.1683949,-0.3728338,0.170199,0.6515467,0.7284392,10.18503,-41.02929,-19.46635,1006.88
23.957210064,1.879996,0.05020955,-0.4950119,0.1740524,0.664225,0.7260041,10.18503,-41.02929,-19.46635,1006.88
23.989986897,4.737552,-0.1861612,-0.2506558,0.1643552,0.6593139,0.7318109,10.54765,-41.04205,-20.33705,1006.88
24.022764206,-1.101801,0.522951,-0.1895668,0.1750106,0.6685762,0.720219,10.91101,-41.04886,-20.77263,1006.882
24.058062553,-0.4184723,0.2274876,-0.1284778,0.170155,0.6700537,0.7284114,10.91101,-41.04886,-20.77263,1006.882
24.090839386,0.1406146,0.4047657,-0.1284778,0.1653293,0.6568434,0.7255546,10.54765,-41.04205,-20.33705,1006.882
24.123617172,1.134547,0.4638583,-0.3728338,0.1687257,0.6583462,0.7274697,10.1843,-41.03523,-19.90146,1006.882
24.156394482,1.258789,-0.008883132,-0.2506558,0.1798772,0.6647473,0.7240642,10.1843,-41.03523,-19.90146,1006.882
24.191692829,3.060291,-0.2452539,-0.4339229,0.1672338,0.6719273,0.7211952,10.54765,-41.04205,-20.33705,1006.882
24.224470139,-1.163922,0.2274876,-0.3117448,0.1755115,0.6617485,0.7183027,10.18503,-41.02929,-19.46635,1006.882
24.257246971,1.072426,0.1683949,-0.3117448,0.1725755,0.6719785,0.7221451,10.18503,-41.02929,-19.46635,1006.882
24.290024757,-0.4184723,0.345673,-0.1895668,0.1754872,0.671976,0.7182873,10.1843,-41.03523,-19.90146,1006.88
24.322802067,0.2027354,-0.06797581,-0.1284778,0.1711469,0.6597773,0.7202414,10.1843,-41.03523,-19.90146,1006.88
24.358100414,0.4512185,0.05020955,-0.1895668,0.1653095,0.6636048,0.7173613,10.1843,-41.03523,-19.90146,1006.882
24.390877247,0.5133393,-0.1861612,-0.1284778,0.1716259,0.6627102,0.7211986,9.819499,-41.0403,-20.33611,1006.883
24.423654556,1.320909,-0.1270685,0.05478928,0.1721002,0.6680951,0.7245588,10.55442,-41.40648,-20.33132,1006.883
24.456431389,-0.6048347,0.05020955,-0.06738876,0.1706427,0.6680695,0.7226369,10.55442,-41.40648,-20.33132,1006.883
24.491730690,0.2648562,-0.1861612,-0.1895668,0.1759845,0.6686279,0.7264743,10.54838,-41.0361,-19.90194,1006.883
24.524507523,-0.4805931,0.1683949,0.05478928,0.1730802,0.6631894,0.7183062,10.54235,-40.66572,-19.47255,1006.883
24.557284832,0.1406146,-0.06797581,-0.1284778,0.1706563,0.661211,0.716871,9.820226,-41.03436,-19.901,1006.885
24.590061665,0.4512185,0.05020955,0.05478928,0.1721105,0.6632047,0.721678,9.820226,-41.03436,-19.901,1006.885
24.622838974,0.3890978,-0.3043465,0.05478928,0.1706411,0.6685498,0.7216735,10.1843,-41.03523,-19.90146,1006.883
24.658137798,0.6375808,-0.1270685,-0.06738876,0.1696737,0.6665802,0.7197533,10.55587,-41.3946,-19.46109,1006.885
24.690915108,0.5754601,-0.1861612,0.05478928,0.1716082,0.6695051,0.7178189,10.55587,-41.3946,-19.46109,1006.885
24.723692417,0.07849386,-0.06797581,-0.06738876,0.1696775,0.6636078,0.7125373,10.54765,-41.04205,-20.33705,1006.887
24.756469250,0.4512185,-0.3634392,-0.006299737,0.1720979,0.6680582,0.7192639,10.54017,-40.68355,-20.77789,1006.887
24.791767597,0.01637308,-0.008883132,-0.06738876,0.171133,0.6656216,0.7202327,10.54017,-40.68355,-20.77789,1006.885
24.824544907,0.326977,0.05020955,0.1158783,0.1730686,0.6690705,0.7235924,10.55514,-41.40054,-19.8962,1006.887
24.857322693,0.07849386,-0.3043465,-0.006299737,0.1696666,0.669499,0.7192675,10.1843,-41.03523,-19.90146,1006.887
24.890099526,0.4512185,-0.5407173,-0.1895668,0.1682422,0.6563539,0.7216975,10.1843,-41.03523,-19.90146,1006.885
24.922876835,1.507272,-0.7179953,-0.2506558,0.1706619,0.6597833,0.7216866,10.54838,-41.0361,-19.90194,1006.885
24.958175182,7.595108,-3.672629,-0.922635,0.1629592,0.6355011,0.740996,10.1843,-41.03523,-19.90146,1006.889
24.990952015,17.59655,-6.390893,-1.655703,0.1706875,0.648565,0.7192967,10.1843,-41.03523,-19.90146,1006.888
25.023729801,14.55263,-5.090854,-2.999662,0.1730869,0.6567274,0.6995428,10.91922,-41.40141,-19.89668,1006.888
25.056507111,29.95859,-8.459137,-8.131139,0.1799286,0.6347373,0.6807867,10.97459,-41.02523,-19.03226,1006.886
25.091805458,35.42522,-10.64557,-10.08599,0.1594203,0.6843008,0.6889437,10.97459,-41.02523,-19.03226,1006.886
25.124582768,36.79187,-10.88194,-13.81242,0.174786,0.7514392,0.6599244,10.56481,-41.7412,-18.15003,1006.884
25.157359600,12.37841,-11.05921,-20.71548,0.1598532,0.7087365,0.7004586,10.56626,-41.72931,-17.2798,1006.884
25.190137386,21.75864,-23.05503,-26.51893,0.1323513,0.6486166,0.7728187,10.56626,-41.72931,-17.2798,1006.884
25.222914696,62.57199,-36.11451,-25.6026,0.08539024,0.5852364,0.7499202,11.36997,-42.44904,-16.4613,1006.886
25.258213043,73.87798,-46.98756,-27.12982,0.1409733,0.6816916,0.6861033,12.10103,-42.42701,-14.72179,1006.886
25.290989876,102.3293,-51.71498,-22.2427,0.1840703,0.9165803,0.5835984,12.10103,-42.42701,-14.72179,1006.888
25.323767185,35.92218,-42.08287,-12.04084,0.2144967,0.9708368,0.5049825,13.20969,-43.13472,-12.97129,1006.888
25.356544018,48.71906,-45.33297,-21.1431,0.1169676,0.5165306,0.4269551,13.23278,-44.20511,-11.27582,1006.888
25.389321804,97.60812,-47.87395,-18.33301,0.187155,0.999073,0.3259382,13.23278,-44.20511,-11.27582,1006.888
25.424620152,19.02533,-35.52359,-13.32371,0.2085192,1.011869,0.389408,13.57948,-43.08889,-9.553029,1006.888
25.457397461,55.24174,-44.56477,-15.40073,0.1896869,0.7451408,0.2964704,14.68876,-43.79152,-7.429579,1006.888
25.490174294,63.13108,-34.99175,-6.726091,0.1988701,1.182974,0.3530708,14.68876,-43.79152,-7.429579,1006.888
25.522951603,-2.65482,-19.09582,-0.2506558,0.2236197,0.9667744,0.2599538,13.58519,-43.04219,-6.134295,1006.888
25.558250904,21.07532,-19.92312,-4.34362,0.1879255,0.8550241,0.2014807,15.42128,-43.7576,-4.819849,1006.888
25.591027737,27.78436,-14.07294,-3.244018,0.1773191,1.039474,0.2642863,15.41452,-43.39316,-4.825579,1006.888
25.623805046,-7.251758,-3.790815,0.4213234,0.2206212,0.9952202,0.2218905,15.41452,-43.39316,-4.825579,1006.888
25.656581879,0.07849386,0.522951,1.032213,0.2226704,0.9433637,0.186343,16.13664,-43.02452,-4.397138,1006.889
25.689359188,0.5133393,3.241215,-0.06738876,0.1981053,0.874038,0.2620795,15.40234,-42.65325,-4.028974,1006.889
25.724657536,6.042089,-2.195312,-4.893421,0.2106766,0.8970469,0.2639405,15.40234,-42.65325,-4.028974,1006.889
25.757435322,15.11172,0.7593217,-7.825694,0.1954781,0.9587905,0.2662903,15.40172,-42.65834,-4.401927,1006.887
25.790212155,15.3602,4.423068,-7.092626,0.1993356,0.9720396,0.2758884,15.76642,-42.65412,-4.029444,1006.893
25.822989464,2.563325,6.314034,-8.008961,0.1824826,0.9135015,0.2827556,15.76642,-42.65412,-4.029444,1006.891
25.858287811,2.749687,4.363975,-8.436584,0.1460514,0.9165198,0.2703221,15.39631,-42.28287,-3.599592,1006.887
25.891064644,17.96928,0.2865803,-6.237379,0.1822704,1.004135,0.2893586,15.76788,-42.64223,-3.159221,1006.887
25.923842430,-4.456323,4.659438,-1.411347,0.2032332,0.9773273,0.3312278,15.76788,-42.64223,-3.159221,1006.887
25.956619740,10.14206,-0.1270685,-0.3728338,0.1991945,0.8289167,0.2857317,16.49603,-42.64398,-3.160161,1006.887
25.989397049,38.15853,0.700229,-5.748667,0.2063596,0.8882458,0.3342428,16.13413,-42.62527,-1.854356,1006.887
26.024695396,32.00858,3.891234,-5.504311,0.2283039,1.060614,0.3714772,16.13413,-42.62527,-1.854356,1006.887
26.057472229,10.51478,3.300307,0.2991453,0.1893213,1.124822,0.4066123,16.48542,-41.89133,-1.431174,1006.887
26.090249538,-0.5427139,-4.086278,1.398748,0.1596922,0.9001614,0.2828298,16.4876,-41.8735,-0.1258385,1006.887
26.123027325,20.32987,-1.781664,3.903397,0.1089148,1.00904,0.2423518,16.4876,-41.8735,-0.1258385,1006.887
26.158325672,-39.11971,1.882083,10.50101,0.09004223,1.184145,0.232024,16.48218,-41.49802,0.676496,1006.887
26.191102505,-116.7707,12.16421,17.70951,0.04550917,0.9106684,0.1800734,15.74872,-41.11995,1.541929,1006.885
26.223879814,-80.0573,8.736834,27.05614,0.09061095,0.7278322,0.1677266,15.74872,-41.11995,1.541929,1006.887
26.256656647,-45.51815,11.63238,30.11058,0.1925153,0.7731314,0.2559872,14.63726,-40.43516,-1.886856,1006.887
26.289434433,-72.54069,31.36933,41.59532,0.2377035,0.9861253,0.3643467,13.90619,-40.4572,-3.626363,1006.885
26.324732781,-83.16334,35.15126,37.38018,0.2409468,0.8417923,0.3361562,13.90619,-40.4572,-3.626363,1006.885
26.357510090,-56.32717,28.47379,34.81444,0.2625801,0.951221,0.4278801,12.08228,-40.4817,-5.737413,1006.887
26.390287399,-14.20928,24.21912,48.00967,0.2302223,1.076422,0.4012932,11.34518,-40.13335,-7.047539,1006.887
26.423064232,-73.53462,38.99229,59.25005,0.1936639,1.145645,0.4542254,11.34518,-40.13335,-7.047539,1006.887
26.458363533,-96.08447,38.22408,68.16904,0.08567077,0.8239674,0.4809599,10.18478,-39.77209,-7.486892,1006.889
26.491140366,-67.81951,29.83292,67.68033,0.08238364,0.7847744,0.5219426,7.632711,-39.79485,-9.597003,1006.889
26.523917675,-60.67562,32.55119,62.85431,0.244644,0.7621346,0.5730975,5.803383,-39.44389,-10.90572,1006.888
26.556694508,-84.65424,43.01059,50.0867,0.1762843,0.7344222,0.6623533,5.803383,-39.44389,-10.90572,1006.889
26.589471817,-101.7375,46.67434,32.06544,0.149521,0.5605679,0.6973369,4.330748,-38.73445,-12.59359,1006.889
26.624770165,-69.99374,40.05595,12.82239,0.1074585,0.4928502,0.7451935,3.206711,-37.24306,-14.79161,1006.889
26.657547951,-100.3087,32.66937,-11.00232,-0.08421765,0.6628867,0.844071,3.206711,-37.24306,-14.79161,1006.889
26.690324783,-78.81489,5.191273,-54.86423,-0.03866263,0.267407,0.7189236,3.18352,-36.17353,-16.54925,1006.889
26.723102093,-44.52422,-31.97802,-89.44062,0.1033793,0.6236376,0.997721,3.857585,-33.25978,-16.59603,1006.891
26.758400440,-40.36213,-48.70125,-126.2773,-0.1576918,0.5325997,0.8969101,3.857585,-33.25978,-16.59603,1006.891
26.791177750,8.340557,-91.54345,-155.2946,0.2173818,0.4360458,0.8489925,5.646346,-31.42412,-15.32169,1006.891
26.823955059,33.56159,-141.0631,-175.515,0.5329478,0.6651439,0.846936,7.785662,-28.86047,-14.05928,1006.891
26.856732369,1.196668,-158.6727,-179.3636,0.3903337,0.7530454,0.5616943,7.785662,-28.86047,-14.05928,1006.891
26.889509678,-45.33179,-156.0727,-167.8789,0.6486433,0.744901,0.4807065,9.573917,-26.95898,-12.41295,1006.891
26.924808025,-64.09226,-131.6674,-153.1565,0.7165099,0.5679303,0.37395,9.882555,-24.05539,-13.26733,1006.889
26.957584858,-69.49677,-95.67993,-128.843,0.6462049,0.544195,0.4771639,9.882555,-24.05539,-13.26733,1006.889
26.990362644,-16.9426,-54.84689,-101.7806,0.5881956,0.4356191,0.4817974,9.851151,-22.63331,-15.90092,1006.889
27.023139954,9.645093,-13.71838,-66.83768,0.8294045,0.4878097,0.483072,10.16717,-20.08907,-16.37661,1006.888
27.058438301,52.81903,23.21454,-42.52425,0.6678661,0.4025161,0.3882741,10.16717,-20.08907,-16.37661,1006.888
27.091215134,138.6078,34.0285,-40.26396,0.5626295,0.5193505,0.2266101,10.92438,-18.25094,-15.10094,1006.894
27.123992443,117.9216,28.29651,-28.59596,0.5164059,1.078669,0.8006227,12.74299,-17.85011,-12.1254,1006.894
27.156769276,150.8456,23.74638,40.12918,0.4400561,1.348475,0.8904117,12.74299,-17.85011,-12.1254,1006.894
27.189547062,42.94183,35.91947,79.5316,-0.1254754,0.8178388,0.623953,15.31222,-18.5265,-7.828269,1006.895
27.224845886,151.7153,32.37391,54.54619,-0.1559907,0.9783682,0.5626505,16.76394,-18.14772,-6.530543,1006.895
27.257622719,20.32987,39.7014,58.76134,0.1926544,1.199091,0.6471733,16.76394,-18.14772,-6.530543,1006.894
27.290400028,-15.01686,20.90993,49.04818,0.1383926,0.7075621,0.487268,16.43866,-19.92828,-3.517801,1006.895
27.323176861,19.5223,36.80586,21.98575,0.3095027,0.6038638,0.3575321,16.81095,-20.2817,-2.642317,1006.895
27.358476162,-10.79264,54.77003,2.376172,0.2640001,0.80874,0.6682909,16.81095,-20.2817,-2.642317,1006.894
27.391252995,-7.810845,45.3743,-1.961148,0.1376804,0.8530322,0.7460231,16.83123,-21.37501,-2.625127,1006.895
27.424030304,12.37841,24.10093,-4.465798,0.1616289,0.747564,0.5386583,16.46861,-21.36225,-1.754433,1006.895
27.456807137,-29.92584,29.1829,-6.481735,0.2189111,0.962475,0.5579344,16.46861,-21.36225,-1.754433,1006.895
27.489584446,-28.99403,16.71435,-7.520248,0.1066972,0.7845187,0.5960149,17.55481,-20.99449,-1.326462,1006.895
27.524883270,-36.57276,19.78716,-18.39409,0.2251557,0.7801413,0.5244991,17.17793,-20.2588,-0.9023402,1006.895
27.557660580,-59.37109,18.07348,-34.88813,0.2067007,0.5960833,0.623018,18.26268,-19.90292,-1.344591,1006.895
27.590437412,-56.38929,20.319,-83.69825,0.3320408,0.3420362,0.4993936,18.26268,-19.90292,-1.344591,1006.894
27.623214722,16.72686,27.5874,-127.8656,0.05710397,1.010376,0.5669104,18.98865,-19.9225,-2.650866,1006.894
27.655991554,-50.86054,14.76429,-125.4831,-0.1929959,1.273976,0.8135636,20.83341,-17.70557,-0.1391625,1006.894
27.724068165,-152.4901,31.07387,-75.69559,-0.02500915,0.6538042,0.7274548,23.69622,-15.11179,-0.9920514,1006.894
27.756844998,-105.6511,35.26945,-80.88815,-0.2787023,0.553194,0.7821206,25.10688,-12.97027,-4.074092,1006.894
27.789622307,-66.76346,38.34227,-67.38748,-0.02322727,0.5381804,0.8373753,25.10688,-12.97027,-4.074092,1006.895
27.824920654,-56.20293,46.49706,-57.97977,-0.2908572,0.5887162,0.9322808,25.78563,-10.43794,-5.358318,1006.901
27.857697487,-52.66204,53.4109,-72.2746,-0.4521564,0.6278781,0.9446384,26.11444,-8.628512,-6.257662,1006.901
27.890475273,44.49485,92.05752,-38.85891,-0.8506665,0.2772135,0.5138493,26.11444,-8.628512,-6.257662,1006.897
27.923252583,161.1577,87.62556,-7.336982,-1.074155,0.7289487,0.4679691,27.15895,-6.013389,-5.865025,1006.899
27.956029415,130.8427,86.91645,-76.00104,-0.6626654,0.8251165,0.3551722,26.43963,-6.359097,-4.615178,1006.899
27.991327763,3.992103,168.1689,-135.6239,-0.2027915,-0.4679932,0.08021016,26.43963,-6.359097,-4.615178,1006.899
28.024105072,111.5853,115.931,-127.4991,0.1737242,0.8747902,1.100187,26.80589,-6.342139,-3.310313,1006.899
28.056882858,19.58442,106.1216,-89.37953,0.5909675,0.4319485,1.211541,25.67745,-4.117235,-0.7326133,1006.899
28.089659691,-3.089666,73.14786,-68.42599,0.04757265,0.3564942,0.749392,25.67745,-4.117235,-0.7326133,1006.899
28.124958515,46.10999,83.96181,-42.09663,-1.382115,0.5610263,0.4333318,24.88593,-0.436306,1.759537,1006.899
28.157735348,27.72224,69.60229,-22.12052,-1.174791,0.5544482,0.3587203,23.75729,1.786899,4.21292,1006.899
28.190512657,37.78581,76.10249,-39.53089,-0.9447994,0.6047647,0.2440162,23.75729,1.786899,4.21292,1006.899
28.223290443,-9.612348,55.71552,-51.44325,-0.9050466,0.6333981,0.2515806,22.98504,4.436105,6.783464,1006.903
28.256067276,20.76471,39.11047,-51.07672,-0.8249338,0.4284033,0.2324451,22.58996,6.282091,8.433572,1006.903
28.291365624,25.42377,32.37391,-56.81908,-0.855112,0.4795461,0.3393019,22.58996,6.282091,8.433572,1006.903
28.324142933,3.992103,27.64649,-57.97977,-0.891241,0.3438338,0.2673879,21.12231,7.032285,9.729326,1006.899
28.356919766,-8.494174,24.3373,-56.45255,-0.9411718,0.3093514,0.2714092,20.71839,9.225723,10.13053,1006.899
28.389697552,-0.6669555,18.90078,-57.06344,-0.8052463,0.3089492,0.1902186,20.71839,9.225723,10.13053,1006.901
28.424995899,-1.598767,15.00066,-53.09266,-1.105536,0.4082459,0.2625041,19.90396,10.69725,10.97885,1006.899
28.457773209,9.955697,9.564132,-46.98375,-0.8618526,0.2172238,0.1649789,19.87016,12.51944,10.9502,1006.899
28.490550041,-3.524511,13.99608,-47.35028,-0.9984656,0.3114491,0.291759,19.87016,12.51944,10.9502,1006.899
28.523327351,10.01782,13.8188,-39.89743,-0.9503644,0.2981766,0.28637,19.48322,13.66247,10.0623,1006.899
28.556105137,-7.935086,18.90078,-39.28654,-0.8869054,0.1513969,0.2541895,19.4725,14.41427,11.72913,1006.901
28.591403484,-3.40027,29.47836,-39.4698,-0.953365,0.3392198,0.3089393,18.73623,14.76941,10.91627,1006.901
28.624180794,-6.941154,33.08302,-33.84961,-0.9575886,0.02830372,0.07740153,18.73623,14.76941,10.91627,1006.901
28.656957626,-11.91082,44.13335,-33.11655,-0.9808284,0.229689,0.2095276,19.08813,15.50845,11.71241,1006.9
28.689734936,1.817876,49.56988,-29.51229,-0.9467505,0.1773016,0.1291383,18.71126,16.24415,12.13653,1006.901
28.725033760,-5.8851,55.24277,-31.46714,-0.9956023,0.09046438,0.09713382,18.71126,16.24415,12.13653,1006.901
28.757811070,-5.698738,58.37469,-29.45121,-0.9503525,0.05287988,0.100934,17.98529,16.26372,13.4428,1006.901
28.790587902,-5.07753,60.08838,-27.37418,-1.026688,0.0749046,-0.001929503,16.5116,17.3843,15.16794,1006.9
28.823365212,-8.18357,60.79749,-26.1524,-1.020323,0.05658418,0.01733748,16.5116,17.3843,15.16794,1006.9
28.891441345,-8.99114,67.1795,-26.27458,-1.020777,0.02625211,-0.07166765,14.68871,17.78791,17.71307,1006.9
28.924218178,-7.43812,70.3705,-29.02358,-1.058262,0.06283029,-0.08944425,14.68871,17.78791,17.71307,1006.898
28.956995487,-1.350284,68.7159,-30.00101,-1.137377,0.02781512,-0.1970289,12.85625,18.53304,18.57418,1006.898
28.989772797,-2.219975,66.82494,-29.81774,-1.106201,-0.0158149,-0.2052202,12.10989,19.64508,19.80111,1006.898
29.025071144,-3.40027,64.57941,-28.22943,-1.110224,0.04058081,-0.2149229,12.10989,19.64508,19.80111,1006.898
29.057847977,2.314842,69.60229,-28.71814,-1.107356,0.0626184,-0.2010034,10.65576,19.6664,21.10832,1006.898
29.090625763,-11.53809,66.23402,-32.20021,-1.09796,-0.02506495,-0.2846505,10.65118,20.04867,22.40793,1006.898
29.123403072,-10.29568,62.03844,-29.14576,-1.142442,0.1022879,-0.2674079,10.65118,20.04867,22.40793,1006.898
29.156179905,-14.89261,44.07426,-13.50697,-1.308926,0.05496196,-0.3593632,9.857763,20.43283,23.70855,1006.898
29.191478252,-18.55774,28.3556,11.53952,-1.160067,-0.02941097,-0.2045906,9.503249,20.09219,25.39304,1006.898
29.224255562,-25.08042,4.718531,26.38416,-1.17066,-0.05284878,-0.1304004,9.503249,20.09219,25.39304,1006.898
29.257033348,-8.556294,-13.18655,21.31377,-1.134241,-0.0510102,-0.1198996,10.68008,19.02584,27.5843,1006.898
29.289810181,6.787538,-20.33677,21.37486,-1.04963,0.08242086,-0.2242755,13.26315,17.20348,28.04478,1006.896
29.325108528,9.458731,-29.37795,24.67366,-1.007148,-0.02969812,-0.2896725,13.26315,17.20348,28.04478,1006.896
29.357885838,81.33247,-35.22812,33.95919,-0.9873046,-0.05984534,-0.5866743,16.20354,15.7447,28.49905,1006.894
29.390663147,70.89619,-31.50528,40.80117,-1.024065,0.09966426,-0.5069215,19.12969,15.00884,28.50675,1006.897
29.423440456,61.0811,-39.60098,48.31511,-0.8925553,-0.08079074,-0.560874,19.12969,15.00884,28.50675,1006.897
29.456217766,70.83406,-26.18694,59.55549,-0.8788629,0.1031719,-0.4572096,21.74349,14.62032,27.20378,1006.897
29.491516113,36.72976,-34.22355,53.75204,-0.9721049,-0.04326389,-0.1814288,24.66214,14.24296,26.77063,1006.895
29.524293423,71.95224,-49.52855,53.69095,-0.8329131,-0.1527805,-0.05884663,26.84297,14.20801,24.59226,1006.893
29.557070255,125.811,-61.52436,50.69759,-0.8316795,-0.05321072,-0.02963656,26.84297,14.20801,24.59226,1006.89
29.589848042,138.173,-76.23844,47.39878,-0.759511,0.0243699,-0.02607377,29.409,13.08566,22.92787,1006.89
29.622625351,126.4322,-65.83813,38.29652,-0.6993659,0.05516835,-0.01182199,31.26542,14.1388,20.29758,1006.888
29.657923699,88.60061,-48.99672,29.68296,-0.7561114,0.0567398,0.142346,31.26542,14.1388,20.29758,1006.886
29.690700531,91.89301,-51.71498,31.88217,-0.80756,0.05513386,0.1833862,33.07333,14.45217,16.87077,1006.885
29.723477841,84.62488,-49.9422,27.2394,-0.8375693,0.2159887,0.1682927,34.51936,14.78425,14.74976,1006.883
29.756255627,35.42522,-45.27388,26.87287,-0.8975822,0.3504019,0.2389926,34.51936,14.78425,14.74976,1006.883
29.791553974,7.284504,-48.70125,33.65375,-0.9111648,0.3494852,0.2635757,35.96454,15.10953,12.13148,1006.879
29.824330807,-7.624482,-47.93305,41.22879,-0.868145,0.4377081,0.291741,37.06957,14.3721,11.70642,1006.879
29.857108116,-48.87268,-43.73747,55.46253,-0.7912084,0.5725576,0.4006244,37.06957,14.3721,11.70642,1006.878
29.889885426,-72.04372,-43.85565,84.35764,-0.7184942,0.6561374,0.5659144,37.83879,12.11789,11.36786,1006.876
29.922662735,-104.9677,-48.46488,101.8902,-0.699656,0.685055,0.4993983,38.96265,10.27526,10.08977,1006.876
29.957961559,-121.1191,-29.02339,92.23811,-0.7402066,0.7808453,0.4555461,38.96265,10.27526,10.08977,1006.876
29.990738392,-138.5751,-23.58686,83.50239,-0.975956,0.9113753,0.5993544,40.18776,6.245857,8.845973,1006.876
30.023515701,-157.0871,-55.67419,92.42139,-0.8304165,0.5787052,0.7015592,41.00348,1.433803,8.050255,1006.874
30.056292534,-151.6826,-63.06077,87.10664,-1.058804,0.2468501,0.7401473,41.00348,1.433803,8.050255,1006.874
30.091591835,-42.72272,-125.2854,84.96852,-1.470027,0.1977651,0.6194121,41.80925,-2.970056,6.004676,1006.872
30.124368668,-31.6031,-185.3826,74.64448,-1.164356,0.2875403,0.5550121,41.5264,-7.831288,1.41868,1006.872
30.157145977,-57.50747,-201.6922,33.59266,-1.009765,0.1486899,0.2227151,41.5264,-7.831288,1.41868,1006.872
30.189922810,11.19811,-253.0437,5.247356,-0.1383298,-0.06070264,-0.1896378,40.85444,-11.56732,-5.36055,1006.872
30.222700119,94.12936,-228.2248,16.79318,1.216758,0.02986627,-0.07072248,40.07967,-13.12931,-13.10646,1006.871
30.257998943,79.28249,-129.5991,26.32307,1.87508,0.3862035,-0.6076139,40.07967,-13.12931,-13.10646,1006.867
30.290776253,-53.46962,-22.28682,34.02028,1.538308,0.2922577,-0.615338,36.81184,-14.30818,-19.92251,1006.867
30.323553562,-44.89695,29.06472,9.34032,1.146266,-0.2256082,-0.5144672,33.57281,-16.51072,-21.62435,1006.87
30.356330395,-127.2691,52.81997,-41.24138,0.6604016,-0.4004886,-0.9857484,33.57281,-16.51072,-21.62435,1006.868
30.391629696,-117.454,163.3233,-167.268,-0.4432333,-1.265891,-1.049698,32.84393,-16.51492,-22.05852,1006.868
30.424406529,44.86758,220.4068,-219.6213,-2.468632,-0.4907965,-1.385904,34.61989,-13.94445,-20.36054,1006.87
30.457183838,329.3807,-8.695507,-55.23077,-2.315427,2.197472,-0.6880124,34.61989,-13.94445,-20.36054,1006.87
30.489960671,-899.0576,695.9256,-70.93065,-0.1287713,7.983182,14.6386,38.52736,-8.034745,-13.99287,1006.87
30.522737980,577.4911,-417.3805,694.5759,-8.855357,3.603221,6.217037,40.31561,-6.133257,-12.34653,1006.873
30.558036804,-242.1304,-919.9637,394.6898,6.373738,-1.840104,-2.030132,35.64378,-10.30864,-20.85436,1006.885
30.590814114,773.42,587.3724,342.2755,-6.653893,3.703203,2.188443,35.64378,-10.30864,-20.85436,1006.889
30.623590946,-728.5361,168.8189,91.07742,1.132581,0.1699184,0.2796974,14.25654,-22.00251,-22.32045,1006.894
30.656368256,177.1227,74.21152,-5.443222,-0.6544455,1.62727,1.255534,14.03453,-29.30442,-18.78569,1006.894
30.691666603,208.9907,-48.99672,-23.40339,0.2262406,0.1843727,-0.1942414,14.03453,-29.30442,-18.78569,1006.897
30.724443913,113.2626,-51.59679,-16.62251,-0.2449108,1.065033,-0.1751968,16.57816,-28.51117,-13.64126,1006.899
30.757221222,-81.79668,8.44137,-9.35292,0.09613974,1.159101,-0.3653226,17.33511,-29.5366,-8.527987,1006.901
30.789998532,-243.1865,41.47418,11.1119,-0.8337111,1.280349,0.3288983,17.33511,-29.5366,-8.527987,1006.897
30.822775841,-233.2471,17.24618,31.82108,-0.9318122,-0.04000264,0.8697648,17.68963,-29.19596,-10.21247,1006.897
30.858074188,158.9834,-6.036337,-0.1284778,-0.2009978,0.5217249,0.6457584,18.01732,-27.81551,-15.83016,1006.899
30.890851021,-0.8533178,-11.9456,10.13448,-0.08092208,1.064353,0.5806346,18.01732,-27.81551,-15.83016,1006.902
30.923628807,-80.55427,6.01857,1.582015,-0.225159,0.4602122,0.5838128,17.27524,-27.01821,-15.40652,1006.904
30.956406116,-12.84263,-11.23649,12.33368,-0.2198382,0.3038723,0.7876518,17.65324,-27.81464,-15.82969,1006.907
30.991704464,34.05856,-12.65472,14.28853,-0.06606425,0.7796056,0.7976413,17.65324,-27.81464,-15.82969,1006.903
31.024481297,-2.344217,-5.090854,9.34032,-0.04867376,0.7970315,0.6911929,17.27982,-27.40048,-16.70613,1006.903
31.057258606,-21.29105,0.4047657,2.742706,-0.09381434,0.597415,0.7556219,16.93257,-28.17139,-15.38791,1006.905
31.090036392,3.495136,1.054785,0.7267684,-0.1017055,0.6530253,0.7776994,16.93257,-28.17139,-15.38791,1006.91
31.122813225,5.855726,5.13218,-1.533525,-0.06732997,0.6906466,0.7534931,16.91502,-27.40555,-17.14077,1006.914
31.158111572,-2.468458,3.3594,-1.594614,-0.1206334,0.6403836,0.7334781,16.55239,-27.39279,-16.27007,1006.911
31.190888882,-1.163922,2.295732,-0.6171899,-0.1376501,0.6500024,0.7363921,16.55239,-27.39279,-16.27007,1006.911
31.223666191,2.314842,-4.677206,1.520926,-0.09984892,0.6774613,0.7174881,16.55239,-27.39279,-16.27007,1006.914
31.256443977,-10.79264,-3.495351,0.1158783,-0.1013503,0.7009972,0.7420055,16.93039,-28.18922,-16.69324,1006.916
31.291742325,-2.282096,-2.313498,0.05478928,-0.09192225,0.6183667,0.7546232,16.93039,-28.18922,-16.69324,1006.92
31.324519157,2.99817,-1.4862,0.2380563,-0.09641167,0.6679868,0.7516708,16.55312,-27.38684,-15.83496,1006.92
31.357296467,-2.779062,0.522951,-1.166991,-0.09737163,0.6641127,0.7560112,16.90898,-27.03517,-16.71139,1006.92
31.390073299,-3.089666,0.5820436,-1.411347,-0.09440971,0.6441857,0.758441,16.90898,-27.03517,-16.71139,1006.922
31.422851086,-0.791197,-0.4816246,0.5435014,-0.1196472,0.6375968,0.7517717,16.93039,-28.18922,-16.69324,1006.923
31.458149433,1.445151,-1.545293,1.093302,-0.1031841,0.6592374,0.76229,17.28055,-27.39453,-16.27102,1006.921
31.490926743,-4.829047,-0.1270685,0.2380563,-0.1060596,0.6436416,0.7642457,15.82424,-27.39104,-16.26914,1006.923
31.523703575,-0.04574769,-2.13622,1.704193,-0.09101707,0.6461353,0.7545792,15.82424,-27.39104,-16.26914,1006.923
31.556480885,-0.4805931,-0.4816246,1.154392,-0.09392796,0.6451403,0.7550689,16.93112,-28.18327,-16.25813,1006.924
31.591779709,0.5133393,-0.1861612,0.4213234,-0.1123679,0.6386014,0.7474206,16.5449,-27.03429,-16.71091,1006.926
31.624557018,1.134547,-0.008883132,-0.2506558,-0.09251902,0.6646101,0.7516667,16.5449,-27.03429,-16.71091,1006.928
31.657334328,-0.6669555,-0.777088,-0.4339229,-0.09876146,0.6348388,0.7502822,16.55883,-27.82985,-17.13361,1006.93
31.690111160,-1.288163,0.700229,-1.044813,-0.1119371,0.6650255,0.7647089,17.29447,-28.19009,-16.69371,1006.93
31.722888470,-0.9154386,-0.4225319,-0.06738876,-0.1147745,0.6308323,0.7536958,17.29447,-28.19009,-16.69371,1006.931
31.758187294,-0.1699892,-0.6589026,-0.006299737,-0.09881058,0.6557909,0.7516949,17.27378,-27.03009,-16.27674,1006.933
31.790964604,-1.723009,-0.6589026,-0.06738876,-0.1118564,0.6309302,0.7642787,16.90898,-27.03517,-16.71139,1006.935
31.823741436,0.01637308,0.1093022,0.1158783,-0.1041474,0.6548058,0.7565226,16.90898,-27.03517,-16.71139,1006.937
31.856518746,-0.4805931,0.522951,-0.1895668,-0.1152799,0.6401152,0.7584966,16.55239,-27.39279,-16.27007,1006.938
31.889295578,1.320909,-0.2452539,0.5435014,-0.1046242,0.6524135,0.7632664,16.92363,-27.82478,-16.69897,1006.938
31.924594879,0.6375808,0.1683949,0.05478928,-0.08519245,0.6476651,0.7574512,16.92363,-27.82478,-16.69897,1006.94
31.957371712,-0.04574769,-0.1861612,-0.1284778,-0.09536931,0.6382964,0.7531572,16.9229,-27.83072,-17.13408,1006.94
31.990149021,0.4512185,-0.2452539,-0.1284778,-0.100768,0.6626099,0.754096,17.28771,-27.82565,-16.69944,1006.94
32.022925854,-1.909371,-1.131644,0.1158783,-0.09583908,0.6324781,0.7574993,17.28771,-27.82565,-16.69944,1006.94
32.058224678,-0.23211,-0.7179953,0.1769673,-0.1007206,0.6441565,0.7618256,16.9229,-27.83072,-17.13408,1006.94
32.091001511,0.5133393,0.2274876,0.05478928,-0.1036752,0.6616718,0.7627689,16.18686,-27.4038,-17.13983,1006.942
32.123779297,-0.8533178,0.05020955,-0.06738876,-0.1026442,0.6343294,0.7517363,16.18686,-27.4038,-17.13983,1006.943
32.156556606,1.010306,-0.3043465,0.2380563,-0.1109237,0.6439742,0.7478905,16.54563,-27.02835,-16.2758,1006.943
32.189333439,-0.6048347,-0.3634392,0.05478928,-0.103149,0.6426115,0.7526878,16.53742,-26.6758,-17.15176,1006.945
32.224631786,-0.4805931,0.05020955,0.05478928,-0.1002306,0.6422091,0.761346,16.53742,-26.6758,-17.15176,1006.945
32.257409096,-0.23211,0.05020955,0.05478928,-0.1045953,0.6382161,0.7526978,16.55955,-27.82391,-16.6985,1006.943
32.290186882,-0.04574769,-0.1861612,-0.3117448,-0.1041315,0.647477,0.7531641,16.55883,-27.82985,-17.13361,1006.943
32.322963715,-1.101801,-0.3043465,-0.006299737,-0.1031264,0.6323571,0.7488523,16.55883,-27.82985,-17.13361,1006.941
32.358262062,0.7618224,-0.7179953,0.2380563,-0.09927952,0.6489753,0.752669,16.54418,-27.04024,-17.14603,1006.945
32.391039372,-1.350284,-0.2452539,-0.006299737,-0.1026614,0.6421419,0.7546128,16.92363,-27.82478,-16.69897,1006.941
32.423816204,0.07849386,-0.1861612,-0.006299737,-0.1036146,0.6348385,0.7560701,16.92363,-27.82478,-16.69897,1006.941
32.456593990,-0.8533178,0.4047657,-0.2506558,-0.09781721,0.6475598,0.7574813,16.18832,-27.39191,-16.26961,1006.945
32.489371300,-0.2942308,0.345673,-0.1895668,-0.1060572,0.6421638,0.7618412,16.90898,-27.03517,-16.71139,1006.945
32.524669647,-0.4805931,0.522951,-0.3117448,-0.0953806,0.6451918,0.7642181,16.91574,-27.3996,-16.70566,1006.943
32.557446957,0.6375808,0.6411363,-0.2506558,-0.1021666,0.6392606,0.7599109,16.91574,-27.3996,-16.70566,1006.939
32.590223789,-0.3563516,-0.5407173,-0.006299737,-0.1021784,0.6431167,0.7541288,16.19548,-27.82304,-16.69803,1006.939
32.623001576,-0.8533178,-0.1270685,0.05478928,-0.1079907,0.6372338,0.7555955,16.55094,-27.40467,-17.1403,1006.942
32.658299923,0.8239431,-1.013459,0.2991453,-0.1002529,0.6504483,0.7555572,16.55094,-27.40467,-17.1403,1006.943
32.691077233,0.2648562,0.2865803,-0.6782789,-0.09247112,0.6456596,0.7579528,16.56559,-28.19429,-17.12788,1006.943
32.723854065,-1.909371,2.118454,-1.533525,-0.1026844,0.6534004,0.762779,16.90825,-27.04111,-17.1465,1006.943
32.756631375,-0.23211,1.645712,-1.044813,-0.09875385,0.6329375,0.7570242,16.90825,-27.04111,-17.1465,1006.943
32.789409161,1.631513,3.832141,-2.999662,-0.09347411,0.659802,0.7617848,16.55883,-27.82985,-17.13361,1006.943
32.824707508,-1.226043,4.009419,-3.793819,-0.1162639,0.6429356,0.7450166,16.54418,-27.04024,-17.14603,1006.943
32.857484341,-1.03968,1.468434,-1.716792,-0.1074838,0.6289851,0.7594576,16.54418,-27.04024,-17.14603,1006.943
32.890261650,2.128479,1.645712,-1.22808,-0.1157725,0.6435372,0.7608994,16.93039,-28.18922,-16.69324,1006.943
32.923038483,0.6375808,0.8184144,-0.3117448,-0.1240005,0.6322666,0.7609359,17.27982,-27.40048,-16.70613,1006.943
32.958337784,0.6375808,-1.722571,0.9100355,-0.1051019,0.6454605,0.7445049,17.27982,-27.40048,-16.70613,1006.943
32.991115093,0.6997016,0.7593217,-0.6782789,-0.1036803,0.6636132,0.7618033,17.65178,-27.82653,-16.69991,1006.943
33.023891926,0.01637308,1.054785,-1.655703,-0.1118851,0.6431093,0.7647418,16.55094,-27.40467,-17.1403,1006.943
33.056669235,-0.791197,1.645712,-1.716792,-0.1143093,0.6411241,0.7623437,16.55094,-27.40467,-17.1403,1006.943
33.089446068,0.2027354,2.70938,-2.266593,-0.1094489,0.638209,0.7575229,16.90825,-27.04111,-17.1465,1006.949
33.124745369,2.376962,4.009419,-3.427285,-0.1220762,0.6390744,0.7570702,16.90971,-27.02922,-16.27628,1006.949
33.157522202,1.445151,3.182122,-2.938573,-0.1157877,0.6483505,0.7527091,16.90971,-27.02922,-16.27628,1006.949
33.190299511,5.296639,3.950326,-1.777881,-0.1322268,0.6184974,0.7518304,16.90898,-27.03517,-16.71139,1006.945
33.223076344,12.68901,5.309458,-2.572038,-0.1289365,0.6693606,0.7782208,17.63641,-27.04286,-17.14744,1006.949
33.258374691,10.51478,6.077663,-4.404709,-0.1503578,0.6874953,0.7503252,17.63641,-27.04286,-17.14744,1006.949
33.291152477,23.68439,4.541253,-5.076688,-0.1913176,0.7627578,0.7666752,17.65251,-27.82058,-16.2648,1006.949
33.323929787,11.63296,8.795927,-11.97975,-0.3822343,0.7956442,0.7526377,17.63786,-27.03097,-16.27721,1006.949
33.356706619,17.41019,23.80547,-46.25068,-0.710855,0.7117568,0.5706261,17.63786,-27.03097,-16.27721,1006.949
33.389483929,-4.394202,35.50582,-84.12588,-0.6391523,0.8108599,0.7281933,17.28127,-27.38859,-15.8359,1006.948
33.424782276,-65.02408,42.8924,-135.0741,-0.7959069,0.7689372,0.7011907,19.08959,-26.65219,-14.97949,1006.949
33.457560063,-73.28614,34.32397,-186.1445,-0.9776019,0.5770674,0.5729058,21.31976,-25.94058,-15.86407,1006.949
33.490337372,31.88433,35.80128,-253.8922,-0.8672354,0.05036125,0.2692173,21.31976,-25.94058,-15.86407,1006.949
33.523114205,141.0927,38.99229,-301.2362,-0.9146099,0.4255238,0.5566186,25.25554,-22.3177,-16.79676,1006.948
33.558412552,106.6156,38.51955,-297.2654,-0.8398516,1.011748,0.3716775,30.67098,-16.41543,-15.15608,1006.948
33.591189861,117.9216,50.10171,-284.62,-0.4400227,0.2268092,-0.08441871,30.67098,-16.41543,-15.15608,1006.948
33.623967648,133.6382,94.5985,-262.8723,-0.7241783,0.8769965,-0.09483328,35.64855,-9.849949,-13.96046,1006.946
33.656744480,58.47203,148.1956,-213.6957,-0.9542319,1.33082,0.3777256,39.17147,-3.197312,-11.08563,1006.946
33.689521790,7.222383,156.5276,-167.8178,-0.885936,0.8554927,0.7195655,39.17147,-3.197312,-11.08563,1006.946
33.724820137,-27.13041,152.8048,-112.2879,-0.6927325,0.4709017,0.7220937,41.63944,4.945265,-6.056831,1006.946
33.757596970,-63.9059,171.2417,-65.67699,-0.7212605,0.2134316,0.7114781,41.1658,11.60535,1.11308,1006.946
33.790374756,-33.52884,121.6629,-24.01428,-0.8004432,0.1031401,1.125322,41.1658,11.60535,1.11308,1006.946
33.823152065,-35.39247,41.17871,0.1769673,-0.7899991,-0.03485469,0.9493267,40.37815,15.38778,6.587899,1006.946
33.855928898,-37.69094,-5.20904,1.765282,-0.6903,-0.3866596,0.5260221,38.84658,16.53143,9.991401,1006.948
33.891227722,-10.29568,17.65983,14.4718,-0.8373085,-0.1193659,0.05904707,38.84658,16.53143,9.991401,1006.948
33.924004555,17.59655,21.1463,23.81842,-1.078005,0.02534085,0.07624751,39.23313,15.45507,11.31346,1006.948
33.956781864,27.22527,22.80089,17.70951,-1.181956,0.02941264,0.01631772,39.96128,15.45333,11.31252,1006.948
33.989559650,17.78292,21.0872,11.35626,-1.141784,0.1034959,0.1157527,39.96128,15.45333,11.31252,1006.948
34.024857998,8.154195,22.68271,6.22478,-1.035284,0.02405213,0.04967324,39.9748,14.72445,11.32398,1006.949
34.057634830,9.458731,29.89201,6.530225,-0.9269598,0.009958198,0.0638784,39.98364,14.377,12.57288,1006.948
34.090412140,2.811808,34.73761,8.118539,-0.9891374,0.01662784,0.04716816,39.98364,14.377,12.57288,1006.948
34.123189926,1.134547,35.80128,7.324382,-0.9907137,0.05060531,-0.03759898,38.52275,14.76276,13.87437,1006.946
34.155966759,-7.127516,30.66022,5.736068,-1.016887,0.0364737,-0.007189805,39.62996,14.04316,14.75464,1006.946
34.191265106,-1.288163,23.39182,6.774581,-1.01495,0.02177017,-0.09285463,39.62996,14.04316,14.75464,1006.946
34.224042416,-4.145719,11.86875,11.41735,-1.020211,-0.01036793,-0.08557329,38.54594,13.69323,15.632,1006.946
34.256819725,-4.26996,0.522951,15.51031,-1.041222,0.04447848,-0.08753157,38.18998,13.3407,16.44627,1006.946
34.289596558,-2.530579,-13.83657,15.69358,-1.029099,0.04382823,-0.1255869,38.18998,13.3407,16.44627,1006.95
34.324895859,1.134547,-23.52777,16.42665,-0.9373369,0.07221407,-0.005988268,38.56082,12.97539,16.45153,1006.95
34.357672691,-1.350284,-19.80493,19.05347,-0.9916392,0.04626264,0.03942765,38.92489,12.97452,16.45106,1006.95
34.390450001,-4.829047,-7.86821,19.60327,-0.9435996,0.06738333,0.07730944,38.92489,12.97452,16.45106,1006.948
34.423226833,-6.257825,9.386853,21.31377,-0.8587398,0.1122678,0.05634197,39.66562,12.16618,15.21936,1006.948
34.456004620,-6.879033,18.84168,29.98841,-1.08641,0.07292847,-0.004191681,40.48899,10.34804,15.6821,1006.947
34.491302967,-8.494174,17.12799,30.53821,-1.041852,0.1159687,-0.03179986,40.07161,9.989719,16.06133,1006.947
34.524080277,-3.586632,5.959477,31.51563,-1.022073,0.1600725,-0.08678848,40.07161,9.989719,16.06133,1006.947
34.556857109,-5.263893,-2.195312,28.94989,-1.030836,0.1813736,-0.02470414,40.51738,8.901335,16.51309,1006.947
34.589634419,-10.17143,-7.750025,26.62851,-1.025827,0.107535,-0.07322226,40.53839,7.813967,16.96539,1006.945
34.624932766,-5.388134,-11.88651,22.16901,-1.012904,0.2001812,-0.003113733,40.53839,7.813967,16.96539,1006.945
34.657710552,-1.412405,-11.23649,14.65506,-1.02073,0.4250095,-0.02028169,41.29214,6.342587,16.11715,1006.945
34.690487385,-7.810845,-6.3318,4.025576,-1.037577,0.1685723,0.03357592,40.92879,6.349403,16.55273,1006.945
34.723264694,-0.1699892,-3.377166,0.7878575,-0.9731899,0.2428579,-0.007123144,40.92879,6.349403,16.55273,1006.945
34.756042004,-0.1699892,-3.849908,-3.915997,-1.000317,0.2153509,-0.007980067,40.94907,5.256092,16.56992,1006.945
34.791340351,-0.8533178,-7.631839,-8.803119,-1.018655,0.1599051,-0.04491786,41.29152,6.337492,15.74419,1006.945
34.824118138,4.861794,-10.3501,-11.18559,-1.006544,0.1772399,-0.01801646,41.29152,6.337492,15.74419,1006.945
34.856894970,-4.766927,-12.35925,-17.29449,-1.000646,0.1546627,0.02003116,41.29827,5.973054,15.74992,1006.945
34.889672280,-6.754791,-11.53196,-20.22676,-0.9889852,0.1437574,-0.02137717,42.01894,6.329803,15.30814,1006.943
34.924970627,-6.692671,-13.95476,-21.81508,-0.9995381,0.1037707,0.05428192,42.01894,6.329803,15.30814,1006.945
34.957747459,-6.816912,-16.96848,-24.13646,-0.9772806,0.1310163,0.02338091,41.65341,6.318788,14.43839,1006.947
34.990525246,-6.816912,-22.40501,-23.03686,-0.9902877,0.09009043,0.03695158,41.99648,7.405282,13.98561,1006.948
35.023307323,-3.959357,-20.8686,-23.64775,-1.024303,0.1166922,0.1212305,41.99648,7.405282,13.98561,1006.948
35.056079388,6.228451,-17.26395,-22.73141,-1.009922,0.1765287,0.0238711,41.61815,8.129084,13.53951,1006.948
35.091377735,13.43446,-16.96848,-21.26528,-1.060988,0.217268,0.06051431,41.96725,8.845198,12.65736,1006.948
35.124155045,5.234519,-15.78663,-17.7832,-1.033679,-0.02968428,0.09451706,41.96725,8.845198,12.65736,1006.953
35.156932831,7.843591,-16.20028,-20.47112,-0.9805749,0.1013079,0.09756321,41.58216,9.933437,12.20553,1006.951
35.189710140,16.29202,-14.84115,-12.83499,-1.045498,0.2454294,0.09942542,41.56657,10.64533,10.95089,1006.951
35.225008488,5.234519,-13.42292,-8.375495,-0.9325932,-0.06283303,0.1087681,41.56657,10.64533,10.95089,1006.951
35.257785320,-9.177503,-17.97306,-7.886783,-1.033726,0.009483873,0.1941,42.2812,11.37246,10.93849,1006.951
35.290562630,3.495136,-14.84115,11.47844,-1.058842,0.141663,0.1116475,41.53131,12.45563,10.05202,1006.951
35.323340416,12.62689,-23.52777,11.35626,-1.082293,0.2079251,0.1433731,41.53131,12.45563,10.05202,1006.951
35.356117249,6.290572,-22.10955,33.3483,-0.9412302,-0.106248,0.1093354,42.25946,12.45388,10.05108,1006.953
35.391415596,-11.16537,-35.4054,17.28189,-1.05708,0.2439383,0.2491586,42.27008,11.70123,8.322092,1006.953
35.424192906,20.57835,-23.58686,22.84099,-0.8274838,0.2769673,0.2403812,42.28891,10.59603,7.469059,1006.951
35.456969738,-14.51989,-30.79617,7.935273,-1.12408,0.02480556,0.1947726,42.28891,10.59603,7.469059,1006.951
35.489747524,3.867861,-25.30055,16.85427,-0.9146248,0.1651559,0.23498,43.02248,10.21881,6.665785,1006.953
35.525045872,-22.90619,-40.19191,5.919335,-1.176068,0.04860801,0.2482912,43.03527,9.483994,6.242133,1006.953
35.557823181,19.8329,-34.99175,15.99902,-0.8915073,0.2366352,0.1905322,43.03527,9.483994,6.242133,1006.953
35.590600491,-31.16826,-50.59222,3.536863,-1.070724,0.06477245,0.2749732,43.02488,9.81871,4.060844,1006.953
35.623377323,-3.524511,-43.44201,9.157052,-0.8961549,0.174689,0.323011,44.1219,9.435524,2.884148,1006.953
35.656155110,-55.27112,-49.52855,-1.472436,-1.090096,0.2618921,0.3493331,44.1219,9.435524,2.884148,1006.951
35.691453457,-58.68776,-46.04208,10.80646,-0.9545667,0.04215611,0.3849636,43.78123,7.948929,0.7319789,1006.951
35.724230766,-64.65135,-50.29676,14.34962,-0.9787112,0.194561,0.4083779,43.40821,8.296408,-0.5786164,1006.949
35.757007599,-65.27256,-58.09699,15.32704,-1.00613,0.09684952,0.4677977,43.40821,8.296408,-0.5786164,1006.949
35.789784908,-55.95444,-79.54763,16.1212,-1.064231,0.2378663,0.5052692,43.41362,7.920931,-1.380951,1006.951
35.822562695,-79.93306,-95.85722,29.68296,-1.127632,0.1527034,0.5214329,42.68038,7.88107,-4.425793,1006.951
35.857861042,5.607243,-116.9533,74.94993,-1.241264,-0.07821247,0.3694588,42.68038,7.88107,-4.425793,1006.951
35.890637875,230.6087,-84.92506,157.1757,-1.543775,0.04649797,-0.03339284,43.05831,6.73424,-8.262918,1006.949
35.923415184,174.8864,15.76886,212.278,-1.632235,0.2797834,-0.06819268,42.73585,4.137352,-11.64107,1006.949
35.956192017,132.3958,44.36972,266.5862,-1.99322,0.357869,-0.1016309,42.73585,4.137352,-11.64107,1006.951
35.991491318,69.21893,55.24277,272.5729,-1.343329,0.9078964,-0.01976297,41.43086,-3.925623,-10.64196,1006.949
36.024268150,-107.142,90.28474,226.1452,-1.450083,0.9712616,0.4660887,39.73316,-13.40457,-6.635747,1006.949
36.057045460,-173.3006,38.1059,175.869,-0.6276687,0.1557024,0.1414108,39.73316,-13.40457,-6.635747,1006.949
36.089822769,-88.69209,81.00719,110.1983,0.04796395,0.1221652,0.3896856,35.52835,-22.19538,-6.056522,1006.949
36.122599602,-49.556,93.83029,20.64179,0.3254451,-0.3599719,0.4812129,31.60849,-26.94724,-7.71731,1006.952
36.157898903,43.99788,95.72126,-49.12187,0.6882268,-0.5847742,0.4956135,31.60849,-26.94724,-7.71731,1006.95
36.190675736,84.12791,140.4544,-86.50835,0.5352049,-0.3401196,0.562517,29.76381,-28.81377,-6.815054,1006.948
36.223453045,64.43562,171.1826,-130.9812,0.3803846,-0.3811423,0.5225116,32.00332,-28.02574,-2.105342,1006.946
36.256229878,-60.92411,168.2871,-168.6731,-0.1540884,1.46064,0.8550684,32.00332,-28.02574,-2.105342,1006.942
36.291528225,-441.1654,170.3553,-90.60131,-1.955672,0.6219192,2.666194,33.40762,-24.60704,3.8075,1006.942
36.324306011,219.1163,-141.004,-8.008961,-1.52878,0.8089421,0.6114099,34.79163,-20.58475,4.985766,1006.946
36.357083321,-17.56381,3.950326,-47.65573,-1.128785,0.1670143,0.1993831,34.79163,-20.58475,4.985766,1006.948
36.389860153,25.61013,-33.57352,-35.62119,-1.104215,0.5253525,0.5723214,36.92804,-18.04486,4.507726,1006.948
36.422637463,35.48734,-53.60595,-8.619851,-0.6376146,0.7338394,0.506398,37.26322,-16.53319,4.048269,1006.948
36.457935810,-3.027545,-9.995546,-16.43925,-0.3563993,0.4463596,0.2202354,38.34671,-16.18751,2.860112,1006.948
36.490713596,-68.93768,8.973205,-5.076688,-0.9285811,0.783722,0.5354133,38.34671,-16.18751,2.860112,1006.946
36.523490906,-34.5849,-5.268132,5.369534,-0.7949914,0.297314,0.255677,38.32571,-15.10014,2.40781,1006.946
36.556267738,-42.41212,11.21873,2.987062,-0.8919249,0.4533741,0.4020056,38.68157,-14.74846,1.531387,1006.946
36.591566086,-53.03477,-14.84115,21.19159,-1.071395,0.395253,0.5243035,38.68157,-14.74846,1.531387,1006.948
36.624343395,-36.82125,-31.44619,20.33634,-0.699679,0.03059249,0.2365985,38.33632,-15.85279,0.6788235,1006.948
36.657121182,8.961764,7.909536,-10.94123,-0.8260604,0.5173941,0.3540981,38.34163,-16.22911,-0.1856697,1006.946
36.689898014,-26.44708,3.182122,-17.41667,-0.8249267,0.4780236,0.5043396,38.34163,-16.22911,-0.1856697,1006.946
36.722675324,27.10103,3.300307,-27.00764,-0.6134905,0.3715002,0.4101332,37.98431,-16.59268,-0.1794698,1006.946
