Time (s),Gyroscope X (deg/s),Gyroscope Y (deg/s),Gyroscope Z (deg/s),Accelerometer X (g),Accelerometer Y (g),Accelerometer Z (g),Magnetometer X (uT),Magnetometer Y (uT),Magnetometer Z (uT),Barometer (hPa)
0.004677773,-0.01622943,-0.09456641,0.01741266,-0.004500317,-0.5690715,-0.8203718,-7.728031,-1.907104,17.37906,1008.22
0.037236214,-0.07772931,-0.1536246,-0.1047883,-0.007473479,-0.5656862,-0.825151,-7.36561,-1.538064,17.82134,1008.22
0.069794178,-0.07787569,-0.2719041,-0.1046108,-0.01087841,-0.5671643,-0.8304874,-7.36561,-1.538064,17.82134,1008.22
0.104856491,0.3512093,-0.3895228,0.2623153,-0.01182253,-0.5691338,-0.8276163,-7.720718,-2.268333,17.82775,1008.22
0.137415409,-0.2640104,-0.3877482,0.2610734,-0.01377518,-0.5677235,-0.8227591,-7.728031,-1.907104,17.37906,1008.219
0.169969082,-1.491283,-0.3863728,0.1385507,-0.00889605,-0.5691044,-0.8256851,-7.728031,-1.907104,17.37906,1008.219
0.202526569,-1.301046,-0.1476391,-0.2281352,-0.009434492,-0.5656874,-0.8304663,-6.991827,-1.896646,18.26883,1008.219
0.237589359,-0.3124792,-0.02871964,-0.4101563,-0.009905348,-0.5666744,-0.8285474,-7.732081,-1.540711,17.82253,1008.22
0.270147801,1.470214,0.03069159,-0.3476496,-0.01036537,-0.5676812,-0.8222784,-7.732081,-1.540711,17.82253,1008.22
0.302705765,1.586658,0.1494347,-0.2240831,-0.01188258,-0.5628412,-0.8222032,-7.720718,-2.268333,17.82775,1008.22
0.337768078,1.640662,0.1482752,-0.4061221,-0.006031588,-0.5637302,-0.8236724,-6.993458,-1.899229,17.82276,1008.22
0.370322704,0.8356805,0.02867184,-0.2214829,-0.008433685,-0.5666751,-0.8241984,-6.993458,-1.899229,17.82276,1008.22
0.402880192,-0.3342379,-0.2683832,0.2069903,-0.007440923,-0.5671726,-0.8188898,-7.355879,-2.268269,17.38049,1008.22
0.437942982,-1.867444,-0.4457224,0.08412418,-0.01430723,-0.5638425,-0.8226994,-7.358297,-1.899292,18.27002,1008.22
0.470501423,-2.166157,0.03074789,-0.1606705,-0.01138024,-0.5661922,-0.8319222,-7.358297,-1.899292,18.27002,1008.219
0.503058910,-1.113001,-0.0880963,-0.0988162,-0.01284475,-0.5647777,-0.8265821,-6.987777,-2.263039,17.82537,1008.219
0.538121700,-0.186903,0.09045332,-0.159332,-0.007463339,-0.5680827,-0.8324382,-6.626987,-1.896582,17.82157,1008.219
0.570675850,0.3664091,-0.02846656,-0.2203043,-0.008531934,-0.5584103,-0.825039,-6.626987,-1.896582,17.82157,1008.219
0.603233814,0.6109475,-0.1466965,-0.03644188,-0.005539762,-0.5651596,-0.8285285,-7.36561,-1.538064,17.82134,1008.219
0.638296127,0.4855776,-0.0868146,-0.2194769,-0.01046875,-0.5613093,-0.8342655,-7.72235,-2.270916,17.38168,1008.219
0.670854092,0.7290905,-0.3244033,-0.1575751,-0.01134731,-0.5672036,-0.8232369,-7.72235,-2.270916,17.38168,1008.219
0.703412533,1.033697,-0.02640402,-0.09598248,-0.007419061,-0.571493,-0.8305568,-7.724769,-1.901939,18.27121,1008.219
0.735970497,1.090953,-0.2638283,-0.2176446,-0.01231834,-0.5681727,-0.8266344,-7.726399,-1.904521,17.82514,1008.22
0.771028995,0.5944661,0.09365562,-0.09427127,-0.01228173,-0.5706177,-0.8232881,-7.726399,-1.904521,17.82514,1008.222
0.803587437,-0.3292857,0.03431522,-0.03224608,-0.01423996,-0.5701483,-0.8252125,-7.355879,-2.268269,17.38049,1008.222
0.836145401,-0.8804739,0.03406358,-0.09285355,-0.0117875,-0.5720515,-0.8271775,-7.355879,-2.268269,17.38049,1008.222
0.871207714,-1.060323,0.03408188,-0.09256099,-0.0122894,-0.5696524,-0.8218232,-7.355879,-2.268269,17.38049,1008.224
0.903766155,-0.4414408,0.03422266,-0.2146591,-0.009908957,-0.5666679,-0.8299974,-6.993458,-1.899229,17.82276,1008.224
0.936324120,0.05159344,-0.0249311,-0.0917501,-0.00945711,-0.5623168,-0.8236475,-7.72235,-2.270916,17.38168,1008.224
0.971382618,-0.3785141,-0.4996803,0.2140738,-0.007951554,-0.56666,-0.8261322,-7.72235,-2.270916,17.38168,1008.226
1.003940105,-0.7452865,-0.3791479,0.1522514,-0.01235863,-0.5642942,-0.8246417,-6.989408,-2.265622,17.3793,1008.226
1.036498547,0.6092699,0.03719682,-0.2143367,-0.01234729,-0.566693,-0.8314456,-6.993458,-1.899229,17.82276,1008.224
1.071561337,1.281622,-0.02265248,0.03101771,-0.014809,-0.5642974,-0.8309233,-6.993458,-1.899229,17.82276,1008.224
1.104118824,0.8459762,-0.1411864,-0.02980919,-0.009428544,-0.5642715,-0.8212605,-7.720718,-2.268333,17.82775,1008.224
1.136677265,-0.07856944,-0.0814286,-0.1518562,-0.007476399,-0.5633029,-0.8149637,-7.72235,-2.270916,17.38168,1008.224
1.169231415,-0.2007252,-0.02172771,-0.151199,-0.01284399,-0.5638278,-0.8217338,-7.72235,-2.270916,17.38168,1008.222
1.204293728,0.475124,-0.1402396,-0.2115434,-0.002066353,-0.5699895,-0.8252219,-7.726399,-1.904521,17.82514,1008.224
1.236852169,-0.07980653,-0.1391639,-0.08916517,-0.01133634,-0.5700772,-0.8324649,-6.993458,-1.899229,17.82276,1008.224
1.269410133,-0.1408932,-0.13869,-0.1500011,-0.00747183,-0.5666404,-0.8290327,-6.993458,-1.899229,17.82276,1008.224
1.304472447,0.1666678,-0.1974318,-0.02719361,-0.01377512,-0.5691503,-0.8295482,-7.359928,-1.901875,17.82395,1008.226
1.337030888,-0.2024235,0.04107281,-0.1495392,-0.01182703,-0.5672231,-0.8203365,-7.720718,-2.268333,17.82775,1008.226
1.369584560,-0.2633577,0.1007406,-0.08786431,-0.009399083,-0.5681301,-0.8276033,-7.720718,-2.268333,17.82775,1008.227
1.404647350,0.04481792,0.04147033,-0.2710577,-0.01140121,-0.5637758,-0.8289852,-7.002402,-1.540584,16.92801,1008.227
1.437204838,0.1056801,-0.01763849,0.03560278,-0.007964857,-0.5652089,-0.8246599,-6.632669,-1.532772,17.81896,1008.227
1.469763756,0.0437606,-0.07646941,-0.2088986,-0.01190386,-0.5623266,-0.8284791,-8.09287,-1.907169,17.82633,1008.227
1.504994869,-0.3862356,-0.3730161,-0.02532384,-0.008927092,-0.5657185,-0.8222499,-8.09287,-1.907169,17.82633,1008.232
1.537553310,-0.9371532,-0.3714953,0.03526847,-0.01482395,-0.561892,-0.8255694,-7.359928,-1.901875,17.82395,1008.232
1.570106983,0.35743,0.1043922,-0.6372043,-0.009944744,-0.5647,-0.8352845,-7.359928,-1.901875,17.82395,1008.232
1.602665424,1.890356,-0.07507279,-0.02382258,-0.01187485,-0.5652333,-0.830457,-7.359928,-1.901875,17.82395,1008.233
1.637727737,1.145274,-0.1934623,-0.2069707,-0.008902892,-0.5686164,-0.8261611,-7.342885,-2.993308,17.83178,1008.235
1.670285702,0.2816727,-0.3714336,0.03790279,-0.006475011,-0.5680965,-0.8266389,-7.36156,-1.904458,17.37788,1008.237
1.702843666,-0.2106143,-0.07342888,0.09938906,-0.007904112,-0.5691248,-0.8184358,-7.36156,-1.904458,17.37788,1008.237
1.737906456,-0.4557607,-0.2507474,0.0989335,-0.0109087,-0.5628285,-0.8222039,-7.359928,-1.901875,17.82395,1008.237
1.770460606,-0.761694,-0.2496692,0.03706209,-0.01380375,-0.5657687,-0.8251461,-7.72235,-2.270916,17.38168,1008.237
1.803018093,-0.5129228,0.1670246,-0.2074254,-0.01432686,-0.5642822,-0.8328571,-7.72235,-2.270916,17.38168,1008.237
1.838080883,0.532805,0.226015,-0.2675609,-0.01087917,-0.568114,-0.8353357,-7.372923,-1.176836,17.37265,1008.237
1.870639324,0.4071346,0.3443539,-0.2052324,-0.01043822,-0.5623164,-0.8265468,-6.991039,-2.268205,16.93323,1008.237
1.903196812,0.5284141,0.1653655,-0.4488094,-0.01135212,-0.5671948,-0.8251703,-6.991039,-2.268205,16.93323,1008.237
1.938259602,-0.02612767,-0.1322985,-0.1417637,-0.007010736,-0.562782,-0.8212401,-7.352616,-2.263103,18.27263,1008.237
1.970813751,-0.1489795,0.04636644,-0.3858683,-0.007456187,-0.566669,-0.8227491,-7.367242,-1.540648,17.37527,1008.238
2.003371716,0.09704269,-0.3101861,-0.07943086,-0.01285843,-0.5638015,-0.827534,-7.367242,-1.540648,17.37527,1008.237
2.038434029,-0.0266697,-0.4285323,-0.07921672,-0.01129935,-0.5720474,-0.8266945,-7.36561,-1.538064,17.82134,1008.238
2.070992947,-0.2110849,-0.01144486,-0.07925858,-0.01330313,-0.5667387,-0.8241947,-6.986146,-2.260457,18.27144,1008.238
2.103550434,-0.5783663,-0.189543,-0.2015069,-0.0142995,-0.5662347,-0.8309534,-6.986146,-2.260457,18.27144,1008.238
2.136108398,0.5906186,0.4639714,-0.5673823,-0.006508391,-0.5661331,-0.8309593,-7.36156,-1.904458,17.37788,1008.236
2.171167374,1.139438,0.04678108,-0.1374367,-0.009899778,-0.5657333,-0.8217657,-7.359928,-1.901875,17.82395,1008.236
2.203725338,0.2135809,-0.2506836,-0.1366846,-0.01231594,-0.568177,-0.8256677,-7.359928,-1.901875,17.82395,1008.236
2.236283302,-0.4620069,-0.1910949,-0.1363385,-0.007004651,-0.56422,-0.8256125,-7.36561,-1.538064,17.82134,1008.236
2.271345615,-0.2147377,-0.07144332,-0.07494396,-0.01092042,-0.5609046,-0.8178241,-7.728031,-1.907104,17.37906,1008.236
2.303904057,0.4006975,-0.07076061,-0.1363561,-0.008436469,-0.5671457,-0.8275893,-7.728031,-1.907104,17.37906,1008.238
2.336462021,-0.0924989,-0.2482248,-0.01411158,-0.01381256,-0.5662283,-0.8309537,-7.72235,-2.270916,17.38168,1008.236
2.371520519,0.0304214,0.04929928,-0.2583099,-0.009881593,-0.5686203,-0.8280937,-7.724769,-1.901939,18.27121,1008.234
2.404078960,-0.09308555,0.1088217,-0.2573339,-0.0108724,-0.5671753,-0.8280707,-7.724769,-1.901939,18.27121,1008.236
2.436636448,-0.2162624,0.04919554,-0.2563808,-0.01087841,-0.5671643,-0.8304874,-6.987777,-2.263039,17.82537,1008.236
2.471699238,-0.09295288,0.04869976,-0.2551018,-0.005053265,-0.5642012,-0.824164,-6.991039,-2.268205,16.93323,1008.236
2.504257679,0.3370762,-0.01079306,-0.009571642,-0.005992948,-0.5666544,-0.8217835,-6.991039,-2.268205,16.93323,1008.236
2.536815166,0.5203617,0.1085299,-0.07007954,-0.007406204,-0.5719921,-0.8276642,-6.993458,-1.899229,17.82276,1008.236
2.569369316,0.2729412,-0.128866,-0.008709505,-0.01279243,-0.5686781,-0.8237414,-7.720718,-2.268333,17.82775,1008.236
2.604432106,-0.280479,-0.247262,-0.06971693,-0.01139842,-0.5633053,-0.8255942,-7.720718,-2.268333,17.82775,1008.236
2.636990070,-0.2784863,-0.1276281,0.1138197,-0.01134084,-0.5681666,-0.8251851,-6.993458,-1.899229,17.82276,1008.236
2.669548035,-0.03147319,-0.1868684,-0.06970517,-0.0137933,-0.5662635,-0.8232203,-7.36156,-1.904458,17.37788,1008.236
2.704610348,0.8290836,0.2293854,-0.435904,-0.00793103,-0.5681243,-0.8247044,-7.36156,-1.904458,17.37788,1008.238
2.737168789,0.8256845,-0.009510234,-0.2508363,-0.01327253,-0.5691726,-0.8232651,-7.354247,-2.265687,17.82656,1008.238
2.769722938,0.3306978,-0.1284706,0.0559528,-0.007975375,-0.5632873,-0.8197967,-7.728031,-1.907104,17.37906,1008.238
2.804785252,-0.2845613,-0.06887349,-0.1886874,-0.008898525,-0.5676731,-0.8198628,-7.728031,-1.907104,17.37906,1008.238
2.837343693,-0.2219704,-0.06844334,-0.06599955,-0.01281137,-0.5667411,-0.8222618,-7.367242,-1.540648,17.37527,1008.24
2.869901657,0.08614686,-0.06782835,-0.00491479,-0.01184223,-0.5681465,-0.8309849,-7.355879,-2.268269,17.38049,1008.24
2.904963970,0.08530571,-0.1863989,-0.06597772,-0.008898457,-0.5691001,-0.8266518,-7.355879,-2.268269,17.38049,1008.241
2.937522411,-0.03771075,-0.007587962,-0.06607348,-0.009892423,-0.5686005,-0.8324438,-7.354247,-2.265687,17.82656,1008.24
2.970076084,-0.3442101,-0.2453129,0.05661391,-0.009402314,-0.5676487,-0.8266292,-6.989408,-2.265622,17.3793,1008.24
3.002634048,0.08709383,0.05210311,-0.3100262,-0.01183583,-0.5676827,-0.826144,-6.989408,-2.265622,17.3793,1008.24
3.037697315,0.4555095,0.1115606,-0.2478306,-0.01235059,-0.5647845,-0.8236824,-7.710988,-2.998537,17.3869,1008.24
3.070254803,0.3926849,-0.007482886,-0.06331827,-0.007486336,-0.5651872,-0.8280436,-7.000772,-1.538001,17.37408,1008.24
3.102812767,0.08427682,-0.06683994,-0.1239332,-0.008961608,-0.5651799,-0.8338426,-7.000772,-1.538001,17.37408,1008.24
3.137875080,-0.1618364,-0.1852287,-0.1238498,-0.01082248,-0.5710713,-0.8261967,-6.993458,-1.899229,17.82276,1008.24
3.170429707,-0.1001315,-0.1848467,-0.1235368,-0.008423233,-0.5671699,-0.8222725,-6.99509,-1.901811,17.37669,1008.24
3.202987671,0.1460195,-0.1249856,-0.1229756,-0.008918601,-0.5671608,-0.8256555,-6.99509,-1.901811,17.37669,1008.24
3.238049984,-0.03889471,-0.1837129,-0.0005745441,-0.006972028,-0.5671333,-0.8261403,-7.35751,-2.270852,16.93442,1008.24
3.270608425,-0.5919812,-0.1831692,-0.1839209,-0.009877983,-0.5686269,-0.8266436,-7.720718,-2.268333,17.82775,1008.24
3.303166390,-0.2206347,0.2335331,-0.1222977,-0.01036771,-0.5691037,-0.8300341,-7.359928,-1.901875,17.82395,1008.24
3.338228703,0.3935431,-0.06443005,-0.2432964,-0.009450648,-0.5632799,-0.8255957,-7.359928,-1.901875,17.82395,1008.24
3.370783329,0.4528679,-0.2423676,0.001744255,-0.01137866,-0.5657194,-0.8290148,-7.730451,-1.538128,18.2686,1008.241
3.403341293,-0.1635571,-0.2416222,0.1238286,-0.01088532,-0.5652492,-0.8241743,-7.729662,-1.909688,16.93299,1008.241
3.438403606,-0.4082347,-0.1814725,0.00127013,-0.008974601,-0.5618268,-0.8231572,-7.729662,-1.909688,16.93299,1008.241
3.470962047,0.2692661,0.05709807,0.1237214,-0.0133253,-0.5643201,-0.8217409,-6.626987,-1.896582,17.82157,1008.24
3.503520012,0.2062359,-0.1803679,0.1238887,-0.0128649,-0.5628384,-0.8255857,-7.36156,-1.904458,17.37788,1008.24
3.536077499,-0.3472512,-0.0008169413,-0.1210491,-0.0137876,-0.5681763,-0.8300167,-7.36156,-1.904458,17.37788,1008.241
3.571135998,-0.4681837,-0.3576061,-0.1203834,-0.0108264,-0.5729666,-0.8368599,-7.729662,-1.909688,16.93299,1008.241
3.603694439,0.2706448,-0.06014233,-0.303414,-0.01089735,-0.5652272,-0.8290077,-6.987777,-2.263039,17.82537,1008.24
3.636252403,0.1465639,-0.1197324,-0.2414383,-0.01233766,-0.5667106,-0.8275788,-6.987777,-2.263039,17.82537,1008.238
3.671314716,0.5760531,-0.0005992055,-0.05718347,-0.005522024,-0.5670944,-0.8304915,-6.626987,-1.896582,17.82157,1008.238
3.703873157,0.08285563,-0.2975164,-0.1796371,-0.01139361,-0.5633141,-0.8236609,-7.356667,-1.896709,18.71609,1008.236
3.736431122,-0.4089679,-0.2968446,0.126171,-0.011769,-0.5730364,-0.8242922,-7.356667,-1.896709,18.71609,1008.236
3.771489620,-0.4067869,-0.1774754,0.1261354,-0.01185395,-0.5662227,-0.8266051,-7.733713,-1.543294,17.37645,1008.232
3.804048061,-0.1594053,-0.2961803,-0.05728577,-0.01284152,-0.5652592,-0.8275562,-7.348566,-2.629497,17.82917,1008.236
3.836606026,0.3937754,-0.05814968,-0.05672599,-0.01136016,-0.5667045,-0.8261296,-7.348566,-2.629497,17.82917,1008.236
3.871668339,-0.1606962,-0.2958182,0.004414931,-0.009393068,-0.5681411,-0.8251866,-7.359928,-1.901875,17.82395,1008.238
3.904226780,-0.8966138,0.002512261,0.004032597,-0.01716561,-0.5706547,-0.8290845,-7.72235,-2.270916,17.38168,1008.238
3.936784744,0.3975339,0.4768755,-0.6675069,-0.002093271,-0.5689892,-0.8314905,-7.72235,-2.270916,17.38168,1008.232
3.969338417,0.6403828,0.1786278,-0.1156232,-0.007472722,-0.5647364,-0.8203028,-7.355879,-2.268269,17.38049,1008.232
4.004401684,-0.3445512,-0.1774375,0.1901518,-0.003091427,-0.564677,-0.8207895,-7.35751,-2.270852,16.93442,1008.236
4.036959648,-0.649684,-0.05760323,0.006181389,-0.009877536,-0.5695789,-0.8310086,-7.35751,-2.270852,16.93442,1008.236
4.069517136,0.8883706,0.0612762,-0.116089,-0.006491099,-0.5671159,-0.8285574,-7.352616,-2.263103,18.27263,1008.23
4.104579926,1.86642,-0.2949268,0.1892849,-0.006987359,-0.5652028,-0.8232107,-7.354247,-2.265687,17.82656,1008.233
4.137138367,0.4456115,-0.3529625,0.5552102,-0.00989775,-0.5662127,-0.8232232,-7.354247,-2.265687,17.82656,1008.228
4.169692040,-0.6616328,-0.1724471,0.2484093,-0.01120275,-0.5793579,-0.8219724,-6.993458,-1.899229,17.82276,1008.228
4.204754353,-1.824777,0.007964648,0.3083076,-0.01180283,-0.5701209,-0.8242478,-7.359928,-1.901875,17.82395,1008.228
4.237312794,-2.246892,0.06793513,0.002013832,-0.008421138,-0.5690761,-0.830519,-7.359928,-1.901875,17.82395,1008.226
4.269870758,-1.439421,0.06793796,-0.1816886,-0.01384157,-0.5633217,-0.8289759,-7.36561,-1.538064,17.82134,1008.228
4.304933071,-0.6958932,0.423984,-0.2425126,-0.01096862,-0.5593897,-0.8303687,-7.355879,-2.268269,17.38049,1008.233
4.337491512,0.5963945,0.4817736,-0.4865901,-0.01138309,-0.5652358,-0.828524,-7.355879,-2.268269,17.38049,1008.228
4.370045662,1.208022,0.5393839,-0.4234262,-0.01184463,-0.5681421,-0.8319516,-8.085558,-2.268397,18.27501,1008.228
4.402603149,1.633191,0.3591155,-0.7880133,-0.008902512,-0.5681414,-0.8237369,-7.354247,-2.265687,17.82656,1008.233
4.437666416,0.3363398,0.001344502,-0.6629047,-0.008918601,-0.5671608,-0.8256555,-7.354247,-2.265687,17.82656,1008.233
4.470224380,-1.814226,-0.05765684,-0.1102718,-0.0118943,-0.5609173,-0.8178234,-7.36156,-1.904458,17.37788,1008.228
4.502781868,-1.744203,0.5371819,-0.5981503,-0.009046931,-0.558841,-0.8385796,-6.99509,-1.901811,17.37669,1008.228
4.537844658,2.009234,0.416347,-0.5337116,-0.004620156,-0.562194,-0.8367015,-6.99509,-1.901811,17.37669,1008.228
4.570398807,3.235798,-0.297835,-0.04343237,-0.00455587,-0.5646895,-0.8222384,-7.719088,-2.26575,18.27382,1008.231
4.602956772,0.9592818,-0.7142016,0.2625646,-0.01176831,-0.5706596,-0.812655,-6.997509,-1.532835,18.26622,1008.233
4.638019085,-1.255707,-0.6547207,0.4461628,-0.009871967,-0.5686378,-0.824227,-6.997509,-1.532835,18.26622,1008.233
4.670578003,-2.178618,-0.4167969,0.323764,-0.01569357,-0.5701805,-0.8223115,-6.989408,-2.265622,17.3793,1008.233
4.703135490,-1.009597,-0.2383541,-0.2882299,-0.01526008,-0.5676985,-0.8324248,-7.724769,-1.901939,18.27121,1008.233
4.738198280,-0.2097398,0.2374934,-0.5330275,-0.01431033,-0.5662149,-0.8353034,-7.724769,-1.901939,18.27121,1008.233
4.770752430,0.8977544,0.3564553,-0.1658312,-0.002177459,-0.5612255,-0.8289551,-6.983727,-2.629433,17.38191,1008.233
4.803310394,0.2824798,-0.2383541,0.5073622,-0.004127399,-0.5579178,-0.8139181,-7.726399,-1.904521,17.82514,1008.233
4.838372707,-0.763487,-0.4762778,0.3849634,-0.005094756,-0.5603206,-0.8226545,-7.726399,-1.904521,17.82514,1008.233
4.870931148,-0.8865419,-0.4167969,0.2625646,-0.01237871,-0.563782,-0.8304343,-7.355879,-2.268269,17.38049,1008.233
4.903489113,-0.5789046,-0.4762778,-0.1046318,-0.01718885,-0.5710879,-0.8406921,-7.368873,-1.543231,16.92919,1008.233
4.936047077,1.082337,0.2374934,-0.6554264,-0.007987719,-0.5651672,-0.8338434,-7.368873,-1.543231,16.92919,1008.233
4.971106052,0.8977544,-0.297835,0.2013652,-0.0138854,-0.5608636,-0.8352222,-7.36156,-1.904458,17.37788,1008.234
5.003796101,3.17427,-0.5357588,0.4461628,-0.002176323,-0.5598008,-0.8216827,-7.354247,-2.265687,17.82656,1008.236
5.036354542,2.928161,-0.2383541,0.01776703,-0.0224299,-0.5761245,-0.8170784,-7.354247,-2.265687,17.82656,1008.236
5.071416855,-0.5789046,0.5943791,-0.594227,-0.01711494,-0.573601,-0.8223622,-7.363191,-1.907041,16.9318,1008.236
5.103974819,-1.686399,1.30815,-1.022623,-0.01130733,-0.572984,-0.8344429,-6.982096,-2.62685,17.82798,1008.238
5.136532307,0.2209523,0.7728219,-0.594227,-0.004984787,-0.5705093,-0.8261938,-6.982096,-2.62685,17.82798,1008.238
5.171591759,0.4670622,-0.297835,0.2625646,-0.004150842,-0.5540701,-0.8051585,-7.359928,-1.901875,17.82395,1008.238
5.204149246,-0.9480693,-0.297835,0.2013652,-0.005083414,-0.5627193,-0.8294584,-7.355879,-2.268269,17.38049,1008.238
5.236707211,1.020809,0.05905062,-0.1046318,-0.006979491,-0.5704489,-0.8450426,-7.363979,-1.535482,18.26741,1008.238
5.271769524,5.943006,0.2374934,-0.04343237,-0.00507011,-0.5641704,-0.8309308,-7.363979,-1.535482,18.26741,1008.238
5.304327965,7.727302,-0.0004303157,0.2625646,-0.01185433,-0.5666976,-0.8290293,-7.359928,-1.901875,17.82395,1008.238
5.336885929,9.388543,0.3564553,-0.2270306,-0.01714983,-0.5735372,-0.8363791,-7.367242,-1.540648,17.37527,1008.238
5.369440556,12.09575,0.7133409,-0.2270306,-0.00728819,-0.5826711,-0.8302441,-7.367242,-1.540648,17.37527,1008.238
5.404502869,15.41823,0.2969744,0.323764,-0.005324527,-0.5793454,-0.8079599,-7.739394,-1.179483,17.37384,1008.238
5.437060833,16.89489,0.65386,-0.1046318,-0.01044337,-0.5988736,-0.8034192,-7.374554,-1.17942,16.92658,1008.238
5.469619274,19.47905,0.8323028,0.01776703,-0.003623299,-0.5997412,-0.8068225,-7.374554,-1.17942,16.92658,1008.24
5.504681587,60.51786,-1.368492,9.503674,-0.2703957,-0.3277212,-0.2600663,-7.008083,-1.176773,16.92539,1008.24
5.537239551,24.09361,0.8323028,1.853749,-0.02075706,-0.6335107,-0.8044209,-7.023497,-0.08275747,17.36363,1008.24
5.569793224,29.26191,1.248669,0.7521598,0.006088017,-0.6370817,-0.7972507,-7.023497,-0.08275747,17.36363,1008.24
5.604856491,23.8475,0.1185316,2.894139,0.01374708,-0.6785372,-0.8500953,-7.043801,1.003508,16.46365,1008.24
5.637414455,30.67704,1.486593,1.180556,-0.01900945,-0.6862773,-0.739005,-7.414322,1.367256,16.9083,1008.24
5.669971943,29.87719,1.843479,1.180556,-0.007757412,-0.6900316,-0.7361729,-7.414322,1.367256,16.9083,1008.24
5.705035210,24.83194,2.914136,0.6909603,-0.001100417,-0.712424,-0.7094519,-8.165938,2.45081,16.45678,1008.24
5.737593174,36.09146,1.010746,5.280915,-0.1326017,-0.5976209,-0.3634092,-7.823824,3.906118,15.99907,1008.24
5.770146847,11.66506,1.129707,2.282145,-0.0003763359,-0.7233142,-0.6641813,-7.823824,3.906118,15.99907,1008.24
5.802705288,-3.532223,-0.7142016,2.710541,-0.005382558,-0.7060059,-0.6373267,-7.467084,4.638969,16.43873,1008.24
5.837767601,-15.03786,-0.1193922,1.241755,0.001494054,-0.7236232,-0.6975408,-7.115005,5.364439,15.6039,1008.238
5.870325565,-6.608595,5.888182,4.485322,-0.1565956,-0.6281269,-0.5625193,-7.115005,5.364439,15.6039,1008.238
5.902884006,-14.238,6.839878,1.914948,0.05858697,-0.6988994,-0.733472,-7.829505,4.269928,15.99646,1008.238
5.937946320,-17.92965,2.973617,2.220945,0.03186496,-0.790089,-0.7430549,-7.457353,3.908764,15.99788,1008.238
5.970500469,-16.57604,1.665036,4.424123,-0.06540351,-0.6528666,-0.6316243,-7.457353,3.908764,15.99788,1008.238
6.003058910,-43.70965,-1.844339,2.098547,-0.03446129,-0.6786332,-0.6479987,-7.442729,3.186309,16.89525,1008.238
6.038121223,-63.5215,-1.309011,-3.3482,-0.02748716,-0.6708009,-0.7464948,-7.803518,2.819852,16.89905,1008.236
6.070679188,-46.53992,3.508945,-0.4718282,-0.03949853,-0.6219033,-0.8453128,-7.803518,2.819852,16.89905,1008.238
6.103237629,-29.18917,-1.844339,-2.124212,0.0009303475,-0.5876862,-0.8791496,-7.04054,1.008674,17.3558,1008.238
6.138299942,-13.99189,-3.15292,2.649341,-0.00148289,-0.5488124,-0.8843547,-8.118857,-0.4570913,16.92374,1008.236
6.170853615,26.61623,8.505344,7.973688,-0.3173789,-0.5175568,-0.8613377,-8.118857,-0.4570913,16.92374,1008.234
6.203411579,14.43379,-2.439149,5.954108,-0.1579768,-0.5542626,-0.7764937,-7.739394,-1.179483,17.37384,1008.234
6.235970020,4.466347,1.486593,5.77051,-0.07247815,-0.6102114,-0.7329592,-8.478016,-0.8209662,17.37361,1008.233
6.271032810,1.205392,1.30815,1.670151,-0.05317007,-0.6443115,-0.7668511,-8.478016,-0.8209662,17.37361,1008.233
6.303590298,-4.393607,1.783998,-0.4718282,-0.0517089,-0.6514274,-0.8007975,-8.122909,-0.09069777,17.3672,1008.233
6.336148739,-12.08454,4.817525,-2.858604,-0.03399171,-0.6311449,-0.8280576,-8.120488,-0.4596744,16.47766,1008.233
6.371207237,-9.808023,5.293373,-3.654197,0.01499533,-0.5736063,-0.8359278,-8.120488,-0.4596744,16.47766,1008.233
6.403765201,3.974127,0.7728219,0.1401658,0.02794099,-0.5545173,-0.8283985,-7.749125,-0.4492784,17.81469,1008.233
6.436323643,19.54058,-1.725378,2.343344,0.02997726,-0.5598853,-0.817848,-8.105865,-1.18213,17.37503,1008.233
6.471385956,24.77041,-3.628768,5.709311,0.002296973,-0.5983787,-0.7691041,-8.105865,-1.18213,17.37503,1008.234
6.503943920,18.9253,-1.963301,7.055697,-0.002977836,-0.6456276,-0.7611191,-7.380235,-0.815609,16.92397,1008.234
6.536502361,5.266204,-8.327762,8.096087,-0.07276603,-0.621996,-0.7075198,-7.765381,0.2705932,16.47125,1008.236
6.571560860,8.711741,-3.628768,11.15606,-0.3844296,-0.5399944,-0.5039164,-7.765381,0.2705932,16.47125,1008.236
6.604118824,40.45991,16.29735,22.35555,-0.4639042,-0.4524889,-0.5228065,-8.502372,0.6316934,16.91709,1008.236
6.636677265,2.805106,5.70974,12.31885,-0.1594367,-0.626941,-0.7234629,-8.134271,0.6369224,17.36198,1008.236
6.671739578,-22.35962,3.389983,10.91126,0.01634025,-0.6792706,-0.7887201,-8.134271,0.6369224,17.36198,1008.236
6.704297543,-36.57247,2.914136,10.36047,-0.02293,-0.6482889,-0.7674243,-8.126958,0.2756953,17.81066,1008.236
6.736855030,6.865918,11.24147,23.45714,0.2044308,-0.8429347,-1.129279,-8.486116,-0.08817911,18.26053,1008.234
6.769409656,-34.41901,7.910535,15.37882,-0.03998683,-0.6100168,-0.7890593,-8.486116,-0.08817911,18.26053,1008.233
6.804471970,-13.86884,10.40873,23.76313,0.1389887,-1.022995,-1.264408,-8.828232,-1.543486,18.71824,1008.233
6.837029934,-33.0654,13.91811,29.20988,-0.111085,-0.5078392,-0.6980071,-8.451419,-1.89727,19.99415,1008.233
6.869588375,-0.763487,16.53527,40.40937,-0.09959666,-0.3742642,-0.5417831,-8.451419,-1.89727,19.99415,1008.233
6.904651165,-24.45156,18.55762,44.20373,-0.0870801,-0.4094516,-0.5698845,-8.799215,-2.988765,20.44924,1008.233
6.937208652,-29.86597,21.88855,46.10091,-0.07795618,-0.616242,-0.811353,-8.416489,-3.705991,21.79149,1008.233
6.969763279,2.374413,25.21949,49.71168,-0.06929926,-0.6035644,-0.7956999,-8.416489,-3.705991,21.79149,1008.233
7.004835606,-8.085255,37.94841,53.20004,-0.07133847,-0.5430756,-0.7440205,-9.14477,-3.703905,23.06836,1008.233
7.037394047,6.189116,37.47256,42.73495,-0.05885497,-0.486996,-0.7494609,-9.125253,-4.418611,25.30394,1008.233
7.069952011,-14.05342,30.87018,35.32982,-0.09354407,-0.5361674,-0.8299347,-9.125253,-4.418611,25.30394,1008.235
7.105014324,-30.05056,29.44263,30.86226,-0.03986959,-0.5071897,-0.8493629,-10.23705,-3.327739,26.57417,1008.235
7.137572765,-31.7118,27.12288,27.0679,-0.06123635,-0.5123326,-0.848454,-10.24352,-2.592369,27.90716,1008.235
7.170126915,-26.1128,23.37558,20.45836,-0.04684326,-0.4979562,-0.8690337,-9.875416,-2.587139,28.35204,1008.235
7.202684403,-16.94521,18.08177,11.95165,-0.05631971,-0.4743619,-0.8478795,-9.875416,-2.587139,28.35204,1008.235
7.237747669,-13.19203,13.56122,4.852519,-0.04667718,-0.5072961,-0.8454909,-9.862423,-3.312177,28.80334,1008.235
7.270305634,-10.66941,10.76562,2.220945,-0.04878767,-0.501317,-0.8835844,-10.58805,-3.678699,29.2544,1008.235
7.302863121,-18.54492,7.434687,-1.940614,-0.04000886,-0.5050329,-0.8962174,-10.58805,-3.678699,29.2544,1008.235
7.337926388,-15.96077,6.245068,-3.287,-0.04966008,-0.4663754,-0.8748332,-10.21427,-4.03728,29.70189,1008.235
7.370480061,-13.25356,7.196763,-3.776596,-0.04102537,-0.4588889,-0.8930956,-10.21185,-4.406257,28.81236,1008.235
7.403038025,-11.16163,6.542473,-4.694587,-0.08877643,-0.4585042,-0.9007776,-10.21185,-4.406257,28.81236,1008.237
7.438101292,-9.254276,6.245068,-2.185411,-0.03422627,-0.4573401,-0.8935619,-10.56798,-4.765334,30.09065,1008.237
7.470658779,-6.23943,4.936487,-4.939384,-0.008795271,-0.4657716,-0.8903314,-10.57343,-4.401154,30.15177,1008.237
7.503216743,-9.438859,0.7133409,-4.082593,-0.002160731,-0.4529832,-0.904644,-10.57343,-4.401154,30.15177,1008.237
7.538279056,-7.100815,0.4159362,-2.124212,-0.01764418,-0.4201294,-0.9060614,-10.19583,-5.126498,30.09208,1008.237
7.570833683,-1.378761,2.616731,-0.2882299,-0.01130194,-0.4186418,-0.8944438,-10.19559,-5.126129,30.1558,1008.238
7.603391647,-0.8250145,2.55725,0.8745586,0.006124647,-0.4467057,-0.87217,-10.19559,-5.126129,30.1558,1008.238
7.635950088,-5.193464,0.1185316,2.220945,-0.009937223,-0.4483553,-0.8760467,-10.18586,-5.856334,29.71495,1008.238
7.671012402,-10.79246,-1.309011,2.282145,-0.0152414,-0.4585084,-0.9027821,-10.5507,-5.856397,30.16221,1008.238
7.703570366,-15.96077,-1.24953,1.73135,-0.02315932,-0.4483905,-0.9060038,-10.5507,-5.856397,30.16221,1008.238
7.736128807,-18.79103,-2.855515,3.200136,-0.02414159,-0.3970773,-0.864133,-10.54767,-5.8516,30.99063,1008.238
7.771191120,-24.63614,-2.439149,1.853749,0.008405188,-0.434502,-0.8773031,-10.18688,-5.485143,30.98683,1008.238
7.803745270,-39.21815,-4.164096,-1.145021,-0.05530668,-0.4088972,-0.9189048,-10.18688,-5.485143,30.98683,1008.24
7.836303711,-44.63256,1.010746,3.689731,-0.04546553,-0.3819025,-0.9484718,-10.16416,-6.940386,30.99727,1008.24
7.871366024,-37.37233,3.687388,-0.4106288,0.2041314,-0.3943852,-0.9082995,-9.790376,-7.298966,31.44477,1008.242
7.903923988,-46.84755,6.780396,-1.145021,-0.02667533,-0.3627396,-0.9404636,-9.790376,-7.298966,31.44477,1008.242
7.936482429,-69.30508,6.304549,4.974918,-0.1468728,-0.3364444,-0.975233,-10.49965,-8.820138,31.45803,1008.242
7.971544743,-86.90193,12.55005,7.239295,-0.08319961,-0.2085778,-1.015881,-9.735035,-10.62873,32.36085,1008.242
8.004098415,-99.02284,14.33448,11.52325,-0.1485581,-0.1997193,-1.013749,-9.735035,-10.62873,32.36085,1008.242
8.036656380,-110.8976,22.89973,19.66277,-0.07205065,-0.1770042,-1.086466,-10.06174,-13.17805,32.38031,1008.242
8.069214821,-111.9436,35.8071,36.12541,0.006033707,-0.07088536,-1.112958,-9.661179,-15.35827,32.39479,1008.242
8.104277134,-137.8466,49.78512,21.25396,-0.1506429,-0.07124567,-1.055774,-9.661179,-15.35827,32.39479,1008.24
8.136835098,-234.6909,48.89291,40.10337,-0.1410977,0.1040384,-1.098063,-9.254152,-18.27386,31.07627,1008.246
8.169393539,-265.7007,42.58792,60.91117,-0.1854676,0.1501764,-0.8986487,-9.56139,-22.28359,30.21404,1008.244
8.204452038,-160.981,42.0526,93.40805,-0.1208048,0.4590131,-0.867897,-9.56139,-22.28359,30.21404,1008.244
8.237010002,-89.05539,46.33522,65.80712,0.08116133,0.4224393,-0.9029697,-8.421011,-25.93885,25.90332,1008.244
8.269568443,-113.2972,63.52521,46.8965,0.2738403,0.5316556,-0.8550853,-8.779202,-27.41962,21.96403,1008.246
8.304630756,-154.8282,67.45095,47.3249,-0.0396053,0.5448411,-0.9121034,-8.779202,-27.41962,21.96403,1008.246
8.337188721,-181.9003,80.53676,50.69087,-0.05880486,0.679882,-0.9511116,-9.175531,-26.35113,18.45253,1008.246
8.369747162,-253.8259,87.49603,77.00661,-0.3892266,0.7449847,-0.9314312,-8.477164,-26.02778,10.5457,1008.246
8.404805660,-270.8075,91.0054,114.3994,-0.4700118,0.5638644,-0.7726686,-8.477164,-26.02778,10.5457,1008.246
8.437363624,-230.0148,82.79704,131.5353,-0.3961396,0.3827337,-0.70203,-10.73492,-24.27295,2.191857,1008.248
8.469922066,-257.3945,54.95996,171.7433,-0.1668133,0.3033771,-1.505384,-13.43439,-17.79343,-6.577086,1008.248
8.504984379,-258.502,-8.565685,149.2831,0.8067158,-0.2801127,-0.9037541,-13.43439,-17.79343,-6.577086,1008.25
8.537542343,-223.862,-42.5293,162.9918,0.8055729,0.1020761,-0.9462599,-13.99005,-8.402681,-17.98676,1008.25
8.570100784,-170.4562,17.18956,79.45459,1.379454,-0.2300637,-0.8629397,-17.45019,-0.04619026,-26.32074,1008.249
8.602654457,-107.0829,105.3403,71.86586,1.9906,-0.03064654,-0.5356579,-17.45019,-0.04619026,-26.32074,1008.249
8.637716770,-81.48752,244.4662,-4.204992,2.390724,0.2526269,-0.8662192,-14.98836,7.637455,-22.05063,1008.249
8.670275211,-145.2915,310.0737,-15.71048,1.117438,0.5581857,0.1044916,-15.78096,10.52014,-25.95634,1008.247
8.702833176,-285.1434,389.7187,-34.25389,0.8197758,0.2085614,0.9941754,-15.78096,10.52014,-25.95634,1008.247
8.737895966,-411.89,294.5492,-39.39465,-0.3076469,-0.2296164,0.710637,-14.37322,11.92988,-35.65767,1008.247
8.770454407,-506.4577,183.0819,-56.04088,-0.6709511,-0.3269622,0.4504125,-11.26942,22.83002,-42.31033,1008.249
8.803008079,-552.6033,106.9463,12.68604,-0.4148313,-0.9710256,0.3504311,-11.26942,22.83002,-42.31033,1008.249
8.838070393,-601.9483,152.5087,22.47795,-0.5960478,-0.895,-0.1045418,-9.002743,41.45098,-44.61889,1008.25
8.870628357,-575.2454,118.7235,80.55618,-0.6191,-1.367453,0.3701992,-8.854326,57.51184,-36.00471,1008.252
8.903186798,-305.6935,149.951,178.2916,-0.7554852,-6.162262,1.842052,-8.854326,57.51184,-36.00471,1008.252
8.938249111,-34.72665,-23.55488,-38.35426,-0.2812319,-3.660875,0.3571191,-9.272765,65.25587,-17.64195,1008.254
8.970807075,191.0791,7.375206,-33.09111,-0.1252689,-1.319509,-0.2028309,-8.585557,72.27209,-0.6794834,1008.257
9.003361702,311.9191,17.24904,-91.35293,-0.228596,-0.7554252,-0.1390204,-8.585557,72.27209,-0.6794834,1008.257
9.035919189,257.7134,15.22669,-135.4777,-0.05117441,-0.3035818,0.08087107,-8.564463,70.81426,-1.115111,1008.257
9.070981979,177.7892,56.3875,-82.35662,0.1241144,-0.2518674,0.112427,-8.957174,70.39725,-9.841576,1008.257
9.103540421,125.2447,83.8082,-18.21965,0.002979967,-0.2712001,0.2746635,-10.39508,67.44851,-14.59527,1008.259
9.136097908,106.0482,77.97907,-1.32862,-0.05885874,-0.350853,0.299127,-10.39508,67.44851,-14.59527,1008.259
9.171160698,186.1569,90.88644,-17.73006,-0.005682491,-0.7169598,0.5864166,-9.271134,65.25846,-17.19588,1008.259
9.203714848,456.5086,86.48485,16.4192,-0.05860014,-0.89644,0.9970167,-9.622856,63.04232,-22.46816,1008.259
9.236272812,598.5754,74.41022,14.76682,-0.3758149,0.138229,1.274615,-9.622856,63.04232,-22.46816,1008.259
9.271335125,521.42,45.68093,-19.62724,-0.5136724,1.207114,1.171178,-8.779806,53.90179,-31.13553,1008.261
9.303894043,467.6451,9.992368,37.71659,-0.2701964,1.490283,0.3114686,-8.019415,27.62397,-35.34528,1008.264
9.336451531,354.9883,-11.30181,40.28697,-0.1906356,0.8431256,0.4905189,-8.019415,27.62397,-35.34528,1008.264
9.371514320,266.5733,-4.342539,28.04709,0.1065845,0.7002295,0.06461382,-7.220505,1.096473,-30.31279,1008.264
9.404068470,226.8881,11.24147,17.94919,0.001002373,0.7837206,0.105143,-7.258504,-18.57975,-24.49867,1008.264
9.436626434,150.348,5.11493,-13.3237,-0.1311088,1.151379,0.2094885,-7.258504,-18.57975,-24.49867,1008.266
9.471688747,136.2582,7.851054,-10.81453,-0.1623388,1.454565,0.03384463,-8.12837,-32.01806,-19.10936,1008.268
9.504247188,47.28946,0.8917838,-5.551378,-0.1497866,1.40219,-0.06170838,-7.240583,-41.08774,-15.54161,1008.269
9.536805153,-35.77261,-1.963301,1.914948,-0.1239507,1.233855,-0.05656747,-7.240583,-41.08774,-15.54161,1008.271
9.569363117,-90.83969,-4.699425,4.607721,-0.09625842,1.008751,0.03954715,-6.774502,-47.26508,-14.66999,1008.271
9.604422092,-115.9429,-3.985653,-3.776596,-0.07727621,0.9862401,0.12716,-7.177301,-45.46122,-16.84849,1008.271
9.636980057,-135.3856,-2.736553,-10.44733,-0.0646011,0.9655072,0.2331743,-7.177301,-45.46122,-16.84849,1008.273
9.669537544,-162.15,1.486593,-7.020164,0.0008147734,1.006008,0.4904022,-6.912914,-39.65531,-19.95023,1008.273
9.704600811,-133.0475,-1.606416,-9.345741,-0.1074991,0.9893459,0.5303728,-7.033673,-32.7632,-23.5047,1008.273
9.737158775,-138.9541,-0.297835,-6.40817,-0.1127534,0.7297384,0.5317344,-7.033673,-32.7632,-23.5047,1008.273
9.769716263,-103.0221,-4.580463,-4.878185,-0.1056812,0.7578427,0.5703431,-6.812318,-24.41578,-27.51686,1008.273
9.804775715,-104.1911,-2.439149,-4.44979,-0.1017055,0.6456692,0.6667535,-7.311697,-16.42714,-29.73976,1008.275
9.837333202,-73.98116,-1.190049,-3.164602,-0.1018329,0.5813297,0.7068589,-7.311697,-16.42714,-29.73976,1008.27
9.869891167,-50.35462,-0.9521254,-2.491408,-0.1078927,0.5683872,0.7564551,-7.046701,-10.24746,-31.12355,1008.276
9.904954433,-21.99046,-0.297835,-1.083822,-0.117905,0.5564491,0.7877022,-6.774319,-4.739564,-33.33098,1008.276
9.937512398,4.650929,-0.4762778,0.6909603,-0.1136399,0.5633793,0.7723358,-6.774319,-4.739564,-33.33098,1008.276
9.970069885,24.5243,-0.2383541,1.486552,-0.1112229,0.60001,0.7400227,-7.906187,-2.562057,-32.897,1008.276
10.002624512,36.15298,-0.2383541,1.608951,-0.1055189,0.6473708,0.7088369,-7.173245,-2.556763,-32.89938,1008.278
10.037686825,41.13671,0.8323028,1.241755,-0.107217,0.7048031,0.6860292,-7.173245,-2.556763,-32.89938,1008.278
10.070244789,40.27533,1.248669,1.180556,-0.109255,0.7486433,0.6586642,-7.136129,-4.734831,-32.05529,1008.28
10.102803230,35.72229,0.8323028,1.180556,-0.117447,0.7792375,0.6407705,-6.726627,-7.273693,-31.14606,1008.28
10.137865543,28.40053,-0.05991125,1.79255,-0.1250015,0.7962458,0.6197687,-6.726627,-7.273693,-31.14606,1008.28
10.170423508,20.52501,-1.011606,2.404544,-0.1169645,0.8143917,0.6069866,-7.056433,-9.517257,-30.6827,1008.28
10.202978134,12.15728,-1.130568,2.098547,-0.1072066,0.8111547,0.5987104,-7.400178,-10.97515,-30.67107,1008.281
10.238040447,3.358853,-0.8331635,1.180556,-0.1037436,0.8053924,0.593302,-7.400178,-10.97515,-30.67107,1008.281
10.270598412,-3.409168,-1.24953,1.058157,-0.1071035,0.8028811,0.6014844,-7.379872,-12.06141,-29.77109,1008.281
10.303156853,-7.593035,-1.665897,1.425353,-0.1075347,0.8018216,0.6193535,-7.005301,-12.79155,-30.6592,1008.281
10.338219166,-9.500386,-2.439149,1.547752,-0.1117631,0.7910194,0.6312772,-7.005301,-12.79155,-30.6592,1008.281
10.370777130,-9.808023,-3.093439,2.526942,-0.1076581,0.7726145,0.629059,-7.381504,-12.064,-30.21716,1008.28
10.403331280,-9.808023,-3.271882,2.465743,-0.1011185,0.7556683,0.6336279,-7.381504,-12.064,-30.21716,1008.28
10.435889244,-7.593035,-3.033958,2.526942,-0.1019165,0.7420171,0.6406711,-7.381504,-12.064,-30.21716,1008.28
10.470951557,-0.9480693,-2.082263,2.098547,-0.09371331,0.7133051,0.672128,-7.039389,-10.60869,-30.67487,1008.281
10.503510475,1.020809,-3.628768,2.343344,-0.09653518,0.7415659,0.648393,-6.665606,-10.96727,-30.22737,1008.283
10.536067963,17.5717,-5.175272,4.240525,-0.08454298,0.7529951,0.6277706,-6.665606,-10.96727,-30.22737,1008.285
10.571130752,6.189116,-3.74773,2.649341,-0.07880292,0.7656258,0.6453593,-7.045071,-10.24488,-30.67748,1008.285
10.603684902,12.28033,-4.461501,3.567332,-0.07071095,0.6160021,0.6532197,-7.400178,-10.97515,-30.67107,1008.289
10.636242866,9.388543,-4.342539,4.852519,-0.08526514,0.7738696,0.63099,-7.400178,-10.97515,-30.67107,1008.289
10.671305180,17.63322,-6.067486,6.504903,-0.09082968,0.7908264,0.6269037,-7.776381,-10.24759,-30.22903,1008.289
10.703863621,6.435225,-5.532158,6.504903,-0.06170272,0.7966029,0.615846,-7.765018,-10.97521,-30.22381,1008.289
10.736421585,2.374413,-3.80721,5.709311,-0.04993908,0.789005,0.6104016,-7.765018,-10.97521,-30.22381,1008.289
10.771483898,5.573841,-2.082263,4.79132,-0.07591568,0.7994397,0.592701,-7.752025,-11.70025,-29.77251,1008.287
10.804038525,-1.132652,-3.74773,5.280915,-0.07422738,0.78097,0.5977347,-7.750394,-11.69767,-29.32644,1008.287
10.836596489,5.450786,-3.509806,4.301724,-0.04236197,0.7234983,0.6089116,-7.750394,-11.69767,-29.32644,1008.285
10.871658802,-6.547068,-2.677073,3.689731,-0.03383452,0.7867718,0.6132523,-8.114446,-12.06929,-30.21478,1008.285
10.904217243,-6.608595,-2.201225,4.118126,-0.04675575,0.7681138,0.6178139,-7.750394,-11.69767,-29.32644,1008.287
10.936775208,-5.378046,-2.558111,3.934528,-0.06264899,0.7542658,0.6248686,-7.750394,-11.69767,-29.32644,1008.287
10.969332695,-2.670838,-2.736553,3.322535,-0.05339548,0.7548592,0.627769,-7.776381,-10.24759,-30.22903,1008.287
11.004392147,0.4055347,-2.855515,2.588142,-0.03537404,0.7531835,0.6204754,-8.142852,-10.25023,-30.22784,1008.285
11.036949635,2.805106,-1.546935,2.220945,-0.02954731,0.7566193,0.6297063,-7.415591,-9.881131,-30.23283,1008.285
11.069507599,8.896323,-0.8331635,2.282145,-0.02909065,0.7609614,0.6379895,-7.415591,-9.881131,-30.23283,1008.285
11.104570866,3.974127,-4.937348,6.137706,-0.03081829,0.7799786,0.6194296,-7.765018,-10.97521,-30.22381,1008.285
11.137128830,4.097182,-2.617592,6.321304,-0.05865069,0.7878419,0.6273105,-7.40991,-10.24494,-30.23022,1008.285
11.169686317,3.728018,-3.80721,5.036117,-0.06645465,0.7882394,0.6244238,-7.40991,-10.24494,-30.23022,1008.283
11.204745770,3.974127,-4.758906,4.73012,-0.05081511,0.7802525,0.6088188,-7.763387,-10.97263,-29.77773,1008.283
11.237303257,3.851072,-5.472677,4.73012,-0.0217361,0.7908728,0.6012188,-8.131489,-10.97786,-30.22262,1008.283
11.269861221,1.082337,-3.688249,3.506133,0.03175169,0.7974175,0.5978833,-8.131489,-10.97786,-30.22262,1008.281
11.304924488,-6.48554,-1.784858,2.955338,0.05171285,0.7962574,0.5896289,-8.122545,-11.3365,-29.32786,1008.283
11.337481976,-15.09939,-0.05991125,3.689731,0.02979156,0.7955122,0.5838382,-7.753656,-11.70283,-30.21858,1008.283
11.370039940,-23.34406,1.367631,4.546522,-0.01793296,0.7944216,0.5800006,-7.753656,-11.70283,-30.21858,1008.287
11.402594566,-33.18846,2.735693,3.567332,-0.04502073,0.7808937,0.5914215,-7.763387,-10.97263,-29.77773,1008.287
11.437656879,-40.75634,2.497769,2.526942,-0.05891903,0.7703143,0.6333273,-8.154214,-9.522614,-30.23306,1008.283
11.470214844,-41.31008,0.7728219,1.73135,-0.07375372,0.7553731,0.6698502,-8.154214,-9.522614,-30.23306,1008.285
11.502773285,-40.63328,-4.164096,7.422894,-0.05137959,0.7647481,0.7028413,-7.821989,-7.648027,-31.58596,1008.285
11.537835598,-34.48053,-7.197624,13.78763,-0.02792204,0.764899,0.7366573,-7.870702,-4.742707,-32.49899,1008.287
11.570393562,-31.21958,-9.041533,21.43756,-0.01377552,0.7241901,0.7514907,-7.870702,-4.742707,-32.49899,1008.287
11.602947712,-22.2981,-9.576861,32.63705,0.005827855,0.670526,0.7453359,-8.640759,-2.569933,-33.3407,1008.287
11.638010502,-6.424013,-7.970876,38.51219,0.02750538,0.6076198,0.7467722,-8.302694,-0.7482324,-33.35494,1008.289
11.670567989,11.35742,-7.732952,39.43018,0.03358976,0.5820484,0.723174,-8.302694,-0.7482324,-33.35494,1008.289
11.703126907,27.47762,-7.376067,35.94181,0.07871372,0.595776,0.7194729,-8.321369,0.3406157,-33.80885,1008.291
11.738189220,38.30645,-8.982052,30.25027,0.1230647,0.6361783,0.725847,-8.314057,-0.02061129,-33.36016,1008.287
11.770747185,42.12115,-6.602815,29.57708,0.1233977,0.6531124,0.7435066,-8.314057,-0.02061129,-33.36016,1008.287
11.803301334,47.28946,-6.424372,25.96631,0.1133227,0.6773797,0.7221346,-8.653143,-1.471121,-32.07404,1008.287
11.835859299,58.30287,-7.732952,23.82433,0.1271714,0.6951841,0.694357,-8.989576,-3.290238,-31.61372,1008.287
11.870921612,72.51571,-6.008006,26.7007,0.1351694,0.7490165,0.6361986,-8.989576,-3.290238,-31.61372,1008.287
11.903480053,87.40536,-2.796035,34.04463,0.1421422,0.8124424,0.6028398,-8.572762,-6.190329,-30.25581,1008.291
11.936038017,97.31127,-2.141744,34.90142,0.1826788,0.8336213,0.5509191,-9.243284,-9.886985,-28.95239,1008.289
11.971100330,107.4633,-3.628768,30.25027,0.1840493,0.8622865,0.4508126,-9.243284,-9.886985,-28.95239,1008.291
12.003654957,111.3395,-4.342539,29.51588,0.1586815,0.8924252,0.3773403,-9.527743,-14.60626,-26.6869,1008.291
12.036212921,107.9555,-5.05631,23.15114,0.1667352,0.895321,0.2985863,-9.780767,-21.13978,-23.57993,1008.289
12.071275234,85.12884,-3.74773,9.687271,0.2279017,0.8955141,0.2182896,-9.780767,-21.13978,-23.57993,1008.287
12.103833675,42.55184,-0.0004303157,0.9357581,0.3117131,0.8955509,0.2365776,-10.4303,-25.85949,-20.9309,1008.289
12.136391640,4.773984,-0.9521254,-3.776596,0.3866418,0.9004446,0.2302961,-9.255401,-30.5785,-20.45445,1008.289
12.171453953,-18.97561,-1.309011,-5.245381,0.4101103,0.8977219,0.2548841,-9.255401,-30.5785,-20.45445,1008.289
12.204008579,-20.88297,4.817525,-9.835337,0.3425418,0.9298633,0.2607568,-9.595883,-32.03123,-19.55067,1008.289
12.236566067,-12.39218,9.635482,-0.5330275,0.2493489,0.9921923,0.2879,-9.603196,-31.67,-19.99936,1008.291
12.271628857,-11.59232,10.11133,21.37636,0.2149637,1.024636,0.3222646,-9.603196,-31.67,-19.99936,1008.291
12.304187298,-7.593035,9.278596,29.82187,0.16016,1.050093,0.3381739,-9.61619,-30.94496,-20.45065,1008.295
12.336745262,-8.085255,-3.15292,37.3494,0.1962014,1.008751,0.3413754,-9.621871,-30.58115,-20.45326,1008.295
12.369303703,-8.269837,-3.926172,41.44976,0.2676879,1.010808,0.3079848,-9.621871,-30.58115,-20.45326,1008.295
12.404362202,-14.97633,-3.688249,45.67252,0.3148963,1.008616,0.2842203,-9.646227,-29.12849,-20.90978,1008.295
12.436919689,-19.52936,2.676212,55.09723,0.2963079,0.9372985,0.3097359,-10.03542,-27.6759,-20.91904,1008.293
12.469478130,-26.72807,14.03707,57.3004,0.2717369,0.8652076,0.2748234,-10.03542,-27.6759,-20.91904,1008.293
12.504540920,-12.76134,18.20074,47.6921,0.3403069,0.7817179,0.2348133,-10.4222,-26.59228,-21.81783,1008.295
12.537098408,18.43308,24.5652,38.08379,0.4215103,0.7098572,0.2384724,-11.19957,-24.05828,-23.10822,1008.295
12.569656849,37.7527,28.66938,21.80475,0.4402592,0.6141639,0.2804983,-11.19957,-24.05828,-23.10822,1008.295
12.604715347,28.95428,30.09692,-4.755786,0.4830981,0.5662881,0.2439567,-10.12288,-22.59509,-23.12223,1008.295
12.637273312,10.55756,35.8071,-18.15845,0.4460219,0.4847118,0.2282466,-10.82415,-24.41427,-22.21465,1008.293
12.669831753,-11.46926,40.86298,-24.40079,0.3753425,0.4910578,0.2332454,-10.82415,-24.41427,-22.21465,1008.293
12.704894066,-10.60788,59.8374,-48.26856,0.3987387,0.6376427,0.3418021,-10.79677,-25.86214,-20.92971,1008.293
12.737452030,-21.55977,74.23178,-69.32114,0.4166073,1.029609,0.5531999,-10.4222,-26.59228,-21.81783,1008.295
12.770010471,-62.66011,56.32802,-65.46558,0.1631466,1.344139,0.7699623,-10.4222,-26.59228,-21.81783,1008.295
12.802564144,-87.64026,26.46859,-43.25021,-0.02250066,1.378033,0.6938016,-8.953664,-26.9503,-22.64839,1008.295
12.837626934,-46.97061,5.590778,7.484093,0.05021358,1.013386,0.6117947,-8.258916,-25.14145,-25.34025,1008.297
12.870185375,-17.43743,-5.591639,27.98589,0.1825133,0.732309,0.598678,-8.258916,-25.14145,-25.34025,1008.297
12.902743340,0.8977544,-13.74053,16.5416,0.2342632,0.5009165,0.5443432,-7.591497,-21.13903,-26.19977,1008.295
12.937805653,18.55614,-9.755304,-9.284542,0.3507487,0.4342837,0.462007,-7.992055,-18.95881,-26.21425,1008.295
12.970364094,47.35098,9.813925,-20.91243,0.3261065,0.5851074,0.463365,-9.082757,-19.32577,-25.37965,1008.295
13.002962589,54.61122,12.49057,-26.17558,0.1729199,0.8672437,0.5040705,-9.082757,-19.32577,-25.37965,1008.295
13.038024902,55.78024,3.925312,-12.71171,0.135813,1.130098,0.5221345,-7.948415,-21.12655,-23.58588,1008.295
13.070582867,40.52143,-1.963301,-6.897765,0.1574118,1.140469,0.4415479,-7.894021,-24.39568,-22.67023,1008.295
13.103141308,35.16854,-3.450325,1.608951,0.159465,0.9935043,0.3822652,-7.894021,-24.39568,-22.67023,1008.301
13.138203621,22.30931,-6.959701,12.38004,0.192204,0.9025156,0.3919632,-8.212012,-27.30402,-21.81973,1008.301
13.170761585,21.3864,-5.175272,4.913718,0.2111274,0.8154848,0.3471132,-7.819555,-28.75145,-20.91833,1008.303
13.203316212,18.55614,-6.543334,5.954108,0.1878021,0.817946,0.3800429,-7.819555,-28.75145,-20.91833,1008.303
13.235873699,24.33972,-5.353715,5.954108,0.235085,0.8968368,0.3744336,-8.896242,-30.21463,-20.90432,1008.303
13.270936489,31.72301,-5.353715,4.607721,0.2389102,0.9459488,0.3800129,-8.142995,-31.2956,-20.00673,1008.303
13.303494930,38.49103,-7.197624,3.077737,0.224887,0.9284631,0.3377059,-8.142995,-31.2956,-20.00673,1008.303
13.336052418,40.09074,-6.959701,4.668921,0.229219,0.9195759,0.2742438,-8.852602,-32.38237,-18.27595,1008.301
13.371115208,31.04621,-5.829563,4.73012,0.2460831,0.9310641,0.2545843,-8.816884,-34.56264,-17.81421,1008.299
13.403669357,20.21738,-1.784858,0.1401658,0.2722864,0.9719459,0.2107121,-8.816884,-34.56264,-17.81421,1008.299
13.436227321,10.24993,1.248669,-2.675006,0.2418068,0.994434,0.201417,-8.783585,-36.37395,-16.46294,1008.299
13.471289635,-11.59232,7.851054,-3.287,0.2428517,0.9776706,0.1504057,-9.499481,-37.47068,-16.45273,1008.298
13.503848553,-31.28111,16.1189,-2.981003,0.2486854,0.9839472,0.1761148,-9.499481,-37.47068,-16.45273,1008.296
13.536406040,-36.81858,25.57637,-2.675006,0.2694441,1.006427,0.2083406,-8.405751,-37.09893,-16.45891,1008.294
13.571468830,-31.89638,34.02267,-8.305351,0.2279067,0.9695894,0.1744657,-8.068529,-35.65137,-18.25483,1008.293
13.604022980,13.88005,41.87415,-10.26373,0.1224409,1.019099,0.1003994,-8.068529,-35.65137,-18.25483,1008.293
13.636580944,108.2016,50.55837,-4.878185,-0.1747476,1.009797,0.0120864,-8.466435,-33.83976,-19.09511,1008.294
13.669139385,185.0494,27.30132,1.364154,-0.5505117,1.078638,-0.1706672,-8.077418,-34.54702,-16.0323,1008.293
13.704201698,227.3188,0.8917838,-33.7643,-0.4816919,1.241146,-0.3321191,-8.077418,-34.54702,-16.0323,1008.291
13.736759663,225.473,-19.68862,-47.04457,-0.3219152,1.390814,-0.4024965,-7.593863,-40.69668,-10.38134,1008.295
13.769318104,214.3365,-20.16447,-56.89767,-0.2695752,1.350214,-0.302624,-7.787778,-49.74626,-1.966955,1008.295
13.804376602,139.5807,-14.63274,-97.59527,-0.2952924,1.380571,-0.3185709,-7.787778,-49.74626,-1.966955,1008.291
13.836934566,75.4075,-11.42077,-109.3456,-0.3495593,1.341847,-0.1890809,-6.899222,-58.13124,4.654789,1008.291
13.869493008,29.56955,-1.784858,-152.3687,-0.3724785,1.023392,-0.1233442,-7.211478,-60.65769,8.625177,1008.295
13.904555321,29.75413,-16.59561,-168.709,-0.5151123,0.8452824,0.05099205,-7.211478,-60.65769,8.625177,1008.295
13.937113285,22.12473,-29.26505,-204.021,-0.60271,0.6925458,0.1478386,-6.110435,-60.64716,9.067684,1008.295
13.969671726,-5.378046,-63.16919,-245.0858,-0.647301,0.5058953,0.343702,-4.661597,-59.54514,9.055096,1008.297
14.004730225,-49.37018,-80.53763,-285.8446,-0.5620822,0.3398063,0.3459195,-4.661597,-59.54514,9.055096,1008.297
14.037287712,-33.80373,-89.28133,-313.5067,-0.8028826,0.6310861,0.05090221,-2.912886,-54.81787,6.338776,1008.295
14.069846630,-80.56461,-119.6761,-299.8593,-0.6403528,0.9032772,0.2965864,-0.8891399,-44.95131,0.589221,1008.295
14.104908943,-130.9556,-117.0589,-256.2853,-0.03626761,1.147172,0.3369443,-0.8891399,-44.95131,0.589221,1008.295
14.137466908,-155.1359,-129.5499,-212.2829,-0.2986235,1.358618,0.008343528,0.7130582,-31.88148,-6.520425,1008.293
14.170025349,-199.8663,-116.94,-135.1105,-0.04027615,1.129198,0.005077449,1.545199,-16.63887,-14.47178,1008.292
14.202579022,-197.8974,-114.3228,-61.79362,0.02423536,0.9144328,0.07086153,1.545199,-16.63887,-14.47178,1008.292
14.237641335,-66.6594,-36.10536,11.52325,0.1920935,0.6402904,-0.5062844,0.5673738,-2.430334,-20.68923,1008.292
14.270199776,99.8339,79.40662,93.89764,-0.4898222,1.075786,-0.8610314,0.007076502,8.817108,-25.61205,1008.292
14.302757740,2.743578,55.55477,8.157287,-1.261387,0.431029,0.4040579,0.007076502,8.817108,-25.61205,1008.29
14.337820053,-294.1264,45.74041,-36.88547,-2.647557,0.3706054,1.268268,0.002238035,9.555059,-23.83299,1008.29
14.370378494,-170.4562,44.5508,18.98958,-1.568713,-0.2142173,-0.08644948,0.1049316,4.125576,-19.01448,1008.292
14.402932644,25.93943,-58.35123,53.01645,-1.229811,0.1054189,-0.7842466,0.1049316,4.125576,-19.01448,1008.292
14.437995434,103.8332,-55.6151,-27.82796,-0.7601399,0.1498737,0.5032108,1.567607,4.8767,-16.79409,1008.293
14.470553398,49.44292,-28.13491,25.78271,-0.4259215,0.3847249,0.4765018,2.31433,3.785395,-17.68078,1008.293
14.503111362,-20.14464,-0.5952397,-2.858604,-1.090711,0.3913678,0.1050446,2.31433,3.785395,-17.68078,1008.293
14.538174152,-26.1128,-11.53973,17.94919,-1.202985,-0.003313764,0.1116994,1.244955,1.960984,-17.21809,1008.295
14.570732117,0.590117,-16.9525,14.33843,-0.9100562,0.05273668,0.274203,1.241693,1.955818,-18.11023,1008.295
14.603285789,18.12544,-6.900219,5.464513,-0.8323901,0.3501179,0.1902071,1.241693,1.955818,-18.11023,1008.295
14.635844707,11.78811,2.914136,-5.36778,-0.9571723,0.3947985,0.1605564,1.234381,2.317046,-18.55892,1008.295
14.670907020,-17.06826,9.576001,-4.694587,-0.9491091,0.1022903,0.2735466,1.619526,1.230843,-18.1062,1008.297
14.703464985,4.958567,16.89216,-5.673777,-0.9676059,0.1770719,0.2350684,1.619526,1.230843,-18.1062,1008.295
14.736023426,16.03351,19.09295,-10.20253,-0.9025958,0.2767025,0.2084898,1.623576,0.86445,-18.54966,1008.297
14.771085739,8.588686,28.25302,-21.40202,-0.8957356,0.2657737,0.1735134,1.247374,1.592007,-18.10762,1008.295
14.803640366,7.29661,37.3536,-25.74718,-0.9545922,0.1817682,0.2017745,1.249005,1.594591,-17.66155,1008.295
14.836197853,10.49604,35.45021,-28.50115,-0.984581,0.1819017,0.0872452,1.249005,1.594591,-17.66155,1008.297
14.871260643,13.20325,34.08215,-32.41792,-0.9690236,0.1451079,0.1002034,1.622788,1.236009,-17.21406,1008.295
14.903819084,24.03208,35.92606,-30.39833,-0.7275388,0.2134885,0.3953901,2.340317,2.335318,-16.77819,1008.295
14.936376572,-0.5173771,28.49094,-28.86835,-1.033038,0.06679702,0.03768158,2.340317,2.335318,-16.77819,1008.295
14.971439362,25.2011,29.5616,-32.47911,-1.352571,-0.07125805,-0.4416925,2.691374,3.43198,-16.34114,1008.295
15.003993511,5.143149,21.94804,-15.22088,-1.03941,-0.03297576,-0.05615941,2.302179,4.884576,-16.3504,1008.297
15.036551476,13.81852,20.34205,-10.87573,-0.9756538,-0.01448616,0.01463415,2.302179,4.884576,-16.3504,1008.297
15.069109917,19.35599,17.78437,-3.042203,-0.9584278,0.01245644,0.01744545,2.313541,4.156954,-16.34518,1008.297
15.104172230,18.55614,22.12648,4.240525,-0.9691986,-0.03318046,-0.02384406,2.31657,4.161751,-15.51676,1008.297
15.136730194,142.2263,-27.12374,-0.594227,-2.5047,0.5271117,-3.315278,2.31657,4.161751,-15.51676,1008.297
15.169288635,58.97967,48.53602,26.33351,-1.0498,-0.4485274,-0.508646,2.335245,3.072903,-15.06285,1008.296
15.204347134,-2.178618,29.50212,27.92469,-1.08983,0.1392779,-0.1380737,2.726072,1.622889,-14.60753,1008.296
15.236905098,10.12687,7.791573,22.96754,-1.007667,0.1653216,-0.07249983,2.726072,1.622889,-14.60753,1008.296
15.269463539,21.69403,13.56122,18.01039,-0.959979,0.02586415,-0.1553974,3.553391,-0.1826811,-13.25883,1008.294
15.304525852,36.15298,0.7133409,23.70193,-0.9855843,0.05744353,-0.1196044,3.201545,-0.907783,-12.36028,1008.294
15.337083817,61.56383,4.103754,21.80475,-1.1876,-0.006611748,-0.1856425,3.201545,-0.907783,-12.36028,1008.294
15.369642258,94.17338,-1.546935,21.62115,-0.9003113,0.142997,-0.09227912,3.604899,-3.083573,-11.5811,1008.296
15.404700756,111.278,21.94804,18.01039,-0.988369,0.2333851,-0.02217562,2.85391,-5.630816,-10.66811,1008.296
15.437258720,75.89972,22.067,12.56364,-1.097224,0.08095782,-0.05339865,2.85391,-5.630816,-10.66811,1008.296
15.469817161,50.61194,38.3053,16.4192,-0.8776327,0.08248761,0.1315461,3.352821,-9.677736,-8.4737,1008.295
15.504879475,63.5327,70.12759,13.97123,-0.9213537,0.01757395,0.06679218,3.761534,-11.84504,-6.228862,1008.295
15.537437439,79.09914,71.9715,19.41798,-0.7949882,0.04000333,-0.3322569,3.761534,-11.84504,-6.228862,1008.293
15.569995880,103.4025,65.72601,24.06913,-0.8473494,0.2781644,-0.6964225,3.455748,-15.10685,-3.591466,1008.293
15.602549553,84.26746,57.69608,22.29435,-1.025151,0.2684692,-0.3590019,3.886165,-18.35821,-0.0643034,1008.293
15.637611866,15.84893,37.82945,15.74601,-0.9903675,0.09135538,-0.3216173,3.886165,-18.35821,-0.0643034,1008.291
15.670170307,26.37012,29.91848,20.51956,-0.8072107,0.05081761,-0.4998118,4.31332,-21.61473,2.570715,1008.291
15.702728271,61.62535,18.97399,28.90388,-0.8287267,0.1062945,-0.4704255,4.342569,-23.05964,4.365448,1008.291
15.737790585,75.89972,17.84385,20.02997,-0.7983124,0.1784616,-0.4355175,4.342569,-23.05964,4.365448,1008.289
15.770349503,92.81977,17.54645,13.11444,-0.8140405,0.2820974,-0.399118,4.010796,-24.87138,6.100256,1008.289
15.802903175,60.88702,25.10052,8.585682,-0.7883773,0.264205,-0.3457609,3.683305,-27.04914,7.455326,1008.289
15.837966442,8.465631,30.75122,10.48286,-0.9006721,0.1511547,-0.6011501,3.683305,-27.04914,7.455326,1008.289
15.870523930,2.805106,4.044273,11.09486,-0.9569394,0.0733904,-1.079375,4.449546,-28.85515,8.80422,1008.289
15.903081894,49.87361,-21.47305,12.25765,-0.9286773,0.2263394,-0.5424541,3.735279,-29.94929,9.260504,1008.288
15.938145161,42.30573,-12.96727,-3.531798,-1.026095,0.2679266,-0.3493417,3.735279,-29.94929,9.260504,1008.292
15.970702648,13.44936,-0.5357588,-12.46691,-0.9559469,0.2673635,-0.3450676,3.752323,-31.04073,9.268337,1008.29
16.003421783,18.67919,13.14486,-20.79003,-0.8971524,0.2721663,-0.3774373,3.74804,-30.6747,9.648073,1008.29
16.035980225,26.37012,19.33087,-29.54154,-0.8209783,0.1658704,-0.4037848,3.74804,-30.6747,9.648073,1008.29
16.071043015,30.86163,18.73606,-34.80469,-0.8075948,0.04967242,-0.4630923,3.761033,-31.39974,10.09937,1008.288
16.103600502,30.18482,17.368,-35.78388,-0.8678203,-0.02173438,-0.5366301,3.331065,-31.03385,10.99029,1008.288
16.136158466,29.38497,10.28977,-31.37752,-0.8604831,-0.07824194,-0.5935709,3.331065,-31.03385,10.99029,1008.287
16.171221733,36.15298,5.531297,-26.23677,-0.7067707,-0.08729877,-0.5131336,4.487505,-30.65908,11.42998,1008.287
16.203775406,38.79867,5.352854,-19.19884,-0.6758139,-0.1069089,-0.4941276,4.105622,-29.56771,11.86941,1008.287
16.236333847,33.99952,5.76922,-10.63093,-0.6743337,-0.108352,-0.4931843,4.105622,-29.56771,11.86941,1008.291
16.271396637,19.97127,0.8917838,-4.816986,-0.7903723,-0.1067434,-0.5380018,4.46073,-28.83744,11.863,1008.291
16.303954125,10.06534,-1.784858,0.3849634,-0.8705199,-0.1314578,-0.5697209,4.456679,-28.47105,12.30646,1008.291
16.336512566,8.588686,-3.212401,5.709311,-0.9567155,-0.1316187,-0.5677067,4.456679,-28.47105,12.30646,1008.291
16.371575356,5.696896,-4.045134,9.626072,-0.9401944,-0.1194485,-0.5249998,3.73347,-29.20654,11.86799,1008.291
16.404129028,0.4670622,-2.201225,12.74724,-0.9031059,-0.123394,-0.5130114,4.092628,-28.84267,11.41812,1008.291
16.436687469,2.682051,-1.90382,13.29804,-0.8093113,-0.1417497,-0.4829292,4.092628,-28.84267,11.41812,1008.293
16.471749782,9.757708,-0.0004303157,12.25765,-0.807075,-0.1170992,-0.4467854,4.468042,-29.19867,12.31168,1008.293
16.504307747,14.61838,0.7728219,12.68604,-0.7707012,-0.06076341,-0.4401605,4.120246,-30.29016,12.76678,1008.295
16.536866188,11.91117,3.330502,12.19645,-0.7824304,0.01705114,-0.4848829,4.120246,-30.29016,12.76678,1008.295
16.569424152,-3.778332,6.066625,10.17687,-0.770507,0.07040448,-0.5333848,3.759457,-30.65662,12.77058,1008.295
16.604482651,-11.28468,6.482992,7.484093,-0.8218189,0.07482761,-0.5840224,4.134638,-31.01299,13.60042,1008.295
16.637041092,-9.561913,5.828701,0.629761,-0.8410653,-0.0189578,-0.5361302,4.134638,-31.01299,13.60042,1008.295
16.669598579,-9.438859,4.936487,3.75093,-0.8773574,-0.08305272,-0.5462571,3.35198,-31.74634,13.60822,1008.296
16.704661846,-4.209024,2.021922,3.934528,-0.885411,-0.1068757,-0.567398,4.153313,-32.10184,14.05432,1008.296
16.737219810,3.297325,-1.368492,5.892909,-0.8782653,-0.09555183,-0.5788332,4.51084,-31.74055,13.15838,1008.296
16.769778252,0.4055347,-3.033958,5.831709,-0.8691695,-0.03289638,-0.5440497,4.51084,-31.74055,13.15838,1008.301
16.804836750,-4.639717,-3.569287,4.73012,-0.8474655,-0.009876199,-0.5210007,4.163044,-32.83204,13.61347,1008.299
16.837394714,-3.224585,-2.379668,3.812129,-0.8294919,-0.0005254592,-0.4952565,4.155732,-32.47081,13.16479,1008.299
16.869953155,-3.10153,-1.071087,3.016538,-0.8183376,0.001605977,-0.5044189,4.155732,-32.47081,13.16479,1008.299
16.905015469,-8.392892,0.4159362,1.364154,-0.8253664,-0.01896778,-0.4892579,3.790892,-32.47087,13.61205,1008.299
16.937573433,-12.76134,1.546074,1.853749,-0.8222271,-0.04072966,-0.5040943,3.790892,-32.47087,13.61205,1008.299
16.970131874,-10.91552,3.092578,3.506133,-0.8467031,-0.03320228,-0.5194238,3.790892,-32.47087,13.61205,1008.299
17.002685547,-9.254276,3.984792,5.158516,-0.8606757,-0.005652483,-0.5257573,3.802255,-33.1985,13.61727,1008.295
17.037747860,-11.46926,4.520121,5.586912,-0.8592957,-0.001205311,-0.5377752,3.790892,-32.47087,13.61205,1008.295
17.070306301,-8.823585,4.341678,5.097317,-0.8478903,0.01800962,-0.5621453,3.790892,-32.47087,13.61205,1008.295
17.102864265,-3.655277,3.627907,4.362924,-0.8461168,0.03214616,-0.5662817,3.374706,-33.20158,13.61866,1008.294
17.137926579,-2.363201,3.15206,2.465743,-0.8340396,0.04294436,-0.555011,3.374706,-33.20158,13.61866,1008.294
17.170485020,-0.7019596,3.033098,-0.1658312,-0.8241383,0.03516495,-0.5261366,3.374706,-33.20158,13.61866,1008.294
17.203039169,1.205392,3.449464,-1.022623,-0.815226,0.02216849,-0.528277,4.168725,-33.19585,13.61608,1008.294
17.238101959,3.358853,3.15206,-2.797405,-0.8258919,0.01576033,-0.5389987,4.180088,-33.92347,13.62131,1008.294
17.270659924,2.620523,3.389983,-3.042203,-0.8395394,0.01275279,-0.5578832,4.180088,-33.92347,13.62131,1008.295
17.303217888,5.635369,4.341678,-3.592997,-0.850212,0.01016157,-0.5530786,3.802255,-33.1985,13.61727,1008.294
17.338281155,6.004533,4.698564,-3.164602,-0.8453007,0.008246269,-0.5453786,3.809567,-33.55973,14.06596,1008.294
17.370838642,6.80439,5.947663,-2.675006,-0.8476271,-0.002446911,-0.5518234,3.809567,-33.55973,14.06596,1008.298
17.403393268,7.112028,6.066625,-2.185411,-0.8256546,-0.007026856,-0.5504643,3.376337,-33.199,14.06473,1008.298
17.435951233,9.019379,6.126106,-2.124212,-0.8300533,-0.0108592,-0.5751708,3.383649,-33.56023,14.51342,1008.295
17.471013546,11.542,4.341678,-1.573417,-0.8183674,-0.01165664,-0.5800279,3.383649,-33.56023,14.51342,1008.299
17.503571987,11.78811,3.389983,-2.001813,-0.8286024,-0.01129749,-0.5814627,3.812829,-33.55456,14.9581,1008.299
17.536129951,12.46492,1.546074,-3.287,-0.814942,-0.01164296,-0.5732638,3.812829,-33.55456,14.9581,1008.301
17.571192264,14.6799,-0.1788731,-5.061783,-0.8132307,-0.03158135,-0.5658356,3.812829,-33.55456,14.9581,1008.301
17.603746891,14.92601,-0.9521254,-5.796176,-0.8190072,-0.03701134,-0.5639794,3.381229,-33.19125,15.40295,1008.299
17.636304378,15.1106,-0.7736825,-7.142563,-0.819512,-0.03365588,-0.5552269,3.808779,-33.18816,15.40156,1008.299
17.671367168,16.09504,-0.4762778,-7.632158,-0.8115578,-0.04669362,-0.551083,3.808779,-33.18816,15.40156,1008.299
17.703925610,16.52573,0.2969744,-8.305351,-0.8145146,-0.0423871,-0.5447307,4.18093,-33.54933,15.40298,1008.299
17.736483097,15.66434,0.4754172,-9.345741,-0.8163994,-0.04966158,-0.5535406,4.175249,-33.18552,15.40037,1008.299
17.771546364,11.91117,-0.6547207,-11.30412,-0.8102166,-0.044078,-0.5877811,4.175249,-33.18552,15.40037,1008.298
17.804100037,14.80296,-2.201225,-10.56973,-0.8077756,-0.0844292,-0.5782481,3.797416,-32.46054,15.39634,1008.296
17.836658955,13.81852,-3.450325,-9.712937,-0.802303,-0.09123021,-0.5633726,3.803097,-32.82436,15.39895,1008.294
17.869216442,7.727302,-4.818387,-9.46814,-0.8065161,-0.1025358,-0.5475895,3.803097,-32.82436,15.39895,1008.294
17.904279232,6.004533,-5.710601,-8.611348,-0.8175499,-0.1167776,-0.5468294,3.786054,-31.73292,15.39112,1008.294
17.936837673,1.205392,-5.175272,-7.44856,-0.8202738,-0.1362015,-0.5582408,3.33983,-30.64716,14.9386,1008.294
17.969395161,2.312886,-3.80721,-5.42898,-0.8315479,-0.1300285,-0.5586191,3.33983,-30.64716,14.9386,1008.294
18.004496574,4.897039,-3.450325,-5.122983,-0.8461022,-0.1317449,-0.5436466,4.143581,-31.37163,14.49517,1008.294
18.037055016,6.312171,-2.974477,-5.306581,-0.8387271,-0.1379621,-0.5447153,4.13385,-30.64143,14.93602,1008.294
18.069612503,8.404104,-4.520982,-5.490179,-0.8143198,-0.1439372,-0.5501471,4.13385,-30.64143,14.93602,1008.296
18.104675293,0.3440073,-4.40202,-6.102173,-0.8169754,-0.1639614,-0.5364321,4.50032,-30.63878,14.93483,1008.296
18.137233734,1.636084,-4.223577,-4.694587,-0.808849,-0.1455031,-0.5110227,4.498689,-30.64137,14.48876,1008.296
18.169791698,-0.6404321,-2.914996,-3.164602,-0.8167239,-0.1387932,-0.5128463,4.498689,-30.64137,14.48876,1008.296
18.204850674,-2.301673,-4.104615,-1.818215,-0.7968028,-0.1403556,-0.5394751,3.760067,-30.28285,14.48853,1008.294
18.237408638,4.035655,-5.413196,-1.206221,-0.8200923,-0.1503259,-0.5512058,4.863529,-30.6413,14.0415,1008.294
18.269967079,-2.117091,-7.851914,-1.26742,-0.8197334,-0.1386709,-0.548128,4.863529,-30.6413,14.0415,1008.294
18.305029392,2.620523,-10.76648,-1.389819,-0.8347692,-0.1052633,-0.5630719,3.748704,-29.55523,14.48331,1008.294
18.337587357,7.235083,-13.08624,-2.675006,-0.8611067,-0.1406683,-0.5481186,4.111913,-29.55774,13.58997,1008.299
18.370145798,3.543435,-13.74053,-1.022623,-0.8491496,-0.1609857,-0.5349055,4.111913,-29.55774,13.58997,1008.299
18.402699470,9.45007,-12.13454,2.465743,-0.864502,-0.1331272,-0.5064299,4.110282,-29.56033,13.1439,1008.299
18.437761783,11.17284,-13.2052,5.158516,-0.8417856,-0.1538655,-0.4767988,4.097521,-28.83492,12.75633,1008.299
18.470320225,-0.763487,-11.83714,9.136477,-0.8384469,-0.1883577,-0.470561,4.097521,-28.83492,12.75633,1008.299
18.502878189,-14.54564,-11.36129,11.21726,-0.8530278,-0.2327745,-0.4707412,4.097521,-28.83492,12.75633,1008.297
18.537940502,-22.91337,-7.792433,16.7864,-0.8775998,-0.2487969,-0.4380923,4.09589,-28.8375,12.31026,1008.297
18.570499420,-15.89924,-3.926172,20.82556,-0.8760608,-0.2114026,-0.4273724,4.09589,-28.8375,12.31026,1008.295
18.603053093,-12.26912,-0.297835,25.90511,-0.874207,-0.1209502,-0.4337282,4.459099,-28.84002,11.41693,1008.293
18.638116360,-16.6991,3.033098,23.64073,-0.8847921,-0.05342158,-0.4578234,3.739151,-29.57035,11.8706,1008.293
18.670673847,-23.59017,4.282197,22.17195,-0.8617178,-0.0321194,-0.4802393,4.120246,-30.29016,12.76678,1008.293
18.703232288,-22.79032,5.055449,17.70439,-0.8640352,-0.04378001,-0.4876656,4.120246,-30.29016,12.76678,1008.296
18.738295078,-25.86669,3.271021,13.91003,-0.863132,-0.07782686,-0.4794852,4.135659,-31.38418,12.32854,1008.296
18.770852566,-22.35962,-1.130568,8.524483,-0.8727335,-0.09152195,-0.4879022,3.780551,-32.11444,12.33495,1008.294
18.803407192,-16.08382,-6.840739,4.668921,-0.9125706,-0.1017235,-0.4962368,3.780551,-32.11444,12.33495,1008.294
18.835965157,-9.931079,-12.72935,7.484093,-0.8981151,-0.01242527,-0.5330752,3.794942,-32.83727,13.16859,1008.292
18.871027470,19.04836,-10.58804,8.402084,-0.8973489,0.1333375,-0.521668,3.793544,-32.83949,12.78624,1008.291
18.903585911,21.26334,-12.49143,-5.000584,-0.9078403,0.08766563,-0.448398,3.793544,-32.83949,12.78624,1008.291
18.936143875,-4.824299,-14.87066,-5.42898,-0.8837155,-0.02131055,-0.4621683,4.165696,-33.20065,12.78766,1008.291
18.971206188,-0.2712673,-17.48783,-8.244152,-0.8523739,-0.07967255,-0.4703395,3.786232,-32.47826,12.33756,1008.291
19.003760815,16.34115,-16.41717,-7.938155,-0.8802322,-0.108804,-0.4499719,3.786232,-32.47826,12.33756,1008.291
19.036318302,28.58511,-16.06028,-9.835337,-0.924602,-0.05653883,-0.4210958,4.151072,-32.47819,11.8903,1008.291
19.071381569,28.09289,-16.23873,-13.99689,-0.9118843,-0.01658217,-0.4074474,3.77892,-32.11703,11.88888,1008.289
19.103939533,24.77041,-14.21637,-17.91366,-0.9271799,-0.00357156,-0.4265692,3.77892,-32.11703,11.88888,1008.289
19.136497974,23.4168,-7.911395,-15.03728,-0.974972,0.007351506,-0.4007374,4.14376,-32.11697,11.44162,1008.289
19.171560288,18.06392,2.616731,-16.26127,-0.9849803,0.07424676,-0.3910064,4.125085,-31.02812,10.98771,1008.289
19.204114437,3.235798,14.03707,-27.15477,-1.114485,-0.03860903,-0.3133294,4.125085,-31.02812,10.98771,1008.289
19.236672878,5.204677,-0.1193922,-40.00664,-0.7337966,-0.1303165,-0.2174538,3.327015,-30.66746,11.43375,1008.289
19.269230366,6.681335,-7.911395,-59.34565,-1.171316,-0.3127548,-0.3619277,3.757826,-30.6592,12.3245,1008.287
19.304293156,-0.3327948,-23.43592,-62.71162,-1.140443,-0.463735,-0.2052299,3.757826,-30.6592,12.3245,1008.29
19.336851597,-23.77476,-24.86346,-46.24898,-1.234632,-0.5434201,-0.26581,4.821519,-28.47098,11.8592,1008.29
19.369409084,-1.686399,-29.38401,-42.39341,-1.051832,-0.5666031,-0.3079106,5.524423,-26.64922,11.3977,1008.288
19.404467583,14.37227,-20.75928,-32.78511,-1.11154,-0.5012504,-0.3150733,5.524423,-26.64922,11.3977,1008.29
19.437026024,-5.008882,-12.78883,-32.29551,-1.090618,-0.4999946,-0.3174912,5.860857,-24.8301,10.93738,1008.288
19.469583988,-20.20616,-10.707,-36.82427,-1.009741,-0.5128143,-0.3656192,5.110871,-23.74396,10.93192,1008.286
19.504647255,-36.8801,-2.439149,-48.75815,-0.9708095,-0.5132145,-0.3796808,5.110871,-23.74396,10.93192,1008.286
19.537204742,-56.99958,3.865831,-64.1192,-0.9546138,-0.5341629,-0.4288371,4.723307,-22.28878,11.36874,1008.286
19.569763660,-62.53706,11.24147,-82.47902,-0.8881483,-0.5499104,-0.409323,5.038646,-19.01184,11.34405,1008.285
19.604821682,-69.92036,21.1153,-93.86211,-0.8759158,-0.5588961,-0.428807,5.038646,-19.01184,11.34405,1008.283
19.637379646,-75.58088,29.38315,-103.4704,-0.8278974,-0.536995,-0.4048337,4.616994,-15.37379,11.7652,1008.281
19.669938087,-80.50307,33.72527,-108.9172,-0.768697,-0.5054035,-0.3425367,5.289073,-11.364,12.18017,1008.281
19.702496052,-99.1459,37.17516,-113.4459,-0.7020862,-0.4478078,-0.3127196,5.289073,-11.364,12.18017,1008.279
19.737558365,-120.8036,41.21986,-119.5047,-0.6264312,-0.4134367,-0.279882,5.197226,-5.482393,12.13796,1008.278
19.770116806,-128.7406,40.86298,-123.4826,-0.5657143,-0.4403726,-0.2745511,5.480109,-0.02000189,12.54367,1008.28
19.802670956,-123.2031,38.54322,-123.299,-0.5416802,-0.4456108,-0.2297001,5.480109,-0.02000189,12.54367,1008.277
19.837733746,-104.4988,26.1117,-119.4435,-0.5261491,-0.4400824,-0.2252804,5.427956,3.625485,13.79205,1008.277
19.870291710,-73.55048,14.39396,-112.7115,-0.49945,-0.3925518,-0.2337652,4.279044,6.894425,14.21819,1008.275
19.902850151,-50.41615,-1.309011,-103.8988,-0.4739005,-0.3342495,-0.2628697,4.279044,6.894425,14.21819,1008.273
19.937912464,-38.78746,-14.63274,-88.90495,-0.4516816,-0.2447992,-0.3108309,3.500653,9.799616,14.19968,1008.27
19.970470428,-38.35677,-26.35049,-79.96984,-0.4305528,-0.244929,-0.4345978,2.662814,12.70695,14.62744,1008.27
20.003025055,-43.5866,-30.27623,-66.68958,-0.3931214,-0.2196482,-0.5420412,2.662814,12.70695,14.62744,1008.27
20.038087368,-38.35677,-28.90817,-47.96256,-0.4322808,-0.1889244,-0.6763968,2.263887,14.88975,15.05903,1008.266
20.070645332,-38.04913,-29.4435,-30.64313,-0.4290104,-0.1492073,-0.7434668,2.245212,15.9786,14.60513,1008.265
20.103203774,-37.86454,-25.39879,-13.3849,-0.4745538,-0.1041997,-0.8311941,2.245212,15.9786,14.60513,1008.265
20.138266087,-52.07739,-25.93412,-1.083822,-0.4693644,-0.1004955,-0.8823806,2.228168,17.07003,14.59729,1008.263
20.170824051,-65.49038,-20.28343,11.21726,-0.5083622,-0.05579883,-0.8835946,2.245822,16.35237,16.32308,1008.263
20.203378677,-82.3489,-18.08264,38.14499,-0.6234233,0.1276983,-1.0576,2.245822,16.35237,16.32308,1008.263
20.235936165,-86.34818,-16.59561,72.90625,-0.8292,0.5236048,-1.06973,1.544549,14.53319,17.23066,1008.261
20.270999432,-104.991,-32.29858,62.07396,-0.8522263,0.4162401,-1.038959,2.687834,12.37377,19.91919,1008.261
20.303557396,-30.72736,-49.01272,49.46688,-0.7361527,-0.2618717,-1.213281,2.687834,12.37377,19.91919,1008.259
20.336115837,40.58296,-43.18359,61.89036,-0.5894668,-0.4843833,-1.23857,2.76291,8.391775,23.38904,1008.259
20.371178150,131.459,-44.67061,62.07396,-0.5999739,-0.3509425,-1.115679,2.468898,3.657375,23.04182,1008.259
20.403731823,165.7298,-57.63746,50.20127,-0.5994663,-0.07777438,-0.8016678,2.468898,3.657375,23.04182,1008.259
20.436290264,132.9357,-66.2622,18.49998,-0.5764183,-0.01837525,-0.6528705,3.249081,4.014005,20.80628,1008.258
20.471353054,85.80564,-61.74165,-12.46691,-0.5856769,-0.1533355,-0.50024,4.305641,5.818121,16.83873,1008.262
20.503910541,57.07232,-47.76362,-32.11192,-0.6988868,-0.2393405,-0.4023506,4.305641,5.818121,16.83873,1008.262
20.536468983,40.09074,-34.91574,-49.00295,-0.757701,-0.3652219,-0.3568434,4.632521,7.622109,13.76571,1008.262
20.571531773,35.16854,-13.56208,-53.71531,-0.7681129,-0.3854113,-0.3291056,4.575887,10.51488,10.68604,1008.26
20.604085922,11.41895,-3.033958,-56.65287,-0.7888045,-0.4251355,-0.4162161,4.529827,13.0516,8.947201,1008.26
20.636643886,-7.162343,5.352854,-52.73611,-0.7086522,-0.5078068,-0.4958617,4.529827,13.0516,8.947201,1008.258
20.704265118,-49.49323,26.76599,-28.56235,-0.6652638,-0.5752908,-0.6003758,3.73355,16.67408,7.139177,1008.258
20.736822605,-62.90622,23.91091,-24.89039,-0.638862,-0.5499911,-0.6372353,3.73355,16.67408,7.139177,1008.258
20.769381046,-83.64098,20.8179,-26.48157,-0.5995777,-0.5453829,-0.6826403,3.363639,17.4116,9.301781,1008.258
20.804439545,-89.48608,22.60233,-32.78511,-0.5616156,-0.5016266,-0.6839429,3.016685,16.69425,11.53855,1008.257
20.836997509,-90.47053,17.84385,-41.59782,-0.534118,-0.4803419,-0.6899287,3.016685,16.69425,11.53855,1008.258
20.869555950,-72.9352,16.1189,-45.33099,-0.5000181,-0.4808737,-0.6890029,3.045702,15.24896,13.26956,1008.258
20.904618263,-28.69695,17.72489,-56.95887,-0.4446504,-0.5606301,-0.7328103,2.263887,14.88975,15.05903,1008.262
20.937176704,15.17212,14.63188,-45.57578,-0.3732844,-0.6262546,-0.7391976,2.263887,14.88975,15.05903,1008.262
20.969734669,51.10416,19.27139,-26.84877,-0.3525516,-0.5714414,-0.7630335,2.626307,15.25879,15.5013,1008.261
21.004793167,63.71729,16.71371,-19.93324,-0.3199333,-0.5330098,-0.7842306,1.489546,17.42855,14.59706,1008.259
21.037351608,46.92029,18.85503,-17.24046,-0.2844196,-0.5771376,-0.8110405,1.489546,17.42855,14.59706,1008.257
21.069909573,15.17212,23.6135,-19.99444,-0.2488415,-0.5843409,-0.8348702,1.081066,19.59622,12.41595,1008.257
21.102468014,-12.26912,28.19353,-30.76553,-0.2262616,-0.6086345,-0.8782831,1.42155,21.04894,11.51217,1008.257
21.137530327,-29.55834,34.8554,-42.02622,-0.1994334,-0.6107478,-0.8710907,1.42155,21.04894,11.51217,1008.257
21.170088291,-31.46569,42.94481,-47.96256,-0.1668314,-0.6017189,-0.8395649,1.043716,21.77392,11.50814,1008.257
21.202642918,-15.77619,58.05297,-51.02253,-0.1643948,-0.5556117,-0.8185619,-0.05243349,21.77114,12.40385,1008.257
21.237705231,11.11131,65.54756,-49.55375,-0.2665462,-0.474495,-0.7804891,-0.05243349,21.77114,12.40385,1008.257
21.270263672,30.36941,64.00105,-38.96625,-0.2881618,-0.448744,-0.7341546,-0.7870059,21.76327,11.96015,1008.256
21.302821636,30.43093,65.4286,-34.25389,-0.2641479,-0.4069153,-0.6726342,-1.16647,22.48566,11.51005,1008.256
21.337883949,32.95356,66.20185,-31.98952,-0.2898856,-0.3570208,-0.603692,-1.16647,22.48566,11.51005,1008.256
21.370442391,19.23294,57.51764,-25.86958,-0.3631877,-0.3641006,-0.5399235,-1.912405,23.20541,11.06113,1008.254
21.402996063,-7.9622,43.71806,-13.3849,-0.4367354,-0.2547935,-0.4207244,-2.658339,23.92515,10.61221,1008.254
21.438058853,-38.17218,8.624306,-3.3482,-0.4357377,-0.2505438,-0.3906911,-2.658339,23.92515,10.61221,1008.254
21.470617294,-119.7576,-1.90382,-40.92463,-2.02184,0.1996681,-0.5896603,-3.030491,24.28632,10.61079,1008.254
21.503174782,-305.9397,-22.48423,-15.77168,0.003043393,-0.8352255,-1.794094,-3.731154,22.84091,13.23632,1008.252
21.538238048,-22.66726,-5.948524,-1.389819,0.06357408,-0.8856019,-1.977154,-3.731154,22.84091,13.23632,1008.252
21.570796013,3.974127,17.90333,4.913718,-0.3288837,-0.215045,-0.9398522,-3.971309,17.07338,22.96542,1008.252
21.603350639,-15.16091,21.53167,-6.958964,-0.3017687,-0.1748769,-0.6129861,-3.5586,13.79398,21.64952,1008.252
21.635908127,-32.26554,10.76562,-2.675006,-0.1408479,-0.2374078,-0.827748,-3.5586,13.79398,21.64952,1008.252
21.670970917,-17.74506,7.375206,-0.9614233,-0.02386955,-0.3178933,-1.173736,-5.036455,14.13724,19.9311,1008.252
21.703529358,-0.7019596,12.55005,-4.510989,0.001711936,-0.3113801,-1.03735,-5.039106,14.50585,20.7569,1008.252
21.736086845,0.5285896,9.873405,-6.40817,-0.1072152,-0.3035612,-0.9322323,-5.039106,14.50585,20.7569,1008.252
21.771149635,4.15871,9.873405,-1.879414,0.1028823,-0.2732289,-0.9082869,-5.037476,14.50843,21.20298,1008.252
21.803703785,25.32416,12.01472,0.6909603,0.242915,-0.2577047,-0.9280037,-4.674268,14.50591,20.30964,1008.252
21.836261749,30.92315,10.58718,0.7521598,0.09779792,-0.3009056,-0.9285227,-4.674268,14.50591,20.30964,1008.256
21.871325016,36.46062,1.129707,-1.083822,-0.15678,-0.2697338,-0.9249011,-5.797014,15.57944,18.58481,1008.258
21.903882503,20.77112,0.9512647,0.2625646,-0.1239703,-0.4169185,-0.9547307,-6.211409,18.11055,16.33736,1008.256
21.936440945,12.28033,-5.115791,4.424123,-0.1651724,-0.4444362,-1.006349,-6.211409,18.11055,16.33736,1008.256
21.971503735,5.389259,-8.744128,5.158516,-0.07536112,-0.4113717,-0.9662941,-5.900729,21.38012,15.03819,1008.258
22.004057407,-4.639717,-4.045134,3.322535,-0.05899263,-0.3789471,-0.8894417,-5.919404,22.46897,14.58428,1008.258
22.036615849,-18.0527,1.783998,1.180556,-0.03598869,-0.3446748,-0.8787901,-5.919404,22.46897,14.58428,1008.256
22.069173813,-16.63757,3.568426,-0.6554264,-0.01188649,-0.3282147,-0.9022477,-6.282612,22.47149,15.47761,1008.256
22.104236126,-9.561913,1.724517,-0.8390245,-0.002303471,-0.3225712,-0.9398744,-5.917772,22.47155,15.03035,1008.256
22.136794567,4.035655,0.3564553,-1.818215,0.009997328,-0.332157,-0.9342318,-5.917772,22.47155,15.03035,1008.256
22.169352531,7.419665,-1.606416,-0.4106288,0.001492076,-0.3194841,-0.9664165,-6.639351,21.73863,15.03795,1008.255
22.204411507,16.89489,-10.29063,11.76805,-0.1135367,-0.3198306,-1.005948,-6.289925,22.83271,15.02893,1008.253
22.236969471,26.49318,-4.877868,1.608951,-0.2173477,-0.3817826,-0.9333194,-6.289925,22.83271,15.02893,1008.255
22.269527912,21.50945,-11.89662,5.464513,-0.07981326,-0.3975089,-0.9283749,-6.646664,22.09986,14.58927,1008.255
22.304590225,24.95499,-7.257105,6.015307,-0.1676406,-0.4320409,-0.9607198,-6.311861,23.9164,13.68288,1008.255
22.337148190,20.15585,-10.94492,3.322535,0.1148055,-0.4188794,-0.9081036,-6.311861,23.9164,13.68288,1008.255
22.369706631,12.58797,-2.617592,1.364154,-0.03348525,-0.4350239,-0.8825879,-6.327884,24.63664,12.40317,1008.255
22.404765129,-0.1482124,-3.80721,1.486552,-0.1127267,-0.4025841,-0.8689653,-5.980088,25.72813,11.94807,1008.259
22.437323093,-4.085969,-2.379668,1.914948,-0.1251265,-0.4308111,-0.8959697,-5.980088,25.72813,11.94807,1008.259
22.469881534,-8.023727,2.200364,2.832939,-0.04810193,-0.436626,-0.8927491,-6.372545,27.17556,11.04667,1008.259
22.505005836,-10.66941,0.2374934,-1.757015,-0.08093036,-0.4152778,-0.8720899,-6.366864,26.81175,11.04929,1008.257
22.537563801,-18.36034,6.185587,0.629761,-0.0491641,-0.3481246,-0.9058991,-5.989032,26.08678,11.05332,1008.255
22.570122242,-19.40631,7.137282,-3.042203,-0.07417651,-0.4839814,-1.026858,-5.989032,26.08678,11.05332,1008.255
22.602675915,-9.377332,6.066625,-4.878185,-0.04435156,-0.444871,-0.9919707,-6.352241,26.0893,11.94665,1008.255
22.637738705,0.5285896,-2.914996,-4.143792,-0.06659259,-0.3675075,-0.7558478,-5.968726,25.00051,11.95329,1008.255
22.670297146,5.819951,-17.19042,0.5073622,-0.02460627,-0.4099658,-0.9165338,-5.968726,25.00051,11.95329,1008.253
22.702854633,36.64521,-26.82633,11.89045,-0.0236778,-0.3372125,-0.987448,-6.332168,25.00266,12.7829,1008.253
22.737917423,86.1748,-27.00478,5.648111,-0.2732043,-0.5201686,-1.332713,-6.6686,23.18355,13.24322,1008.252
22.770475864,156.9314,-23.198,-2.797405,-0.2243291,-0.4395408,-1.076307,-6.6686,23.18355,13.24322,1008.252
22.803029537,156.7468,-8.625166,-17.42406,-0.09311416,-0.4990146,-0.8757725,-5.911304,21.73618,13.69736,1008.252
22.838092804,125.86,3.687388,-21.34082,0.1343676,-0.4604668,-0.4737179,-4.81268,22.11568,15.0294,1008.252
22.870650291,75.71513,4.222716,-8.611348,0.04558044,-0.6085419,-0.4430217,-4.81268,22.11568,15.0294,1008.252
22.903208733,17.75628,1.427112,-2.246611,-0.04797827,-0.6960919,-0.4824538,-5.256878,26.46363,12.38655,1008.252
22.938271523,-11.83843,6.661435,-8.733747,-0.1050722,-0.7840702,-0.7491148,-5.285284,28.28269,12.37349,1008.252
22.970829010,14.06463,12.90693,-19.50484,-0.09460283,-0.7763517,-0.8128129,-5.285284,28.28269,12.37349,1008.252
23.003383636,29.81566,15.34565,-22.93201,-0.06169774,-0.7199506,-0.8303525,-5.285284,28.28269,12.37349,1008.252
23.035941601,70.30072,14.69136,-21.03483,-0.05214359,-0.6962367,-0.9933813,-4.93912,29.3716,11.47232,1008.25
23.071003914,185.8493,14.27499,-10.69213,0.008748992,-0.7582131,-1.083327,-4.93912,29.3716,11.47232,1008.25
23.103562355,294.4453,21.05582,4.913718,-0.03906699,-0.8659275,-0.8345349,-5.319427,29.71985,9.240541,1008.248
23.136120319,310.0117,44.90768,4.240525,-0.05418297,-0.95956,-0.489851,-5.400847,32.94618,0.932848,1008.248
23.171183586,121.7377,56.14958,22.78394,-0.02052686,-0.6361982,-0.3230189,-5.400847,32.94618,0.932848,1008.248
23.203737259,-157.4124,32.29772,21.80475,-0.1517412,-0.380044,-0.3832734,-5.458755,34.3457,-8.700006,1008.253
23.236295700,-296.1568,31.34603,14.64442,-0.0853733,-0.4726071,-0.5708497,-6.164312,32.89254,-7.412693,1008.253
23.271358013,-361.1913,10.58718,29.45468,-0.01992135,-0.507795,-0.660391,-6.164312,32.89254,-7.412693,1008.253
23.303915978,-384.2026,-14.27586,40.47057,-0.02163723,-0.5871401,-0.7442573,-5.736672,31.50083,3.111116,1008.253
23.336474419,-322.4905,-26.76685,45.24412,0.01856428,-0.6593539,-0.780201,-6.370483,28.29725,16.26425,1008.253
23.371536732,-173.6556,-14.4543,27.80229,0.02598914,-1.00861,-0.8005213,-6.370483,28.29725,16.26425,1008.251
23.404090881,68.51643,-7.257105,-9.835337,-0.06056945,-1.296892,-0.9247133,-6.254742,22.88843,24.65134,1008.245
23.436649322,190.1562,-21.77045,-18.03605,-0.1257004,-1.193437,-0.7770923,-6.20361,19.61414,24.67484,1008.243
23.469206810,138.6577,-2.677073,5.158516,-0.09857767,-0.4925948,-0.4889679,-6.20361,19.61414,24.67484,1008.243
23.504270077,14.55685,-18.26108,3.567332,-0.1548668,-0.4467156,-0.5853723,-6.240781,21.0465,20.71347,1008.245
23.536828041,20.03279,-4.99683,-10.56973,0.2285369,-0.6164275,-0.7473625,-6.299834,24.30825,18.52333,1008.249
23.569386482,-20.63685,-11.06388,6.627302,-0.1032192,-0.780598,-0.9714169,-6.299834,24.30825,18.52333,1008.249
23.604444981,-30.05056,-11.30181,2.588142,-0.1816548,-0.6190588,-0.8098457,-5.215836,25.41021,18.95801,1008.248
23.637002945,-22.9749,-4.40202,-5.551378,-0.2101614,-0.5680546,-0.6727278,-5.576626,25.04375,18.96181,1008.249
23.669561386,1.882194,7.01832,-9.712937,-0.1903071,-0.531026,-0.7422717,-5.576626,25.04375,18.96181,1008.249
23.704623699,-7.408452,12.60953,-13.2013,-0.1033665,-0.5413734,-0.8884933,-5.562,24.32129,19.85917,1008.251
23.737181663,10.61909,13.08538,-8.42775,-0.07769071,-0.5436491,-0.9552588,-5.202842,24.68517,19.4093,1008.251
23.769740105,38.67561,8.683787,-0.1046318,-0.06184606,-0.5467789,-0.8634802,-5.202842,24.68517,19.4093,1008.248
23.804798603,45.56669,0.65386,6.566102,-0.1068648,-0.5825214,-0.7218693,-5.570945,24.67994,18.96442,1008.25
23.837357044,48.58153,-9.338938,3.261335,0.01169107,-0.6825345,-0.513724,-5.589619,25.76879,18.51051,1008.25
23.869914532,-10.30024,-7.851914,6.443703,-0.07895324,-0.7068878,-0.6541873,-5.589619,25.76879,18.51051,1008.252
23.904977322,9.573126,-17.78523,8.708081,-0.1400481,-0.7728462,-0.8586363,-5.241035,26.48873,16.71982,1008.256
23.937535763,-9.069695,-14.81118,9.932069,-0.1666542,-0.6438408,-0.7681845,-4.880245,26.85518,16.71602,1008.253
23.970093250,-17.80659,-12.72935,6.321304,-0.2043786,-0.6391542,-0.8376828,-4.880245,26.85518,16.71602,1008.258
24.002647877,-19.77547,-13.26468,0.4461628,-0.3571541,-0.8723018,-1.090998,-5.243453,26.8577,17.60935,1008.258
24.037710190,-0.3327948,-14.09741,-9.039744,-0.2189018,-0.6309946,-0.9627389,-4.865621,26.13272,17.61338,1008.253
24.070269108,14.12616,-21.88942,-9.651738,-0.1142196,-0.5872802,-0.7649553,-4.865621,26.13272,17.61338,1008.253
24.102826595,21.87862,-21.77045,-5.36778,-0.1425292,-0.6454402,-0.6686566,-4.504831,26.49918,17.60958,1008.252
24.137889385,11.91117,-6.245929,-5.122983,-0.09482297,-0.5782615,-0.556501,-4.521087,27.21905,16.26614,1008.253
24.170447826,19.29446,4.46064,-7.876956,-0.1347906,-0.6371573,-0.6511361,-4.521087,27.21905,16.26614,1008.253
24.203001499,23.17069,9.040672,-16.32247,-0.1702232,-0.7433046,-0.7092764,-4.526768,27.58286,16.26353,1008.253
24.238063812,14.98754,7.732092,-15.89408,-0.16789,-0.7421361,-0.7455141,-4.529797,27.57807,15.43511,1008.253
24.270622253,13.20325,5.352854,-14.60889,-0.1498107,-0.7106802,-0.7706706,-4.529797,27.57807,15.43511,1008.255
24.303180218,24.77041,0.5943791,-12.77291,-0.136518,-0.7521521,-0.9100453,-4.544421,28.30052,14.53775,1008.257
24.338243485,76.26888,0.5348981,-13.5685,-0.2241747,-0.7993616,-0.9329163,-4.912523,28.29529,14.09286,1008.257
24.370800972,126.2907,-7.138143,-28.19516,-0.2652447,-0.7610661,-0.8157985,-4.912523,28.29529,14.09286,1008.257
24.403355598,140.442,-2.141744,-62.22202,0.1227708,-0.7914208,-0.6179683,-4.933439,29.00778,11.47494,1008.259
24.435913563,69.87003,22.24544,-76.17548,0.1563281,-0.8160583,-0.5550542,-5.347653,30.79357,6.173929,1008.261
24.470975876,14.61838,62.87092,-86.64058,0.4049155,-0.5311438,-0.5079269,-6.100723,31.12921,2.222773,1008.261
24.503534317,-27.65099,98.5,-90.12894,0.1090112,-0.4445062,-0.2104929,-6.100723,31.12921,2.222773,1008.261
24.536092281,-74.7195,72.86372,-43.3726,-0.2473627,-0.5793764,-0.004354503,-6.835062,31.1217,1.842802,1008.261
24.571155548,-178.3317,-12.07506,51.79246,-0.5384227,-0.929693,-0.006034494,-7.561712,31.12637,3.565743,1008.261
24.636267662,13.63394,-14.15689,14.27723,0.252616,-1.432199,-1.158134,-7.538322,30.7906,8.411421,1008.263
24.671329975,29.75413,-7.376067,12.80844,-0.007346561,-0.877,-0.6612021,-7.129055,28.25137,9.256929,1008.261
24.703887939,16.95642,-3.390844,7.361694,0.04036859,-0.5500109,-0.5035124,-7.129055,28.25137,9.256929,1008.261
24.736446381,-7.531507,-13.62156,22.23315,0.004658833,-0.5686704,-0.4573585,-7.509916,28.97155,8.424477,1008.263
24.771508694,-20.39075,-11.71817,13.60403,-0.01479401,-0.8226693,-0.6598827,-6.784287,29.33807,7.973415,1008.263
24.804062843,-5.193464,1.189188,-2.736206,0.04015552,-0.9310942,-0.8124035,-6.784287,29.33807,7.973415,1008.261
24.836621284,27.72373,7.851054,-7.632158,0.03862295,-0.8715862,-0.7573559,-6.768265,28.61783,9.25313,1008.261
24.869178772,40.82907,9.754444,-6.163373,0.02483606,-0.7579253,-0.6758514,-7.145077,28.97161,7.977215,1008.261
24.904242039,33.32272,7.910535,-0.6554264,0.04537725,-0.7511636,-0.6080953,-7.145077,28.97161,7.977215,1008.261
24.936800003,25.44721,4.282197,2.465743,0.06197666,-0.7510267,-0.5907077,-7.530223,30.05782,7.524498,1008.261
24.969358444,39.53699,17.60593,0.1401658,0.2271952,-0.6590493,-1.101843,-7.19137,31.50796,6.17465,1008.263
25.004416943,22.98611,7.61313,22.41675,0.09017532,-1.224573,-0.474215,-7.19137,31.50796,6.17465,1008.261
25.036974907,92.69672,-1.011606,-2.491408,-0.07801292,-1.016944,-0.5501588,-7.594169,33.31182,3.996148,1008.261
25.069533348,44.09003,8.326901,-18.83165,0.1046634,-0.9980487,-0.4417704,-6.524616,34.39089,0.4798975,1008.261
25.104595661,54.119,1.962441,-2.919804,0.0789912,-0.8390498,-0.4243352,-6.524616,34.39089,0.4798975,1008.26
25.137154102,22.86306,-0.05991125,1.119356,0.03116175,-0.7301933,-0.3457714,-6.528487,34.01196,-2.130198,1008.26
25.169712067,-8.700529,-2.260706,-4.266191,0.05910705,-0.7943296,-0.3762628,-6.530118,34.00937,-2.57627,1008.26
25.204770565,-28.02015,-2.855515,-2.675006,0.07010143,-0.829424,-0.4290136,-6.530118,34.00937,-2.57627,1008.258
25.237329006,-30.78889,-1.130568,-4.755786,0.05171225,-0.9424838,-0.5211121,-6.156336,33.65079,-2.128777,1008.258
25.269886494,-12.82287,0.8917838,-5.490179,0.06452054,-0.9625642,-0.5572008,-6.141945,32.92797,-1.295135,1008.258
25.302444935,2.435941,1.010746,-3.3482,0.0703164,-0.9072859,-0.512859,-6.141945,32.92797,-1.295135,1008.258
25.337507725,3.051215,0.1185316,-0.4106288,0.07590999,-0.8321379,-0.4566131,-6.144363,33.29694,-0.4056015,1008.264
25.370066166,-7.162343,-0.7142016,2.037347,0.06871821,-0.8424263,-0.45918,-6.515493,33.28692,-1.678904,1008.262
25.402619839,-4.885827,-0.297835,1.853749,0.05833885,-0.8793215,-0.4979196,-6.515493,33.28692,-1.678904,1008.262
25.437682152,4.958567,0.7728219,0.01776703,0.06001165,-0.9006165,-0.5127473,-6.514096,33.28913,-1.296556,1008.262
25.470241070,8.219522,1.30815,-1.022623,0.05860585,-0.9026385,-0.4997258,-6.140313,32.93055,-0.8490629,1008.26
25.502798557,2.189831,1.010746,-1.512218,0.06260554,-0.8643088,-0.4740092,-6.140313,32.93055,-0.8490629,1008.256
25.537861347,-9.315804,0.3564553,-1.26742,0.06737134,-0.8521657,-0.4588439,-6.140313,32.93055,-0.8490629,1008.256
25.570419788,-14.17647,-0.4167969,-0.7778252,0.06931082,-0.8549789,-0.4758069,-5.773843,32.9332,-0.8502512,1008.256
25.602973461,-14.9148,-0.357316,-1.145021,0.07448751,-0.8897206,-0.5159788,-5.773843,32.9332,-0.8502512,1008.256
25.638036728,-5.685683,-0.297835,-1.451019,0.07189108,-0.8794692,-0.5332214,-6.506783,32.9279,-0.8478737,1008.26
25.670594215,1.020809,0.2374934,-1.206221,0.07328381,-0.8726672,-0.5287687,-7.229152,32.56654,0.4953308,1008.26
25.703152656,7.78883,-0.4167969,-0.2270306,0.06989034,-0.8703612,-0.5113286,-7.229152,32.56654,0.4953308,1008.26
25.738215446,6.927445,-0.4167969,0.01776703,0.0634677,-0.8593359,-0.4961696,-6.499472,32.56667,-0.3991899,1008.26
25.770772934,5.081622,-0.2383541,0.2625646,0.06884873,-0.863116,-0.5044498,-6.499472,32.56667,-0.3991899,1008.26
25.803327560,5.143149,0.1780125,0.07896642,0.07137321,-0.8699067,-0.5002054,-6.499472,32.56667,-0.3991899,1008.26
25.835885525,6.250643,0.2374934,0.01776703,0.06761809,-0.8797263,-0.489234,-6.501102,32.56409,-0.8452625,1008.26
25.870948315,7.54272,0.1185316,-0.4106288,0.07104024,-0.8778041,-0.4747066,-6.492159,32.20544,0.04949284,1008.26
25.903506279,7.973412,0.1780125,0.323764,0.06767629,-0.8807838,-0.4703985,-6.492159,32.20544,0.04949284,1008.259
25.936064720,6.865918,0.2374934,0.6909603,0.07359576,-0.8879809,-0.4738976,-5.768162,32.56939,-0.84764,1008.259
25.971127510,4.343292,0.05905062,0.6909603,0.06385326,-0.8881012,-0.4753402,-6.130582,32.20034,-1.289912,1008.259
26.003681183,1.574556,-0.0004303157,0.07896642,0.06667833,-0.8807526,-0.4800646,-6.130582,32.20034,-1.289912,1008.26
26.036239624,-0.02515749,0.2374934,0.01776703,0.06570507,-0.8769615,-0.4616374,-6.863523,32.19505,-1.287535,1008.26
26.071301937,-3.59375,-0.0004303157,-0.4106288,0.06560005,-0.8696355,-0.469743,-6.497052,32.1977,-1.288723,1008.26
26.103859901,-4.701244,0.05905062,-0.7778252,0.06768238,-0.8822218,-0.4747708,-6.497052,32.1977,-1.288723,1008.26
26.136418343,-5.193464,0.2969744,-1.083822,0.07062741,-0.8846045,-0.4767435,-6.143342,32.92575,-1.677482,1008.262
26.171480656,-6.300958,0.1185316,-0.900224,0.07743545,-0.88545,-0.4849804,-6.502734,32.56151,-1.291334,1008.262
26.204035282,-6.73165,-0.1193922,-0.4718282,0.06608681,-0.8743849,-0.4925347,-6.502734,32.56151,-1.291334,1008.262
26.236593247,-4.455134,-0.297835,-0.4718282,0.07000543,-0.8786568,-0.5037212,-6.501102,32.56409,-0.8452625,1008.265
26.269151688,-0.8865419,-0.2383541,-0.2882299,0.06558866,-0.8748465,-0.4993085,-6.134632,32.56674,-0.8464518,1008.265
26.304214001,1.820666,0.1780125,-0.2270306,0.06900614,-0.8757694,-0.5002926,-6.134632,32.56674,-0.8464518,1008.265
26.336771965,4.035655,0.2969744,0.2013652,0.07101466,-0.8796598,-0.49407,-6.499472,32.56667,-0.3991899,1008.266
26.369330406,4.15871,0.1185316,-0.2882299,0.07290682,-0.8738255,-0.489149,-6.144363,33.29694,-0.4056015,1008.265
26.404388904,3.235798,0.1185316,0.1401658,0.0662007,-0.8826783,-0.4854106,-6.136264,32.56416,-1.292523,1008.265
26.436947346,2.189831,0.1780125,-0.1658312,0.06954121,-0.875851,-0.4809593,-6.136264,32.56416,-1.292523,1008.265
26.469505310,1.266919,0.05905062,0.1401658,0.07254587,-0.8835742,-0.4839803,-6.137661,32.56194,-1.67487,1008.265
26.504567623,-0.4558497,-0.1788731,0.3849634,0.06520022,-0.8797888,-0.4824653,-6.138682,32.93313,-0.4029903,1008.263
26.537126064,-2.055563,-0.2383541,0.01776703,0.06564648,-0.8763789,-0.4828971,-6.138682,32.93313,-0.4029903,1008.259
26.569684029,-2.486256,-0.1788731,-0.04343237,0.0646771,-0.8783022,-0.4901761,-6.133001,32.56932,-0.4003792,1008.257
26.604743004,-2.793893,-0.1193922,-0.2882299,0.066521,-0.8695261,-0.4910108,-6.501102,32.56409,-0.8452625,1008.261
26.637300968,-2.117091,-0.0004303157,-0.2882299,0.06665231,-0.8816563,-0.495063,-6.501102,32.56409,-0.8452625,1008.261
26.669859409,-0.4558497,0.05905062,-0.594227,0.06955104,-0.8801494,-0.4974597,-6.502734,32.56151,-1.291334,1008.261
26.702416897,1.143864,0.05905062,-0.1046318,0.06857589,-0.878733,-0.4911532,-6.501102,32.56409,-0.8452625,1008.261
26.737479687,1.943721,0.2374934,-0.2882299,0.06904104,-0.8758332,-0.4862757,-6.501102,32.56409,-0.8452625,1008.259
26.770038128,1.513029,-0.1193922,-0.1658312,0.06906396,-0.8773019,-0.4838812,-6.134632,32.56674,-0.8464518,1008.261
26.802591801,0.2824798,-0.2383541,0.1401658,0.06268948,-0.8754013,-0.4925469,-6.869992,32.93042,0.04545879,1008.261
26.837655067,-0.4558497,0.3564553,-0.9614233,0.07342239,-0.8772008,-0.4935514,-6.869992,32.93042,0.04545879,1008.259
26.870213032,0.03636996,0.1185316,-0.6554264,0.07780851,-0.8771502,-0.4921047,-6.505153,32.93048,-0.4018011,1008.259
26.902771473,1.820666,-0.1788731,0.5073622,0.0792846,-0.8776346,-0.4882466,-6.499472,32.56667,-0.3991899,1008.259
26.937833786,2.128304,-0.4762778,0.9969574,0.07789383,-0.883489,-0.4873677,-6.499472,32.56667,-0.3991899,1008.259
26.970391750,1.513029,-0.357316,0.7521598,0.06424045,-0.8817298,-0.4858777,-6.130582,32.20034,-1.289912,1008.259
27.002945900,0.8362269,-0.1788731,-0.2882299,0.06185729,-0.8866119,-0.4878834,-6.136264,32.56416,-1.292523,1008.259
27.038008690,-0.1482124,0.05905062,-0.7166258,0.06125798,-0.876425,-0.4853104,-6.136264,32.56416,-1.292523,1008.264
27.070567131,-1.809454,0.5348981,-1.695816,0.06417806,-0.8768597,-0.4882202,-6.506783,32.9279,-0.8478737,1008.265
27.103124619,-1.994036,0.5943791,-1.695816,0.06562844,-0.8763459,-0.4901472,-6.867573,32.56144,-0.8440742,1008.265
27.138187408,-0.6404321,0.3564553,-1.757015,0.07153778,-0.8811464,-0.4863591,-6.867573,32.56144,-0.8440742,1008.265
27.170745850,0.2824798,0.3564553,-1.32862,0.07838559,-0.8834915,-0.4854348,-6.136264,32.56416,-1.292523,1008.267
27.203299522,0.03636996,0.2969744,-1.32862,0.07537688,-0.8748096,-0.4794989,-6.140313,32.93055,-0.8490629,1008.267
27.235857964,-1.932508,0.1185316,-0.9614233,0.07725941,-0.8689576,-0.4784447,-6.140313,32.93055,-0.8490629,1008.265
27.270920277,-3.83986,-0.1788731,-0.5330275,0.07682447,-0.8747663,-0.4848168,-6.506783,32.9279,-0.8478737,1008.265
27.303479195,-3.59375,-0.1788731,-0.5330275,0.07921626,-0.8741805,-0.4997948,-6.499472,32.56667,-0.3991899,1008.265
27.336036682,-0.5789046,-0.2383541,-0.1658312,0.080193,-0.8751243,-0.5031938,-6.499472,32.56667,-0.3991899,1008.265
27.371099472,2.682051,-0.1193922,0.01776703,0.07044037,-0.8728481,-0.4973492,-6.501102,32.56409,-0.8452625,1008.265
27.403653622,4.650929,0.05905062,0.4461628,0.07392182,-0.8781684,-0.4930833,-6.497052,32.1977,-1.288723,1008.267
27.436211586,4.897039,-0.1788731,0.6909603,0.06612824,-0.8768387,-0.4872549,-6.497052,32.1977,-1.288723,1008.267
27.471273899,4.220237,0.2374934,-0.6554264,0.06279375,-0.8836771,-0.4892896,-6.138682,32.93313,-0.4029903,1008.267
27.503832340,4.404819,0.7133409,-2.124212,0.09063744,-0.8925122,-0.4971853,-6.873254,32.92525,-0.8466854,1008.267
27.536390304,8.281049,0.1185316,0.323764,0.09394232,-0.8789612,-0.4752298,-6.873254,32.92525,-0.8466854,1008.267
27.571453571,6.066061,-0.4762778,1.670151,0.06669182,-0.8774479,-0.4587456,-6.502734,32.56151,-1.291334,1008.267
27.604007244,-0.5173771,-0.7142016,0.9969574,0.04874285,-0.8816119,-0.4496076,-6.141945,32.92797,-1.295135,1008.269
27.636565685,-6.547068,0.3564553,-2.552608,0.05962457,-0.9008052,-0.4726297,-6.141945,32.92797,-1.295135,1008.269
27.669123650,-4.455134,0.5348981,-4.021393,0.0728873,-0.9117833,-0.4786105,-6.502734,32.56151,-1.291334,1008.269
27.704185963,0.590117,0.2969744,-3.164602,0.08800684,-0.8722105,-0.4804382,-6.499472,32.56667,-0.3991899,1008.269
27.736744404,0.09789743,0.1780125,-1.695816,0.08449104,-0.8615957,-0.4735056,-6.499472,32.56667,-0.3991899,1008.263
27.769302368,1.020809,0.05905062,-0.2270306,0.08839288,-0.8672637,-0.4982481,-6.873254,32.92525,-0.8466854,1008.265
27.804361343,7.419665,-0.5952397,1.853749,0.08724009,-0.8935285,-0.4971975,-6.141945,32.92797,-1.295135,1008.263
27.836919308,13.75699,-0.6547207,1.976148,0.0733498,-0.9122079,-0.4907018,-6.141945,32.92797,-1.295135,1008.263
27.869477749,33.13814,0.4754172,6.137706,0.007060385,-0.8165146,-0.4558249,-6.506783,32.9279,-0.8478737,1008.263
27.904540062,40.58296,-0.8331635,3.016538,0.06495036,-0.8983014,-0.4735633,-6.135242,32.19296,-2.564404,1008.263
27.937098026,53.13456,0.4159362,3.138936,0.06957216,-0.8687733,-0.4344472,-6.135242,32.19296,-2.564404,1008.263
27.969656467,61.56383,0.7728219,4.362924,0.08479968,-0.9187018,-0.4197555,-6.509025,32.55154,-3.011897,1008.263
28.004764080,68.94711,1.189188,5.342114,0.06996208,-0.9312596,-0.3730452,-6.154759,32.90767,-4.799985,1008.263
28.037322521,69.68545,0.9512647,2.465743,0.05534048,-0.9223892,-0.3351924,-6.154759,32.90767,-4.799985,1008.263
28.069880486,66.54755,3.15206,1.058157,0.0671431,-0.9671006,-0.3020495,-6.153738,32.53648,-6.071866,1008.263
28.102438927,65.19394,4.520121,0.07896642,0.05472544,-0.9724655,-0.227196,-5.798452,32.52142,-9.131833,1008.263
28.137501717,62.54826,4.103754,-1.32862,0.0806663,-0.9386585,-0.2126874,-5.798452,32.52142,-9.131833,1008.263
28.170059204,50.48888,8.088978,-1.145021,0.06129285,-0.9395787,-0.1730458,-5.806607,32.5085,-11.36219,1008.263
28.202613831,32.52287,6.899358,1.670151,0.06981825,-0.9541909,-0.1418574,-5.06836,31.77658,-13.01619,1008.261
28.237676144,19.54058,7.61313,7.116897,0.07263852,-0.95587,-0.1916736,-5.06836,31.77658,-13.01619,1008.259
28.270234585,26.00096,15.94046,8.279685,0.03341724,-0.9254534,-0.1529849,-5.439724,31.76618,-14.35321,1008.259
28.302792549,-21.06755,12.31212,10.23807,0.02992336,-0.9372324,-0.2440361,-5.441355,31.7636,-14.79929,1008.259
28.337854862,-77.24212,13.73967,9.381274,0.02043881,-0.8500023,-0.32197,-5.442986,31.76102,-15.24536,1008.258
28.370413303,-128.8021,15.22669,8.891679,0.03392005,-0.8500203,-0.385789,-5.442986,31.76102,-15.24536,1008.258
28.402967453,-152.5517,13.38278,19.41798,0.04027541,-0.8713861,-0.4779627,-5.806983,32.13509,-13.01642,1008.258
28.438030243,-152.1826,13.85863,19.47918,0.02321612,-0.7970186,-0.5280495,-5.055779,31.7965,-9.57506,1008.258
28.470588207,-135.5086,21.41271,23.94673,0.02354604,-0.6964822,-0.5120147,-5.055779,31.7965,-9.57506,1008.258
28.503146648,-101.0532,29.32367,47.99809,0.02467803,-0.6179732,-0.6717826,-5.060008,32.90823,-6.078043,1008.258
28.538209438,-16.26841,32.83305,74.86463,-0.0853861,-0.48881,-0.853389,-4.311832,32.56484,-3.465102,1008.258
28.570766926,74.23848,-2.141744,76.88422,-0.2324728,-0.8336215,-0.9044284,-4.311832,32.56484,-3.465102,1008.256
28.603321552,183.7574,4.282197,81.41297,0.0424732,-0.6323308,-0.03299462,-3.569948,32.21149,-2.572724,1008.254
28.635879517,29.81566,-11.71817,98.4876,-0.4069766,-0.2106951,0.01060845,-3.920648,29.62416,-9.116888,1008.253
28.670942306,-31.52722,48.77394,78.1694,-0.3345684,-0.2332621,-0.1618879,-3.920648,29.62416,-9.116888,1008.253
28.703500271,-140.1232,2.795174,112.5635,-0.3531729,-0.3411171,-0.1175946,-4.28065,28.88614,-10.44869,1008.253
28.736058712,-197.8974,-40.38799,100.752,-0.5045858,-0.4709695,-0.317614,-3.185466,30.00582,-6.955241,1008.251
28.771121025,-221.1548,-88.03223,97.08002,-0.7503437,-0.7537748,-0.3927478,-3.185466,30.00582,-6.955241,1008.251
28.803675175,-245.5812,-84.87974,89.79729,-0.8779613,-0.7340215,-0.5059168,-2.432576,30.4155,0.04947186,1008.253
28.836233616,-217.4632,-96.24059,82.20856,-1.108757,-0.9812471,-0.6665633,-0.917496,29.38558,8.84654,1008.254
28.871295929,-98.0384,-125.3862,87.22691,-0.928534,-1.062117,-0.642352,-0.917496,29.38558,8.84654,1008.254
28.903854370,52.27318,-169.759,81.35177,-1.122133,-1.070782,-0.7873104,0.2464719,26.5133,14.08928,1008.256
28.936412334,158.4081,-174.3985,77.31261,-1.297438,-0.8544989,-0.54457,1.042695,22.14511,12.78002,1008.258
28.971474648,181.2963,-159.7067,105.4643,-1.130121,-0.6595635,-0.5021206,1.042695,22.14511,12.78002,1008.259
29.004029274,246.5154,-163.9894,78.2918,-1.570144,-1.059572,-1.114437,2.161139,19.57354,7.123241,1008.259
29.036587238,34.43022,-41.81553,-13.9357,-1.007054,-1.691596,-1.695974,2.588041,14.45257,1.933195,1008.259
29.069145679,48.58153,-50.85663,29.82187,-0.7494769,-1.253102,-1.622826,2.588041,14.45257,1.933195,1008.263
29.104207993,-17.74506,14.75084,-18.70925,-0.7832215,-0.7580753,-0.7147106,2.645642,10.44291,0.623702,1008.263
29.136766434,-31.21958,-13.26468,-1.573417,-0.9683537,-0.3165397,-0.2311862,3.077241,10.0796,0.178854,1008.265
29.169324398,-5.378046,-12.31298,-0.2882299,-0.8028237,-0.09528901,0.003083664,3.077241,10.0796,0.178854,1008.268
29.204382896,32.09217,0.7133409,-5.000584,-0.7508383,-0.07584593,0.04441715,2.628598,11.53434,0.6158686,1008.268
29.236941338,53.68831,0.7133409,-18.03605,-0.743661,-0.1576887,0.0006244383,3.419356,11.53491,-0.2788506,1008.268
29.269498825,49.99666,-8.803609,-19.26004,-0.7981008,-0.301096,-0.04114779,3.419356,11.53491,-0.2788506,1008.274
29.304562092,20.34043,-6.364891,-20.54523,-0.8166423,-0.5202481,-0.102962,3.412043,11.89614,-0.7275343,1008.276
29.337120056,-7.285398,-2.260706,-23.4216,-0.8933612,-0.6988869,-0.2622274,3.039282,11.88353,-2.446909,1008.277
29.369678497,-5.685683,-9.636342,-19.26004,-0.9398586,-0.7360982,-0.3347734,3.039282,11.88353,-2.446909,1008.279
29.404736996,16.15656,-5.294234,-9.100944,-0.9220977,-0.6204086,-0.2880715,2.606051,12.24425,-2.448133,1008.279
29.437294483,22.86306,-3.331363,-1.573417,-0.8713302,-0.4841186,-0.1883991,2.226587,12.96664,-2.898238,1008.281
29.469853401,9.757708,-2.320187,3.628531,-0.8093454,-0.3980739,-0.1223736,2.226587,12.96664,-2.898238,1008.283
29.502410889,-10.73094,-4.104615,1.364154,-0.8199925,-0.4049922,-0.1277861,3.027919,12.61115,-2.452131,1008.284
29.537474155,-18.42187,-10.76648,-3.960194,-0.8688707,-0.4817539,-0.1670968,2.585746,13.33051,-3.34811,1008.284
29.570032120,-8.762056,-20.81876,-16.38367,-0.8795396,-0.5898268,-0.2649272,2.585746,13.33051,-3.34811,1008.284
29.602586269,23.90902,-32.95287,-30.27593,-0.8811051,-0.5896546,-0.3069769,2.591427,12.9667,-3.345499,1008.286
29.637649059,81.6833,-40.86383,-39.39465,-0.8321854,-0.5153465,-0.2623865,2.576802,13.68916,-4.242865,1008.288
29.670206547,110.7858,-36.75965,-39.21105,-0.8081494,-0.4398452,-0.2308051,2.576802,13.68916,-4.242865,1008.289
29.702764988,96.20378,-35.9864,-35.47788,-0.7794334,-0.3843299,-0.1729474,1.822946,14.39636,-6.858417,1008.291
29.737827778,50.91957,-35.0347,-37.25267,-0.7493914,-0.3916949,-0.07109625,2.536602,15.11673,-9.032652,1008.291
29.770386219,7.850357,-33.4882,-39.21105,-0.7217195,-0.48566,0.04345392,2.536602,15.11673,-9.032652,1008.293
29.802939892,-18.60645,-29.26505,-36.15108,-0.7174632,-0.5874626,0.1047357,2.161977,15.10116,-11.26182,1008.293
29.838002205,-15.83771,-28.67024,-33.02991,-0.7613365,-0.704304,0.1290978,1.778086,15.81655,-12.9227,1008.295
29.870560646,0.8977544,-30.63311,-31.68352,-0.7346179,-0.7769725,0.1540657,1.778086,15.81655,-12.9227,1008.295
29.903118610,22.61695,-28.31336,-29.35794,-0.7169777,-0.8258776,0.1644202,1.75778,16.90281,-13.82267,1008.295
29.938181877,48.08931,-27.59959,-26.35917,-0.6844256,-0.7797154,0.1530086,0.6461627,17.24835,-15.606,1008.296
29.970739841,51.59638,-26.29101,-25.37998,-0.6642307,-0.7162544,0.1496069,0.6461627,17.24835,-15.606,1008.296
30.003293991,46.36654,-27.48063,-27.09357,-0.6410877,-0.6965045,0.1479524,0.9909296,18.33505,-16.88952,1008.296
30.035851955,46.30502,-29.56246,-27.15477,-0.6324307,-0.6852539,0.1568165,0.9957681,17.5971,-18.66858,1008.296
30.070914269,43.65934,-30.99,-27.03237,-0.6386329,-0.6879484,0.1969016,0.9957681,17.5971,-18.66858,1008.296
30.103472710,41.07518,-34.02353,-27.70556,-0.63743,-0.696915,0.2480016,-0.09531021,16.85674,-19.48821,1008.296
30.136030674,42.92101,-34.7373,-28.13396,-0.6572667,-0.6997873,0.2880972,-0.1131966,17.57403,-21.27773,1008.296
30.171093941,41.99809,-37.05705,-30.94913,-0.6652727,-0.7108555,0.3473915,0.2597435,16.8413,-22.61191,1008.294
30.203647614,41.93657,-37.47342,-32.84631,-0.6384348,-0.7158403,0.3448726,0.2597435,16.8413,-22.61191,1008.294
30.236206055,42.92101,-39.7337,-34.98829,-0.5988389,-0.7270208,0.3519145,-0.1016555,16.10107,-24.32606,1008.296
30.271268368,47.28946,-39.91214,-34.62109,-0.5576031,-0.7461194,0.3946038,-1.207592,16.0828,-26.10678,1008.296
30.303826332,49.87361,-39.37681,-35.23309,-0.5256068,-0.7620318,0.4581359,-1.207592,16.0828,-26.10678,1008.3
30.336384773,50.05819,-39.01992,-35.78388,-0.4892821,-0.7716052,0.5294946,-1.197627,15.35296,-26.48391,1008.3
30.404001713,38.73714,-24.32813,-45.94298,-0.3532364,-0.7440741,0.5297832,-2.292201,14.60707,-28.25941,1008.297
30.436559677,45.13599,-23.91177,-43.9846,-0.3693052,-0.7798999,0.559705,-2.639208,13.14401,-29.13992,1008.297
30.504359722,60.27175,-19.86707,-36.27348,-0.1460558,-0.748453,0.5899386,-3.372759,12.76495,-30.85549,1008.301
30.536917686,72.57724,-32.41754,-39.82304,-0.393677,-0.7174472,0.6496227,-3.72871,11.66054,-32.63076,1008.301
30.569476128,72.70029,-25.63671,-43.6786,-0.230492,-0.7249393,0.6275989,-3.695232,9.103899,-34.33304,1008.299
30.604534626,84.39051,-37.41394,-44.65779,-0.4062082,-0.6252151,0.7443336,-3.695232,9.103899,-34.33304,1008.299
30.637092590,91.52769,-38.66304,-49.00295,-0.2219825,-0.6221573,0.8133253,-3.658726,6.552058,-35.20691,1008.301
30.669651031,102.4796,-28.13491,-47.35057,-0.2851652,-0.5724225,0.7044185,-4.345428,3.264719,-36.51925,1008.301
30.704713345,127.5828,-38.66304,-48.94175,-0.2753489,-0.47695,0.7919067,-4.345428,3.264719,-36.51925,1008.301
30.737271786,144.9951,-20.04551,-40.43504,-0.1488115,-0.3811145,0.8140318,-5.035948,0.3441415,-37.3244,1008.301
30.769829750,123.0298,-18.08264,-27.64436,-0.2980816,-0.3469022,0.8780203,-5.700715,-4.02688,-37.29069,1008.301
30.804888248,72.70029,-28.43232,-13.1401,-0.1722257,-0.3841428,0.9841569,-5.700715,-4.02688,-37.29069,1008.301
30.837446690,60.64091,-23.55488,5.892909,0.1297981,-0.4930311,0.8932628,-5.634246,-8.084637,-36.43311,1008.301
30.870004654,75.34597,-7.613991,17.52079,-0.09306187,-0.4458731,0.9986068,-5.944692,-11.35383,-35.07021,1008.303
30.902563095,104.0178,-1.725378,27.0067,-0.1386189,-0.3665965,1.068983,-5.944692,-11.35383,-35.07021,1008.303
30.937625408,117.3692,-9.279456,31.29066,-0.1565626,-0.1969181,1.111226,-5.553865,-12.80384,-34.61488,1008.304
30.970183849,99.28015,-37.59238,30.67867,-0.4044468,-0.1137012,0.9126168,-6.213737,-17.16712,-33.24295,1008.304
31.002737522,97.31127,-58.1133,16.23561,0.2246464,-0.004707805,0.9779615,-6.213737,-17.16712,-33.24295,1008.306
31.037800312,72.20807,-37.59238,-2.124212,-0.03054297,0.1511844,1.126566,-6.155527,-20.80301,-32.83449,1008.306
31.070358753,21.57098,-55.49614,-32.35672,0.01609098,0.1587138,1.313219,-6.467606,-24.07479,-31.91766,1008.308
31.102916241,7.911885,-47.22829,-62.34442,-0.1214569,0.116971,1.228124,-6.467606,-24.07479,-31.91766,1008.31
31.137979507,1.943721,-9.517381,-84.8046,-0.7835429,-0.119074,1.006676,-6.426815,-26.99265,-33.17126,1008.31
31.170537472,22.30931,-118.0106,-50.28814,-1.545003,-0.3396999,0.8498477,-6.797569,-26.62928,-32.79034,1008.311
31.203092098,-83.08723,-177.2536,-32.11192,-0.4314888,-0.331913,1.364172,-6.797569,-26.62928,-32.79034,1008.311
31.238154411,-254.8719,-181.4768,-18.64805,3.284612,-0.9123353,1.249737,-6.766689,-28.0716,-30.54953,1008.311
31.270712376,-91.63955,-28.96765,-63.9356,0.8507141,-0.2484989,0.914666,-8.636214,-26.65247,-34.50496,1008.311
31.303270817,98.04961,52.58072,-186.7628,0.418611,-0.3061131,0.5913084,-8.636214,-26.65247,-34.50496,1008.311
31.338333130,230.6413,98.97585,-173.5437,-0.1684966,-0.2323452,0.6413381,-5.412677,-22.27325,-36.33128,1008.313
31.370891571,366.8015,100.1655,-35.66148,-0.5428812,-0.5487256,-0.2158041,-4.611506,-25.88799,-33.18504,1008.313
31.403445244,518.2821,81.72637,68.0103,-0.3428725,0.4815857,0.04479373,-4.611506,-25.88799,-33.18504,1008.311
31.471066475,566.1505,20.57997,-40.80223,0.1461636,0.6890242,-0.13523,-4.217844,-44.27776,-4.630717,1008.31
31.503623962,500.3161,-27.89699,-60.75323,0.3022413,0.7950576,-0.1332795,-4.217844,-44.27776,-4.630717,1008.31
31.536182403,361.6948,-4.639944,-66.44477,0.2902689,0.376072,-0.05265237,-4.812244,-48.53735,14.64781,1008.31
31.571245193,92.38908,12.60953,-100.594,0.249019,0.419928,0.01717942,-5.941565,-43.37334,28.18815,1008.31
31.603799343,-33.00388,-30.39519,-140.5573,0.0201522,0.352797,-0.09045013,-5.941565,-43.37334,28.18815,1008.311
31.636357307,33.99952,-15.76288,-4.38859,-0.1422387,3.066894,-0.8044041,-4.914557,-37.88794,31.65027,1008.317
31.671419620,313.5803,24.8626,18.01039,-0.8700085,3.546704,-0.7780131,-3.84011,-36.80111,29.47224,1008.317
31.703978538,77.68401,20.04465,77.6798,0.111846,1.44739,-0.8027713,-3.84011,-36.80111,29.47224,1008.311
31.736536026,-26.35891,-100.7611,30.86226,0.2851414,0.4676864,-0.1203726,-3.487778,-34.2112,36.46247,1008.311
31.771599293,-107.5752,-53.65223,-10.81453,0.3291352,0.1535384,0.04445745,-4.644792,-30.20948,37.77553,1008.313
31.804152966,-113.1126,9.457039,-35.66148,0.0271434,0.173849,-0.4745713,-4.644792,-30.20948,37.77553,1008.313
31.836711407,-123.5723,-3.331363,-3.164602,-0.2270343,0.2822346,-0.1376923,-4.637534,-31.31641,35.10694,1008.313
31.869269371,-60.07596,12.84745,-16.32247,-0.3474425,0.9895235,-0.4037603,-3.870327,-34.23931,32.06667,1008.315
31.904331684,108.5093,9.159635,13.17564,-0.2340791,1.951642,-0.2509455,-3.870327,-34.23931,32.06667,1008.313
31.936890125,61.56383,-0.0004303157,19.29558,-0.1212655,1.626571,-0.4764336,-3.467958,-37.16228,29.47366,1008.313
31.969448090,29.6926,-7.197624,20.70316,-0.0442895,0.7616274,-0.3997957,-3.840899,-36.42956,30.80784,1008.311
32.004506588,-9.315804,-8.506205,6.382504,-0.01650922,0.5772091,-0.2730911,-3.840899,-36.42956,30.80784,1008.311
32.037065029,-50.60073,-1.130568,-7.815756,0.087754,0.6967244,-0.2849029,-3.861383,-34.59796,32.96142,1008.313
32.069622993,-76.7499,3.092578,-3.164602,0.1209504,0.9952984,-0.2252749,-3.864645,-34.60312,32.06928,1008.313
32.104686260,-79.27253,4.936487,-9.957735,-0.0590271,1.226742,-0.2288208,-4.595777,-35.35117,29.46417,1008.313
32.137243748,-54.7846,0.2969744,-0.900224,-0.1043094,1.12358,-0.1177242,-4.595777,-35.35117,29.46417,1008.317
32.169802189,-22.11351,1.665036,6.443703,-0.01967967,0.8930989,-0.06525046,-4.198481,-37.53655,28.5865,1008.317
32.204860687,0.9592818,4.103754,-2.063012,0.004032645,0.7868339,-0.03547507,-4.19504,-38.27672,26.42509,1008.317
32.237418652,12.71103,3.330502,-4.510989,-0.02030043,0.8719898,-0.02110124,-4.19504,-38.27672,26.42509,1008.313
32.269977093,26.67776,2.081403,-2.613807,-0.05738136,0.9457254,-0.09631405,-3.826939,-38.27149,26.86998,1008.315
32.302535057,57.31843,2.140883,0.8745586,-0.04846986,1.005388,-0.1514841,-3.826939,-38.27149,26.86998,1008.317
32.337597847,57.6876,1.427112,1.241755,-0.0344003,1.034148,-0.2361333,-4.19038,-38.26934,27.69958,1008.317
32.370155811,42.12115,-0.2383541,-0.9614233,-0.02809008,0.9820055,-0.2939733,-4.2009,-37.16757,29.47604,1008.317
32.402710438,23.47833,-0.1788731,-1.206221,-0.02861312,0.9820652,-0.3084732,-3.848211,-36.06833,30.35916,1008.318
32.437772751,0.8362269,-0.6547207,-0.6554264,-0.03696566,0.9882762,-0.3088538,-3.848211,-36.06833,30.35916,1008.318
32.470330715,-12.82287,-0.4167969,0.3849634,-0.03200375,0.9834147,-0.2944314,-3.856544,-35.33591,31.18236,1008.318
32.502889156,-21.06755,-0.5357588,0.629761,-0.03384949,0.9798737,-0.2693481,-4.215703,-35.69979,31.63223,1008.318
32.537951469,-25.62058,-0.7142016,0.2625646,-0.03018188,0.9647012,-0.2357467,-4.215703,-35.69979,31.63223,1008.318
32.570509910,-24.88225,-0.9521254,-0.2882299,-0.03438349,0.9557526,-0.2039763,-3.84253,-36.43214,30.36177,1008.32
32.603064060,-18.29881,-0.5952397,-0.4106288,-0.03476479,0.952224,-0.177444,-3.849842,-36.07091,29.91309,1008.322
32.638126373,-6.547068,-0.2383541,-0.1658312,-0.03420114,0.9501877,-0.1557237,-3.849842,-36.07091,29.91309,1008.322
32.670684814,4.281765,-0.0004303157,0.2013652,-0.03363805,0.9429209,-0.1592187,-4.219574,-36.07872,29.02213,1008.322
32.703242779,11.60353,0.3564553,0.5073622,-0.03338927,0.9585818,-0.1821821,-3.834429,-37.16492,29.47485,1008.322
32.738305092,13.20325,0.4159362,0.2625646,-0.02924969,0.9728754,-0.2138709,-3.834429,-37.16492,29.47485,1008.323
32.770863533,10.49604,0.2969744,-0.900224,-0.03728219,0.9889099,-0.2358539,-3.845792,-36.43731,29.46963,1008.323
32.803417206,4.835512,0.1780125,-0.6554264,-0.0367497,0.984077,-0.2402785,-4.212262,-36.43995,29.47082,1008.325
32.835975647,-1.317234,-0.05991125,-0.2270306,-0.03958161,0.9772164,-0.2360301,-4.212262,-36.43995,29.47082,1008.325
32.871038437,-3.778332,0.05905062,0.07896642,-0.03064964,0.9660866,-0.2212238,-3.849842,-36.07091,29.91309,1008.325
32.903596878,-3.286113,-0.2383541,-0.1658312,-0.03402697,0.965985,-0.2086543,-3.849842,-36.07091,29.91309,1008.325
32.936154366,-1.009597,-0.1788731,-0.2270306,-0.03254846,0.9654961,-0.2038294,-3.849842,-36.07091,29.91309,1008.325
32.971217155,0.2824798,-0.1193922,-0.1658312,-0.03158293,0.9640973,-0.2140026,-4.216312,-36.07356,29.91428,1008.321
33.003771305,0.713172,-0.0004303157,0.2625646,-0.03608014,0.9728106,-0.2191825,-3.848211,-36.06833,30.35916,1008.321
33.036329269,1.082337,0.05905062,1.302954,-0.03662017,0.9757549,-0.2268711,-3.848211,-36.06833,30.35916,1008.321
33.071392536,-1.563344,0.2969744,0.8745586,-0.02943192,0.984623,-0.2325432,-4.582783,-36.07621,29.91547,1008.323
33.103950501,-6.608595,-0.4167969,-0.8390245,-0.02437492,0.9705511,-0.2230953,-4.212262,-36.43995,29.47082,1008.325
33.136508942,-8.023727,-0.8926444,-0.8390245,-0.03756518,0.9756895,-0.2152701,-4.212262,-36.43995,29.47082,1008.325
33.171571255,-9.008166,-0.8926444,2.220945,-0.03816329,0.985874,-0.2122139,-3.845792,-36.43731,29.46963,1008.325
33.204124928,-8.762056,-0.8331635,1.976148,-0.02239758,0.9729006,-0.1998592,-3.844161,-36.43472,29.9157,1008.326
33.236683369,-6.362485,-0.357316,0.4461628,-0.02809216,0.9568575,-0.2150832,-3.844161,-36.43472,29.9157,1008.326
33.269241333,-1.501816,-0.05991125,0.3849634,-0.03709129,0.9804758,-0.197796,-3.838479,-36.79853,29.91831,1008.326
33.304304600,5.881478,0.4754172,2.159746,-0.03154638,0.9630793,-0.2038673,-4.213893,-36.44254,29.02474,1008.322
33.336862087,11.17284,1.427112,2.404544,-0.03054077,0.9620828,-0.195666,-4.213893,-36.44254,29.02474,1008.324
33.369420528,14.06463,1.962441,2.159746,-0.02818807,0.9665449,-0.208168,-4.576314,-36.81158,28.58247,1008.324
33.404479027,17.63322,1.605555,1.79255,-0.02383369,0.9676046,-0.2149233,-4.581152,-36.07362,30.36154,1008.324
33.437036991,20.58654,2.140883,2.649341,-0.01906825,0.9702361,-0.2453405,-4.581152,-36.07362,30.36154,1008.324
33.469595432,22.43237,1.90296,3.077737,-0.02000697,0.9644518,-0.258479,-4.586834,-35.70981,30.35893,1008.324
33.504657745,22.61695,2.795174,3.628531,-0.01485145,0.9801082,-0.2664626,-4.228696,-34.97475,31.18093,1008.324
33.537215710,19.17141,2.140883,4.668921,-0.0230636,0.9689408,-0.292244,-4.228696,-34.97475,31.18093,1008.322
33.569774151,12.95714,3.033098,4.240525,0.008020313,0.9756772,-0.2950715,-4.238428,-34.24454,31.62178,1008.322
33.604832649,3.543435,3.865831,4.485322,-0.003314128,0.983387,-0.3128279,-4.244109,-33.88073,31.61917,1008.322
33.637391090,-12.4537,4.282197,3.200136,-0.02603267,1.15378,-0.2280323,-4.244109,-33.88073,31.61917,1008.324
33.669949055,-14.79175,4.698564,4.546522,-0.03439474,0.9747421,-0.3177635,-4.604056,-33.87305,33.40465,1008.324
33.702507496,-25.62058,6.007144,4.056927,-0.03860938,1.005238,-0.3027929,-5.351621,-33.15588,32.50966,1008.326
33.737569809,-28.02015,6.720915,1.425353,0.007955108,0.9891134,-0.2576464,-5.351621,-33.15588,32.50966,1008.326
33.770127773,-27.65099,6.36403,2.77174,0.04195534,1.007312,-0.2080971,-4.604899,-34.24719,31.62297,1008.326
33.802682400,-29.61986,5.590778,7.300495,0.05829356,0.9913353,-0.1750036,-4.973001,-34.25242,31.17809,1008.326
33.837744713,-38.78746,4.639083,9.503674,0.07439044,0.999104,-0.1275297,-4.973001,-34.25242,31.17809,1008.326
33.870303154,-44.14035,2.616731,10.97246,0.06592772,0.9760839,-0.1128881,-5.338449,-34.62626,29.9074,1008.327
33.902861118,-45.86311,-0.0004303157,9.993268,0.06017477,0.9729888,-0.09021105,-5.33603,-34.99523,29.01786,1008.327
33.937923431,-49.98545,-2.439149,10.48286,0.02722029,0.9618056,-0.07681531,-5.33603,-34.99523,29.01786,1008.327
33.970481873,-54.7846,-3.390844,9.74847,-0.03378933,0.9346917,-0.06073527,-5.312516,-36.82203,27.6927,1008.327
34.003035545,-53.80016,-4.758906,4.668921,-0.0322715,0.9336554,-0.04238422,-5.300134,-37.92085,26.42605,1008.323
34.038098335,-40.69481,-5.532158,0.5073622,0.001547388,0.9179969,-0.02912121,-4.561333,-39.0247,23.37272,1008.325
34.070656776,-25.92822,-3.450325,1.79255,0.01857067,0.9206334,-0.02571377,-4.561333,-39.0247,23.37272,1008.325
34.103214741,-13.5612,0.3564553,3.934528,0.02136538,0.9337449,-0.01536552,-4.918071,-39.75755,22.93306,1008.325
34.138277531,-11.53079,2.616731,6.137706,0.02915319,0.935755,-0.007608346,-4.919703,-39.76013,22.48699,1008.325
34.170835495,-15.71466,4.817525,6.198906,0.02524276,0.9366825,-0.00904055,-4.919703,-39.76013,22.48699,1008.328
34.203390122,-22.23657,5.412335,2.098547,0.03299656,0.9368523,-0.02403013,-5.276442,-40.49298,22.04733,1008.328
34.235947609,-24.82072,5.055449,6.933299,0.01542817,0.9865776,-0.001019207,-5.276442,-40.49298,22.04733,1008.33
34.271010399,-31.77333,7.970016,12.74724,0.01281175,1.056262,0.05756828,-5.26834,-41.22577,21.16041,1008.33
34.303568840,-37.74149,10.17081,23.08994,-0.020581,1.093915,0.1243976,-5.637839,-41.23322,20.33318,1008.33
34.336126328,-43.64812,10.40873,26.8231,0.05010437,1.098022,0.171763,-5.62569,-42.33239,19.00279,1008.33
34.371189594,-38.04913,4.222716,37.1046,0.1418203,1.054728,0.2290192,-5.62569,-42.33239,19.00279,1008.33
34.403743267,-19.22172,5.352854,42.06175,0.1743648,1.015881,0.2080932,-6.369205,-41.98162,17.66435,1008.33
34.436302185,9.20396,3.984792,41.63336,0.1709628,0.9773554,0.2268438,-5.988953,-43.07558,16.77885,1008.33
34.471364498,31.4769,2.973617,40.71537,0.1868467,0.9479951,0.2094624,-5.988953,-43.07558,16.77885,1008.331
34.503922462,44.09003,4.044273,39.18538,0.1841267,0.9242837,0.1791339,-6.712951,-43.43952,17.67598,1008.331
34.536480904,52.39624,3.15206,34.77902,0.1872846,0.8910732,0.1172353,-7.084261,-42.70421,19.45623,1008.33
34.571543217,65.25547,2.319326,31.04586,0.1884579,0.9082639,0.08124319,-7.084261,-42.70421,19.45623,1008.33
34.604096889,72.57724,-1.427973,28.84268,0.1988859,0.9246188,0.04184575,-7.827953,-41.60811,21.17134,1008.33
34.636655331,77.80707,-0.9521254,24.74232,0.2145087,0.9513267,-0.01480033,-7.46306,-40.86234,23.84136,1008.328
34.669213295,70.73141,-0.8331635,20.45836,0.2672158,0.970292,-0.07933436,-7.46306,-40.86234,23.84136,1008.328
34.704276562,52.0886,1.427112,15.25642,0.3208706,0.9537021,-0.1245933,-7.825659,-40.48605,26.45265,1008.328
34.736834049,30.98468,4.044273,11.46205,0.3298629,0.9319988,-0.1355674,-7.486984,-38.29058,28.15635,1008.328
34.769392490,11.91117,3.568426,6.749701,0.3429077,0.8896083,-0.1811807,-7.486984,-38.29058,28.15635,1008.328
34.804450989,1.143864,1.30815,-0.04343237,0.3451568,0.8610222,-0.1941868,-7.867237,-37.19662,29.04185,1008.33
34.837008953,-1.009597,-2.379668,-1.389819,0.3684608,0.8681122,-0.1902341,-8.250752,-36.10784,29.03521,1008.33
34.869567394,-1.932508,0.4159362,-2.919804,0.4029908,0.8719709,-0.1916587,-8.250752,-36.10784,29.03521,1008.33
34.904629707,-7.593035,5.233892,-1.145021,0.3899519,0.8630399,-0.1888821,-8.226396,-37.5605,29.49173,1008.33
34.937187672,-20.63685,13.50174,0.7521598,0.3985167,0.9699461,-0.1606737,-8.239389,-36.83546,29.04043,1008.33
34.969746113,-25.25142,14.09655,5.464513,0.3323548,1.012669,-0.126605,-8.239389,-36.83546,29.04043,1008.33
35.004804611,-34.48053,15.46461,10.42166,0.2750788,1.001597,-0.1006163,-8.23697,-37.20444,28.1509,1008.33
35.037363052,-40.32564,13.79915,15.01162,0.2432236,0.98449,-0.06410991,-8.967258,-37.57834,27.32747,1008.33
