Time (s),Gyroscope X (deg/s),Gyroscope Y (deg/s),Gyroscope Z (deg/s),Accelerometer X (g),Accelerometer Y (g),Accelerometer Z (g),Magnetometer X (uT),Magnetometer Y (uT),Magnetometer Z (uT),Barometer (hPa)
0.007248878,-1.244712,0.415908,0.04824567,0.07951955,-0.740185,0.6698569,10.08619,14.15925,-40.68615,1007.992
0.041895866,-3.456207,-0.2943121,-0.07432837,0.08775579,-0.7388297,0.6620793,10.08619,14.15925,-40.68615,1007.991
0.074068546,-2.841902,0.179168,0.04824567,0.09398197,-0.7505739,0.6537304,10.45861,14.52933,-41.13622,1007.991
0.108716488,-2.104738,0.415908,0.04824567,0.09207872,-0.7466514,0.6576365,10.46413,14.15388,-40.68808,1007.989
0.140888691,-1.613294,0.415908,0.04824567,0.09016538,-0.7441887,0.6610486,10.46413,14.15388,-40.68808,1007.989
0.175536156,-2.104738,0.7118331,0.3546808,0.08867121,-0.7475939,0.6591066,10.46413,14.15388,-40.68808,1007.991
0.207708836,-2.227598,0.001612922,-0.01304135,0.08864713,-0.7534186,0.6590587,10.45257,14.14251,-41.58064,1007.991
0.242355824,-1.244712,0.119983,0.1095327,0.09057653,-0.7519981,0.6556784,10.45257,14.14251,-41.58064,1007.989
0.274528503,-0.01610349,0.179168,-0.07432837,0.08861869,-0.7534444,0.6556848,10.45835,14.1482,-41.13436,1007.988
0.309176445,-0.3232556,0.001612922,-0.01304135,0.08911261,-0.7510236,0.6552181,10.84232,14.52965,-40.69187,1007.988
0.341348648,-1.797585,0.119983,-0.01304135,0.08619923,-0.7534137,0.6581176,10.84232,14.52965,-40.69187,1007.984
0.375996113,-1.121851,0.356723,0.04824567,0.09346779,-0.7539803,0.6522611,10.83159,14.51909,-41.52068,1007.984
0.408168793,-0.2618251,-0.05757209,-0.01304135,0.08861075,-0.7573202,0.6566168,10.45886,14.91046,-41.13808,1007.982
0.442815781,-0.8146988,-0.1167571,-0.1969024,0.08858017,-0.7549302,0.6518168,10.45886,14.91046,-41.13808,1007.981
0.474988461,-0.01610349,0.119983,-0.1356154,0.08765061,-0.7476296,0.6538137,10.84258,14.91078,-40.69373,1007.981
0.507161617,-0.1389643,0.6526481,0.4159678,0.08423316,-0.7529332,0.6562119,10.84258,14.91078,-40.69373,1007.979
0.541808605,-2.227598,-0.05757209,0.1095327,0.07980511,-0.7548785,0.6528632,10.84258,14.91078,-40.69373,1007.979
0.573981285,-1.613294,-0.05757209,-0.1969024,0.08699879,-0.7608325,0.640697,10.46439,14.53501,-40.68994,1007.983
0.608628750,1.888239,0.119983,-0.1356154,0.08902789,-0.7627063,0.6507846,10.84232,14.52965,-40.69187,1007.983
0.640800953,2.072531,-0.2943121,-0.6871986,0.08914516,-0.7519611,0.6595481,10.84232,14.52965,-40.69187,1007.983
0.675448894,-0.3232556,0.238353,-0.3194765,0.09120442,-0.7475212,0.6701695,9.708507,14.54575,-40.68607,1007.983
0.707621574,-0.5075468,-0.4718672,-0.01304135,0.08477168,-0.7485376,0.6600991,10.84258,14.91078,-40.69373,1007.981
0.742268562,-2.043307,0.001612922,-0.07432837,0.09245595,-0.7665808,0.6540946,10.84258,14.91078,-40.69373,1007.981
0.774441242,0.659631,0.297538,0.1095327,0.08798918,-0.7661436,0.6449819,10.84258,14.91078,-40.69373,1007.981
0.809088230,0.8439223,-0.1167571,-0.07432837,0.08181748,-0.7470962,0.6562825,10.08696,15.30265,-40.69173,1007.985
0.841260910,0.1681878,-0.1167571,-0.2581894,0.0905849,-0.7568262,0.6590126,10.85388,14.54102,-39.79931,1007.985
0.875908852,-0.2003947,-0.3534971,-0.7484856,0.07939199,-0.7485216,0.6587034,10.85388,14.54102,-39.79931,1007.985
0.908081532,-0.6304076,0.001612922,-0.6259116,0.09495416,-0.7573522,0.6565574,10.8368,14.90509,-41.14001,1007.983
0.942728519,-0.2618251,0.238353,0.2321067,0.08907624,-0.7549253,0.6527763,10.84836,14.91646,-40.24746,1007.983
0.974901199,-0.9375597,0.06079794,0.4772548,0.0871262,-0.7495946,0.6504284,10.84836,14.91646,-40.24746,1007.981
1.007073879,-0.01610349,-0.1167571,0.04824567,0.08461554,-0.7539989,0.6441496,10.46439,14.53501,-40.68994,1007.981
1.041720867,1.151074,-0.05757209,0.1708197,0.09392745,-0.7569099,0.6503046,10.84258,14.91078,-40.69373,1007.981
1.073893547,1.212505,0.119983,0.1095327,0.08761018,-0.7515349,0.6508899,10.84258,14.91078,-40.69373,1007.981
1.108541489,-0.2003947,0.001612922,-0.01304135,0.08813866,-0.7495663,0.6547572,11.21448,14.51859,-41.14009,1007.987
1.140713692,-0.2618251,0.001612922,-0.07432837,0.08957658,-0.7587849,0.6561137,10.84232,14.52965,-40.69187,1007.987
1.175361157,0.1681878,0.06079794,0.1708197,0.08909651,-0.7539397,0.6547122,10.84232,14.52965,-40.69187,1007.985
1.207533836,-0.6304076,-0.1759421,-0.01304135,0.0890762,-0.7539582,0.6523022,11.60424,14.90573,-40.25132,1007.985
1.242181301,0.2296182,0.001612922,-0.01304135,0.09484664,-0.7598679,0.6449697,10.46516,15.67841,-40.69552,1007.985
1.274353981,1.519657,0.238353,0.2933938,0.08963918,-0.7514745,0.6600295,10.46516,15.67841,-40.69552,1007.985
1.309001446,-1.613294,-0.1759421,0.04824567,0.08276319,-0.7524478,0.6552656,10.08175,14.91664,-41.0724,1007.989
1.341173649,-1.981877,-0.4126822,-0.07432837,0.08899323,-0.76032,0.6455026,10.45886,14.91046,-41.13808,1007.988
1.375821114,0.5982007,-0.1759421,0.2321067,0.09340493,-0.7564554,0.6459753,10.45886,14.91046,-41.13808,1007.988
1.407993794,0.5367702,-0.1167571,0.1095327,0.09056434,-0.7520092,0.6542324,10.45886,14.91046,-41.13808,1007.988
1.442641258,-0.9375597,-0.1167571,0.2321067,0.08907003,-0.7525131,0.6508682,10.4649,15.29728,-40.69366,1007.988
1.474813938,-0.9375597,-0.1759421,0.2321067,0.08806382,-0.7559207,0.6489215,10.4649,15.29728,-40.69366,1007.989
1.509461403,0.1067573,0.06079794,0.1095327,0.08562811,-0.7559047,0.6494263,10.8431,15.67305,-40.69746,1007.989
1.541633606,0.4139094,0.001612922,0.04824567,0.08511397,-0.7602782,0.6484311,11.22052,14.90541,-40.69567,1007.988
1.573806286,0.2910486,-0.2943121,0.1095327,0.08418632,-0.750558,0.6494839,11.22052,14.90541,-40.69567,1007.988
1.608453751,-0.8761293,-0.2351271,-0.01304135,0.08658181,-0.7583477,0.6479514,10.45861,14.52933,-41.13622,1007.988
1.640626907,-0.6304076,-0.1167571,0.1095327,0.08859637,-0.7539483,0.6532708,10.47016,14.5407,-40.24366,1007.992
1.675273895,0.2296182,0.06079794,0.2321067,0.08759423,-0.7573522,0.6518061,10.84284,15.29191,-40.69559,1007.992
1.707446575,-0.0775339,0.06079794,-0.01304135,0.08667294,-0.7529455,0.656189,10.84284,15.29191,-40.69559,1007.992
1.742093563,-1.306142,-0.1167571,0.2321067,0.08518068,-0.7539311,0.6533028,10.84232,14.52965,-40.69187,1007.992
1.774266243,-3.94765,1.362868,0.4772548,0.09114455,-0.7287164,0.653937,10.84258,14.91078,-40.69373,1007.99
1.808914185,-36.81292,2.960863,1.273986,0.08288299,-0.7199771,0.7119261,10.84258,14.91078,-40.69373,1007.99
1.841086864,-51.37193,-1.418827,-1.545217,0.07273241,-0.7623171,0.6278039,10.47016,14.5407,-40.24366,1007.99
1.875733852,-43.0174,-2.898453,-0.1969024,0.1007755,-0.7965445,0.613282,11.2331,16.44131,-39.81055,1007.99
1.907906532,-43.57027,-4.674003,-0.1969024,0.08272567,-0.8370318,0.5755208,11.2331,16.44131,-39.81055,1007.992
1.942553520,-29.74842,-4.141338,-1.361356,0.0942523,-0.8802587,0.5162529,10.48403,17.98227,-39.36785,1007.992
1.974726677,-4.869106,1.126128,1.580421,0.1213998,-0.8568634,0.4834165,10.8743,19.13167,-38.4828,1007.994
2.009374142,5.205482,2.546568,3.541606,0.07740723,-0.8746411,0.5415204,10.8743,19.13167,-38.4828,1007.996
2.041546822,13.80574,2.309828,1.212699,0.0881473,-0.8229861,0.5751039,10.87481,19.89394,-38.48652,1007.996
2.073719025,3.608291,0.8893881,1.702995,0.0879333,-0.7772791,0.5856047,11.24646,19.12062,-38.93102,1007.996
2.108366489,0.5982007,1.599608,4.828633,0.1011758,-0.7830494,0.5381976,11.24646,19.12062,-38.93102,1007.996
2.140538693,3.239708,2.842494,10.22189,0.06323684,-0.8460572,0.5255002,10.49033,18.75022,-38.92529,1007.996
2.175186634,4.468317,-0.1167571,9.057438,0.07799111,-0.8117298,0.5805935,11.62992,18.7398,-38.48481,1007.994
2.207359314,-6.89631,0.119983,12.5508,0.07194927,-0.789663,0.6058958,11.62992,18.7398,-38.48481,1007.996
2.242006302,-21.94676,-2.898453,1.335273,0.0156228,-0.8920518,0.5728013,10.87404,18.75054,-38.48094,1007.996
2.274178982,-28.02837,-3.253563,-4.36442,0.06882086,-0.7980514,0.5860938,11.25224,19.1263,-38.48473,1007.996
2.308826923,-26.43118,-5.029113,-1.606504,0.08769652,-0.8581757,0.4803461,11.25224,19.1263,-38.48473,1007.996
2.340999603,-2.47332,-0.5310522,5.380217,0.09592312,-0.8669842,0.4763408,12.0139,19.12125,-38.04232,1007.994
2.375646591,3.301139,4.913969,8.260707,0.03683577,-0.8711168,0.5318059,10.88637,19.90531,-37.59396,1007.994
2.407819271,3.055417,-0.2943121,1.273986,0.05664695,-0.9124983,0.528388,10.88637,19.90531,-37.59396,1007.994
2.442466259,11.77854,1.362868,-1.729078,0.06107052,-0.8308055,0.5507101,11.64277,20.65684,-37.60155,1007.994
2.474638939,1.826809,0.8893881,-0.4420505,0.06768294,-0.8078651,0.5715636,11.63673,20.27002,-38.04597,1007.994
2.509286881,-10.21355,-0.1759421,1.273986,0.07104644,-0.7803665,0.5519969,11.63673,20.27002,-38.04597,1007.994
2.541459561,-18.44523,2.605753,4.583486,0.05805597,-0.8410246,0.545352,10.88085,20.28076,-38.0421,1007.994
2.576106548,-27.22977,-1.122902,-0.1356154,0.03829988,-0.8759596,0.5341624,11.64251,20.27571,-37.59969,1007.998
2.608279228,-25.87831,0.119983,-0.01304135,0.09175654,-0.8174334,0.4791981,11.64251,20.27571,-37.59969,1007.998
2.640451908,-23.05251,2.132273,4.031902,0.04064944,-0.8596126,0.5154772,11.27034,20.28676,-37.15147,1007.998
2.675099373,-23.91253,-2.720898,-0.6259116,0.04771156,-0.9468885,0.4689019,11.27112,21.43016,-37.15706,1007.998
2.707272053,-6.834879,-0.2351271,-0.6871986,0.06458697,-0.9099244,0.4266332,11.27112,21.43016,-37.15706,1007.998
2.741919517,6.556951,0.297538,-0.01304135,0.05210716,-0.9058037,0.4494376,11.66139,22.57956,-36.27201,1007.997
2.774091721,11.34852,-0.2351271,-0.3194765,0.0631879,-0.8741114,0.4751414,11.66716,22.58525,-35.82573,1008.001
2.808739185,5.082621,0.179168,0.1095327,0.05647177,-0.86285,0.4834909,11.28344,22.58493,-36.27008,1007.999
2.840912342,1.94967,0.9485732,1.028838,0.05693984,-0.8715748,0.4853427,11.28344,22.58493,-36.27008,1007.999
2.875559330,3.731152,-0.4126822,-0.4420505,0.05263964,-0.870986,0.4959916,11.66113,22.19843,-36.27015,1007.999
2.907732010,-1.736155,-0.2351271,-0.4420505,0.0590129,-0.8589016,0.4936218,11.67186,22.20898,-35.44135,1007.997
2.942379475,-3.824789,0.179168,-0.1969024,0.06224254,-0.8755293,0.4794765,11.67186,22.20898,-35.44135,1007.997
2.974551678,0.352479,0.415908,0.2933938,0.06389314,-0.9043437,0.4575337,11.65509,21.81161,-36.71457,1007.997
3.009199619,1.642518,-0.1759421,-0.4420505,0.05634671,-0.8803722,0.4770817,11.66004,21.81648,-36.33205,1007.997
3.041372299,-1.797585,0.5934631,0.04824567,0.05703308,-0.8676214,0.4945323,11.66004,21.81648,-36.33205,1007.999
3.076019287,-2.47332,0.7118331,-0.07432837,0.05556135,-0.8724569,0.4959522,11.27658,22.1973,-36.77825,1007.998
3.108191967,-9.353526,0.001612922,-0.4420505,0.05832691,-0.8793891,0.4799633,12.03907,22.19306,-36.27209,1007.996
3.140364647,-9.9064,-0.05757209,-0.1356154,0.0572092,-0.8872502,0.4668949,12.03907,22.19306,-36.27209,1007.996
3.175012589,-6.466297,0.179168,-0.5033376,0.05217407,-0.903325,0.4562054,11.66004,21.81648,-36.33205,1007.998
3.207184792,-1.183281,-0.4126822,-1.48393,0.05843656,-0.9102005,0.4498243,11.67212,22.59012,-35.44321,1007.998
3.241832256,3.669721,-0.05757209,-1.300069,0.06495113,-0.8805791,0.4557917,11.67212,22.59012,-35.44321,1007.998
3.274004936,5.451203,0.415908,0.4159678,0.06155616,-0.8882801,0.4620259,11.67237,22.97125,-35.44507,1007.998
3.308651924,6.741242,0.356723,0.6611159,0.06360342,-0.8877196,0.4730974,11.66082,22.95988,-36.33763,1007.998
3.340825081,4.038304,0.119983,0.1708197,0.05928632,-0.8745733,0.475656,11.66082,22.95988,-36.33763,1007.998
3.375472546,0.1067573,-0.05757209,-0.3807635,0.05434218,-0.8823446,0.4717821,11.2884,22.5898,-35.88755,1007.998
3.407644749,0.2296182,-0.4718672,-0.5033376,0.0587459,-0.8813885,0.4727129,12.03932,22.57419,-36.27395,1007.998
3.442292214,2.502543,-0.1167571,-0.07432837,0.06267793,-0.8804153,0.4755762,12.03932,22.57419,-36.27395,1007.998
3.474464893,2.0111,-0.2351271,-0.3194765,0.0612101,-0.8823458,0.476056,12.04428,22.57907,-35.89142,1007.998
3.509112358,0.4139094,-0.1167571,-0.2581894,0.05592331,-0.8716068,0.4805319,11.27767,22.57924,-36.71636,1007.996
3.541285038,-1.121851,0.001612922,-0.1969024,0.05728184,-0.8775128,0.4708305,11.27767,22.57924,-36.71636,1007.999
3.575932503,-2.841902,0.238353,-0.1969024,0.05972592,-0.8823569,0.4736598,11.6603,22.19761,-36.33391,1007.999
3.608104706,-4.070511,0.06079794,-0.5033376,0.05927428,-0.8774857,0.4756322,12.03932,22.57419,-36.27395,1007.999
3.642752647,-7.694905,-0.2943121,-0.7484856,0.0626698,-0.8804227,0.4746123,12.03932,22.57419,-36.27395,1007.999
3.674925327,-13.89938,0.356723,-0.5033376,0.05834301,-0.876473,0.4804692,11.28262,22.58412,-36.33383,1007.997
3.707098007,-23.48252,-0.2943121,-0.6259116,0.05600794,-0.85799,0.4840173,12.04562,23.34214,-35.83139,1007.997
3.741744995,-38.41011,-0.2943121,-0.7484856,0.06176237,-0.8687499,0.477127,12.04562,23.34214,-35.83139,1007.997
3.773917675,-80.12136,-0.2351271,-1.606504,0.04755887,-0.8368483,0.5136724,11.6666,22.96557,-35.89135,1007.997
3.808565617,-165.7554,-8.994509,-10.73827,-0.02594979,-0.7918317,0.5132835,12.07446,24.51316,-33.66932,1007.997
3.840737820,-408.7741,-32.01748,-46.9589,0.06394137,-0.3348424,0.4781342,12.07446,24.51316,-33.66932,1007.995
3.875385284,-694.8555,-31.83993,-89.30824,0.2549334,-1.047096,-0.4337508,11.74403,26.46967,-30.10645,1007.995
3.907557964,-601.5427,21.90007,-120.1969,0.2644507,-1.712641,-1.070264,10.41875,33.91135,-16.1081,1007.995
3.942204952,-222.9471,27.22672,-146.06,0.09176122,-1.649944,-0.9187157,6.93097,41.93304,5.996477,1007.997
3.974378109,-56.28637,19.65104,-172.8424,0.04986212,-1.08375,-0.6615713,6.93097,41.93304,5.996477,1007.997
4.009025574,-11.56502,9.234475,-177.5003,0.1832151,-0.7897995,-0.7886041,2.497535,41.33589,13.92895,1007.996
4.041197777,-4.561954,12.96313,-175.3552,0.3436097,-0.596381,-0.8429721,-5.417887,38.80344,15.76771,1007.996
4.075845242,2.133961,21.90007,-166.5912,0.4172885,-0.3917213,-0.9431923,-5.417887,38.80344,15.76771,1007.994
4.108017921,-5.299119,36.10447,-156.1111,0.5286664,-0.3099252,-1.027425,-12.97801,36.94162,15.816,1007.994
4.142665386,-23.72824,56.99678,-138.6443,0.558813,-0.2134608,-1.087161,-19.84571,34.37121,15.86415,1007.992
4.174838066,-25.75545,66.46638,-124.2418,0.6157181,-0.1278794,-1.093253,-19.84571,34.37121,15.86415,1007.992
4.207010746,-20.28814,88.8975,-109.9007,0.6517118,-0.07210942,-1.076259,-25.52893,30.62903,15.01921,1007.99
4.241657734,-1.367573,116.0042,-89.4921,0.6103202,-0.02543813,-1.03018,-29.70618,26.8597,13.72025,1007.991
4.273830414,14.5429,132.576,-73.98648,0.5457762,0.04484492,-1.021286,-29.70618,26.8597,13.72025,1007.991
4.308478355,13.43716,154.4745,-56.33582,0.5538042,0.1402693,-1.0413,-34.66685,23.83575,10.25378,1007.991
4.340651035,14.42004,200.5204,-31.33071,0.5473908,0.1576461,-1.057967,-36.61504,21.51976,5.875566,1007.989
4.375298023,-13.83795,276.8691,-9.573817,0.4962674,0.1874665,-1.000368,-36.61504,21.51976,5.875566,1007.987
4.407470703,-46.15034,339.1909,26.64681,0.3671762,0.2269262,-0.8759286,-38.60947,19.15828,-2.072896,1007.986
4.442118645,-34.17142,404.5904,76.47316,0.3544129,0.2433247,-0.8347043,-38.72941,18.65939,-11.31542,1007.982
4.474290848,-3.640498,477.0328,114.7775,0.2597907,0.06194246,-0.624683,-38.72941,18.65939,-11.31542,1007.982
4.508938313,-596.2597,347.9503,-279.7271,-0.09368956,-1.362373,-6.928522,-33.95193,20.36045,-21.93309,1007.984
4.541110993,-350.6609,-138.728,88.60799,1.805048,-1.131447,8.640635,-21.80958,23.28321,-18.43962,1007.983
4.575758457,311.1289,-93.68827,143.4599,1.748605,-0.9334727,-0.09440999,-21.80958,23.28321,-18.43962,1007.983
4.607931137,430.1197,165.2462,103.991,0.6052157,-0.2881236,-0.2905005,-23.25377,31.75053,-13.69124,1007.981
4.642578602,112.5244,143.5253,38.78164,0.6516355,0.3761932,1.545177,-20.73784,32.72803,-23.78355,1007.981
4.674750805,-140.0775,-10.94761,5.196356,0.5089484,-0.1241024,1.532262,-20.73784,32.72803,-23.78355,1007.981
4.709398746,-108.7479,-87.76977,47.54569,0.6640736,-0.712013,1.112412,-15.90856,26.86247,-29.96495,1007.979
4.741571426,90.83949,-102.2701,53.91954,0.1749001,-0.8943804,1.003167,-14.28712,28.79043,-26.47582,1007.979
4.773744106,127.452,-138.6097,74.32812,0.147434,-0.3161715,0.9392646,-14.28712,28.79043,-26.47582,1007.985
4.808391094,0.659631,-170.0369,77.02474,0.2289703,-0.2824274,0.5208884,-15.05931,30.30865,-27.81824,1007.985
4.840563774,-7.203462,-166.8409,85.17592,0.3679677,-0.5513858,0.3506022,-16.62905,29.1933,-27.35832,1007.985
4.875211716,78.43054,-182.6433,98.90421,0.5574324,-0.6753379,0.1342867,-18.47779,30.0222,-24.22841,1007.983
4.907383919,177.0878,-189.8047,117.4742,0.7170461,-0.5618225,-0.1487185,-18.47779,30.0222,-24.22841,1007.981
4.942031384,217.0175,-212.8277,140.5794,1.077776,-0.4154742,-0.3243978,-19.6048,31.56853,-23.78377,1007.98
4.974204063,174.3848,-56.10578,201.1923,1.007858,-0.3684931,-0.1305583,-20.39111,29.26404,-26.00014,1007.982
5.008851528,37.08786,-31.01134,220.2525,0.6072842,-0.4931726,-0.003010527,-20.39111,29.26404,-26.00014,1007.982
5.041024208,-34.90858,-43.20345,178.7612,0.356106,-0.8649639,-0.03843582,-18.90324,28.07643,-27.78741,1007.982
5.075671673,36.965,-40.36257,155.9624,0.1110067,-0.9276183,-0.1388492,-13.91997,29.9171,-27.3759,1007.98
5.107843876,92.37524,-23.31728,143.0922,0.26811,-0.8235296,-0.135119,-13.91997,29.9171,-27.3759,1007.982
5.142491341,103.7399,19.11837,207.321,0.8670115,-0.983321,0.3635927,-9.028064,32.4925,-29.19919,1007.984
5.174664497,113.5073,17.46119,219.1494,0.05647629,-1.184382,0.5815781,-4.905342,31.25675,-31.82881,1007.984
5.209311485,102.2041,12.60802,200.0891,-0.2827263,-1.163918,0.6249179,-4.905342,31.25675,-31.82881,1007.984
5.241484165,-56.83924,-40.54012,167.1167,0.5952742,-2.983397,2.096888,2.995177,28.8231,-34.53593,1007.984
5.276131630,235.8767,-27.51942,-107.1428,-0.4221125,-1.540686,-0.7399822,8.672484,23.7992,-33.64819,1007.984
5.308304787,206.5744,-3.253563,-54.92622,0.4379523,-0.4384315,0.3778724,8.672484,23.7992,-33.64819,1007.982
5.340476990,115.2274,-1.122902,-4.609568,0.336012,0.08366781,0.4800097,9.413087,26.82048,-35.00579,1007.984
5.375124455,-98.24333,19.35511,26.64681,0.1508439,-0.4459378,0.4783354,7.089641,19.94194,-38.91346,1007.984
5.407297134,-24.46541,33.73707,49.26172,0.1090996,-1.849734,0.3129121,7.089641,19.94194,-38.91346,1007.988
5.441944599,108.7772,-4.082153,-13.4349,-0.08190012,-0.9259061,0.714658,7.490434,19.57817,-37.12842,1007.988
5.474117279,-19.42811,-5.384223,-57.62284,0.4128927,-0.4879376,0.6138779,9.735219,19.90436,-38.927,1007.99
5.508764744,-39.70015,17.28364,-9.022234,0.04261999,-0.6681122,0.4249757,9.735219,19.90436,-38.927,1007.99
5.540936947,12.26998,23.20214,14.26684,0.06886422,-0.9869754,0.5083799,8.983573,17.63398,-38.46569,1007.99
5.575584412,59.14138,11.18758,2.867449,-0.007266371,-0.8600174,0.6209969,9.362798,19.53428,-38.47693,1007.99
5.607757568,8.707016,9.234475,-18.95073,0.2277377,-0.7303661,0.5909529,9.362798,19.53428,-38.47693,1007.992
5.642404556,2.871126,23.26132,-5.835309,0.1317617,-0.7669041,0.5115353,10.10032,17.98195,-39.81219,1007.996
5.674577236,40.03652,29.47575,9.670308,0.1124198,-0.9087774,0.5433222,10.47826,17.97658,-39.81413,1007.997
5.709224701,24.86321,12.37128,-9.022234,0.05770542,-0.7317228,0.6831443,10.47826,17.97658,-39.81413,1007.999
5.741397858,-25.44829,6.511964,-19.80875,0.03900282,-0.7259349,0.6033545,10.85594,17.59008,-39.8142,1007.999
5.776044846,7.232685,7.75485,-25.75359,0.00296584,-0.8881295,0.6327196,11.98873,16.04944,-39.81256,1007.999
5.808217525,29.53193,10.29981,-20.42162,-0.05598536,-0.7814384,0.7088592,11.98873,16.04944,-39.81256,1007.999
5.840390205,6.864103,10.18144,-26.06003,0.01479212,-0.6966651,0.6698557,11.98424,17.94943,-40.26814,1007.999
5.875037670,-0.0775339,2.369013,-23.42468,-0.006937191,-0.6784543,0.6885246,12.73934,16.79529,-40.26643,1007.997
5.907210350,-1.859016,1.717978,-19.80875,0.1033277,-0.7785999,0.6760661,12.73934,16.79529,-40.26643,1007.997
5.974030018,-28.51981,-0.3534971,-4.609568,0.1331591,-0.7225958,0.6564874,11.60026,17.56798,-40.71063,1007.997
6.008677959,-22.13105,-3.135193,-4.854716,0.09835096,-0.8173118,0.6251835,11.98976,17.57398,-39.82,1007.996
6.040850639,-14.63654,-5.443408,-7.122336,0.1151424,-0.8065368,0.5855916,11.98976,17.57398,-39.82,1007.996
6.075497627,-14.08367,0.06079794,-3.874124,0.1445965,-0.8006833,0.5453591,11.61837,18.72843,-39.37737,1007.997
6.107670307,14.7272,4.558859,1.151412,0.153034,-0.801563,0.5626251,10.85697,19.11461,-39.82164,1007.997
6.142318249,21.17739,9.29366,7.954272,0.1725896,-0.7562466,0.6611441,10.85697,19.11461,-39.82164,1007.999
6.174490929,4.222595,14.97542,14.14426,0.1296931,-0.7719483,0.6744289,11.61285,19.10388,-39.82551,1007.997
6.209137917,-3.026194,15.8632,13.04109,0.1194277,-0.8023408,0.6289662,11.99027,18.33624,-39.82372,1007.999
6.241310597,7.232685,14.6795,13.59268,0.1079061,-0.8011051,0.5929339,11.99027,18.33624,-39.82372,1007.999
6.275957584,11.83997,16.09994,19.53752,0.08978687,-0.7711293,0.6290181,12.74012,17.93869,-40.27201,1007.999
6.308130741,3.854012,13.37743,22.60187,0.07613584,-0.8015146,0.6452829,13.496,17.92795,-40.27588,1007.999
6.340303421,10.11992,13.14069,24.19533,0.04946221,-0.8592212,0.6349341,13.496,17.92795,-40.27588,1008.001
6.374950886,24.92465,11.36514,23.21474,0.05193536,-0.7963391,0.6084374,14.26292,17.16632,-39.38346,1007.999
6.407123089,32.91059,21.18985,29.95631,0.04857923,-0.7373097,0.6451054,15.7689,17.13916,-39.83748,1008.001
6.441771031,15.3415,21.48577,31.67235,-0.01936409,-0.716356,0.737974,15.7689,17.13916,-39.83748,1008.001
6.473943710,-7.080601,16.81016,27.81127,-0.02629961,-0.7052943,0.7202959,15.75605,15.22212,-40.72073,1008.001
6.508590698,-14.69797,20.36126,24.37919,-0.03346805,-0.7393788,0.6386239,16.89437,13.30603,-40.27095,1008.001
6.540763378,-9.292095,24.62258,24.8082,-0.05726209,-0.7778385,0.6713049,16.89437,13.30603,-40.27095,1008.003
6.575411320,-12.24076,24.62258,19.10851,-0.0548512,-0.7691728,0.6636418,18.41819,14.0582,-39.38985,1008.003
6.607584000,-21.14816,28.35123,23.64375,-0.07731833,-0.7424453,0.5903259,19.23758,14.80883,-39.39776,1008.003
6.642230987,7.294116,29.17982,23.82761,-0.1167299,-0.8011389,0.6326257,19.23758,14.80883,-39.39776,1008.003
6.674403667,7.785559,28.76553,17.02475,-0.08080044,-0.802972,0.6698713,19.93599,14.42354,-38.95316,1008.003
6.709051609,0.5982007,29.89005,23.09217,-0.152696,-0.7282919,0.6147639,21.90023,14.40717,-38.07059,1008.003
6.741223812,-8.677792,24.9185,18.98594,-0.1440222,-0.7424966,0.6666217,21.90023,14.40717,-38.07059,1008.003
6.775871277,-12.36362,21.18985,20.94712,-0.1673944,-0.7505167,0.6185738,22.27766,13.63954,-38.06881,1008.008
6.808043957,-9.96783,15.8632,15.79901,-0.181214,-0.7414026,0.5956419,24.17339,13.99951,-37.63406,1008.008
6.842691898,-6.466297,11.8978,15.37,-0.242047,-0.7476811,0.5604898,24.17339,13.99951,-37.63406,1008.008
6.874864101,0.659631,7.87322,17.20861,-0.2494243,-0.735645,0.6059658,25.31324,14.37023,-37.19544,1008.008
6.907036781,-4.561954,8.169145,20.0891,-0.2679341,-0.773724,0.6284786,26.07408,14.36436,-36.81678,1008.007
6.941683769,-0.01610349,8.10996,20.5794,-0.2789313,-0.7705233,0.5958317,26.07408,14.36436,-36.81678,1008.005
6.973856449,2.809695,13.55498,22.17286,-0.3216828,-0.7208114,0.5947124,26.06887,13.97836,-37.19745,1008.005
7.008504391,-9.9064,12.48965,24.8082,-0.3386555,-0.7235305,0.6088263,27.58558,13.96175,-36.82265,1008.005
7.040677071,-0.3232556,14.14683,27.01454,-0.3323453,-0.7801329,0.5740789,27.58558,13.96175,-36.82265,1008.007
7.075324059,6.065507,16.51423,27.87255,-0.285827,-0.7429839,0.5749151,27.96904,13.58094,-36.37645,1008.005
7.107496738,-0.01610349,22.90621,24.07276,-0.3351088,-0.7016681,0.6137934,28.35275,13.58125,-35.9321,1008.003
7.142144680,-2.350459,25.86547,27.68869,-0.3406966,-0.724569,0.5987148,29.10234,12.80256,-36.37853,1008.003
7.174316883,2.256822,26.04302,32.65294,-0.3416012,-0.7607296,0.5666132,29.10234,12.80256,-36.37853,1008.003
7.208964348,10.79565,27.58183,30.81433,-0.3489271,-0.7906799,0.5804126,30.25298,12.04125,-35.04177,1008.007
7.241137028,12.33141,28.41042,29.83374,-0.4020087,-0.7463112,0.5721157,31.38628,11.26287,-35.04385,1008.005
7.275784969,16.32439,28.76553,29.22087,-0.3754444,-0.6553376,0.5533379,31.38628,11.26287,-35.04385,1008.007
7.307957172,10.79565,25.86547,24.68563,-0.4075931,-0.6425514,0.5542252,33.27496,9.711498,-35.04607,1008.009
7.342604637,3.116848,20.77555,15.92159,-0.434944,-0.661296,0.5605919,33.66342,8.192966,-34.148,1008.007
7.374777794,-2.104738,14.97542,6.728531,-0.4564969,-0.6694837,0.5549415,33.66342,8.192966,-34.148,1008.007
7.406950474,-11.25787,7.04463,-0.5646245,-0.4659823,-0.6889746,0.5389634,35.18121,8.55831,-33.71132,1008.007
7.441597462,-36.19862,3.256788,-12.82203,-0.4661992,-0.7302379,0.4750013,35.18096,8.177176,-33.70946,1008.007
7.473770142,-49.83617,6.038485,-19.31845,-0.4214041,-0.7469935,0.4710712,35.18096,8.177176,-33.70946,1008.008
7.508418083,-58.55929,15.27135,-21.58607,-0.4176775,-0.8129022,0.4237391,35.94365,9.696657,-33.27449,1008.006
7.540590286,-48.17755,23.14295,-26.42775,-0.3880716,-0.8349577,0.415087,36.7121,11.22182,-32.39324,1008.006
7.575237751,-28.94983,32.84929,-23.66983,-0.4006237,-0.9203255,0.4145004,36.7121,11.22182,-32.39324,1008.004
7.607409954,27.19757,40.24742,-28.63408,-0.3608446,-1.03382,0.3249876,36.71994,14.27658,-31.96184,1008.006
7.642057896,103.1256,54.68856,-35.25308,-0.3514845,-0.9766871,0.2496973,37.48944,17.32628,-31.08804,1008.003
7.674230575,117.9303,67.82764,-43.15911,-0.3224435,-0.8214151,0.2622744,37.48944,17.32628,-31.08804,1008.004
7.708878040,91.82237,82.86063,-43.71069,-0.3354546,-0.7796876,0.3779377,38.63976,17.32642,-29.81875,1008.007
7.741050243,70.62888,88.77913,-48.30722,-0.4492863,-0.9257243,0.375386,40.15704,16.92949,-29.37835,1008.007
7.775698185,155.4643,102.2141,-44.01712,-0.3824951,-0.9744714,0.3912309,40.15704,16.92949,-29.37835,1008.008
7.807870865,202.95,124.4085,-61.66779,-0.3549143,-1.017303,0.2677105,40.93629,17.32263,-27.59895,1008.008
7.842517853,218.9833,125.5922,-75.02836,-0.5841368,-0.6490141,0.8614069,42.45383,17.30684,-27.1604,1008.007
7.874690533,166.2146,104.8774,-70.30926,-0.6477265,-0.6791885,0.6838938,42.45383,17.30684,-27.1604,1008.008
7.909338474,163.2659,94.57926,-67.67391,-0.4798398,-0.8606005,0.3665679,43.22024,15.78294,-26.26427,1008.008
7.941511154,283.731,100.9121,-67.61263,-0.4082443,-0.5561759,0.5510874,42.85886,14.66196,-24.91791,1008.01
7.973683357,296.8156,111.447,-76.19281,-0.5888358,-0.5847327,0.4450512,42.85886,14.66196,-24.91791,1008.01
8.008330822,305.9688,127.4269,-69.14481,-0.6892828,-0.2958789,0.1986941,41.72953,12.77808,-24.45652,1008.01
8.040503979,210.2602,118.1349,-78.64429,-0.8344046,-0.1311028,0.3874584,42.11615,9.734205,-23.61477,1008.01
8.075150967,206.0829,149.2662,-94.88535,-1.073405,-0.2290133,-0.19,42.53144,5.195029,-20.47041,1008.01
8.107323647,254.6744,180.5751,-89.30824,-1.290949,0.2901,-0.4868682,42.53144,5.195029,-20.47041,1008.01
8.141971111,149.0141,148.7927,-39.4206,-1.53074,1.289726,-0.2951579,44.11012,4.096748,-15.2447,1008.007
8.174144268,-448.7653,12.72639,-26.42775,-0.9425437,0.370439,1.156089,45.67934,4.893578,-10.85711,1008.007
8.208791256,-168.0897,64.57246,-14.59935,-0.7541819,-1.461994,0.1246162,45.67934,4.893578,-10.85711,1008.007
8.240963936,108.7157,79.54626,-4.793429,-0.7884657,-0.05244766,0.3573123,45.74419,6.861779,-5.957323,1008.007
8.275611878,-53.522,74.75228,-24.58914,-0.8670669,-0.3174931,0.3655006,46.90633,7.25442,-3.797338,1008.007
8.307784081,22.71315,93.33637,-16.49925,-0.8371515,-0.1715434,0.4286026,46.90633,7.25442,-3.797338,1008.009
8.342431545,4.95976,105.5285,-11.28985,-1.030383,-0.4096753,0.1392428,46.95307,8.062165,-0.230814,1008.009
8.374604225,-1.920446,96.29562,-15.27351,-1.022449,-0.2891915,0.0958181,46.23732,8.874151,2.829542,1008.01
8.409251690,-3.087624,71.14199,-3.874124,-0.9378138,-0.2738687,-0.002691207,46.23732,8.874151,2.829542,1008.01
8.441424370,-3.210485,70.66851,11.50892,-1.051588,-0.3097485,0.1807524,45.91164,9.311817,6.846142,1008.01
8.476071835,1.335366,70.60933,6.667244,-1.125227,-0.2420857,0.09571947,45.18961,9.355852,9.463938,1008.01
8.508244038,-5.237689,83.68922,18.74079,-0.9045328,-0.3972176,0.01044133,45.18961,9.355852,9.463938,1008.01
8.540416718,-5.48341,86.35254,25.17593,-1.052903,-0.1716767,-0.04270878,45.2298,9.014512,12.58976,1008.01
8.575064659,-13.96081,79.90137,20.45683,-0.9869628,-0.2783337,0.01604657,44.12931,8.301647,15.21321,1008.01
8.607237339,-5.48341,71.43792,21.86643,-0.8026651,-0.299188,-0.05187897,44.12931,8.301647,15.21321,1008.009
8.641884327,-8.984943,75.64005,37.24947,-0.9236576,-0.1341461,-0.1279553,43.7913,7.584544,18.34283,1008.009
8.674057007,-13.46936,102.3917,33.81739,-1.04518,-0.3003849,-0.04866192,42.31261,6.495914,20.97008,1008.01
8.708704948,-11.19644,105.1734,31.67235,-1.108755,-0.176399,-0.1246485,42.31261,6.495914,20.97008,1008.013
8.740877151,-6.404867,109.2571,27.93384,-1.184657,-0.1567327,-0.4558758,40.84605,5.038333,24.55551,1008.011
8.775524616,39.1765,97.83443,30.5079,-1.196854,-0.2793843,-0.570525,38.24458,3.214912,28.08484,1008.009
8.807697773,60.55428,81.20345,37.5559,-1.012907,-0.1590586,-0.4579795,38.24458,3.214912,28.08484,1008.009
8.842344761,57.23704,69.24808,52.2035,-0.9154453,-0.1311378,-0.4880607,36.0111,2.518965,30.77785,1008.009
8.874517441,43.10804,55.10286,67.40268,-0.9259595,-0.01393393,-0.4021644,33.0107,2.584653,32.57844,1008.009
8.909164906,31.80485,36.22284,74.94099,-0.9857233,-0.1386068,-0.3688946,33.0107,2.584653,32.57844,1008.008
8.941338062,56.06986,1.717978,67.58655,-1.117478,-0.1307704,-0.2557768,30.76561,3.019925,34.30955,1008.006
8.975985050,82.1778,-27.69697,57.16775,-1.15183,-0.03461966,-0.2088736,29.26488,2.290501,35.21357,1008.006
9.008157730,60.12427,-51.96283,31.12077,-1.161117,0.03988219,-0.2467327,29.26488,2.290501,35.21357,1008.006
9.042805672,56.80703,-88.89428,25.11464,-1.002185,0.1331725,-0.1944267,28.49167,2.284184,33.87859,1008.01
9.074978352,31.55913,-95.81893,22.60187,-0.9670196,0.2861674,-0.03250568,29.22495,3.012974,32.08588,1008.008
9.107150555,-55.11919,-96.88425,5.686652,-1.028387,0.05558547,-0.1389099,29.22495,3.012974,32.08588,1008.008
9.141798019,-48.42327,-115.6459,-27.22448,-1.047683,-0.2617443,-0.07482998,30.71546,4.494107,30.34933,1008.005
9.173970223,-13.28507,-99.96188,-3.874124,-0.9907685,0.01686434,-0.2894819,32.94847,3.285198,27.72939,1008.005
9.208618164,-96.46185,-126.7135,37.43333,-0.9897976,0.3787864,-0.05852154,33.68073,2.489455,25.94411,1008.003
9.240790844,-202.245,-125.2339,3.235171,-1.095675,0.4007547,-0.2993162,33.68073,2.489455,25.94411,1008.001
9.275438309,-264.7812,-141.3322,-30.65655,-1.037858,0.1402247,-0.4359994,36.27927,1.199473,22.36623,1007.999
9.307611466,-154.8822,-126.2992,-48.00078,-0.9950877,-0.2227858,-0.3391353,38.4929,-3.075558,18.42232,1007.997
9.342258453,-38.65583,-89.30858,-48.67494,-0.9278958,-0.0168861,-0.2826349,38.4929,-3.075558,18.42232,1007.997
9.374431133,-27.59836,-82.62067,-28.63408,-0.9750434,0.07245918,-0.2453084,40.70782,-5.444921,14.46911,1007.996
9.409078121,-37.9801,-83.15334,-32.12744,-0.8983452,0.1040324,-0.1927438,41.79567,-5.125373,10.8912,1007.994
9.441251278,-86.2644,-69.00812,-39.05288,-0.757372,0.1588904,-0.226383,41.79567,-5.125373,10.8912,1007.99
9.475898743,-123.737,-57.34867,-20.36033,-0.7347074,0.03042146,-0.2546456,42.52946,-3.634315,9.09477,1007.989
9.508071423,-77.35699,-48.17499,-22.32152,-0.7279468,-0.06642842,-0.1581432,44.00212,-2.932504,6.023102,1007.991
9.542718887,-93.26746,-27.81534,-20.48291,-0.7109862,0.06818199,-0.06320179,44.00212,-2.932504,6.023102,1007.991
9.574891567,-179.0243,-9.882284,-19.93132,-0.7702906,0.09770183,-0.04987306,44.35669,-3.341745,4.237907,1007.987
9.607064247,-260.0511,4.558859,-23.97627,-0.7992504,-0.007167851,-0.1352993,44.72359,-2.596217,3.339691,1007.984
9.641711235,-277.0673,13.61417,-21.95379,-0.746613,-0.1370114,-0.1966288,44.72359,-2.596217,3.339691,1007.98
9.673883915,-262.754,33.26359,-7.980354,-0.6784198,-0.263268,-0.03442619,43.96167,-2.972298,2.899137,1007.98
9.708531856,-199.2964,66.46638,27.01454,-0.9375374,-0.5225059,-0.08186348,44.34513,-3.353115,3.345346,1007.98
9.740704536,-87.37015,52.38035,54.47112,-1.173769,-0.6029444,-0.2798701,44.34513,-3.353115,3.345346,1007.977
9.775351524,8.215572,26.75324,65.50278,-1.106583,-0.4710366,-0.1883117,43.97849,-3.71751,4.241701,1007.975
9.807524681,63.99439,39.41883,62.74487,-1.070497,-0.4452011,-0.08769752,43.62212,-5.976203,6.039923,1007.975
9.842172146,76.03475,45.4557,45.95222,-1.130399,-0.3031821,-0.02571782,43.62212,-5.976203,6.039923,1007.975
9.874344349,23.51175,-6.745479,8.689716,-1.240588,-0.1908075,1.384639,42.5046,-7.467577,7.39201,1007.979
9.908992290,-95.54039,0.001612922,-11.28985,-1.023888,-0.8634544,0.08627727,42.14792,-8.964815,9.122755,1007.979
9.941164970,-52.47768,8.997735,-4.180559,-0.8628941,-0.3992132,0.03028033,42.14792,-8.964815,9.122755,1007.979
9.975811958,29.90051,-6.153628,-5.161151,-1.084401,-0.6351704,-0.3730316,41.7527,-10.11909,7.855183,1007.979
10.007984638,140.4138,-46.1627,-14.35421,-0.9736925,-0.4216717,-0.3101266,42.5075,-10.51177,7.789421,1007.979
10.042632580,187.7767,-16.74775,-6.386892,-0.7876297,-0.1679286,0.04787274,42.5075,-10.51177,7.789421,1007.979
10.074805260,105.2142,8.642625,0.5998289,-0.9575235,0.02475178,0.06261449,42.13559,-10.11959,8.235777,1007.979
10.106977463,-20.96387,-7.278143,-12.57688,-1.026004,-0.03739872,0.01550516,42.14317,-7.445966,8.669031,1007.979
10.141624928,-86.81728,-3.727043,-19.5636,-0.9151179,-0.227778,-0.05361496,42.14317,-7.445966,8.669031,1007.979
10.173798084,-79.26133,12.01617,-15.82509,-0.9065245,-0.3139955,-0.1508058,42.89328,-7.462389,8.218884,1007.979
10.208445549,-20.65672,4.499674,-7.612632,-0.9648269,-0.3017906,-0.2422231,42.13873,-6.688572,8.282782,1007.979
10.240617752,22.77458,3.552714,-7.551345,-0.8915671,-0.3349817,-0.2190803,42.13873,-6.688572,8.282782,1007.979
10.275265694,40.22081,15.62646,1.519134,-0.9123453,-0.2864083,-0.1018421,42.88832,-7.467262,7.836357,1007.977
10.307438374,26.6447,16.51423,0.04824567,-0.9646444,-0.2422576,-0.07496217,42.52188,-6.307935,8.661514,1007.976
10.342085362,3.178278,19,-2.280661,-0.9425146,-0.2644563,-0.0440217,42.52766,-6.30225,9.107796,1007.976
10.374258041,56.13129,23.49806,-21.89251,-0.8911493,-0.4908319,-0.03576326,42.52766,-6.30225,9.107796,1007.976
10.408905983,108.7157,39.24128,2.806162,-1.055382,-0.27046,0.1748457,42.53948,-5.909747,9.998495,1007.976
10.441078663,72.96323,7.458925,2.928736,-1.04065,-0.1548756,0.1298712,42.5631,-5.12474,11.7799,1007.976
10.475725651,31.80485,3.848639,4.460911,-0.9438997,-0.1203858,0.06996683,42.5631,-5.12474,11.7799,1007.976
10.507898331,-21.88533,9.352845,1.212699,-0.9590854,-0.2106787,-0.0675237,41.80774,-4.351736,11.78004,1007.98
10.542546272,-8.554931,-5.620963,3.66418,-0.9537665,-0.3165768,-0.1383363,42.19146,-4.351419,12.22439,1007.98
10.574718475,5.942647,5.091524,12.0605,-0.9158053,-0.2932014,-0.1037938,42.19146,-4.351419,12.22439,1007.978
10.609365940,7.90842,3.611899,19.41495,-1.015344,-0.2438557,-0.1260762,41.81326,-4.727184,12.22819,1007.978
10.641539097,0.7824919,-9.882284,15.24743,-0.9103028,-0.270378,-0.09883702,41.44136,-4.334998,12.67454,1007.978
10.673711777,11.40995,7.163,19.35366,-0.8285092,-0.2738588,-0.1198729,41.44136,-4.334998,12.67454,1007.976
10.708358765,14.85006,17.99386,22.4793,-0.902598,-0.2129658,-0.1389236,41.81326,-4.727184,12.22819,1007.976
10.740531444,5.881216,17.87549,21.55999,-0.9434471,-0.1918391,-0.1321022,41.82379,-6.240348,13.12819,1007.976
10.775179386,-6.097714,16.75097,18.55693,-0.9397074,-0.2040971,-0.1457342,41.82379,-6.240348,13.12819,1007.976
10.807351589,-6.773449,20.1837,16.71832,-0.8851063,-0.2232772,-0.1430278,41.44559,-6.616113,13.13198,1007.976
10.841999054,21.79169,39.30046,15.18614,-0.8741132,-0.298496,-0.1341105,41.07895,-6.980508,14.02834,1007.974
10.874172211,58.09706,36.93306,16.22802,-0.9121974,-0.2707622,-0.1499144,41.07895,-6.980508,14.02834,1007.973
10.908819199,66.82019,39.18209,14.51198,-0.8520395,-0.1849001,-0.117474,40.71726,-7.340032,15.30722,1007.971
10.940991878,53.79694,36.45958,12.24436,-0.9106036,-0.1967028,-0.1122048,39.97871,-7.31224,16.64993,1007.971
10.975639820,53.98123,27.46346,7.280114,-0.9461862,-0.2564138,-0.136465,39.97871,-7.31224,16.64993,1007.971
11.007812500,75.05186,20.89392,10.34447,-0.9852562,-0.2731725,-0.1319006,39.61837,-6.908683,17.98885,1007.969
11.042459488,64.54726,6.156855,-0.6259116,-0.8963053,-0.1816493,-0.1020921,39.25275,-5.748545,18.87776,1007.969
11.074632168,38.13218,9.589585,-7.061049,-0.8372085,-0.205555,-0.1428466,39.25275,-5.748545,18.87776,1007.973
11.109280109,21.91455,14.62031,-14.04777,-0.8328474,-0.2462246,-0.1268346,38.89292,-4.582721,20.21295,1007.973
11.141452789,43.2309,18.28978,-12.9446,-0.8775717,-0.2849405,-0.2038564,38.51467,-3.815897,20.14741,1007.973
11.176099777,65.77587,11.54269,-16.7444,-0.9538058,-0.2232837,-0.1881768,38.51467,-3.815897,20.14741,1007.973
11.208272457,52.13831,-10.82924,-29.06309,-0.9224442,-0.1633954,-0.1436317,38.51627,-2.671685,20.20558,1007.971
11.240445614,24.00319,-17.3396,-38.80773,-0.8944716,-0.2180341,-0.09855322,38.53489,-0.7489629,21.53512,1007.971
11.275092602,10.79565,-23.73158,-57.68413,-0.9296949,-0.2338972,-0.1012473,38.52379,1.144523,20.5695,1007.971
11.307265282,1.458226,-29.65008,-68.34808,-0.9114649,-0.2850494,-0.1138891,38.52379,1.144523,20.5695,1007.971
11.341913223,41.818,-33.20118,-72.63817,-0.913075,-0.3982928,-0.1345697,38.52017,3.10884,20.17736,1007.971
11.374085903,73.63897,-24.4418,-76.2541,-0.9077165,-0.3161961,-0.05923293,38.87102,5.742981,17.931,1007.971
11.408732891,36.59642,-40.83605,-74.47678,-1.041241,-0.3564664,-0.01734905,38.87102,5.742981,17.931,1007.971
11.440905571,-17.76949,-62.67532,-87.65349,-1.097787,-0.5597117,0.08850689,38.09986,8.785732,16.58114,1007.971
11.475553513,-37.18151,-82.97578,-122.8322,-0.8650192,-0.7938037,-0.03175681,38.46304,12.57464,15.22176,1007.975
11.507725716,33.70919,-36.2788,-101.6269,-0.7962613,-0.568513,0.0856208,38.46304,12.57464,15.22176,1007.975
11.542373181,16.01723,-62.02428,-89.06309,-1.002992,-0.5150594,0.02340254,37.67538,15.60115,12.59681,1007.975
11.574546337,-19.55097,-88.4208,-99.42059,-0.9460651,-0.8419058,0.1614027,36.5155,19.7813,10.35074,1007.975
11.609193325,11.22566,-82.38393,-93.47575,-0.8076608,-0.6678235,0.2290263,36.5155,19.7813,10.35074,1007.979
11.641366005,-34.66286,-89.66369,-96.29495,-0.868339,-0.60336,0.178068,35.72701,22.807,7.662037,1007.979
11.676013946,-50.57334,-119.4929,-116.8874,-0.6997526,-0.939436,0.1351643,34.93883,25.07124,5.04081,1007.979
11.708186626,-24.95685,-88.24325,-89.98239,-0.6982254,-1.173062,0.4301357,34.93883,25.07124,5.04081,1007.979
11.740358829,1.089644,-83.98193,-89.67596,-0.6995395,-0.6516679,0.2536966,32.64436,28.12409,2.806124,1007.981
11.775006294,-101.622,-79.06957,-79.25716,-0.6028922,-0.6791682,0.2115981,30.72866,31.17239,0.6332588,1007.981
11.807179451,-106.7207,-79.83897,-59.58403,-0.6017845,-0.8404159,0.07288855,30.72866,31.17239,0.6332588,1007.981
11.841826439,-16.84804,-69.54078,-30.84041,-0.4946896,-0.8904758,0.007370617,27.71772,32.75124,1.533848,1007.983
11.873999119,-16.78661,-57.2303,9.547734,-0.4624669,-0.6344798,0.1176303,25.82379,35.0592,1.086073,1007.983
11.908647060,-60.34077,-72.32248,37.67848,-0.5715784,-0.9474426,0.06063838,25.82379,35.0592,1.086073,1007.985
11.940819740,18.90446,-91.43924,56.0033,-0.5215815,-1.116588,-0.06365047,25.43481,35.81547,0.1917248,1007.983
11.975466728,126.8991,-93.1556,86.15651,-0.4476339,-0.9480639,0.05995872,26.56285,35.79367,-0.2603588,1007.983
12.007639408,60.8,-85.10644,67.52526,-0.3246824,-0.9816156,0.1313168,26.56285,35.79367,-0.2603588,1007.983
12.042287350,-3.087624,-83.44926,101.1105,-0.4513773,-1.022852,0.115289,28.394,34.56659,-4.727252,1007.983
12.074460030,36.65785,-97.00262,137.8828,-0.4330097,-1.000451,0.1996522,30.23175,33.34599,-8.68411,1007.983
12.109107018,123.029,-102.6252,151.0595,-0.2316673,-0.8048204,0.08081441,30.23175,33.34599,-8.68411,1007.983
12.141279697,193.244,-51.43016,185.6866,-0.3146394,-0.8275195,-0.08392432,33.60302,31.36358,-10.92361,1007.987
12.175927639,299.9486,-4.733188,204.8695,-0.5053024,-0.7611228,-0.1567898,36.53818,26.28225,-17.4816,1007.987
12.208099842,320.9578,43.5026,203.3986,-0.6048894,-0.330175,0.2116018,36.53818,26.28225,-17.4816,1007.985
12.242747784,90.65519,85.87906,160.559,-0.7886163,0.1652061,0.6989177,39.87728,18.17409,-21.85898,1007.985
12.274920464,-269.0199,15.62646,150.1402,-1.189146,-0.244589,0.7373545,43.66,5.935505,-20.92621,1007.987
12.307093144,-172.2056,-97.18018,113.9808,-1.039604,-0.7169837,0.06160345,43.66,5.935505,-20.92621,1007.985
12.341740131,-114.5224,-91.02494,85.11463,-0.4887654,-0.3938196,0.5305233,46.69592,-1.395447,-19.56717,1007.985
12.373912811,-161.8852,-69.0673,72.85723,-0.6634997,-0.3606195,0.5690594,47.41558,-3.727094,-22.23756,1007.989
12.408560753,-104.9392,-103.6905,56.80003,-0.7670213,-0.4122798,0.4119856,46.62535,-4.51192,-24.8439,1007.987
12.440732956,-165.0796,-88.4208,43.07174,-0.4436631,-0.2528017,0.7192447,46.62535,-4.51192,-24.8439,1007.987
12.475380898,-171.1612,-103.2762,30.81433,-0.5811533,-0.6019598,0.6708953,44.71151,-6.032352,-26.61191,1007.987
12.507553578,-142.5961,-111.0295,8.19942,-0.4682846,-1.151762,1.011867,42.39899,-5.282541,-30.11052,1007.987
12.542200565,-83.80718,-123.1624,-12.63817,-0.4437826,-0.821104,0.9801424,42.39899,-5.282541,-30.11052,1007.987
12.574373245,-83.4386,-121.5644,-22.19894,-0.2842824,-0.6251512,0.8761578,39.34787,-3.36235,-32.33576,1007.987
12.609021187,-84.54435,-115.8826,-31.57586,-0.1512513,-0.6950626,0.7707101,35.52931,-1.442791,-35.44968,1007.987
12.641193867,-21.20959,-98.95573,-30.22754,-0.1339892,-0.6639959,0.7192312,35.52931,-1.442791,-35.44968,1007.989
12.675840855,22.89744,-101.0864,-35.98853,-0.08376344,-0.6130589,0.7481025,30.21245,2.098479,-37.60732,1007.993
12.708014011,-10.64356,-89.66369,-38.74644,0.003989852,-0.502018,0.9164169,26.79969,2.516559,-38.48434,1007.995
12.742661476,-76.61983,-81.96964,-43.83326,0.08396745,-0.4589429,0.8890338,26.79969,2.516559,-38.48434,1007.995
12.774833679,-77.47985,-76.40624,-44.01712,0.09680918,-0.7164588,0.7995491,22.24734,2.94506,-39.80183,1007.995
12.807006359,0.5982007,-63.74065,-38.31743,0.1428464,-0.7899264,0.680424,19.54661,6.038287,-39.35658,1007.995
12.841654301,3.854012,-53.73838,-29.67596,0.2014216,-0.5828637,0.7562944,19.54661,6.038287,-39.35658,1007.997
12.873826981,-28.27409,-47.52395,-15.82509,0.1753369,-0.579514,0.6702874,16.51257,7.594399,-40.24111,1007.997
12.908473968,-23.05251,-53.02816,-14.59935,0.200442,-0.6297684,0.7785708,13.48905,7.637348,-40.22564,1007.997
12.940647125,-53.39914,-88.36162,0.1095327,0.1699972,-0.4094321,0.8818913,13.48905,7.637348,-40.22564,1007.997
12.975294590,-203.8422,-104.9926,32.28522,0.1340486,-0.2217017,0.4037028,11.61142,8.437826,-39.32713,1007.997
13.007467270,-300.1651,-78.24098,46.99411,-0.01239732,-0.7596369,-0.2129508,8.96135,10.37539,-39.76918,1007.995
13.042114735,-120.7883,-34.26651,36.02373,0.2679185,-1.350385,0.2133629,8.96135,10.37539,-39.76918,1007.995
13.074287415,9.075598,11.60188,28.66929,0.2062076,-2.47566,0.9059712,5.99447,17.3299,-35.77068,1007.995
13.108934879,208.4173,10.06307,-47.81692,-0.03361646,-0.5281567,0.4605808,6.019841,21.92543,-34.07164,1007.999
13.141107082,-16.04944,30.12679,-72.08658,0.4110066,-0.0877718,0.8928981,6.019841,21.92543,-34.07164,1007.999
13.175755024,-199.2349,-6.035258,-26.42775,0.1722735,-0.4292325,0.5814211,6.728778,19.58323,-37.57083,1007.997
13.207927704,-240.1476,2.664938,6.605957,0.3708924,-0.8578366,0.2661086,5.994159,18.09136,-35.83815,1007.997
13.242574692,-161.9467,4.262934,16.28931,0.09877146,-1.283459,-0.02888074,5.994159,18.09136,-35.83815,1007.997
13.274747849,-73.17972,-2.365788,8.444568,0.1253043,-1.252961,-0.02212889,6.445292,23.87121,-30.51263,1007.997
13.309395313,17.06155,5.032339,-6.815901,0.1555321,-1.090732,0.01218444,6.110061,28.48916,-27.47281,1007.997
13.341567993,49.37395,20.06533,14.26684,0.2219953,-0.9213908,0.1739482,6.110061,28.48916,-27.47281,1007.997
13.373740196,-6.834879,19.53267,20.94712,-0.1538825,-0.9530392,0.2335885,6.867484,30.76523,-27.48784,1007.997
13.408388138,30.8834,23.67562,12.30565,0.01791913,-0.9770786,0.2481752,7.983455,29.9698,-28.82877,1007.996
13.440560818,15.3415,19.76941,9.180012,0.08208891,-0.8732828,0.342904,7.983712,30.35093,-28.83063,1007.997
13.475208759,-18.13807,18.28978,9.854169,0.1275092,-1.007311,0.2377454,7.983712,30.35093,-28.83063,1007.997
13.507381439,-10.82786,17.93467,15.73772,0.1178803,-0.8988616,0.2589733,9.506511,29.57856,-27.94208,1007.997
13.542028427,-1.429003,36.93306,50.3036,0.0520061,-0.8166573,-0.01254603,9.878673,29.56751,-28.3903,1007.997
13.574201107,-87.92302,15.4489,56.37102,-0.1985431,-1.328558,0.03666365,9.878673,29.56751,-28.3903,1007.999
13.608849049,131.3835,-35.03592,30.93691,0.3153894,-1.071069,0.2104027,12.15235,29.92212,-27.95748,1007.997
13.641021252,118.5446,41.25357,29.15958,-0.0829186,-1.043557,0.1854262,13.64626,29.12132,-29.30033,1007.997
13.675668716,140.5367,28.52879,-21.83122,-0.1049366,-0.6340324,0.9100789,13.64626,29.12132,-29.30033,1007.997
13.707841873,-72.44256,16.57342,-26.55032,-0.2021005,-0.402006,0.8497565,14.73891,26.77943,-32.35518,1007.997
13.742488861,-181.543,-10.00065,-36.41753,-0.02613813,-0.9698068,0.3445642,15.4867,23.33281,-32.78858,1007.999
13.774661541,-64.70232,-2.839268,-19.5636,0.2143579,-1.139249,0.2416313,15.4867,23.33281,-32.78858,1007.997
13.809309483,13.00714,-7.929179,-16.86697,0.08158619,-1.235672,0.0516855,15.16251,27.19986,-28.85249,1007.997
13.841482162,111.173,-7.278143,-17.84756,0.01851222,-0.967314,0.2559622,14.40843,29.87854,-28.86164,1007.997
13.873654366,20.07164,-20.83151,-7.980354,-0.002219317,-1.074704,0.1636904,14.40843,29.87854,-28.86164,1007.997
13.908301830,53.67408,-8.580214,-5.161151,-0.0799474,-1.051232,0.1361712,13.62975,29.10508,-30.57542,1007.997
13.940474987,121.1861,3.434344,-11.71886,0.02717819,-0.9646756,0.4149629,12.86205,28.72331,-31.46225,1007.999
13.975121975,62.02861,5.9793,-13.06718,0.1061782,-0.9061976,0.4961658,12.86205,28.72331,-31.46225,1007.999
14.007294655,84.69644,0.9485732,-14.23163,0.02891224,-0.8362541,0.3268355,12.8374,26.41377,-33.23621,1008.005
14.041942596,62.64291,2.605753,-8.593225,-0.02354827,-0.7415129,0.3681121,12.42902,24.10391,-35.45451,1008.005
14.074115276,23.38889,-10.17821,2.132004,0.01242843,-0.6176871,0.524483,12.42902,24.10391,-35.45451,1008.005
14.108762264,-37.42723,-11.18435,27.25969,0.177516,-0.5280213,0.6142977,12.03932,22.57419,-36.27395,1008.005
14.140935421,-152.4864,-6.627109,39.57837,0.01648549,-0.8709201,0.6071894,11.65452,22.19193,-36.78019,1008.005
14.175582886,-142.4118,-15.50486,40.62025,0.004705107,-1.052522,0.3382925,11.65452,22.19193,-36.78019,1008.005
14.207755089,-120.7883,-15.97834,33.02066,-0.04392666,-1.097991,0.2641435,12.06213,23.35839,-34.5563,1008.007
14.242403030,-23.54395,-15.09057,10.09932,-0.04444252,-1.074654,0.01707496,13.24474,27.19909,-31.01046,1008.007
14.274575710,100.2383,-18.8784,-21.95379,-0.1545885,-1.106861,0.04964918,13.24474,27.19909,-31.01046,1008.007
14.309223175,99.00973,-19.47025,-57.43898,-0.004838032,-0.8580311,0.5024188,12.5014,29.88832,-30.19081,1008.005
14.341395378,38.56219,-20.23966,-24.65042,0.02990784,-1.018213,0.6497118,12.08858,28.33586,-32.79537,1008.009
14.376043320,-3.824789,-8.639399,-6.815901,0.1034751,-0.8087811,0.4757861,10.55217,26.04779,-34.56159,1008.005
14.408216000,-0.5689772,-1.241272,-7.796494,0.1367858,-0.5013553,0.4582478,10.55217,26.04779,-34.56159,1008.005
14.440388680,-153.8379,-0.8861622,1.212699,0.2294286,-0.8170973,0.4856282,10.17949,25.29658,-34.10966,1008.005
14.475036144,-132.2144,-1.833122,6.238235,-0.009549184,-1.178607,0.1547082,9.836738,26.09832,-31.43376,1008.003
14.507208824,-70.53822,-5.620963,5.012495,0.0777242,-1.00897,0.1793924,9.836738,26.09832,-31.43376,1008.003
14.541856289,-67.40526,-4.969928,3.725467,0.05715422,-0.9455506,0.08177922,9.879445,30.71091,-28.39588,1008.001
14.574028492,-32.81995,-3.845413,3.725467,0.09040875,-1.091093,-0.01372084,9.903329,31.87705,-26.61634,1008.005
14.608676433,2.563974,0.8302032,3.419032,0.1040229,-1.031318,0.06762083,9.903329,31.87705,-26.61634,1008.005
14.640849113,7.478407,2.724123,3.235171,0.09680063,-1.030747,0.1371009,9.543752,33.42401,-25.283,1008.005
14.675497055,14.78863,1.954718,0.967551,0.06303888,-0.9692857,0.1547926,9.53168,32.65037,-26.17184,1008.005
14.707669258,7.539837,3.967009,1.702995,0.05475863,-0.984221,0.1639047,9.53168,32.65037,-26.17184,1008.004
14.742316723,12.02426,1.481238,0.967551,0.05094019,-1.013101,0.1299623,9.537459,32.65606,-25.72556,1008.004
14.774489403,16.44725,2.901679,-0.1356154,0.06059211,-0.991524,0.164754,9.909621,32.645,-26.17378,1008.004
14.809137344,18.59731,3.611899,1.028838,0.07101123,-0.9802971,0.1796914,9.909621,32.645,-26.17378,1008.005
14.841309547,18.53588,2.960863,1.090125,0.05789198,-0.9932365,0.1927211,9.520123,32.639,-27.0644,1008.005
14.875957012,19.82592,1.303683,-0.5033376,0.06396814,-0.9790419,0.2120614,10.27549,31.866,-27.06455,1008.005
14.908130169,13.00714,1.599608,-0.6259116,0.06171827,-0.9585469,0.2247833,10.27549,31.866,-27.06455,1008.005
14.940302849,6.618381,1.540423,-0.2581894,0.05971634,-0.971639,0.2251761,10.26316,30.71123,-27.95153,1008.004
14.974949837,3.055417,0.6526481,-0.8097727,0.06748562,-0.9838022,0.2264493,10.26342,31.09236,-27.95339,1008.004
15.007122517,5.881216,0.7710181,-0.4420505,0.05969201,-0.9726283,0.2227582,10.26342,31.09236,-27.95339,1008.004
15.041770458,5.328342,0.7118331,-0.4420505,0.06077134,-0.9691542,0.2333807,10.25713,30.32441,-28.39595,1008.004
15.073942661,1.458226,0.415908,-0.1969024,0.06620982,-0.9666988,0.2405802,9.879701,31.09204,-28.39774,1008.008
15.108590603,1.273935,0.356723,0.2933938,0.05970444,-0.9774527,0.2265743,9.879701,31.09204,-28.39774,1008.006
15.140763283,-0.2003947,0.415908,0.1708197,0.06016812,-0.9794115,0.2246258,9.873668,30.70522,-28.84216,1008.006
15.175410271,0.7824919,0.356723,-0.3194765,0.06496852,-0.9809588,0.2158923,9.86789,30.69954,-29.28844,1008.006
15.207582951,3.424,0.238353,-0.01304135,0.06655181,-0.9726369,0.2260681,9.86789,30.69954,-29.28844,1008.006
15.242230892,2.686835,0.119983,0.3546808,0.06563268,-0.970646,0.231877,10.26342,31.09236,-27.95339,1008.008
15.274403572,1.888239,0.179168,0.1095327,0.06318708,-0.9759583,0.2337841,10.25738,30.70554,-28.39781,1008.006
15.309050560,0.659631,0.119983,0.1095327,0.0656409,-0.9725728,0.2337891,10.25738,30.70554,-28.39781,1008.008
15.341223717,1.519657,0.06079794,-0.07432837,0.06370322,-0.9710994,0.2347833,9.879445,30.71091,-28.39588,1008.008
15.375871182,1.028214,-0.05757209,0.1708197,0.06911913,-0.9643125,0.2371987,10.25135,30.31872,-28.84223,1008.008
15.408043385,-1.306142,0.06079794,0.1708197,0.05840264,-0.9685937,0.2416014,10.25135,30.31872,-28.84223,1008.008
15.442691326,-0.9989902,-0.1167571,-0.07432837,0.06076728,-0.9691579,0.2328987,10.62929,30.31335,-28.84417,1008.008
15.474864006,-0.3232556,0.238353,0.1095327,0.06362046,-0.9813296,0.2298798,9.879188,30.32977,-28.39402,1008.008
15.507036686,0.1681878,0.06079794,0.2321067,0.06320925,-0.9725531,0.234776,9.879188,30.32977,-28.39402,1008.008
15.541684628,-1.060421,0.179168,0.4159678,0.05537574,-0.9759226,0.2333753,9.879445,30.71091,-28.39588,1008.008
15.573856830,-1.121851,0.001612922,0.04824567,0.06710476,-0.9725802,0.2337754,9.884967,30.33546,-27.94773,1008.008
15.608504295,-0.2003947,-0.1759421,0.1708197,0.06225552,-0.969143,0.235777,10.25738,30.70554,-28.39781,1008.008
15.640676498,-0.691838,0.179168,0.1095327,0.05885026,-0.9744356,0.2396211,10.25738,30.70554,-28.39781,1008.006
15.675324440,0.352479,0.06079794,0.2933938,0.06271307,-0.9706239,0.2328685,10.25713,30.32441,-28.39595,1008.006
15.707497120,0.7210615,-0.05757209,-0.01304135,0.062203,-0.9749936,0.2323552,9.879445,30.71091,-28.39588,1008.006
15.742144585,0.352479,-0.05757209,0.04824567,0.06265047,-0.9779344,0.2289528,9.879445,30.71091,-28.39588,1008.004
15.774317741,-0.384686,0.06079794,0.1708197,0.06081598,-0.9681464,0.2382086,10.63507,30.31904,-28.39788,1008.006
15.808964729,-1.920446,-0.1167571,0.2321067,0.0617311,-0.971108,0.2323917,10.25161,30.69986,-28.84409,1008.006
15.841137409,-0.5689772,0.001612922,0.1095327,0.05964771,-0.9804057,0.2212485,10.25161,30.69986,-28.84409,1008.006
15.875785351,0.2910486,-0.1759421,0.04824567,0.06417518,-0.9759521,0.2352209,10.25109,29.93759,-28.84037,1008.006
15.907957554,1.028214,0.238353,0.1708197,0.06022269,-0.9740426,0.2285255,10.26291,30.33009,-27.94967,1008.008
15.942605019,1.581087,0.297538,0.1095327,0.06327406,-0.9686257,0.2405917,10.26291,30.33009,-27.94967,1008.006
15.974778175,-1.306142,0.001612922,-0.07432837,0.05985828,-0.9666742,0.2396757,9.879701,31.09204,-28.39774,1008.006
16.009425163,-3.210485,0.001612922,0.1095327,0.05873259,-0.9774441,0.2270654,10.25764,31.08668,-28.39967,1008.006
16.041597843,-0.2003947,-0.05757209,0.1095327,0.06594266,-0.9862846,0.2182493,10.25764,31.08668,-28.39967,1008.006
16.073770523,2.686835,-0.05757209,0.1095327,0.06660883,-0.9754865,0.234238,10.63532,30.70017,-28.39975,1008.005
16.108418465,1.212505,-0.05757209,0.04824567,0.06274557,-0.9705943,0.2367244,10.26894,30.71691,-27.50525,1008.003
16.140590668,0.2296182,-0.1759421,0.4159678,0.06032617,-0.9715306,0.2396313,10.26894,30.71691,-27.50525,1008.001
16.175238609,-1.121851,0.179168,-0.01304135,0.0661594,-0.9739982,0.2381105,9.885224,30.71659,-27.9496,1008.001
16.207411289,-0.2003947,-0.1167571,0.04824567,0.06266251,-0.975022,0.2289767,9.884709,29.95433,-27.94588,1008.001
16.242058754,0.2910486,0.06079794,0.1708197,0.06172728,-0.9759472,0.2342798,9.884709,29.95433,-27.94588,1008.001
16.274230957,0.4139094,-0.1167571,-0.07432837,0.0670682,-0.9726135,0.2294375,9.879188,30.32977,-28.39402,1008.003
16.308878899,0.1681878,0.001612922,-0.1969024,0.06179595,-0.9681476,0.2386815,10.26316,30.71123,-27.95153,1008.003
16.341051579,0.1681878,0.119983,0.1095327,0.06465075,-0.9720973,0.2318742,10.26316,30.71123,-27.95153,1008.002
16.375698567,-0.2618251,0.238353,0.2321067,0.06512451,-0.9725962,0.2304197,10.25738,30.70554,-28.39781,1008.002
16.407871723,-0.8146988,-0.1167571,0.1708197,0.06169258,-0.9725938,0.2285238,10.62955,30.69449,-28.84603,1008.002
16.442519188,-0.4461164,0.001612922,0.04824567,0.06022465,-0.9725901,0.2280555,10.62955,30.69449,-28.84603,1008.002
16.474691868,0.1681878,-0.1167571,-0.07432837,0.06365056,-0.9740487,0.2299395,9.879188,30.32977,-28.39402,1008.002
16.509339333,-0.691838,0.06079794,0.1095327,0.06163605,-0.9794152,0.2250941,10.25738,30.70554,-28.39781,1008.002
16.541512013,1.212505,0.06079794,-0.2581894,0.06652576,-0.9799141,0.2264903,10.25738,30.70554,-28.39781,1008.002
16.573684692,0.352479,0.179168,0.1708197,0.06179595,-0.9681476,0.2386815,10.25161,30.69986,-28.84409,1008.002
16.608332634,-2.350459,-0.1759421,-0.1356154,0.06024702,-0.9730533,0.2309435,10.25161,30.69986,-28.84409,1008
16.640504837,-2.596181,-0.1167571,-0.2581894,0.06172317,-0.9749838,0.2333238,10.62929,30.31335,-28.84417,1008
16.675152302,-7.940626,0.297538,-1.177495,0.06515574,-0.9875585,0.2413821,10.62929,30.31335,-28.84417,1008
16.707325458,-13.03935,1.185313,-0.4420505,0.06052851,-0.9558724,0.2561465,9.879188,30.32977,-28.39402,1007.998
16.741972923,-19.30525,-0.2943121,-0.3807635,0.06797887,-0.967842,0.2193463,9.891002,30.72228,-27.50331,1008.002
16.774145126,-19.05953,0.415908,-0.07432837,0.06023255,-0.9996254,0.1839706,9.891002,30.72228,-27.50331,1008.002
16.808793068,-9.537817,-0.2943121,-0.1356154,0.06953494,-0.9754653,0.175889,9.902814,31.11478,-26.61261,1008.001
16.840965748,-10.76643,0.7710181,0.5385419,0.06120522,-0.9759384,0.1721068,9.891515,31.48454,-27.50704,1007.999
16.875612736,-17.03233,1.658793,0.4772548,0.04579116,-0.9317099,0.2328652,9.891515,31.48454,-27.50704,1007.997
16.907785416,-94.43465,6.21604,-7.673919,0.05985288,-0.9086882,0.2690738,9.903329,31.87705,-26.61634,1007.997
16.942433357,-164.7725,-1.182087,-17.78628,-0.01373755,-0.8849856,0.2111519,10.30464,32.27555,-24.83501,1007.995
16.974606037,-320.1914,-30.59704,-45.5493,-0.08395699,-0.6606597,0.05074063,10.30464,32.27555,-24.83501,1007.995
17.041426182,-552.0912,16.33668,-101.9334,0.2837959,-1.219806,-1.097229,8.681018,39.10263,-4.647146,1007.995
17.076073647,-415.1628,22.25518,-137.6024,0.1622663,-1.098365,-1.099914,8.681018,39.10263,-4.647146,1007.994
17.108245850,-259.6825,37.46572,-136.1928,0.1819427,-0.9905585,-1.017269,6.27172,40.8962,13.52894,1007.992
17.140419006,-85.03579,43.14749,-146.3664,0.1376427,-0.7877743,-0.870102,1.49792,36.08823,24.60809,1007.992
17.175066471,25.53895,23.85317,-146.8567,0.1345453,-0.4398936,-0.8262353,1.49792,36.08823,24.60809,1007.992
17.207239151,32.91059,2.960863,-147.7148,0.2578506,-0.168029,-0.8024906,-4.896812,30.87692,27.28094,1007.992
17.241887093,-4.193372,-0.1167571,-131.1673,0.4653921,0.05444321,-0.8353691,-9.799758,29.05242,28.20795,1007.99
17.274059296,-53.64486,30.30434,-110.7587,0.3897342,0.06544041,-0.8427664,-9.799758,29.05242,28.20795,1007.988
17.308706760,-58.62072,24.9185,-105.917,0.2208257,-0.01300838,-0.9281149,-14.32997,26.83654,28.75236,1007.988
17.340879917,-7.264892,12.90395,-91.63714,0.3730576,0.09111221,-0.9233751,-18.17524,23.84123,28.72315,1007.992
17.375526905,13.62145,17.10608,-75.57994,0.4192707,0.1787584,-0.9833336,-18.17524,23.84123,28.72315,1007.991
17.407699585,-5.053397,28.82471,-63.38383,0.4829487,0.1903408,-1.076858,-21.95118,20.4704,29.20552,1007.991
17.442347527,-15.49657,45.10059,-50.14583,0.5140621,0.1659744,-1.195439,-23.84794,18.58589,28.77821,1007.989
17.474520207,-15.18941,61.84995,-51.31028,0.655803,0.1153696,-1.435287,-23.84794,18.58589,28.77821,1007.987
17.509167194,-11.13501,109.9082,-27.04062,0.7199895,0.1374947,-1.357137,-25.75626,16.69001,27.45834,1007.987
17.541340351,-9.353526,123.1656,-20.48291,0.81896,0.04459428,-1.381481,-28.41911,15.56795,26.20237,1007.987
17.575987816,2.0111,168.0871,-7.306197,0.8361619,0.01270492,-1.351538,-32.6284,14.43325,22.27645,1007.985
17.608160019,13.86717,183.4752,0.7224029,0.723125,0.03849979,-1.226397,-32.6284,14.43325,22.27645,1007.986
17.640332699,48.08391,201.7041,6.789818,0.7206163,0.049943,-1.065773,-35.34383,13.64034,16.93835,1007.984
17.674980640,58.28136,218.5719,7.218827,0.5521475,0.08103114,-0.9193453,-38.84217,14.3551,9.429014,1007.984
17.707153320,25.96896,230.2313,10.46704,0.4861021,0.153147,-0.7995626,-38.84217,14.3551,9.429014,1007.982
17.741801262,3.116848,243.0153,27.13711,0.4014144,0.2940068,-0.8409911,-40.08361,15.02708,1.079271,1007.979
17.773973465,-6.650588,323.9804,71.44762,0.4663015,0.3787405,-0.825956,-40.95422,14.92493,-7.778718,1007.977
17.808620930,-0.5689772,399.9147,112.2648,0.05471585,0.3345823,-0.7121016,-40.95422,14.92493,-7.778718,1007.975
17.840793133,-20.90244,427.9092,117.9645,-0.00792885,0.08598623,-0.3226649,-38.81623,15.90781,-17.86909,1007.975
17.875441074,503.3447,103.5162,-176.1519,-0.6094542,-1.035627,-8.068174,-29.45076,19.8816,-24.56836,1007.972
17.907613754,87.46081,13.43661,-102.2398,0.715092,-0.008983342,-0.5909562,-29.45076,19.8816,-24.56836,1007.97
17.942261696,229.5493,140.8028,8.015559,2.090058,1.943897,2.214177,-25.677,28.58262,-25.52306,1007.968
17.974434376,-171.2841,47.94147,75.98286,0.511192,0.8109314,0.3007289,-29.16149,15.5993,-31.18028,1007.968
18.041254044,-21.57818,149.7397,3.602893,0.4544677,-0.4596384,0.785797,-25.75034,14.03701,-30.36144,1007.968
18.108074188,55.76271,-46.69536,22.78573,0.9458596,0.03925319,0.7154348,-23.85621,19.34685,-30.3334,1007.965
18.142722130,39.29936,38.17595,49.3843,0.560177,-0.2117411,0.5853785,-23.10662,18.56816,-30.77983,1007.961
18.174894810,78.86055,-45.80759,36.51402,0.2946442,-0.07426374,0.7441934,-23.49715,17.03763,-31.66302,1007.96
18.207067490,67.68021,-65.39783,39.82352,0.4500947,0.1484316,0.9585866,-23.49715,17.03763,-31.66302,1007.96
18.241714478,33.21775,-101.2048,48.09727,0.6753316,-0.06543121,0.6872122,-23.5037,15.88854,-32.10371,1007.96
18.273887634,78.43054,-106.2355,65.38021,0.6090385,-0.1210534,0.6068782,-25.3708,15.17586,-30.3052,1007.958
18.308535099,110.7429,-133.1647,80.64068,0.5224137,-0.1231948,0.462105,-25.3708,15.17586,-30.3052,1007.958
18.340707302,144.0382,-152.3998,103.2556,0.7179354,-0.1294483,0.1546414,-26.87678,15.20301,-29.85118,1007.958
18.375355244,124.1348,-130.7381,129.5477,0.8374287,-0.06961801,0.05954775,-29.11661,14.8817,-27.67007,1007.964
18.407527924,89.54945,-127.1278,150.324,0.9053525,-0.1287167,-0.1334091,-29.11661,14.8817,-27.67007,1007.964
18.442174912,25.8461,-90.84739,158.5978,1.012756,-0.3602054,-0.2486255,-30.97164,14.94266,-24.98272,1007.962
18.474348545,5.574064,-76.76135,164.42,0.8648596,-0.4402583,-0.2136835,-31.7042,16.49986,-23.26493,1007.962
18.508995533,8.154142,-59.12421,173.6744,0.8001575,-0.4880726,-0.2245599,-31.7042,16.49986,-23.26493,1007.958
18.541168213,13.68288,-37.69924,175.6356,0.7343789,-0.531696,-0.1332079,-30.1665,20.69359,-21.50801,1007.96
18.575816154,7.846989,-45.98514,199.9665,1.323238,-0.9171485,-0.1399523,-27.13438,24.84879,-21.09767,1007.96
18.607988357,61.72146,16.51423,249.4252,0.9556239,-0.9667973,-0.01739548,-27.13438,24.84879,-21.09767,1007.96
18.642635822,68.41738,-5.147483,187.7704,0.05594986,-1.022045,-0.08271999,-23.71276,29.01,-19.7967,1007.964
18.674808979,91.82237,-1.655567,176.0646,0.02328565,-0.9556426,-0.0529478,-16.93591,33.07741,-22.08338,1007.964
18.706981659,117.3774,11.36514,164.5426,0.2785102,-1.070992,-0.05531626,-16.93591,33.07741,-22.08338,1007.961
18.741628647,163.0816,26.57569,173.2454,0.1727875,-1.232901,0.2181112,-10.4692,34.48786,-23.84539,1007.967
18.773801327,111.4801,17.52038,178.0258,-0.04974379,-1.054593,0.5383313,-4.852622,33.5939,-27.8872,1007.967
18.808449268,4.591177,15.62646,116.6162,0.1869106,-1.937891,0.3235092,1.530416,30.03345,-30.96354,1007.965
18.840621471,-54.7506,3.552714,-26.73418,-0.2155752,-2.077588,-0.1761303,1.530416,30.03345,-30.96354,1007.968
18.875269413,75.78903,-11.7762,-53.21018,0.2693376,-0.5838291,0.3599311,6.454158,28.4505,-30.08868,1007.968
18.907442093,41.75658,-0.3534971,-14.41549,0.1585017,-0.2638075,0.3722796,5.29119,28.05704,-32.31242,1007.97
18.942089081,-101.0077,11.42432,12.24436,0.2391325,-0.5700929,0.3593622,5.29119,28.05704,-32.31242,1007.97
18.974261761,-115.8124,19.29593,42.94916,0.151232,-1.270105,0.2261996,4.156344,26.54862,-32.29917,1007.97
19.008909702,29.71622,9.76714,29.52731,-0.06252219,-1.264182,0.164137,4.953387,28.86366,-29.25399,1007.97
19.041082382,15.40293,0.356723,-9.818965,0.1463069,-0.9563978,0.2432917,4.953387,28.86366,-29.25399,1007.972
19.075730324,13.49859,11.48351,-12.33173,0.04560813,-0.8559934,0.2325271,6.833385,30.3508,-30.09991,1007.974
19.107902527,30.20766,9.707955,7.15754,0.056789,-0.979361,0.2289957,6.081685,29.22301,-29.70794,1007.974
19.142549992,56.49987,8.997735,-0.2581894,0.05687054,-1.033484,0.3230207,6.081685,29.22301,-29.70794,1007.975
19.174722672,46.91673,5.269079,-16.37667,0.1253588,-0.930744,0.4095065,6.442601,28.43913,-30.98124,1007.981
19.209370136,-3.763359,8.169145,-27.1019,0.1627076,-0.8533197,0.4030483,6.802693,27.65444,-32.31829,1007.983
19.241542816,-40.06874,9.352845,-25.87616,0.08533181,-0.8792974,0.3833122,6.802693,27.65444,-32.31829,1007.985
19.273715496,-41.4202,8.22833,-23.11825,0.0972674,-0.967087,0.3362051,6.418975,27.65412,-32.76264,1007.985
19.308363438,-14.1451,13.91009,-24.46656,0.1345483,-0.9941752,0.3722659,6.442601,28.43913,-30.98124,1007.985
19.340535641,21.66883,29.06145,-24.71171,0.1369847,-0.9366832,0.4021191,6.442601,28.43913,-30.98124,1007.982
19.375183106,8.952737,23.14295,-18.27657,-0.04960485,-0.7899541,0.4267598,6.437079,28.81458,-31.42938,1007.984
19.407356262,-17.52377,25.03687,-7.428771,0.09793004,-0.9586725,0.2948163,6.059142,28.81994,-31.42744,1007.986
19.442003250,18.35159,19.35511,-2.770957,0.1161169,-0.9378869,0.3584419,6.059142,28.81994,-31.42744,1007.988
19.474175930,-13.10078,10.83247,-0.01304135,0.2004057,-0.8804373,0.372589,6.820798,28.81489,-30.98503,1007.988
19.508823872,-37.67295,9.41203,-0.9323467,0.1884038,-0.9724464,0.2663846,7.193217,29.18497,-31.43511,1007.989
19.540996552,-14.39082,3.611899,-3.445115,0.1190554,-1.004512,0.2176034,7.193217,29.18497,-31.43511,1007.989
19.575644493,-0.01610349,5.032339,-2.280661,0.1735895,-0.9942928,0.2562207,7.198737,28.80952,-30.98697,1007.989
19.607816696,12.20855,7.814035,-2.832244,0.1605189,-0.9651176,0.2546552,6.838078,29.97453,-29.71553,1007.989
19.642464161,13.37573,9.589585,3.848041,0.1722007,-0.8879068,0.3298927,6.838078,29.97453,-29.71553,1007.989
19.674636841,11.47138,8.760995,11.01862,0.1251661,-0.8868772,0.3072041,7.589263,30.34006,-30.10378,1007.989
19.709284306,15.52579,8.169145,14.87971,0.1195386,-0.9354808,0.3579478,7.589005,29.95893,-30.10192,1007.991
19.741456985,27.19757,0.7118331,18.74079,0.1445666,-0.9074672,0.4191592,7.589005,29.95893,-30.10192,1007.993
19.773629665,26.15325,3.730269,21.80514,0.243295,-0.9633902,0.4062089,8.344113,28.80479,-30.1002,1007.993
19.808277607,53.30549,6.807889,26.21781,0.08825794,-0.9996849,0.3832564,9.082141,28.01473,-31.43919,1007.995
19.840449810,43.66092,5.150709,24.44048,0.1542014,-0.8694648,0.4439645,9.082141,28.01473,-31.43919,1007.995
19.875097275,7.048394,11.06921,26.21781,0.1525509,-0.8498756,0.5284913,9.831216,26.47377,-31.8819,1007.995
19.907270431,-14.20653,15.92238,25.23721,0.0677726,-0.9082539,0.4565012,10.19683,25.31363,-32.77081,1007.993
19.941917419,-16.60231,18.70408,26.58553,0.1586709,-0.8912142,0.5218275,11.70229,24.52421,-33.22111,1007.995
20.040910721,5.574064,30.54108,39.33323,0.05559378,-0.9661277,0.3708238,13.62191,26.05033,-31.00682,1007.995
20.075557709,-7.264892,28.64716,41.04926,0.03475849,-0.8952874,0.3542503,13.62191,26.05033,-31.00682,1007.995
20.107730866,-6.834879,36.04528,38.35263,-0.1510604,-0.9623752,0.2836132,15.12815,26.4043,-31.46269,1007.995
20.142378330,9.935624,47.46799,39.21065,-0.25822,-0.909919,0.2821535,17.4076,26.76459,-30.5836,1007.996
20.174551010,14.66577,50.72317,32.53037,-0.2853446,-0.9042793,0.3036611,17.4076,26.76459,-30.5836,1007.996
20.209198475,30.33052,48.59251,26.09523,-0.2775262,-0.8603785,0.399868,19.6692,26.34556,-31.03962,1007.996
20.241371155,4.099734,36.22284,22.41801,-0.2999984,-0.7897256,0.4209041,21.62716,25.56124,-30.59961,1007.998
20.276018620,-15.49657,29.12064,20.94712,-0.3435128,-0.8692995,0.3334122,21.62716,25.56124,-30.59961,1007.998
20.308191776,-21.45532,14.73868,5.686652,-0.2601886,-0.908511,0.3376135,23.90583,24.77814,-29.71493,1007.996
20.340363979,-17.89235,11.30595,9.731595,-0.2351995,-0.9360686,0.3048591,24.28873,24.77764,-29.33434,1007.996
20.375011444,-5.237689,6.156855,14.32812,-0.2158373,-0.9846658,0.3095798,24.28873,24.77764,-29.33434,1007.996
20.407184124,11.04137,6.511964,22.17286,-0.2310509,-0.9909549,0.3024399,25.4341,24.7729,-28.44758,1007.996
20.441831589,20.13307,10.12225,24.93078,-0.244645,-0.8791939,0.372896,25.43962,24.39746,-27.99944,1007.995
20.474004269,7.294116,14.85705,25.23721,-0.2816365,-0.8702181,0.3800632,25.43962,24.39746,-27.99944,1007.995
20.508652210,3.362569,20.12452,24.37919,-0.2866452,-0.8867524,0.3727437,26.94535,23.98916,-28.45159,1007.995
20.540824890,-2.104738,25.09606,25.23721,-0.2982073,-0.8585109,0.3769404,27.32829,22.84608,-28.00166,1007.996
20.575471878,-4.746245,30.12679,29.28216,-0.3059779,-0.8922507,0.3396207,27.32829,22.84608,-28.00166,1007.996
20.607645035,-3.517637,36.69632,37.37204,-0.3278192,-0.9070247,0.3609107,28.07788,22.06739,-28.44809,1008
20.642292499,-11.07358,45.27815,45.27807,-0.3404752,-0.8431388,0.3919215,29.97939,22.43305,-27.56706,1007.995
20.674465179,-11.56502,48.59251,48.40371,-0.4392969,-0.781944,0.3330981,29.97939,22.43305,-27.56706,1007.999
20.709112644,-22.25391,48.59251,43.62332,-0.4827014,-0.8570285,0.1984063,31.51349,21.29092,-25.78409,1007.999
20.741285324,-7.387753,45.27815,41.23312,-0.4950652,-0.8170181,0.2176495,33.41397,20.13204,-24.89561,1007.999
20.775932789,-5.851993,37.70247,41.60085,-0.5372038,-0.8517448,0.1560605,35.3257,19.74599,-23.18205,1007.997
20.808105946,3.362569,28.17368,46.25866,-0.5547566,-0.8149675,0.2563013,35.3257,19.74599,-23.18205,1007.993
20.840278149,14.42004,17.52038,51.83578,-0.5601975,-0.8235993,0.07745913,37.99335,18.20662,-21.40303,1007.997
20.874925613,19.21162,2.901679,61.39655,-0.6372238,-0.8377656,0.2679689,38.36475,17.05217,-21.84566,1007.991
20.907098293,14.23575,-8.047548,70.52832,-0.675908,-0.8420469,0.2543166,38.36475,17.05217,-21.84566,1007.991
20.941745758,21.05453,-20.29885,74.8797,-0.6428678,-0.6489893,0.2599379,40.24687,14.3517,-22.28858,1007.991
20.973918438,-7.449183,-26.86838,75.799,-0.6729418,-0.7685616,0.2814047,39.48341,11.68882,-22.71797,1007.991
21.008566380,-13.46936,-30.71541,66.8511,-0.721356,-0.7964994,0.340912,39.48341,11.68882,-22.71797,1007.989
21.040739059,36.965,-41.48708,56.49359,-0.795189,-0.6366509,0.1881969,40.22645,9.761047,-23.6051,1007.991
21.075386047,-47.62468,-40.2442,21.86643,-0.6144037,-0.6394247,0.4486949,40.5803,7.065817,-25.31537,1007.993
21.107558727,-101.192,-22.72543,5.196356,-0.3789228,-0.944699,0.1629752,40.5803,7.065817,-25.31537,1007.993
21.142206669,-11.50359,-3.727043,-30.65655,-0.3098509,-0.9727724,0.09172732,39.42786,5.159201,-26.63911,1007.989
21.174378872,31.68199,15.09379,-57.43898,-0.2974496,-0.8160481,0.1560456,39.80156,7.434948,-27.09849,1007.995
21.209026814,72.71751,20.65718,-71.964,-0.5387924,-0.8533763,0.2582457,39.80156,7.434948,-27.09849,1007.995
21.241199493,94.7096,23.08377,-85.81487,-0.7058822,-1.00066,0.2484686,40.55847,8.948746,-27.1098,1007.997
21.275846958,116.1488,22.13681,-87.10191,-0.6181963,-0.9194751,0.1326399,40.93718,10.08678,-27.11732,1007.997
21.308019161,104.1085,44.21282,-74.8445,-0.7077177,-0.6752146,0.2791247,40.93718,10.08678,-27.11732,1007.997
21.342667103,43.72235,51.61094,-54.43592,-0.6422877,-0.972675,0.07892413,41.68805,11.21376,-27.57305,1007.999
21.374839783,123.9505,71.97058,-55.96809,-0.5605317,-0.9188321,0.3162309,43.20084,12.71682,-27.58822,1007.999
21.407012463,186.1795,84.28107,-65.59016,-0.5479524,-0.763955,0.5188661,43.20084,12.71682,-27.58822,1008
21.441659927,232.9895,120.3247,-79.50231,-0.3991282,-0.9387898,-0.1539432,44.73751,15.38602,-25.82386,1008
21.473832607,279.1237,136.6598,-77.11211,-0.3630305,-0.6369005,-0.06936932,45.12149,15.76747,-25.38138,1008
21.508480549,196.8684,152.5806,-72.82203,-0.5781847,-0.1817907,0.5885356,45.12149,15.76747,-25.38138,1008
21.540653229,2.686835,136.4823,-57.00998,-0.8164803,-0.8260888,0.5338736,45.51021,14.63007,-24.48517,1008
21.575300217,189.6196,108.3694,-68.59322,-0.7370169,-1.071389,0.1199642,45.17112,13.53102,-21.41744,1008.002
21.607472896,290.3654,106.0611,-71.47371,-0.7410764,-0.5906591,0.333635,45.17112,13.53102,-21.41744,1008
21.642120838,210.5674,70.01748,-75.27351,-0.7943863,-0.2769654,0.6326663,45.94588,15.82413,-20.09363,1007.996
21.674293041,225.5564,90.37712,-56.76482,-0.5953141,-0.4786975,0.02905626,44.04886,13.55849,-20.51908,1007.996
21.708940983,217.7547,93.04045,-78.95073,-0.6871267,-0.4383559,0.2919713,44.04886,13.55849,-20.51908,1007.998
21.741113663,184.0294,81.67693,-48.8588,-0.7709228,-0.2499284,0.5661543,42.93109,11.68598,-19.16513,1008.002
21.775761127,113.6302,98.18954,-65.89659,-0.7220132,-0.2547195,0.2909187,42.95235,10.18338,-17.43632,1008.002
21.807933330,79.04485,84.10352,-64.18056,-0.7981748,-0.2760586,0.1810756,42.95235,10.18338,-17.43632,1008.004
21.842581272,119.5889,122.3962,-59.2163,-0.9408898,-0.07687933,0.1748913,43.72948,8.670034,-15.71138,1008.004
21.874753952,95.44676,153.4684,-70.79955,-1.310472,-0.06013433,0.03098609,43.38673,9.471779,-13.03548,1008.002
21.906926632,47.22388,72.6808,-77.05083,-1.158669,0.002642333,-0.2277826,43.38673,9.471779,-13.03548,1008.002
21.941574097,116.6403,137.9027,-42.17851,-1.115963,0.4158117,0.06683481,44.20586,10.28503,-8.197738,1008.002
21.973746777,-157.4008,11.18758,-67.36748,-1.653176,0.0224258,0.3828681,43.86413,12.61131,-5.529284,1008.002
22.008394241,-70.84537,93.69148,-15.51866,-0.6963935,-0.8176079,0.01129945,43.90452,13.79369,-2.474657,1008.002
22.040567398,29.04048,55.87226,-28.75665,-0.6324697,-0.002633288,0.3716913,43.90452,13.79369,-2.474657,1008
22.075214386,-88.96734,49.89458,-31.20814,-0.9356076,-0.5637885,0.1679359,43.93996,14.9712,0.1974449,1008
22.107387066,31.25198,52.67627,-22.44409,-0.8854052,-0.4127739,0.1455765,42.45704,16.16369,2.367247,1008
22.142035008,-31.09989,46.28429,-33.41447,-0.9396926,-0.219448,0.4445885,42.45704,16.16369,2.367247,1007.999
22.174207211,-28.76554,49.4211,-24.65042,-0.8721704,-0.5138517,0.2014956,42.86464,17.33014,4.591133,1008
22.208855152,-33.1271,44.6863,-9.389956,-0.7992279,-0.3060679,0.1283,42.12687,18.50134,5.928259,1008
22.241027832,-58.62072,50.72317,4.583486,-0.8776368,-0.5486569,0.09039981,42.12687,18.50134,5.928259,1008
22.275675297,-34.78572,52.43953,15.06357,-0.9453672,-0.4336597,0.1049938,41.39302,18.15287,7.655357,1008
22.307847500,-38.47155,60.37033,16.16673,-0.939357,-0.4712296,0.08342004,41.03793,17.79984,9.444273,1008
22.342495442,-46.88751,72.20732,24.19533,-0.9238507,-0.532299,0.04180193,41.03793,17.79984,9.444273,1008
22.374668121,-46.88751,83.51167,17.82148,-0.9323826,-0.3187724,-0.03155005,40.69415,17.07705,12.12761,1008
22.409315109,-45.35175,89.37098,23.45989,-1.060191,-0.5011811,-0.228035,40.73382,15.97345,15.25716,1008.003
22.441488266,-21.27102,93.80985,20.45683,-1.085743,-0.4199761,-0.2883411,40.73382,15.97345,15.25716,1008.004
22.473660946,-27.72122,90.55468,28.42414,-0.7521813,-0.1991385,-0.07417919,39.26617,14.13392,18.78069,1008.003
22.508308411,-37.61152,93.45474,42.82659,-0.9531763,-0.3308064,-0.4098248,38.17647,12.28902,22.30228,1008.003
22.540481568,3.055417,89.07505,63.78674,-0.8607321,-0.3498925,-0.4334987,38.17647,12.28902,22.30228,1008.003
22.575128555,-25.63258,81.08508,70.09931,-1.112877,-0.4945049,-0.4034182,36.32067,11.20658,24.99522,1008.003
22.607301235,46.11813,62.91528,74.57327,-1.095034,-0.3184353,-0.2816333,34.84698,8.98023,28.07433,1008.003
22.641949177,38.00932,49.48028,59.3128,-1.207272,-0.2892343,-0.469771,34.84698,8.98023,28.07433,1008.003
22.674121380,71.67319,23.02458,38.10749,-1.188734,-0.2685012,-0.538699,33.74604,6.362511,30.77084,1008.003
22.708768845,122.9676,-7.337328,74.75713,-1.072977,-0.3084124,-0.1005247,31.85608,6.00822,30.78237,1008.003
22.740942001,90.40947,-35.56858,89.58858,-0.9712498,-0.3931133,-0.3817319,31.85608,6.00822,30.78237,1008.003
22.775589466,111.7873,-9.941469,84.99206,-0.9012809,-0.1005097,-0.09462881,30.72304,7.167726,30.78259,1008.004
22.807761669,45.93384,11.24677,70.40575,-0.9115427,0.2853045,-0.1087044,30.70596,7.531805,29.44189,1008.004
22.842409611,-34.23285,28.64716,58.57735,-1.052162,0.03764008,-0.4044177,30.70596,7.531805,29.44189,1008.001
22.874582291,-59.29646,-11.30272,53.55182,-1.126108,0.09479405,-0.4047025,31.09045,8.675522,29.88065,1008.001
22.909229279,-121.8326,-42.90752,39.14936,-1.040778,0.1107487,-0.4207912,29.96664,6.416196,30.79018,1008.003
22.941402435,-148.432,-42.72997,14.08297,-1.074856,0.04377625,-0.3786094,29.96664,6.416196,30.79018,1008.003
22.976049900,-138.4188,-59.53851,-23.24082,-1.068058,0.2481862,-0.3654196,29.96484,3.748262,30.80321,1008.001
23.008222580,-196.532,-82.02882,-88.20507,-0.9614964,0.206792,-0.4405011,30.71181,-0.9052842,30.37569,1008.001
23.040395737,-244.1406,-108.307,-105.1816,-0.7274562,0.01923793,-0.3155373,31.43623,-4.755781,28.15903,1008.001
23.075042725,-175.0928,-81.20023,-135.0896,-0.6162956,-0.1423987,-0.3077851,31.43623,-4.755781,28.15903,1008.001
23.107215405,-133.9344,-51.90364,-147.8373,-0.5415018,0.07182983,-0.04740119,34.79074,-7.135565,24.6463,1008.001
23.141863346,-223.6228,-45.80759,-140.9119,-0.6808593,-0.02824091,-0.1481457,36.65181,-6.809699,22.40337,1008.001
23.174035549,-219.2612,-60.24873,-137.4798,-0.7143094,-0.2941319,-0.2835395,36.65181,-6.809699,22.40337,1008.001
23.208683014,-144.6233,-58.17726,-115.6617,-0.6464949,-0.3950664,-0.2368044,38.51395,-6.101887,20.22233,1007.999
23.240856171,-44.86031,-34.97673,-74.90578,-0.6761072,-0.3575051,-0.2945404,39.98578,-5.400887,17.08691,1008.003
23.275503635,7.171255,-20.53559,-30.84041,-0.791999,-0.2372959,-0.264512,39.98578,-5.400887,17.08691,1008.003
23.307675839,-20.90244,-13.31501,-3.628976,-0.9118983,-0.1592694,-0.1682781,41.10933,-3.522695,16.17924,1008.003
23.342323780,-75.82123,-15.3273,12.36694,-0.931765,-0.2068404,-0.2446408,41.47623,-2.777166,15.28102,1008.001
23.374496460,-94.86465,3.434344,28.05642,-0.9384071,-0.2467326,-0.2608137,41.47623,-2.777166,15.28102,1008
23.409143448,-73.67117,1.185313,25.42107,-0.9060096,-0.2776683,-0.2232931,41.84788,-3.550487,14.83653,1008
23.441316605,-35.33859,7.103815,25.2985,-0.8203463,-0.3706601,-0.205097,41.46814,-6.213053,14.85149,1007.998
23.475964069,43.16948,20.95311,26.21781,-0.8386658,-0.3587583,-0.184102,41.46814,-6.213053,14.85149,1007.998
23.508136749,81.9935,22.9654,30.99819,-0.9240161,-0.3065854,-0.1452795,42.22381,-7.747511,14.91882,1007.998
23.540309906,84.38929,15.92238,27.87255,-0.9940109,-0.2431584,-0.08481756,41.4784,-8.107349,15.75336,1007.998
23.574956894,40.65083,15.15298,17.08604,-1.122675,-0.04462456,-0.1027062,41.4784,-8.107349,15.75336,1007.998
23.607129574,-102.7278,-23.67239,-24.34399,-1.082371,-0.1137489,0.02311367,40.73986,-8.079559,17.09607,1007.998
23.641777515,-196.6549,-44.20959,-49.41038,-0.8534364,-0.321273,0.07276858,39.98976,-8.063137,17.54622,1007.998
23.673949718,-212.0125,-30.24193,-79.01202,-0.7963698,-0.5835651,0.02187379,39.98976,-8.063137,17.54622,1007.996
23.708597183,-180.9287,-35.21347,-106.7138,-0.8339993,-0.7946349,-0.05663509,40.70442,-9.257069,14.42396,1007.994
23.740770340,-144.2547,-39.41561,-144.0988,-0.7156361,-0.7234465,-0.001240712,42.18208,-9.692972,11.80416,1007.993
23.775417805,-130.0643,-10.35576,-175.1101,-0.7404958,-0.8663965,0.01323675,42.18208,-9.692972,11.80416,1007.991
23.807590008,-108.5636,-8.639399,-198.5217,-0.8151999,-0.8422932,-0.1193813,43.29407,-7.82615,10.00393,1007.991
23.842237949,-102.5435,-31.66237,-211.5758,-0.5966719,-0.8989998,-0.2197338,44.04777,-2.506704,9.527733,1007.991
23.874410629,-52.66197,-35.45021,-219.0529,-0.3480265,-0.9734282,-0.2699035,44.04777,-2.506704,9.527733,1007.989
23.909057617,-28.21266,-37.40332,-204.773,0.1149861,-0.9859314,-0.3340949,44.79625,3.632848,8.601221,1007.991
23.941230774,42.49374,-8.994509,-185.2224,0.7802885,-1.053992,-0.8638333,43.27865,10.8853,7.744797,1007.989
23.975878239,188.0838,-81.43697,-250.9221,1.460665,-0.6871138,-1.378077,40.62088,18.52849,6.382277,1007.987
24.008050919,228.4436,68.59704,-258.4604,1.317228,-0.2236334,-1.540171,40.62088,18.52849,6.382277,1007.987
24.042698383,23.0203,120.1472,-197.2347,0.6306578,-0.1198676,-1.177676,36.39993,25.76168,1.076582,1007.987
24.074871063,6.679811,177.675,-132.822,0.4997051,-0.3898374,-0.8345319,29.98061,34.23788,1.068521,1007.986
24.107043743,71.36604,229.0476,-102.3624,0.1434995,-0.1852031,-0.5224874,29.98061,34.23788,1.068521,1007.987
24.141691685,307.996,234.7294,52.63251,-0.2471637,0.01609435,-0.4766947,23.98129,37.79865,4.589207,1007.987
24.173863888,408.5576,180.5159,141.989,-0.8846379,0.6399831,0.01784245,20.91371,39.76612,1.088573,1007.987
24.208511353,218.3076,212.4166,149.7724,-0.984175,0.8689569,0.3156426,20.91371,39.76612,1.088573,1007.987
24.240684509,338.0969,341.9726,277.5559,-2.095011,0.2827745,0.05944958,23.82698,37.7103,-7.333171,1007.989
24.275331974,-810.4061,-20.12129,-234.5585,-15.90485,3.843875,11.48585,28.74207,31.86567,-6.883809,1007.991
24.307504177,590.9445,-1299.82,-1552.413,5.069271,-0.09720588,-6.333402,28.74207,31.86567,-6.883809,1007.99
24.342152119,-1962.964,589.4843,-248.5932,-5.100092,1.523005,3.299155,31.509,25.8534,2.82309,1007.996
24.374324799,626.3284,-139.9117,-55.11008,0.770843,-1.278546,-3.681437,8.270341,32.15646,-6.779058,1007.996
24.408971787,370.225,-31.9583,45.03292,2.01031,0.02795008,1.257781,8.270341,32.15646,-6.779058,1008.001
24.441144943,-90.07308,31.66559,63.48031,0.7188671,0.07166911,0.807472,5.26986,40.66492,-5.465991,1008.006
24.475792408,-260.7882,121.8044,110.7326,0.3145268,-0.9182279,0.2661367,5.583726,39.83476,-10.37329,1008.006
24.507965088,207.9258,11.36514,75.24742,-0.5321689,-1.11982,-0.7417516,5.583726,39.83476,-10.37329,1008.008
24.542612553,-21.88533,43.91689,54.90013,-0.2682334,-0.7909232,1.356641,9.071286,40.25204,-3.762101,1008.008
24.574785232,-112.9252,5.091524,69.36387,0.09485884,-1.247628,0.6501064,11.67121,39.78865,-7.280269,1008.011
24.606957912,-58.12928,33.97381,69.85416,-0.1790042,-0.7796766,0.354306,11.67121,39.78865,-7.280269,1008.012
24.641605854,-41.78879,19.29593,34.61412,-0.1044057,-0.7708437,0.2259529,13.96697,38.64146,-5.054886,1008.016
24.673778057,-82.94716,-2.010678,7.402689,-0.0630689,-0.7500893,0.489392,16.26819,38.26142,-2.450699,1008.019
24.708425522,-60.58649,-0.2943121,-7.306197,-0.009778241,-1.051078,-0.05053406,16.26819,38.26142,-2.450699,1008.019
24.740598202,18.90446,4.026194,-12.14787,-0.01107385,-0.9346019,0.2618099,17.05822,37.52253,0.2268391,1008.019
24.775246143,-28.45838,10.06307,-8.470651,-0.05391112,-1.042946,0.09454463,17.07555,37.53958,1.56568,1008.02
24.807418346,57.42133,6.807889,-7.673919,0.008470461,-0.9694935,0.2815839,17.07555,37.53958,1.56568,1008.026
24.842066288,1.703948,-4.200523,2.744875,0.09531374,-0.8757963,0.4661518,17.45953,37.92103,2.008165,1008.029
24.874238968,-60.52506,-0.8269772,6.483383,0.02772067,-0.9099478,0.3368431,16.68606,37.53358,0.6750526,1008.027
24.908885956,-3.517637,-1.182087,6.422096,0.002342414,-1.016506,0.0976117,16.68606,37.53358,0.6750526,1008.027
24.941058636,6.925533,-3.016823,4.644773,-0.0002538962,-0.8959306,0.3111917,17.07607,38.30185,1.561958,1008.03
24.975706577,-13.53079,-5.147483,2.622301,-0.02004038,-0.9323439,0.2970982,17.07607,38.30185,1.561958,1008.034
25.007879257,-23.78967,-5.798518,1.519134,-0.03195686,-0.9643874,0.2882692,17.07607,38.30185,1.561958,1008.036
25.042526245,-33.86427,-2.010678,2.683588,-0.01925055,-1.020007,0.2592542,17.08159,37.9264,2.010099,1008.036
25.074699402,-17.52377,0.6526481,-0.5033376,-0.02764792,-1.000194,0.1794839,17.46448,37.9259,2.390692,1008.033
25.109346867,-6.343436,1.540423,-4.486994,-0.008728724,-0.9825362,0.2156029,17.10387,37.94833,3.731468,1008.033
25.141519070,-12.97792,1.007758,-3.690263,0.004367041,-0.9870266,0.2082137,17.10387,37.94833,3.731468,1008.035
25.173692226,-5.114828,0.6526481,-0.9323467,0.003042637,-1.004747,0.175304,17.10362,37.5672,3.73333,1008.037
25.208339691,0.4139094,0.06079794,0.844977,-0.008949764,-0.9899908,0.1928896,16.73142,37.51472,4.181852,1008.038
25.240512371,-0.691838,0.179168,-0.3807635,-0.01063404,-0.978132,0.219031,16.73142,37.51472,4.181852,1008.038
25.275159836,-4.193372,-0.2943121,-1.422643,-0.000936435,-0.9675986,0.2064954,17.10362,37.5672,3.73333,1008.038
25.307332516,-8.554931,0.06079794,-1.606504,-0.001634906,-0.9822947,0.1885467,17.1094,37.57288,4.179609,1008.04
25.341979981,-5.237689,-0.6494222,0.1708197,0.005623666,-0.9862553,0.1831444,17.1094,37.57288,4.179609,1008.042
25.374153137,-5.790562,-0.5902371,0.5998289,-0.001750222,-0.9915873,0.1793132,17.11518,37.57856,4.625891,1008.042
25.408800125,-0.8146988,-0.3534971,0.2321067,-0.01099732,-0.9847487,0.1789739,17.1204,36.75846,5.0762,1008.044
25.440972805,-2.41189,0.119983,-0.5646245,0.0003230295,-0.9827825,0.1894885,17.1204,36.75846,5.0762,1008.044
25.475620747,-2.289029,0.119983,-0.5646245,-0.00261473,-0.9851947,0.189496,17.12091,37.52073,5.072479,1008.044
25.507793427,0.659631,0.001612922,-0.7484856,0.0002642941,-0.9862209,0.1841587,16.73724,37.58393,4.627825,1008.041
25.542440415,-2.41189,0.179168,-0.3194765,0.0006042357,-0.9916772,0.1691685,16.73724,37.58393,4.627825,1008.041
25.574613571,-1.674725,0.119983,0.1708197,0.003056194,-0.9916784,0.1705916,16.3593,37.5893,4.629759,1008.045
25.609261036,-0.691838,-0.1167571,-0.5033376,0.00031882,-0.9798849,0.1875844,16.74302,37.58961,5.074104,1008.045
25.641433239,-0.6304076,-0.05757209,0.1095327,0.0005617507,-0.9951008,0.1657667,16.74302,37.58961,5.074104,1008.045
25.676081180,-1.244712,-0.05757209,-0.1356154,-0.004089116,-0.9779433,0.1847495,16.74879,37.5953,5.520386,1008.045
25.708253860,-1.859016,-0.05757209,0.1095327,-0.00132164,-0.982456,0.1678165,16.35904,37.20817,4.631618,1008.045
25.740426540,-1.674725,-0.4126822,-0.1969024,-0.001760697,-0.9853105,0.1750271,16.35904,37.20817,4.631618,1008.045
25.775074005,-1.551864,-0.1167571,-0.5033376,0.001663205,-0.9872545,0.1769071,16.37085,37.60067,5.52232,1008.04
25.807246685,-1.121851,-0.2943121,0.1708197,-0.003250991,-0.9848436,0.1716708,16.3706,37.21954,5.524179,1008.04
25.841894150,-1.674725,-0.3534971,-0.5033376,0.008023253,-0.9950083,0.1825678,16.3706,37.21954,5.524179,1008.044
25.874067306,-0.9375597,-0.3534971,-0.3807635,0.004578645,-0.9853461,0.1744856,16.37633,37.1617,5.97077,1008.044
25.908714294,-1.551864,-0.1759421,0.04824567,0.001156945,-0.9867851,0.1745057,16.73172,37.95938,4.179682,1008.044
25.940886974,-1.674725,-0.3534971,0.1708197,-0.005722771,-0.9945317,0.172578,16.73172,37.95938,4.179682,1008.044
25.975534916,-2.780472,-0.1759421,-0.3194765,0.001124494,-0.9877818,0.1711238,16.74302,37.58961,5.074104,1008.044
26.007707596,-2.350459,-0.2351271,0.1095327,0.001069625,-0.9873481,0.1643799,17.12695,37.90754,5.516901,1008.044
26.042354584,-3.210485,-0.4126822,-0.2581894,0.002118561,-0.9853523,0.1720985,17.12695,37.90754,5.516901,1008.045
26.074527264,-4.193372,-0.2351271,-0.2581894,-0.001961081,-0.9995162,0.1580419,17.12617,36.76414,5.522482,1008.045
26.109175205,-2.657611,-0.6494222,0.1708197,-0.003858324,-0.9941374,0.1619599,16.75457,37.60099,5.966665,1008.044
26.141347408,-0.8761293,-0.3534971,-0.07432837,0.003023449,-0.9868726,0.1643656,16.74849,37.15065,5.522556,1008.044
26.175995350,-1.920446,-0.1759421,-0.07432837,-0.00138669,-0.981548,0.1596306,16.74849,37.15065,5.522556,1008.044
26.208168030,-1.429003,-0.1759421,-0.3194765,-0.004480341,-0.9942569,0.1460587,16.74875,37.53178,5.520695,1008.045
26.240340710,-1.736155,-0.1167571,-0.3194765,0.004422704,-0.9946757,0.1604322,16.75427,37.15633,5.968836,1008.045
26.274988175,-0.2003947,-0.1759421,-0.01304135,0.001480833,-0.9961246,0.1594837,16.75427,37.15633,5.968836,1008.045
26.307160854,-0.9375597,-0.05757209,-0.07432837,-0.003820244,-0.9839478,0.1615615,16.75427,37.15633,5.968836,1008.047
26.341808319,0.2910486,0.001612922,-0.07432837,0.00830387,-0.992298,0.1565596,17.13251,37.59562,5.964731,1008.045
26.373980522,1.089644,-0.3534971,2.744875,0.003297658,-1.018018,0.1539842,17.13251,37.59562,5.964731,1008.045
26.408628464,12.69999,4.736414,7.341402,-0.0191918,-1.040188,0.1597953,17.13195,36.76983,5.968761,1008.045
26.440801144,32.35772,8.997735,36.08501,-0.3710299,-1.20761,0.1260301,16.75432,37.21985,5.968525,1008.044
26.475449085,130.0935,-11.71702,103.5007,-0.3279153,-1.388931,0.117867,16.75432,37.21985,5.968525,1008.048
26.507621765,304.863,35.74936,145.7275,-0.5462862,-1.231053,0.2460441,17.10306,36.74141,3.73736,1008.046
26.542268753,224.7578,29.71249,202.2341,-0.7236695,-0.9093427,0.8755047,21.24306,36.22155,-2.466548,1008.046
26.574441433,9.628471,60.96218,306.0543,-0.4524662,-0.7565424,0.78651,21.24306,36.22155,-2.466548,1008.046
26.609089374,44.09093,125.2963,340.4363,-0.5782308,-0.4324312,0.1232682,26.08494,31.89188,-7.762834,1008.046
26.641261578,195.2097,176.7873,300.7836,-0.5565682,0.4146617,0.02641965,34.04015,24.94148,-5.984829,1008.046
26.675909519,14.35861,179.569,184.7061,-0.712985,0.5034336,0.3597447,34.04015,24.94148,-5.984829,1008.044
26.708082199,-182.7102,7.695665,59.43537,0.3305298,-0.5628664,0.6631926,39.75425,15.7641,-2.016407,1008.044
26.740254879,-413.3813,228.6333,-83.60854,1.722088,-1.734731,0.9711986,42.84062,7.403619,3.300671,1008.044
26.774901867,474.9024,341.0848,-123.629,-0.813088,-1.260814,-0.8275346,42.84062,7.403619,3.300671,1008.044
26.807075024,-149.3534,-163.0531,-196.2541,-0.6076567,-1.187013,1.57537,41.79662,4.841936,10.39623,1008.044
26.841722488,71.12032,84.34026,-31.57586,-1.613198,-0.7383123,0.5140754,38.06256,12.17695,13.50418,1008.044
26.873894691,-14.32939,44.62711,-13.31233,-0.8107571,-0.8103533,-0.1287995,38.06256,12.17695,13.50418,1008.044
26.908542633,-4.439093,18.70408,-2.525809,-0.6397814,-0.6679035,-0.1769384,36.58118,15.65624,15.66282,1008.044
26.940715313,7.785559,-17.22123,22.66316,-0.8522417,-0.7405927,-0.04686135,36.21531,16.43524,16.55359,1008.044
26.975362301,0.2910486,-10.23739,31.36592,-0.7339131,-0.4190964,0.1156728,36.21531,16.43524,16.55359,1008.044
27.007535934,-17.64663,-20.53559,45.40064,-0.7830507,-0.7875662,0.1376756,35.45917,16.06485,16.55932,1008.046
27.042182922,-36.87436,-10.41495,51.7132,-0.7994201,-0.6359992,0.2070398,35.83108,15.67266,16.11297,1008.046
27.074355602,-26.79976,-2.188233,66.78981,-0.7101763,-0.4551582,0.112262,35.83108,15.67266,16.11297,1008.046
27.109003544,-35.27716,23.14295,96.6366,-0.9499171,-0.4841101,0.1687263,37.32973,13.35302,15.22383,1008.046
27.141175747,-20.22671,47.17207,99.51708,-0.9851577,-0.4733551,0.09298788,38.10167,11.45367,16.56811,1008.048
27.175823212,1.151074,27.04917,116.2484,-0.9081684,-0.5288565,-0.06821189,38.48885,8.029467,17.47549,1008.046
27.207996368,14.17432,20.77555,126.2995,-1.187246,-0.4365092,-0.1058165,38.48885,8.029467,17.47549,1008.046
27.242643356,26.27612,14.32439,95.59471,-1.052338,-0.2523272,-0.05253694,39.25396,4.599897,18.38092,1008.046
27.274816036,72.16463,-2.365788,66.54466,-0.9122467,0.1152656,0.1222242,38.49521,0.3546436,18.40557,1008.046
27.306988716,52.44547,-19.707,20.70197,-0.9554983,0.01286894,-0.1553661,38.49521,0.3546436,18.40557,1008.05
27.341636658,-7.572044,-39.8299,-10.24797,-0.8632126,-0.127737,-0.1390705,38.11625,-1.164522,18.41495,1008.05
27.373808861,53.30549,-49.53624,-45.5493,-0.8513987,0.1467033,0.1469795,38.48237,-1.562393,17.52232,1008.05
27.408456802,-16.66374,-52.19957,-65.89659,-0.7428049,-0.2170937,0.1212771,38.48237,-1.562393,17.52232,1008.05
27.440629482,49.86539,-53.91594,-74.17034,-0.8585324,0.01054252,0.2350935,39.22195,-0.06565118,16.17216,1008.05
27.475276470,-9.96783,-61.66917,-90.4114,-0.8519791,-0.2473751,0.1524121,39.95135,2.246323,13.98917,1008.05
27.507449150,-65.56235,-69.00812,-80.29904,-0.7598909,-0.4736402,0.01231764,39.95135,2.246323,13.98917,1008.052
27.542097092,14.7272,-88.53917,-70.98341,-0.7608344,-0.5241211,0.3893159,39.92451,5.266966,11.74288,1008.052
27.574269771,60.24713,-78.06342,-72.08658,-0.9747921,-0.1853534,0.3743432,40.65883,7.520291,9.942728,1008.05
27.608917713,2.195391,-64.3325,-46.59118,-0.8725151,-1.01451,0.1703794,40.65883,7.520291,9.942728,1008.05
27.641089916,58.46565,-55.86904,-28.32764,-1.205512,-0.5055759,0.3675901,40.99316,10.13819,6.42128,1008.05
27.675737381,56.25415,-51.72609,-13.68005,-1.017936,-0.6480603,0.516495,40.58184,12.01512,3.736227,1008.054
27.707909584,75.42045,-71.19796,-6.01917,-1.15525,-0.4329951,0.6226972,40.58184,12.01512,3.736227,1008.054
27.742557526,20.87024,-87.47384,-4.180559,-1.333723,-0.4440385,0.5861935,40.54852,12.74409,1.118576,1008.05
27.774730205,2.0111,-138.3729,-6.754614,-1.32308,-0.04646071,0.7894017,40.13642,13.47761,-1.560896,1008.054
27.806902885,-140.016,-118.25,-21.95379,-0.7577986,-0.50038,0.4487692,40.13642,13.47761,-1.560896,1008.054
27.841550827,305.1088,201.2899,32.3465,-2.481061,0.7335511,-0.3959514,40.45715,13.03507,-5.960021,1008.05
27.873723030,11.53281,-35.68695,-57.68413,-1.125698,1.002004,0.4833858,40.47551,14.57666,-4.628623,1008.054
27.908370495,-156.0494,58.65396,-68.65451,-0.6274915,-3.823382E-05,0.2077864,40.47551,14.57666,-4.628623,1008.053
27.940543652,-62.67513,169.4483,-53.5779,-1.017682,-0.5612314,-0.3089387,40.46896,13.42758,-5.069321,1008.053
27.975190639,24.86321,142.2824,-25.07943,-1.501483,-0.8636208,-0.2432933,40.16159,16.54942,0.209341,1008.051
28.007363319,178.1935,54.27427,-78.70558,-0.8635229,-0.3647833,0.4036376,40.16159,16.54942,0.209341,1008.051
28.042011261,81.19491,-0.7677922,-64.36442,-0.4112182,-0.5970823,0.2167523,39.83008,18.12399,3.710321,1008.049
28.074183941,49.31252,-9.645544,-48.8588,-0.1966512,-0.6399472,0.3353786,38.68124,21.55324,2.360535,1008.047
28.108830929,-126.5628,0.356723,-34.45635,-0.1058164,-0.5542237,0.2436579,38.68124,21.55324,2.360535,1008.044
28.141004086,-282.9032,-4.555633,-60.50333,-0.1414987,-0.727774,-0.3184873,37.92165,24.60736,1.903234,1008.042
28.175651550,-417.6201,-9.763914,-97.5207,-0.02391213,-1.192192,-0.7355228,37.9626,25.40942,5.023478,1008.042
28.207823753,-381.5604,61.2581,-120.442,0.3032032,-1.61564,-0.8027979,37.9626,25.40942,5.023478,1008.039
28.242471695,-216.0669,151.1601,-125.8966,0.7542177,-1.652524,-0.8892505,36.94378,25.91955,13.88928,1008.035
28.274644375,-129.45,252.84,-130.7383,0.8351309,-1.680203,-0.7128578,34.41609,23.40695,23.16022,1008.033
28.309291840,-165.3868,325.1049,-101.4431,0.656827,-2.137278,-0.7458102,28.48302,22.46233,32.05861,1008.032
28.341464996,-26.00117,358.2485,-74.3542,0.5363938,-2.110175,-1.211521,28.48302,22.46233,32.05861,1008.032
28.373637199,162.9588,394.1738,-65.89659,0.2466886,-1.799995,-1.457864,17.92202,20.4112,38.7547,1008.03
28.408284664,221.8091,381.5674,-79.50231,0.06915567,-1.271675,-1.353042,3.926442,20.21733,37.93555,1008.028
28.440457821,155.0957,366.5936,-103.7107,0.06302386,-0.8542056,-1.413649,3.926442,20.21733,37.93555,1008.026
28.475104809,9.505611,369.9079,-122.9548,-0.02714671,-0.643493,-1.212005,-9.772925,26.03177,30.45424,1008.023
28.507277489,-109.4851,324.8681,-121.9129,-0.05811423,-0.6966991,-1.270958,-21.28653,29.51104,21.63397,1008.017
28.541925430,-135.4702,282.8468,-115.7842,0.1779461,-0.8234206,-0.9348779,-21.28653,29.51104,21.63397,1008.017
28.574098110,-141.9204,270.3587,-78.88944,0.1999498,-0.678085,-0.7675953,-30.8061,25.76651,16.40932,1008.016
28.608745098,-265.2726,237.6886,-52.84246,0.1400229,-0.7974375,-0.9887758,-36.18066,20.80816,10.27641,1008.014
28.640918255,-338.1291,200.8164,-6.01917,-0.01630606,-0.9985402,-0.7952113,-36.18066,20.80816,10.27641,1008.01
28.675565720,-187.0717,149.503,19.47623,0.09488015,-1.04127,-0.725747,-39.2519,17.37624,6.802134,1008.007
28.707737923,-166.2468,156.9603,27.01454,0.05822262,-0.8971123,-0.6861386,-40.78228,15.47499,5.48033,1008.007
28.742385864,-210.3538,119.2002,33.57225,-0.05768563,-1.139445,-0.7150108,-40.78228,15.47499,5.48033,1008.003
28.774558544,-59.84933,81.20345,29.95631,0.08196189,-0.9805617,-0.6663221,-41.18936,15.0708,3.252722,1008.002
28.809206009,-43.75456,79.72382,27.13711,0.04098531,-0.7465587,-0.3709549,-40.45525,15.8004,1.523766,1007.998
28.841378212,-23.17537,38.82698,14.38941,-0.0364794,-1.004656,-0.4051358,-40.45525,15.8004,1.523766,1007.991
28.876026154,19.33448,8.22833,-3.935411,0.2393337,-0.6237708,-0.05560177,-41.6109,17.69944,-0.2648582,1007.989
28.908198833,-79.93707,8.997735,-16.7444,0.2014691,-0.4618141,-0.2264691,-41.23822,18.45065,-0.716795,1007.989
28.940371513,-91.79314,-31.83993,-25.56973,0.3737594,-0.7853316,-0.5898334,-41.23822,18.45065,-0.716795,1007.984
28.975018978,-15.00512,-6.567924,-22.32152,0.5258843,-0.8549095,-0.5137426,-41.22089,18.4677,0.6220474,1007.98
29.007191658,32.112,-3.727043,-31.33071,0.3717424,-0.7578924,-0.4946345,-41.5768,18.11386,2.347208,1007.978
29.041839123,92.06809,-20.35803,-34.88536,0.4732576,-0.8525317,-0.6800038,-41.5768,18.11386,2.347208,1007.977
29.074012280,186.4252,-4.614818,-36.84654,0.4712348,-0.6399282,-0.6170183,-42.71114,17.3677,2.356731,1007.977
29.108659267,218.1847,-6.745479,-35.92724,0.4666585,-0.3780544,-0.6495206,-43.49033,15.83198,0.6466751,1007.975
29.140831947,187.2852,5.801744,-16.80569,0.4769201,-0.2824209,-0.577974,-43.49033,15.83198,0.6466751,1007.967
29.175479889,200.1856,26.87161,7.586549,0.4052607,-0.2644377,-0.8099629,-43.89742,15.42779,-1.580934,1007.966
29.207652092,284.8367,0.119983,7.034966,0.486068,-0.3038941,-0.5242525,-44.316,13.86964,-4.631767,1007.962
29.242299557,293.1913,0.8893881,0.5998289,0.6612766,-0.3205951,0.06683434,-43.60109,13.05685,-7.755877,1007.96
29.274472714,301.9144,54.33345,-3.199967,0.7034778,-0.5470112,-0.3769376,-43.60109,13.05685,-7.755877,1007.96
29.309120178,418.2636,26.22058,22.60187,0.54982,-0.114181,-0.1140658,-44.40314,11.87951,-11.25292,1007.957
29.341292381,445.9073,0.179168,27.81127,0.7252537,0.2902518,-0.04874464,-43.71339,7.99491,-16.14726,1007.955
29.375940323,277.8336,33.73707,88.1177,1.035371,0.4373483,0.7217375,-43.71339,7.99491,-16.14726,1007.955
29.408113003,-87.61587,68.00519,102.3363,0.8355761,0.05081384,0.8847769,-42.98232,3.008322,-17.78456,1007.951
29.440285683,-255.4438,-16.09671,85.48235,0.9020902,-0.7041566,0.3959328,-41.87268,1.381421,-19.56773,1007.951
29.474933148,-153.8379,5.860929,138.6795,1.067068,-1.002151,0.2536029,-41.87268,1.381421,-19.56773,1007.951
29.507105827,9.075598,-32.96444,99.63966,0.8532563,-1.202206,0.1681528,-41.46721,7.941584,-17.81648,1007.949
29.541753292,215.6661,-61.72836,131.8154,0.8931563,-1.151252,0.1296406,-39.93488,15.17708,-16.64824,1007.947
29.573925495,353.0859,-59.9528,140.2117,1.088799,-0.7079002,-0.03240976,-39.93488,15.17708,-16.64824,1007.945
29.608573437,319.7906,-21.00907,173.4905,1.349386,-0.3975933,0.2814986,-39.19366,16.67544,-17.87088,1007.945
29.640746117,197.237,15.27135,193.2249,1.084619,-0.3106773,0.5560513,-37.73416,16.22167,-21.89328,1007.944
29.675393104,135.3765,14.62031,207.4435,0.7905462,-0.457389,0.4756459,-37.73416,16.22167,-21.89328,1007.942
29.707566261,317.7634,6.748704,219.3945,0.9531819,-0.2655767,0.3402678,-35.87856,15.7804,-24.51502,1007.94
29.742213726,428.5225,28.94308,218.9655,0.8419334,0.1550234,0.4291233,-32.14385,17.96804,-28.11577,1007.938
29.774386406,464.9507,71.97058,210.6918,0.8101865,0.7687305,0.2450532,-32.14385,17.96804,-28.11577,1007.938
29.809034347,440.2557,126.2432,238.0871,0.736663,1.280749,0.1911564,-28.83055,14.40506,-34.74688,1007.938
29.841206551,254.3672,148.2009,303.9093,0.4737087,1.498314,0.792601,-24.35815,5.518527,-39.12634,1007.937
29.875854015,-2.227598,99.19569,267.1984,0.1267992,1.252908,1.034814,-24.35815,5.518527,-39.12634,1007.938
29.908027172,-168.0283,41.19438,278.4139,0.4115578,0.5285721,1.008834,-20.60782,-3.387489,-40.8877,1007.94
29.942674160,-141.4903,10.95084,232.3874,0.7307366,0.1172471,0.7460411,-17.59355,-0.01160586,-41.81248,1007.94
29.974846840,-80.79709,9.471215,177.8419,0.6255637,-0.1895291,0.8645112,-17.59355,-0.01160586,-41.81248,1007.94
30.007019520,75.42045,-41.78301,124.277,0.4807183,-0.4863454,0.6122941,-15.62257,9.945021,-40.9786,1007.94
30.041667461,290.1198,-70.60611,94.30769,0.5200285,-0.1579498,0.4854588,-12.96787,14.86786,-40.57004,1007.94
30.073839664,339.8784,-82.5023,84.56305,0.5489085,0.3491394,0.4247818,-12.96787,14.86786,-40.57004,1007.94
30.108487129,200.0013,-85.87585,109.6907,0.4795851,0.4988807,0.3490612,-13.74289,12.19361,-41.89199,1007.942
30.140660286,76.09618,-78.30016,110.4262,0.4447263,0.5539876,0.2973028,-15.25607,1.549029,-41.38587,1007.942
30.175307274,53.42835,-83.686,113.1841,0.6009748,0.5367406,0.4904305,-15.25607,1.549029,-41.38587,1007.944
30.207479954,75.97332,-125.8849,90.87561,0.8003939,0.4752602,0.325147,-18.32863,-3.408331,-40.00674,1007.945
30.242127895,127.882,-140.7995,57.84191,1.20009,0.6456017,0.01289611,-21.70145,-3.712724,-37.75607,1007.947
30.274300575,122.2919,-115.0541,93.38838,1.335567,0.9158546,0.1502658,-21.70145,-3.712724,-37.75607,1007.949
30.308947563,15.71008,-75.16336,113.797,1.127332,0.8159492,0.2154912,-25.43019,-4.370954,-33.78024,1007.951
30.341120720,-72.934,-66.64072,113.8582,1.097606,0.4858572,0.3803011,-29.15887,-6.171772,-29.73507,1007.951
30.375768185,-36.01433,-60.66302,111.4681,0.8714182,0.2068811,0.3121498,-31.02473,-3.836202,-28.0152,1007.952
30.407940388,24.31034,-81.55534,59.49666,1.094753,0.1336428,0.2111342,-31.02473,-3.836202,-28.0152,1007.954
30.442588329,74.80614,-41.07279,41.90728,1.266086,0.1496851,0.3248656,-32.51055,0.4004805,-26.24281,1007.956
30.474761009,74.00755,-67.82442,4.951208,1.10798,0.1650927,0.1437901,-33.98821,0.8363851,-23.623,1007.954
30.506933689,88.19798,-113.2785,-43.15911,1.601163,0.2307372,-0.02656044,-33.98821,0.8363851,-23.623,1007.954
30.541580677,41.87944,-31.07052,-57.74542,1.22856,0.1869668,-0.1521384,-35.09917,0.4940966,-21.83022,1007.957
30.573753834,12.94571,-77.94505,-62.34195,0.6796878,0.2767714,-0.06385458,-36.96782,-2.505389,-20.02054,1007.961
30.608401298,35.67496,-88.89428,-48.18464,0.7888789,0.3428896,-0.1684403,-36.96782,-2.505389,-20.02054,1007.964
30.640573502,0.352479,-54.68534,-46.52989,0.8098707,0.5424693,-0.2060327,-37.69109,-5.509611,-17.3241,1007.968
30.675221443,-29.13412,-28.34801,-38.74644,0.8946688,0.6526073,-0.156752,-38.04359,-8.145376,-15.20525,1007.967
30.707394123,-21.45532,-49.83217,-24.89557,0.9154176,0.6214159,-0.2858967,-38.04359,-8.145376,-15.20525,1007.967
30.742041588,33.40204,-41.72382,6.728531,0.8120697,0.6447546,-0.2842579,-38.77738,-9.636435,-13.40882,1007.967
30.774214745,12.14712,-29.70926,36.26888,0.6923977,0.641414,-0.3540227,-39.51066,-10.36522,-11.61611,1007.969
30.808861732,-9.660678,-29.70926,66.66724,0.7412927,0.6780099,-0.3604432,-39.51066,-10.36522,-11.61611,1007.971
30.841034412,-54.87347,-60.30791,77.14732,1.149583,0.592177,-0.3389327,-40.25555,-9.962797,-10.78529,1007.969
30.875682354,-71.02966,-8.106733,93.08195,1.57335,0.2426335,-0.2643106,-40.23668,-7.658942,-9.457614,1007.969
30.907854557,-17.83092,43.73934,110.5487,1.11464,0.09545557,-0.1335138,-40.23668,-7.658942,-9.457614,1007.969
30.942502022,13.06857,42.49645,116.8613,0.7469302,0.03846672,-0.01872867,-41.37396,-4.218319,-9.91484,1007.97
30.974674702,19.21162,19.11837,104.3588,0.5606615,0.01344914,-0.04708081,-41.00944,0.3336718,-11.21419,1007.972
31.009322166,26.15325,-8.698584,90.69175,0.8156883,-0.008751191,-0.1180874,-41.00944,0.3336718,-11.21419,1007.976
31.041494846,13.99003,16.69179,86.76939,1.104371,-0.03656463,-0.01400653,-40.63466,4.197475,-11.68132,1007.972
31.073667526,17.06155,-6.804664,80.64068,0.8711639,-0.08029117,-0.04400292,-39.50431,7.605886,-12.15015,1007.972
31.108315468,40.03652,-34.38488,67.09624,0.963133,-0.1301993,-0.2255403,-39.50431,7.605886,-12.15015,1007.972
31.140487671,55.82414,-24.85609,85.05334,1.014945,-0.001266257,-0.2779808,-38.74033,11.03104,-11.72449,1007.972
31.175135136,43.2309,3.079233,114.226,1.132368,-0.07060987,-0.382796,-38.73301,13.32352,-11.28937,1007.973
31.207307816,-19.24382,35.9861,129.1187,1.038017,-0.2725389,-0.1305306,-38.73301,13.32352,-11.28937,1007.975
31.241955757,-17.40091,33.55951,138.8021,0.62881,-0.4318168,-0.02632354,-37.99292,15.58253,-12.64324,1007.975
31.274127960,10.05849,-35.62777,115.2678,0.6989964,-0.4911263,-0.1821892,-35.34426,20.11855,-12.67911,1007.977
31.308775425,16.1401,-2.780083,132.3669,0.8049699,-0.3818478,-0.1678172,-35.34426,20.11855,-12.67911,1007.979
31.340948582,-20.28814,4.618044,156.8204,0.5289014,-0.3691926,-0.2152648,-32.32318,25.02466,-13.16505,1007.974
31.375595570,-70.23106,-1.951493,161.4783,0.5401267,-0.50937,-0.3216011,-29.29157,28.41759,-12.75099,1007.979
31.407768250,-73.97832,3.671084,181.8256,0.6444229,-0.5584053,-0.2559806,-29.29157,28.41759,-12.75099,1007.979
31.442416191,-40.62161,-7.041403,196.8409,0.3441218,-0.6668153,-0.2829922,-25.11407,32.56807,-11.45389,1007.98
31.474588871,31.4977,-19.23351,204.1953,0.2724859,-0.6982468,-0.3139128,-19.04166,37.0777,-9.785789,1007.976
31.509235859,56.19272,5.091524,222.4589,0.2799743,-0.6919558,-0.122577,-10.6619,40.07129,-9.843853,1007.976
31.541408539,-18.07664,-13.61094,217.4946,-0.02789972,-0.9386009,0.235906,-10.6619,40.07129,-9.843853,1007.976
31.576056480,64.79298,-52.67305,163.3169,0.2253883,-1.744536,-0.06953131,-3.118586,41.47221,-11.16506,1007.976
31.608228683,-211.3367,-45.15655,195.5539,-0.3688096,-2.703615,1.75392,6.334086,40.19947,-10.8253,1007.976
31.640401363,24.31034,-44.03204,-33.35318,-0.2120931,-1.254473,-0.6248664,6.334086,40.19947,-10.8253,1007.978
31.675049305,-147.8791,48.05984,-114.3133,0.09137908,-1.155789,-0.1574171,12.76355,38.20822,-10.40259,1007.98
31.707221985,162.5288,8.70181,-13.86391,-0.3554163,-1.032785,-0.4819216,12.41476,38.62315,-8.171115,1007.982
31.741868973,287.6625,-12.90072,-0.6871986,0.1386001,-0.8114932,-0.1053734,12.41476,38.62315,-8.171115,1007.983
31.774041653,232.4366,-23.37647,11.32506,0.2163049,-0.4599237,0.02838579,8.939784,39.74178,-13.89719,1007.983
31.808689594,-27.53693,-5.798518,39.27194,0.2634859,-0.4566175,0.2988565,8.067637,36.14671,-22.67436,1007.985
31.840861797,-128.7742,4.736414,48.46499,0.2124876,-1.189307,0.04313429,8.067637,36.14671,-22.67436,1007.985
31.875509739,-25.44829,9.352845,9.180012,-0.05377411,-1.394077,-0.1840551,8.449555,33.4791,-22.21699,1007.985
31.907682419,29.83908,0.356723,-7.306197,0.1042082,-0.9919433,0.01251377,10.75315,35.38666,-19.56021,1007.989
31.942329407,17.553,3.493529,5.625365,0.06603901,-0.9464695,0.09422073,10.75315,35.38666,-19.56021,1007.989
31.974502087,37.94789,2.250643,9.854169,0.007488141,-1.089754,0.1065998,10.74107,34.61303,-20.44905,1007.989
32.009150028,28.18046,-3.194378,-0.1969024,0.0627701,-0.9333373,0.2216074,11.11272,33.83971,-20.89355,1007.99
32.041322708,-29.01126,2.132273,1.886856,0.09454355,-0.8444691,0.1849296,11.11272,33.83971,-20.89355,1007.992
32.075969696,-46.15034,-0.8269772,2.132004,0.05750457,-0.9244385,0.11328,10.71141,33.4412,-22.67488,1007.992
32.108142853,-63.78087,-0.5310522,1.212699,0.03540716,-1.041404,0.03732997,10.72875,33.45826,-21.33603,1007.992
32.140315533,-44.67602,-0.8269772,-3.445115,0.006350535,-1.088854,-0.02930601,10.72875,33.45826,-21.33603,1007.992
32.174962997,-16.54088,-2.365788,-8.164215,0.03005231,-1.041811,-0.01901736,11.14187,34.24926,-18.66401,1007.994
32.207135201,-0.9989902,-1.478012,-7.306197,0.06566846,-1.033291,-0.02409945,10.77652,35.79053,-17.77695,1007.994
32.241783142,2.502543,-0.7677922,-2.341948,0.08804411,-0.9783782,-0.001201556,10.77652,35.79053,-17.77695,1007.994
32.273955822,-8.309209,0.297538,-0.5033376,0.1034238,-0.9632336,0.02143376,10.77652,35.79053,-17.77695,1007.994
32.308602810,-13.89938,1.658793,-0.3194765,0.0550569,-1.023937,-0.01380132,10.39832,35.41477,-17.77316,1007.996
32.340775490,-8.063487,0.238353,-3.996698,0.03405065,-1.026754,-0.01507454,10.39832,35.41477,-17.77316,1007.996
32.375423431,4.038304,-1.300457,-3.322541,0.055415,-0.9950802,0.0148712,10.40353,35.80077,-17.39249,1007.996
32.407596111,-3.94765,-1.063717,-1.912939,0.1272309,-1.021476,0.03711945,10.40823,35.42451,-17.00811,1007.996
32.442243099,-16.1723,0.5934631,-0.4420505,0.09574119,-1.008983,0.0004023155,10.0308,36.19215,-17.0099,1007.997
32.474416256,-28.45838,0.415908,2.499727,0.08288913,-0.9950454,-0.02587283,10.0308,36.19215,-17.0099,1007.997
32.509063721,-24.83399,1.066943,3.357745,0.06044438,-1.008917,-0.0768697,9.658895,36.58434,-16.56354,1007.997
32.541235924,-8.309209,0.6526481,-0.07432837,0.05230536,-1.03626,-0.1030471,10.42055,36.57928,-16.12113,1007.997
32.575883865,9.32132,-0.4718672,-2.219374,0.07408518,-1.017227,-0.0756195,10.42055,36.57928,-16.12113,1007.997
32.608056545,14.35861,0.415908,-0.3194765,0.07402285,-0.9984616,-0.03401226,10.43237,36.97179,-15.23043,1007.999
32.642703533,6.249799,0.297538,0.1708197,0.06497702,-0.994825,-0.008833898,10.42029,36.19815,-16.11927,1007.999
32.674876213,-5.48341,-0.4718672,-0.1356154,0.05991114,-1.005608,-0.02574551,10.42029,36.19815,-16.11927,1007.999
32.707049370,-4.316233,-0.5310522,-0.9323467,0.07045525,-1.006803,-0.04802572,10.79271,36.56823,-16.56934,1007.999
32.741696835,0.7824919,-0.2943121,-0.9936337,0.08159328,-1.014674,-0.05446053,10.80979,36.20415,-15.22864,1008.001
32.773869038,0.352479,-0.1759421,0.2933938,0.08430656,-1.000414,-0.02882232,10.80979,36.20415,-15.22864,1008.003
32.808516979,-0.3232556,0.6526481,1.151412,0.0608199,-1.003257,-0.03489259,10.42633,36.58497,-15.67485,1008.001
32.840689659,-1.797585,-0.1759421,0.4772548,0.06850362,-1.010662,-0.04611132,10.42107,37.34155,-16.12485,1008.003
32.875336647,-1.244712,0.297538,0.1095327,0.06749912,-1.007782,-0.0508982,10.42107,37.34155,-16.12485,1008.003
32.907509327,6.556951,-0.5310522,-0.9936337,0.05787602,-1.005191,-0.03584506,10.42055,36.57928,-16.12113,1008.003
32.942157269,2.379683,0.8302032,2.315866,0.06025647,-0.9970363,-0.04688604,10.79875,36.95505,-16.12492,1008.005
32.974329948,6.37266,-0.2943121,-0.3194765,0.07990092,-1.00379,-0.02880904,10.79875,36.95505,-16.12492,1008.007
33.008976936,1.581087,0.415908,-0.3194765,0.07747533,-1.003281,-0.02733621,10.79875,36.95505,-16.12492,1008.007
33.041150093,-1.490433,0.475093,-0.2581894,0.07063346,-0.9960027,-0.03203236,10.04287,36.96579,-16.12106,1008.007
33.075797558,-1.121851,1.836348,3.602893,0.06022671,-1.011087,-0.0436276,10.04287,36.96579,-16.12106,1008.007
33.107970238,-1.367573,0.356723,-0.5033376,0.08828343,-1.03418,-0.06191376,10.04261,36.58466,-16.11919,1008.007
33.142617703,1.765378,0.179168,-0.3194765,0.07062151,-1.000849,-0.03110821,10.42055,36.57928,-16.12113,1008.005
33.174790382,3.854012,-0.5310522,-0.3194765,0.06483298,-0.998341,-0.02428552,10.42055,36.57928,-16.12113,1008.005
33.206963062,2.625404,0.5934631,-0.4420505,0.088105,-1.009234,-0.03712446,10.42029,36.19815,-16.11927,1008.007
33.241610050,2.993987,-0.05757209,-0.5646245,0.06522799,-1.008099,-0.03063565,10.42081,36.96042,-16.12299,1008.007
33.273783207,3.239708,0.6526481,0.7836899,0.07453984,-1.010043,-0.02495457,10.42081,36.96042,-16.12299,1008.008
33.308430672,-0.0775339,-0.1759421,0.6611159,0.07428466,-0.9938715,-0.005056891,10.79271,36.56823,-16.56934,1008.008
33.340603352,-2.289029,0.7710181,-1.729078,0.09222196,-1.041421,-0.05429821,10.40926,36.94905,-17.01555,1008.007
33.375250816,-2.166168,-0.2943121,1.028838,0.08241332,-0.9940648,-0.02489631,10.40926,36.94905,-17.01555,1008.003
33.407423496,3.239708,0.06079794,0.844977,0.06367083,-1.011078,-0.04028567,10.79271,36.56823,-16.56934,1008.003
33.442070961,4.284025,0.475093,0.1095327,0.06916582,-1.001802,-0.02965648,10.42055,36.57928,-16.12113,1008.005
33.474243164,1.826809,0.06079794,-0.07432837,0.06344225,-0.9982671,-0.01559595,10.42055,36.57928,-16.12113,1008.001
33.508891106,-1.490433,0.001612922,0.04824567,0.06584154,-1.001218,-0.01901665,10.04236,36.20352,-16.11733,1008.005
33.541063786,-1.920446,0.179168,0.2321067,0.06811933,-1.012016,-0.03310491,10.79271,36.56823,-16.56934,1008.001
33.575710773,-0.384686,0.06079794,0.5385419,0.06859922,-1.012993,-0.03359944,10.42055,36.57928,-16.12113,1008.003
33.607884407,0.5367702,0.119983,0.1095327,0.06819002,-1.003731,-0.02869928,10.42055,36.57928,-16.12113,1008.003
33.642531395,0.1681878,-0.1759421,0.2321067,0.06622402,-1.004218,-0.03013094,11.17643,36.56855,-16.125,1008.008
33.674704075,1.765378,-0.4718672,-0.1969024,0.06626865,-1.00321,-0.02530305,10.41477,36.5736,-16.56741,1008.003
33.706876278,1.273935,-0.4126822,0.1708197,0.06533547,-1.004617,-0.01952195,10.41477,36.5736,-16.56741,1008.004
33.741524219,-0.384686,-0.1167571,0.1095327,0.06678113,-1.006091,-0.0209936,10.7922,35.80597,-16.56562,1008.004
33.773696899,-1.674725,-0.05757209,0.3546808,0.06675038,-1.0008,-0.02721568,9.65286,36.19752,-17.00796,1008.004
33.808343887,-1.859016,-0.2351271,-0.01304135,0.06808664,-1.008177,-0.03885695,9.65286,36.19752,-17.00796,1008.006
33.840516567,0.04532692,-0.1759421,-0.07432837,0.06915369,-1.00278,-0.03062843,10.42582,35.8227,-15.67113,1008.006
33.875164509,-0.3232556,-0.05757209,-0.01304135,0.07067624,-0.9983817,-0.02578638,10.79823,36.19278,-16.1212,1008.006
33.907337189,-1.306142,-0.2351271,0.1708197,0.07009117,-1.006205,-0.03355741,10.79823,36.19278,-16.1212,1008.006
33.941984177,-0.8146988,-0.1759421,0.1095327,0.0672404,-1.001284,-0.02674225,10.41477,36.5736,-16.56741,1008.006
33.974157333,-0.5075468,-0.1759421,-0.07432837,0.07104285,-1.009133,-0.03503642,10.78668,36.18141,-17.01376,1008.006
34.008804798,1.703948,0.06079794,0.4159678,0.07258987,-1.006647,-0.02635438,10.78668,36.18141,-17.01376,1008.008
34.040977478,-0.0775339,0.001612922,0.2933938,0.06877116,-0.9988129,-0.01998816,10.79849,36.57392,-16.12306,1008.006
34.075624943,-1.797585,-0.2351271,-0.2581894,0.06720991,-1.000828,-0.0305942,10.42029,36.19815,-16.11927,1008.006
34.107797623,-0.8146988,-0.2351271,-0.07432837,0.06763721,-1.006689,-0.0349845,10.42029,36.19815,-16.11927,1008.006
34.142445087,1.335366,-0.05757209,0.1095327,0.06765958,-1.007152,-0.03209653,10.79823,36.19278,-16.1212,1008.006
34.174617291,1.581087,-0.2351271,0.04824567,0.06868164,-0.9959928,-0.03201407,10.42607,36.20383,-15.67299,1008.006
34.209265232,0.1681878,-0.1759421,0.2321067,0.06432897,-1.002222,-0.02431281,10.42607,36.20383,-15.67299,1008.008
34.241437912,-0.2003947,0.001612922,-0.01304135,0.06674456,-1.006125,-0.02533153,10.79798,35.81165,-16.11934,1008.006
34.273610592,-1.306142,-0.1759421,-0.07432837,0.06724455,-1.003215,-0.0253122,10.03658,36.19784,-16.56361,1008.004
34.308257580,-2.903333,-0.9453472,-1.48393,0.06626865,-1.00321,-0.02530305,10.03658,36.19784,-16.56361,1008.004
34.340430737,-3.94765,-0.5902371,0.2321067,0.07692674,-1.009137,-0.03171736,11.18195,36.1931,-15.67686,1008.004
34.375078201,-1.674725,-2.780083,-0.4420505,0.03144058,-0.9616522,-0.008729489,10.40874,36.18678,-17.01183,1008.004
34.407250404,-22.25391,-7.218958,-4.486994,0.07150622,-0.9734111,0.002849705,10.40874,36.18678,-17.01183,1008.006
34.441898346,-31.65277,-7.810809,-3.567689,0.05482245,-1.007225,-0.04981133,10.0421,35.82239,-16.11547,1008.006
34.474071026,-39.57729,-11.71702,-7.612632,0.07820465,-0.9875525,-0.06432731,10.43211,36.59065,-15.22857,1008.006
34.508718014,-36.69006,-9.349619,0.906264,0.106705,-0.9464109,-0.06088008,10.43211,36.59065,-15.22857,1008.006
34.540890694,-47.80897,-6.271998,1.151412,0.06505952,-1.002412,-0.1115631,10.07202,37.37535,-13.89151,1008.002
34.575538635,-92.34601,-16.09671,-13.4349,0.006727971,-0.8574394,0.01983421,9.71141,37.39777,-12.55074,1008.002
34.607711315,-218.1555,-22.90299,-34.76278,0.06679966,-0.8107126,-0.113373,9.71141,37.39777,-12.55074,1008.004
34.642358303,-384.5705,-26.51327,-64.30313,0.2154495,-1.306462,-0.4191326,9.739732,37.80651,-10.38495,1008.004
34.674530983,-565.1145,22.37355,-162.6075,0.3846658,-0.9859837,-1.111667,9.482821,38.69272,-1.078598,1008.004
34.709178924,-484.8249,107.8367,-126.203,0.4044116,-1.351897,-1.721223,6.304276,39.02383,16.15218,1008.006
34.741351128,-147.572,153.35,-145.0181,-0.01891184,-1.418711,-1.657574,6.304276,39.02383,16.15218,1008.006
34.775998592,140.5981,114.5838,-192.822,-0.02361433,-0.8197199,-1.403398,0.7903872,31.95685,28.5852,1008.006
34.808171749,201.2914,95.64459,-206.5503,0.3335537,-0.2739119,-1.266789,-9.433888,28.27341,27.31718,1008.004
34.840344429,112.7087,125.1187,-198.9507,0.6228189,0.01502138,-1.188541,-9.433888,28.27341,27.31718,1008.002
34.874991417,7.969851,134.0557,-170.8813,0.635816,0.1849723,-1.234015,-19.40235,29.85964,21.17616,1008.002
34.907164097,-58.31357,154.6521,-138.2766,0.6170927,0.2046154,-1.090524,-28.5364,28.78337,16.38283,1008.002
34.941812038,-85.89581,164.8911,-116.9487,0.4005019,0.2149883,-1.143848,-28.5364,28.78337,16.38283,1008
34.973984718,-47.68611,202.5327,-61.91294,0.4118784,0.4074197,-1.044522,-33.12594,24.22383,12.47559,1007.999
35.008631706,-21.20959,277.4609,-8.960947,0.1970253,0.5466635,-1.127647,-38.10632,18.89522,7.617695,1007.997
35.040804386,1.089644,330.1948,49.26172,0.08404886,0.6140629,-0.957337,-38.10632,18.89522,7.617695,1007.997
35.075452328,7.539837,341.0257,90.75304,0.2967053,0.7756829,-0.7584412,-40.49467,17.28514,-1.607642,1007.989
35.107624531,-10.76643,456.8507,195.5539,0.3101053,0.7452071,-0.4845597,-38.38062,18.24446,-13.5469,1007.992
35.142271996,-141.9204,515.7398,227.7908,-0.4256244,0.9699313,-1.211373,-38.38062,18.24446,-13.5469,1007.984
35.174445152,1163.23,54.33345,-366.2643,-0.6761461,-0.8685786,-6.967216,-31.71762,21.05721,-24.56234,1007.982
35.209092140,342.2127,21.30822,14.38941,1.152013,-1.405612,-0.6513729,-20.56048,35.18782,-10.21503,1007.982
35.241264820,377.9038,19.47348,52.01964,0.9986753,0.1652304,0.7839425,-20.56048,35.18782,-10.21503,1007.982
35.275912762,-107.5193,-23.13973,31.30463,0.6712383,0.2848914,0.6694124,-21.83153,33.54539,-20.72126,1007.98
35.308085442,-190.819,-16.33345,28.85315,0.6908785,-0.403362,0.4938913,-20.75904,26.99398,-25.09448,1007.98
35.340257645,-89.39735,-28.11127,4.583486,0.6106397,-0.8227045,0.3817691,-20.75904,26.99398,-25.09448,1007.98
35.374905109,32.05057,-52.0812,-4.057985,0.5900923,-0.7801329,0.4131597,-19.55439,30.47548,-19.82541,1007.98
35.407077789,80.5806,-50.95668,-9.083521,0.5379531,-0.6444423,0.4147649,-19.91345,32.78471,-18.4958,1007.98
35.441725254,90.53233,-52.90979,-16.98955,0.6026891,-0.5042356,0.3849507,-19.91345,32.78471,-18.4958,1007.98
35.473897934,70.19887,-56.0466,-18.27657,0.6112806,-0.4045048,0.5461986,-21.43728,32.03254,-19.37691,1007.98
35.508545399,51.094,-73.68373,-29.92111,0.5232246,-0.3941484,0.5736156,-22.58947,30.50706,-20.7025,1007.98
35.540718556,80.21202,-106.2947,-28.45022,0.6185587,-0.4073685,0.3682492,-22.58947,30.50706,-20.7025,1007.98
35.575365543,170.1461,-119.6113,-0.8097727,0.7310779,-0.2958917,0.2312305,-24.48019,29.00937,-20.68539,1007.98
35.607538223,221.6248,-114.8173,31.9175,0.6198813,-0.06368687,0.1850185,-27.13309,26.75446,-21.10697,1007.982
35.642186165,215.7275,-131.2115,62.68358,0.7440072,0.08237836,0.1349365,-28.66373,24.47208,-22.42691,1007.982
35.674358368,165.6003,-107.4192,104.3588,0.8620374,0.08124956,0.1275598,-28.66373,24.47208,-22.42691,1007.982
35.709005833,110.6201,-121.9787,138.1279,0.9616904,0.05097893,-0.02014745,-30.17806,20.68222,-22.40057,1007.982
35.741178513,6.864103,-96.05567,163.9297,1.060195,-0.1424064,-0.1094208,-30.54419,21.08009,-21.50793,1007.978
35.775826454,-33.55711,-85.69829,179.7418,0.9298533,-0.3273433,-0.257703,-30.54419,21.08009,-21.50793,1007.978
35.807998657,-34.72429,-69.00812,191.8766,0.9998239,-0.4739661,-0.2807727,-29.37415,23.3849,-18.84722,1007.978
35.842646122,-34.04855,-72.32248,240.9063,1.550775,-0.829182,-0.1673782,-25.9416,29.08038,-16.78864,1007.978
35.874818325,-127.0542,-25.80305,212.9594,0.2010599,-0.7262147,-0.1471871,-25.9416,29.08038,-16.78864,1007.98
35.906991005,-107.2736,-41.48708,171.7132,0.04243421,-1.050558,-0.5161465,-20.99011,34.38057,-14.16215,1007.982
35.941638947,-76.31267,-37.34413,160.7428,0.3528159,-1.054502,-0.5128092,-13.68593,39.35197,-9.824661,1007.982
35.973811626,-30.79274,-16.57019,130.038,0.5204877,-1.264417,-0.4351284,-13.68593,39.35197,-9.824661,1007.985
36.008458614,42.12516,-21.06825,106.1361,0.2981739,-1.381557,-0.4108836,-7.585092,41.98517,-5.852102,1007.987
36.040631771,76.46477,-16.27427,100.2525,0.1652196,-1.189754,-0.297202,-1.921519,42.28009,-6.329251,1007.989
36.075279236,65.96017,0.7710181,69.18001,0.1574359,-1.080518,-0.1728369,-1.921519,42.28009,-6.329251,1007.991
36.107451916,69.76885,6.571149,52.6938,0.1396882,-1.108642,-0.1806152,2.579345,42.56269,-9.032002,1007.991
36.142098904,54.22695,12.13454,49.07786,0.1676212,-1.041531,-0.08295864,5.195828,40.97297,-11.20575,1007.991
36.174272060,3.48543,18.76326,38.35263,0.1674017,-1.047088,-0.04829844,5.195828,40.97297,-11.20575,1007.991
36.208919525,0.8439223,18.11223,19.10851,0.05984078,-1.09171,-0.05055466,7.829335,40.16175,-12.10812,1007.992
36.241091728,19.21162,10.83247,16.7796,0.07745945,-1.073822,-0.1113035,9.718776,39.75378,-12.11593,1007.99
36.275739670,17.92158,12.48965,10.40575,0.1016281,-1.020552,-0.04842994,9.718776,39.75378,-12.11593,1007.992
36.307912350,11.22566,10.59573,4.889921,0.05888753,-1.057835,-0.06424448,10.84078,39.34517,-13.01243,1007.992
36.342559338,29.96194,9.5304,2.928736,0.1189104,-0.9957904,-0.03633708,11.5964,38.9533,-13.01444,1007.995
36.374732018,17.61443,12.43047,3.541606,0.1491739,-0.9674404,0.008922201,11.5964,38.9533,-13.01444,1007.995
36.406904698,-18.81381,13.31824,-0.07432837,0.1115469,-1.036376,-0.07998291,11.96857,38.94224,-13.46265,1007.999
36.441552639,20.50166,18.17141,-6.141744,0.1092995,-1.127025,-0.1293912,11.96801,38.11645,-13.45862,1007.999
36.473724842,58.03563,18.40815,-6.570753,0.1595876,-0.9291386,0.01010479,11.96801,38.11645,-13.45862,1007.999
36.508372307,-18.81381,21.60414,-1.790365,0.1548056,-0.7859636,0.0686877,11.96227,38.17429,-13.90521,1008.001
36.540544987,-86.57155,22.84703,4.644773,0.08793929,-0.9229004,0.01757276,12.3281,37.33177,-14.79568,1008.002
