Time (s),Gyroscope X (deg/s),Gyroscope Y (deg/s),Gyroscope Z (deg/s),Accelerometer X (g),Accelerometer Y (g),Accelerometer Z (g),Magnetometer X (uT),Magnetometer Y (uT),Magnetometer Z (uT),Barometer (hPa)
0.000000000,-0.03909413,0.09885363,0.01094692,0.1045263,0.8874664,-0.426066,16.1048,-37.33861,33.81152,1007.708
0.032775879,-0.2875772,0.03976094,0.01094692,0.1020938,0.8883834,-0.4313566,15.74676,-37.70811,33.38261,1007.707
0.065551758,-0.349698,-0.01933174,0.01094692,0.102094,0.8893976,-0.4255818,15.74676,-37.70811,33.38261,1007.707
0.100848675,0.5821136,0.03976094,-0.0501421,0.09968344,0.8825758,-0.423159,15.74,-37.34368,33.37687,1007.711
0.133625030,0.5199929,-0.2557025,0.07203594,0.1001574,0.8864391,-0.428461,16.1048,-37.33861,33.81152,1007.711
0.166400909,-0.349698,-0.07842442,0.1331249,0.1011201,0.8903568,-0.4265437,16.1048,-37.33861,33.81152,1007.711
0.199176788,-0.2254565,0.03976094,-0.0501421,0.1093889,0.8845848,-0.4260733,15.38268,-37.70724,33.38308,1007.711
0.234473705,-0.2246445,-0.01925871,0.07219665,0.1074575,0.8786774,-0.4327988,15.37665,-37.33686,33.81246,1007.711
0.267249584,0.3968747,0.03981971,-0.05000755,0.1093878,0.884568,-0.42848,16.10408,-37.34455,33.3764,1007.711
0.300025940,0.5814629,-0.1961386,-0.2940829,0.1020986,0.8864386,-0.4308724,16.10408,-37.34455,33.3764,1007.707
0.332801819,0.5171857,-0.0179681,0.01187086,0.1006294,0.8917871,-0.4303956,15.74676,-37.70811,33.38261,1007.711
0.365577221,-0.3532682,-0.01752416,0.0121099,0.1035582,0.8859905,-0.4270242,16.09814,-36.97332,33.86795,1007.709
0.400874615,-0.4136048,-0.01739188,0.1343879,0.1020988,0.8864419,-0.430391,16.09814,-36.97332,33.86795,1007.705
0.433650970,0.8281573,-0.1356173,-0.04954197,0.103066,0.8894191,-0.4236587,15.74,-37.34368,33.37687,1007.705
0.466426849,0.8247036,-0.1351017,0.01119338,0.1035494,0.8893897,-0.4284734,16.10408,-37.34455,33.3764,1007.707
0.499202251,0.2637555,-0.07584758,0.1331342,0.1045235,0.8874229,-0.4323237,16.10408,-37.34455,33.3764,1007.705
0.531978130,-0.04726078,0.04244312,0.07209654,0.1040329,0.8893602,-0.4332882,15.72648,-36.6148,33.36541,1007.705
0.567276001,-0.604445,-0.01628033,-0.05041709,0.09967659,0.8849941,-0.4255694,15.73334,-36.97839,33.4333,1007.707
0.600051403,0.2045944,-0.07504714,-0.05074791,0.1040473,0.8850406,-0.4241358,15.73334,-36.97839,33.4333,1007.707
0.632827282,0.8855295,-0.01583371,-0.1729107,0.1045269,0.8874764,-0.424622,15.00581,-36.97155,33.8072,1007.709
0.665603161,0.5718031,-0.01532441,0.01042899,0.1021071,0.8830361,-0.4299045,16.10553,-37.33266,34.24663,1007.709
0.700901031,0.3831067,-0.01505337,0.07152963,0.1064625,0.8889036,-0.4318491,16.10553,-37.33266,34.24663,1007.709
0.733676434,-0.2382594,-0.07417759,0.1322886,0.1103522,0.8864907,-0.4332988,15.74,-37.34368,33.37687,1007.709
0.766452312,-0.1128519,0.04393957,0.1925893,0.1055022,0.8845189,-0.4308775,15.74145,-37.33179,34.2471,1007.705
0.799228191,-0.1118267,-0.07427664,-0.1741742,0.1035561,0.886968,-0.4265443,15.74145,-37.33179,34.2471,1007.705
0.832004547,1.190748,-0.07352895,0.009476786,0.1021186,0.8786696,-0.4274912,16.46888,-37.33948,33.81105,1007.703
0.867301464,0.5031485,0.2223126,0.2529097,0.1016133,0.8864379,-0.4303898,16.09742,-36.97926,33.43283,1007.705
0.900077343,-0.5523634,0.2221472,0.4354899,0.1069484,0.8884072,-0.433775,16.09742,-36.97926,33.43283,1007.709
0.932853222,0.07004312,-0.07381386,0.4340023,0.1040492,0.8840598,-0.425097,15.74686,-37.70727,33.44476,1007.709
0.965629101,0.2549707,0.04472791,0.1280145,0.1054883,0.8903632,-0.4308863,15.36926,-36.97752,33.43377,1007.709
1.000926495,-0.5513798,-0.01457969,0.06640195,0.1064777,0.8830793,-0.4289522,15.36926,-36.97752,33.43377,1007.709
1.033702373,0.1948551,-0.01403821,-0.05543358,0.1021034,0.8849977,-0.427982,16.09804,-36.97417,33.80579,1007.707
1.066478252,0.3178541,0.04557468,0.06712341,0.1035604,0.8845094,-0.4299102,15.74749,-37.70217,33.81772,1007.707
1.099254131,0.1308197,-0.1313147,-0.1768929,0.1011341,0.8840088,-0.428941,15.74749,-37.70217,33.81772,1007.703
1.132030487,0.005850252,-0.0125756,-0.05439619,0.1084178,0.8855876,-0.4207775,16.09731,-36.98011,33.37067,1007.703
1.167327404,0.377224,-0.130576,0.006855015,0.1020976,0.8874328,-0.4279857,15.37737,-37.33092,34.24757,1007.706
1.200103283,0.1899865,-0.0706915,-0.1767081,0.1035588,0.8849897,-0.4308736,15.37737,-37.33092,34.24757,1007.706
1.232879162,0.2509628,-0.1290698,0.06827234,0.1054914,0.8888955,-0.4318468,15.74,-37.34368,33.37687,1007.706
1.265655517,0.06379213,-0.1877291,-0.1145641,0.1059982,0.8801397,-0.4308721,15.00581,-36.97155,33.8072,1007.704
1.300952434,-0.2465072,-0.0690162,0.007886947,0.1050154,0.8855056,-0.4284711,15.73469,-36.96735,34.24137,1007.706
1.333728313,0.1882712,-0.1280685,-0.1757378,0.1025887,0.8849984,-0.4284645,15.73469,-36.96735,34.24137,1007.706
1.366503715,0.745694,-0.1866576,-0.2366085,0.1035511,0.8884056,-0.4299161,16.1048,-37.33861,33.81152,1007.706
1.399279594,0.2473445,0.05025167,0.007888072,0.1045275,0.8864756,-0.4284714,15.74676,-37.70811,33.38261,1007.706
1.432055950,0.2462582,-0.008415923,0.06911726,0.1040408,0.8869587,-0.4284709,15.74676,-37.70811,33.38261,1007.706
1.467353344,-0.003227566,-0.1261569,0.1910684,0.1020996,0.8854445,-0.433759,15.36916,-36.97837,33.37162,1007.706
1.500128746,-0.8092448,0.05111616,0.007425068,0.10792,0.8879182,-0.4352206,15.74,-37.34368,33.37687,1007.706
1.532904625,-0.1246051,-0.06681462,0.06863736,0.1020998,0.8859516,-0.4308716,15.74,-37.34368,33.37687,1007.706
1.565680981,-1.551413,0.7592345,1.715709,0.1054874,0.8908536,-0.4304057,15.74749,-37.70217,33.81772,1007.706
1.600978374,-4.52863,0.8762681,1.040306,0.1089148,0.8802142,-0.4236587,15.73324,-36.97924,33.37114,1007.704
1.633753776,-2.602886,0.1671559,-0.242563,0.1064655,0.8889504,-0.4251101,15.73324,-36.97924,33.37114,1007.704
1.666529655,1.621327,-0.2464929,0.001793041,0.1064794,0.8841169,-0.4198079,16.10418,-37.3437,33.43856,1007.704
1.699306011,0.5031531,0.04897051,0.001793041,0.1108319,0.8904446,-0.4256041,16.09731,-36.98011,33.37067,1007.704
1.732081890,-0.05593392,-0.2464929,-0.3647411,0.1093821,0.8864993,-0.4308897,16.09731,-36.98011,33.37067,1007.706
1.767378807,2.366776,-0.601049,-0.7312751,0.1079357,0.8831116,-0.4260676,15.74749,-37.70217,33.81772,1007.706
1.800154686,1.497086,-0.601049,-0.8534532,0.100157,0.8864324,-0.4294237,15.36854,-36.98346,32.99866,1007.706
1.832931042,-0.8013833,-0.1283075,-0.4869191,0.102091,0.8893507,-0.4323208,15.36854,-36.98346,32.99866,1007.706
1.865706921,-0.5529001,-0.06921485,-0.303652,0.1021015,0.8859783,-0.4270208,16.11094,-37.70814,33.44429,1007.706
1.901003838,0.6273946,-0.01012217,-0.120385,0.1040355,0.8888966,-0.4299179,15.38279,-37.70639,33.44523,1007.706
1.933779716,0.5031531,-0.1874002,-0.181474,0.1040315,0.8908548,-0.4284768,15.38279,-37.70639,33.44523,1007.706
1.966555595,0.006186862,0.1080632,-0.05929597,0.1069566,0.8855051,-0.4308825,15.74614,-37.71321,33.00965,1007.704
1.999331951,0.06830764,-0.01012217,-0.05929597,0.1074371,0.8889652,-0.4241498,15.73407,-36.97245,33.86842,1007.704
2.032107830,-0.304417,-0.06921485,0.001793041,0.1035628,0.8840424,-0.4270213,15.73407,-36.97245,33.86842,1007.704
2.067404747,-0.4907794,-0.1283075,-0.242563,0.1069546,0.8869897,-0.4275152,15.75352,-38.07255,33.38834,1007.704
2.100180626,0.25467,-0.3055856,0.001793041,0.09821325,0.8874037,-0.4274951,15.74072,-37.33773,33.81199,1007.704
2.132956981,0.4410323,-0.1283075,-0.120385,0.1016098,0.8889099,-0.4250986,15.74072,-37.33773,33.81199,1007.704
2.165732860,-0.05593392,-0.06921485,0.001793041,0.1001588,0.8859555,-0.4279788,15.74072,-37.33773,33.81199,1007.704
2.201029777,0.06830764,0.04897051,0.001793041,0.09918164,0.8883792,-0.4284616,16.46815,-37.34542,33.37593,1007.704
2.233805656,-0.3665378,0.04897051,0.1850601,0.1059933,0.8825883,-0.4289504,15.73324,-36.97924,33.37114,1007.702
2.266582012,-0.3665378,0.04897051,-0.242563,0.1093821,0.888014,-0.4231902,15.73324,-36.97924,33.37114,1007.702
2.299357891,0.6273946,-0.1874002,0.001793041,0.1059874,0.886538,-0.4212545,15.74676,-37.70811,33.38261,1007.702
2.332133293,1.06224,-0.2464929,0.1239711,0.101133,0.8855067,-0.4236482,15.36916,-36.97837,33.37162,1007.704
2.367430687,2.863743,-0.3055856,0.06288206,0.1035652,0.8835754,-0.4241324,15.36916,-36.97837,33.37162,1007.702
2.400207043,4.168279,0.1080632,1.040306,0.1006444,0.8854557,-0.4303861,15.7401,-37.34283,33.43903,1007.702
2.432982921,3.671313,0.6398973,3.3006,0.1020921,0.8883566,-0.4352075,15.38279,-37.70639,33.44523,1007.702
2.465758324,5.721299,2.471771,9.042967,0.1142441,0.8836076,-0.432341,15.38279,-37.70639,33.44523,1007.7
2.501055717,12.11974,4.303644,17.41216,0.1162103,0.8744005,-0.4279995,15.74072,-37.33773,33.81199,1007.7
2.533832073,32.43323,3.12179,20.03899,0.1239912,0.8690947,-0.4299354,15.01933,-37.70043,33.81866,1007.7
2.566607475,41.44075,-0.3646783,19.61137,0.1434674,0.8362476,-0.484326,15.01933,-37.70043,33.81866,1007.7
2.599383354,57.96487,-0.3055856,23.52106,0.1891074,0.8279873,-0.5364088,14.63788,-36.58247,35.54238,1007.7
2.632159233,86.60255,6.076424,34.76144,0.2192234,0.7991071,-0.6635162,13.89151,-35.47043,36.76931,1007.7
2.667456150,158.2278,14.40849,45.94073,0.2138104,0.8105652,-0.7602744,13.89151,-35.47043,36.76931,1007.7
2.700232506,229.1076,18.54498,52.35508,0.1876672,0.7625592,-0.838602,13.14202,-33.96423,40.16607,1007.7
2.733008385,227.6788,24.45425,51.49983,0.2634016,0.7816598,-0.7743079,11.54317,-29.10359,44.38153,1007.7
2.765784264,175.0004,35.68186,52.41617,0.2723449,0.6965131,-0.7727568,11.54317,-29.10359,44.38153,1007.699
2.801081181,130.4598,35.50458,56.93676,0.2673391,0.5547237,-0.7754193,8.469311,-19.922,48.90395,1007.699
2.833857536,113.7493,30.59989,53.82122,0.322131,0.3761809,-0.812345,6.136426,-11.82652,49.64998,1007.699
2.866633415,133.6901,28.64983,48.07885,0.3272203,0.2737985,-0.8333827,6.136426,-11.82652,49.64998,1007.699
2.899409294,143.2567,19.37228,46.6738,0.3749186,0.2294862,-0.8194696,4.221382,-6.720039,49.57211,1007.699
2.932185173,105.5494,20.25867,46.6738,0.4433407,0.2404975,-0.8591201,3.013808,-0.4553089,49.91027,1007.699
2.967482567,36.40896,33.90908,39.40421,0.3881111,0.1743054,-0.92628,3.013808,-0.4553089,49.91027,1007.699
3.000258446,6.094023,45.78671,44.10806,0.4544685,0.01973569,-1.031623,2.181328,4.989215,48.08481,1007.697
3.033034324,35.35291,58.49163,40.25945,0.4696061,-0.01618873,-1.033049,0.6765626,7.604503,48.04562,1007.693
3.065810203,71.94205,67.23736,37.26609,0.4989226,-0.09189165,-1.028672,0.6765626,7.604503,48.04562,1007.691
3.101107597,113.9978,76.63309,35.25016,0.4017185,-0.03653136,-0.9351404,-0.8499906,7.949651,46.36356,1007.691
3.133887291,111.7615,72.4966,28.77472,0.3936562,-0.09268839,-0.8065131,-3.089998,10.8585,45.45032,1007.691
3.166659355,92.1313,55.41881,20.71097,0.616253,-0.1466934,-0.6457034,-3.089998,10.8585,45.45032,1007.689
3.199435234,33.17868,55.83246,-0.8534532,0.7165482,-0.2421811,-0.560115,-6.0827,14.82758,41.97232,1007.688
3.232211590,-74.29026,60.91444,-17.77511,0.7656916,-0.2881801,-0.5803794,-7.262177,19.22342,38.92039,1007.688
3.267508507,-111.5006,63.80997,-31.33687,0.8605118,-0.6307887,-1.006093,-9.087873,19.60411,39.78723,1007.688
3.300284386,73.43295,58.49163,-33.10846,0.9109747,-0.6445751,-1.158302,-9.087873,19.60411,39.78723,1007.688
3.333059788,153.6309,68.24193,-53.39001,0.8981896,-0.3325037,-0.9503127,-11.57662,16.25172,38.53771,1007.688
3.365836620,90.45404,93.17905,-61.69811,0.8424574,-0.1464141,-0.8074965,-14.94715,17.73745,35.53452,1007.688
3.398612022,-9.746776,111.675,-57.23862,0.8500075,-0.2528045,-0.7775097,-14.94715,17.73745,35.53452,1007.688
3.433909416,-23.35122,123.5527,-69.82295,0.8667066,-0.3300137,-0.7644362,-18.31204,22.0608,31.24319,1007.686
3.466684818,11.00156,132.1802,-79.10848,0.7876447,-0.1237553,-0.5647944,-22.65141,20.21428,28.72896,1007.686
3.499461651,-2.230161,127.2755,-69.08988,0.8754,-0.04275611,-0.4385265,-22.65141,20.21428,28.72896,1007.686
3.532237053,-55.96463,113.3297,-53.4511,0.9273165,-0.1818234,-0.1881319,-27.43125,19.07981,24.89849,1007.684
3.567534447,-152.9352,106.2385,-59.92653,0.8026363,-0.4372203,-0.2052616,-31.40873,17.21457,21.07847,1007.682
3.600309849,-173.435,113.8615,-111.3635,0.44666,-0.8936254,-0.5546422,-31.40873,17.21457,21.07847,1007.679
3.633086681,-35.8375,150.8535,-205.5627,0.2385057,-1.196521,-0.7183176,-34.2757,14.58683,19.445,1007.679
3.665862083,140.2128,181.759,-312.9572,-0.003650168,-0.799306,-0.4574439,-37.51133,8.711193,15.68714,1007.675
3.698637962,1958.612,254.9748,-141.9691,-2.873705,2.872199,2.040172,-37.51133,8.711193,15.68714,1007.672
3.733934879,656.4986,-334.5929,-37.14033,0.4627261,3.915665,0.09176054,-40.28404,0.5583048,9.850672,1007.67
3.766710758,-1321.427,106.4749,-108.9199,1.206849,1.907153,-0.3060261,-39.66978,6.83056,11.0567,1007.67
3.799487114,-1120.963,-10.58771,-213.1989,1.658576,-0.5542054,-2.159037,-39.66978,6.83056,11.0567,1007.67
3.832262993,142.0764,190.9774,-116.6171,-0.1347571,-0.03070815,-0.7134131,-37.0967,5.765954,13.61911,1007.667
3.867559910,751.4813,-72.69411,101.8372,-0.5592765,4.401043,2.903162,-37.4507,-15.23707,5.867929,1007.665
3.900335789,-142.561,-125.7002,102.6313,1.012171,2.16166,0.03726298,-37.4507,-15.23707,5.867929,1007.667
3.933112144,-69.69332,-79.01703,120.7137,-0.01565844,0.8613729,-0.04161498,-37.47454,-13.33337,11.80652,1007.665
3.965888023,-124.1732,-133.9732,126.0895,-0.1545982,1.033912,-0.3467288,-37.15499,-10.76026,13.44423,1007.665
3.998663902,-355.7595,-122.3911,76.54633,0.2338924,0.3962526,-0.4111917,-37.15499,-10.76026,13.44423,1007.663
4.033960819,-75.47055,-126.6457,38.73223,0.6910928,-0.1279135,-0.4162997,-36.45493,-8.893119,16.83338,1007.663
4.066737175,60.32546,-94.73569,52.66053,0.316536,0.3863407,-0.2549302,-36.43996,-9.610106,17.71506,1007.661
4.099513054,-41.67685,-63.65294,43.68044,0.4759696,0.4993766,-0.3705242,-36.43996,-9.610106,17.71506,1007.66
4.132288933,-69.69332,-57.03456,40.80926,0.4861023,0.3484528,-0.2340954,-33.81691,-9.923056,21.94422,1007.66
4.167585850,-85.22352,-82.32623,27.06423,0.9800254,0.05410827,-0.5024604,-33.47635,-8.43731,24.03423,1007.66
4.200362205,41.25438,-63.00292,12.95266,0.7026848,0.3444991,-0.222569,-31.28898,-8.41877,25.77186,1007.66
4.233138084,-47.51621,-114.3545,11.97524,0.974982,0.3814762,-0.2752577,-31.28898,-8.41877,25.77186,1007.658
4.265913963,-103.487,-114.2954,-20.21867,0.6494725,0.4476885,-0.3077994,-30.54232,-9.108631,28.766,1007.658
4.298690319,-159.52,-115.0636,-45.26517,0.7660796,0.4320904,-0.2396991,-26.51969,-9.81229,31.3208,1007.658
4.333987236,-123.6763,-158.8513,-99.0235,1.169079,0.5916749,-0.5378957,-26.51969,-9.81229,31.3208,1007.658
4.399538994,-51.24345,-137.9324,-123.9478,0.5295902,0.5939828,-0.4877648,-16.04092,-21.50695,35.34573,1007.658
4.432314396,-39.93747,-113.2908,-113.8681,0.01762275,0.6652086,-0.4856951,-16.04092,-21.50695,35.34573,1007.66
4.467612266,-59.69188,-131.9641,-99.32894,-0.03438741,0.6320935,-0.7728949,-8.604764,-26.63261,34.98137,1007.661
4.500388145,-16.76642,-97.51304,-108.309,0.2820693,0.7129658,-0.6596846,-2.347836,-30.29181,35.03068,1007.663
4.533163547,117.0417,-83.3308,-118.6942,0.2913239,1.102411,-0.6978397,-2.347836,-30.29181,35.03068,1007.663
4.565939426,42.93164,-83.62626,-151.9266,0.2481637,2.904023,-1.830209,4.336429,-34.00089,35.95062,1007.665
4.598715782,-289.7873,-25.77453,25.17047,0.1021811,0.7659816,-0.8740252,10.88128,-33.24696,38.91433,1007.667
4.634014606,-34.84357,5.190034,28.53036,0.1689796,0.9481472,-0.3921337,10.88128,-33.24696,38.91433,1007.668
4.666788578,-85.96896,26.04975,6.232872,-0.04855585,0.769034,-0.2536783,15.33077,-34.77391,34.64257,1007.67
4.699564457,1.683448,9.621984,8.24881,0.003891508,0.7407702,-0.3890227,13.54139,-36.61466,32.99528,1007.67
4.732340813,53.8649,7.021907,-13.49888,0.1721147,0.6692906,-0.2944858,13.54139,-36.61466,32.99528,1007.672
4.767638206,33.36504,-4.796629,-32.49756,0.128434,1.284448,-0.2385086,13.21039,-38.44192,32.58929,1007.674
4.800413609,17.27576,-4.560259,9.104056,0.06639456,0.9745489,-0.5344133,12.76815,-37.32467,34.25093,1007.675
4.833189487,10.19399,-6.037576,8.981878,0.124208,0.7936878,-0.3479908,12.76815,-37.32467,34.25093,1007.675
4.865965843,15.2879,-4.087517,1.284662,0.04732068,0.8520496,-0.4075853,13.54492,-36.58579,35.10868,1007.675
4.898741722,16.71668,-3.378405,9.226234,0.1010219,0.9297357,-0.4367114,13.90296,-36.21629,35.53759,1007.677
4.934038639,25.78631,-9.8786,9.776035,0.1356674,0.8614631,-0.4208058,13.90296,-36.21629,35.53759,1007.679
4.966814518,23.86057,-13.956,6.904852,0.1229616,0.8969643,-0.4131273,13.52609,-35.48059,35.96172,1007.68
4.999590874,33.86201,-15.43331,21.38295,0.09682234,0.8545766,-0.4539172,13.52671,-35.4755,36.33467,1007.682
5.032366752,52.18764,-19.5698,25.47591,0.09486116,0.8562841,-0.4861663,13.52671,-35.4755,36.33467,1007.682
5.067663669,68.52541,-18.80159,23.94869,0.1443693,0.8523459,-0.551743,13.51464,-34.73474,37.19343,1007.684
5.100439548,68.64965,-14.90148,22.66582,0.1459439,0.8097508,-0.5155804,13.86738,-33.98891,38.48684,1007.684
5.133215904,75.9799,-10.41043,20.71097,0.1372218,0.7882403,-0.5867689,13.86738,-33.98891,38.48684,1007.684
5.165991783,74.42688,-4.973907,22.29928,0.1415854,0.7841327,-0.6223938,13.46699,-31.7666,41.00144,1007.686
5.198767662,53.24369,1.112639,24.80393,0.1732164,0.7511275,-0.6440803,14.16229,-29.86843,42.21407,1007.686
5.234064579,50.75886,3.949087,21.93275,0.1573343,0.6845105,-0.679563,13.03312,-27.64948,44.35666,1007.686
5.266840935,56.10125,0.1671559,17.53434,0.1573676,0.6648251,-0.7088965,13.03312,-27.64948,44.35666,1007.686
5.299616813,49.26796,1.230824,16.31256,0.1917763,0.6974105,-0.6868846,12.21183,-25.81436,45.13709,1007.686
5.332392692,18.02121,10.98112,14.90751,0.1942828,0.6582511,-0.71812,11.45059,-23.98449,45.54449,1007.683
5.367689609,14.72881,12.87208,15.33514,0.182219,0.6270002,-0.7151562,11.45059,-23.98449,45.54449,1007.688
5.400465488,11.00156,14.82214,12.34177,0.2253613,0.657533,-0.7186741,11.06092,-22.51398,46.39227,1007.688
5.433241844,1.372844,15.29488,12.64722,0.2375734,0.6259407,-0.7239503,9.605342,-22.50454,46.82925,1007.689
5.466017723,5.286453,12.7539,13.80791,0.2264177,0.6189688,-0.7325779,9.605342,-22.50454,46.82925,1007.685
5.498793125,7.522801,10.03563,13.01375,0.2535962,0.6250502,-0.7312074,9.221707,-21.40442,47.24765,1007.685
5.534090519,-5.087717,7.612834,9.165145,0.2827857,0.6039343,-0.7211362,8.864392,-21.76798,47.25385,1007.685
5.566866875,-13.59826,4.776385,-1.769789,0.3051755,0.5817242,-0.7201931,8.864392,-21.76798,47.25385,1007.685
5.599642754,-26.33302,7.612834,-9.894628,0.2527489,0.5739411,-0.7258335,7.401321,-21.40005,47.25,1007.685
5.632418156,-36.02386,2.353585,-17.34749,0.1721029,0.5998928,-0.6789892,7.79099,-22.87056,46.40222,1007.687
5.667715549,-36.02386,-5.446649,-18.14165,0.1956533,0.7059133,-0.659469,7.79099,-22.87056,46.40222,1007.685
5.700491905,-50.498,-9.169488,-15.08719,0.2321178,0.6821988,-0.6816624,7.439709,-23.60451,45.97904,1007.687
5.733267784,-54.47374,-9.524044,-21.50154,0.2247213,0.7298734,-0.6807539,7.836139,-25.43945,45.137,1007.687
5.766043186,-87.58411,-3.910239,-24.43381,0.1863198,0.75517,-0.6388226,7.836139,-25.43945,45.137,1007.687
5.798819065,-123.8626,-3.201127,-32.55865,0.1518313,0.7652841,-0.6137252,8.588535,-26.92187,43.48069,1007.687
5.834116936,-132.0005,9.621984,-27.54935,0.1517294,0.8051097,-0.6296698,9.373284,-30.23836,40.98281,1007.687
5.866892338,7.771284,7.199185,-10.01681,0.1315589,0.6967977,-0.7026258,9.373284,-30.23836,40.98281,1007.688
5.899668217,152.6991,24.15878,19.00048,0.09292375,0.8068352,-0.7311003,10.15771,-33.62748,37.61566,1007.688
5.932444096,205.8745,12.63571,30.36303,0.007524898,0.782832,-0.7183462,10.92247,-35.42849,39.32166,1007.688
5.967741966,163.1353,2.294492,13.62464,0.1262243,0.7190863,-0.572679,10.92247,-35.42849,39.32166,1007.688
6.000517368,69.76782,-11.35592,4.278024,0.1235448,0.6232116,-0.5590501,10.09498,-29.45349,45.19721,1007.688
6.033293247,-3.348335,-29.91102,-10.38334,0.1382001,0.5736948,-0.6235127,9.957351,-21.76465,47.68755,1007.69
6.066069126,-39.19202,-49.35251,-13.31561,0.07258697,0.5762238,-0.7412944,9.957351,-21.76465,47.68755,1007.694
6.098845482,-86.65229,-58.27551,-20.6463,0.1731546,0.7617767,-0.723521,12.087,-18.86034,47.20378,1007.694
6.134142399,-116.9672,-20.3971,-20.21867,0.2072566,0.6708671,-0.9506676,15.06415,-19.25568,45.46522,1007.695
6.166918278,40.6953,-51.65713,-21.25718,0.1041467,0.2961124,-1.138552,18.75258,-22.23255,41.65252,1007.695
6.199694156,242.5257,-60.10738,-36.04073,0.3178969,0.4833191,-1.019001,18.75258,-22.23255,41.65252,1007.695
6.232470512,284.0845,-45.51149,-24.61708,0.7562136,1.052866,-0.5371301,21.66665,-22.22764,42.51899,1007.695
6.267767429,-131.752,83.90149,-67.44048,0.05988568,1.623492,-0.7775009,24.41129,-13.04512,43.67635,1007.697
6.300543308,-75.40843,-80.61253,-12.39928,0.2214398,0.1795948,-1.155984,24.41129,-13.04512,43.67635,1007.697
6.333319187,174.8762,-39.7795,-40.43914,0.6010651,0.2702842,-0.8975667,22.51435,-9.049786,42.31034,1007.697
6.366095543,134.1871,-17.38337,-35.73528,0.2134926,0.5116364,-0.8835331,24.43609,-11.24007,42.40445,1007.697
6.398871422,2.553139,-4.737537,-52.77912,-0.1713252,0.6439654,-0.722045,24.43609,-11.24007,42.40445,1007.697
6.434168339,-113.6127,-34.75662,-51.49625,-0.3586737,0.6264922,-0.62819,23.1617,-4.605659,43.10991,1007.695
6.466944218,-106.4688,-42.43867,-58.4604,-0.3119566,0.3526976,-0.7655577,22.41253,-3.516547,42.65855,1007.695
6.499720573,-21.177,-67.43487,-35.0633,-0.1814386,0.4264852,-0.6071291,22.41253,-3.516547,42.65855,1007.69
6.532496452,-1.608953,-57.80276,-37.26251,-0.3923455,0.4791381,-0.6962415,22.83641,-6.875924,41.40527,1007.694
6.565271854,6.901593,-58.3346,-34.57459,-0.2968161,0.5254222,-0.7388977,25.09373,-7.621218,40.60577,1007.692
6.600569248,6.404627,-61.70288,-9.833539,-0.1473952,0.7781319,-0.7877691,25.09373,-7.621218,40.60577,1007.69
6.633345604,-55.34343,-13.77872,0.7348613,-0.3778399,0.6409242,-1.051283,27.25387,-6.496179,38.84435,1007.69
6.666121483,16.34395,-16.85154,3.728223,-0.2668033,0.5363475,-0.8848379,28.70956,-6.504764,38.46952,1007.69
6.698896885,59.51789,28.53164,6.171783,-0.267828,0.3157806,-1.08475,28.70956,-6.504764,38.46952,1007.688
6.734194279,82.19198,31.13172,-18.75253,-0.3191077,0.277422,-0.8660319,29.09432,-7.665631,38.05209,1007.687
6.766970634,85.23589,-5.564834,8.126632,-0.2861165,0.7465084,-0.6160277,27.24857,-6.119854,39.70885,1007.685
6.799746513,-36.27235,-3.319312,35.18907,-0.1844776,0.7366579,-0.3336946,27.24857,-6.119854,39.70885,1007.683
6.832521915,-12.66645,-2.373829,39.03767,-0.3952614,0.2689536,-0.7315386,26.8304,-3.203485,39.66348,1007.683
6.865297794,52.56036,-29.61555,22.2382,-0.48805,0.268988,-0.8251841,25.7442,-3.571248,39.2355,1007.682
6.900594711,48.58463,-33.81114,14.54098,-0.4138993,0.5290397,-0.8483759,25.7442,-3.571248,39.2355,1007.68
6.933371544,43.05589,-26.36546,19.12266,-0.3866819,0.5210809,-0.8349504,26.84246,-3.944247,38.80471,1007.68
6.966146946,36.47108,-17.73793,21.13859,-0.3384817,0.4588412,-0.8782934,27.1795,-2.487371,38.78132,1007.678
6.998922825,-2.789248,-11.29682,14.54098,-0.381057,0.3967529,-0.8607698,27.1795,-2.487371,38.78132,1007.678
7.034220695,12.6167,-18.09248,13.01375,-0.3890649,0.310129,-0.771087,28.25686,-1.772154,37.96039,1007.678
7.066996097,46.0998,-27.6064,12.70831,-0.3949005,0.3245925,-0.715257,28.62166,-1.767083,38.39503,1007.676
7.099771976,59.33153,-37.88853,1.284662,-0.3373044,0.4004533,-0.7313929,28.62166,-1.767083,38.39503,1007.678
7.132547855,30.01052,-22.46534,-9.283738,-0.1672858,0.3221356,-0.9920948,29.34015,-1.428167,36.64791,1007.678
7.165324211,37.96198,2.826327,-24.31164,-0.2629224,0.3181192,-0.9644243,31.11852,0.7422042,35.74096,1007.678
7.200621128,120.2099,-16.61517,-28.09916,-0.4267467,0.464352,-0.6099738,31.83783,1.087913,34.49112,1007.68
7.233397007,36.90593,-6.510317,-37.3236,-0.4060644,0.5200336,-0.7521086,31.83783,1.087913,34.49112,1007.68
7.266172886,-85.53412,1.053546,-54.30634,-0.3723309,0.4026668,-0.8612808,32.861,4.717778,33.56218,1007.678
7.298949241,-30.06027,23.50877,-42.39399,-0.28827,0.3385977,-1.070776,33.54673,6.95745,33.09079,1007.678
7.334246158,-33.35267,76.16035,-11.7273,-0.2326343,0.6060886,-1.192614,33.54673,6.95745,33.09079,1007.678
7.367022037,-167.782,87.62433,23.76542,-0.5108675,0.8881051,-0.7851474,33.92579,6.239591,33.97201,1007.678
7.399797916,-328.8612,71.96477,50.27805,-0.6919641,0.7076088,-0.60923,32.11496,5.902443,35.65838,1007.678
7.432574272,-382.6578,39.99562,60.96863,-0.7407396,0.3421327,-0.8588716,32.11496,5.902443,35.65838,1007.68
7.465350151,-242.8239,-37.82944,61.39626,-0.8329665,0.178716,-0.5748845,29.72171,-2.545277,34.98634,1007.682
7.500647068,-48.82074,-80.67162,60.0523,-0.3496017,0.3019237,-0.5275992,28.83907,-14.32992,30.448,1007.682
7.533422947,48.21191,-85.81269,55.34844,-0.1795873,0.4755924,-0.5513695,28.83907,-14.32992,30.448,1007.682
7.566199303,21.37573,-85.45814,44.41351,0.02739581,0.4020834,-0.6552424,30.699,-16.94902,25.82385,1007.682
7.598975181,4.106158,-65.78027,33.05095,0.220068,0.2258777,-0.7319704,32.42506,-12.26835,21.89316,1007.684
7.634272098,-80.00537,145.7715,208.0099,1.194948,2.627415,-2.403895,32.42506,-12.26835,21.89316,1007.684
7.667047977,-195.2394,56.71885,45.08549,0.06480451,1.31947,-0.09833423,34.50853,-7.223264,18.01844,1007.684
7.732600212,-118.3339,8.617409,100.1878,-0.4215295,0.990799,-0.2723824,34.49991,-6.804032,17.57664,1007.684
7.765375614,-14.84068,2.117214,74.89693,0.2118281,1.728198,-0.330834,33.5376,-14.20354,13.83976,1007.684
7.800673008,-136.7838,25.45882,34.02837,0.08807486,0.9433039,-0.01069599,32.90523,-19.36465,13.92187,1007.682
7.833449364,-61.92823,32.96359,44.23024,0.1274232,0.7388377,0.02513961,32.90523,-19.36465,13.92187,1007.684
7.866225243,11.06368,13.28573,16.98454,0.2412187,0.8930025,0.1358319,31.85076,-21.57158,12.27938,1007.684
7.899000645,7.584922,1.821751,4.216935,0.1841875,0.9633412,0.02370389,29.69334,-23.02409,12.30511,1007.684
7.934298038,-3.224093,7.199185,5.438715,0.1553984,1.029095,0.05881248,29.69334,-23.02409,12.30511,1007.684
7.967074394,3.671313,7.494648,13.25811,0.1943586,0.9726195,0.01500127,29.33665,-23.38256,12.68427,1007.684
7.999850273,1.807689,9.326521,8.737522,0.1539869,1.032318,0.1738564,28.61526,-23.74525,12.69094,1007.686
8.032625675,-18.81641,5.308219,4.155846,0.1803681,0.9496806,0.09497507,28.61526,-23.74525,12.69094,1007.686
8.065401554,-24.90424,-1.132883,-4.213349,0.1838816,0.8969461,0.07145949,28.23703,-23.0206,12.30699,1007.686
8.100699425,-42.79503,-0.8965124,-2.808302,0.189841,1.045542,0.0712214,28.99223,-24.4801,12.32897,1007.686
8.133475303,-48.26166,-1.546532,-10.32225,0.1713594,0.858036,0.09417184,28.62597,-24.49705,11.02411,1007.684
8.166250706,-59.69188,-3.201127,-35.91855,0.1725604,0.7788011,0.1847844,28.62597,-24.49705,11.02411,1007.684
8.199026584,-46.895,-4.14661,-43.18814,0.201773,0.9676632,0.2739637,29.35809,-24.88616,9.350611,1007.684
8.234323501,-55.15706,12.22206,-50.03011,0.1379839,1.02948,0.2051872,30.79942,-24.17267,8.467049,1007.684
8.267099857,-67.64333,12.28116,-70.73929,0.03009434,1.058435,0.1563005,30.79942,-24.17267,8.467049,1007.686
8.299875736,-56.58584,19.66774,-77.58125,-0.005648885,1.005023,0.2926912,32.24003,-23.46511,7.148374,1007.684
8.332651615,-37.94961,16.65401,-89.37144,-0.04824003,0.9416756,0.2693009,33.31125,-22.38037,6.694662,1007.686
8.365427971,-44.28593,15.47216,-97.49628,-0.07354978,0.9789143,0.3318819,33.31125,-22.38037,6.694662,1007.686
8.400724888,-31.11632,14.40849,-98.22934,-0.08933553,1.098165,0.4102015,36.18195,-20.21177,5.848458,1007.688
8.433500767,-40.43444,9.149243,-92.30371,-0.149866,0.8067806,0.3236578,37.29171,-17.97906,4.941412,1007.688
8.466276646,-14.21947,12.93117,-79.59719,-0.3245503,0.9769119,0.4157558,37.29171,-17.97906,4.941412,1007.688
8.499053001,-2.043799,4.421829,-63.83623,-0.3097239,0.8477353,0.3119412,39.42885,-15.43323,4.898483,1007.689
8.534349918,30.63173,2.589956,-69.15097,-0.234306,0.8103788,0.4523762,40.83856,-12.87972,5.291605,1007.689
8.567125797,67.71783,5.603683,-61.02613,-0.3267721,0.8816135,0.3716194,40.83856,-12.87972,5.291605,1007.689
8.599901676,39.70136,11.04021,-66.2187,-0.25419,0.7999851,0.4524391,41.15531,-10.32953,5.251025,1007.689
8.632678032,54.1755,15.53125,-57.42188,-0.465195,1.091528,0.3278275,41.4991,-9.237094,5.233366,1007.689
8.665453911,39.57712,39.22742,-65.85217,-0.3332322,0.7181265,0.2621307,41.4991,-9.237094,5.233366,1007.691
8.700750828,61.69212,42.77298,-62.43118,-0.4929313,0.9039967,0.2882228,41.82294,-6.978718,6.067784,1007.691
8.733526707,44.17406,48.85952,-61.02613,-0.4662254,0.6551955,0.05699951,42.51406,-4.764971,8.145864,1007.691
8.766303062,34.66958,36.39097,-60.72069,-0.4374546,0.8381709,0.2106912,42.51406,-4.764971,8.145864,1007.691
8.799078941,42.86952,38.99105,-65.54671,-0.5142596,0.8569062,0.1256441,41.74137,-2.18924,9.784982,1007.691
8.834375858,38.14834,28.53164,-72.81631,-0.4702864,0.7423159,0.1233058,42.42366,0.3719611,10.61415,1007.691
8.867151737,17.71061,18.30861,-71.65562,-0.6164051,0.7290514,0.1424454,42.42366,0.3719611,10.61415,1007.693
8.899928093,35.22867,14.64486,-69.27315,-0.6656426,0.7983254,0.07795532,41.65711,2.57816,11.88605,1007.693
8.932703972,25.66207,18.19042,-66.95177,-0.7104196,0.5917467,-0.1589385,41.25945,4.472995,12.66498,1007.693
8.965479374,29.14083,12.10388,-73.06067,-0.7121432,0.4799787,-0.2608146,41.25945,4.472995,12.66498,1007.693
9.000776768,45.91344,-5.801205,-69.39532,-0.8676608,0.7821495,-0.04428838,40.84805,7.024927,12.62534,1007.693
9.033553123,51.00734,-7.101244,-73.85483,-0.8503875,0.6836041,0.05161016,40.78647,10.29892,12.13866,1007.694
9.066329002,68.02844,-18.50613,-83.07927,-0.8506751,0.5998148,0.04933032,40.78647,10.29892,12.13866,1007.694
9.099104404,61.44363,-10.58771,-71.228,-0.7307199,0.595572,0.0654185,39.6388,13.20599,11.28616,1007.693
9.134401798,56.66034,-1.014698,-74.5268,-0.9364115,0.4725457,-0.1495583,39.95409,15.74429,10.37536,1007.693
9.167178154,68.33904,-1.191976,-76.2373,-0.909288,0.5126202,-0.09240096,39.53199,18.69847,8.650746,1007.693
9.199954033,64.30119,3.535439,-76.2373,-0.9280391,0.4365731,-0.07972647,39.53199,18.69847,8.650746,1007.693
9.232729435,62.62393,-3.969332,-83.38471,-0.9244056,0.3220681,-0.161394,37.66958,20.87757,7.748492,1007.691
9.265505314,59.45577,-2.728385,-81.91857,-0.9531686,0.3841903,-0.08825243,36.17053,23.04985,6.410657,1007.689
9.300803184,78.46473,-20.16073,-88.33292,-1.030169,0.2660286,-0.2486665,36.17053,23.04985,6.410657,1007.689
9.333579063,111.0781,-31.62471,-98.10716,-1.007336,0.2643679,-0.2347587,34.24006,25.58844,5.129798,1007.692
9.366354465,136.7961,-56.20726,-105.0713,-0.9751427,0.1987261,-0.2578415,33.10238,27.73777,2.175364,1007.693
9.399130344,40.81954,-69.73948,-100.4896,-0.9723936,0.3310565,0.06831583,33.10238,27.73777,2.175364,1007.688
9.431906700,37.34077,-59.9892,-95.84687,-1.134469,0.05959349,-0.0430479,30.85553,30.66065,-2.15757,1007.692
9.467203617,51.93916,-62.29381,-92.42589,-1.18093,0.002503707,-0.002417268,29.732,32.0862,-4.727592,1007.692
9.499979496,64.11483,-63.53475,-92.12044,-1.194196,0.07977307,0.05911204,29.732,32.0862,-4.727592,1007.692
9.532755375,43.55285,-66.60757,-92.67024,-1.117102,-0.094068,-0.028898,28.24584,33.52451,-6.426921,1007.688
9.565531731,84.55257,-80.25798,-87.3555,-1.137242,-0.2200903,-0.1273395,26.05712,33.49493,-8.972612,1007.686
9.600828648,221.3425,-58.86644,-66.2187,-1.053294,-0.5253494,-0.7721032,26.05712,33.49493,-8.972612,1007.684
9.633604526,542.3827,-53.96174,-9.039382,-0.9931294,-0.1078556,-0.8301572,24.57409,34.53909,-12.84177,1007.684
9.666380882,753.4691,-62.41199,50.82785,-0.9194573,0.8013523,-0.6526358,23.86938,32.21411,-23.06265,1007.684
9.699156761,717.6254,-26.95638,65.91685,-0.7017241,1.24825,-0.03335041,23.86938,32.21411,-23.06265,1007.682
9.731932640,483.7407,77.99223,7.149208,-0.9177142,0.8705239,0.3277898,26.64397,18.87638,-33.92298,1007.682
9.767229557,237.2454,61.9781,-37.93449,-1.030139,1.044366,0.6685985,30.31933,-2.355482,-31.04445,1007.68
9.800005913,-46.46016,96.54733,-62.00356,-1.197772,0.8790823,0.6345872,30.31933,-2.355482,-31.04445,1007.686
9.832781792,-144.4246,72.73298,-41.05003,-0.9471115,0.3600707,0.2881944,33.79643,-12.54679,-24.92003,1007.686
9.865557671,-71.24634,74.80122,-8.856114,-1.053941,0.3343475,0.1493731,36.38214,-11.06643,-22.83292,1007.685
9.900854588,-20.05882,51.5187,29.4467,-1.143564,0.6515106,0.1312972,36.38214,-11.06643,-22.83292,1007.685
9.933630943,-94.41739,59.02346,45.75747,-1.090138,0.4369926,0.1055003,37.40854,-7.340163,-21.15214,1007.683
9.966406822,-45.77682,57.42796,53.39359,-1.076986,-0.02239329,-0.06568467,38.10641,-5.490853,-19.06833,1007.681
9.999182701,128.9689,51.75507,73.85841,-1.062575,0.04095799,-0.07784838,38.10641,-5.490853,-19.06833,1007.681
10.031958103,170.4656,53.70512,81.37237,-1.004787,0.4632753,0.0003213788,37.74524,-5.466205,-17.32741,1007.679
10.067255974,49.20584,61.9781,80.0895,-0.8409834,0.3844166,-0.05049127,38.16131,-8.050006,-15.17342,1007.679
10.100031853,26.28328,63.27814,77.89029,-0.7930958,0.2344595,-0.1707193,38.16131,-8.050006,-15.17342,1007.676
10.132807731,22.1833,56.3643,79.90623,-0.8106661,0.2718013,-0.1726593,38.22184,-10.91286,-11.27373,1007.674
10.165583134,1.807689,46.49582,76.79069,-0.7314358,0.2293053,-0.2156244,38.26521,-13.07655,-9.561062,1007.674
10.200881004,15.97123,45.37305,74.46931,-0.702844,0.239263,-0.2888742,37.23059,-15.96056,-7.400413,1007.672
10.233656883,40.07409,40.88201,65.24487,-0.7096382,0.2326975,-0.3143604,37.23059,-15.96056,-7.400413,1007.669
10.266432762,65.17088,32.66813,55.83715,-0.643679,0.2683981,-0.3025365,36.55195,-18.49204,-6.054028,1007.667
10.299208164,75.23445,31.89993,40.74817,-0.5952243,0.312162,-0.300792,36.17314,-20.70357,-3.469633,1007.666
10.331984997,68.83601,34.61819,28.71363,-0.6060289,0.3637044,-0.2998814,36.17314,-20.70357,-3.469633,1007.664
10.367281914,42.93164,30.06805,18.3285,-0.622976,0.3390539,-0.322428,35.47629,-22.12476,-0.8972623,1007.664
10.400057793,31.00446,24.15878,-0.303652,-0.6132715,0.3354913,-0.356141,34.03703,-22.82127,1.229477,1007.662
10.432833195,29.82416,8.262853,-17.04204,-0.6944369,0.3518154,-0.4325096,34.03703,-22.82127,1.229477,1007.662
10.465609550,30.50749,-4.382981,-31.52014,-0.722819,0.4476619,-0.4128509,34.04597,-23.16788,2.540542,1007.66
10.500906944,-6.889219,-16.3197,-39.46171,-0.8219717,0.4771431,-0.4665727,34.04066,-22.79155,3.405035,1007.659
10.533682823,-30.7436,-29.14281,-50.03011,-0.7825989,0.46954,-0.416593,34.04066,-22.79155,3.405035,1007.659
10.566459179,-40.80716,-33.75204,-52.84021,-0.8277721,0.4663933,-0.4646173,35.47524,-21.71362,2.515743,1007.663
10.599234581,-39.50263,-37.23851,-55.89466,-0.8528824,0.41987,-0.4009478,36.17416,-20.27545,1.186548,1007.661
10.632010460,-31.17844,-45.86604,-51.86278,-0.9057288,0.3913918,-0.3704538,36.17416,-20.27545,1.186548,1007.661
10.667307854,-17.13915,-50.298,-53.32892,-0.9012953,0.3651423,-0.3684993,36.93202,-18.78178,-0.5166328,1007.659
10.700084209,5.03797,-55.79361,-43.79903,-0.9975283,0.4013139,-0.3741019,37.6371,-17.71314,-2.213051,1007.658
10.732859611,3.671313,-60.58012,-39.03409,-0.9373241,0.4057594,-0.3675123,37.6371,-17.71314,-2.213051,1007.658
10.765635490,19.01514,-57.15275,-29.19876,-1.003874,0.4174101,-0.3630398,38.32177,-15.55204,-3.988817,1007.658
10.800932407,5.472816,-49.23433,-16.61442,-0.9154642,0.4106363,-0.3228049,39.39622,-14.8606,-6.550199,1007.656
10.833709240,-1.422591,-32.5111,-10.13898,-0.9104673,0.3522705,-0.3174338,39.39622,-14.8606,-6.550199,1007.656
10.866484642,-5.584683,-21.1653,-5.068595,-0.9161875,0.3074188,-0.3168713,38.63885,-13.41893,-7.877514,1007.654
10.899260521,-0.9256248,-16.02424,-3.785726,-0.8806883,0.2817681,-0.3361713,38.64499,-13.78847,-8.244737,1007.654
10.932036400,15.22578,-8.164913,-2.380679,-0.9282873,0.2872221,-0.3351038,38.64499,-13.78847,-8.244737,1007.654
10.967334270,21.31361,-7.101244,1.651196,-0.923463,0.3024308,-0.3250296,38.63074,-13.06554,-8.691308,1007.654
11.000109673,26.78024,-2.728385,0.3683271,-0.9103504,0.3045954,-0.3096604,39.00689,-13.80717,-9.550542,1007.654
11.032885551,18.8909,-0.3646783,0.8570393,-0.9278741,0.3254955,-0.2947281,39.00689,-13.80717,-9.550542,1007.66
11.065661430,6.839473,1.762658,-1.403254,-0.9127924,0.3083944,-0.3207317,38.28622,-14.16392,-9.10876,1007.66
11.100959301,4.416762,-0.6601416,-1.403254,-0.9186831,0.3381615,-0.305359,38.64426,-13.79441,-8.679848,1007.656
11.133734703,-8.690722,1.230824,-2.441768,-0.912414,0.3612785,-0.2803779,38.99409,-13.07235,-9.12689,1007.654
11.166510582,-20.24519,3.476346,-1.891967,-0.9322599,0.3358206,-0.2754788,38.99409,-13.07235,-9.12689,1007.658
11.199286938,-18.25732,2.649049,-1.219987,-0.9239758,0.3242276,-0.2716301,39.00158,-13.43085,-8.686048,1007.654
11.232062816,-28.32089,8.262853,0.4294162,-0.8978097,0.349355,-0.2616214,39.0151,-14.15972,-8.674588,1007.654
11.267359733,-21.23912,3.653624,2.323176,-0.9389113,0.2754228,-0.2681516,39.0151,-14.15972,-8.674588,1007.658
11.300135612,-14.5922,4.067273,1.834463,-0.9311954,0.3014272,-0.2499173,39.00834,-13.79528,-8.680318,1007.658
11.332911968,-11.54828,3.299068,1.590107,-0.9350565,0.2891321,-0.2624051,39.36493,-13.43766,-9.12163,1007.658
11.365687847,-4.155905,1.467195,-0.120385,-0.9282542,0.2877411,-0.2604936,39.36493,-13.43766,-9.12163,1007.658
11.400984764,-2.602886,1.526288,-3.113747,-0.9462593,0.3071861,-0.244114,38.62398,-12.7011,-8.697038,1007.654
11.433760643,-9.746776,-0.01012217,-5.007506,-0.9589157,0.3222456,-0.2344794,38.63001,-13.07148,-9.12642,1007.654
11.466536999,-19.00277,-1.310161,-6.290376,-0.9433487,0.3096924,-0.2373856,38.63001,-13.07148,-9.12642,1007.658
11.499312878,-24.28304,-3.910239,-7.206711,-0.9044513,0.289615,-0.2297458,38.98056,-12.34348,-9.13835,1007.658
11.532088756,-36.89355,2.353585,-13.49888,-0.9097782,0.2872692,-0.2104751,38.98056,-12.34348,-9.13835,1007.658
11.567385673,-43.47836,2.767234,-17.04204,-0.9689881,0.2756169,-0.2040594,38.98056,-12.34348,-9.13835,1007.658
11.600162029,-41.92534,-1.310161,-19.91323,-1.001014,0.2660826,-0.2058946,38.97163,-11.99687,-10.44942,1007.658
11.632937908,-41.36625,-11.76957,-20.15758,-0.9990214,0.2421408,-0.2193413,39.68626,-11.26974,-10.46181,1007.66
11.665713310,-35.77538,-19.98345,-23.9451,-0.937826,0.241858,-0.1934925,39.68626,-11.26974,-10.46181,1007.658
11.701010704,-32.73146,-23.11536,-29.07658,-0.8819751,0.2419841,-0.1724453,39.29379,-9.822163,-11.29233,1007.659
11.733787060,-40.99353,-20.63347,-35.42984,-0.8625637,0.2460123,-0.1768296,38.91401,-9.110248,-12.60865,1007.659
11.766562939,-50.37376,-20.69256,-34.88004,-0.7950194,0.2261471,-0.173109,38.91401,-9.110248,-12.60865,1007.659
11.799338341,-59.81612,-13.8969,-36.46835,-0.71479,0.183087,-0.1583122,39.24958,-7.66526,-13.50227,1007.659
11.832115173,-67.95394,3.358161,-38.05666,-0.7176298,0.15239,-0.1568151,39.21392,-5.78828,-13.96698,1007.661
11.867412090,-78.82507,32.37267,-47.09784,-0.8641918,0.1099784,-0.1963566,39.21392,-5.78828,-13.96698,1007.659
11.900187969,-76.96145,35.03184,-40.13369,-0.9169492,0.05207952,-0.1244213,39.18011,-3.966095,-13.99563,1007.659
11.932963371,-92.55376,42.47752,-49.96902,-0.9086357,0.01467904,-0.1898498,39.49759,-1.409965,-13.6011,1007.659
11.965740204,-140.1383,31.07263,-49.05269,-0.9911121,0.217632,-0.0412193,39.49759,-1.409965,-13.6011,1007.659
12.001037121,-125.1672,47.14584,-38.30102,-0.8962374,-0.1084626,-0.263342,40.18736,0.7927442,-12.33109,1007.661
12.033813000,-16.64218,38.63649,-38.23993,-0.9733914,-0.1274966,-0.2462826,40.50691,3.365856,-10.69338,1007.659
12.066588402,91.44798,23.27239,-9.222649,-1.052539,0.09257234,-0.1617069,40.50691,3.365856,-10.69338,1007.659
12.099365234,157.1718,4.480922,25.17047,-0.938771,0.4387398,-0.1754953,40.83147,5.630177,-9.423849,1007.661
12.132140636,54.11338,35.97732,32.80659,-0.9710993,0.3396337,-0.2407344,41.18952,5.999685,-8.994937,1007.661
12.167438030,-14.28159,44.42757,23.27671,-1.107779,-0.01015889,-0.4406109,41.96072,3.761616,-8.152477,1007.661
12.200213432,-10.67859,37.27736,22.66582,-0.9988068,0.1469965,-0.2442293,41.96072,3.761616,-8.152477,1007.661
12.232989788,-23.53759,45.49124,16.98454,-1.12239,0.2506714,-0.2450551,41.97787,3.062462,-5.96546,1007.663
12.265765667,-52.85859,43.89574,14.05227,-1.070278,0.1772861,-0.2850212,42.01375,1.25726,-4.693633,1007.661
12.301063061,-29.19058,34.55909,19.85572,-1.033279,0.1422185,-0.2595438,42.01375,1.25726,-4.693633,1007.661
12.333838463,-2.10592,32.96359,16.67909,-1.060494,0.1431312,-0.3056914,42.73878,1.649671,-2.524744,1007.661
12.366614818,5.907661,25.51792,15.76276,-0.9718577,0.2303056,-0.3430979,42.0383,0.1987634,-2.127931,1007.659
12.399390697,-7.386185,23.74514,14.60207,-0.9037102,0.1526806,-0.3816515,42.0383,0.1987634,-2.127931,1007.661
12.432166576,10.44248,24.74971,13.99118,-0.90961,0.1812929,-0.3922706,42.40455,0.2157221,-0.823066,1007.661
12.467463493,8.703094,21.44052,14.47989,-0.901859,0.1937042,-0.3677582,42.42702,-0.8597569,0.4994588,1007.659
12.500239849,27.52569,19.01772,21.68839,-0.9056908,0.1601455,-0.4264247,42.42702,-0.8597569,0.4994588,1007.659
12.533015728,51.69067,14.76305,29.14125,-0.8665304,0.2355963,-0.4093022,42.45541,-2.306466,1.330444,1007.661
12.565791607,27.52569,20.96778,22.54364,-0.8893402,0.2280134,-0.4217521,42.47787,-3.381946,2.652968,1007.659
12.598567963,2.801622,26.69977,20.40553,-0.8532919,0.1695151,-0.4727738,42.47787,-3.381946,2.652968,1007.661
12.633864880,20.69241,34.5,14.66316,-0.8853981,0.1860091,-0.5136383,42.86296,-4.470185,3.1048,1007.661
12.666640758,-2.97561,35.97732,7.576831,-0.7896523,0.3796304,-0.3803386,42.87846,-5.182926,4.297278,1007.661
12.699416637,-80.6887,58.96437,-2.625035,-0.8397064,0.3805954,-0.4615715,42.87846,-5.182926,4.297278,1007.661
12.732192993,-92.0568,48.56406,-0.6090971,-0.9422873,0.4373738,-0.437827,42.53757,-6.251589,6.055385,1007.661
12.767489910,-134.2368,45.96398,0.8570393,-0.8728872,0.4813389,-0.2922053,42.53965,-6.234607,7.298561,1007.661
12.800265789,-158.6503,39.99562,-6.962355,-0.9628329,0.3045226,-0.3971437,42.53965,-6.234607,7.298561,1007.663
12.833041668,-123.552,21.49961,-12.58254,-0.9637903,0.3077614,-0.3504542,42.20447,-7.746277,7.758017,1007.663
12.865818024,-104.1703,9.326521,-15.14828,-1.017546,0.4549986,-0.3341823,42.58956,-8.834517,8.209849,1007.664
12.898593903,-115.5385,-4.382981,-15.08719,-0.9467546,0.4989623,-0.3305656,42.58956,-8.834517,8.209849,1007.664
12.933890820,-183.188,-0.1874002,-26.81629,-0.9300222,0.5889477,-0.4376032,42.22933,-9.221857,6.475602,1007.664
12.966666698,-192.0712,3.299068,-27.97698,-0.9078258,0.466746,-0.3176126,44.06574,-10.35435,3.941931,1007.666
12.999443054,-105.4749,-7.869449,-9.955717,-0.8614463,0.3700269,-0.2742543,44.06574,-10.35435,3.941931,1007.666
13.032218933,43.67709,-23.76538,15.88494,-0.7110836,0.6268301,-0.3659753,44.78164,-10.03666,0.6408446,1007.666
13.067515850,115.613,-15.4924,54.43211,-0.7130169,1.014356,-0.4565694,45.47776,-8.621412,-2.366638,1007.668
13.100291729,-49.06923,-22.28806,61.94606,-0.7027403,1.026806,-0.2193013,45.09122,-7.545061,-3.688693,1007.668
13.133068085,-187.7228,2.589956,51.43874,-0.7142789,0.5602818,-0.2667069,45.09122,-7.545061,-3.688693,1007.668
13.165843963,-110.8794,0.5217119,50.0337,-0.7039022,0.2707241,-0.3158754,44.01574,-8.664623,-5.783494,1007.668
13.198619366,40.32257,3.417253,54.18775,-0.5151029,0.3073158,-0.3235987,42.5349,-7.602636,-8.347316,1007.668
13.233917236,117.4766,18.19042,51.43874,-0.3601426,0.4762881,-0.3742826,42.5349,-7.602636,-8.347316,1007.67
13.266693115,210.3471,49.45045,66.77209,-0.1330986,0.6881663,-0.7852607,40.34254,-7.172224,-8.351181,1007.67
13.299468994,113.4387,79.58772,73.61406,-0.1032175,1.251139,-0.4776271,39.98771,-7.585489,-7.535961,1007.671
13.332244396,-87.89471,105.7658,73.61406,-0.2961448,0.6985511,-0.4965539,39.98771,-7.585489,-7.535961,1007.671
13.367542267,-53.66616,112.7978,74.10278,-0.4275541,0.3921468,-0.6267108,39.31727,-10.46952,-5.313623,1007.671
13.400318146,45.72708,115.7524,78.9288,-0.3882761,0.6255054,-0.5944231,39.34109,-11.53396,-3.183034,1007.671
13.433093548,18.95302,140.335,70.0709,-0.3432707,0.87756,-0.6820362,39.34109,-11.53396,-3.183034,1007.671
13.465870380,-82.11748,120.7162,49.42281,-0.5010837,1.270157,-0.7664919,39.38663,-13.67982,-0.1650305,1007.673
13.498645782,-175.0502,142.9942,45.81855,-0.3681738,0.7398188,-0.6389283,39.44644,-16.54862,3.299544,1007.675
13.533943176,-62.86004,98.73376,25.537,-0.4957807,0.7049192,-0.6015082,39.44644,-16.54862,3.299544,1007.675
13.566718578,-65.1585,73.61936,94.87304,-0.1790199,1.041058,-0.6205766,39.47763,-17.9724,5.808816,1007.675
13.599495411,-81.12354,76.33763,147.6539,-0.2008097,1.016064,-0.6166363,38.78576,-19.84254,6.647426,1007.677
13.632270813,-72.67512,84.96516,131.7097,-0.3339277,1.091113,-0.380085,38.78576,-19.84254,6.647426,1007.678
13.667568207,-19.9967,-8.342191,78.80663,-0.09762543,0.7666816,-0.3228745,36.25237,-23.83321,7.584046,1007.678
13.700343609,124.1235,-38.30218,61.57952,0.251397,0.6589321,-0.05830958,32.70094,-28.55028,8.533459,1007.683
13.733120441,159.843,-85.98997,44.04697,0.5137876,0.7437857,-0.288188,32.70094,-28.55028,8.533459,1007.683
13.765895843,211.7138,-54.02084,8.065543,0.2918924,0.8592441,-0.7176918,30.1809,-29.99002,9.429891,1007.683
13.798671722,50.94522,-3.614776,35.18907,0.1748842,0.8362526,-0.8016179,30.90655,-29.59252,11.97173,1007.678
13.833968639,-53.72828,37.69101,31.70699,0.1211751,0.7826939,-0.6647031,30.90655,-29.59252,11.97173,1007.683
13.866744995,-13.16342,9.562892,27.91947,0.1930797,0.5854296,-0.5427918,30.15884,-28.49152,12.39059,1007.681
13.899520874,24.48177,22.79965,10.02039,0.1916124,0.8105267,-0.4588892,29.43807,-28.84912,12.77022,1007.681
13.932296753,24.91662,29.53622,26.27007,0.06034991,0.8726091,-0.4784073,29.43807,-28.84912,12.77022,1007.681
13.967593670,43.92558,23.62695,47.52905,0.2199574,0.7140976,-0.5623039,28.73165,-29.92879,13.65857,1007.681
14.000370026,62.37545,13.22664,55.16518,0.2537443,0.7804074,-0.6626073,27.66116,-31.0076,14.54739,1007.679
14.033145904,63.99059,28.23618,63.29002,0.3080541,0.7963739,-0.7431476,27.66116,-31.0076,14.54739,1007.679
14.065921783,41.37862,21.08597,60.6021,0.3799262,0.8041736,-0.6884545,26.21626,-31.40042,16.66936,1007.679
14.098698139,31.37718,20.67232,51.74419,0.5528837,0.7894304,-0.5651325,23.98141,-31.7306,18.79138,1007.679
14.133995056,-21.79821,28.0589,41.1147,0.4638827,0.6511075,-0.5286108,21.43432,-31.71261,19.6649,1007.679
14.166770935,-40.80716,19.78593,38.18243,0.3743988,0.5037295,-0.5329902,21.43432,-31.71261,19.6649,1007.679
14.199546814,-21.92245,6.371888,28.77472,0.417999,0.5489877,-0.5206463,19.98623,-32.06166,20.54273,1007.679
14.232323170,-8.193756,-1.546532,18.38959,0.3764755,0.6412067,-0.5866333,17.81383,-32.79719,19.68678,1007.677
14.267620086,7.771284,1.762658,20.89424,0.4307251,0.6804768,-0.6777986,17.81383,-32.79719,19.68678,1007.677
14.300395965,2.242535,4.599107,22.788,0.5064144,0.7109949,-0.652512,17.07215,-32.06657,19.67626,1007.676
14.333171844,-7.75891,11.39476,25.537,0.4959643,0.6150318,-0.642234,16.35825,-32.78776,20.12378,1007.676
14.365948200,8.206129,10.44928,24.19304,0.4786819,0.5331225,-0.6338863,16.35825,-32.78776,20.12378,1007.676
14.398724079,10.75308,15.88581,15.70167,0.522746,0.5790539,-0.6653486,15.63009,-32.78601,20.12472,1007.676
14.434020996,-23.2891,22.68147,8.737522,0.5066965,0.5972081,-0.6268289,13.80367,-32.41127,20.55645,1007.676
14.466796875,-31.42693,26.64068,6.660496,0.4809154,0.6149632,-0.6340149,13.80367,-32.41127,20.55645,1007.672
14.499573231,-14.15735,30.71807,11.60871,0.5253565,0.711737,-0.6385986,12.65752,-32.77294,20.56367,1007.672
14.532349110,0.006186862,36.74553,31.21828,0.4935642,0.8139468,-0.6102768,11.93613,-33.13563,20.57034,1007.672
14.567646027,6.901593,48.85952,52.47726,0.527487,0.646003,-0.568707,11.93613,-33.13563,20.57034,1007.672
14.600421905,54.73459,58.60982,52.2329,0.6996226,0.5441742,-0.5708873,10.48127,-33.12025,21.44244,1007.67
14.633198261,119.1538,55.77337,51.19439,0.8386965,0.4686773,-0.5287435,7.928772,-32.72678,23.11829,1007.67
14.665974140,237.6182,72.08295,49.36172,0.88694,0.3525564,-0.756367,7.928772,-32.72678,23.11829,1007.67
14.698749542,244.0166,96.42914,48.62865,0.6775318,0.3967865,-0.7978155,3.893971,-30.7935,26.07747,1007.669
14.734047413,131.3295,115.2797,39.03767,0.5913728,0.3205181,-0.5958056,-0.6142941,-25.96963,31.54083,1007.673
14.766823292,67.65572,112.7387,14.47989,0.4515347,0.1512482,-0.3959351,-0.6142941,-25.96963,31.54083,1007.671
14.799599171,76.66323,67.06008,-4.824239,0.7233647,0.1915385,-0.3918269,-5.822789,-19.73312,33.5634,1007.671
14.832374573,72.43902,68.30103,-19.18016,1.063812,0.3605438,-0.4506525,-10.25973,-16.01159,33.9459,1007.669
14.867672443,-14.03311,80.06047,-11.97165,0.8223815,0.4079342,-0.4193441,-10.25973,-16.01159,33.9459,1007.667
14.900448322,-89.88258,81.47869,0.3683271,0.9443814,0.1557904,-0.405294,-12.90952,-13.81872,33.91488,1007.667
14.933224201,-54.03889,79.94228,4.278024,0.8806853,0.02208511,-0.2253935,-15.48791,-12.37778,32.21696,1007.665
14.965999603,14.91517,54.88698,-1.708699,0.8468081,-0.0001746931,-0.09386782,-15.48791,-12.37778,32.21696,1007.665
14.998775959,74.55112,43.71846,-18.08056,0.8646021,0.07254885,-0.09305691,-18.36349,-14.5863,30.1417,1007.665
15.034073353,52.62249,22.68147,-24.67817,0.9546167,0.1953787,-0.1175236,-19.82874,-14.2362,28.83252,1007.665
15.066848755,5.534936,33.84998,-32.68083,1.112443,0.1863439,-0.1356947,-21.67545,-12.76815,29.24706,1007.665
15.099625587,-13.34978,44.13211,-41.84418,0.9378773,0.09012617,-0.1048099,-21.67545,-12.76815,29.24706,1007.664
15.132400989,19.26363,26.22703,-52.04605,1.013979,0.1427401,-0.1243242,-22.7684,-12.77147,28.81336,1007.664
15.167698383,-11.23767,20.19958,-56.50555,1.00204,0.2599058,-0.1403574,-24.6374,-13.50772,27.95702,1007.664
15.200473785,-32.42086,17.48131,-56.87208,0.8808113,0.2003344,-0.08654889,-24.6374,-13.50772,27.95702,1007.66
15.233250618,-29.19058,2.530863,-62.24791,0.7691497,0.1875767,-0.1060006,-24.98254,-14.6112,27.16662,1007.662
15.266026020,-21.86033,-7.987634,-75.1377,0.6103199,0.2041715,-0.1200898,-25.31427,-16.4444,26.32551,1007.66
15.298801899,-33.04206,-13.18779,-95.17489,0.4603383,0.1902052,-0.05713598,-25.31427,-16.4444,26.32551,1007.662
15.334098816,-30.24663,-17.67883,-130.7287,0.3598669,0.1698051,-0.06841961,-24.90962,-18.6319,26.35942,1007.662
15.366875648,10.38036,-34.57934,-158.2798,0.2983657,0.305729,-0.05885137,-23.74865,-22.33962,26.41627,1007.662
15.399651050,76.97383,-56.68,-175.8124,0.2417884,0.5968094,-0.1554282,-23.74865,-22.33962,26.41627,1007.66
15.432426929,80.14199,-72.7532,-181.5548,0.2773844,0.9206728,-0.2710463,-21.42768,-26.34192,27.34662,1007.66
15.465203285,39.08015,-85.7536,-191.0236,0.3442583,0.9600415,-0.3632043,-15.53526,-29.58402,31.18236,1007.664
15.500500202,29.51356,-84.45356,-191.8788,0.2251576,1.002372,-0.4361526,-15.53526,-29.58402,31.18236,1007.664
15.533276081,18.70454,-95.56298,-176.0568,0.07656222,1.208543,-0.4457381,-9.239314,-31.81155,33.75814,1007.664
15.566051960,117.166,-95.26752,-102.9943,0.06767222,1.875881,-0.4919708,-1.171266,-34.71143,36.34216,1007.664
15.598828316,-14.5922,-0.06921485,-10.32225,0.4760923,1.950877,-1.05432,-1.171266,-34.71143,36.34216,1007.658
15.634126663,-193.5,4.185458,22.60473,0.2940283,0.8441145,-0.3744631,6.195605,-35.78667,38.96054,1007.662
15.666901112,-239.5315,44.42757,-25.77777,0.05698961,0.3373021,0.009064196,8.003521,-35.4733,35.53373,1007.662
15.699676990,-30.80572,-24.00175,-75.87077,0.211291,0.3535473,-0.1516197,8.003521,-35.4733,35.53373,1007.66
15.732453346,73.61931,-7.219429,-64.75256,0.01152638,2.012578,-0.4477584,7.720606,-40.68493,27.53377,1007.662
15.765229225,-35.46478,-55.9118,24.19304,0.553245,0.9173189,-0.1744604,9.599738,-43.63666,29.69162,1007.662
15.800526142,98.65398,-19.98345,24.31522,-0.2413711,1.215251,-0.149438,9.599738,-43.63666,29.69162,1007.662
15.833302021,-5.708924,-53.54809,24.25413,-0.05452488,0.8258604,-0.2691534,11.04107,-42.92317,28.80805,1007.661
15.866078377,-3.410456,-24.17903,19.06157,-0.04409211,0.5184904,-0.2884507,9.545248,-40.65448,30.07994,1007.661
15.898854256,43.24225,-10.52862,5.683071,-0.07379846,0.5638648,-0.2412752,9.545248,-40.65448,30.07994,1007.661
15.934151173,18.39394,15.76762,-15.69808,-0.01872158,0.9125482,-0.1028178,9.908599,-40.6613,29.64435,1007.661
15.966927528,-26.89211,3.771809,-19.05798,0.3946113,1.480962,-0.1041735,10.26799,-40.28075,30.88133,1007.661
15.999703407,57.34366,13.81756,1.284662,0.1647665,1.069255,-0.4808768,10.26799,-40.28075,30.88133,1007.661
16.032479286,71.87993,5.308219,16.80127,0.03322521,1.113867,-0.1407906,11.36022,-40.28337,30.87992,1007.661
16.065254688,20.81665,-5.860298,15.33514,0.3091084,0.8674051,-0.194986,11.36989,-40.62403,32.6261,1007.659
16.100552559,24.04693,-13.30598,10.08148,0.07008812,0.6675391,-0.4237275,11.33743,-38.79081,33.40551,1007.661
16.133328438,90.70252,-39.54313,3.850401,0.1017691,0.7873402,-0.6035311,11.33743,-38.79081,33.40551,1007.662
16.198880672,-30.80572,-1.664717,14.23553,0.1056218,0.8085961,-0.5631379,11.66665,-36.55836,36.7894,1007.662
16.234177589,-25.9603,1.34901,-0.6701861,0.136698,0.8285559,-0.4616743,11.66665,-36.55836,36.7894,1007.662
16.266953468,-51.92678,1.34901,-7.451067,0.1720263,0.8886304,-0.4098616,12.02335,-36.19989,36.41025,1007.661
16.299729347,-51.05709,4.776385,-7.756512,0.1486297,0.930481,-0.3867638,12.40408,-37.32379,34.25141,1007.661
16.332505703,-27.57544,3.062697,-0.120385,0.1438509,0.9038615,-0.3568679,12.40408,-37.32379,34.25141,1007.661
16.365281582,9.448545,1.112639,3.361689,0.139589,0.8635927,-0.3293595,12.06559,-38.79255,33.40457,1007.661
16.400578499,29.32719,-4.205703,0.7959503,0.1288387,0.8876976,-0.3519943,12.07776,-39.53247,32.60797,1007.662
16.433354378,23.98481,-5.860298,-0.4869191,0.1350541,0.9180546,-0.4064487,12.07776,-39.53247,32.60797,1007.664
16.466130733,8.703094,-2.728385,-0.6701861,0.1326184,0.9184175,-0.4213657,11.72252,-39.87905,33.85735,1007.666
16.498906135,-4.714992,0.6398973,-0.05929597,0.1278403,0.8882717,-0.4083122,11.6962,-38.41536,34.26954,1007.666
16.534203529,-6.827098,1.703566,0.3072381,0.1389262,0.9229438,-0.4083907,11.6962,-38.41536,34.26954,1007.668
16.566979408,-10.49222,2.649049,-1.403254,0.1477435,0.8949266,-0.3857454,12.05207,-38.06368,33.39311,1007.668
16.599755764,-4.59075,2.767234,-2.136322,0.1065081,0.8825472,-0.3654118,12.05956,-38.42217,33.83395,1007.668
16.632531166,8.019767,-1.487439,-0.6701861,0.1244547,0.8894653,-0.3726852,12.05956,-38.42217,33.83395,1007.668
16.665307045,10.31824,-2.078366,0.6737722,0.1365172,0.9156416,-0.4050044,11.70162,-38.79083,33.4672,1007.668
16.700604439,-0.2422962,0.1080632,0.6126832,0.1370373,0.8995169,-0.4131645,12.06028,-38.41623,34.26907,1007.669
16.733380794,-3.348335,0.1671559,0.1850601,0.1249134,0.896624,-0.3943583,12.06028,-38.41623,34.26907,1007.669
16.766156197,-0.1180547,-0.601049,-0.4258301,0.128804,0.8962464,-0.3832957,12.05425,-38.04585,34.69845,1007.669
16.798932075,2.863743,-1.191976,-0.4258301,0.1317133,0.8977217,-0.3847489,12.05956,-38.42217,33.83395,1007.671
16.834229946,2.366776,-0.6601416,-0.3647411,0.1307392,0.897163,-0.3938916,12.05956,-38.42217,33.83395,1007.671
16.867005825,1.310723,-0.4828636,0.3683271,0.1287998,0.8956757,-0.3953289,11.69548,-38.4213,33.83442,1007.675
16.899781227,2.180414,-0.4828636,0.4905052,0.135104,0.8981267,-0.4006425,12.7952,-38.78241,34.27386,1007.675
16.932557106,2.615259,-0.3055856,0.6126832,0.1307295,0.8990307,-0.4054471,12.7952,-38.78241,34.27386,1007.675
16.965333462,2.304656,-0.1874002,0.5515942,0.1336571,0.8937212,-0.4020765,12.06101,-38.41029,34.70418,1007.675
17.000630856,0.9379985,-0.3055856,-0.242563,0.1317052,0.8970908,-0.4054465,12.78844,-38.41798,34.26813,1007.675
17.033406257,-0.5529001,-0.4237709,-0.120385,0.1336548,0.8957061,-0.3967845,12.42509,-38.41116,34.70371,1007.674
17.066182613,0.4410323,-0.06921485,0.3072381,0.1307381,0.8961353,-0.4015918,12.42509,-38.41116,34.70371,1007.674
17.098958492,0.6895154,-0.06921485,-0.181474,0.1360877,0.8927742,-0.4011181,12.42436,-38.4171,34.2686,1007.674
17.134255886,1.683448,-0.4828636,0.1239711,0.1268489,0.8970402,-0.4068789,12.42509,-38.41116,34.70371,1007.671
17.167031288,1.06224,-0.01012217,0.1850601,0.1263761,0.8916788,-0.4068697,12.42509,-38.41116,34.70371,1007.675
17.199807644,0.3789115,-0.1874002,0.2461491,0.1283022,0.8980097,-0.4092907,12.04749,-37.68141,34.69272,1007.677
17.232583523,-0.8013833,-0.01012217,0.4294162,0.1302546,0.8946468,-0.404958,12.06028,-38.41623,34.26907,1007.677
17.265359402,-0.8635041,-0.01012217,0.2461491,0.1317235,0.8897988,-0.40351,12.06028,-38.41623,34.26907,1007.677
17.300656319,0.3167907,-0.1874002,0.3683271,0.1346209,0.8966448,-0.4030459,11.69693,-38.40941,34.70465,1007.677
17.333432674,1.621327,-0.4237709,0.001793041,0.1287994,0.8931435,-0.4092845,12.06101,-38.41029,34.70418,1007.679
17.366208553,1.310723,-0.2464929,0.06288206,0.1288018,0.8926765,-0.4063956,12.06101,-38.41029,34.70418,1007.677
17.398984432,0.3789115,-0.01012217,0.06288206,0.1331706,0.8942075,-0.4015947,12.05352,-38.05179,34.26334,1007.677
17.434281349,-0.1180547,0.1080632,0.3072381,0.1278261,0.8956274,-0.4011028,12.41832,-38.04672,34.69798,1007.677
17.467057705,1.000119,-0.2464929,0.1239711,0.133654,0.8941781,-0.4064094,12.41832,-38.04672,34.69798,1007.677
17.499833584,1.248602,-0.5419563,0.1239711,0.1322042,0.8917475,-0.4039955,11.32609,-38.0441,34.69939,1007.677
17.532609463,0.7516361,-0.1283075,0.06288206,0.1331703,0.893697,-0.4049634,11.68341,-37.68054,34.69319,1007.677
17.565385818,1.06224,-0.2464929,-0.181474,0.1322042,0.8917475,-0.4039955,11.68341,-37.68054,34.69319,1007.677
17.600682735,1.497086,-0.2464929,0.3072381,0.1365707,0.892738,-0.4068955,11.32609,-38.0441,34.69939,1007.681
17.633458614,0.8758777,-0.3055856,0.06288206,0.1346211,0.8951335,-0.410264,12.05425,-38.04585,34.69845,1007.681
17.666234493,-0.05593392,0.1080632,0.4905052,0.1307457,0.8922124,-0.4054368,12.05425,-38.04585,34.69845,1007.677
17.699010849,1.372844,-0.3646783,0.1850601,0.1370587,0.8912643,-0.4093013,12.06028,-38.41623,34.26907,1007.677
17.734307766,3.050105,-0.6601416,0.2461491,0.1326892,0.8912378,-0.4078468,12.05352,-38.05179,34.26334,1007.677
17.767083645,3.857675,-0.4237709,0.7348613,0.1312366,0.8887637,-0.4116905,12.05352,-38.05179,34.26334,1007.677
17.799860001,5.286453,-0.778327,0.9181283,0.1297836,0.88679,-0.4136095,12.41156,-37.68229,34.69225,1007.677
17.832635879,10.56672,0.1080632,3.728223,0.1370295,0.9014148,-0.4203878,11.68414,-37.67459,35.1283,1007.68
17.865411758,40.6953,2.708141,19.61137,0.1378823,0.9409908,-0.4733993,11.68414,-37.67459,35.1283,1007.68
17.900708675,176.9883,11.39476,63.10675,0.207341,1.10405,-0.6413237,12.05352,-38.05179,34.26334,1007.678
17.933485031,151.9536,22.74056,89.43612,0.1846955,1.249553,-0.5615832,11.31828,-37.26853,38.10666,1007.68
17.966260910,20.94089,39.05014,92.36839,0.1603319,1.087908,-0.5246983,11.31828,-37.26853,38.10666,1007.68
17.999036789,-70.74937,25.39973,102.8146,0.2294531,0.8047589,-0.5634258,9.032072,-31.37965,41.87165,1007.678
18.034333706,-39.00566,22.14963,104.7695,0.4099227,0.659789,-0.6161038,4.970551,-28.40571,40.9598,1007.678
18.067110061,59.8285,30.30442,106.541,0.4684292,0.5624732,-0.603099,2.438763,-29.52178,38.86687,1007.676
18.099885940,104.6797,31.36809,93.9567,0.3855877,0.478385,-0.6191422,2.438763,-29.52178,38.86687,1007.674
18.132661819,110.2085,29.94987,78.9899,0.4496809,0.4874805,-0.5788735,-1.646325,-28.41278,39.29005,1007.673
18.165438175,101.5737,28.11799,67.81061,0.4882363,0.4135768,-0.5369751,-4.636549,-24.00368,41.33844,1007.673
18.200735092,125.428,20.67232,62.49586,0.4927621,0.3332052,-0.6138826,-4.636549,-24.00368,41.33844,1007.673
18.233510971,135.7401,5.780961,47.46796,0.5681321,0.3016644,-0.5475859,-6.920979,-18.52001,42.12554,1007.671
18.266286373,111.0781,-0.8374197,39.28203,0.6221675,0.2330383,-0.6058553,-8.11368,-12.97311,43.28322,1007.671
18.299063206,125.9871,-7.810356,24.00978,0.5404193,0.292794,-0.6692913,-8.11368,-12.97311,43.28322,1007.671
18.331838608,74.24052,-7.633078,20.40553,0.5545746,0.4743841,-0.6272388,-8.920168,-8.575197,44.89369,1007.671
18.367136001,-110.2582,18.72226,20.89424,0.7526031,0.241878,-0.9623858,-9.009191,-3.776778,44.81824,1007.671
18.399912357,-64.97215,44.07302,24.37631,0.8117054,0.04727767,-1.212541,-9.009191,-3.776778,44.81824,1007.673
18.432688236,115.7993,49.92319,32.80659,0.8838605,0.140311,-1.157977,-9.01054,-3.787816,44.01018,1007.67
18.465463638,197.426,81.18323,56.50913,0.9748794,0.4768206,-1.062428,-10.44053,-5.248017,43.59986,1007.67
18.500761032,97.78429,119.5344,69.09348,0.8125139,0.3685202,-0.9627188,-10.44053,-5.248017,43.59986,1007.67
18.533537388,91.38586,123.6709,66.77209,0.9457277,0.1126454,-0.8683022,-13.16146,0.560358,41.39815,1007.67
18.566313267,79.52078,126.33,52.47726,0.9981791,0.1319333,-0.7490779,-16.55245,6.419185,38.32612,1007.674
18.599088669,27.40145,133.3621,43.375,0.9961458,0.01635434,-0.4880008,-16.55245,6.419185,38.32612,1007.673
18.631865024,-36.83143,121.0117,32.37897,0.9770078,-0.0960363,-0.4483144,-20.65236,11.10788,33.96784,1007.673
18.667162418,-36.95567,112.4433,24.49849,0.9414696,-0.2816222,-0.5490364,-24.04953,13.98467,30.50757,1007.673
18.699937820,41.68923,109.8432,0.06288206,0.8731331,-0.5387936,-0.5388594,-24.04953,13.98467,30.50757,1007.673
18.732713699,121.7629,102.3384,-9.405915,0.5370863,-0.5092908,-0.4447227,-26.96714,13.95089,27.52771,1007.671
18.765490055,144.4991,92.29266,-26.63302,0.7562657,-0.5499735,-0.2550433,-29.17218,14.62726,23.29227,1007.669
18.800787449,98.09489,98.91103,-51.7406,0.4637325,-0.4048362,0.02654702,-29.17218,14.62726,23.29227,1007.667
18.833562851,26.84236,87.62433,-89.31035,0.5469873,-0.4996642,0.0173466,-31.79132,17.90356,18.08385,1007.666
18.866338730,-67.08425,102.7521,-105.56,0.5960499,-0.7661435,-0.2615579,-34.3672,18.94524,13.84315,1007.666
18.899115086,-77.64478,147.8989,-190.5959,0.1507819,-0.9567751,-0.1750135,-34.3672,18.94524,13.84315,1007.662
18.931890964,-193.8728,240.2607,-359.7514,0.4319391,-1.506817,-0.8882294,-37.29776,16.29387,10.46932,1007.659
18.967187881,111.2024,333.9817,-372.9466,-0.4832637,-0.8295978,-0.3147403,-39.38255,10.39848,5.466798,1007.655
18.999964714,1435.493,-82.08985,83.02177,-3.845429,8.491073,-1.852988,-39.38255,10.39848,5.466798,1007.652
19.032740116,-1114.068,100.5065,32.25679,1.436626,2.845636,0.5319907,-40.9847,-2.153192,-1.980611,1007.652
19.065515995,-1016.787,-33.69295,-66.09652,-0.2074569,-0.5040734,-2.862288,-40.92417,-5.016042,1.919075,1007.65
19.100812912,-31.61329,42.12296,-111.9133,0.6351781,-1.332628,0.5941015,-40.20951,-5.128174,-6.16251,1007.648
19.133589268,360.7415,-84.68993,-74.83224,0.7505963,0.3328371,0.4242851,-40.20951,-5.128174,-6.16251,1007.647
19.166365146,298.0617,-87.99912,-37.62904,0.8860596,1.208133,0.6936512,-39.83795,-5.487539,-5.722139,1007.645
19.199141025,160.1535,-73.04867,17.53434,0.509164,1.156008,0.2344419,-39.01829,-9.847696,-0.1212292,1007.645
19.231917381,9.448545,-46.57516,17.41216,0.5672086,1.038349,0.1940472,-39.01829,-9.847696,-0.1212292,1007.645
19.267214298,18.95302,-53.78447,41.35906,0.4393427,0.9120246,0.2518229,-39.74011,-9.794154,3.671398,1007.645
19.299990177,60.07698,-77.42153,72.33119,0.4208815,1.118807,0.2438532,-39.73523,-9.754245,6.592862,1007.643
19.332766056,-79.13568,-85.16267,88.03107,0.3694316,1.101521,0.2011601,-39.73523,-9.754245,6.592862,1007.647
19.365542412,-217.5408,-93.37656,84.06028,0.3526835,0.5430558,-0.03430709,-39.76468,-7.896397,9.174882,1007.645
19.400839329,-117.6506,-118.3137,53.45468,0.4790629,0.07693549,-0.04930789,-39.80888,-5.249784,11.68233,1007.645
19.433615208,-80.3781,-138.6416,25.90354,0.6409361,0.2179632,0.005452222,-39.80888,-5.249784,11.68233,1007.645
19.466391086,-158.1533,-127.6503,-13.01017,0.644629,0.2554009,-0.2184462,-38.73122,-4.11239,15.08246,1007.644
19.499167442,-139.7034,-128.9504,-25.0447,0.611632,0.2473832,-0.2111354,-37.61237,-5.156522,18.88993,1007.648
19.531943321,-144.611,-142.1871,-43.73794,0.7396803,0.2952323,-0.2779391,-37.61237,-5.156522,18.88993,1007.646
19.567240238,-111.687,-136.2188,-48.01418,0.7627707,0.1546517,-0.4207465,-34.57815,-8.093182,22.35162,1007.646
19.600016594,-32.17237,-141.1234,-44.22665,0.8243963,0.1838155,-0.3631732,-31.5741,-12.80897,24.53576,1007.646
19.632792473,14.60457,-145.1418,-55.1005,0.6680716,0.3465925,-0.5103444,-31.5741,-12.80897,24.53576,1007.646
19.665568352,-171.2608,-123.6911,-72.3276,0.7941924,0.8512716,-0.2967169,-27.50873,-15.68142,28.43027,1007.648
19.700865269,-362.3443,-110.9862,-138.487,0.8886004,0.6997198,-0.6322215,-22.67771,-17.48623,30.56613,1007.65
19.733641624,-113.737,-64.24386,-177.4618,1.256932,0.8070403,-0.5600899,-22.67771,-17.48623,30.56613,1007.654
19.766417503,63.67999,-70.62587,-151.6822,0.577089,1.040534,-0.4842183,-17.42574,-26.3753,25.60101,1007.654
19.799193382,82.2541,-72.51684,-119.0607,0.2187662,1.04604,-0.3822908,-10.65648,-34.84583,24.855,1007.656
19.831969738,-0.304417,-67.90761,-96.15231,-0.04058532,0.8717432,-0.3414599,-10.65648,-34.84583,24.855,1007.658
19.867266655,25.22722,-80.25798,-96.45776,0.1521137,0.7045468,-0.3132645,-4.800567,-36.28782,27.04596,1007.658
19.900042534,57.34366,-68.26216,-110.4471,0.2180681,1.149801,-0.3083158,0.3174233,-37.38825,27.42952,1007.659
19.932818413,-16.51794,-62.82564,-121.993,0.3113456,1.751386,-0.2675652,0.3174233,-37.38825,27.42952,1007.659
19.965594769,-15.89673,-58.74825,-112.8907,0.3830551,2.050571,-1.174109,5.504411,-38.84053,28.75112,1007.661
20.000891685,-98.45524,15.05851,5.988516,0.1103209,1.10117,-0.4485445,11.36138,-40.69366,27.52907,1007.665
20.033667564,-105.04,4.835478,2.139909,-0.001361433,0.5623047,-0.06237806,13.61434,-41.47462,24.1189,1007.666
20.066443920,-35.5269,26.75886,-0.6090971,0.1742642,1.010957,-0.1910317,13.61434,-41.47462,24.1189,1007.668
20.099219799,-74.29026,14.58577,7.882276,0.03711364,1.098299,-0.2129807,13.66457,-44.49161,21.18207,1007.668
20.131995201,-15.64825,1.644473,4.339113,0.1569942,0.7600437,0.02744432,13.64814,-43.78651,19.43017,1007.67
20.167292595,36.09836,3.180883,-5.984931,0.1027708,0.8711864,-0.103525,13.64814,-43.78651,19.43017,1007.672
20.200068950,44.60891,-2.314737,9.226234,0.07515965,1.031089,-0.1884201,12.50802,-44.51856,19.008,1007.672
20.232844829,57.71639,-4.855722,10.5091,0.1463097,0.930133,-0.1537787,13.66457,-44.49161,21.18207,1007.673
20.265620231,95.73431,-9.760415,7.271386,0.1302662,0.9317098,-0.1879197,13.66457,-44.49161,21.18207,1007.675
20.300917625,130.9568,-17.91521,23.39889,0.08969314,1.025127,-0.2929011,12.14435,-44.09467,23.2917,1007.675
20.333693981,88.8389,-25.89272,30.36303,0.1019251,0.9781856,-0.3342565,12.48669,-42.52441,27.1212,1007.675
20.366469860,99.77216,-24.23812,35.12798,0.154402,0.9458399,-0.4262723,12.48669,-42.52441,27.1212,1007.671
20.399245262,100.7661,-17.32428,38.48787,0.1812059,0.8970755,-0.4671781,12.45183,-40.29108,30.50556,1007.677
20.432022095,74.30264,-6.983058,20.5277,0.2274071,0.8642421,-0.4816791,11.31788,-37.69156,33.82343,1007.674
20.467319012,44.60891,10.56747,14.66316,0.168746,0.8151913,-0.5310463,11.31788,-37.69156,33.82343,1007.674
20.500094890,38.64531,12.45843,9.531679,0.1605583,0.7863678,-0.5338716,10.55955,-35.8379,35.97128,1007.676
20.532871246,39.32864,10.272,5.011092,0.1721816,0.7960918,-0.5502802,10.53458,-34.36317,37.19154,1007.677
20.565646648,19.69847,9.917448,1.345751,0.1983926,0.7976745,-0.5643042,10.53458,-34.36317,37.19154,1007.677
20.600944042,-11.23767,10.68565,-1.097809,0.2382486,0.7829658,-0.5561934,9.06693,-33.61298,38.4873,1007.677
20.633719921,-21.30124,11.21749,-1.708699,0.1974691,0.7716398,-0.5950699,8.67508,-32.1603,38.02973,1007.677
20.666496277,-43.47836,10.80384,-1.464343,0.1911418,0.7880238,-0.5426111,8.67508,-32.1603,38.02973,1007.677
20.699271679,-39.87535,10.80384,-3.235925,0.1925384,0.8143723,-0.5373592,9.045193,-32.53156,37.59988,1007.675
20.732047558,-25.89818,10.44928,3.606045,0.1778911,0.8513853,-0.5200512,7.971791,-33.63414,36.74826,1007.675
20.767344475,-2.91349,16.41764,9.409501,0.2100192,0.8251341,-0.4815789,7.971791,-33.63414,36.74826,1007.675
20.800121307,14.79093,2.471771,11.18108,0.2366895,0.8455058,-0.4556793,7.633409,-35.10205,35.96358,1007.675
20.832896709,43.86346,-6.983058,12.64722,0.2158731,0.8089368,-0.5065992,7.283477,-35.82495,36.34846,1007.675
20.865672588,53.8649,-3.437498,16.67909,0.2541455,0.8366792,-0.5553493,7.283477,-35.82495,36.34846,1007.675
20.900969505,44.60891,7.258278,22.42146,0.2630573,0.7591206,-0.5831726,6.908057,-35.07738,37.64281,1007.675
20.933746338,62.00272,2.353585,29.50779,0.2873787,0.749894,-0.5384496,6.876431,-33.23736,38.91949,1007.669
20.966521740,49.95129,-5.564834,31.40155,0.2659272,0.8003919,-0.4648266,6.876431,-33.23736,38.91949,1007.669
20.999297619,17.95909,-22.70171,19.79463,0.2525153,0.7036444,-0.5638095,6.123308,-31.76089,40.14069,1007.669
21.032073974,1.497086,-37.59307,0.5515942,0.275925,0.6468449,-0.6355023,4.998322,-29.85751,41.41783,1007.669
21.067371368,-4.839233,-39.18857,-12.8269,0.1893984,0.6729152,-0.7046524,5.733238,-30.22369,41.42262,1007.671
21.100146770,-57.57977,-25.95181,-19.72996,0.2241739,0.7516316,-0.7029281,5.733238,-30.22369,41.42262,1007.671
21.132923126,-123.4278,-8.578562,-29.80965,0.1736271,0.7848135,-0.6330608,6.810495,-29.50932,40.53953,1007.671
21.165699005,-175.3608,-2.255644,-38.973,0.2016935,0.8315269,-0.6028719,8.667593,-31.80181,37.58889,1007.671
21.200995922,-183.0637,-4.737537,-56.26119,0.1920856,0.8219566,-0.4266563,8.667593,-31.80181,37.58889,1007.671
21.233771801,-164.1169,-19.68798,-59.43782,0.1006821,0.8769538,-0.3923458,9.838482,-36.61768,32.12984,1007.669
21.266548157,-106.4688,-27.90187,-40.01151,0.06076123,0.9285343,-0.3509317,12.08059,-40.3488,26.21707,1007.667
21.299324035,-70.00392,-51.18439,-26.38866,0.1867192,0.8609214,-0.279887,12.08059,-40.3488,26.21707,1007.665
21.332099914,-48.63438,-38.89311,-43.00488,-0.06650928,0.9498996,-0.3472925,14.73111,-43.02544,21.96581,1007.665
21.367396831,-28.75573,-58.80734,-32.43647,-0.0606897,0.96398,-0.2905269,17.28081,-43.44184,18.61168,1007.665
21.400173187,-41.86322,-53.07535,-38.30102,0.02984648,0.8504862,-0.4012837,17.28081,-43.44184,18.61168,1007.665
21.432949066,-90.31742,-53.72537,-29.74856,0.2083705,0.9969042,-0.01154346,19.11181,-44.19885,16.88034,1007.667
21.465724945,-73.23421,-30.44285,-45.50953,0.178826,0.9821754,0.07711937,22.00385,-43.5347,12.63832,1007.667
21.498501301,-23.53759,-5.91939,-65.91325,-0.02418647,0.987352,0.01501606,22.00385,-43.5347,12.63832,1007.667
21.533798218,50.5725,-6.333039,-67.92919,-0.1253245,1.040388,-0.01081753,24.19685,-44.30957,9.663337,1007.667
21.566574097,70.07843,-5.092093,-72.02216,-0.05925126,1.021298,-0.03405084,26.42847,-43.58607,9.648979,1007.667
21.599349975,43.61497,14.11303,-68.66225,-0.1399175,1.039355,-0.07191431,26.42847,-43.58607,9.648979,1007.662
21.632126331,30.75597,17.54041,-54.79506,-0.2581998,0.9323248,-0.1927756,28.1979,-40.57939,12.14835,1007.662
21.667423248,14.91517,9.503799,-42.76052,-0.3211871,0.8753399,-0.1872453,30.34459,-38.37508,13.78943,1007.664
21.700199127,12.3061,-1.664717,-24.86144,-0.2567367,0.9369845,-0.1547585,30.34459,-38.37508,13.78943,1007.664
21.732975006,0.3167907,-2.551107,-15.20937,-0.2523798,0.9368135,-0.184613,31.05392,-37.27162,14.64153,1007.664
21.765751362,-12.97706,-4.914815,-9.650271,-0.2868648,0.9378899,-0.1984923,32.12794,-36.16395,15.86611,1007.664
21.798527241,-24.34516,-4.796629,-1.891967,-0.2990102,0.9452681,-0.1734438,32.12794,-36.16395,15.86611,1007.664
21.833824158,-21.73608,-6.864873,5.499804,-0.3582238,0.9360843,-0.1622182,32.46966,-35.08849,14.60527,1007.664
21.866600513,11.80913,3.476346,17.04563,-0.3401972,0.9301122,-0.06212875,32.85257,-36.19456,13.75177,1007.664
21.899376392,96.54188,55.30062,-16.06462,-0.7081106,0.8636743,-0.06885777,32.85257,-36.19456,13.75177,1007.666
21.932152271,170.5277,32.37267,-46.60913,-1.248115,1.029048,-0.3619383,32.48173,-35.82925,13.74651,1007.666
21.967449188,135.0568,21.32234,-65.79108,-0.94689,0.5796884,-0.2079397,32.47672,-35.03075,18.83207,1007.666
22.000225544,95.54794,-7.4558,-62.49227,-1.156356,0.9114395,0.05488065,34.92312,-29.08654,23.0251,1007.67
22.033001423,-109.0158,-12.36049,-93.40331,-0.9098898,0.9860962,-0.01128164,34.92312,-29.08654,23.0251,1007.672
22.065777302,-105.1643,-67.25759,-129.9346,-0.6526189,0.3248033,-0.4450835,37.01733,-21.09214,21.59081,1007.672
22.098553657,138.9082,-104.486,-105.4989,-0.2258471,0.706005,-0.6998665,39.39251,-12.37254,15.4818,1007.672
22.133850574,127.7265,-95.85844,-56.50555,0.1946408,1.276505,-0.9703236,39.39251,-12.37254,15.4818,1007.672
22.166626453,73.12234,-103.245,0.1850601,1.101052,0.9722078,-0.7842837,36.61942,-0.7014437,11.07397,1007.672
22.199401855,-65.90395,13.81756,69.76546,0.8575682,1.061285,-0.7790268,31.69044,6.248386,7.551601,1007.672
22.232178688,-221.268,-22.16988,23.03235,-0.07150529,1.043643,-0.167874,31.69044,6.248386,7.551601,1007.672
22.267475605,-144.611,-77.24426,80.45603,-0.7592099,1.103396,-0.1336004,29.84759,7.328228,6.231426,1007.67
22.300251484,-72.11603,-60.99377,66.71101,-0.8094232,0.5563765,-0.2236342,31.30931,6.949262,5.427212,1007.67
22.333026886,-90.44166,-18.80159,47.16251,-0.6828802,0.7272246,0.2398409,31.30931,6.949262,5.427212,1007.67
22.365803718,-62.67368,-3.437498,49.85043,-0.4773452,1.038713,0.03141704,33.51729,5.457408,3.333913,1007.67
22.398579120,-20.05882,16.12218,33.41748,-0.4882143,0.9225724,0.08216085,35.00115,3.930336,2.982956,1007.67
22.433876514,-15.02704,33.37724,20.5277,-0.5276052,0.9425218,0.05671204,35.00115,3.930336,2.982956,1007.672
22.466652870,2.491018,35.38639,23.70433,-0.5427585,0.9731474,-0.003468395,35.36523,3.929463,2.982486,1007.672
22.499428749,1.86981,34.38182,20.77206,-0.4823943,0.9063463,-0.01698902,35.79196,3.944579,4.162955,1007.674
22.532204151,-1.236229,24.45425,19.48919,-0.3570026,0.865755,0.01839552,35.79196,3.944579,4.162955,1007.678
22.567501545,-8.317998,17.30403,16.86236,-0.4277529,1.002752,-0.01678256,35.79268,3.950522,4.598067,1007.678
22.600277901,-26.82999,6.903722,15.39622,-0.376447,0.862726,-0.04364946,35.8009,3.597973,5.47402,1007.678
22.633053303,-40.68292,-1.72381,4.705647,-0.38247,0.9520476,-0.00863039,35.8009,3.597973,5.47402,1007.676
22.665829182,-53.72828,-8.519469,-3.419192,-0.3794309,0.9060522,0.02705249,36.51553,4.325102,5.46162,1007.676
22.698605537,-54.84646,-10.05588,-10.56661,-0.3903447,1.018021,0.1029648,36.88564,3.953848,5.031769,1007.676
22.733902931,-50.99497,-25.12451,-13.01017,-0.4377939,0.9783408,0.1970027,36.88564,3.953848,5.031769,1007.678
22.766678333,-45.96319,-30.97469,-8.306314,-0.270276,0.7594694,0.1083646,37.23507,4.742589,5.018884,1007.678
22.799454212,-25.46333,-27.01548,-2.747213,-0.4098251,0.842703,0.1287874,37.96104,4.723012,3.71261,1007.676
22.832230568,-13.90887,-26.18818,-3.602459,-0.3360995,0.8698373,0.09006269,37.96104,4.723012,3.71261,1007.676
22.867527962,-10.49222,-33.87023,1.712285,-0.3039667,0.6527364,0.2087287,38.68795,4.711078,2.965764,1007.676
22.900303364,-23.10274,-13.8969,-16.12571,-0.428375,0.9087011,0.2567742,38.67901,5.057683,1.654699,1007.676
22.933079243,-9.311931,-9.051303,-7.939779,-0.4322487,0.8946939,0.2081869,38.67901,5.057683,1.654699,1007.676
22.965855598,-5.149837,-5.742112,-6.168198,-0.36885,0.7656596,0.1365081,39.42712,3.89,0.8016808,1007.676
22.998631477,-2.292282,-10.41043,-17.59184,-0.3988181,0.9175622,0.1647506,39.78382,4.24847,0.422528,1007.674
23.033928394,52.6846,-67.73033,-26.93846,0.04157927,0.4922116,0.03197263,40.13927,4.66683,-0.01973844,1007.674
23.066705227,48.14979,-70.33041,-22.72332,-0.3580932,0.7143748,0.03258575,40.13927,4.66683,-0.01973844,1007.674
23.099480629,14.29396,-69.5622,-39.33953,-0.6743165,0.8518361,0.4995682,39.77095,4.632888,-2.56778,1007.674
23.132256508,-7.075582,-48.93887,-39.21736,-0.6045184,0.8403721,0.1677616,41.59486,4.167684,-5.174115,1007.674
23.167553425,43.49073,-41.84774,-43.00488,-0.4999059,0.9845237,0.3203693,41.59486,4.167684,-5.174115,1007.674
23.200329780,44.23618,-42.67504,-49.05269,-0.4805673,0.5954579,0.2385969,40.84104,5.288666,-7.739831,1007.674
23.233105659,36.78169,-33.87023,-46.97566,-0.5415852,0.6889154,0.02391347,40.46064,5.995487,-9.42911,1007.674
23.265881538,38.64531,-36.11575,-43.67685,-0.5063186,0.7924778,0.1661568,40.46064,5.995487,-9.42911,1007.674
23.298657894,29.01659,-31.56561,-42.94379,-0.4897559,0.7651647,0.1406465,40.82181,5.970838,-11.17003,1007.674
23.333954811,39.14228,-33.87023,-55.46703,-0.6168026,0.8819458,0.06760485,40.08481,6.320039,-12.41799,1007.676
23.366730690,62.49969,-35.46573,-54.91723,-0.7642452,0.7904283,-0.02866121,40.08481,6.320039,-12.41799,1007.676
23.399506569,39.57712,-30.0883,-56.56664,-0.5349709,0.7926857,0.1604481,38.97688,7.033699,-13.73338,1007.676
23.432282925,60.32546,-39.66131,-71.47235,-0.7318164,0.846656,0.03375416,38.96732,7.375209,-15.4174,1007.676
23.467579841,67.9042,-32.15654,-70.1284,-0.621599,0.8626285,0.09700841,38.96732,7.375209,-15.4174,1007.676
23.500355720,81.19804,-29.49737,-78.86412,-0.6645979,0.7727153,0.1059104,38.58078,8.451561,-16.73945,1007.676
23.533131599,77.59504,-19.68798,-74.89334,-0.6542844,0.5210638,0.1149298,37.4797,8.801632,-17.98695,1007.676
23.565907955,83.86924,-16.08333,-86.68352,-0.7634325,0.8894939,0.1387014,37.4797,8.801632,-17.98695,1007.674
23.598683834,90.82677,-11.06045,-88.21075,-0.7997797,0.6463287,0.09342477,36.73657,9.520365,-18.86769,1007.676
23.633980751,90.57829,-20.16073,-99.32894,-0.7490001,0.7046632,-0.05359891,35.99417,10.24504,-19.31332,1007.674
23.666757107,55.54216,-16.73335,-99.08459,-0.8432349,0.5103897,-0.07233707,35.99417,10.24504,-19.31332,1007.674
23.699532986,63.7421,-31.80198,-103.6052,-1.028207,0.7583321,0.2256909,35.54091,11.69192,-20.20592,1007.674
23.732308865,-43.47836,-28.31552,-98.84023,-0.9764794,0.4006135,-0.009759916,34.43308,12.40643,-21.45914,1007.674
23.800382137,-7.386185,-29.261,-90.89866,-0.9937283,0.3015476,-0.01727148,34.03665,14.24137,-20.6171,1007.674
23.833158016,-26.08454,-33.75204,-89.49361,-0.9606636,0.3020426,0.08421667,32.53251,16.86176,-20.28333,1007.674
23.865933895,1.86981,-38.83401,-81.85748,-1.055916,0.3333153,0.07332414,32.53251,16.86176,-20.28333,1007.679
23.898710251,-2.851369,-42.2023,-83.38471,-0.9104984,0.006817086,-0.05745907,31.40647,18.68656,-20.31058,1007.679
23.934007168,-10.86495,-52.72079,-75.38205,-0.9846441,0.1670825,0.03585942,30.27367,20.8758,-20.34355,1007.673
23.966783047,9.697027,-57.92095,-70.37275,-1.043796,-0.04418416,0.1927607,28.80384,21.60816,-20.35313,1007.677
23.999558926,46.03768,-65.72118,-64.44711,-1.064273,0.1745588,0.08609864,28.80384,21.60816,-20.35313,1007.677
24.032335281,63.80423,-64.42114,-66.09652,-1.000948,-0.1768569,-0.2374784,27.675,23.41004,-22.05865,1007.677
24.065110683,116.6069,-41.19772,-57.72733,-0.9511572,0.1893203,0.1118016,26.586,23.01935,-24.16491,1007.677
24.100408077,125.0553,-21.81532,-46.05933,-1.022082,0.2074233,0.1388988,26.586,23.01935,-24.16491,1007.677
24.133183956,292.4708,-22.52443,-31.82558,-1.078736,0.09372605,-0.1043645,25.85421,22.99138,-26.33953,1007.677
24.165960312,286.0724,-7.278522,-19.91323,-1.083574,0.3010642,-0.04882753,25.88241,21.12334,-29.66746,1007.677
24.198735714,271.6603,0.2853412,-18.81362,-1.059177,0.2910011,0.1557085,25.88241,21.12334,-29.66746,1007.677
24.234033108,153.9415,13.04936,-23.63966,-1.057459,0.2218542,0.3656824,27.45584,14.45254,-32.98398,1007.677
24.266809463,89.14951,34.73637,-34.08588,-0.9702237,0.03359251,0.0827185,29.41145,7.159438,-32.87173,1007.677
24.299585342,31.37718,63.10086,-54.12308,-1.063042,0.04731052,-0.004208497,29.41145,7.159438,-32.87173,1007.675
24.332360744,-1.298349,81.83325,-73.79373,-1.12076,0.06248562,0.2163692,31.63929,4.990507,-31.16188,1007.675
24.365136623,80.20412,74.26939,-71.228,-1.205571,0.005239833,0.2806778,33.45186,5.76172,-27.75695,1007.675
24.400434494,178.914,49.39136,-34.69677,-1.103789,0.30016,0.3358298,33.45186,5.76172,-27.75695,1007.672
24.433210373,133.6901,73.14662,-13.80433,-1.096226,0.35761,0.183615,36.41058,6.894606,-24.35925,1007.67
24.465985775,84.55257,45.90489,0.001793041,-1.013091,0.1154466,0.2088136,37.14976,6.563239,-21.80594,1007.672
24.498762131,-187.2258,54.29605,-34.26915,-1.13759,1.258507,1.475774,37.14976,6.563239,-21.80594,1007.666
24.534059524,123.9993,-1.487439,44.53569,-1.182802,-0.7778294,-0.7141334,37.91452,4.762235,-20.09995,1007.666
24.566835403,281.2269,-49.58888,64.20635,-0.9873412,0.2335619,-0.2063593,38.60284,6.953055,-19.70015,1007.666
24.599610805,127.6023,28.53164,28.53036,-0.8727961,0.4575099,-0.2170771,38.60284,6.953055,-19.70015,1007.668
24.632387161,-112.8051,70.25108,34.27273,-0.9138421,0.5738536,-0.1762394,37.58537,2.880184,-20.06987,1007.665
24.665163040,-273.1389,67.11917,61.57952,-1.138018,0.3461301,0.05376373,37.64019,-0.02936935,-19.58892,1007.665
24.700460434,-186.1698,59.37802,109.7177,-0.9802989,-0.07622804,-0.2193873,37.64019,-0.02936935,-19.58892,1007.663
24.733235836,15.03941,28.47255,126.4561,-0.92738,-0.06782997,-0.1959387,38.35378,1.108899,-16.18831,1007.663
24.766012192,108.9039,24.09969,130.1825,-0.7813898,0.01364016,-0.1420139,39.44205,1.493644,-14.51717,1007.661
24.798788071,191.4003,43.06844,125.2954,-0.7210436,0.1339415,-0.2843401,39.44205,1.493644,-14.51717,1007.658
24.834084988,242.5257,74.9194,118.9421,-0.7125903,0.447235,-0.3464466,39.50435,-1.774402,-13.59537,1007.658
24.866861820,176.7398,98.91103,98.35511,-0.754547,0.7483719,-0.275078,39.64038,-8.706799,-9.631701,1007.656
24.899637222,33.86201,121.6026,84.12138,-0.8279595,0.783703,-0.2889166,39.64038,-8.706799,-9.631701,1007.656
24.932413101,-59.81612,110.0205,80.76147,-0.7469865,0.6249672,-0.3105308,39.01612,-13.7316,-4.018407,1007.656
24.965189457,-39.06778,102.5157,72.57555,-0.6307496,0.5364078,-0.3684364,37.62107,-16.58501,0.3182707,1007.654
25.000486851,16.09547,82.77873,57.2422,-0.6031094,0.5421181,-0.420979,36.57366,-18.7342,2.902571,1007.656
25.033262253,32.61959,70.1329,60.0523,-0.5480961,0.6852419,-0.4266202,36.57366,-18.7342,2.902571,1007.656
25.066038131,-1.981678,61.50536,60.84645,-0.4650767,0.6988686,-0.3878473,35.47335,-21.30927,5.431477,1007.656
25.098814487,8.26825,62.15538,60.29665,-0.3724243,0.7184203,-0.4891825,34.41097,-22.74148,7.134094,1007.656
25.134111881,-2.043799,65.2873,63.29002,-0.3715694,0.7438841,-0.610526,34.41097,-22.74148,7.134094,1007.654
25.166887283,-15.77249,51.57779,65.18378,-0.3583521,0.6911135,-0.6509123,32.97858,-23.80158,9.328722,1007.654
25.199663162,-23.72395,53.23238,67.44407,-0.252448,0.6660101,-0.6761564,30.46737,-25.58879,11.47406,1007.654
25.232439518,-47.32985,47.97313,62.00714,-0.1828813,0.6140776,-0.6637278,30.46737,-25.58879,11.47406,1007.654
25.265215397,-38.88142,43.48209,54.73755,-0.1031361,0.5351657,-0.8313118,29.05163,-27.77192,11.51032,1007.657
25.300512314,-13.16342,23.92241,48.93409,0.03687256,0.6601298,-0.8891143,27.62382,-29.21429,12.40534,1007.657
25.333288669,0.8758777,34.5,55.28735,0.2935269,0.7488834,-0.9014095,27.62382,-29.21429,12.40534,1007.651
25.366064548,-14.65432,75.62852,58.40289,0.2739661,0.8011159,-0.9308048,25.83048,-30.66767,12.43061,1007.651
25.398840427,-21.11488,100.152,80.45603,0.476872,1.0059,-1.072152,23.97217,-31.80617,13.25925,1007.649
25.434137344,-117.9612,174.6678,105.4414,0.4326767,0.8129593,-1.029397,23.97217,-31.80617,13.25925,1007.649
25.466913700,-118.2718,219.1055,105.9302,0.2854115,0.4666193,-1.000125,21.43933,-32.51111,14.57933,1007.647
25.499689579,-72.9236,230.1559,97.19442,0.2736724,0.3257877,-0.8569208,16.7807,-36.50857,14.64847,1007.645
25.532465458,-21.11488,235.0606,81.00583,0.1295304,0.1615628,-0.4866456,16.7807,-36.50857,14.64847,1007.644
25.565241814,43.61497,218.8692,48.56756,0.06761235,0.09905323,-0.2962666,10.20647,-38.68528,14.25628,1007.642
25.600538731,-29.5633,204.746,27.00314,0.2764348,0.3426813,-0.04152602,4.404316,-39.74171,15.95927,1007.642
25.633314609,-73.35844,215.1463,37.26609,0.3187624,0.09380423,-0.09227566,4.404316,-39.74171,15.95927,1007.64
25.666090488,-27.7618,197.3003,56.26478,0.4098655,0.003315813,0.09296891,-0.3954039,-39.35984,16.39484,1007.645
25.698866844,-61.49338,222.592,52.47726,0.280306,0.0005708438,0.2742723,-4.021603,-40.49112,12.998,1007.643
25.734163761,-158.7745,197.4185,58.15854,0.1480777,-0.538833,0.327386,-4.021603,-40.49112,12.998,1007.641
25.766939640,-58.76007,111.4387,18.26741,0.2752128,-0.9072888,0.3483384,-8.74742,-41.26045,9.223876,1007.641
25.799715519,93.24947,8.971965,-44.65428,-0.2503155,-0.6563243,0.2996263,-12.10007,-40.95764,4.125431,1007.639
25.832491875,214.882,-127.2958,-122.9704,-0.1067079,-0.5989195,0.3275996,-12.10007,-40.95764,4.125431,1007.632
25.865267754,295.3283,-193.5387,-166.2214,-0.3255091,-0.05935334,0.3696651,-12.45458,-41.29828,5.809918,1007.632
25.900564671,281.1648,-266.5772,-136.5322,-0.8132298,0.991952,0.08427124,-8.387626,-40.45687,14.74408,1007.633
25.933340549,98.7161,-298.5463,-115.0288,-1.194662,1.532168,-0.8456292,-0.07327038,-36.34586,23.62111,1007.636
25.966116905,-359.7974,-160.3286,-158.402,-1.987614,0.2154916,-2.373457,-0.07327038,-36.34586,23.62111,1007.636
25.998892784,649.4789,-343.6931,-1093.736,-1.680183,10.25998,-10.55611,10.08328,-31.29805,21.3521,1007.643
26.034189701,-1091.767,219.1646,394.8812,-4.89999,-2.88485,-1.229714,17.08215,-32.82432,17.57433,1007.649
26.066965580,123.2538,99.38377,-32.13103,1.027134,0.07946605,1.757383,17.08215,-32.82432,17.57433,1007.655
26.099741936,511.8193,-83.3308,77.95138,1.689267,-1.009949,-1.126865,5.467454,-39.14282,6.622581,1007.66
26.132517814,0.4410323,-48.6434,-27.54935,0.4184096,1.85345,-1.33804,5.846052,-38.60519,19.35894,1007.66
26.165293217,-55.34343,-33.63386,-45.20408,-0.1317144,1.174469,-0.5429092,5.846052,-38.60519,19.35894,1007.663
26.200590610,60.88455,-50.17981,-53.32892,0.611464,0.945323,-0.1395013,7.574688,-33.48365,21.01682,1007.669
26.233366012,134.8704,-23.64719,-44.40992,0.3405184,0.9178237,-0.2663781,9.052008,-34.57451,21.46724,1007.674
26.266142368,339.0614,-22.11078,-36.7738,0.1409849,0.8677017,-0.4405636,9.052008,-34.57451,21.46724,1007.674
26.298918247,667.3076,-19.45161,1.345751,-0.3651547,1.167299,-0.3127351,11.20972,-32.69982,25.66257,1007.674
26.334215641,350.9886,-109.2725,11.36435,0.02719723,1.254093,-0.9102037,12.18336,-25.20776,36.17476,1007.678
26.366991043,-86.52805,-30.20648,-147.4671,0.4445456,1.236675,-0.4846809,12.18336,-25.20776,36.17476,1007.679
26.399767399,-215.1181,47.08674,-117.8389,0.5565276,0.6634693,-0.6833663,15.20078,-7.615343,39.31319,1007.683
26.432543278,-641.1423,145.1215,-138.3037,0.5239761,-0.4892322,-1.396855,17.68734,-4.280779,39.25738,1007.683
26.465319157,-40.49656,67.35554,-30.6038,-0.4762958,-0.2869876,-1.36735,17.68734,-4.280779,39.25738,1007.683
26.500616073,17.15152,-8.696747,13.44138,-0.006546556,1.119753,-1.067808,15.68085,-14.22278,35.99713,1007.686
26.533392429,-206.4211,-41.19772,21.38295,-0.01239575,0.8511782,-0.391076,13.98267,-20.84412,35.73062,1007.689
26.566168308,-143.3686,-63.53475,31.58481,-0.199731,0.8293653,-0.2909569,13.98267,-20.84412,35.73062,1007.691
26.598944187,-31.30268,-59.87101,39.70965,0.09133765,0.9300799,-0.375556,14.75171,-23.44957,31.91594,1007.692
26.634241104,-9.684655,-54.37539,29.75214,0.1149016,0.846906,-0.2479257,15.55457,-27.8772,28.12992,1007.695
26.667016983,31.93627,-42.9705,27.91947,0.1101864,0.9652234,-0.3872064,15.55457,-27.8772,28.12992,1007.695
26.699793339,33.30293,-36.29303,14.9686,0.258091,0.8012941,-0.6058483,15.59441,-30.06977,27.72919,1007.694
26.732569218,-15.95885,-10.64681,-3.724637,0.1280192,0.7804444,-0.5761453,15.95245,-29.70026,28.1581,1007.7
26.765345097,-27.07847,3.830902,-10.50552,0.07233694,0.9349862,-0.4876756,15.95245,-29.70026,28.1581,1007.701
26.800642014,-37.82537,0.9353608,-5.251863,0.04780322,0.8439231,-0.4561917,17.03647,-29.35033,27.28074,1007.7
26.833418369,-4.031663,-2.551107,-0.7312751,0.0437612,0.9166921,-0.4225964,16.6778,-29.72493,26.47887,1007.7
26.866194248,-7.386185,-2.019273,2.750799,0.04812866,0.9207285,-0.4076907,16.6778,-29.72493,26.47887,1007.702
26.898970127,-12.66645,-2.551107,5.072181,0.04426068,0.915399,-0.3990089,17.04791,-30.09619,26.04902,1007.701
26.934267044,-0.2422962,0.4626193,1.651196,0.06517606,0.8999717,-0.4014421,17.41875,-30.4615,26.05428,1007.703
26.967043400,2.428897,-0.4828636,-0.242563,0.05302481,0.9062487,-0.3946837,16.69663,-30.83013,25.62584,1007.702
26.999819279,3.981917,-1.901088,-2.136322,0.0515632,0.9061595,-0.4057514,16.69663,-30.83013,25.62584,1007.705
27.032594681,-4.963475,-0.7192343,-1.830878,0.04671903,0.9062998,-0.3797466,16.68987,-30.46569,25.62011,1007.705
27.065370559,-0.9256248,-0.1283075,0.3072381,0.05498027,0.9019251,-0.3884241,16.69776,-30.89087,25.62679,1007.705
27.100668430,-9.436172,-0.6601416,2.200998,0.07258327,0.8438771,-0.4225551,16.69776,-30.89087,25.62679,1007.703
27.133444309,-0.7392625,0.04897051,0.4294162,0.05688411,0.916999,-0.3942277,17.06184,-30.89174,25.62632,1007.707
27.166219711,1.559206,0.2262486,0.5515942,0.05207006,0.9019511,-0.3811968,17.43195,-31.263,25.19647,1007.708
27.198995590,5.224332,0.8171754,1.223573,0.05156999,0.9052557,-0.3956415,17.43195,-31.263,25.19647,1007.708
27.231771946,-39.50263,-0.2464929,-3.419192,0.04945473,0.9727454,-0.4231758,17.06787,-31.26213,25.19694,1007.708
27.267069340,0.06830764,0.7580827,0.9792173,0.05398666,0.9126784,-0.3816989,16.69591,-30.83607,25.19073,1007.708
27.299844742,-2.91349,0.1671559,0.001793041,0.01234113,1.107557,-0.1826101,16.69591,-30.83607,25.19073,1007.71
27.332620621,1.124361,-0.8374197,0.9181283,0.06126162,0.9151308,-0.3879775,17.43195,-31.263,25.19647,1007.712
27.365396976,-3.161973,-0.1874002,0.1850601,0.05058077,0.9165831,-0.3764017,16.70983,-31.63163,24.76803,1007.712
27.400694370,-0.3665378,-0.01012217,0.3683271,0.05157316,0.9078315,-0.3754282,16.70983,-31.63163,24.76803,1007.709
27.433469772,-6.827098,0.4035266,-1.342165,0.001734938,1.062693,-0.2479825,16.70983,-31.63163,24.76803,1007.713
27.466245651,-2.10592,-0.1283075,-0.05929597,0.05932219,0.9171799,-0.3711284,17.07401,-31.63166,24.82972,1007.715
27.499022007,-1.919557,-0.3055856,-0.303652,0.05594017,0.9108503,-0.3667786,17.07401,-31.63166,24.82972,1007.715
27.531797886,-2.043799,0.1671559,0.06288206,0.05834054,0.9220589,-0.3687266,17.43726,-31.63932,24.33198,1007.715
27.567094803,-21.11488,0.4626193,-1.464343,0.05881575,0.9249315,-0.3764338,16.70307,-31.2672,24.7623,1007.713
27.599870682,-53.4798,1.230824,-3.358103,0.04223456,0.9605443,-0.3480478,16.70307,-31.2672,24.7623,1007.713
27.632647037,-65.40699,-2.078366,-9.955717,0.0360716,0.9027196,-0.3214712,17.44267,-32.0148,23.52964,1007.715
27.665422916,-81.18566,-3.378405,-16.7366,-0.09929529,1.073976,-0.2549803,17.46004,-33.13189,21.80639,1007.713
27.700719833,-131.9383,-14.48783,-53.93981,-0.4244416,0.9918056,-0.2641939,17.46004,-33.13189,21.80639,1007.715
27.733495712,-47.39196,-45.3933,-67.07394,-0.2388472,0.9227977,-0.3954604,17.83942,-34.26683,18.83948,1007.715
27.766272068,16.71668,-64.30296,-94.68618,-0.4651484,0.9558554,-0.2722262,18.58964,-35.76708,15.87784,1007.713
27.799047947,19.69847,-82.32623,-108.4312,-0.4042118,1.0576,-0.2821514,18.58964,-35.76708,15.87784,1007.718
27.831823826,21.74846,-96.86302,-148.2002,-0.6000162,1.075798,-0.4415265,22.20129,-34.33504,14.60704,1007.718
27.867120743,42.12407,-96.15391,-184.1205,-0.6899084,0.9164936,-0.3395059,25.49519,-32.18019,12.82791,1007.718
27.899897099,-23.16486,-107.7361,-205.1962,-0.7108004,0.7443985,-0.1986393,25.49519,-32.18019,12.82791,1007.718
27.932672977,54.54823,-126.1139,-237.6956,-1.05402,0.4543146,-0.4587674,31.23464,-27.78904,10.63728,1007.716
27.965448856,181.8337,-125.7002,-238.673,-0.7848196,0.7975278,-0.3838681,35.12633,-22.00841,7.556807,1007.718
28.000745773,77.03596,-111.9317,-214.3596,-0.1974852,0.7290676,-0.1488093,39.02889,-13.62716,3.627127,1007.718
28.033521652,1.683448,-46.63425,-193.7726,-0.02602006,0.5187896,-0.05695901,39.02889,-13.62716,3.627127,1007.714
28.066298008,-81.12354,-11.41501,-100.6729,0.05959998,1.700889,0.05754581,41.42944,-5.959257,0.5810885,1007.714
28.099073887,-175.6092,55.77337,-6.473643,-0.05917201,1.176584,-0.1156352,41.66963,0.5819039,-0.8278563,1007.717
28.131849289,16.59243,103.0475,7.149208,-0.4377219,0.3379992,0.2138525,41.66963,0.5819039,-0.8278563,1007.715
28.167146683,7.025835,62.27357,42.88628,-1.368785,0.7185792,-0.3891031,41.28204,2.069395,1.263093,1007.713
28.199923038,-9.871017,66.70552,13.38029,-1.128059,0.5970575,-0.2239024,40.57374,1.394063,5.06718,1007.711
28.232698440,-10.92707,42.89116,13.50247,-1.051776,0.5595597,-0.3150042,40.57374,1.394063,5.06718,1007.71
28.265474319,-2.851369,34.08635,-9.405915,-0.8802527,0.5305099,-0.2162067,40.58934,0.6821713,6.321816,1007.71
28.300771713,-5.274079,32.49085,-9.283738,-0.8450261,0.6233406,-0.2164302,39.51354,-0.02030897,8.075133,1007.712
28.333548069,6.59099,38.87286,-18.75253,-0.8846809,0.5548213,-0.2167143,39.51354,-0.02030897,8.075133,1007.712
28.366323471,28.27114,42.89116,-42.69943,-0.9604541,0.5452135,-0.3166433,39.87293,0.3602381,9.312109,1007.712
28.399099350,38.64531,37.39554,-49.96902,-0.9101649,0.4287142,-0.3209192,38.7626,1.473999,10.60166,1007.71
28.431875229,24.23329,20.0223,-39.21736,-0.8278481,0.316715,-0.3469392,38.7626,1.473999,10.60166,1007.71
28.467173099,11.9955,5.071848,-31.45905,-0.9099621,0.3379331,-0.3487019,38.36013,3.679325,11.87309,1007.709
28.499948501,7.709164,-6.333039,-27.48826,-0.914339,0.346377,-0.3198225,38.70342,4.837597,12.22743,1007.713
28.532724380,10.8152,-10.64681,-20.70738,-0.8614149,0.341724,-0.3521923,38.70342,4.837597,12.22743,1007.711
28.565500259,17.27576,-20.16073,-25.22797,-0.8897427,0.4050785,-0.3825464,37.5909,5.933527,12.21165,1007.709
28.600798130,8.516732,-29.20191,-21.62372,-0.9104202,0.330781,-0.326066,38.28994,7.372547,10.94461,1007.709
28.633573532,-1.608953,-37.59307,-18.20273,-0.8660503,0.2744138,-0.2206681,38.28994,7.372547,10.94461,1007.708
28.666349411,1.994052,-37.71125,-19.18016,-0.9804573,0.378907,-0.3250097,39.00915,7.717407,9.632606,1007.708
28.699125290,5.286453,-28.37461,-18.69145,-0.9827691,0.1700843,-0.09507995,38.98003,9.158171,8.366509,1007.706
28.731901646,5.03797,-34.63844,-20.6463,-1.008825,0.4421493,-0.4415273,38.98003,9.158171,8.366509,1007.706
28.767198563,6.528869,-24.71086,-11.7273,-0.9206402,0.1843735,-0.07599437,37.88031,9.519283,7.927077,1007.712
28.799974441,10.00763,-31.44743,-14.96502,-0.8149788,0.4236774,-0.319212,38.95008,10.59214,6.603143,1007.712
28.832750320,1.86981,-26.36546,-11.23859,-1.029719,0.1189988,-0.03087048,38.95008,10.59214,6.603143,1007.712
28.865526676,-2.292282,-31.80198,-3.052658,-0.9154403,0.2170587,-0.2146882,38.21381,10.94729,5.790288,1007.712
28.900823593,-9.622534,-32.57019,5.74416,-0.8530473,0.1491076,-0.04577575,38.92626,11.65659,4.472553,1007.712
28.933599472,8.765216,4.185458,22.60473,-1.021709,0.2001081,-0.143169,39.65973,11.27851,3.60712,1007.712
28.966375351,-9.374051,-11.82866,27.30858,-0.9860035,0.2943504,-0.1510975,39.65973,11.27851,3.60712,1007.712
28.999151707,-4.466509,6.785536,49.54499,-1.031386,0.3727931,-0.2324582,38.58102,10.55226,3.61999,1007.712
29.031927585,-9.001327,1.171731,55.34844,-0.8462977,0.3458934,-0.1909782,39.32946,9.457203,3.63624,1007.71
29.067224502,-23.22698,-11.5332,45.81855,-0.9360335,0.3466237,0.0219954,39.32946,9.457203,3.63624,1007.71
29.100000381,-0.8635041,5.780961,43.00846,-0.9542232,0.4136899,-0.1171761,39.72058,7.998582,3.65869,1007.714
29.132776737,10.8152,4.540014,43.98589,-0.8796347,0.4755066,-0.2122744,41.58226,5.813541,4.125833,1007.714
29.165552616,-9.622534,-6.628502,43.00846,-0.9095169,0.3711505,-0.2649961,41.58226,5.813541,4.125833,1007.714
29.200849533,-40.86929,-23.82447,53.94339,-0.9147099,0.5219193,-0.2194816,40.13874,5.082214,3.70406,1007.716
29.233625412,-62.98428,-34.04751,62.8013,-0.9465702,0.47306,-0.0633712,40.17243,3.189101,2.987759,1007.716
29.266401768,-60.25097,-36.11575,54.73755,-0.9744199,0.5565124,-0.005667513,40.17243,3.189101,2.987759,1007.716
29.299177646,-47.45409,-29.261,64.75616,-0.9346127,0.5551826,-0.03464163,40.56137,1.712647,1.704875,1007.718
29.331953049,-46.46016,-33.39749,60.47992,-0.9573444,0.70691,-0.1103902,40.61339,-1.219831,0.5075383,1007.718
29.367250442,-79.07355,-56.7391,69.03239,-0.9765547,0.6449125,0.03223189,40.61339,-1.219831,0.5075383,1007.716
29.400026798,-65.34486,-66.48938,56.6924,-0.9922962,0.7426301,0.0956617,39.93569,-4.163301,-1.62124,1007.716
29.432802200,13.05155,-61.82106,49.97261,-0.8498425,0.7002026,0.2667525,39.95921,-5.64992,-3.71172,1007.718
29.465578079,65.85422,-52.07078,53.21033,-0.8719247,0.7832767,0.1930314,39.95921,-5.64992,-3.71172,1007.722
29.500875473,79.76927,-29.02463,59.56358,-0.8266849,1.006679,0.4674449,39.26921,-7.924406,-5.788845,1007.722
29.533650875,-87.33562,-20.63347,37.51045,-0.7968991,1.376729,0.62711,38.92928,-9.405056,-7.505901,1007.722
29.566427231,-450.0588,7.021907,-7.084533,-0.8950114,1.555789,0.4403045,38.92928,-9.405056,-7.505901,1007.722
29.599203110,-512.1796,-31.27015,-2.136322,-0.6750283,-0.07252387,-0.5440733,38.60297,-11.61373,-9.14934,1007.724
29.631978989,-125.2293,-4.028425,-28.52678,-0.8145416,-0.1968262,-0.4617236,38.56127,-9.856081,-13.90206,1007.722
29.667275906,79.76927,-16.96972,-16.55333,-0.7626801,0.7936593,0.2240451,38.56127,-9.856081,-13.90206,1007.722
29.700052261,-66.52516,20.19958,-16.55333,-0.672862,0.6022871,0.2611854,38.11213,-5.444151,-15.64959,1007.72
29.732828140,-43.22987,53.70512,-16.43115,-0.6712052,-0.5724615,-0.0918116,38.46944,-5.080586,-15.65579,1007.72
29.765604019,541.4509,87.97889,19.18374,-0.8272634,-0.4818254,-1.088478,38.46944,-5.080586,-15.65579,1007.72
29.800900936,781.4235,121.3072,59.99121,-1.021937,0.570746,-1.89444,38.45061,-3.975388,-14.80276,1007.723
29.833677292,594.0051,217.3328,12.03633,-1.383276,1.545941,-1.22981,39.24708,-6.776299,-6.242102,1007.719
29.866453171,-47.26772,302.0126,-75.80967,-0.9847492,1.681692,-0.8174707,39.24708,-6.776299,-6.242102,1007.719
29.899229050,-421.7939,355.1369,-90.40995,-0.9718075,0.2179179,-1.35442,39.00673,-12.1295,6.525671,1007.717
29.932004929,-295.1917,358.8007,-52.59585,-1.010804,-0.515628,-1.24636,37.90854,-10.91639,15.08781,1007.716
29.967302322,139.8401,293.7987,-90.16559,-1.192047,-0.5483738,-0.6244427,33.90768,-13.73553,21.47909,1007.712
30.000078201,374.4702,189.6183,-163.9,-1.314441,0.1183663,-0.4099886,33.90768,-13.73553,21.47909,1007.709
30.032854080,325.2706,61.62355,-225.0501,-1.124814,1.078064,-0.1851634,29.54018,-12.87391,30.42414,1007.709
30.065629959,91.63434,15.29488,-239.345,-0.7850848,1.334849,-0.2970694,26.02612,0.3730016,34.51009,1007.707
30.098406315,-86.15533,72.08295,-269.8284,-1.305262,1.10666,-0.6887643,26.02612,0.3730016,34.51009,1007.704
30.133703232,-16.33158,55.71428,-307.337,-1.430838,0.5009065,-0.2394057,25.06019,13.19078,34.30953,1007.702
30.166479111,49.45433,39.52288,-223.1564,-1.071379,1.333436,0.1243219,18.73677,17.29229,35.49678,1007.704
30.232031345,-400.735,-31.32924,-89.61579,-0.4120676,0.05306736,-0.3792979,12.45498,22.42707,36.72989,1007.704
30.267328262,-215.8014,-78.54429,-111.3635,-0.7120876,-0.6480492,-0.6870452,10.32485,16.58743,40.24416,1007.701
30.300104141,172.6398,-137.5779,-89.92123,-0.7876863,-0.6938156,-0.5938941,10.32485,16.58743,40.24416,1007.701
30.332879543,463.3029,-159.9149,-34.20806,-0.7075698,0.2493022,-1.010921,11.97724,6.015263,40.40845,1007.701
30.365656376,45.23011,-81.7353,-9.283738,-0.8526106,0.9599804,-1.244627,15.56803,11.39737,34.78558,1007.701
30.398431778,34.48322,-15.19694,15.02969,-1.038183,0.4353547,-0.9632435,15.56803,11.39737,34.78558,1007.701
30.433729172,124.2477,-28.31552,42.33648,-1.200666,0.1641352,0.151903,18.27847,21.97905,31.63108,1007.701
30.466504574,-4.155905,-112.6408,3.91149,-1.247556,-0.1274435,0.1611182,19.73125,21.94669,29.5158,1007.701
30.499281406,63.4315,-75.94421,27.06423,-1.1601,0.1912702,-1.248034,19.73125,21.94669,29.5158,1007.702
30.532056808,-74.04178,-87.11273,32.68442,-1.081065,-0.135065,-0.01448083,21.50671,24.09328,26.8684,1007.702
30.567354202,51.62855,-108.0906,35.61669,-0.8427618,-0.01562595,-0.7050175,22.96625,23.69649,24.75885,1007.702
30.600129604,44.73315,-112.6999,44.65786,-0.7858765,0.3956374,-0.5344075,22.96625,23.69649,24.75885,1007.702
30.632905483,-93.73406,-131.9641,21.01641,-0.7965615,0.002551729,-0.4577345,26.69122,22.20099,22.66359,1007.702
30.665681839,-3.78318,-145.8509,21.32186,-0.9938003,-0.07384738,-0.0008205879,29.59885,22.15326,19.67621,1007.702
30.698457718,11.56065,-148.0964,48.26212,-1.198205,0.02978017,-0.4717451,29.59885,22.15326,19.67621,1007.702
30.733754635,-17.69823,-147.6236,65.79467,-0.810505,0.04905586,0.08327908,31.79789,21.00801,16.27185,1007.702
30.766530514,3.547071,-131.1959,61.45734,-1.017048,-0.008955205,0.4641322,34.71479,20.19658,10.74741,1007.702
30.799306869,11.18793,-84.86721,43.25282,-0.8251307,0.2808668,0.09788662,34.71479,20.19658,10.74741,1007.704
30.832082748,-23.41335,-31.38834,34.15055,-1.092357,0.5776269,0.230929,38.0991,17.21449,6.499988,1007.704
30.867379665,-75.47055,-24.65177,29.4467,-1.100116,-0.03294025,0.2665257,38.4953,15.30777,4.850835,1007.702
30.900155544,17.89697,-11.23773,29.50779,-0.9825075,0.1080114,0.1533957,38.8729,14.57802,4.861825,1007.702
30.932931900,39.01804,-12.18322,40.32055,-1.073141,0.4376717,0.1126794,38.8729,14.57802,4.861825,1007.704
30.965707779,-22.79214,-1.251068,30.5463,-1.102786,0.2269128,0.02690359,39.62738,13.11259,4.448693,1007.702
30.998483658,28.02266,-9.464952,22.72691,-1.046898,0.2018591,-0.001110188,39.64693,12.01333,4.030772,1007.702
31.033780575,13.73488,-1.428346,18.20632,-0.8960082,0.7078294,0.2283416,39.64693,12.01333,4.030772,1007.704
31.066556930,-64.97215,-0.06921485,10.20366,-0.9823084,0.01565539,0.1092491,40.02318,11.27255,3.233697,1007.706
31.099332809,58.89668,1.703566,21.0775,-0.9013086,0.2710092,0.1726932,40.39464,10.91233,3.61191,1007.706
31.132108688,-32.2345,8.912872,24.31522,-0.8835572,0.3769126,0.2523975,40.39464,10.91233,3.61191,1007.708
31.167405605,-7.199823,1.939936,32.98986,-0.9114717,0.0239538,0.02675572,40.03733,10.54877,3.61811,1007.711
31.200181484,41.68923,3.062697,39.95401,-0.9960464,0.4865951,0.1215687,40.43521,8.72571,3.64629,1007.707
31.232957840,-15.64825,-0.3055856,41.6645,-1.08632,0.4622534,0.09149367,40.43521,8.72571,3.64629,1007.709
31.265733719,9.07582,-10.46953,35.92213,-1.304847,0.4585741,0.03521684,40.08538,8.003654,4.093332,1007.709
31.298509121,17.71061,-33.69295,33.17313,-1.304766,0.6386458,0.08596959,41.20393,6.537344,3.67973,1007.71
31.333806515,8.827336,-32.98384,18.69503,-1.283381,0.8164237,-0.00869597,41.20393,6.537344,3.67973,1007.712
31.366582870,-48.94498,-21.34258,-14.65957,-1.715037,0.7963685,-0.06251717,41.22828,5.057518,2.086521,1007.714
31.399358749,-135.8519,-17.38337,15.15187,-1.428521,0.4431566,0.2781397,41.24969,3.903468,2.104666,1007.71
31.432134151,-221.5165,-9.819508,-0.6090971,-1.116915,0.1497985,0.5811006,41.24969,3.903468,2.104666,1007.71
31.467431545,-305.3174,6.962814,-49.72467,-1.060889,-0.3443535,0.5417596,41.61159,3.884763,0.7988615,1007.71
31.500207901,-106.5931,46.55491,-46.36477,-1.081113,-0.5227127,-0.009082849,41.63187,2.791453,0.8160515,1007.71
31.532983303,140.2128,45.25487,-36.95706,-1.342744,-0.1633591,-0.05665873,41.63187,2.791453,0.8160515,1007.71
31.565759182,185.6231,35.20911,-49.78576,-1.369828,0.2457106,0.179619,41.98388,3.531341,1.674345,1007.71
31.598535061,117.4766,13.58119,-68.90662,-1.378913,0.4372555,0.420514,41.95716,5.061717,2.520693,1007.71
31.633832931,18.33182,-9.051303,-71.89998,-1.075948,0.4585215,0.4529774,41.95716,5.061717,2.520693,1007.71
31.666608334,-43.47836,-32.74747,-77.03146,-0.8335802,0.4217198,0.4023964,40.82509,7.2569,2.922835,1007.71
31.699384212,-60.31309,-29.67465,-80.88006,-0.8022115,0.4886671,0.3266473,40.78307,9.431635,2.018231,1007.708
31.732160091,-100.9401,-22.52443,-83.69016,-0.8127857,0.2033686,0.1446662,40.78307,9.431635,2.018231,1007.706
31.767457008,42.31044,-14.84239,-51.31298,-0.6944026,0.2695453,0.273772,39.63529,12.33786,1.103578,1007.705
31.800233364,88.96314,-7.751264,-30.90925,-0.6522923,0.5284292,0.2612479,39.58723,14.88297,0.628356,1007.705
31.833009243,14.72881,-2.551107,-11.42185,-0.5444695,0.5373271,0.3606206,39.58723,14.88297,0.628356,1007.703
31.865785122,-28.56937,14.23121,6.477229,-0.5773821,0.2886874,0.364443,38.09464,16.75835,-0.2074339,1007.701
31.898561001,1.248602,17.12676,28.16383,-0.5537668,0.1451905,0.2919176,38.81604,17.12104,-0.2141037,1007.698
31.933858395,49.0816,17.5995,42.88628,-0.6061496,0.1194008,0.2882299,38.81604,17.12104,-0.2141037,1007.694
31.966634274,54.05126,13.81756,44.29133,-0.6641801,0.02261728,0.3077678,38.81604,17.12104,-0.2141037,1007.694
31.999410152,96.66612,9.74017,54.12666,-0.7327199,0.04259646,0.251581,39.21505,15.23725,-0.1849687,1007.691
32.032186031,114.7433,7.731019,57.48656,-0.7894908,0.02709829,0.2623289,39.60472,13.76674,-1.032742,1007.689
32.067482948,145.9279,15.88581,52.90488,-0.9098439,-0.02336242,0.154384,39.60472,13.76674,-1.032742,1007.687
32.100259304,148.5991,15.64944,49.97261,-0.9377927,0.1039994,0.2230931,41.46567,11.57575,-1.000711,1007.684
32.133035183,113.1902,21.91326,39.58747,-0.9071488,0.09246062,0.277913,41.4973,9.735737,-2.277396,1007.682
32.165811062,113.1281,24.15878,23.09344,-0.8979435,0.09625635,0.2523733,41.4973,9.735737,-2.277396,1007.682
32.198587417,89.52223,23.62695,8.24881,-0.9288146,0.214362,0.254194,41.90267,7.554185,-1.808375,1007.68
32.233884334,23.79844,19.07681,-1.586522,-0.9225495,0.2318605,0.2416373,42.28027,6.824439,-1.797385,1007.683
32.266660213,-2.665006,12.81299,-7.939779,-0.882474,0.1023807,0.1339124,42.28027,6.824439,-1.797385,1007.681
32.299435615,24.54389,5.662776,-10.32225,-0.8845419,0.1433332,0.07224128,41.56105,6.479579,-0.4853799,1007.679
32.332211494,22.61815,-0.778327,-6.412554,-0.8172675,0.2288582,0.03344388,41.56105,6.479579,-0.4853799,1007.679
32.367509365,29.07871,2.826327,-7.328889,-0.745675,0.1277337,-0.02674373,41.56105,6.479579,-0.4853799,1007.677
32.400285244,79.70715,4.599107,-10.99423,-0.7638764,0.03046904,0.01580587,41.54004,7.566947,-0.937681,1007.676
32.433060646,148.4749,1.644473,-8.55067,-0.8272006,0.117731,0.03363493,41.53328,7.931384,-0.9434111,1007.672
32.465836525,148.8476,-2.964756,-1.525432,-1.020879,0.2863067,-0.005150071,41.53328,7.931384,-0.9434111,1007.67
32.498612881,99.15095,-21.34258,3.972579,-1.156153,0.1928237,-0.04849225,42.25999,7.91775,-1.814574,1007.67
32.533910274,102.6918,-41.84774,10.26475,-1.031447,0.009185561,-0.1317868,41.15891,8.267822,-3.062072,1007.669
32.566685676,164.4399,-50.00253,-3.113747,-0.9164661,0.05255051,-0.1273113,41.15891,8.267822,-3.062072,1007.667
32.599461555,187.5488,-51.30257,-12.46037,-0.8969662,0.2322169,-0.08815668,40.8041,7.505007,-5.598653,1007.665
32.632237434,163.1975,-54.49358,-20.21867,-0.916056,0.305441,-0.0410483,40.80588,7.099812,-8.576547,1007.664
32.667535305,93.37372,-56.26636,-25.83886,-0.9500986,0.3300929,-0.02704522,40.80588,7.099812,-8.576547,1007.662
32.700310707,20.19544,-57.62549,-29.44311,-0.9872935,0.2489613,-0.02298383,40.08627,6.331927,-11.54777,1007.662
32.733086586,10.75308,-62.58927,-28.46569,-1.069072,0.1011475,-0.1693824,38.62498,6.294659,-14.52951,1007.66
32.765862942,43.61497,-71.80772,-20.52412,-0.9560265,0.144103,-0.1514235,38.62498,6.294659,-14.52951,1007.662
32.798638821,76.35262,-61.34832,-16.43115,-0.9663379,0.1927406,-0.1485842,37.50747,7.349829,-17.52892,1007.66
32.833935738,96.72824,-56.56182,-9.100471,-0.9940733,0.232518,-0.06819098,35.61394,7.672073,-20.95095,1007.66
32.866711616,87.09952,-44.09327,-1.647611,-1.00488,0.2850445,-0.0658377,35.61394,7.672073,-20.95095,1007.66
32.899487495,53.43005,-34.81571,-3.907904,-0.997731,0.362305,0.03992849,33.43874,6.91362,-23.48518,1007.656
32.932263374,4.292521,-17.9743,-12.33819,-0.985611,0.367156,0.02256341,30.92048,5.068674,-25.56664,1007.659
32.967560768,-24.40728,-4.737537,-15.637,-0.9462951,0.3717937,0.01187321,29.84747,3.899409,-26.85243,1007.659
33.000336647,-35.77538,14.58577,-20.82956,-0.896647,0.3286257,0.04792264,29.84747,3.899409,-26.85243,1007.661
33.033112526,0.25467,28.41346,-19.24125,-0.8901796,0.2619021,0.04030608,28.01098,4.681498,-27.73272,1007.661
33.065887928,55.0452,54.11877,27.61403,-0.8937282,0.8989749,-0.1623363,26.5398,5.402825,-28.55036,1007.659
33.098664760,-179.4607,127.7483,73.06426,-0.7348184,1.391229,-0.5143678,26.5398,5.402825,-28.55036,1007.66
33.133961677,-149.3322,119.298,123.8292,-1.045897,0.7574106,-0.2358917,24.73501,4.695297,-27.29338,1007.662
33.166737556,-62.54943,136.6122,157.4282,-0.9612895,0.1195214,-0.1080514,26.15501,6.913242,-24.78112,1007.66
33.199512958,13.05155,129.5801,146.0045,-0.9869701,0.0979344,-0.09977486,26.15501,6.913242,-24.78112,1007.66
33.232288837,107.4751,141.6941,135.9859,-1.012713,0.4759028,-0.2754991,28.69647,7.688653,-20.94202,1007.66
33.265065193,42.62104,147.7807,125.7841,-0.9937528,0.6744186,-0.2565888,32.01944,5.540879,-17.49314,1007.655
33.300362587,10.13187,156.7628,112.2834,-1.000481,0.5804705,-0.5914591,32.01944,5.540879,-17.49314,1007.655
33.333137989,-18.07096,139.0941,115.46,-0.981733,0.6797177,-0.4896044,34.99434,2.615404,-13.2233,1007.655
33.365913868,-23.72395,135.6076,112.5889,-0.7807618,0.4967007,-0.5052088,36.21661,-0.5976648,-8.0762,1007.655
33.398690224,4.044038,129.6983,102.2648,-0.7159097,0.5565267,-0.6647835,36.21661,-0.5976648,-8.0762,1007.655
33.433987617,30.81809,121.5435,77.21832,-0.4853231,0.5959338,-0.5979992,37.36407,-3.086808,-3.313429,1007.653
33.466763019,47.09373,130.0529,51.80528,-0.3257922,0.6721029,-0.692358,37.04761,-5.214817,0.94822,1007.656
33.499538898,37.83774,134.9576,34.63927,-0.2093072,0.669239,-0.8240417,37.04761,-5.214817,0.94822,1007.658
33.532314777,54.11338,146.1261,23.82651,0.01784948,0.7379383,-0.673055,35.59362,-8.123732,5.658884,1007.658
33.565091133,34.04837,179.9271,2.934066,0.09572235,0.673243,-0.6148975,34.5227,-8.786304,10.33366,1007.658
33.600388050,51.13159,175.7906,-7.023444,0.01482876,0.5675359,-0.7305544,34.5227,-8.786304,10.33366,1007.657
33.633163929,46.59677,160.8992,-18.32491,0.08701549,0.6696522,-0.5604776,32.71832,-9.070806,15.87388,1007.657
33.665939808,14.54245,137.3804,-29.38202,-0.01145471,0.4335066,-0.5021247,30.17153,-8.630632,20.96846,1007.657
33.698715687,47.09373,97.25644,-48.38071,-0.05832702,0.3417134,-0.4787697,30.17153,-8.630632,20.96846,1007.659
33.734013081,73.06023,61.80083,-66.46305,-0.2213009,0.2582572,-0.5177291,27.61517,-7.848948,24.37902,1007.657
33.766788959,85.17377,14.23121,-59.19346,-0.2977624,0.1363825,-0.5823479,26.49903,-6.293028,26.90507,1007.657
33.799564838,131.3295,-22.99718,-48.56398,-0.1460244,0.3509998,-1.069207,26.49903,-6.293028,26.90507,1007.657
33.832340240,358.381,-82.5035,-19.05798,0.04880018,0.913464,-2.154062,27.87358,-1.92837,26.46148,1007.657
33.865116119,137.8522,59.43711,31.52373,0.3555755,1.718038,-1.404596,31.74956,4.563307,22.06421,1007.657
33.900413990,-302.4599,107.1249,63.59546,0.3502637,0.7006974,-1.315443,36.0318,12.23179,19.3887,1007.657
33.933189869,-222.3241,114.9251,73.12535,0.03220481,0.1422679,-1.043321,36.0318,12.23179,19.3887,1007.657
33.965965271,38.45895,57.60524,68.66585,-0.08910171,-0.0508512,-0.793397,32.42217,7.95488,25.86459,1007.659
33.998741150,172.4535,17.65859,41.35906,-0.01347284,0.249966,-0.5591253,27.82978,0.6515598,28.53477,1007.659
34.034038543,41.37862,-16.67426,16.19038,0.1515883,0.5165331,-0.3149054,27.82978,0.6515598,28.53477,1007.659
34.066814899,-119.8869,-52.54352,-10.20007,0.1137106,0.278763,-0.4930424,25.63252,1.391613,28.96124,1007.659
34.099590301,-61.49338,-92.78563,-40.25587,0.2016508,0.1984786,-0.797832,25.60329,2.83153,27.63298,1007.659
34.132366180,-26.76787,-72.7532,-62.00356,0.2344914,0.4227497,-1.084177,25.60329,2.83153,27.63298,1007.659
34.165142059,8.206129,-46.10242,-67.44048,0.2262293,0.3680027,-1.383,29.24584,2.417608,24.65039,1007.66
34.200438976,23.92269,20.43595,-64.14167,0.3246771,0.6229935,-1.392764,32.10502,4.981667,21.62194,1007.662
34.233215332,-52.05103,59.79167,-19.4856,0.1014351,0.8321106,-1.098919,32.10502,4.981667,21.62194,1007.662
34.265991211,-23.22698,65.16911,18.08414,0.1514759,0.6203109,-1.079945,33.52077,7.164798,21.58568,1007.662
34.298767090,25.35146,112.0887,45.81855,0.2252662,0.3580164,-1.41716,31.35877,6.094555,22.91103,1007.656
34.334064007,111.4509,153.099,50.5835,0.2480316,-0.07807041,-1.681305,31.35877,6.094555,22.91103,1007.656
34.366839886,297.5026,132.7711,10.38693,0.5172659,0.0555516,-1.559879,28.5078,3.177947,26.81543,1007.658
34.399616241,190.1579,213.7281,-88.27184,1.143363,0.2866654,-1.014886,21.20571,1.425156,30.64524,1007.656
34.432392120,-0.6771417,290.6668,-92.30371,0.6791388,0.1036614,-0.9292706,21.20571,1.425156,30.64524,1007.658
34.465167999,-37.14204,254.2066,-37.38469,1.002435,-0.0309422,-0.7835006,13.12091,5.936928,34.87482,1007.658
34.500464916,-8.380118,309.3992,-75.07661,0.6457802,-0.0867694,-0.5385201,-0.4396109,4.479887,37.02964,1007.656
34.533240795,164.0672,249.1246,-67.19612,0.2755258,0.2274529,-0.5020134,-0.4396109,4.479887,37.02964,1007.656
34.598792553,38.27259,185.3045,-27.305,0.7343248,0.4717411,-0.4529268,-24.21183,2.97386,29.37556,1007.656
34.634089947,3.360709,146.4215,-15.39264,0.6353903,0.4531159,-0.2808179,-24.21183,2.97386,29.37556,1007.656
34.666865826,-68.88575,100.9793,-29.62638,0.4227185,0.4413464,-0.3168792,-30.44346,4.741251,24.25788,1007.656
34.699642181,-70.56301,37.69101,-50.76318,0.2080914,0.4424913,-0.3144464,-35.59549,3.961055,19.61409,1007.656
34.732417583,-96.8401,-11.17864,-82.83491,0.01239725,0.4851533,-0.1075424,-35.59549,3.961055,19.61409,1007.654
34.765193462,-86.09321,-21.87441,-105.9876,-0.02649157,0.6679967,-0.3118232,-37.74833,2.126275,18.34022,1007.653
34.800490856,-54.22525,-36.70668,-91.81499,0.05874867,0.9850067,-0.2118985,-38.03875,-1.887603,17.96861,1007.653
34.833266258,-194.1212,-34.75662,-55.95575,0.2738164,1.262997,0.074064,-38.03875,-1.887603,17.96861,1007.651
34.866042614,-406.2016,-20.27891,-36.65162,0.3866259,1.00123,0.1160694,-37.22198,-6.621086,18.47727,1007.647
34.898818493,-385.5775,-37.00214,-23.57857,0.4546239,0.3712242,0.06679607,-36.05632,-10.71023,17.29667,1007.645
34.934115410,-134.2989,-65.89845,-27.42718,0.6106406,0.09755977,0.02688546,-34.43363,-16.98487,11.85999,1007.645
34.966891289,-18.00884,-60.22557,-34.26915,0.8589965,0.4431661,0.1908826,-34.43363,-16.98487,11.85999,1007.645
34.999667168,-68.32666,-61.40742,-43.24923,0.6776705,0.3368684,0.2511618,-32.89651,-21.43423,11.0576,1007.645
35.032443523,-71.1221,-82.68078,-61.02613,0.9547555,0.1672485,0.03944237,-31.41035,-22.87254,12.75693,1007.645
35.065219402,-4.52863,-84.80811,-62.37009,0.6746872,0.1190601,0.03007068,-31.41035,-22.87254,12.75693,1007.645
35.100516319,88.03133,-112.168,-76.48165,0.6586328,0.1007622,-0.1306385,-29.54722,-25.04569,14.09429,1007.645
35.133292198,168.1671,-129.3049,-73.4272,0.655197,0.296129,-0.2575229,-25.85268,-27.55284,17.98355,1007.651
35.166068077,205.6881,-141.8916,-55.03941,0.4872251,0.4937696,-0.2097676,-25.85268,-27.55284,17.98355,1007.651
35.198844433,247.4332,-178.5291,-149.1776,1.486094,0.8747283,-0.276732,-20.31277,-27.83795,24.75747,1007.653
35.234141350,97.2252,-158.2603,-153.6371,0.9974418,1.305376,-0.5149775,-14.87191,-25.91847,32.80241,1007.653
35.266917229,-101.3749,-121.741,-165.6716,0.2804858,1.207485,-0.4929123,-14.87191,-25.91847,32.80241,1007.653
35.299693107,-127.4656,-106.1406,-163.7779,-0.5187613,0.764879,-0.6362022,-5.741979,-23.68928,37.48028,1007.653
35.332468510,-53.35556,-112.8771,-104.827,-0.2660792,0.7284926,-0.4292797,1.683161,-28.48531,34.56167,1007.653
35.365245342,60.94667,-112.9362,-100.0009,0.5037983,1.191407,-0.6922201,1.683161,-28.48531,34.56167,1007.651
35.400542259,-118.7687,2.589956,-27.73262,-0.04379947,1.545811,-1.738417,10.13775,-32.95126,33.75035,1007.649
35.433318138,-55.34343,51.04595,111.4282,-0.01621465,0.9562046,-0.7618738,19.67338,-33.32069,35.04913,1007.651
35.466093540,-27.38908,32.01811,15.39622,0.09179173,0.4033022,0.003105836,19.67338,-33.32069,35.04913,1007.648
35.498869419,57.77851,14.94033,-0.05929597,-0.1475329,0.3168747,-0.3013796,16.43362,-35.52918,32.91217,1007.648
35.534166336,140.0885,-19.27434,-39.46171,0.2537452,1.080466,-0.1662942,14.24312,-35.15356,33.34438,1007.648
35.566943169,-20.92851,-37.12033,-55.71139,0.1882835,1.171214,-0.555216,14.24312,-35.15356,33.34438,1007.648
35.599718571,13.48639,0.04897051,2.445354,0.09681693,1.028742,-0.6221749,15.67737,-33.65855,36.3032,1007.65
35.632494450,-18.1952,4.953663,27.24749,0.07307789,0.8470544,-0.3864589,17.8402,-32.58152,35.47512,1007.652
35.665270328,10.62884,-21.46077,19.12266,0.1064025,0.729878,-0.3276352,17.8402,-32.58152,35.47512,1007.652
35.700567245,9.759148,-27.54731,-3.419192,0.166218,0.8843257,-0.3915496,17.84696,-32.94595,35.48085,1007.652
35.733343601,-3.596818,-27.19275,-9.711361,0.09327658,0.9249914,-0.4092483,17.84696,-32.94595,35.48085,1007.652
35.766119480,9.13794,-12.47868,-8.795026,0.1311606,0.8936338,-0.5517739,17.84696,-32.94595,35.48085,1007.654
35.798895359,2.491018,-1.841995,0.4294162,0.08456539,0.8955679,-0.4977538,18.93847,-32.95451,35.04433,1007.654
35.834192276,8.206129,-0.1283075,0.4905052,0.07204133,0.861175,-0.4557938,19.28902,-32.22651,35.03241,1007.654
35.866968155,14.54245,-1.310161,0.3683271,0.08994946,0.8846654,-0.4611667,19.28902,-32.22651,35.03241,1007.654
35.899744511,18.14545,-0.8965124,3.422778,0.08855271,0.8593245,-0.4616065,18.93171,-32.59008,35.0386,1007.654
35.932520390,27.46357,-3.082942,2.811888,0.1128524,0.8502634,-0.4630946,18.92567,-32.2197,35.46798,1007.649
35.965295792,12.05762,-4.323888,2.750799,0.1051788,0.7920833,-0.5558915,18.92567,-32.2197,35.46798,1007.651
36.000593185,8.703094,-4.14661,-0.8534532,0.111735,0.9004976,-0.5218937,19.28444,-31.84424,36.33201,1007.651
36.033368587,8.392491,-1.664717,-0.4258301,0.08947481,0.8656353,-0.5357479,19.27081,-31.11622,36.25839,1007.651
36.066145420,8.827336,-0.7192343,1.956641,0.08706661,0.8598611,-0.5227367,19.26365,-30.6851,36.68682,1007.651
36.098920822,-0.8013833,0.9353608,3.056244,0.07886209,0.8439078,-0.495737,19.26365,-30.6851,36.68682,1007.651
36.134218216,3.360709,-0.01012217,2.323176,0.1108853,0.8493517,-0.5218146,19.27081,-31.11622,36.25839,1007.653
36.166993618,-3.410456,0.1080632,0.9181283,0.1099381,0.8401203,-0.5174662,19.62773,-30.68597,36.68635,1007.655
36.199769497,-13.03918,0.4035266,-1.281076,0.08365443,0.8737708,-0.479427,19.62773,-30.68597,36.68635,1007.655
36.232545852,-10.86495,-0.1874002,-2.075233,0.08807737,0.8488719,-0.4933595,19.27081,-31.11622,36.25839,1007.655
36.265321731,-6.702857,0.1080632,-0.242563,0.09001005,0.8522738,-0.4967388,18.89405,-30.37968,36.74467,1007.655
36.300618648,1.248602,0.3444339,1.162484,0.09729591,0.8523714,-0.4914612,18.89405,-30.37968,36.74467,1007.656
36.333394527,5.721299,-0.3646783,1.467929,0.1016818,0.8445719,-0.4977176,19.26293,-30.69104,36.25171,1007.656
36.366170406,5.783419,-0.1283075,1.345751,0.09779728,0.8430248,-0.5054078,19.61951,-30.33342,35.81039,1007.658
36.398946762,2.428897,-0.4828636,-0.6090971,0.1011775,0.8498314,-0.5112024,19.61951,-30.33342,35.81039,1007.658
36.431722641,-0.2422962,0.04897051,-0.303652,0.09148134,0.8449371,-0.5029889,19.26293,-30.69104,36.25171,1007.655
36.467019558,2.67738,-0.1874002,-0.303652,0.09197022,0.841962,-0.5111687,19.2622,-30.69699,35.81659,1007.657
36.499795437,6.031902,-0.7192343,0.3683271,0.09584719,0.8449066,-0.5126264,19.2622,-30.69699,35.81659,1007.657
36.532571316,7.150076,-0.6601416,0.5515942,0.09729953,0.8453555,-0.519851,19.24337,-29.59179,36.66963,1007.659
36.565347671,3.733433,-0.3646783,0.7348613,0.09537557,0.8375435,-0.520316,19.25689,-30.32066,36.68109,1007.659
36.600644588,-1.236229,-0.4828636,-0.242563,0.09538201,0.8361292,-0.5135748,19.25689,-30.32066,36.68109,1007.659
36.633420467,-8.131636,-0.778327,-2.197412,0.09779374,0.8424641,-0.5159969,19.62773,-30.68597,36.68635,1007.659
36.666196346,-8.690722,0.8171754,-0.242563,0.09486725,0.8498122,-0.5063738,19.26365,-30.6851,36.68682,1007.659
36.698971748,-2.230161,0.2262486,-0.303652,0.09003587,0.8395442,-0.5063469,19.26365,-30.6851,36.68682,1007.659
