Time (s),Gyroscope X (deg/s),Gyroscope Y (deg/s),Gyroscope Z (deg/s),Accelerometer X (g),Accelerometer Y (g),Accelerometer Z (g),Magnetometer X (uT),Magnetometer Y (uT),Magnetometer Z (uT),Barometer (hPa)
0.004681110,0.1055445,0.1668432,0.02050319,-0.04206811,0.04349237,-1.001244,-0.737817,-9.807493,23.57128,1007.433
0.036962986,0.04312117,-0.06815089,-0.04059749,-0.04495794,0.03864479,-1.001266,-0.737817,-9.807493,23.57128,1007.433
0.071727753,-0.08101535,-0.009830136,-0.04049567,-0.04398715,0.03573088,-1.005152,-1.087947,-10.16239,24.01714,1007.429
0.104009628,-0.01863359,0.1073212,-0.04050258,-0.04206023,0.03863834,-1.005623,-1.475356,-9.805151,23.14658,1007.429
0.136292457,-0.204051,0.1069758,-0.1015074,-0.04061689,0.04105558,-1.007546,-1.475356,-9.805151,23.14658,1007.429
0.171057701,0.1675007,-0.1864924,0.08132064,-0.0435113,0.03814371,-1.007556,-0.7251703,-10.16637,24.01162,1007.43
0.203339577,0.1047473,-0.245079,-0.04062441,-0.03916503,0.04155348,-1.004646,-1.464032,-9.435,23.57769,1007.43
0.238104343,0.04237241,0.1659585,-0.1013676,-0.0406264,0.04541421,-1.006554,-1.464032,-9.435,23.57769,1007.43
0.270386219,-0.08139765,0.1069106,-0.1013938,-0.04351737,0.04105056,-1.006573,-1.113241,-9.444624,23.13645,1007.43
0.302668094,-0.1430786,0.2238435,-0.1012673,-0.04060426,0.03622121,-1.006123,-0.3630548,-9.805847,24.00149,1007.426
0.337433338,-0.01865868,0.04750738,0.08178939,-0.0357795,0.04058875,-1.006592,-0.3630548,-9.805847,24.00149,1007.426
0.369715214,-0.01846611,-0.2456478,0.08178101,-0.04011949,0.03671635,-1.003221,-1.814162,-9.789893,24.02355,1007.426
0.404480457,0.1050572,0.2238377,0.08190001,-0.04351927,0.04202005,-1.006084,-1.452047,-9.429366,24.01342,1007.428
0.436762810,0.04312159,-0.1872764,-0.0398948,-0.04060968,0.03766481,-1.008532,-1.452047,-9.429366,24.01342,1007.428
0.471528053,-0.01904143,0.164934,-0.03991086,-0.04157131,0.03670728,-1.004668,-1.826809,-9.431012,23.58321,1007.428
0.503809929,0.04271832,-0.1286078,0.0210586,-0.04401131,0.04442685,-1.009453,-1.464032,-9.435,23.57769,1007.424
0.536091804,0.04238857,-0.07004358,0.02106823,-0.04496458,0.03959463,-1.006578,-1.087286,-10.5269,24.02175,1007.426
0.570857048,-0.1436988,0.1058382,0.02110952,-0.04206255,0.03911735,-1.007071,-1.087286,-10.5269,24.02175,1007.426
0.603138924,-0.08166404,-0.01175947,-0.03972611,-0.03771554,0.04204156,-1.004646,-1.101255,-9.438989,23.57218,1007.426
0.637903690,-0.1435904,0.04710511,0.02156097,-0.03868267,0.04154995,-1.006097,-1.088609,-9.797871,24.01252,1007.426
0.670185566,0.1664163,0.1059472,-0.03918098,-0.0468915,0.03668716,-1.006107,-1.088609,-9.797871,24.01252,1007.427
0.704950809,0.04234095,-0.07020273,0.08266214,-0.0401327,0.04399166,-0.9983451,-1.463371,-9.799517,23.58231,1007.427
0.737232685,0.1658436,-0.01132445,0.0825545,-0.04400005,0.04203014,-1.002699,-1.089932,-9.068838,24.00329,1007.423
0.769515037,-0.02057865,-0.01122311,0.08240914,-0.03867853,0.03912375,-1.008045,-1.089932,-9.068838,24.00329,1007.423
0.804280281,0.04107709,0.04728967,0.08235312,-0.04351473,0.0395955,-1.007548,-1.100594,-9.803505,23.57679,1007.422
0.836562157,0.04079318,0.105634,-0.03953903,-0.03481422,0.0425387,-1.003199,-1.463371,-9.799517,23.58231,1007.423
0.871327400,-0.3303532,0.1644808,-0.03930812,-0.03964554,0.04009868,-1.005136,-1.463371,-9.799517,23.58231,1007.423
0.903609276,-0.2055648,-0.1875594,-0.03910963,-0.04157462,0.0396256,-1.0003,-1.088609,-9.797871,24.01252,1007.423
0.938374519,0.352264,-0.2456962,0.08277122,-0.04110928,0.04394957,-1.009946,-0.7258317,-9.801859,24.00701,1007.425
0.970656395,0.2269973,-0.244787,0.08272038,-0.04159252,0.04297215,-1.012367,-0.7258317,-9.801859,24.00701,1007.425
1.002938271,0.04053988,-0.009659432,-0.03932621,-0.03915931,0.03913384,-1.00466,-0.7384785,-9.442978,23.56666,1007.427
1.037703037,-0.1450144,0.1072359,0.08267052,-0.04351157,0.0396086,-1.003681,-0.7258317,-9.801859,24.00701,1007.427
1.069985867,-0.2062026,0.04816961,-0.03916559,-0.04109111,0.03913814,-1.001755,-0.7258317,-9.801859,24.00701,1007.427
1.104751110,-0.08156426,-0.01052385,-0.03914663,-0.04158935,0.04298525,-1.0085,-1.464032,-9.435,23.57769,1007.423
1.137032985,0.04236563,-0.01049928,-0.03906354,-0.03674391,0.03961976,-1.006112,-1.474695,-10.16967,23.1512,1007.423
1.169314384,0.04188193,-0.1278621,-0.1609004,-0.03916688,0.04301182,-1.002704,-1.474695,-10.16967,23.1512,1007.424
1.204079628,0.2272499,0.1660106,-0.03875218,-0.04109657,0.04009289,-1.005617,-0.7371556,-10.17201,23.57589,1007.424
1.236361503,0.1028234,-0.06868578,-0.09947757,-0.04254593,0.04107134,-1.001257,-1.101255,-9.438989,23.57218,1007.426
1.271126747,-0.02110882,0.1074846,-0.03853981,-0.04107928,0.03430049,-1.001299,-1.101255,-9.438989,23.57218,1007.428
1.303408623,-0.1447755,0.04843574,-0.03836375,-0.03673511,0.03623554,-1.005165,-1.462709,-10.16403,23.58692,1007.428
1.338173866,-0.02069764,-0.1861278,-0.0993462,-0.0411004,0.04154303,-1.006092,-1.075962,-10.15675,24.45286,1007.43
1.370455742,0.04137969,-0.1271081,0.08346047,-0.04109776,0.04008798,-1.007067,-1.451385,-9.793881,24.01804,1007.431
1.402738094,0.04136637,0.04935253,0.02240891,-0.04254984,0.0415438,-1.004639,-1.451385,-9.793881,24.01804,1007.433
1.437503338,0.04163164,0.1083542,0.08332745,-0.04206283,0.04058224,-1.003195,-0.7264932,-9.437343,24.00239,1007.431
1.469785213,0.04167563,0.1086488,0.02233366,-0.03964135,0.03816132,-1.005631,-1.451385,-9.793881,24.01804,1007.431
1.504550457,0.1030778,-0.1847712,-0.0996457,-0.03867778,0.03863819,-1.008531,-1.451385,-9.793881,24.01804,1007.433
1.536832333,0.1644369,-0.1261255,-0.03879581,-0.03674647,0.04205251,-1.002231,-1.814162,-9.789893,24.02355,1007.434
1.571597099,0.2256888,0.1088158,0.08293092,-0.04303652,0.04201816,-1.007052,-1.101917,-9.074473,23.56756,1007.436
1.603878975,-0.2081134,-0.008757249,0.02190057,-0.03819059,0.039632,-1.001275,-1.101917,-9.074473,23.56756,1007.432
1.636160850,-0.3311346,-0.06751649,-0.03914876,-0.0406154,0.04008445,-1.008518,-0.737817,-9.807493,23.57128,1007.432
1.670926094,-0.02076554,-0.008977424,-0.09987934,-0.04206678,0.04056586,-1.008029,-1.100594,-9.803505,23.57679,1007.432
1.703207970,0.2884486,-0.2433465,-0.1000073,-0.04545187,0.04202108,-1.004146,-1.100594,-9.803505,23.57679,1007.433
1.737973213,0.163838,-0.3012572,0.02168262,-0.04255411,0.04250347,-1.00705,-1.099932,-10.16802,23.58141,1007.435
1.770255566,-0.2075833,-0.007417507,0.0216323,-0.04013058,0.04106843,-1.004163,-1.100594,-9.803505,23.57679,1007.431
1.805020809,-0.08262777,-0.007734627,-0.039193,-0.03916191,0.04107775,-1.002231,-1.100594,-9.803505,23.57679,1007.433
1.837302685,-0.08234961,0.05122054,0.143445,-0.04495882,0.03766383,-1.005139,-1.101917,-9.074473,23.56756,1007.433
1.869584560,0.1032073,-0.007138781,0.02151369,-0.04061689,0.04105558,-1.007546,-1.450724,-10.1584,24.02265,1007.433
1.904349804,0.04070297,-0.1243841,-0.03957883,-0.04351421,0.04106367,-1.002705,-1.450724,-10.1584,24.02265,1007.435
1.936631680,0.1027828,0.05167892,-0.03939833,-0.03674453,0.04157186,-1.001267,-1.113241,-9.444624,23.13645,1007.438
1.971396446,0.2262791,0.0515072,0.02127577,-0.0425465,0.03911433,-1.007553,-1.450724,-10.1584,24.02265,1007.44
2.003678322,0.1017399,-0.124498,-0.03982802,-0.03673361,0.03526441,-1.006137,-1.450724,-10.1584,24.02265,1007.44
2.038443565,-0.1460182,-0.06567226,0.08219011,-0.04158051,0.04008987,-1.006099,-0.7264932,-9.437343,24.00239,1007.44
2.070725441,-0.2694092,0.1105934,0.02118224,-0.04157932,0.04009478,-1.004649,-1.113241,-9.444624,23.13645,1007.436
2.103007316,-0.2685053,-0.1828007,-0.03984508,-0.04545416,0.04298894,-1.00414,-1.113241,-9.444624,23.13645,1007.436
2.137772560,-0.08222204,-0.006294876,0.08223021,-0.04061993,0.042509,-1.007054,-1.451385,-9.793881,24.01804,1007.434
2.170054912,0.1036258,0.05267301,-0.039585,-0.04689955,0.03958582,-1.007541,-0.7498024,-9.813128,23.13555,1007.434
2.204820156,0.04104188,-0.006389748,0.02139585,-0.04447025,0.03621997,-1.003214,-0.7245088,-10.53089,24.01624,1007.436
2.237102032,0.2263874,0.05195253,0.08226845,-0.04739269,0.04296539,-1.009454,-0.7245088,-10.53089,24.01624,1007.436
2.269383907,0.2255227,0.286699,0.02108799,-0.03965019,0.04105671,-1.008031,-1.101255,-9.438989,23.57218,1007.436
2.304149151,0.2865258,0.1102159,-0.1008287,-0.04061228,0.03960871,-1.006104,-1.463371,-9.799517,23.58231,1007.436
2.336431026,-0.08570653,-0.1248051,-0.1007425,-0.04060418,0.03719889,-1.003217,-1.463371,-9.799517,23.58231,1007.436
2.371195793,0.1009599,-0.1245702,0.2042884,-0.042074,0.04395664,-1.007043,-1.099932,-10.16802,23.58141,1007.436
2.403477669,0.2248452,0.05145667,-0.03944691,-0.04302016,0.0391539,-0.9954658,-1.111918,-10.17365,23.14568,1007.432
2.438242912,0.4096428,-0.124454,-0.2832659,-0.0377162,0.04350481,-1.001254,-1.111918,-10.17365,23.14568,1007.43
2.470524788,0.2845117,0.11103,-0.1613574,-0.04013216,0.04106188,-1.006097,-0.737817,-9.807493,23.57128,1007.43
2.502807140,-0.1496665,0.1693537,0.02145353,-0.03771373,0.04009438,-1.008041,-1.464032,-9.435,23.57769,1007.43
2.537572384,-0.5205404,0.2856846,-0.1613673,-0.0425439,0.03717043,-1.009981,-1.464032,-9.435,23.57769,1007.43
2.569854259,-0.147568,-0.008073397,-0.03930576,-0.04205864,0.03864489,-1.003689,-1.463371,-9.799517,23.58231,1007.43
2.604619503,0.1002939,-0.1255908,0.1437461,-0.03771922,0.04056029,-1.013356,-1.463371,-9.799517,23.58231,1007.432
2.636901379,0.2853589,0.0507165,0.02187111,-0.03673585,0.03672111,-1.004678,-1.463371,-9.799517,23.58231,1007.432
2.671666622,0.2846312,-0.008025046,-0.1000107,-0.04399771,0.04155112,-1.001251,-0.737817,-9.807493,23.57128,1007.432
2.703948498,0.09809403,0.1682821,0.02183875,-0.03772521,0.04444482,-1.009467,-0.737817,-9.807493,23.57128,1007.432
2.736230373,0.4689724,-0.1838657,-0.0392101,-0.03625724,0.03914541,-1.003699,-0.737817,-9.807493,23.57128,1007.432
2.770995617,0.09619932,-0.007705465,-0.03945841,-0.04496805,0.04055757,-1.008023,-1.099932,-10.16802,23.58141,1007.426
2.803277016,-0.2755291,-0.00831826,-0.1004295,-0.03963665,0.03769214,-1.001283,-1.476018,-9.440635,23.14197,1007.426
2.838042259,-0.4599683,-0.1844634,-0.2220041,-0.041574,0.03767351,-1.005146,-1.476018,-9.440635,23.14197,1007.426
2.870324135,-0.2105485,0.05076803,0.02214775,-0.04255266,0.0410435,-1.009476,-1.088609,-9.797871,24.01252,1007.426
2.902606010,0.161432,-0.008049779,0.02232509,-0.04304532,0.04540238,-1.007999,-1.099932,-10.16802,23.58141,1007.428
2.937371254,0.4077629,-0.1258432,0.08328235,-0.04206886,0.04397793,-1.000758,-1.099932,-10.16802,23.58141,1007.428
2.969653606,0.6531011,0.1087444,0.02205948,-0.04205896,0.03962094,-1.001266,-1.464032,-9.435,23.57769,1007.424
3.004418850,0.3414742,0.5185787,-0.03897797,-0.04060545,0.03621629,-1.007574,-1.076623,-9.792235,24.44825,1007.424
3.036700726,0.3404903,-0.06912653,-0.03901,-0.04012565,0.03864551,-1.005144,-1.076623,-9.792235,24.44825,1007.424
3.071465969,0.1530942,-0.1271761,-0.09987482,-0.04063142,0.04685945,-1.00848,-0.7264932,-9.437343,24.00239,1007.424
3.103747844,-0.4045148,-0.009731002,0.08310603,-0.04206283,0.04058224,-1.003195,-1.087947,-10.16239,24.01714,1007.422
3.136029720,-0.5261908,0.04926936,0.08328315,-0.04014061,0.04395889,-1.008014,-1.087947,-10.16239,24.01714,1007.418
3.170794964,-0.2763757,0.1081053,-0.03850515,-0.04157664,0.03912856,-1.004171,-0.7371556,-10.17201,23.57589,1007.418
3.203076362,-0.08971712,0.4593104,-0.03832898,-0.04060968,0.03766481,-1.008532,-0.3623934,-10.17036,24.00611,1007.418
3.237841606,-0.02738844,0.04716686,-0.1600419,-0.04399322,0.03863772,-1.004168,-1.077285,-9.42772,24.44363,1007.42
3.270123482,-0.3365035,0.04625638,0.02293559,-0.039644,0.03961638,-1.004656,-1.077285,-9.42772,24.44363,1007.42
3.304888725,-0.02543062,0.04542741,-0.09883642,-0.03770008,0.03330955,-1.01098,-1.101255,-9.438989,23.57218,1007.42
3.337170601,-0.3342042,0.2209089,0.02291276,-0.04350589,0.03670012,-1.005147,-1.111918,-10.17365,23.14568,1007.423
3.369452476,-0.4568281,-0.07311887,-0.03821665,-0.03530405,0.04299995,-1.00948,-1.111918,-10.17365,23.14568,1007.423
3.404217720,-0.3308757,-0.07250299,-0.03801046,-0.03867212,0.04012765,-0.9974033,-1.464032,-9.435,23.57769,1007.423
3.436500072,0.04165345,-0.3061164,0.02325726,-0.03964044,0.03963113,-1.000305,-1.100594,-9.803505,23.57679,1007.423
3.471265316,1.030852,-0.4220865,-0.1594757,-0.04206682,0.04007702,-1.009482,-1.100594,-9.803505,23.57679,1007.421
3.503547192,1.150228,-0.596437,0.02344232,-0.04013876,0.04250056,-1.009956,-1.111918,-10.17365,23.14568,1007.421
3.538312435,1.392452,-0.1834338,0.02351167,-0.04255851,0.04199661,-1.013821,-1.087947,-10.16239,24.01714,1007.421
3.570594311,1.263489,-0.1832386,-0.09823631,-0.04495948,0.03912708,-1.001746,-1.087947,-10.16239,24.01714,1007.421
3.602876186,1.3825,0.2276912,-0.1592543,-0.04253616,0.03524782,-1.006125,-1.463371,-9.799517,23.58231,1007.421
3.637640953,1.067341,0.1679518,-0.09805445,-0.04736489,0.03526184,-0.9978957,-1.827471,-9.066496,23.57859,1007.422
3.669922829,0.691868,0.4596577,-0.03705823,-0.0377037,0.03720391,-1.00419,-1.827471,-9.066496,23.57859,1007.419
3.704688072,0.194364,0.105295,-0.2197942,-0.03770911,0.0386475,-1.006599,-1.099932,-10.16802,23.58141,1007.419
3.736969948,0.1937273,0.04597934,-0.03653494,-0.0357696,0.03623175,-1.0071,-1.475356,-9.805151,23.14658,1007.419
3.771735191,0.5023178,-0.187671,0.0854875,-0.03962987,0.03381088,-1.004205,-1.475356,-9.805151,23.14658,1007.419
3.804017067,0.4385299,0.1642608,0.1461563,-0.03672543,0.03383228,-1.000344,-0.0122633,-9.81547,23.56025,1007.42
3.836298943,-0.2433147,-0.4223683,-0.03664999,-0.04543704,0.03524116,-1.005635,-1.101255,-9.438989,23.57218,1007.42
3.871064186,-0.6748379,0.04884912,-0.03620258,-0.04254746,0.03715569,-1.014332,-1.101255,-9.438989,23.57218,1007.42
3.903346539,-0.5478871,0.224316,-0.09690008,-0.04059661,0.03332091,-1.005173,-1.464032,-9.435,23.57769,1007.422
3.938111782,-0.2359058,0.164997,0.0250817,-0.04156779,0.03623318,-1.00177,-1.452047,-9.429366,24.01342,1007.424
3.970393658,0.01211432,0.04734229,0.2074382,-0.04206112,0.04205532,-0.9969016,-1.452047,-9.429366,24.01342,1007.424
4.002675533,-0.235499,-0.01168224,0.08484504,-0.04349365,0.03186411,-1.004208,-1.463371,-9.799517,23.58231,1007.425
4.037440300,-0.5433808,-0.3049793,-0.09840682,-0.03769718,0.03478754,-1.003237,-1.464032,-9.435,23.57769,1007.423
4.069722176,-0.9120744,-0.3041226,-0.0981967,-0.04012182,0.03719536,-1.004668,-1.464032,-9.435,23.57769,1007.423
4.104487419,-0.9078186,-0.1852717,-0.2807406,-0.04014558,0.04589297,-1.008486,-1.101917,-9.074473,23.56756,1007.425
4.136769295,-0.5331122,0.1670554,0.2069548,-0.04062415,0.04395751,-1.008013,-1.08927,-9.433354,24.00791,1007.425
4.171534538,-0.2216044,-0.2438972,-0.09766351,-0.04254831,0.04106152,-1.004158,-1.101255,-9.438989,23.57218,1007.425
4.203816414,1.387891,-0.1840349,0.2070174,-0.04011187,0.03332721,-1.003724,-1.101255,-9.438989,23.57218,1007.427
4.236098289,2.246036,-0.3595399,0.1448313,-0.02173393,0.03388169,-0.9984422,-1.826809,-9.431012,23.58321,1007.427
4.270863533,-0.6069123,-0.7700589,-0.2211616,-0.03670418,0.02805626,-0.9911914,-1.450724,-10.1584,24.02265,1007.427
4.303145408,-2.088287,-1.233669,-0.3412236,-0.06138191,0.0337798,-0.9949732,-1.450724,-10.1584,24.02265,1007.428
4.337910175,-1.708368,0.3546199,-0.4006287,-0.06675975,0.04378294,-1.037447,-1.476018,-9.440635,23.14197,1007.43
4.370192051,-0.3405309,1.466243,0.1488208,-0.05320985,0.04777498,-1.013282,-1.101917,-9.074473,23.56756,1007.43
4.404957294,1.949711,2.279768,0.2091268,-0.02802972,0.04066493,-0.9906551,-1.101917,-9.074473,23.56756,1007.43
4.437239170,2.621743,1.273744,0.5729817,-0.01786665,0.0397523,-0.982947,-1.112579,-9.809139,23.14107,1007.43
4.469521522,1.373314,-0.4301446,0.1450363,-0.02124845,0.03340242,-0.997479,-1.452047,-9.429366,24.01342,1007.43
4.504286766,-1.106235,-1.89242,-0.4032061,-0.02995864,0.03286248,-1.006649,-1.452047,-9.429366,24.01342,1007.428
4.536568642,-1.904778,-1.650042,-0.4014857,-0.04981238,0.03855234,-1.024461,-0.737817,-9.807493,23.57128,1007.428
4.571333885,-1.277439,-0.3543957,-0.3391655,-0.05706065,0.04050663,-1.012832,-1.450724,-10.1584,24.02265,1007.428
4.603615761,-0.4680526,0.4658128,0.02679065,-0.05657573,0.04735508,-0.9915224,-1.450724,-10.1584,24.02265,1007.429
4.638381004,0.8946615,0.0537335,0.2093421,-0.04930278,0.03817299,-0.9940075,-1.088609,-9.797871,24.01252,1007.429
4.670662880,2.375291,0.4054729,0.2082402,-0.0406083,0.03522714,-1.013864,-1.464032,-9.435,23.57769,1007.429
4.702944755,2.056381,0.7550974,0.146489,-0.03578533,0.03714392,-1.023532,-1.464032,-9.435,23.57769,1007.431
4.737709522,0.006618813,0.5170645,-0.09747709,-0.03624453,0.03528872,-0.9993698,-1.100594,-9.803505,23.57679,1007.431
4.769991398,-1.786813,-0.01309178,-0.09696481,-0.03527103,0.03629538,-0.9887304,-1.113241,-9.444624,23.13645,1007.431
4.804756641,-1.716084,-0.4810914,-0.03531167,-0.03963617,0.03867146,-0.997893,-1.113241,-9.444624,23.13645,1007.427
4.837038517,-0.3484486,0.1654951,0.08694287,-0.03529749,0.04107243,-1.007074,-1.475356,-9.805151,23.14658,1007.429
4.869320393,0.1475168,-0.8310271,-0.1566965,-0.03626269,0.04010016,-1.007561,-1.826809,-9.431012,23.58321,1007.429
4.904085636,0.5177199,-0.8857139,0.08718076,-0.04688763,0.03572586,-1.004179,-1.826809,-9.431012,23.58321,1007.429
4.936367512,0.6391292,-0.4720867,0.02590368,-0.04931578,0.03860778,-1.008508,-1.08927,-9.433354,24.00791,1007.43
4.971132755,0.202936,0.6427966,0.2083638,-0.05125658,0.04443887,-0.9997689,-1.088609,-9.797871,24.01252,1007.43
5.003414631,-0.4786679,0.6396793,0.2080304,-0.04205864,0.03864489,-1.003689,-1.088609,-9.797871,24.01252,1007.428
5.038179398,-0.6620405,0.4025576,-0.03540316,-0.03673945,0.03621752,-1.010483,-0.7251703,-10.16637,24.01162,1007.43
5.070462227,-0.288355,0.5758649,0.08667997,-0.03335584,0.04062023,-0.9993457,-1.0653,-9.422085,24.87936,1007.43
5.102744102,-0.5344325,0.3387621,-0.09607496,-0.03239297,0.04207151,-1.000306,-1.101917,-9.074473,23.56756,1007.43
5.137508869,-0.3467489,-0.4829245,-0.09580614,-0.03577189,0.03719961,-1.007095,-1.101917,-9.074473,23.56756,1007.43
5.169790745,-0.09771317,-0.4223082,-0.03466596,-0.03528495,0.03526037,-1.008557,-1.08927,-9.433354,24.00791,1007.431
5.204555988,0.02609923,-0.5959369,-0.09556897,-0.04253497,0.03525273,-1.004674,-1.101255,-9.438989,23.57218,1007.431
5.236837864,0.2114859,-0.5344183,0.08731788,-0.05317949,0.03763869,-1.005605,-1.101255,-9.438989,23.57218,1007.431
5.271603107,-0.1612452,-0.2395536,-0.03435436,-0.04448284,0.04154319,-1.003184,-1.087947,-10.16239,24.01714,1007.431
5.303884983,-0.3462944,0.4054225,-0.0950211,-0.04739225,0.04345587,-1.007518,-0.737817,-9.807493,23.57128,1007.431
5.336166859,0.2119269,0.5207152,0.08809294,-0.04157391,0.03865119,-1.00224,-0.737817,-9.807493,23.57128,1007.431
5.370932102,1.572239,0.5184851,-0.2165388,-0.03771316,0.04205139,-1.001745,-1.463371,-9.799517,23.58231,1007.431
5.403213978,1.68966,0.2237413,-0.03401906,-0.04012305,0.0367016,-1.007572,-1.112579,-9.809139,23.14107,1007.429
5.437978744,0.444638,0.5156472,0.1483028,-0.03479524,0.03333259,-1.006636,-1.112579,-9.809139,23.14107,1007.429
5.470260620,-0.9180277,0.1621018,-0.0956629,-0.03430809,0.03383756,-1.000833,-1.464032,-9.435,23.57769,1007.429
5.505025864,-1.841134,-0.4241828,-0.2168948,-0.04107888,0.03430213,-1.000815,-1.113241,-9.444624,23.13645,1007.425
5.537307739,-1.709195,-0.4220303,-0.155242,-0.03770532,0.03670852,-1.007577,-1.113241,-9.444624,23.13645,1007.425
5.569589615,-1.578786,-0.2444964,-0.03316757,-0.04207616,0.04639103,-1.002678,-1.101255,-9.438989,23.57218,1007.425
5.604354858,-0.8294948,0.04865419,-0.03336598,-0.04739142,0.04394799,-1.005098,-1.452708,-9.06485,24.0088,1007.425
5.636636734,-0.5784531,-0.1280019,0.1488088,-0.0362465,0.03528053,-1.001787,-1.452708,-9.06485,24.0088,1007.425
5.671401977,0.1659231,-0.5381193,0.08711935,-0.0406355,0.04537654,-1.017674,-0.737817,-9.807493,23.57128,1007.425
5.703683853,-0.08163714,-0.3015014,-0.1568839,-0.04158007,0.04058035,-1.004163,-1.088609,-9.797871,24.01252,1007.425
5.735965252,-0.3295293,0.05118964,0.02625307,-0.04302522,0.04011029,-0.9988443,-1.088609,-9.797871,24.01252,1007.425
5.770730495,-0.1422402,0.1686464,-0.2779922,-0.0425399,0.03767566,-1.003694,-1.813501,-10.15441,24.02817,1007.425
5.803013325,0.6006235,0.6371943,-0.09476351,-0.03676222,0.04736262,-1.006068,-0.7251703,-10.16637,24.01162,1007.423
5.837778091,1.278259,0.04889777,-0.03373161,-0.03578922,0.04250317,-1.012866,-0.7251703,-10.16637,24.01162,1007.423
5.870059967,1.149198,-0.302892,0.08809605,-0.04110431,0.0420155,-1.009473,-0.3763633,-9.08245,23.55653,1007.423
5.904825211,0.8969594,-0.4190966,-0.09459665,-0.04397439,0.03236303,-0.9993697,-1.452047,-9.429366,24.01342,1007.419
5.937107086,0.5222001,-0.3001302,-0.1553811,-0.04301787,0.03818604,-0.9954712,-1.452047,-9.429366,24.01342,1007.419
5.969388962,-0.2221346,-0.1818146,-0.3379904,-0.04591288,0.03282833,-1.00323,-1.814162,-9.789893,24.02355,1007.419
6.004154205,-0.7159374,0.2875926,0.1497191,-0.0430362,0.04104212,-1.009475,-1.101917,-9.074473,23.56756,1007.418
6.036436081,-0.898279,0.1687384,-0.09406167,-0.03868082,0.04009161,-1.008039,-1.464032,-9.435,23.57769,1007.419
6.071201324,-0.585246,0.1094975,0.02775468,-0.03675003,0.04203777,-1.006582,-1.464032,-9.435,23.57769,1007.419
6.103483200,-0.3357431,0.1685271,0.08871591,-0.04109257,0.04059811,-0.9993291,-0.73914,-9.078462,23.56205,1007.419
6.138247967,-0.4584111,-0.1834537,-0.03349749,-0.03674607,0.04205415,-1.001747,-1.100594,-9.803505,23.57679,1007.415
6.170529842,-0.3947631,-0.06577894,-0.0944546,-0.04061267,0.03960707,-1.006587,-1.100594,-9.803505,23.57679,1007.417
6.202811718,-0.02177873,-0.006844867,-0.155144,-0.04254928,0.04350081,-0.9983426,-1.451385,-9.793881,24.01804,1007.419
6.237576961,0.1641016,-0.1829782,-0.03323146,-0.04158812,0.04347901,-1.005597,-1.087947,-10.16239,24.01714,1007.419
6.269858837,0.411094,-0.006473761,-0.09409405,-0.04302657,0.03815001,-1.006107,-1.087947,-10.16239,24.01714,1007.42
6.304624080,0.3475295,-0.006684519,-0.1550612,-0.04062108,0.04299293,-1.007052,-1.100594,-9.803505,23.57679,1007.42
6.336905956,0.2218737,0.1695063,-0.09388988,-0.0410917,0.04157907,-0.9954561,-1.088609,-9.797871,24.01252,1007.422
6.371671200,0.2823682,0.05181696,-0.215665,-0.03771708,0.04252385,-1.005127,-1.088609,-9.797871,24.01252,1007.424
6.403953075,0.157484,0.0519187,-0.0326708,-0.04351741,0.04056172,-1.008026,-1.464032,-9.435,23.57769,1007.422
6.436234474,0.1569585,-0.00719814,-0.03251834,-0.03770933,0.04060124,-1.00127,-0.7384785,-9.442978,23.56666,1007.422
6.470999718,0.03282773,0.1102205,-0.1542952,-0.04254691,0.04351064,-0.995442,-0.7384785,-9.442978,23.56666,1007.422
6.503281593,-0.2766104,-0.2416352,-0.1541058,-0.03626296,0.04156505,-1.003685,-1.089932,-9.068838,24.00329,1007.422
6.538046837,-0.769611,-0.9441051,0.02902973,-0.04350759,0.03522703,-1.011441,-1.088609,-9.797871,24.01252,1007.423
6.570328712,-0.8908487,-0.8213782,0.09032979,-0.04207485,0.04786246,-0.9968686,-1.088609,-9.797871,24.01252,1007.425
6.602610588,-0.0219775,0.2366492,0.0292119,-0.04446705,0.03672192,-0.9978936,-1.101917,-9.074473,23.56756,1007.425
6.637375832,-0.7013359,-1.112527,-0.03168455,-0.04589765,0.02605005,-1.004236,-0.3743787,-10.176,23.57038,1007.425
6.669657707,1.032974,-2.455319,-0.09198057,-0.05032976,0.05893492,-1.00694,-0.3743787,-10.176,23.57038,1007.425
6.704422474,2.580265,-2.627131,-0.1528534,-0.03768243,0.03631468,-0.9809902,-1.464694,-9.070484,23.57308,1007.419
6.736704349,0.9069765,-0.6312364,0.5784351,-0.0575021,0.02895156,-0.9950091,-0.7258317,-9.801859,24.00701,1007.416
6.771469593,-2.74947,-2.568428,-0.03097201,-0.05564716,0.05452832,-1.017589,-0.7258317,-9.801859,24.00701,1007.412
6.803752422,-4.236838,-3.859889,-0.09191272,-0.05369967,0.03455355,-1.058799,-1.100594,-9.803505,23.57679,1007.412
6.836034298,-11.36381,-7.382056,-0.457557,-0.0749727,0.03694841,-1.048104,-1.088609,-9.797871,24.01252,1007.409
6.870799065,-28.96433,-10.66941,1.736308,-0.1257714,0.05135386,-1.038244,-1.100594,-9.803505,23.57679,1007.404
6.903080940,-41.66893,-17.88985,8.622608,-0.162565,0.05741866,-1.073905,-1.100594,-9.803505,23.57679,1007.402
6.937846184,-60.50892,-16.36358,9.719541,-0.1481925,0.1003971,-1.11285,-0.7484794,-10.54216,23.14478,1007.4
6.970128059,-51.08892,-18.24207,5.941217,-0.10081,0.0980687,-1.126018,-1.484695,-11.26885,22.72932,1007.4
7.004893303,-42.9084,-22.93829,4.173937,-0.1229782,0.1418069,-0.9096244,-1.484695,-11.26885,22.72932,1007.397
7.037175179,-41.79287,-23.29051,-1.61543,-0.1335874,0.1360316,-0.8912637,-0.768481,-12.74052,22.30102,1007.397
7.069457054,-45.94511,-21.17721,-7.100094,-0.1818534,0.06735808,-0.980503,-0.8131148,-14.58564,20.5812,1007.397
7.104222297,-38.63222,-18.18337,-14.53486,-0.2170968,0.02741613,-1.027548,-0.8131148,-14.58564,20.5812,1007.397
7.136503696,-10.12434,-16.7745,-22.03057,-0.2345821,0.04317056,-1.076248,-1.186554,-15.31632,20.16022,1007.397
7.171268940,24.27105,-14.36769,-30.19662,-0.2404236,0.03224218,-1.154614,-1.219864,-16.79128,18.8715,1007.395
7.203550815,41.80959,-13.89806,-38.36268,-0.2377999,-0.04655099,-1.131379,-1.219864,-16.79128,18.8715,1007.395
7.238316059,54.01841,-13.72196,-41.77536,-0.3171562,0.01896542,-1.009009,-0.8324549,-17.14852,19.74205,1007.395
7.270597935,49.43235,-16.48099,-51.28211,-0.3135909,-0.05650956,-1.007029,-0.8551025,-17.88882,18.87983,1007.393
7.302879810,45.40407,-16.7745,-53.35409,-0.3101557,-0.03185792,-0.8754009,-0.8551025,-17.88882,18.87983,1007.393
7.337645054,25.57249,-15.01342,-57.19336,-0.3301123,0.01934088,-0.8871527,-0.4910026,-18.62184,18.88355,1007.393
7.369926929,-5.538285,-16.95061,-56.88865,-0.3330081,0.03254936,-0.842595,-1.214572,-19.70741,18.90843,1007.393
7.404691696,-45.5113,-19.24002,-55.24325,-0.3223357,0.02001728,-0.836888,-1.214572,-19.70741,18.90843,1007.391
7.436973572,-54.4355,-17.94856,-60.11851,-0.3372894,0.0225677,-0.7855968,-0.459094,-22.98476,19.81039,1007.389
7.469255447,-46.31695,-20.59018,-61.70297,-0.3004815,0.02584661,-0.7058901,0.5972497,-25.20072,18.51436,1007.387
7.504020691,-42.53656,-32.50684,-62.86084,-0.3831854,0.04606134,-0.6683721,0.5972497,-25.20072,18.51436,1007.387
7.536302566,-40.36748,-44.2474,-67.24857,-0.4998641,0.139933,-0.5723494,2.779202,-28.14078,18.51819,1007.389
7.571067810,-34.10814,-65.4391,-74.56145,-0.5469903,0.2214632,-0.6070753,4.198985,-30.72525,17.22126,1007.391
7.603349686,-26.05157,-71.95511,-73.76923,-0.4270644,0.2374704,-0.554548,4.198985,-30.72525,17.22126,1007.394
7.638114929,-27.47696,-81.64107,-68.46738,-0.4494202,0.2691921,-0.5997626,6.717098,-32.2225,16.32966,1007.401
7.670396805,-28.03472,-84.98712,-65.786,-0.5076299,0.3435184,-0.6088834,10.30023,-34.1075,14.55468,1007.401
7.702678680,-39.31393,-93.20551,-65.42035,-0.4980721,0.3934104,-0.602819,10.30023,-34.1075,14.55468,1007.404
7.737443447,-43.65208,-93.55773,-59.44816,-0.5953849,0.4449227,-0.5994158,12.80372,-34.15233,13.20889,1007.412
7.769725323,-44.89156,-106.4136,-57.92464,-0.6283326,0.4611676,-0.6330932,16.02407,-36.03334,11.43943,1007.421
7.804490566,-21.71341,-102.1283,-43.23793,-0.5524103,0.4574985,-0.6376286,19.5939,-37.19495,9.219484,1007.424
7.836772442,-30.32775,-97.84303,-24.34631,-0.6744658,0.5550248,-0.6010365,19.5939,-37.19495,9.219484,1007.424
7.871537685,-37.14485,-94.32087,-16.42402,-0.7726275,0.5596228,-0.5891963,22.08474,-36.88089,7.433352,1007.426
7.903819561,-34.04617,-95.14271,-5.210932,-0.8068978,0.5338797,-0.5883019,24.1675,-38.04344,3.928293,1007.428
7.936101437,-36.02932,-86.5134,2.041012,-0.88719,0.5482123,-0.5749946,24.1675,-38.04344,3.928293,1007.43
7.970866680,-30.14183,-85.04583,3.077004,-1.008383,0.4840949,-0.5431909,26.27093,-37.37215,1.271607,1007.431
8.003148556,-7.211574,-83.87177,5.941217,-1.031416,0.402663,-0.5629418,27.29065,-39.2405,-1.336221,1007.431
8.037913322,8.281842,-73.8336,8.439786,-1.102455,0.3918871,-0.5410953,27.29065,-39.2405,-1.336221,1007.435
8.070195198,20.67657,-66.61315,10.02424,-1.132415,0.3899279,-0.5226712,28.6825,-39.64914,-3.532301,1007.438
8.104960441,19.80894,-59.0992,10.02424,-1.137097,0.3279991,-0.5147947,29.02671,-40.75634,-4.270929,1007.44
8.137242317,19.37513,-47.47605,7.89132,-1.189128,0.2450849,-0.5190216,29.02671,-40.75634,-4.270929,1007.446
8.169524193,20.8625,-40.0208,6.002158,-1.254665,0.1554258,-0.5029532,29.74226,-41.86349,-4.703839,1007.446
8.204289436,24.58092,-37.61399,9.049192,-1.147952,0.03934066,-0.4337447,30.45914,-43.69968,-5.127518,1007.453
8.236571312,19.06526,-14.25028,15.32609,-1.087104,-0.1308212,-0.4324261,30.45914,-43.69968,-5.127518,1007.462
8.271336555,36.47986,-7.382056,4.295818,-1.070652,-0.151742,-0.4794741,31.18535,-44.07218,-5.133933,1007.472
8.303617954,52.22117,4.769419,-17.52095,-1.011209,-0.07645565,-0.3046528,31.21065,-44.78994,-4.253248,1007.477
8.338383198,41.3138,5.826069,-34.34059,-1.016641,-0.02318302,-0.2879012,31.21065,-44.78994,-4.253248,1007.478
8.370665073,21.11039,1.83428,-47.80849,-0.9653603,-0.02391097,-0.2604599,31.2698,-46.22144,-2.180643,1007.478
8.402947903,-0.3944705,3.067039,-56.46207,-0.9151044,0.01763373,-0.1815315,31.32641,-44.37069,-0.02508879,1007.487
8.437712192,-19.42038,2.2452,-56.70583,-1.012927,0.07099192,-0.2042223,31.32641,-44.37069,-0.02508879,1007.49
8.469994545,-30.57564,-0.7486419,-51.76963,-0.9661207,0.1215414,-0.1784135,32.7862,-42.55843,0.3654966,1007.497
8.504759312,-41.97879,-2.333617,-34.58435,-1.060648,0.2234037,-0.1708625,34.54817,-40.41382,-1.432683,1007.502
8.537041664,-49.91142,-6.61892,-20.32423,-1.111199,0.325282,-0.1957965,34.54817,-40.41382,-1.432683,1007.502
8.569323540,-55.8609,-11.02163,-4.418703,-1.083207,0.3481068,-0.195727,34.87103,-38.24762,-2.773075,1007.503
8.604088783,-57.22432,-15.30693,13.19316,-1.100701,0.3848405,-0.1940302,35.92313,-37.18213,-4.048402,1007.512
8.636370659,-49.53958,-14.7199,28.00175,-1.10152,0.3194812,-0.202135,35.92313,-37.18213,-4.048402,1007.521
8.671134949,-29.46012,-18.65299,49.02629,-1.023922,0.219503,-0.2106058,35.15266,-37.92492,-5.7088,1007.529
8.703417778,1.960529,-28.16284,61.58008,-0.9235982,0.08684547,-0.3140653,34.3838,-40.49109,-7.408365,1007.529
8.738182545,34.31078,-24.69938,68.52732,-0.7647764,-0.03054143,-0.3875908,32.97593,-44.46791,-6.028348,1007.539
8.770464420,56.12551,-16.01137,70.72118,-0.6254406,-0.04547175,-0.3415659,32.97593,-44.46791,-6.028348,1007.55
8.802746296,56.55933,-7.734272,65.41934,-0.5867944,-0.02548077,-0.329933,31.22952,-49.52382,-3.819761,1007.555
8.837511539,48.44078,0.8950359,42.87128,-0.6940381,0.1612657,-0.2532236,29.49311,-53.48055,-1.189295,1007.552
8.869793415,13.73552,1.423361,30.80503,-0.8391953,0.2088418,-0.2284683,29.49311,-53.48055,-1.189295,1007.552
8.936840534,-18.36683,-3.272861,15.81361,-1.157171,0.3513925,-0.1631586,29.14364,-54.19995,-0.7388206,1007.531
8.971605778,-10.86802,-4.916539,21.54204,-1.187409,0.4895099,-0.07867317,29.14364,-54.19995,-0.7388206,1007.524
9.003887177,-18.30486,-1.100859,33.36453,-1.309234,0.4560497,-0.1390307,30.1947,-53.49979,-2.071779,1007.515
9.036169052,-8.327099,-7.616867,38.54449,-1.259219,0.3588372,-0.16483,29.78635,-53.88205,-3.742309,1007.515
9.070934296,13.73552,-7.440758,35.5584,-1.031732,0.2592482,-0.1852241,29.78635,-53.88205,-3.742309,1007.515
9.103216171,19.93289,-4.153403,31.71914,-0.8437032,0.2893023,-0.1864254,29.82324,-55.32402,-2.478911,1007.52
9.137981415,2.394344,-6.149298,34.52241,-0.6971052,0.2455985,-0.2121286,29.16092,-57.11044,-0.2661669,1007.522
9.170263290,-2.935391,1.892983,32.69418,-0.7007185,0.3531275,-0.1800859,29.16092,-57.11044,-0.2661669,1007.522
9.205028534,-27.60091,0.1318997,28.79398,-0.8207858,0.4108118,-0.192552,27.71511,-60.01062,-0.2071779,1007.518
9.237310409,-35.34761,-5.092648,25.56412,-0.8550612,0.3982413,-0.1601592,26.64074,-61.08656,0.2589431,1007.518
9.269592285,-26.79525,-7.26465,18.06842,-0.9217067,0.3387803,-0.2285185,26.64074,-61.08656,0.2589431,1007.515
9.304357052,6.980395,-5.327459,7.708498,-0.9260479,0.3485856,-0.1873611,26.94426,-61.48324,-1.920591,1007.51
9.336638927,12.80592,2.010389,4.661462,-0.80192,0.4294663,-0.130123,25.83129,-61.11803,-2.780114,1007.499
9.371404171,-11.30184,0.3080081,4.478641,-0.7904554,0.487069,-0.135138,25.83129,-61.11803,-2.780114,1007.492
9.403686046,-38.57024,-0.7486419,7.220972,-0.9164593,0.3937185,-0.1576354,24.39085,-60.36741,-2.331557,1007.492
9.435967922,-40.67735,3.595364,-3.443652,-1.008838,0.3938549,-0.1820909,23.98157,-59.2908,-3.958302,1007.485
9.470733166,-39.3759,6.295691,-12.70664,-1.01447,0.331016,-0.1563304,23.98157,-59.2908,-3.958302,1007.476
9.503015041,-21.65144,10.93321,-21.1774,-1.033906,0.35989,-0.1875478,22.82001,-58.58361,-6.565349,1007.473
9.537780285,-10.99197,19.91473,-29.03875,-0.9683064,0.438571,-0.158719,23.10822,-57.16335,-9.203689,1007.471
9.570062160,-12.97512,24.20004,-30.92791,-0.9643793,0.4041298,-0.1864793,23.10822,-57.16335,-9.203689,1007.471
9.604826927,-22.02328,25.08058,-30.13568,-1.017368,0.3158716,-0.1960522,23.7965,-56.45919,-10.53113,1007.468
9.637108803,-22.33315,24.78707,-25.86983,-0.9864796,0.3538359,-0.1577113,25.24562,-55.3816,-10.56704,1007.468
9.669390678,-32.00104,22.20414,-26.17454,-1.023424,0.233246,-0.1539664,25.24562,-55.3816,-10.56704,1007.464
9.704155922,-30.01788,16.50997,-29.16063,-1.034739,0.1107806,-0.1541549,25.55781,-53.95007,-12.33393,1007.457
9.736437797,-28.03472,11.10932,-31.23261,-1.013468,0.1352541,-0.09024766,25.89529,-53.23629,-13.22013,1007.457
9.771203041,-41.7309,6.824016,-38.60644,-0.9612783,0.1763154,-0.01277647,25.49392,-51.79115,-14.54026,1007.452
9.803484917,-61.87234,2.127794,-44.88334,-0.9294142,0.2162706,0.04104374,25.49392,-51.79115,-14.54026,1007.447
9.838250160,-76.06432,-6.853731,-46.95532,-0.9268931,0.16735,0.02577354,25.07592,-47.80002,-16.32842,1007.445
9.870532036,-76.93195,-15.18953,-50.06329,-0.9201995,0.2027272,0.0351456,25.02203,-44.54192,-18.11287,1007.443
9.902813435,-72.77971,-20.29667,-55.9136,-0.8477237,0.2359318,0.06176733,25.02203,-44.54192,-18.11287,1007.443
9.937578678,-71.23037,-23.58402,-62.67802,-0.7999719,0.2790663,0.04063837,25.32959,-40.55877,-19.91207,1007.439
9.969860554,-69.06129,-26.28435,-67.97986,-0.7769162,0.3483721,0.05210184,25.98529,-35.12718,-22.17097,1007.439
10.004625797,-66.70629,-24.87548,-72.42854,-0.8011528,0.3715135,0.04696783,25.98529,-35.12718,-22.17097,1007.439
10.036907673,-62.05826,-25.05159,-72.06289,-0.7904331,0.351847,0.0893755,26.28152,-31.51419,-24.40128,1007.437
10.071671963,-44.27182,-16.53969,-63.89683,-0.9414238,0.3714246,-0.003491427,27.30331,-27.90917,-26.64262,1007.437
10.103954792,-31.6292,-15.42434,-52.13528,-1.057949,0.3667311,-0.004717292,27.30331,-27.90917,-26.64262,1007.435
10.136236667,-17.56117,-15.83526,-32.08578,-1.090258,0.345995,0.04406175,28.71185,-24.29687,-28.01802,1007.433
10.171000957,-6.46789,-14.13287,-10.57371,-1.091121,0.3102585,0.06658202,30.45986,-21.06434,-30.26578,1007.428
10.203283310,6.794474,-12.43049,4.905225,-1.208122,0.2792087,-0.0005403324,30.45986,-21.06434,-30.26578,1007.427
10.238048076,14.66513,-15.89396,14.5948,-1.140297,0.2188539,-0.01795004,30.07178,-20.34259,-31.14095,1007.425
10.270329952,13.11579,-16.8332,18.25124,-1.005083,0.3152538,0.03983587,30.40993,-19.99333,-32.02253,1007.425
10.302612305,-31.87709,-27.86933,13.13222,-0.9567755,0.3616224,0.1158953,30.40993,-19.99333,-32.02253,1007.427
10.337377071,-99.98615,-31.21539,11.73058,-1.040235,0.08955816,0.1570708,30.75006,-20.73762,-32.89027,1007.428
10.369658470,-102.4031,-22.29256,22.02956,-1.000501,-0.175775,0.08102696,29.94061,-20.76908,-35.92933,1007.428
10.404423714,-83.19128,-13.25233,24.58907,-0.8706573,-0.1431266,-0.1051911,29.94061,-20.76908,-35.92933,1007.424
10.436705589,-54.55945,8.643804,35.74122,-0.7925279,-0.08071337,-0.1751033,29.49167,-18.61664,-38.93935,1007.424
10.471470833,-50.59314,9.524345,21.7858,-2.002478,-0.05774054,0.3449145,29.42844,-16.82224,-41.14106,1007.424
10.503752708,8.343816,-6.795028,13.74163,-1.076919,-0.898178,-0.2555217,29.42844,-16.82224,-41.14106,1007.419
10.536034584,40.94196,-2.451022,14.35103,-0.7217536,0.8230929,0.28915,30.164,-15.73103,-40.73021,1007.415
10.570799827,-11.6117,3.712769,11.36494,-0.9698153,0.04215528,0.389667,29.78791,-15.00364,-41.16965,1007.415
10.603081703,14.85105,5.767366,2.894182,-1.075284,-0.05904095,0.03350801,29.4391,-16.08757,-40.71457,1007.415
10.637846470,8.281842,1.540766,8.013201,-0.9771183,0.1743104,0.1230925,29.4391,-16.08757,-40.71457,1007.413
10.670128345,13.85947,4.593311,2.7723,-0.9694396,0.2317556,0.2176732,28.68892,-15.72634,-41.5796,1007.412
10.704893589,4.129607,4.3585,2.041012,-1.031152,0.09941277,0.05848579,28.71421,-16.44411,-40.69892,1007.412
10.737175465,6.05079,2.2452,3.503589,-0.9929714,0.1380455,0.1451587,28.71421,-16.44411,-40.69892,1007.41
10.769457340,7.848026,1.540766,5.636514,-1.01362,0.04866805,0.0634773,28.71488,-16.80862,-40.6943,1007.41
10.804222584,-0.1465758,-0.2203169,9.597659,-0.9933756,0.1051436,0.1469062,29.81717,-17.9085,-40.26128,1007.404
10.836504459,-0.02262847,-1.394372,14.83856,-1.012799,0.1291831,0.1171116,29.81717,-17.9085,-40.26128,1007.402
10.871269703,0.5351345,0.0144942,16.42302,-0.9750553,0.1230507,0.131982,29.10228,-17.16586,-39.82375,1007.399
10.903551578,-1.695917,4.064986,15.56985,-0.9810166,0.2034956,0.1706439,28.72819,-17.53202,-40.24934,1007.396
10.938316345,1.030924,10.52229,11.66964,-0.9659763,0.164165,0.1186599,28.72819,-17.53202,-40.24934,1007.396
10.970598221,-0.8282861,15.68814,12.27905,-0.9769752,0.1284797,0.1648908,28.01594,-18.24744,-39.79335,1007.392
11.002880096,-1.943812,21.38231,12.09623,-0.9790065,0.1627676,0.1457526,28.03991,-18.23617,-38.9219,1007.389
11.037645340,-1.509996,27.07647,14.35103,-0.9939744,0.1525541,0.1433096,28.03991,-18.23617,-38.9219,1007.381
11.069927216,-3.369206,29.07237,14.8995,-0.9679132,0.1421583,0.05230784,27.68912,-18.22655,-38.48066,1007.38
11.136974335,-26.36143,25.25669,11.48682,-0.9836803,0.2488935,0.003154523,28.4393,-18.58777,-37.61562,1007.373
11.169256210,-37.57867,22.38025,4.844285,-1.006006,0.2895356,0.01987064,29.17618,-18.2256,-37.19554,1007.375
11.204021454,-32.37288,16.09905,1.614427,-0.9768571,0.2105302,-0.04203812,29.90107,-17.86906,-37.21119,1007.377
11.236303329,-27.10512,11.57894,1.187842,-1.050367,0.2303102,0.002225706,29.90107,-17.86906,-37.21119,1007.377
11.271068096,-34.97577,7.821964,0.2127908,-0.9735478,0.2561618,-0.002627253,30.26253,-17.14402,-37.22594,1007.377
11.303349972,-32.86867,10.22878,-3.504592,-0.9976817,0.2499196,0.03219685,30.99637,-16.05362,-36.87733,1007.373
11.338115215,-11.67368,8.350289,-1.981074,-1.004754,0.1612203,-0.003583265,30.99637,-16.05362,-36.87733,1007.371
11.370397091,-17.68512,7.821964,-0.8841419,-1.007832,0.2367147,-0.0002467444,31.34755,-15.3334,-37.26556,1007.371
11.402678966,-32.80669,12.04856,-5.149991,-0.9854906,0.2278998,0.09295865,31.33358,-14.24549,-37.71513,1007.368
11.437444210,-12.29341,15.74684,-5.820339,-0.9626598,0.1653578,0.03937558,30.59604,-14.24315,-38.13983,1007.368
11.469726086,0.9069765,18.56457,-7.100094,-1.004241,0.1632999,0.03848662,30.59604,-14.24315,-38.13983,1007.368
11.504491329,2.580265,18.91679,-7.831382,-0.9651636,0.1850298,-0.0083676,32.0445,-12.80104,-38.18036,1007.366
11.536772728,-3.493154,18.50587,-6.551627,-1.040595,0.1867777,2.336712E-05,32.79469,-13.16226,-37.31532,1007.366
11.571537971,-3.679075,17.91884,-5.515635,-0.9806576,0.1721954,-0.0698039,32.79469,-13.16226,-37.31532,1007.366
11.603819847,-10.86802,16.15776,-6.368805,-1.023305,0.212727,-0.06851465,33.15746,-13.16625,-37.32084,1007.362
11.636101723,-17.56117,10.93321,-6.917272,-1.00342,0.1690516,-0.1215007,33.16509,-11.70336,-36.96582,1007.362
11.670866966,-16.3217,4.828122,-5.576576,-1.044922,0.1560796,-0.05863793,33.16509,-11.70336,-36.96582,1007.362
11.703148842,-18.61473,-4.035998,-4.479643,-1.029511,0.1734584,-0.08419459,34.25342,-11.71532,-36.98236,1007.362
11.737914085,-28.15867,-17.30283,-5.576576,-1.02092,0.1730148,-0.2224791,34.24182,-10.99112,-37.36507,1007.36
11.770195961,-32.49683,-24.58197,-8.136086,-1.06401,0.2019865,-0.2048177,34.24182,-10.99112,-37.36507,1007.361
11.804960251,-48.85787,-31.5676,-13.43793,-1.079986,0.2321607,-0.1407978,34.21653,-10.27336,-38.24576,1007.361
11.837242126,-63.29773,-36.02901,-23.18844,-1.02629,-0.01432305,-0.2356187,33.46436,-8.818588,-39.12465,1007.367
11.869524479,-55.17918,-18.35948,-18.92259,-1.027258,-0.1823871,-0.1340832,33.46436,-8.818588,-39.12465,1007.368
11.904289246,-50.71708,1.129847,-7.161035,-0.9447659,-0.138485,-0.2437519,33.07442,-7.064042,-40.01289,1007.37
11.936571121,-31.81512,20.03214,-10.93936,-0.9872386,-0.1768829,-0.257415,32.35821,-5.592368,-39.5846,1007.375
11.971336365,-24.37828,35.76449,-16.5459,-0.9588219,-0.1059217,-0.1903582,32.35821,-5.592368,-39.5846,1007.375
12.003617764,-30.2038,45.50915,-24.22443,-0.9855304,-0.04587265,-0.1551517,31.65397,-4.115059,-38.72058,1007.375
12.038383007,-39.68577,47.27023,-34.82812,-0.9870853,0.01526364,-0.1059734,32.08563,-3.357013,-36.18321,1007.378
12.070664883,-49.22971,49.26612,-47.68661,-0.9488609,0.03501992,-0.02037477,32.08563,-3.357013,-36.18321,1007.382
12.102946758,-59.70326,48.38559,-45.55368,-0.9075242,0.1650741,0.05182455,33.61732,-1.510946,-33.17826,1007.385
12.137712002,-84.24484,51.96645,-23.49314,-0.8836074,0.1157329,0.1800871,33.33447,0.7195778,-30.15036,1007.385
12.169993877,-81.82787,49.50094,-8.867374,-0.9657287,0.08749228,0.1984742,33.33447,0.7195778,-30.15036,1007.383
12.204759121,-54.4355,33.9447,-4.662466,-0.9968036,0.1582195,0.2468038,34.50273,2.934149,-27.14451,1007.388
12.237040996,-56.97642,7.293638,2.528538,-1.111249,0.297268,0.2488079,34.56001,4.420385,-24.98434,1007.386
12.269322872,-51.33682,-65.08688,6.428743,-1.533082,0.1218836,0.1167411,34.56001,4.420385,-24.98434,1007.39
12.304087639,31.70789,-43.36686,33.30359,-0.9939449,-0.2924549,-0.5123464,36.05774,5.156001,-23.27273,1007.39
12.336369514,54.70012,-46.302,15.81361,-0.8665106,-0.4420053,-0.6256291,35.6357,4.767302,-25.44123,1007.393
12.371134758,-7.1496,-43.60167,34.52241,-0.8976998,0.09346134,0.6175029,34.12665,3.661535,-27.58396,1007.398
12.403416633,-8.265125,-40.13821,38.78825,-1.098864,0.3903558,0.2899194,34.12665,3.661535,-27.58396,1007.398
12.438181877,-44.58169,-39.14026,12.9494,-0.9493411,0.4781616,0.0841515,33.00368,2.927565,-28.86536,1007.398
12.470463753,-16.44565,-16.8332,9.780481,-0.9258788,-0.005393819,0.1727214,32.6076,1.456587,-30.14856,1007.398
12.502745628,-20.16407,-3.03805,14.83856,-1.015233,0.0992995,0.01155728,32.6076,1.456587,-30.14856,1007.398
12.537510872,-18.55275,1.83428,6.916268,-0.990469,0.2702965,0.04148251,31.86675,3.281508,-30.59633,1007.398
12.569792747,-21.89933,3.595364,-4.296821,-0.9743403,0.1860255,0.007611316,31.8794,2.922626,-30.15599,1007.401
12.604557514,-22.02328,-2.685834,-1.61543,-1.081417,0.06564859,-0.009279279,31.8794,2.922626,-30.15599,1007.403
12.636839390,-19.91617,-9.612761,0.2127908,-1.047275,0.1323962,-0.04813188,31.90205,3.662928,-29.29377,1007.404
12.671604633,-22.51907,-15.71785,-2.042015,-1.000459,0.1898288,0.009622989,31.53993,3.302401,-29.28364,1007.404
12.703886509,-15.63999,-19.24002,-1.432608,-1.002116,0.08102288,0.03366327,31.53993,3.302401,-29.28364,1007.408
12.736168384,-8.636968,-19.82705,-0.640379,-1.011358,0.1056934,0.03865785,30.80173,3.669259,-29.71295,1007.411
12.770933628,-9.256703,-21.41202,-2.40766,-1.024961,0.1361749,0.04852926,31.11392,5.100795,-31.47984,1007.415
12.803215504,-8.451046,-26.63657,-4.418703,-1.025386,0.113939,0.05613876,31.11392,5.100795,-31.47984,1007.418
12.837979794,-9.87644,-28.92598,-6.734449,-1.026393,0.1518842,0.1158196,31.11458,4.736279,-31.47522,1007.418
12.870261669,-12.97512,-25.99084,-8.684552,-1.033558,0.1199798,0.1320906,30.70387,4.71773,-33.21261,1007.423
12.902543545,-17.4992,-28.80857,-9.598663,-1.072308,0.1298565,0.08050232,30.70387,4.71773,-33.21261,1007.429
12.937309265,-23.1388,-35.38328,-13.92545,-1.067276,0.04956436,0.08776996,30.32778,5.445115,-33.65205,1007.432
12.969590664,-12.72723,-43.19075,-18.31318,-1.123768,0.01211555,0.08042721,29.95302,5.443469,-34.08227,1007.435
13.004355907,-9.256703,-54.16817,-22.70091,-1.115092,0.01789024,0.06352099,29.95302,5.443469,-34.08227,1007.435
13.036637783,-11.05394,-67.43499,-27.33241,-1.16834,0.04633091,0.07588343,28.12384,7.280356,-34.5135,1007.435
13.071402550,-1.695917,-88.97891,-38.60644,-1.393905,0.1424577,0.0725652,27.37365,7.641579,-35.37853,1007.442
13.103684425,-2.315654,-117.8607,-43.72546,-1.427146,0.04073963,-0.07007251,27.37365,7.641579,-35.37853,1007.449
13.135966301,-1.757891,-147.5643,-46.40685,-1.515468,0.1378878,-0.1737525,25.17236,8.018757,-36.22151,1007.454
13.170731544,9.025526,-169.4017,-47.44284,-1.687542,0.1830768,-0.5453725,21.84717,9.120832,-38.3021,1007.454
13.203013420,-10.92999,-162.827,-84.79949,-1.556383,-0.0197377,0.1860847,21.84717,9.120832,-38.3021,1007.461
13.237778663,83.45589,-102.9502,-70.53937,-0.4718554,-0.3833166,0.2232557,17.45723,9.516306,-39.54772,1007.468
13.270060539,103.5973,-14.19158,-6.429746,-0.2146019,0.5070801,-0.1435169,12.36306,11.38909,-39.92931,1007.471
13.304825783,4.873291,46.5658,6.794387,-0.501743,0.5119868,-0.0234608,10.13044,9.197752,-42.04715,1007.469
13.337107658,-7.211574,132.448,-12.40194,-0.1539297,0.0308656,-0.06223707,10.13044,9.197752,-42.04715,1007.469
13.369389057,-41.60695,160.7427,-4.723406,-0.4318219,0.1757657,-0.05162891,10.14573,7.38081,-41.58834,1007.467
13.404154301,-48.85787,173.6573,-0.3356755,-0.5625358,0.09318311,0.1086849,14.15827,8.441753,-40.79141,1007.464
13.436436176,-30.51367,212.7534,23.91872,-0.823142,-0.159565,0.001936376,14.15827,8.441753,-40.79141,1007.46
13.471201420,37.59539,226.6072,49.39194,-1.054726,-0.1327209,0.1224809,19.32707,11.71163,-37.42435,1007.458
13.503483295,56.24946,238.4065,64.74899,-1.380533,0.05388949,0.2011109,24.5121,11.7057,-33.64228,1007.458
13.538248539,65.5455,234.0038,69.38049,-1.553718,0.09852443,0.2384793,24.5121,11.7057,-33.64228,1007.457
13.570530414,53.21275,205.5329,52.37803,-1.681047,0.2226133,0.4067291,30.45366,8.787739,-28.9006,1007.457
13.602812290,29.84868,155.5182,46.28396,-1.592269,0.1590706,0.5734463,35.68099,6.247903,-23.71679,1007.458
13.637576580,8.653685,85.54445,35.68028,-1.392648,0.03180202,0.6912183,35.68099,6.247903,-23.71679,1007.46
13.669858456,8.591711,7.880667,18.25124,-1.198133,-0.01792659,0.7035692,40.91965,4.078218,-18.10186,1007.462
13.704623699,19.74697,-54.10947,9.902363,-1.450844,-0.03210927,0.3018122,42.43465,1.903342,-15.91759,1007.462
13.736905575,20.49065,-140.2851,-62.06861,-0.8261645,-0.9456205,0.5273223,42.43465,1.903342,-15.91759,1007.462
13.771670818,102.4198,-104.6526,-1.310727,-1.067975,-0.2615403,0.1053401,43.07697,1.491407,-18.97409,1007.464
13.803952694,84.32352,-93.0294,38.97108,-0.9714934,0.2664389,0.1724316,42.22892,2.901102,-23.33879,1007.467
13.836234093,-47.43248,-19.24002,19.53099,-1.04023,0.07301028,0.7008453,42.22892,2.901102,-23.33879,1007.467
13.870999336,-16.25973,-42.48632,3.747352,-0.9492699,0.1105355,-0.2988887,40.72119,1.066304,-25.47229,1007.467
13.903281212,-24.68814,-34.50274,5.819336,-0.9966142,0.1897432,-0.01890867,40.30047,-0.05142736,-27.63156,1007.464
13.938046455,2.332371,-28.57376,9.110133,-0.9784214,0.06496701,-0.01192233,40.30047,-0.05142736,-27.63156,1007.464
13.970328331,-4.546706,-19.41613,0.3956129,-1.014521,0.1984224,-0.01301946,39.9124,0.6703238,-28.50673,1007.462
14.002610207,-7.397494,-17.88985,2.223834,-0.9904291,0.0408343,0.01697266,38.78812,0.6653857,-29.79737,1007.46
14.037375450,1.774608,-14.83731,4.905225,-1.010323,0.06199677,-0.004618881,38.78812,0.6653857,-29.79737,1007.46
14.069657326,2.022502,-15.60044,3.077004,-1.004693,0.1360626,-0.001792687,38.42534,0.669374,-29.79185,1007.457
14.104422092,1.774608,-19.06391,1.553486,-1.012425,0.1336159,-0.00324025,36.95026,0.6740589,-30.64124,1007.457
14.136703968,0.6590818,-26.28435,-0.09191272,-1.041928,0.1295979,-0.02157018,36.95026,0.6740589,-30.64124,1007.457
14.171469211,-0.5803914,-31.03928,-5.576576,-1.019637,0.1235064,0.01847255,37.31238,1.034587,-30.65137,1007.457
14.203751087,-1.076181,-35.26587,-9.172078,-1.035085,0.1137918,0.0208678,36.91497,0.2926397,-31.9438,1007.457
14.236032963,-3.988943,-38.49453,-12.21911,-1.022497,0.1241557,0.06972691,36.91497,0.2926397,-31.9438,1007.457
14.270798206,-3.988943,-41.72318,-13.98639,-1.060641,0.1008245,0.07161021,36.53954,0.655509,-32.37863,1007.457
14.303080082,-5.662232,-50.82211,-17.64284,-1.125987,0.119416,0.04381732,35.39063,1.003819,-34.54533,1007.454
14.337844372,-8.141178,-62.73877,-18.55695,-1.144609,0.02163148,0.0500696,34.62845,1.359406,-35.8461,1007.458
14.370126247,-1.509996,-72.77695,-21.36022,-1.160765,0.1277792,0.113555,34.62845,1.359406,-35.8461,1007.458
14.404891491,-10.92999,-85.86767,-27.21053,-1.263261,0.1148466,0.09678201,32.76768,1.722132,-37.5038,1007.461
14.437173366,-21.89933,-108.7617,-33.12178,-1.447998,0.08783421,-0.006912753,30.9032,3.1776,-39.23759,1007.463
14.469455242,-27.47696,-148.1513,-41.95818,-1.677019,0.1680217,-0.1413261,30.9032,3.1776,-39.23759,1007.466
14.504220486,-29.58406,-191.9436,-42.08006,-1.856293,0.2285587,-0.404553,27.93974,3.910366,-41.38133,1007.472
14.536502361,-31.81512,-202.5101,-63.28743,-2.143896,0.5007595,-0.6629589,23.51186,5.382484,-43.94797,1007.472
14.571267128,22.28789,-154.4325,-80.59459,-0.4223124,0.0740172,0.04639355,23.51186,5.382484,-43.94797,1007.478
14.603549004,65.60748,-51.93746,-10.02525,-0.08924527,0.4302299,-0.2220577,17.69412,6.169697,-44.30468,1007.485
14.638314247,-18.49078,37.11465,3.016063,-0.1401858,0.259425,0.2556852,11.88771,7.327059,-44.23028,1007.487
14.670596123,-52.01853,111.902,7.464735,-0.193389,0.169303,-0.01833883,11.88771,7.327059,-44.23028,1007.482
14.702877998,-24.75012,191.2681,19.04347,-0.1636164,0.1612476,0.2928857,9.726999,5.169531,-43.73376,1007.478
14.737643242,-44.45774,171.0744,20.4451,-0.6752489,0.2226058,-0.161062,13.77482,6.611893,-41.63427,1007.478
14.769925117,-19.8542,197.7842,40.06801,-0.8467023,-0.2406879,-0.06905615,13.77482,6.611893,-41.63427,1007.473
14.804690361,38.58696,217.3322,54.45002,-1.124571,-0.03362947,0.1483337,18.95826,8.429344,-37.81302,1007.468
14.836972237,81.41076,223.496,67.3085,-1.347102,0.02982449,0.2115377,24.1566,7.700013,-33.58599,1007.468
14.869254112,92.19418,213.81,73.15881,-1.48198,0.2225457,0.218242,24.1566,7.700013,-33.58599,1007.466
14.904018879,90.21101,192.2074,74.43857,-1.597959,0.402294,0.2364343,28.69434,5.18506,-27.08396,1007.466
14.936300755,61.0834,167.4348,76.26679,-1.443584,0.398853,0.3757958,32.85995,1.210398,-20.99368,1007.466
14.971065998,3.014081,131.6848,61.64102,-1.443287,0.5041225,0.4518102,32.85995,1.210398,-20.99368,1007.464
15.003347874,-57.59616,76.0933,46.58867,-1.271923,0.2381378,0.5006896,34.84957,-3.104851,-14.86569,1007.466
15.038112164,-80.83629,13.16392,40.37271,-1.153301,-0.03156353,0.4969666,34.58665,-5.24288,-11.34667,1007.468
15.070394039,-59.57932,-30.74576,25.56412,-1.030653,-0.1618679,0.4978952,34.58665,-5.24288,-11.34667,1007.468
15.102675915,-22.45709,-48.88492,18.79971,-0.918736,-0.2715724,0.4462691,33.88771,-6.681697,-10.44572,1007.471
15.137441158,100.3127,-110.6402,-128.5549,-1.854375,-1.35314,-2.620932,33.48898,-6.694612,-11.74738,1007.473
15.169723034,212.609,-60.68417,17.82465,-1.402538,-1.033409,-2.044796,33.41706,-6.728419,-14.36174,1007.473
15.204488277,162.6582,-123.0852,1.309723,-0.6353052,0.5087801,0.428824,33.41706,-6.728419,-14.36174,1007.474
15.236770153,22.9696,-34.26793,52.68274,-1.352387,0.8839561,0.3614372,31.91669,-6.005972,-16.09182,1007.474
15.271535396,16.77223,-45.94978,-56.46207,-0.8403001,0.01533803,0.2205153,30.76097,-8.518672,-18.65809,1007.473
15.303817272,-62.98787,-45.30405,7.769438,-1.013975,-0.03045447,-0.008037313,30.76097,-8.518672,-18.65809,1007.469
15.336099148,12.3721,-30.27614,7.769438,-0.9655504,0.1155498,-0.09046298,31.06316,-8.186317,-20.84686,1007.471
15.370863914,-14.95828,-15.71785,-3.687414,-0.9841273,0.2412246,0.02535006,29.59951,-7.872235,-21.26437,1007.469
15.403145790,-3.741048,-14.95471,0.3346722,-0.9944008,0.07167017,-0.0195848,29.59951,-7.872235,-21.26437,1007.469
15.437911033,-2.501575,-16.42229,-0.457557,-1.020187,0.1378886,-0.02108646,29.22596,-8.54216,-21.68612,1007.468
15.470192909,2.270397,-18.71169,0.5174944,-0.9930943,0.1375361,-0.005193378,28.48776,-8.175302,-22.11543,1007.466
15.504958153,2.022502,-17.36153,-1.249786,-0.9937882,0.2446598,0.0476286,28.48776,-8.175302,-22.11543,1007.464
15.537240028,-3.679075,-20.23796,-2.346719,-1.018756,0.1544282,0.003176433,28.11245,-7.873184,-22.54949,1007.464
15.569521904,0.2252662,-23.1144,-3.992118,-1.013946,0.1680166,0.01049491,28.08782,-7.519938,-23.42556,1007.464
15.604287147,-2.563549,-27.45841,-5.454695,-1.011061,0.1894602,0.05266979,28.08782,-7.519938,-23.42556,1007.464
15.636569023,-3.741048,-29.3369,-8.257968,-1.027335,0.1168043,0.04649048,28.06451,-7.895723,-24.29239,1007.462
15.671333313,-2.129733,-34.79625,-11.36594,-1.041462,0.1656885,0.0608186,28.76543,-7.550453,-25.1795,1007.462
15.703615189,-8.203152,-41.95799,-13.07228,-1.063691,0.162262,0.0680986,28.76543,-7.550453,-25.1795,1007.462
15.738380432,-7.955257,-51.17433,-13.80357,-1.105266,0.1612047,0.0768841,26.5648,-7.537791,-26.01786,1007.466
15.770662308,-13.84275,-57.33812,-15.02239,-1.120184,0.1453347,0.1188852,26.52752,-6.825664,-27.33427,1007.466
15.802944183,-14.71039,-64.08894,-16.11932,-1.100464,0.2001736,0.1481608,26.52752,-6.825664,-27.33427,1007.468
15.837708950,-22.14722,-73.30527,-22.15245,-1.210104,0.1324529,0.1064363,26.14011,-6.468428,-28.20482,1007.474
15.869990826,-28.53051,-90.27037,-29.16063,-1.333749,0.04912604,0.0409648,24.24338,-6.122607,-31.1697,1007.476
15.904756069,-28.65446,-125.8443,-34.40153,-1.51733,0.1464891,-0.06154183,24.24338,-6.122607,-31.1697,1007.477
15.937037945,-48.11419,-162.1813,-31.72014,-1.654208,0.0995333,-0.2360352,23.11407,-4.305771,-32.54566,1007.477
15.969319820,-36.58709,-171.3976,-39.39867,-1.831598,0.3968264,-0.4660131,20.12769,-3.218953,-35.50323,1007.488
16.004085064,-93.85075,-164.1772,-92.23426,-1.364339,-0.6647537,0.1820033,20.12769,-3.218953,-35.50323,1007.495
16.036366940,114.1948,-74.12711,-58.8997,-0.1782588,-0.233084,0.753326,16.42404,-1.025781,-38.09013,1007.503
16.071132183,-2.129733,-23.29051,-7.770442,-0.2595803,0.4116722,0.1581867,11.32788,1.94055,-38.48557,1007.507
16.103414058,-44.58169,50.20537,26.47824,-0.2476635,0.2712826,0.1327074,9.141223,0.8652983,-38.87435,1007.507
16.138178825,-49.60155,138.0247,20.99357,-0.179399,-0.0139968,0.001376655,9.141223,0.8652983,-38.87435,1007.503
16.170460701,-41.48301,114.3675,25.62506,-0.346941,0.1013427,0.04928711,9.478706,1.579072,-39.76055,1007.501
16.202742576,-53.13405,159.1577,47.44183,-0.5121741,-0.1614093,0.05153331,12.74039,3.365755,-39.83327,1007.496
16.237507343,-15.1442,181.5235,64.74899,-0.8150151,-0.06414928,0.1624796,12.74039,3.365755,-39.83327,1007.489
16.269789219,-17.62315,199.3104,69.6852,-0.9447677,0.05257712,0.3021698,16.78756,5.172632,-37.73839,1007.489
16.304553985,-41.66893,217.6844,69.74613,-1.193201,0.1944729,0.2580689,21.57623,4.790074,-35.19111,1007.484
16.336835861,-78.48129,213.6339,72.85411,-1.415972,0.1445879,0.2916226,21.57623,4.790074,-35.19111,1007.482
16.371601105,-84.18287,193.0292,92.5989,-1.54216,-0.09461316,0.2131843,26.77589,3.331714,-30.95484,1007.479
16.403882980,-63.79353,154.2267,92.35513,-1.539945,0.007661562,0.2606546,31.63846,1.889414,-25.77936,1007.477
16.436164856,-67.8838,113.1348,63.65206,-1.464874,-0.04586153,0.2539038,31.63846,1.889414,-25.77936,1007.477
16.470930099,-78.04747,52.02516,27.57517,-1.27832,-0.1820124,0.3320115,33.97424,0.1161532,-20.12493,1007.479
16.503211975,-71.54024,2.010389,11.42588,-1.090873,-0.3184669,0.3197125,34.02351,-0.5903397,-18.37279,1007.479
16.537977219,-27.10512,-33.7396,-3.382711,-0.9916673,-0.3510857,0.3207636,34.02351,-0.5903397,-18.37279,1007.479
16.570259094,26.56407,-61.79953,-39.45961,-1.516952,-0.2570497,-0.7609558,35.08588,0.4799728,-19.27463,1007.481
16.602540493,-28.46854,-78.58852,-53.65879,-1.812151,-0.3545582,-0.1531915,34.68384,2.289636,-20.59938,1007.481
16.637305736,70.2555,-82.87383,-29.22157,-0.7324206,-0.01444898,0.1930408,34.68384,2.289636,-20.59938,1007.482
16.669587612,45.96183,-39.72729,-2.529541,-1.198992,0.5643833,0.7489412,33.14684,3.359695,-23.64125,1007.482
16.704352856,52.84091,-9.495356,16.60584,-0.7708081,-0.0417223,-0.1115979,32.73613,3.341146,-25.37864,1007.48
16.736634731,-23.20078,-36.79215,-7.404797,-0.9382927,0.4598097,-0.05714076,32.73613,3.341146,-25.37864,1007.475
16.771399021,-32.43485,-26.04954,-7.770442,-0.928762,0.09431453,-0.1046827,31.98727,2.973338,-26.23445,1007.473
16.803681850,5.493027,-24.17105,4.722403,-0.984944,0.1744086,0.01578657,31.2384,2.605531,-27.09026,1007.473
16.835962772,-4.484733,-14.48509,-1.61543,-0.9842479,0.2876375,0.01256138,31.2384,2.605531,-27.09026,1007.469
16.870728016,-5.786179,-11.78476,0.6393758,-1.019158,0.1029633,-0.04642607,31.57588,3.319304,-27.97646,1007.466
16.903009891,-1.509996,-13.13493,0.5174944,-1.022662,0.1508396,-0.05291444,31.21311,3.323294,-27.97094,1007.463
16.937775135,2.642239,-13.54585,0.5174944,-0.9303481,0.2066319,0.05356035,31.1898,2.947508,-28.83778,1007.459
16.970057011,-2.935391,-8.380002,1.492546,-0.9542008,0.266012,0.03171121,31.1898,2.947508,-28.83778,1007.459
17.004822254,-6.777758,-5.738379,2.284775,-0.9807314,0.233462,0.01659671,30.10147,2.959473,-28.82123,1007.452
17.037104130,-4.484733,-5.327459,2.101953,-0.9870107,0.2334719,0.02482875,30.11412,2.600592,-28.38089,1007.454
17.069385529,-9.87644,-2.920645,0.3956129,-0.9738861,0.2064288,0.03044797,30.11412,2.600592,-28.38089,1007.454
17.104150772,-8.51302,-0.2203169,-0.03097201,-0.9999188,0.1749168,0.03564273,29.75002,3.333612,-28.38461,1007.451
17.136432648,-7.1496,1.658172,-3.199889,-1.001032,0.2305053,0.01807396,29.7134,3.681225,-29.6964,1007.451
17.171197891,-9.752493,0.4254136,-5.576576,-0.9952096,0.220343,0.01316925,29.7134,3.681225,-29.6964,1007.449
17.203479767,-11.48776,-1.687886,-6.551627,-1.001411,0.1815829,0.004743767,30.82438,4.409559,-28.85073,1007.449
17.238245010,-13.28499,-5.386162,-7.465738,-1.020297,0.1921656,0.00194401,30.81306,4.03941,-29.28184,1007.447
17.270526886,-13.40894,-9.260544,-10.02525,-1.002901,0.1994972,0.008716347,30.81306,4.03941,-29.28184,1007.449
17.302808761,-14.02868,-11.90217,-11.24406,-1.013474,0.1728572,0.01052142,30.8124,4.403925,-29.28645,1007.449
17.337573051,-12.85118,-19.82705,-11.24406,-1.040544,0.1645088,-0.002520555,30.44697,5.865976,-29.2994,1007.452
17.369854927,-12.16947,-29.74782,-10.57371,-1.042042,0.1750577,-0.03001335,30.44697,5.865976,-29.2994,1007.454
17.404620170,-20.59788,-36.85085,-9.050197,-1.060623,0.2821467,0.02768136,29.33533,5.502157,-30.14969,1007.456
17.436902046,-46.06906,-38.43583,0.1518501,-1.049475,0.4996997,0.0985095,29.3107,5.855404,-31.02576,1007.457
17.471667290,-127.4405,-42.89724,23.24838,-1.13254,0.8897584,0.1739056,29.3107,5.855404,-31.02576,1007.457
17.503949165,-207.8823,-34.79625,25.50318,-1.261232,0.6844041,0.08938044,28.90998,6.936036,-32.34128,1007.461
17.536230564,-255.54,-24.87548,38.11791,-0.9572029,0.5230678,0.06170216,28.1931,8.772226,-31.9176,1007.463
17.570995808,-333.9987,8.761209,49.27006,-0.6573517,0.4708786,-0.02722668,28.1931,8.772226,-31.9176,1007.463
17.603277683,-360.5234,39.28665,65.11464,-0.685024,0.07803611,-0.1164197,28.23178,13.89798,-30.23931,1007.461
17.638042927,-322.2857,63.23739,69.19767,-0.8876341,-0.1487685,-0.184954,29.47732,19.79716,-24.22954,1007.457
17.670324802,-277.1689,52.20126,68.28355,-0.9659827,-0.3420289,-0.170414,29.47732,19.79716,-24.22954,1007.457
17.702606678,-240.5424,40.10849,68.58826,-0.9831869,-0.3935232,-0.07156477,32.59998,23.88198,-16.04563,1007.453
17.737371921,-213.4599,41.81087,61.88478,-0.97045,-0.2438078,-0.02819834,33.86611,25.04808,-9.540118,1007.455
17.769653797,-212.9021,56.54527,50.54981,-0.9457123,-0.07243177,-0.02921098,33.86611,25.04808,-9.540118,1007.453
17.804418564,-238.4973,75.27146,34.58335,-0.9339652,0.04737792,-0.09913713,35.48291,24.38036,-3.577267,1007.453
17.836700439,-260.5599,88.30347,21.54204,-0.9910598,0.03924589,-0.1657749,36.41751,21.55205,3.855985,1007.453
17.871465206,-266.4474,89.53623,18.06842,-1.064511,0.2214618,-0.1694149,35.89967,19.46872,11.30207,1007.455
17.903747082,-293.5299,77.97179,15.08232,-1.119992,0.1812645,-0.1318156,35.89967,19.46872,11.30207,1007.46
17.936028957,-299.9132,61.06539,5.453691,-1.184576,0.1042592,-0.09537295,34.65959,15.57079,18.78226,1007.466
17.970794201,-261.6135,20.14955,0.9440793,-1.310292,-0.3694575,0.3097433,32.99841,9.825289,24.05017,1007.471
18.003075600,-18.24289,-23.17311,31.59725,-1.052941,-1.381599,-0.1277936,32.99841,9.825289,24.05017,1007.471
18.037840843,160.5511,-36.08772,28.73304,-1.059234,0.6096993,-0.2779262,32.32072,3.288886,25.45146,1007.472
18.070122719,6.112764,-23.29051,14.96044,-0.9969259,0.4689482,0.4047215,32.63991,1.805101,23.78375,1007.471
18.104887962,-10.62012,-5.973189,13.43692,-0.94349,0.05968365,0.113183,32.63991,1.805101,23.78375,1007.469
18.137169838,4.129607,-5.56227,15.56985,-1.049946,0.2530218,-0.007798278,32.9754,3.612422,22.8837,1007.462
18.169451713,-8.822888,1.305955,16.8496,-0.9834594,0.1926342,0.1091907,32.59064,2.511595,22.03161,1007.462
18.204216957,-7.893284,4.828122,12.21811,-0.9615206,0.3184914,0.1016405,32.59064,2.511595,22.03161,1007.457
18.236498833,-15.57802,3.712769,7.525676,-1.008697,0.2156337,0.06296572,33.67831,2.864144,22.01045,1007.455
18.271263599,-16.19775,-0.2790197,6.002158,-0.9955964,0.2011957,0.0754248,33.65765,1.030297,21.16208,1007.452
18.303545475,-15.26815,-0.8073447,4.783344,-1.01377,0.1213458,0.08999654,33.65765,1.030297,21.16208,1007.446
18.338310242,-14.09065,-0.6899391,4.539581,-1.023524,0.1532279,0.08149695,32.21786,1.416401,21.61525,1007.446
18.370592117,-15.76394,-2.274914,2.833241,-1.013,0.1913888,0.05220149,32.55799,0.6721115,20.74751,1007.45
18.402873993,-18.55275,-4.857837,1.614427,-1.024598,0.1845446,0.04155192,32.55799,0.6721115,20.74751,1007.446
18.437639236,-18.36683,-8.027785,0.4565536,-0.9966321,0.2390246,0.1007809,32.93275,0.6737576,21.17772,1007.448
18.469920635,-23.69657,-6.677623,-0.457557,-0.9598508,0.2421938,0.1480967,33.28487,-0.06489658,20.74571,1007.45
18.504685879,-30.76156,-5.210053,-1.55449,-0.9836385,0.274966,0.1285133,33.28487,-0.06489658,20.74571,1007.45
18.536967754,-38.94209,-4.388215,-3.32177,-0.9859528,0.231896,0.1302072,34.33791,-0.4582815,19.4266,1007.45
18.569249630,-48.36208,-2.920645,-1.920134,-1.014972,0.2342278,0.1288326,34.34055,-1.916345,19.44506,1007.455
18.604014873,-52.20445,-3.155456,-4.845287,-1.027268,0.1063282,0.09670839,34.34055,-1.916345,19.44506,1007.455
18.636296749,-43.40419,-8.438705,-8.136086,-1.056368,0.1347152,0.07276058,34.32923,-2.286495,19.01395,1007.455
18.671061993,-41.29708,-19.94445,-9.476782,-1.079932,0.06970271,0.04343539,35.41955,-3.392008,19.01125,1007.453
18.703343868,-27.72486,-32.50684,-12.58476,-1.100616,0.02171633,0.0378893,35.41955,-3.392008,19.01125,1007.453
18.738109112,-15.63999,-44.77573,-16.48496,-1.113254,0.06098835,0.07053022,34.6587,-3.76545,17.71972,1007.458
18.770390511,-16.13578,-60.39066,-18.92259,-1.150177,0.1251606,0.04583587,35.69908,-3.799954,15.96027,1007.46
18.802672386,-14.71039,-77.64928,-24.89478,-1.330531,0.1153963,0.03021557,35.69908,-3.799954,15.96027,1007.463
18.837437630,-12.66526,-103.4198,-30.68415,-1.387265,0.1595283,-0.0366092,36.37604,-3.465953,14.20171,1007.467
18.869719505,-25.92762,-136.2346,-23.4322,-1.509813,0.1988646,-0.177769,36.62962,-2.791621,10.26542,1007.467
18.904484272,-44.20985,-165.0577,-28.55122,-1.59371,0.1858892,-0.5088174,38.66048,-1.789619,4.989762,1007.475
18.936765671,-73.21353,-151.967,-58.47311,-1.601772,-0.3171544,-0.003566246,38.66048,-1.789619,4.989762,1007.48
18.971530914,88.35181,-96.61028,-16.85061,-0.3109452,0.17905,0.5301894,39.91718,-0.4376636,-2.022393,1007.486
19.003812790,-53.07208,-23.81883,4.783344,-0.2886206,0.2575914,0.2685641,40.13558,1.679437,-7.159832,1007.487
19.036094666,-62.4301,18.68198,34.82711,-0.4903866,0.1675493,-0.1419525,40.13558,1.679437,-7.159832,1007.487
19.070859909,-53.56787,97.63721,4.600522,-0.2412679,-0.1337944,-0.3114726,38.64587,3.136551,-8.463413,1007.486
19.103141784,-52.20445,141.3708,20.74981,-0.2838108,-0.05031578,-0.06048497,39.07122,1.702672,-6.271832,1007.484
19.137907028,-41.29708,159.8035,31.71914,-0.5391761,-0.0346511,-0.07724933,39.07122,1.702672,-6.271832,1007.48
19.170188904,-28.28262,187.1003,45.55267,-0.7997529,-0.06058181,-0.08311988,37.75985,2.149147,-1.150157,1007.477
19.204954147,1.65066,211.3445,51.76862,-1.094812,0.01538779,0.02188732,37.60281,1.155375,6.276562,1007.477
19.237235546,10.265,234.5321,65.78499,-1.406898,0.1045642,0.03998734,37.60281,1.155375,6.276562,1007.474
19.269517422,4.439475,228.3096,71.45248,-1.619943,0.2083256,-0.005857067,34.21607,0.5789199,15.05548,1007.472
19.304282665,-10.92999,196.6688,60.60503,-1.805541,0.2203581,0.131908,30.43457,-2.197545,22.56044,1007.472
19.336564541,-31.07143,162.9147,43.66351,-1.575893,0.1143806,0.3667285,30.43457,-2.197545,22.56044,1007.468
19.371329307,-62.30616,101.4529,30.43938,-1.356059,0.02635689,0.4812961,24.39251,-4.989521,27.0484,1007.468
19.403610706,-68.93735,25.90242,20.4451,-1.171488,-0.1207523,0.4689427,20.45017,-6.017461,28.80358,1007.469
19.435892582,-34.10814,-37.37917,20.81075,-1.13099,-0.0717774,0.4638161,20.45017,-6.017461,28.80358,1007.469
19.470657825,-8.327099,-59.39272,13.01034,-1.196047,-0.05643456,0.1909007,17.1897,-8.472423,28.88476,1007.471
19.502939701,42.67723,-180.8488,-128.5549,-1.47137,-1.277329,1.150946,19.32146,-9.247118,27.18023,1007.473
19.537704945,168.2359,-123.1439,-14.96144,-0.9623959,-0.2136867,-0.1431029,19.32146,-9.247118,27.18023,1007.473
19.569986820,156.5848,-102.9502,16.8496,-1.115647,0.2682818,0.6958334,21.76237,-7.862051,23.63735,1007.475
19.604752064,19.12723,-60.39066,55.91259,-0.8818685,0.372411,0.09452388,24.59815,-4.337727,21.3692,1007.478
19.637033939,56.24946,-41.37096,-10.63465,-1.187643,0.4636639,0.14888,24.59815,-4.337727,21.3692,1007.473
19.669315815,-33.61235,-31.97852,3.198885,-0.8967274,0.3098726,0.07389589,26.72555,-3.655164,19.58397,1007.466
19.704080582,-10.06236,-26.93008,4.295818,-1.004695,0.1282362,-0.02649256,27.75263,-2.966271,17.37956,1007.466
19.736362457,-1.695917,-18.8291,2.467597,-1.020683,0.1730216,0.06516646,28.1054,-4.069442,16.95216,1007.464
19.771127701,-1.262102,-18.71169,2.833241,-1.009524,0.1380205,0.00886451,28.1054,-4.069442,16.95216,1007.459
19.803409576,-0.8902597,-19.59224,1.065961,-1.011984,0.1647182,0.0351273,28.45554,-3.714549,16.5063,1007.457
19.838174343,-2.315654,-23.29051,-0.09191272,-1.01633,0.1603307,0.02931046,28.08143,-4.080711,16.08071,1007.457
19.870455742,-1.509996,-26.28435,-1.127905,-1.006192,0.1759306,0.05451612,28.08143,-4.080711,16.08071,1007.457
19.902737617,-3.245259,-26.98878,-2.651423,-0.9843731,0.162067,0.08629721,29.13249,-3.380549,14.74775,1007.457
19.937502861,-1.633944,-23.29051,-3.199889,-0.9897128,0.1868878,0.1323765,29.1205,-3.386183,14.31202,1007.456
19.969784737,0.1013189,-19.53353,-3.260829,-1.001263,0.1621578,0.1274264,29.1205,-3.386183,14.31202,1007.454
20.004549980,-6.777758,-17.83115,-2.773304,-1.012042,0.2201841,0.1234286,29.82274,-3.769945,13.43415,1007.452
20.036831856,-15.20617,-23.29051,-4.601525,-1.049812,0.2330506,0.09651063,30.53697,-4.148072,12.99201,1007.454
20.071597099,-22.39512,-32.62425,-5.02811,-1.09082,0.1868944,0.07699903,30.53697,-4.148072,12.99201,1007.454
20.103878975,-29.08828,-41.78188,-6.003161,-1.076866,0.2252582,0.1047431,30.86379,-4.168964,11.67932,1007.456
20.136160850,-32.86867,-51.64395,-9.476782,-1.129389,0.148655,0.1068379,30.83982,-4.180234,10.80786,1007.459
20.170925617,-32.43485,-63.73672,-12.70664,-1.144871,0.1534632,0.1107661,30.83982,-4.180234,10.80786,1007.468
20.203207493,-37.57867,-78.1189,-18.61789,-1.200993,0.164904,0.1070846,31.51678,-3.846233,9.049309,1007.471
20.237972736,-52.26642,-100.3085,-21.36022,-1.334304,0.07326376,0.02418288,32.49724,-3.90891,5.111221,1007.471
20.270254612,-55.48905,-131.421,-29.64816,-1.515449,0.1697297,-0.05947999,32.49724,-3.90891,5.111221,1007.476
20.302536487,-62.4301,-163.9424,-25.0776,-1.68451,0.2139257,-0.2981665,33.50167,-3.960317,2.044587,1007.483
20.337300777,-88.89286,-181.788,-40.31278,-2.041301,0.2742149,-0.6272433,34.41956,-2.593104,-4.090599,1007.49
20.369582653,0.6590818,-171.9259,-66.57822,-0.5385932,-0.4724335,0.5434127,34.41956,-2.593104,-4.090599,1007.501
20.404347896,-15.70196,-47.35865,24.04061,0.1668717,0.4850682,0.3215707,35.69299,-1.962934,-10.5333,1007.501
20.436629772,-66.89221,14.63149,49.02629,-0.1804411,0.04286414,0.07373457,36.29142,1.982416,-14.95238,1007.506
20.471395016,-13.59486,79.90898,66.15063,-0.2445602,0.1333457,-0.01843299,36.29142,1.982416,-14.95238,1007.506
20.503676891,-32.31091,162.0929,57.8627,-0.1065721,-0.1958179,-0.1636999,36.29208,1.617901,-14.94776,1007.501
20.535958767,-24.13038,161.5645,70.66024,-0.5588001,-0.153109,-0.173118,36.35531,-0.1765056,-12.74605,1007.497
20.570724010,-8.079205,203.4196,75.2308,-0.7553881,-0.2451391,-0.1746679,37.60276,-1.937801,-7.075065,1007.497
20.603005886,-1.386049,222.3219,63.1036,-1.137427,0.1151824,0.232359,37.60276,-1.937801,-7.075065,1007.49
20.637770653,-63.91748,242.2222,52.43897,-1.301502,-0.03931613,0.1907418,37.84367,-4.378329,1.547289,1007.483
20.670052528,-48.73392,251.8494,69.56331,-1.59093,-0.2097953,-0.03391925,35.55989,-6.419179,10.76386,1007.48
20.704817295,-17.87104,213.1056,63.53018,-1.805806,-0.1207595,0.003308007,35.55989,-6.419179,10.76386,1007.48
20.737099171,-3.369206,167.4348,47.07619,-1.723609,-0.02183887,0.2787699,31.07868,-10.20919,19.16437,1007.48
20.769381046,-13.22302,121.0596,33.30359,-1.320323,-0.1442347,0.5198911,26.86117,-12.28644,24.05125,1007.478
20.804145813,-2.935391,57.83673,21.90768,-1.214471,-0.1626865,0.4117512,26.86117,-12.28644,24.05125,1007.476
20.836427689,8.343816,-10.3759,4.783344,-1.100235,-0.178478,0.5105202,23.28266,-12.95305,25.85854,1007.478
20.871192932,24.95276,-119.9153,-42.99417,-3.392335,0.7876824,-0.9051905,23.31823,-13.66599,27.11271,1007.478
20.903474808,2.518291,-123.0852,-41.65348,-0.6551944,-0.07496548,-0.7376058,23.31823,-13.66599,27.11271,1007.48
20.938240051,31.95578,-85.57415,-18.61789,-0.765148,-0.2625917,0.2530972,25.7382,-13.02041,22.76985,1007.48
20.970521927,32.3896,-45.71497,9.110133,-1.291013,0.2449888,0.8251571,28.91533,-10.90866,19.64243,1007.48
21.002803802,17.14408,-3.683781,38.97108,-0.7719511,-0.2022016,-0.1995269,28.91533,-10.90866,19.64243,1007.478
21.037569046,72.11471,0.1318997,37.02097,-1.144275,0.3014612,0.08598411,31.05405,-9.855946,18.2883,1007.473
21.069850922,-52.57629,-7.616867,-2.834244,-0.9878381,0.629287,0.1585764,31.41947,-11.318,18.30125,1007.468
21.104615688,-16.94144,-6.031892,-8.684552,-0.9253732,0.3283661,-0.01392306,31.41947,-11.318,18.30125,1007.468
21.136897564,-28.59249,-2.451022,-7.709501,-1.016932,0.1559288,-0.126864,30.69392,-11.31002,18.31228,1007.464
21.171662330,-12.47933,-5.033945,-2.042015,-1.037014,0.07911284,-0.07214545,30.69458,-11.67454,18.3169,1007.463
21.203944206,-10.00039,-6.325406,-4.296821,-1.004378,0.1641981,-0.1249103,30.69458,-11.67454,18.3169,1007.461
21.236226082,-3.121312,-10.66941,-3.748355,-0.9639447,0.258352,-0.07853538,30.68193,-11.31565,17.87655,1007.459
21.270990848,-6.219995,-13.72196,-3.931177,-0.9886056,0.2660997,-0.05619999,29.94572,-12.04234,17.46109,1007.459
21.303272724,-6.405916,-19.70964,-5.698457,-1.030064,0.1951585,-0.1063082,29.94572,-12.04234,17.46109,1007.457
21.338037968,-4.60868,-26.98878,-4.967169,-1.010634,0.1750559,-0.05715363,31.38352,-11.3349,16.99407,1007.457
21.370319843,-5.104469,-29.04338,-6.246924,-0.9999629,0.1776664,-0.009784784,31.36086,-12.0752,16.13185,1007.457
21.402601719,-9.070783,-31.39149,-7.587619,-1.018367,0.1843349,-0.02566068,31.36086,-12.0752,16.13185,1007.456
21.437366962,-8.760915,-36.26382,-9.29396,-1.0353,0.1886451,-0.0246328,32.41258,-11.73956,14.80351,1007.456
21.469648838,-7.707363,-45.71497,-10.14713,-1.048361,0.1910307,-0.02362421,33.11417,-11.7588,13.92102,1007.457
21.504414081,-15.20617,-48.76751,-12.40194,-1.036222,0.1927382,0.04162356,33.78046,-12.15947,11.73597,1007.455
21.571460724,-30.07985,-60.97769,-15.32709,-1.106664,0.1330754,0.05980682,34.81952,-11.46494,9.967286,1007.464
21.603742123,-28.65446,-73.951,-16.72873,-1.121848,0.01157654,0.06253278,35.48316,-10.40754,7.763774,1007.464
21.636023998,-12.66526,-87.21783,-19.04447,-1.231475,-0.06097857,0.02223109,35.48316,-10.40754,7.763774,1007.469
21.670789242,-1.262102,-110.8163,-29.64816,-1.534921,0.006456437,-0.09952492,36.47627,-10.8291,4.266028,1007.472
21.703071117,-9.318678,-151.4387,-30.07474,-1.585881,0.04218331,-0.2239391,37.11661,-10.14749,1.195678,1007.478
21.737836361,-7.83131,-185.6037,-32.93895,-1.865218,0.2608446,-0.5803218,37.11661,-10.14749,1.195678,1007.484
21.770117760,-84.24484,-169.343,-66.76105,-1.225727,0.08732115,-0.2036708,38.38937,-9.152802,-5.25164,1007.484
21.804883003,61.0834,-82.69772,-76.69438,-0.04042572,0.19778,0.2589872,39.30859,-8.51462,-11.37759,1007.49
21.837164879,6.484606,-14.30898,-43.29887,-0.1399359,0.5716485,0.2830822,39.30859,-8.51462,-11.37759,1007.497
21.869446754,-38.01248,49.50094,-2.163897,-0.3760104,0.1274132,0.0557827,39.95771,-6.065547,-14.03453,1007.497
21.904211998,-24.81209,127.2234,-25.19948,-0.2349297,-0.0001536843,0.1350041,39.95506,-4.607483,-14.05299,1007.495
21.936493874,-20.65986,106.3839,-29.7091,-0.5266432,0.2261247,0.03781451,39.95506,-4.607483,-14.05299,1007.493
21.971259117,-25.18394,151.9373,-7.587619,-0.6386244,-0.0293775,0.1352246,40.43769,-4.555126,-9.701239,1007.493
22.003540993,39.14473,165.028,16.30114,-0.9055808,0.001460536,0.1790013,41.3396,-4.480195,-3.300861,1007.488
22.038305283,82.65023,165.3215,33.913,-1.055199,0.1292049,0.3023601,41.3396,-4.480195,-3.300861,1007.483
22.070587158,101.924,168.4328,51.52486,-1.250077,0.3406443,0.3141346,41.20653,-5.462697,4.997313,1007.479
22.102869034,80.35721,154.9311,58.77681,-1.328794,0.5279514,0.3893353,37.48164,-6.38841,14.65782,1007.478
22.137634277,30.40644,130.276,67.79603,-1.348171,0.5321465,0.3584609,37.48164,-6.38841,14.65782,1007.478
22.169916153,-25.92762,113.3696,71.33059,-1.21215,0.5013712,0.4440449,32.94918,-8.378384,21.29235,1007.478
22.204681396,-95.33813,101.629,73.70728,-1.177628,0.4006124,0.384418,27.9542,-8.283102,24.41965,1007.478
22.236962795,-142.3761,85.95537,73.82916,-1.11788,0.267038,0.3303515,27.9542,-8.283102,24.41965,1007.478
22.269244671,-167.0416,62.29815,64.56617,-1.128914,0.02601328,0.3304551,24.35438,-10.41904,25.37396,1007.479
22.304009914,-163.3232,37.34946,42.4447,-1.103021,-0.2943132,0.3174589,22.5238,-14.42004,24.58086,1007.479
22.336291790,-121.3671,15.10111,20.99357,-0.974439,-0.7020605,0.2674863,22.5238,-14.42004,24.58086,1007.481
22.371057033,38.52499,-106.1201,-131.1754,-3.036018,-0.3666044,-2.532041,21.74824,-19.90797,22.48249,1007.483
22.403338909,83.70378,-56.57498,-3.748355,-1.483685,-0.6301666,-1.364547,21.34083,-21.7491,20.76818,1007.486
22.438103199,77.75431,-62.56266,16.42302,-0.9226549,-0.2512217,1.028937,24.55457,-19.98496,18.95255,1007.49
22.470385074,132.4151,-48.4153,-15.81462,-0.9299641,1.041168,-0.01469461,24.55457,-19.98496,18.95255,1007.49
22.502666950,12.49605,-10.3759,-16.48496,-0.9886814,0.5159376,-0.01658761,26.00369,-18.90737,18.91664,1007.49
22.537432194,-51.70866,-24.11235,8.86637,-1.080415,-0.02558694,-0.2292814,26.7366,-16.3581,19.30903,1007.484
22.569714069,26.99789,-13.72196,2.041012,-0.9589836,0.2432486,0.03014177,26.7366,-16.3581,19.30903,1007.481
22.604479313,-6.46789,-7.67557,-3.260829,-0.9788043,0.2280624,-0.007610082,27.07607,-16.73787,18.43667,1007.478
22.636761188,1.154871,-11.02163,-1.55449,-0.9957132,0.2168378,-0.02117375,27.41422,-16.38861,17.55509,1007.478
22.671526432,1.154871,-6.736326,-1.249786,-0.9912807,0.1844434,-0.0165331,27.41422,-16.38861,17.55509,1007.476
22.703807831,0.1013189,-5.620973,-2.346719,-0.9778767,0.2518464,0.01282758,27.41356,-16.0241,17.55047,1007.472
22.736089706,-2.625522,-5.15135,-2.651423,-0.9904165,0.2372845,0.01035461,26.68668,-15.28709,17.55227,1007.471
22.770854950,-4.60868,-4.50562,-2.590482,-0.9884575,0.2227328,-0.001334878,26.68668,-15.28709,17.55227,1007.471
22.803136826,-5.662232,-4.740431,-4.17494,-1.019851,0.1968965,-0.03042044,26.67535,-15.65724,17.12116,1007.471
22.837902069,-1.881838,-8.967031,-8.075146,-1.006918,0.2565324,-0.007871051,27.38892,-15.67085,16.6744,1007.467
22.870183945,-8.822888,-9.964977,-10.75654,-0.9928249,0.2358503,0.01760323,27.38892,-15.67085,16.6744,1007.466
22.904948235,-8.451046,-10.08238,-12.46288,-1.00679,0.2062415,0.002961812,27.39025,-16.39988,16.68364,1007.464
22.937230110,-8.327099,-8.086489,-13.49887,-0.9894363,0.2427169,0.04180691,28.09051,-15.6901,15.79192,1007.464
22.969511986,-11.11591,-7.734272,-13.98639,-0.9806458,0.203519,0.0343135,28.09051,-15.6901,15.79192,1007.464
23.004277229,-11.17789,-7.734272,-14.16922,-0.9922475,0.2054543,0.04401829,28.81606,-15.69807,15.78089,1007.462
23.036559105,-17.87104,-5.56227,-15.26615,-1.004776,0.1816567,0.02940681,29.15553,-16.07785,14.90854,1007.462
23.071324348,-14.40052,-3.331564,-17.15531,-1.004171,0.1435539,0.06641364,29.15553,-16.07785,14.90854,1007.464
23.103606224,-10.80605,-0.5725336,-19.89764,-0.9898244,0.2089044,0.06046959,29.5183,-16.08184,14.90302,1007.467
23.135888099,-18.98657,0.2493053,-22.63997,-1.004843,0.2263354,0.07607111,30.23055,-15.36642,14.44703,1007.469
23.170652866,-28.84038,12.57689,-25.86983,-0.9951622,0.243507,0.1370612,30.23055,-15.36642,14.44703,1007.469
23.202934742,-52.63826,22.26285,-23.49314,-0.9319409,0.3101255,0.178396,30.59266,-15.00589,14.4369,1007.476
23.237699985,-106.4314,34.29692,-22.09151,-0.9623814,0.8866216,0.1039059,31.31756,-14.64935,14.42125,1007.474
23.269981861,-259.6303,40.51941,-9.903367,-0.9451787,1.136463,-0.01315311,31.31756,-14.64935,14.42125,1007.472
23.304746628,-365.7912,26.90037,10.93835,-0.9431761,1.082021,-0.08646622,30.59266,-15.00589,14.4369,1007.468
23.337028026,-432.3509,16.68608,24.16249,-1.019915,0.7892478,-0.1643488,29.39845,-16.13818,10.54575,1007.468
23.369309902,-455.0952,20.38436,25.80789,-0.9435542,0.3456838,-0.3149677,29.39845,-16.13818,10.54575,1007.467
23.404075146,-397.3978,9.583048,31.04879,-0.9988456,0.1904612,-0.3766444,30.32693,-20.60322,4.484421,1007.463
23.436357021,-347.6949,-12.95882,29.03774,-1.050831,0.1228814,-0.2826461,30.09224,-22.53769,-4.144789,1007.463
23.471122265,-306.9162,-28.16284,31.59725,-1.062538,0.1996365,-0.1854967,29.15531,-24.08839,-11.89613,1007.463
23.503404140,-308.5895,-47.53476,25.686,-0.995301,0.1965083,-0.1658384,29.15531,-24.08839,-11.89613,1007.463
23.538169384,-244.6946,-22.70348,14.16821,-0.7223783,-0.3071082,-0.7822903,28.9356,-22.00272,-19.76691,1007.465
23.570451260,-76.808,36.99725,52.19521,-0.6279613,0.04245009,-1.384805,27.31141,-19.14952,-25.88195,1007.465
23.602733135,-163.5711,87.07072,11.06024,-1.275249,-0.6156803,-0.1210258,27.31141,-19.14952,-25.88195,1007.463
23.637497902,40.50815,7.000124,6.672506,-1.362976,-0.9074907,-0.6199543,27.27215,-17.34385,-27.21221,1007.465
23.669779777,68.14839,0.7189275,7.95226,-0.975601,1.017846,0.2821025,27.26884,-15.52127,-27.23529,1007.465
23.704544544,-16.75552,6.236989,0.3346722,-0.8902209,0.03230912,0.1298329,27.26884,-15.52127,-27.23529,1007.465
23.736826420,1.65066,11.40283,0.7612572,-1.04704,0.1050262,0.1576569,27.65955,-17.70108,-26.34165,1007.467
23.771591663,-4.732627,18.56457,1.370664,-0.9862305,0.1399007,0.1156649,27.32009,-17.32131,-25.4693,1007.465
23.803873062,-6.963679,17.68403,-0.2137941,-1.017164,0.1232522,0.08421344,27.32009,-17.32131,-25.4693,1007.462
23.836154938,-5.9721,19.62122,-0.8232011,-1.000666,0.09861717,0.08355437,26.94599,-17.68747,-25.8949,1007.462
23.870920181,-6.281969,18.97549,1.00502,-0.9958413,0.09272067,0.05305381,27.33273,-17.68019,-25.02896,1007.46
23.903202057,-13.16104,17.91884,2.71136,-1.034058,0.09840549,0.04930098,27.33273,-17.68019,-25.02896,1007.46
23.937967300,-5.29039,15.98165,-3.504592,-1.039042,0.1671685,0.0671065,28.79715,-18.41954,-24.60606,1007.46
23.970249176,-1.695917,18.91679,-11.24406,-0.9494892,0.1355734,0.09283954,29.16993,-17.32434,-24.1897,1007.46
24.002531052,-5.476311,23.96523,-5.149991,-0.9991801,0.06700217,0.03502754,29.16993,-17.32434,-24.1897,1007.46
24.037296295,-7.83131,25.5502,-1.249786,-1.004882,0.01755935,0.01542115,29.53336,-17.69285,-24.1906,1007.462
24.069578171,-15.94986,20.79528,-0.3356755,-1.028172,0.05967503,0.03939931,30.25892,-17.70083,-24.20163,1007.468
24.104342460,-24.19236,19.73863,2.345716,-0.9867901,0.1097752,-0.06289402,30.25892,-17.70083,-24.20163,1007.477
24.136624336,-46.50287,18.56457,2.101953,-0.9970509,0.160616,-0.04566247,29.19456,-17.67759,-23.31363,1007.482
24.171389580,-29.2742,17.097,4.844285,-1.012014,-0.0474405,-0.0240916,30.27024,-17.33068,-23.77052,1007.487
24.203671455,-4.732627,12.753,7.464735,-0.9858843,0.1505721,-0.0201214,30.27024,-17.33068,-23.77052,1007.487
24.235953331,-5.600258,12.04856,2.955122,-0.9873923,0.1547284,-0.07762372,30.63103,-16.24112,-23.78988,1007.494
24.270718574,2.704212,9.113425,0.3346722,-1.027345,0.108453,0.009701676,30.63236,-16.97015,-23.78065,1007.499
24.302999973,10.76079,7.11753,-2.40766,-1.011502,0.1124265,-0.1164874,31.02977,-16.2282,-22.48822,1007.506
24.337765217,12.92987,3.008336,-2.346719,-1.017095,0.04632954,-0.0525538,31.02977,-16.2282,-22.48822,1007.513
24.370047092,10.94671,1.775578,0.3956129,-1.00327,0.1193364,-0.08359201,30.65567,-16.59436,-22.91381,1007.513
24.404812336,15.96658,-2.040103,-0.2747349,-1.002631,0.03104817,-0.1474258,31.03109,-16.95723,-22.47898,1007.522
24.437094211,22.10197,-5.56227,2.650419,-1.018773,0.1348106,-0.07380184,31.03109,-16.95723,-22.47898,1007.53
24.469376087,15.53276,-4.50562,-0.2747349,-0.9679641,0.1429247,-0.007150655,30.68162,-17.67664,-22.02851,1007.539
24.504140377,13.85947,-4.975242,-1.066964,-1.024415,0.08659117,-0.01798495,31.40519,-16.59107,-22.05339,1007.548
24.536422253,13.23974,-4.564323,0.3956129,-1.010919,0.09720096,-0.04019189,31.40519,-16.59107,-22.05339,1007.548
24.571187496,12.92987,-5.268756,-2.4686,-1.021669,0.1480191,-0.02924412,31.03176,-17.32175,-22.47437,1007.554
24.603469372,12.43408,-5.503567,-2.712363,-0.9954602,0.1255276,0.02326632,31.40585,-16.95559,-22.04877,1007.561
24.638234615,4.253554,-3.272861,-3.504592,-1.016133,0.05754947,-0.02686983,31.40585,-16.95559,-22.04877,1007.568
24.670516491,4.005659,-3.977295,-0.3966163,-1.011517,0.1411961,-0.05202642,30.68162,-17.67664,-22.02851,1007.573
24.702798366,1.526713,-2.861942,-4.601525,-0.9838059,0.08080678,-0.04566137,31.04374,-17.31612,-22.03864,1007.573
24.737563610,7.290263,-3.977295,-5.08905,-1.014168,0.05084061,-0.009024974,31.04374,-17.31612,-22.03864,1007.579
24.769845009,1.092897,-4.329512,-1.55449,-0.9982933,0.08866215,-0.0001422411,30.66898,-17.31776,-22.46885,1007.585
24.804610252,-0.4564441,-5.914486,-2.529541,-0.9988921,0.1111515,-0.07494608,31.04506,-18.04515,-22.02941,1007.589
24.836892128,-1.014207,-7.088542,-4.479643,-1.006111,0.1220229,-0.002352899,31.04506,-18.04515,-22.02941,1007.594
24.869174004,-1.943812,-8.908327,-5.94222,-1.009475,0.1103711,-0.01063036,30.6803,-16.94761,-22.03774,1007.594
24.903938770,-0.02262847,-9.964977,-6.185983,-0.9963828,0.08514912,-0.03884143,31.03308,-18.05078,-22.46514,1007.597
24.936220169,-2.74947,-8.262597,-7.953264,-1.000063,0.02630026,0.02029485,31.03308,-18.05078,-22.46514,1007.603
24.970985413,-3.617101,-7.558164,-5.637516,-1.014653,0.05718599,0.007449066,30.66898,-17.31776,-22.46885,1007.606
25.003267288,-5.910127,-10.4346,-4.601525,-1.010929,0.1088857,-0.01933757,30.66898,-17.31776,-22.46885,1007.611
25.038032532,-7.335521,-11.72606,-4.784347,-1.014648,0.06844739,0.04618818,30.66898,-17.31776,-22.46885,1007.616
25.070314407,-3.741048,-10.84552,-3.565533,-1.014057,0.02149296,0.04156898,30.6317,-16.60563,-23.78526,1007.616
25.102596283,-8.265125,-12.19568,-2.590482,-1.031023,0.02469121,4.800316E-05,30.95786,-16.26201,-25.10258,1007.622
25.137361526,-15.20617,-17.18542,-1.737312,-1.012738,0.06199804,-0.002196474,30.24429,-16.2484,-24.65582,1007.628
25.169643402,-20.7838,-17.83115,2.589478,-1.007303,0.04294932,0.08421902,30.24429,-16.2484,-24.65582,1007.635
25.204408645,-15.82591,-15.77655,7.220972,-1.016503,0.03602847,0.04890848,30.23098,-15.525,-25.10078,1007.644
25.236690044,-16.13578,-12.5479,8.74449,-1.007358,0.05102704,0.04027216,29.84489,-15.8968,-25.9621,1007.644
25.271454811,-13.65683,-8.497408,10.69459,-0.9908823,0.04828841,0.07502866,29.84489,-15.8968,-25.9621,1007.652
25.303736687,-13.16104,-7.910381,11.91341,-1.017541,0.08068965,0.09122382,29.80894,-15.9137,-27.26928,1007.661
25.336018562,-12.7892,-5.15135,11.6087,-0.9967703,0.09043257,0.09268478,29.80894,-15.9137,-27.26928,1007.668
25.403065204,-10.92999,-6.560217,15.63079,-1.025691,0.04479482,0.07315006,29.47013,-15.89844,-26.39231,1007.673
25.437830448,-5.29039,-7.26465,18.86065,-1.012333,0.1286252,0.09486923,29.0714,-15.91136,-27.69398,1007.68
25.470112324,-13.47091,-8.027785,24.83284,-1.028128,0.2679852,0.1053644,29.0714,-15.91136,-27.69398,1007.682
25.504877567,-41.04919,-5.386162,32.63324,-0.9508888,0.3248489,0.1122894,29.07206,-16.27588,-27.68936,1007.683
25.537159443,-66.02458,1.482064,33.12077,-0.9371519,0.2372573,0.1001593,28.3232,-16.64368,-28.54517,1007.682
25.569441318,-67.20208,5.591258,27.0267,-0.9674142,0.1519971,0.09925625,28.3232,-16.64368,-28.54517,1007.682
25.604206562,-52.26642,7.293638,16.48396,-1.021995,0.1286336,0.1055257,27.9491,-17.00984,-28.97076,1007.677
25.636488438,-32.43485,5.826069,6.672506,-1.063163,0.1609803,0.1178844,27.18626,-16.28974,-30.27614,1007.666
25.671252727,-23.75854,2.421308,6.367802,-1.113327,0.3313626,0.172623,27.18626,-16.28974,-30.27614,1007.656
25.703534603,-31.3813,1.951686,14.41197,-1.246561,0.6079145,0.06812605,27.54639,-14.83566,-30.30012,1007.642
25.738299847,-76.18826,5.591258,26.47824,-1.242043,0.7190108,0.003483772,27.52375,-15.57597,-31.16235,1007.642
25.770581722,-135.4971,8.819912,32.14572,-1.394446,0.5530949,0.01012043,27.52375,-15.57597,-31.16235,1007.632
25.802863598,-170.5122,9.583048,28.00175,-1.123491,0.03129952,-0.1138067,27.14766,-14.84858,-31.60179,1007.625
25.837628841,-119.4459,36.76244,23.1265,-0.9373519,-0.3600958,-0.09951293,26.3702,-12.67605,-33.36136,1007.615
25.869910240,26.06828,35.47097,22.15144,-1.059,-0.4934428,0.3529731,26.3702,-12.67605,-33.36136,1007.606
25.904675484,137.1251,25.02188,82.60462,-1.179622,0.5122668,0.6330612,27.09046,-9.767898,-33.40932,1007.601
25.936957359,98.63943,12.04856,110.6373,-1.24671,0.4085031,0.4866174,27.88726,-9.377552,-30.8106,1007.601
25.969239235,57.7988,2.2452,111.8562,-1.398219,0.8881696,0.5012738,27.88726,-9.377552,-30.8106,1007.596
26.004004478,55.75367,2.069091,85.46883,-1.136063,0.5965616,0.3375821,26.86812,-14.44063,-28.5508,1007.596
26.036286354,98.0197,-2.627131,95.15841,-1.057303,0.5056525,0.005256548,24.36191,-19.50467,-27.57612,1007.597
26.071051598,125.536,0.8363331,89.12527,-0.9831092,0.6044263,-0.04171873,21.22339,-23.05758,-23.12305,1007.603
26.103333473,149.148,12.22467,70.23366,-0.7797925,0.4920894,-0.09065609,21.22339,-23.05758,-23.12305,1007.603
26.138097763,191.352,42.63271,57.37517,-0.7058647,0.434411,-0.3231939,17.75937,-27.31864,-17.34806,1007.603
26.170379638,208.7047,56.31046,40.55553,-0.6976626,0.6366214,-0.3505847,16.18445,-33.3884,-8.9632,1007.603
26.202661514,197.7973,70.86875,27.0267,-0.5727761,0.5876797,-0.3327616,16.18445,-33.3884,-8.9632,1007.601
26.237426758,170.4669,87.30553,21.66392,-0.6118202,0.5196636,-0.3785073,15.3024,-36.5629,-1.622247,1007.596
26.269708633,160.3652,94.58467,16.11831,-0.6388595,0.4845649,-0.4313435,14.40914,-38.28336,5.389008,1007.596
26.304473877,139.9139,91.88435,12.40093,-0.6141655,0.4662035,-0.4440705,14.40914,-38.28336,5.389008,1007.588
26.336755276,115.0005,84.13558,12.70564,-0.569616,0.4573081,-0.393456,13.4653,-38.5683,10.63889,1007.576
26.371520519,103.4114,72.10151,8.74449,-0.5051738,0.3857099,-0.441379,11.76994,-37.76298,15.01451,1007.564
26.403802395,97.27602,61.06539,8.622608,-0.438331,0.3438563,-0.4248407,11.76994,-37.76298,15.01451,1007.55
26.436084270,96.16048,51.73164,7.647557,-0.4639895,0.3470771,-0.4523231,10.76418,-36.98254,18.07191,1007.55
26.470849514,93.86746,39.11055,6.855328,-0.444093,0.3185968,-0.448177,9.416315,-34.36427,21.9832,1007.539
26.537895679,97.46194,12.753,11.12118,-0.4594704,0.2407636,-0.5549428,8.360633,-32.51282,23.28385,1007.515
26.570177555,100.3747,1.599469,18.12936,-0.4535843,0.1829748,-0.6195815,6.953497,-30.28723,25.02112,1007.507
26.604942799,103.1015,-5.914486,27.63611,-0.4409026,0.1179825,-0.67364,6.953497,-30.28723,25.02112,1007.507
26.637224674,103.5354,-7.969083,35.92404,-0.4262424,0.03558744,-0.7239344,6.986146,-28.44775,26.30522,1007.5
26.669506550,111.53,-6.208001,42.07905,-0.4276414,-0.01209233,-0.7981685,4.49068,-26.2102,28.05904,1007.493
26.704271793,103.1015,0.4841164,42.99316,-0.4268279,-0.1656322,-0.8391687,4.49068,-26.2102,28.05904,1007.484
26.736553669,99.94088,6.530502,45.06515,-0.4549783,-0.3449524,-0.8947562,4.144207,-22.9151,28.83223,1007.476
26.771318912,105.7044,17.62533,49.45288,-0.4225812,-0.3350879,-0.867214,2.32437,-19.61452,28.81826,1007.476
26.803600788,96.16048,32.35973,40.7993,-0.4745429,-0.4333551,-0.8323697,2.32437,-19.61452,28.81826,1007.467
26.835882187,98.76338,38.34741,41.104,-0.4248412,-0.3588752,-0.7445509,1.233121,-17.05014,28.86474,1007.459
26.870647430,65.91734,44.15899,28.91586,-0.4607885,-0.300043,-0.775079,-0.224329,-14.48338,28.79224,1007.448
26.902928829,37.59539,39.63887,21.84674,-0.4330358,-0.3861576,-0.7915819,-0.224329,-14.48338,28.79224,1007.44
26.937694073,20.36671,37.93649,19.65288,-0.3890046,-0.4176772,-0.8479349,-0.2279091,-11.56645,28.81756,1007.44
26.969975948,18.56947,39.75628,20.62793,-0.3972889,-0.3808271,-0.8196681,-0.6329844,-9.028556,27.42134,1007.435
27.004740715,11.87631,40.75422,24.04061,-0.3620696,-0.35369,-0.8384438,-0.2948399,-8.679297,26.53975,1007.426
27.037022591,1.278818,44.6286,28.79398,-0.3456096,-0.3530739,-0.813337,-0.2948399,-8.679297,26.53975,1007.417
27.069304466,-9.814466,51.14462,26.17353,-0.4070259,-0.3454559,-0.7981747,-0.6829102,-7.957546,25.66459,1007.409
27.104069710,-12.10749,50.90981,20.87169,-0.4051961,-0.3131418,-0.8318356,-0.3437147,-7.242968,24.84063,1007.398
27.136351585,-14.52446,47.32893,15.50891,-0.3874007,-0.2729278,-0.8326122,-0.3437147,-7.242968,24.84063,1007.398
27.171116829,-13.47091,45.03952,15.14326,-0.3938151,-0.2060408,-0.7959602,-1.070481,-6.566712,24.8432,1007.39
27.203398704,-21.9613,39.81498,11.36494,-0.4464936,-0.2485898,-0.8835909,0.7440648,-6.95117,24.82024,1007.385
27.238163948,6.546579,33.35767,4.295818,-0.5671899,-0.40159,-1.091112,0.7440648,-6.95117,24.82024,1007.375
27.270444870,14.35526,31.12696,-5.698457,-0.5626521,-0.3075181,-1.181474,0.005864143,-6.584312,24.39093,1007.372
27.302726745,-13.34697,40.93033,0.1518501,-0.327366,-0.2236255,-1.186338,0.3559942,-6.229419,23.94507,1007.372
27.337491989,-23.07683,34.23822,8.80543,-0.2722031,-0.1964309,-1.062059,0.3559942,-6.229419,23.94507,1007.367
27.369773865,-30.2038,26.25463,5.088048,-0.2737983,-0.09783387,-0.9541714,0.7181096,-5.868892,23.93494,1007.362
27.404539108,-76.00234,13.51613,-10.02525,-0.5546221,-0.125032,-0.8884566,0.3559942,-6.229419,23.94507,1007.357
27.436820984,-107.299,3.536661,0.3956129,-0.1778829,-0.1041721,-0.7634559,0.3559942,-6.229419,23.94507,1007.355
27.471585750,-96.88747,-10.90422,-8.440789,-0.1451494,0.04039825,-1.113198,0.3458829,-7.267848,23.52242,1007.355
27.503867626,-50.03537,-19.65094,-6.064102,-0.1359807,0.01151564,-1.218771,0.312573,-8.742815,22.2337,1007.353
27.536149502,-20.41196,-12.07828,-1.188845,-0.1861705,0.017157,-1.082301,0.312573,-8.742815,22.2337,1007.357
27.570914745,4.997238,-8.145191,-0.457557,-0.1948135,0.05403447,-0.9027171,1.004155,-9.861243,20.92934,1007.36
27.603196621,10.82276,-9.906275,0.7003165,-0.1884784,0.03910635,-0.8863787,1.390903,-9.853962,21.79528,1007.362
27.637960911,3.819738,-15.71785,-0.03097201,-0.1966416,-0.00954752,-0.9567363,1.390903,-9.853962,21.79528,1007.362
27.670242786,-8.884862,-16.12877,-3.078007,-0.2281406,-0.006500497,-1.030617,1.730371,-10.23374,20.92292,1007.365
27.702524662,-14.95828,-13.13493,-4.053059,-0.2378119,-0.001642996,-1.017033,2.079839,-9.514327,20.47245,1007.37
27.737289905,-18.92459,-13.42844,-4.784347,-0.249471,0.02742015,-0.998955,2.079839,-9.514327,20.47245,1007.375
27.769571781,-25.05999,-16.36358,-7.100094,-0.2573074,0.06461302,-1.012746,1.703754,-8.786942,20.03301,1007.377
27.804337025,-27.16709,-16.48099,-8.989256,-0.2519874,0.07489393,-0.9822426,2.430631,-9.523951,20.03121,1007.377
27.836618900,-25.36986,-18.7704,-10.14713,-0.260202,0.07733756,-0.9681914,2.430631,-9.523951,20.03121,1007.379
27.871384144,-22.70499,-17.65504,-11.06124,-0.2674312,0.07985932,-0.9319035,3.144199,-9.537561,19.58445,1007.381
27.903666019,-27.91078,-22.11646,-13.43793,-0.28181,0.03685469,-0.9006935,3.134198,-10.63674,19.16257,1007.382
27.935947418,-23.57262,-27.57581,-15.38803,-0.3043505,0.1279178,-0.9992321,3.134198,-10.63674,19.16257,1007.382
27.970712662,-23.51065,-24.93419,-19.89764,-0.3683457,0.1886153,-1.026789,3.835781,-10.65599,18.28009,1007.382
28.002994537,-21.83736,-22.82089,-19.77576,-0.3862534,0.1845863,-1.058196,4.561336,-10.66397,18.26905,1007.384
28.037759304,-20.04012,-18.59429,-20.87269,-0.3612547,0.2334104,-1.094714,5.276227,-11.40661,17.83153,1007.386
28.070041180,-32.62077,-14.89601,-26.78394,-0.3679177,0.2372536,-0.9544805,5.276227,-11.40661,17.83153,1007.386
28.104805946,-21.09367,-9.906275,-22.27433,-0.3510377,0.07443947,-0.8896949,5.252917,-11.78239,16.96469,1007.38
28.137087822,6.794474,-4.857837,-17.03343,-0.3117932,0.0626547,-0.8303836,5.276888,-11.77113,17.83615,1007.38
28.169369697,30.71631,0.1906025,-14.16922,-0.3045705,0.0904035,-0.7876988,5.276888,-11.77113,17.83615,1007.38
28.204134941,46.58157,6.413097,-11.97535,-0.2778065,0.008594064,-0.8181949,6.003765,-12.50813,17.83435,1007.382
28.236416817,48.87459,8.99602,-9.903367,-0.331085,0.03299786,-0.8546826,6.376543,-11.41294,18.25071,1007.385
28.271182060,40.75604,12.22467,-9.3549,-0.3935505,0.03343193,-0.9594516,6.376543,-11.41294,18.25071,1007.389
28.303463936,37.16157,11.22673,-3.870236,-0.3974446,0.02744993,-1.007821,6.772629,-9.941963,19.53391,1007.389
28.338229179,20.98644,8.643804,-0.1528534,-0.4103658,-0.02138555,-0.984866,6.045753,-9.204954,19.53571,1007.389
28.370511055,3.200002,8.408992,0.5174944,-0.3750466,-0.01875688,-0.9530202,6.045753,-9.204954,19.53571,1007.392
28.402792454,-13.0371,3.30185,2.467597,-0.349957,-0.01255937,-1.001866,6.056416,-8.470288,19.96221,1007.397
28.437557220,-21.27959,1.892983,4.722403,-0.3383352,-0.006592919,-0.9646326,6.396544,-9.214578,19.09447,1007.402
28.469839096,-29.21222,0.0144942,5.027107,-0.3205078,0.03424255,-0.9247969,6.396544,-9.214578,19.09447,1007.404
28.504604339,-28.84038,-0.6899391,5.453691,-0.333684,0.06693546,-0.976794,6.75866,-8.85405,19.08434,1007.404
28.536886215,-23.20078,-0.3377225,5.209929,-0.349208,0.09502459,-0.9572634,4.944776,-8.834107,19.11191,1007.408
28.569168091,-15.76394,0.4254136,5.636514,-0.3381091,0.112066,-0.935919,4.944776,-8.834107,19.11191,1007.409
28.603932857,-10.12434,-0.04420859,4.844285,-0.3351506,0.08787784,-0.9360629,6.03509,-9.939621,19.10921,1007.411
28.636214733,-8.079205,-1.570481,2.041012,-0.3526154,0.1046951,-0.9567175,6.74932,-10.31775,18.66707,1007.411
28.670979977,-0.8902597,-1.33567,0.0299687,-0.3647273,0.1006548,-0.9963564,6.74932,-10.31775,18.66707,1007.411
28.703261852,11.31855,-1.218264,0.3956129,-0.3391084,0.1055772,-0.993483,6.011782,-10.3154,18.24238,1007.414
28.738027096,15.9046,-2.920645,0.8831386,-0.3487809,0.1050542,-0.9968492,6.387205,-10.67828,18.6772,1007.414
28.770308971,20.73855,-2.509725,2.162893,-0.3525872,0.0867308,-0.9742235,6.387205,-10.67828,18.6772,1007.416
28.802590847,26.2542,3.888878,1.248783,-0.3616585,0.06226334,-0.9037611,6.398529,-10.30812,19.10832,1007.42
28.837355137,32.94736,6.941422,-1.676371,-0.3790126,0.04142265,-0.8985243,6.03509,-9.939621,19.10921,1007.42
28.869637012,31.45999,9.465642,-2.102956,-0.3495947,0.01723755,-1.063094,5.320199,-9.196978,19.54674,1007.423
28.904402256,31.02618,10.11137,0.8831386,-0.2867329,0.008624655,-1.087451,5.320199,-9.196978,19.54674,1007.428
28.936684132,26.00631,9.524345,7.220972,-0.3006541,0.008516696,-0.9646279,6.059061,-9.928351,19.98067,1007.432
28.971449375,13.73552,12.34208,9.292955,-0.2866769,0.01667546,-0.9965188,5.355494,-8.815557,20.84931,1007.433
29.003731251,17.33,8.99602,11.24306,-0.193417,0.02596,-1.048878,5.355494,-8.815557,20.84931,1007.433
29.036013126,17.88776,18.62327,14.71668,-0.07777998,0.02218075,-0.9766331,5.018011,-9.529331,21.73551,1007.435
29.070777893,15.78065,39.28665,19.8357,-0.02691063,-0.01685429,-0.9716468,4.677881,-8.785043,22.60324,1007.435
29.103059768,11.75237,51.08591,19.59193,-0.1164251,0.02467326,-0.9223905,4.677881,-8.785043,22.60324,1007.437
29.137825012,9.955132,56.01694,17.09337,-0.126076,0.03596762,-0.8657432,3.98696,-8.03113,23.91222,1007.441
29.170106888,1.898555,62.23944,24.58907,-0.09079605,0.07899331,-0.7655028,2.560485,-8.368423,24.81035,1007.441
29.204871177,-12.54131,64.41145,25.01566,-0.2101977,0.07146337,-0.7445003,2.560485,-8.368423,24.81035,1007.439
29.237153053,-16.01183,59.89133,29.03774,-0.09016635,0.05956478,-0.6442714,1.893807,-8.697594,26.94239,1007.439
29.269434929,-23.82051,91.64954,11.42588,-0.3581075,-0.2297044,-0.9547395,0.8418214,-7.938888,28.31913,1007.439
29.304200172,32.76144,7.352341,-4.296821,-0.556774,-0.4542313,-0.9256148,0.8418214,-7.938888,28.31913,1007.444
29.336482048,28.42328,-12.4892,-3.443652,-0.2619573,-0.1188607,-1.314478,-0.9624515,-7.549601,28.71558,1007.451
29.371247291,-23.32472,-3.859889,-2.590482,-0.1318178,-0.04985009,-1.623767,0.1366518,-6.887652,29.12629,1007.451
29.403529167,-41.85485,-1.394372,-4.479643,-0.06023026,0.02277202,-1.388557,0.1366518,-6.887652,29.12629,1007.456
29.438294411,-43.34222,8.5851,-5.393754,-0.07535266,0.03248939,-0.9354874,0.4741349,-6.173879,28.24009,1007.456
29.470576286,-40.11959,9.289534,-4.17494,-0.04864708,0.02667076,-0.8185859,0.8262496,-6.912533,27.80808,1007.456
29.502858162,-29.2742,6.236989,-2.956126,-0.04100033,0.05612898,-0.8430903,0.8262496,-6.912533,27.80808,1007.455
29.537622929,-18.80065,4.710716,-1.798252,-0.02990068,0.04043264,-0.9147524,0.4544125,-7.581653,27.44858,1007.455
29.569904804,-6.653811,4.241094,-2.042015,-0.03241237,0.04638919,-1.011401,0.1045547,-9.030898,27.84604,1007.456
29.604669571,2.456318,0.6602247,-2.042015,-0.04947531,0.07752915,-1.089988,0.1045547,-9.030898,27.84604,1007.46
29.636951446,5.493027,-3.096753,-1.066964,-0.05483572,0.09249116,-1.097142,0.1056051,-8.665577,27.90367,1007.462
29.669233322,4.811317,-2.509725,-0.3966163,-0.03157495,0.09227835,-1.036764,-0.269546,-9.397059,27.42044,1007.462
29.703998089,1.712634,1.775578,1.248783,-0.03678452,0.07316972,-0.9590278,0.8294468,-8.674359,27.83039,1007.462
29.736279964,2.394344,3.595364,1.187842,-0.06619791,0.04410866,-0.9417259,0.8294468,-8.674359,27.83039,1007.463
29.771045208,4.439475,0.6602247,0.3346722,-0.05749502,0.03777695,-0.9611182,0.4673314,-9.034886,27.84052,1007.463
29.803327084,3.50987,-0.1616141,-0.2747349,-0.07399603,0.0472529,-1.006955,0.09361982,-8.671212,27.46794,1007.463
29.838092327,0.7830291,-0.3964252,-0.9450825,-0.0552071,0.06363426,-1.044127,0.09361982,-8.671212,27.46794,1007.465
29.870374203,-4.732627,1.658172,-0.5794383,-0.05089441,0.08107632,-1.04162,0.1042824,-7.936546,27.89444,1007.465
29.902656078,-7.459468,2.538714,-0.3966163,-0.03780228,0.0768664,-1.009766,0.4570584,-9.039716,27.46704,1007.465
29.937421322,-6.715784,1.716875,-0.2137941,-0.03243211,0.06976355,-0.9682419,0.4570584,-9.039716,27.46704,1007.463
29.969703197,-2.873417,-0.04420859,-0.457557,-0.03870676,0.06490628,-0.9682559,0.4560075,-9.405037,27.40941,1007.466
30.004467487,2.580265,-1.33567,-0.7013197,-0.04261675,0.06814349,-1.009321,-0.25651,-9.026104,27.9138,1007.464
30.036749363,5.121185,-1.511778,-0.640379,-0.04506529,0.0728956,-1.032978,-0.25651,-9.026104,27.9138,1007.464
30.071514606,4.439475,-1.276967,-0.1528534,-0.04796153,0.07632887,-1.016998,0.1069283,-9.394608,27.9129,1007.462
30.103796482,2.270397,-0.983453,-0.1528534,-0.05276858,0.07105735,-0.9976805,0.09428144,-9.035728,27.47256,1007.46
30.136078357,0.7210555,-0.1029114,-0.09191272,-0.05660694,0.0613972,-0.9890252,0.09428144,-9.035728,27.47256,1007.459
30.170843124,0.7210555,0.3667108,-0.1528534,-0.04693039,0.05802752,-0.9919659,0.4697051,-9.398598,27.90738,1007.457
30.203125000,1.526713,0.0144942,-0.3356755,-0.04886482,0.05508894,-1.00068,0.4560075,-9.405037,27.40941,1007.457
30.237890243,1.402766,0.0144942,-0.2747349,-0.04453886,0.06134658,-1.01419,0.4560075,-9.405037,27.40941,1007.455
30.270172119,0.03934519,0.1318997,-0.2747349,-0.04359409,0.07298493,-1.007841,0.4673314,-9.034886,27.84052,1007.453
30.304937363,-1.138154,0.5428192,-0.2137941,-0.04311614,0.07687248,-1.003469,0.4553461,-9.040521,27.40479,1007.452
30.337219238,-1.695917,-0.2790197,-0.1528534,-0.04599234,0.06963802,-0.9938357,0.4553461,-9.040521,27.40479,1007.45
30.369501114,-0.6423651,-0.7486419,-0.5184976,-0.05129027,0.06189142,-0.9904842,0.8294468,-8.674359,27.83039,1007.448
30.404265404,1.340792,-0.5725336,-0.2747349,-0.04454239,0.06621863,-1.004494,0.8181233,-9.04451,27.39928,1007.448
30.436547279,1.65066,-0.455128,-0.5794383,-0.05471181,0.07150298,-1.007343,0.8181233,-9.04451,27.39928,1007.447
30.471312523,0.7830291,0.1318997,-0.2747349,-0.0489106,0.07444608,-1.00057,0.4433608,-9.046156,26.96907,1007.447
30.503594398,-0.5803914,-0.1616141,-0.3356755,-0.0484263,0.0739619,-1.001058,0.4546847,-8.676005,27.40018,1007.445
30.535876274,-0.2705231,0.0144942,-0.3356755,-0.04791935,0.06575287,-0.9962708,0.4546847,-8.676005,27.40018,1007.447
30.570641518,0.4731609,0.3080081,-0.2137941,-0.04551086,0.06865353,-0.9991601,-0.6449697,-9.03419,26.98561,1007.447
30.602923393,0.9069765,0.1318997,-0.2137941,-0.04551284,0.06864534,-1.001577,0.103893,-8.666382,27.84142,1007.445
30.637688160,0.7830291,0.1318997,-0.2747349,-0.04841203,0.06522497,-1.008842,0.8198354,-9.043705,27.46152,1007.445
30.669970035,0.4731609,-0.04420859,-0.2747349,-0.05084297,0.07249337,-1.003961,0.8198354,-9.043705,27.46152,1007.447
30.704735279,0.5971082,0.3080081,0.0299687,-0.05520144,0.07440846,-1.006358,0.4550738,-7.946169,27.45319,1007.447
30.737017155,0.2872398,0.07319697,-0.2747349,-0.05036172,0.07346261,-1.003957,0.4553461,-9.040521,27.40479,1007.447
30.769299030,0.5351345,0.3080081,-0.2137941,-0.04744712,0.07206006,-0.991885,0.4553461,-9.040521,27.40479,1007.447
30.804063320,1.402766,0.3080081,-0.1528534,-0.0459918,0.06670824,-1.001587,0.09361982,-8.671212,27.46794,1007.445
30.836345196,1.464739,0.2493053,-0.2137941,-0.04551324,0.0686437,-1.002061,0.8091731,-9.778371,27.03503,1007.444
30.871110439,0.6590818,0.1318997,0.0299687,-0.03776057,0.06091313,-1.005022,0.8091731,-9.778371,27.03503,1007.444
30.903392315,0.5351345,-0.04420859,-0.09191272,-0.04404988,0.06479115,-0.9977349,0.09323072,-9.401049,27.41492,1007.444
30.938157558,0.1632925,-0.3964252,-0.457557,-0.0430897,0.06720866,-0.9991735,-0.2708693,-8.668028,27.41121,1007.442
30.970439434,0.2872398,-0.8660475,-0.2747349,-0.04356752,0.06478763,-0.9991863,-0.2708693,-8.668028,27.41121,1007.442
31.002721310,0.1013189,-1.159561,-0.3356755,-0.0479241,0.06573321,-1.002072,0.4673314,-9.034886,27.84052,1007.442
31.037486553,0.03934519,-0.6899391,-0.5184976,-0.05083663,0.06812163,-1.008821,0.09190774,-8.672017,27.40569,1007.442
31.069768429,0.5351345,-0.1616141,-0.2137941,-0.05277791,0.07297341,-1.003471,0.09190774,-8.672017,27.40569,1007.442
31.104533195,1.154871,0.2493053,-0.2137941,-0.05325502,0.06957797,-1.005423,0.8198354,-9.043705,27.46152,1007.44
31.136815071,1.712634,0.1906025,-0.2747349,-0.05034155,0.06426141,-1.005943,0.8181233,-9.04451,27.39928,1007.442
31.171579838,2.084476,0.1906025,-0.03097201,-0.04937482,0.06475137,-1.004975,0.8181233,-9.04451,27.39928,1007.44
31.203861713,1.898555,0.4841164,-0.03097201,-0.04260853,0.06720021,-1.002075,0.103893,-8.666382,27.84142,1007.44
31.236143589,1.216845,0.07319697,-0.2137941,-0.04501595,0.06283794,-1.002095,0.103893,-8.666382,27.84142,1007.44
31.270908356,0.7210555,-0.1029114,-0.2137941,-0.04743478,0.06380381,-1.000634,0.103893,-8.666382,27.84142,1007.44
31.303190231,0.7830291,-0.2790197,-0.5184976,-0.05131665,0.06764615,-1.005921,0.4577198,-9.404232,27.47166,1007.439
31.337955475,1.154871,-0.1029114,-0.2137941,-0.05082228,0.06476033,-1.001105,0.103893,-8.666382,27.84142,1007.439
31.370237350,1.278818,0.0144942,-0.3966163,-0.04308644,0.0638015,-1.004994,0.103893,-8.666382,27.84142,1007.439
31.402519226,0.5351345,0.07319697,-0.1528534,-0.04839801,0.06283973,-0.9987035,0.106267,-9.030093,27.90828,1007.443
31.437284469,0.7210555,-0.04420859,-0.3356755,-0.0479138,0.06137786,-1.002097,0.07926083,-8.313135,26.96535,1007.443
31.469566345,0.4731609,-0.6312364,-0.2137941,-0.04985277,0.06086383,-1.009347,0.07926083,-8.313135,26.96535,1007.443
31.504331589,0.1632925,-0.3377225,-0.457557,-0.05131251,0.06521995,-1.007869,0.09190774,-8.672017,27.40569,1007.441
31.536613464,-0.1465758,0.2493053,-0.1528534,-0.05228828,0.07006794,-1.004455,0.4786553,-8.664736,28.27163,1007.443
31.571378231,-0.2705231,0.0144942,-0.2137941,-0.04645625,0.05896727,-1.000664,0.08124542,-9.406683,26.9792,1007.441
31.603660107,0.7210555,-0.2203169,-0.1528534,-0.05758999,0.06426033,-1.000126,0.08124542,-9.406683,26.9792,1007.441
31.635941982,1.898555,-0.2203169,0.0299687,-0.03003161,0.06236902,-1.010348,-0.2684953,-9.031739,27.47807,1007.437
31.670706749,-0.02262847,-0.3377225,-0.1528534,-0.02711365,0.0634238,-0.9871434,0.4683821,-8.669566,27.89815,1007.441
31.702988625,-1.509996,-1.511778,-0.7622604,-0.05857297,0.06810115,-1.00832,0.4683821,-8.669566,27.89815,1007.441
31.737753391,-2.25368,-1.687886,-1.006023,-0.07888363,0.06608117,-1.016023,0.8318207,-9.03807,27.89725,1007.437
31.770035267,-0.8902597,0.1318997,-0.2747349,-0.06198426,0.07286851,-1.026657,0.4583814,-9.768747,27.47627,1007.437
31.804800510,1.960529,1.423361,0.2127908,-0.04939281,0.07151819,-1.007354,0.4583814,-9.768747,27.47627,1007.439
31.837082386,3.200002,2.010389,0.4565536,-0.03534999,0.06968645,-0.9885404,0.8181233,-9.04451,27.39928,1007.441
31.869364262,2.456318,1.364658,0.2127908,-0.03725808,0.0605043,-0.9832707,0.09124613,-8.307501,27.40108,1007.441
31.904129505,1.092897,-0.1029114,-0.2137941,-0.04113198,0.06047031,-0.9900307,0.09124613,-8.307501,27.40108,1007.437
31.936411381,0.03934519,-0.983453,-0.5794383,-0.04937151,0.06183307,-1.009343,0.8085115,-9.413855,27.03041,1007.437
31.971176624,-0.7043387,-0.5725336,-0.5184976,-0.05038307,0.07337415,-1.030063,1.181951,-8.683178,27.45139,1007.437
32.003458500,-1.138154,-0.1616141,-0.457557,-0.05374319,0.07102346,-1.006864,1.181951,-8.683178,27.45139,1007.433
32.038222790,-0.2705231,0.3667108,-0.1528534,-0.05564863,0.06967098,-0.9759274,-0.2684953,-9.031739,27.47807,1007.432
32.070504665,2.332371,-0.1616141,-0.09191272,-0.05225164,0.05946901,-0.990496,0.4570584,-9.039716,27.46704,1007.432
32.102786541,3.757765,-0.2203169,-0.1528534,-0.05034761,0.06277031,-1.017554,0.4570584,-9.039716,27.46704,1007.432
32.137551784,2.766186,0.1318997,-0.03097201,-0.04454972,0.06374494,-1.020461,0.4563968,-8.6752,27.46243,1007.43
32.169833660,-0.02262847,0.4254136,-0.3356755,-0.04500522,0.05897306,-1.000183,0.4563968,-8.6752,27.46243,1007.434
32.204598427,-1.819865,0.0144942,-0.3356755,-0.04306974,0.06484798,-0.9817832,0.4563968,-8.6752,27.46243,1007.434
32.236880302,-1.386049,-0.7486419,-0.640379,-0.0522608,0.06334045,-0.9904739,0.8187847,-9.409025,27.40389,1007.434
32.269162178,-0.08460213,-1.100859,-0.1528534,-0.04986404,0.06765849,-1.003507,0.4563968,-8.6752,27.46243,1007.434
32.303927421,1.65066,-0.7486419,-0.1528534,-0.05133719,0.07244775,-1.017013,0.4563968,-8.6752,27.46243,1007.434
32.336209297,2.270397,-0.2790197,-0.03097201,-0.05520055,0.07099146,-1.015079,-0.2708693,-8.668028,27.41121,1007.432
32.370974541,1.154871,-0.1616141,-0.1528534,-0.04983495,0.0565396,-1.000186,0.4450731,-9.045351,27.03131,1007.434
32.403256416,-0.3944705,-0.2790197,-0.2137941,-0.05322304,0.05993707,-0.9943587,0.4450731,-9.045351,27.03131,1007.434
32.438021660,-0.8282861,0.0144942,-0.3356755,-0.04790403,0.05995228,-0.99437,-0.2811422,-8.672858,27.03773,1007.434
32.470303535,-0.4564441,0.3080081,-0.3966163,-0.04453667,0.06379899,-1.004508,0.4563968,-8.6752,27.46243,1007.434
32.502584457,-0.9522334,0.1318997,-0.3966163,-0.05230267,0.07294039,-1.013624,0.4330878,-9.050985,26.59559,1007.434
32.537349701,-0.6423651,-0.2790197,-0.457557,-0.0469849,0.07685978,-1.003945,0.4330878,-9.050985,26.59559,1007.436
32.569631576,0.7210555,0.0144942,-0.2747349,-0.05033814,0.06720757,-0.9933567,0.4444115,-8.680835,27.0267,1007.438
32.604396820,2.580265,0.0144942,-0.1528534,-0.05710514,0.06573316,-0.9943173,0.08229613,-9.041362,27.03683,1007.439
32.636678696,3.323949,-0.1616141,-0.09191272,-0.05467609,0.05943425,-0.9987093,0.08229613,-9.041362,27.03683,1007.439
32.671443462,2.022502,-0.3377225,-0.1528534,-0.0508165,0.0584316,-1.01226,0.4690437,-9.034081,27.90277,1007.441
32.703725338,0.2252662,0.0144942,-0.3966163,-0.04502111,0.06721459,-0.9957853,0.4557354,-8.310684,27.45781,1007.443
32.736007214,-1.262102,0.1906025,-0.5794383,-0.0513038,0.06085804,-1.009827,0.4557354,-8.310684,27.45781,1007.443
32.770772457,-1.943812,-0.455128,-0.640379,-0.05764518,0.08455584,-1.008712,0.4546847,-8.676005,27.40018,1007.444
32.803054333,-1.509996,0.3080081,-0.2747349,-0.04698803,0.07733552,-1.006359,0.4553461,-9.040521,27.40479,1007.444
32.837819576,1.154871,0.0144942,-0.09191272,-0.05325544,0.07397428,-0.9933119,0.4553461,-9.040521,27.40479,1007.45
32.870101452,3.447896,-0.7486419,-0.2747349,-0.0604869,0.05987211,-1.007396,0.1045547,-9.030898,27.84604,1007.452
32.904865742,2.952107,-0.2203169,0.09090941,-0.05228088,0.06423459,-1.012223,0.4577198,-9.404232,27.47166,1007.452
32.937147617,1.526713,0.1318997,-0.1528534,-0.04406418,0.06864129,-1.003998,0.4577198,-9.404232,27.47166,1007.453
32.969429493,-0.08460213,0.1906025,-0.3966163,-0.05033456,0.06282437,-1.0016,0.4557354,-8.310684,27.45781,1007.453
33.004194736,-0.1465758,-0.2203169,-0.1528534,-0.05324539,0.06668586,-1.002055,0.09361982,-8.671212,27.46794,1007.455
33.036476612,0.2252662,-0.455128,-0.2747349,-0.0537276,0.06375799,-1.008839,0.09361982,-8.671212,27.46794,1007.455
33.071241856,1.030924,-0.3377225,-0.1528534,-0.05468745,0.06525122,-0.9957756,-0.2698185,-8.302708,27.46884,1007.453
33.103523731,1.030924,0.1906025,-0.1528534,-0.0522823,0.0661834,-1.008345,0.09494305,-9.400244,27.47717,1007.455
33.135805607,0.6590818,0.3667108,-0.03097201,-0.04889075,0.06622093,-1.000134,0.09494305,-9.400244,27.47717,1007.455
33.170570373,0.7210555,-0.1029114,-0.2137941,-0.050816,0.06429771,-0.9948225,0.4673314,-9.034886,27.84052,1007.453
33.202852249,0.8450028,-0.1029114,-0.3966163,-0.04840319,0.0623296,-1.006441,0.08190703,-9.771198,26.98381,1007.453
33.237617492,0.5351345,0.3667108,-0.2747349,-0.04936685,0.06087504,-1.006448,0.08190703,-9.771198,26.98381,1007.455
33.269899368,-0.02262847,0.0144942,-0.3966163,-0.05178709,0.06378973,-1.001108,0.4563968,-8.6752,27.46243,1007.455
33.304664612,-0.08460213,-0.04420859,-0.2137941,-0.05275656,0.06377713,-1.004007,0.08163452,-8.676847,27.03221,1007.455
33.336946487,-0.1465758,-0.3377225,-0.09191272,-0.05420711,0.06475066,-1.001097,0.08163452,-8.676847,27.03221,1007.455
33.369228363,0.1013189,-0.1616141,-0.3356755,-0.0532482,0.06618556,-1.006893,0.08295774,-9.405878,27.04144,1007.457
33.403992653,0.1632925,0.07319697,-0.09191272,-0.05034111,0.06475189,-1.004006,0.4553461,-9.040521,27.40479,1007.455
33.436274528,-0.02262847,0.1318997,-0.3356755,-0.04840746,0.06328926,-1.008853,0.4673314,-9.034886,27.84052,1007.453
33.471039772,-0.6423651,0.0144942,-0.2137941,-0.05517843,0.0661964,-1.002054,0.4673314,-9.034886,27.84052,1007.453
33.503321648,-1.076181,0.07319697,-0.3356755,-0.05082776,0.07011304,-0.9923722,0.09361982,-8.671212,27.46794,1007.453
33.538086891,-0.08460213,0.07319697,-0.3966163,-0.05470588,0.07152756,-1.000091,0.1056051,-8.665577,27.90367,1007.452
33.570368767,0.4111872,-0.2203169,-0.3356755,-0.04890579,0.07055664,-1.00591,0.1056051,-8.665577,27.90367,1007.452
33.602650642,1.154871,-0.1616141,-0.2137941,-0.04697979,0.07199428,-1.011707,0.09428144,-9.035728,27.47256,1007.452
33.637415409,0.9069765,-0.9247502,-0.3356755,-0.05615361,0.06860346,-1.004939,0.09256935,-9.036532,27.41031,1007.45
33.669697285,0.8450028,-0.1616141,-0.3966163,-0.04694231,0.06188748,-0.9953281,0.09256935,-9.036532,27.41031,1007.45
33.704462528,-0.3324968,0.7776303,-0.09191272,-0.05325739,0.06956814,-1.008324,0.8198354,-9.043705,27.46152,1007.452
33.736744404,-2.563549,0.601522,-0.457557,-0.04695103,0.06624939,-0.9933695,-0.2818038,-8.308342,27.03311,1007.45
33.771509170,-2.997364,1.247253,-0.03097201,-0.05471612,0.0719738,-1.011207,-0.2818038,-8.308342,27.03311,1007.45
33.803790569,-4.60868,1.305955,-0.8232011,-0.05133519,0.07734273,-1.000548,0.481029,-9.028447,28.33849,1007.448
33.836072445,-5.104469,1.129847,-0.7622604,-0.05766018,0.08938039,-1.013036,0.09256935,-9.036532,27.41031,1007.448
33.870837688,-7.211574,-0.5138308,-1.188845,-0.0513503,0.0763028,-1.021826,0.09256935,-9.036532,27.41031,1007.448
33.903119564,-11.05394,0.4254136,-0.457557,-0.05281297,0.08357888,-1.015496,1.195259,-9.406574,27.89635,1007.445
33.937884808,-15.26815,2.186497,-0.09191272,-0.06977712,0.100468,-1.015364,0.08295774,-9.405878,27.04144,1007.441
33.970166683,-18.98657,2.656119,0.3956129,-0.04265367,0.09388999,-0.9801686,0.08295774,-9.405878,27.04144,1007.438
34.004931927,-19.54433,1.129847,1.736308,-0.06979682,0.1106485,-1.009988,0.08361912,-9.770393,27.04606,1007.438
34.037213802,-29.89393,-7.26465,3.503589,-0.09551586,0.1448932,-1.021824,0.08428073,-10.13491,27.05068,1007.436
34.069495678,-36.46314,-9.260544,4.4177,-0.1134466,0.1588498,-1.029441,0.08428073,-10.13491,27.05068,1007.436
34.104260444,-52.70024,-7.440758,4.295818,-0.08202749,0.1598698,-1.040622,0.0849421,-10.49942,27.05529,1007.433
34.136542320,-68.56551,-11.78476,6.977209,-0.1528293,0.2316341,-1.081154,0.0725677,-11.2349,26.56655,1007.431
34.171307564,-103.8285,-18.47688,5.27087,-0.1658277,0.2176628,-1.051715,0.0725677,-11.2349,26.56655,1007.431
34.203589439,-126.139,-22.17516,-1.676371,-0.2287069,0.2349995,-1.023442,0.4163938,-13.07193,25.77491,1007.431
34.235871315,-125.8911,-26.98878,-11.79253,-0.1603719,0.1674231,-1.030258,0.008983135,-14.91306,24.0606,1007.429
34.270635605,-81.33208,-26.81268,-16.36308,-0.1467973,0.1500158,-1.037638,0.3164637,-17.49683,21.90876,1007.425
34.302917480,-35.96735,-16.36358,-19.65388,-0.183149,0.2008672,-0.9952111,0.3164637,-17.49683,21.90876,1007.427
34.337682724,-13.90473,-11.08033,-24.40726,-0.2436519,0.2385637,-0.9586083,0.9614279,-19.36683,18.87072,1007.433
34.369964599,-6.529863,-6.736326,-32.02485,-0.2360924,0.3282551,-0.9160556,0.9261334,-19.74825,17.56815,1007.433
34.404729843,-17.12736,-1.863995,-38.91114,-0.2640682,0.2996329,-0.9132574,0.9261334,-19.74825,17.56815,1007.435
34.437011719,-22.33315,-0.5725336,-42.26288,-0.3042988,0.3699761,-0.8276855,0.8781919,-19.77078,15.82525,1007.436
34.469293594,-30.94748,0.0144942,-45.55368,-0.287435,0.3995834,-0.8159509,0.442842,-19.43609,13.21178,1007.432
34.504058838,-38.01248,5.239041,-45.49274,-0.2497773,0.4331659,-0.7911858,0.442842,-19.43609,13.21178,1007.436
34.536340713,-44.58169,7.11753,-46.71156,-0.2720035,0.4219326,-0.8028042,0.01079917,-20.92397,10.6214,1007.436
34.571105480,-53.81577,9.700453,-45.7365,-0.2283588,0.5911215,-0.7511753,-1.172752,-21.32159,7.156752,1007.438
34.603387356,-63.54563,14.22057,-40.4956,-0.1655671,0.626687,-0.7337046,-1.172752,-21.32159,7.156752,1007.439
34.638152599,-76.31221,24.25874,-36.65634,-0.1985866,0.6958995,-0.7022998,-1.240695,-23.5425,4.570086,1007.441
34.670433998,-87.1576,25.4328,-28.85593,-0.1951974,0.7057008,-0.6688942,-1.345917,-25.05127,0.6670074,1007.435
34.702715874,-85.60826,31.00956,-28.55122,-0.2341633,0.6238376,-0.6596068,-1.345917,-25.05127,0.6670074,1007.435
34.737480640,-57.84405,25.13928,-32.87801,-0.2579448,0.4631698,-0.6411316,-1.439154,-26.55441,-2.800344,1007.433
34.769762516,-25.61775,23.67171,-38.97208,-0.256342,0.392947,-0.6584547,-1.152881,-28.78333,-5.703758,1007.433
34.804527760,6.7325,15.27722,-53.17127,-0.2611281,0.4253901,-0.5054933,-1.152881,-28.78333,-5.703758,1007.432
34.836809635,31.2121,12.51819,-73.95205,-0.2195843,0.4487948,-0.4885294,-1.221485,-30.63971,-8.295039,1007.432
34.871574879,33.69104,5.708663,-87.48089,-0.2840293,0.5325976,-0.4091135,0.559751,-32.49914,-9.606718,1007.432
34.903856754,18.38355,-2.979347,-96.07352,-0.3475204,0.5977796,-0.3989372,0.559751,-32.49914,-9.606718,1007.432
34.936138630,-4.298811,-11.78476,-96.25635,-0.3431334,0.5915846,-0.3743266,2.719057,-36.1795,-10.46511,1007.432
34.970903873,-14.71039,-20.64889,-96.86575,-0.413689,0.5705443,-0.382996,6.328146,-39.14677,-11.35479,1007.433
35.003185749,-9.814466,-30.39355,-90.89356,-0.4146432,0.5740159,-0.357352,6.328146,-39.14677,-11.35479,1007.436
35.037950516,-13.53289,-43.36686,-87.11524,-0.4833908,0.6252699,-0.3114692,9.222345,-41.37141,-11.80694,1007.436
35.070232391,-22.51907,-52.52449,-83.70256,-0.5821857,0.6961942,-0.2905485,14.67061,-45.0764,-11.84352,1007.43
35.102514267,-25.05999,-55.75314,-79.37577,-0.7260109,0.7853088,-0.2902153,14.67061,-45.0764,-11.84352,1007.428
35.137279033,-35.90538,-73.59879,-78.15696,-0.8665276,0.8706967,-0.3928828,18.67777,-47.66624,-11.43615,1007.428
35.169560909,-51.52274,-89.33113,-71.6363,-1.05249,0.9853047,-0.402466,22.69362,-48.42788,-10.61613,1007.437
35.204325676,-51.27485,-96.72768,-67.37045,-1.243363,0.8953718,-0.504088,26.29477,-47.02097,-11.56121,1007.454
35.236608505,-30.38972,-109.7597,-57.61994,-1.356397,0.8339554,-0.5390013,26.29477,-47.02097,-11.56121,1007.454
35.271372795,-6.529863,-124.3767,-35.13282,-1.306002,0.7583066,-0.6280093,29.45991,-44.91485,-15.12436,1007.468
35.303654671,30.84026,-109.9358,-24.04161,-1.056517,0.533692,-0.7182934,30.46169,-43.5082,-18.20945,1007.48
35.335936546,64.05813,-93.85124,-12.03629,-0.9029515,0.375499,-0.8336154,30.46169,-43.5082,-18.20945,1007.494
35.370701790,107.6876,-69.13737,-2.40766,-0.7170388,0.2562865,-0.8975409,30.07693,-44.60902,-19.06154,1007.511
35.437748909,95.6647,-1.33567,-5.332813,-0.7533274,0.3679935,-0.6043472,29.03853,-45.66806,-17.28824,1007.516
35.470030784,53.89446,12.45948,-10.39089,-0.7729214,0.3009706,-0.5162168,27.33648,-47.78451,-13.31143,1007.514
35.504795551,32.1417,33.06416,-18.43507,-0.9248211,0.3711189,-0.393664,27.77051,-47.39017,-10.7072,1007.509
35.537076950,1.030924,46.74191,-23.67597,-0.9944156,0.3588527,-0.3843984,27.77051,-47.39017,-10.7072,1007.502
35.569358826,-24.00644,47.44634,-21.23834,-1.008262,0.3077455,-0.3169777,28.5793,-46.99419,-7.672758,1007.502
35.604124069,-32.06301,45.03952,-15.20521,-0.9927641,0.306912,-0.2904268,30.41649,-46.63835,-6.833498,1007.488
35.636405945,-28.65446,35.9993,-10.6956,-0.9317874,0.2906785,-0.2771142,30.41649,-46.63835,-6.833498,1007.483
35.671170711,-19.23446,22.14544,-8.136086,-0.8867809,0.2826523,-0.2559855,30.02577,-44.45854,-7.727132,1007.482
35.703452587,-12.23144,6.941422,-7.404797,-0.8722303,0.2633301,-0.2580605,31.84032,-44.84299,-7.750093,1007.48
35.738217831,-5.352364,-7.851678,-7.953264,-0.8722306,0.2682153,-0.2444964,31.84032,-44.84299,-7.750093,1007.48
35.770499706,-5.538285,-18.41818,-10.32995,-0.9138587,0.2816005,-0.2578669,31.82635,-43.75508,-8.199667,1007.48
35.802781582,-7.893284,-25.1103,-17.5819,-0.975687,0.2426012,-0.2898623,32.15317,-43.77597,-9.512363,1007.482
35.837546825,-2.811443,-31.91982,-26.35736,-1.004651,0.2041175,-0.3402964,32.15317,-43.77597,-9.512363,1007.485
35.869828701,5.36908,-34.91366,-29.16063,-0.9519404,0.1769176,-0.4145307,32.86608,-43.42507,-9.963737,1007.492
35.904593945,16.58631,-35.32458,-28.12464,-0.9676666,0.2691629,-0.4555481,32.47735,-42.3388,-10.84352,1007.492
