Time (s),Gyroscope X (deg/s),Gyroscope Y (deg/s),Gyroscope Z (deg/s),Accelerometer X (g),Accelerometer Y (g),Accelerometer Z (g),Magnetometer X (uT),Magnetometer Y (uT),Magnetometer Z (uT),Barometer (hPa)
0.010642052,0.1201657,0.03332263,-0.01964581,0.01096195,0.5872653,-0.8063415,6.724942,-4.727323,4.894202,1008.184
0.042919636,0.244113,-0.1427857,-0.2024679,0.009021883,0.5877241,-0.8121361,6.712957,-4.732958,4.458475,1008.182
0.077681065,0.244113,0.209431,0.0412949,0.0148261,0.5887249,-0.8073084,7.087719,-4.731312,4.888686,1008.182
0.109958649,-0.06575526,0.209431,-0.01964581,0.01531462,0.5867922,-0.8068371,7.087719,-4.731312,4.888686,1008.18
0.144719124,-0.1277289,0.03332263,-0.08058652,0.0191788,0.5887406,-0.8063508,7.076395,-5.101462,4.457575,1008.18
0.176997662,0.1821394,0.03332263,0.1022356,0.0167624,0.5858072,-0.8131305,6.712296,-4.368442,4.453859,1008.18
0.211758137,0.244113,0.1507282,0.0412949,0.01676556,0.5858203,-0.8092629,6.712296,-4.368442,4.453859,1008.179
0.244036198,0.1201657,-0.02538015,-0.1415272,0.015795,0.5867805,-0.8107057,7.065071,-5.471612,4.026464,1008.177
0.276314735,-0.003781602,0.03332263,-0.2024679,0.01821699,0.5858277,-0.8082991,6.724942,-4.727323,4.894202,1008.175
0.311075211,-0.1277289,0.1507282,-0.1415272,0.01628254,0.5872871,-0.8044192,6.724942,-4.727323,4.894202,1008.174
0.343352795,-0.1277289,0.03332263,-0.1415272,0.01725175,0.5843666,-0.8102391,6.713618,-5.097473,4.463091,1008.174
0.378114224,-0.1277289,-0.2014885,-0.1415272,0.0196627,0.5882547,-0.8073215,6.713618,-5.097473,4.463091,1008.172
0.410391808,-0.06575526,-0.2014885,-0.01964581,0.01433789,0.5896815,-0.8102026,6.713618,-5.097473,4.463091,1008.176
0.442670345,-0.003781602,0.209431,0.0412949,0.01772891,0.5882509,-0.806834,6.724942,-4.727323,4.894202,1008.174
0.477430821,0.2439232,0.09192823,-0.01967852,0.01627779,0.5872675,-0.8102205,6.726265,-5.456354,4.903434,1008.171
0.509708881,0.3669539,-0.2019239,-0.08048156,0.01628356,0.5853366,-0.8087812,6.726265,-5.456354,4.903434,1008.171
0.544469833,0.1180899,-0.02597848,0.04179139,0.01726652,0.5814958,-0.8005867,6.712957,-4.732958,4.458475,1008.169
0.576747894,-0.1300334,-0.2022941,0.04185024,0.01627705,0.5877531,-0.8097343,6.736928,-4.721688,5.329928,1008.167
0.611508846,-0.3150141,-0.2021787,-0.1411172,0.02160111,0.5868118,-0.806367,6.724942,-4.727323,4.894202,1008.166
0.643786907,0.05782029,-0.2015569,-0.2622512,0.01821241,0.5877634,-0.8082881,6.724942,-4.727323,4.894202,1008.166
0.676064491,0.3668693,-0.3769727,-0.1394345,0.0182147,0.5867956,-0.8082936,6.724942,-4.727323,4.894202,1008.166
0.710825920,0.7363233,0.09312563,-0.1391094,0.01676509,0.584841,-0.8126525,6.338195,-4.734604,4.028263,1008.166
0.743103504,0.5477312,-0.02430981,-0.01731116,0.01869852,0.585332,-0.8121705,6.338195,-4.734604,4.028263,1008.166
0.777864933,-0.0110749,-0.08299783,-0.2002864,0.01966006,0.5897098,-0.8063464,6.713618,-5.097473,4.463091,1008.17
0.810142517,-0.01108794,0.09326417,0.1049465,0.01821004,0.5877536,-0.8111888,7.075734,-4.736946,4.452959,1008.168
0.844903946,0.05085664,0.151226,0.1653498,0.01627519,0.5892113,-0.8077922,7.075734,-4.736946,4.452959,1008.166
0.877181530,-0.01081884,0.03307554,-0.01805052,0.02207281,0.5916508,-0.806824,7.063087,-4.378065,4.012617,1008.166
0.909459591,-0.3815864,-0.3185392,-0.3218012,0.01580234,0.5848562,-0.8073326,6.712957,-4.732958,4.458475,1008.17
0.944220543,-0.3180739,-0.2001957,-0.1990997,0.01821352,0.5867907,-0.8097439,6.712957,-4.732958,4.458475,1008.169
0.976498604,-0.06948554,0.03528396,-0.1375194,0.01725219,0.584857,-0.8083026,6.362165,-4.723334,4.899717,1008.169
1.011259556,0.1166432,-0.02302111,-0.1368391,0.01241347,0.5882504,-0.8024716,7.451158,-5.099816,4.887787,1008.169
1.043537617,-0.3165594,0.03629071,-0.1969739,0.01434519,0.5872685,-0.8082826,7.451158,-5.099816,4.887787,1008.169
1.078298092,-0.3150537,0.09470526,0.04690821,0.01531796,0.5843627,-0.8097515,7.813934,-5.103804,4.882272,1008.169
1.110576630,0.2427684,0.2116694,0.1076386,0.02451659,0.5819923,-0.8030167,6.725603,-5.091839,4.898818,1008.174
1.142854214,-0.1293436,-0.02413303,-0.2585205,0.01531039,0.5882407,-0.8077957,6.725603,-5.091839,4.898818,1008.174
1.177615643,0.6749957,-0.3164361,-0.1964834,0.01675179,0.5911387,-0.810683,7.450497,-4.7353,4.883171,1008.173
1.209893227,0.4248357,-0.1986614,-0.07393494,0.01240595,0.5882193,-0.8116571,6.724942,-4.727323,4.894202,1008.173
1.244653702,-0.1954434,0.3292834,0.1088672,0.01144731,0.5853195,-0.8097377,6.724942,-4.727323,4.894202,1008.173
1.276932240,-0.5037762,0.1524589,0.2909969,0.005639831,0.5877259,-0.8087447,7.087719,-4.731312,4.888686,1008.177
1.311692715,-0.7488567,-0.02398713,-0.1970223,0.01481101,0.5925717,-0.8145381,6.724942,-4.727323,4.894202,1008.177
1.343971253,-0.1886445,0.2688512,0.351043,0.01434603,0.5877606,-0.8058626,6.724942,-4.727323,4.894202,1008.175
1.376249313,0.7395905,0.7355174,0.5928586,0.01531514,0.5882604,-0.8019944,6.362826,-5.087851,4.904333,1008.175
1.411009789,1.04493,0.5559416,0.3466087,0.01677643,0.583422,-0.8029919,6.712957,-4.732958,4.458475,1008.175
1.443288326,1.535409,0.4948253,0.4672112,0.01627334,0.5906698,-0.8058502,6.712957,-4.732958,4.458475,1008.175
1.478048802,2.147104,0.3167109,0.3436614,0.02302781,0.5935582,-0.8160005,6.362826,-5.087851,4.904333,1008.175
1.510327339,2.262065,0.1981435,0.03757637,0.01773557,0.5829031,-0.814116,7.087719,-4.731312,4.888686,1008.177
1.545087814,2.376045,0.08075202,-0.206485,0.01919909,0.5810059,-0.8039777,6.726265,-5.456354,4.903434,1008.176
1.577365398,1.995042,-0.2121522,0.09846769,0.01486043,0.574207,-0.807391,6.726265,-5.456354,4.903434,1008.176
1.609643936,1.181816,0.02326583,0.09856285,0.01629329,0.5790243,-0.8151018,6.362826,-5.087851,4.904333,1008.176
1.644404411,-0.4316137,-0.2697056,-0.4489598,0.009999772,0.5799528,-0.8213676,7.087719,-4.731312,4.888686,1008.174
1.676682949,-1.975968,0.3176478,-0.08188696,0.01434222,0.5848128,-0.8189322,7.087719,-4.731312,4.888686,1008.174
1.711443424,-2.399186,0.3163453,-0.02020514,0.01820318,0.5906572,-0.8111723,7.063748,-4.74258,4.017232,1008.172
1.743721485,-1.398451,0.3146876,-0.08135016,0.01918756,0.5848675,-0.8068564,6.349519,-4.364453,4.459374,1008.172
1.776000023,0.8963079,0.3135153,0.2224618,0.02210128,0.5824841,-0.7986577,6.349519,-4.364453,4.459374,1008.176
1.810760498,2.932838,-0.449579,-0.02200981,0.0259598,0.582943,-0.8092991,6.350181,-4.728969,4.46399,1008.176
1.843039036,3.179811,0.02018443,0.2827006,0.01628824,0.5799807,-0.8184804,6.362165,-4.723334,4.899717,1008.176
1.877799511,1.134681,0.02018443,0.09987852,0.0244763,0.5915987,-0.8242333,6.362165,-4.723334,4.899717,1008.176
1.910077095,-1.344266,-0.4494378,-0.8142321,0.01583522,0.5717983,-0.8049897,5.999389,-4.719346,4.905233,1008.176
1.944838524,-1.778082,-0.09722112,0.09987852,0.02742835,0.5752026,-0.8098297,6.349519,-4.364453,4.459374,1008.178
1.977116108,-2.025976,-1.153871,-0.7532913,0.01531678,0.5843577,-0.8112019,6.349519,-4.364453,4.459374,1008.178
2.009394646,-3.203476,-0.6842489,-0.3267064,0.00706993,0.5925316,-0.8198395,5.999389,-4.719346,4.905233,1008.18
2.044155121,-3.45137,-0.09722112,0.09987852,0.001264613,0.5925035,-0.8232113,7.08838,-5.095827,4.893302,1008.178
2.076433182,-2.76966,0.8420233,0.7702263,0.01337929,0.5872706,-0.8068302,7.08838,-5.095827,4.893302,1008.178
2.111194134,-2.08795,1.311646,1.257752,0.03369304,0.588326,-0.798166,6.725603,-5.091839,4.898818,1008.18
2.143472195,-1.530187,0.3136983,-0.02200289,0.03999744,0.5806011,-0.7982236,6.362165,-4.723334,4.899717,1008.178
2.178233147,-0.6625556,-0.390735,-0.5704692,0.03175925,0.5883221,-0.7976785,6.362165,-4.723334,4.899717,1008.178
2.210511208,-0.5386083,-1.388682,-1.48458,0.02350193,0.5988958,-0.8121037,6.736928,-4.721688,5.329928,1008.18
2.242788792,1.134681,-1.506088,-1.545521,0.004154466,0.6022379,-0.8091424,6.350181,-4.728969,4.46399,1008.18
2.277550221,4.17139,-0.5668434,-0.5095286,0.001763849,0.591104,-0.8082337,6.350181,-4.728969,4.46399,1008.178
2.309827805,6.278494,0.02018443,0.2217599,0.002281625,0.5800077,-0.7986291,6.724942,-4.727323,4.894202,1008.181
2.344589233,7.332047,0.9007261,1.196811,0.01436783,0.5746568,-0.8170562,6.373489,-4.353184,5.330828,1008.179
2.376866818,4.233364,1.19424,1.196811,0.01774724,0.5761101,-0.8194725,6.373489,-4.353184,5.330828,1008.178
2.411628246,-0.8484765,0.5485094,0.404582,0.03176761,0.5751626,-0.8253093,6.736266,-4.357173,5.325313,1008.178
2.443905830,-5.558475,-0.2733294,-0.5704692,0.02596606,0.5775936,-0.8170645,5.986742,-4.360465,4.46489,1008.178
2.476183891,-6.859922,-1.095168,-0.8142321,0.02302962,0.591611,-0.8193957,5.986742,-4.360465,4.46489,1008.18
2.510944843,-6.674001,-0.9190601,-0.4485878,0.01676115,0.5897114,-0.8034395,7.099043,-4.361161,5.319797,1008.18
2.543222904,-4.62887,-0.8016545,-0.204825,0.008056396,0.5926146,-0.7961527,6.712957,-4.732958,4.458475,1008.178
2.577983856,-1.654134,-0.390735,0.1608192,0.005134792,0.5998521,-0.7999727,6.712957,-4.732958,4.458475,1008.177
2.610261917,-0.2907136,0.4311039,0.3436413,0.007554829,0.5944933,-0.8125778,6.712957,-4.732958,4.458475,1008.177
2.645022869,0.9487596,0.665915,0.3436413,0.01627663,0.5921493,-0.7976234,6.724942,-4.727323,4.894202,1008.177
2.677300930,2.126259,0.6072122,0.2827006,0.02110431,0.5935969,-0.8029434,7.087719,-4.731312,4.888686,1008.179
2.709578514,2.622048,0.4311039,0.1608192,0.02012608,0.5974573,-0.8053364,7.087719,-4.731312,4.888686,1008.179
2.744339943,3.241785,-0.09722112,0.09987852,0.02111856,0.5892579,-0.7981337,6.725603,-5.091839,4.898818,1008.179
2.776617527,4.357311,-0.1559239,0.09987852,0.0191968,0.5819739,-0.8039722,6.350842,-5.093485,4.468606,1008.179
2.811378956,5.53481,-0.1559239,-0.1438843,0.01871454,0.5785571,-0.8122091,6.350842,-5.093485,4.468606,1008.179
2.843656540,4.233364,-0.390735,-0.1438843,0.01144852,0.5809265,-0.8208818,7.08838,-5.095827,4.893302,1008.179
2.878417969,0.5769176,-0.1559239,-0.1438843,0.01869188,0.586282,-0.8174829,7.099043,-4.361161,5.319797,1008.179
2.910695553,-3.079528,-0.1559239,-0.204825,0.01774539,0.5775684,-0.8175305,7.099043,-4.361161,5.319797,1008.179
2.942973614,-5.682422,-0.03851834,-0.0829436,0.01338678,0.5824149,-0.8116922,6.711634,-4.003926,4.449244,1008.179
2.977734566,-4.752818,0.13759,-0.1438843,0.01144771,0.5853211,-0.8092543,6.351503,-5.458,4.473222,1008.179
3.010012627,-2.76966,0.3136983,0.09987852,0.01483194,0.5877718,-0.802963,6.351503,-5.458,4.473222,1008.177
3.044773579,-1.344266,-0.03851834,-0.0829436,0.02594754,0.5921769,-0.7976441,7.075734,-4.736946,4.452959,1008.177
3.077051640,-1.158345,0.1962928,-0.02200289,0.0230275,0.5945342,-0.8135778,7.075072,-4.37243,4.448343,1008.175
3.109329224,-1.344266,0.07888721,0.2217599,0.01963937,0.5974429,-0.809203,7.075072,-4.37243,4.448343,1008.174
3.144090652,1.010733,-0.4494378,-0.204825,0.01773361,0.5877817,-0.8024857,6.712296,-4.368442,4.453859,1008.174
3.176368237,2.869943,-0.6255462,-0.204825,0.01822746,0.5834277,-0.8025115,6.350181,-4.728969,4.46399,1008.176
3.211129665,2.745996,-0.09722112,-0.02200289,0.01482741,0.5901963,-0.8014989,6.350181,-4.728969,4.46399,1008.173
3.243407250,0.9487596,0.13759,-0.0829436,0.01385979,0.5887254,-0.8063394,6.72428,-4.362807,4.889586,1008.171
3.278168678,-0.9724239,0.3136983,0.1608192,0.01047221,0.5887042,-0.8097164,6.350181,-4.728969,4.46399,1008.171
3.310446262,-1.096371,0.7246178,0.5264634,0.01869063,0.5901861,-0.8077919,6.350181,-4.728969,4.46399,1008.171
3.342724323,-0.5386083,0.1962928,0.03893781,0.01724896,0.5887531,-0.8010288,7.089042,-5.460343,4.897919,1008.171
3.377485275,0.08112836,-0.09722112,-0.1438843,0.01532019,0.587304,-0.7986157,7.075734,-4.736946,4.452959,1008.173
3.409763336,1.196654,0.2549956,0.09987852,0.01677168,0.5834023,-0.8087932,7.075734,-4.736946,4.452959,1008.172
3.444524288,0.9487596,0.4898067,0.5874042,0.01723683,0.5901688,-0.8116564,7.087719,-4.731312,4.888686,1008.172
3.476802349,0.143102,0.3724011,0.2827006,0.00951344,0.5843379,-0.8121564,6.71428,-5.461989,4.467707,1008.172
3.511563301,-1.096371,0.5485094,0.404582,0.02207533,0.5887292,-0.8121585,6.712296,-4.368442,4.453859,1008.168
3.543841362,-3.389397,0.1962928,-0.3267064,0.01241686,0.5863099,-0.8039329,6.712296,-4.368442,4.453859,1008.168
3.576119900,-4.814791,0.4898067,0.1608192,0.01726393,0.5834397,-0.7981584,7.075072,-4.37243,4.448343,1008.168
3.610880375,-5.12466,0.4898067,0.09987852,0.02449256,0.5921548,-0.8029589,6.362165,-4.723334,4.899717,1008.166
3.643157959,-5.868343,0.2549956,-0.2657657,0.01627967,0.5906959,-0.798115,6.362165,-4.723334,4.899717,1008.166
3.677919388,-6.178212,0.1962928,-0.0829436,0.02157029,0.6008556,-0.8033865,7.075734,-4.736946,4.452959,1008.166
3.710196972,-5.372554,0.2549956,0.03893781,0.0206064,0.6013547,-0.7980638,7.075734,-4.736946,4.452959,1008.166
3.744958401,-4.009133,0.07888721,-0.1438843,0.01915804,0.6047807,-0.7854718,7.075734,-4.736946,4.452959,1008.17
3.777235985,-2.025976,0.3724011,0.404582,0.01770653,0.6037956,-0.7893417,6.712957,-4.732958,4.458475,1008.17
3.809514523,-0.3526873,0.2549956,0.5264634,0.02205783,0.6013622,-0.7970999,7.064409,-5.107097,4.021848,1008.169
3.844274998,1.134681,-0.03851834,0.09987852,0.0206001,0.6062153,-0.7917514,7.064409,-5.107097,4.021848,1008.169
3.876553535,3.303759,0.07888721,0.5264634,0.02592518,0.6033236,-0.7927462,7.064409,-5.107097,4.021848,1008.167
3.911314011,4.419284,-0.8016545,-0.2657657,0.01771322,0.5989366,-0.7951707,6.350181,-4.728969,4.46399,1008.167
3.943592548,5.286916,-0.2733294,0.6483449,0.01239674,0.5959998,-0.8004937,6.350181,-4.728969,4.46399,1008.167
3.978353024,5.162968,-0.8016545,-0.3876471,0.02012639,0.5964813,-0.8077592,5.976079,-5.095131,4.038394,1008.165
4.010631084,4.419284,-2.269224,-1.606461,0.01772415,0.5926291,-0.8000409,6.713618,-5.097473,4.463091,1008.165
4.042909622,5.844678,-2.327927,-2.093987,0.02156644,0.597419,-0.8179092,6.713618,-5.097473,4.463091,1008.169
4.077670097,5.720731,-3.44328,-2.825275,0.0225528,0.5916374,-0.8111761,6.712957,-4.732958,4.458475,1008.169
4.109948158,6.278494,-4.852146,-3.922208,0.01287554,0.5959815,-0.8062961,7.08838,-5.095827,4.893302,1008.168
4.144709110,9.315204,-8.022096,-6.359837,0.01140748,0.6003034,-0.8149703,7.08838,-5.095827,4.893302,1008.168
4.176987171,11.36034,-9.489665,-7.273947,0.0007733863,0.5905157,-0.8382081,6.362826,-5.087851,4.904333,1008.168
4.211748123,5.100995,-8.31561,-6.725481,0.003219976,0.5813574,-0.8295636,6.736928,-4.721688,5.329928,1008.166
4.244026184,2.436127,-8.374312,-7.213006,-0.004961721,0.5702543,-0.8146224,6.736928,-4.721688,5.329928,1008.168
4.276304245,5.906652,-8.139502,-6.481718,-0.01025954,0.5683722,-0.7943172,6.386136,-4.712066,5.771171,1008.17
4.311064720,13.52941,-9.841882,-7.57865,-0.02619174,0.5532806,-0.8074216,6.761559,-5.074935,6.205998,1008.172
4.343343258,14.2731,-10.1941,-8.43182,-0.04163699,0.5411365,-0.8079408,6.761559,-5.074935,6.205998,1008.17
4.378103733,11.54626,-6.61323,-4.775378,-0.05522033,0.5482453,-0.8407449,7.11169,-4.720042,5.760139,1008.17
4.410382271,6.71231,-5.380471,-3.922208,-0.04363546,0.5521041,-0.8542842,7.123675,-4.714408,6.195867,1008.17
4.442659855,-2.025976,-4.558632,-4.592556,-0.04311926,0.5410013,-0.8466135,7.123675,-4.714408,6.195867,1008.174
4.477421284,-7.479659,-4.382524,-3.495623,-0.04215157,0.5434499,-0.8388667,6.760237,-4.345903,6.196767,1008.171
4.509698868,-7.851501,-6.143607,-4.836319,-0.05037894,0.5482837,-0.8335036,6.410107,-4.700796,6.642624,1008.171
4.544460297,-9.896631,-3.267171,-4.592556,-0.02088791,0.5654498,-0.7909269,7.507387,-3.978901,6.990327,1008.171
4.576737881,-5.99229,-5.55658,-4.409734,-0.05137778,0.5652529,-0.8232527,7.507387,-3.978901,6.990327,1008.171
4.611499309,-0.1047926,-5.673985,-5.262904,-0.06058069,0.572981,-0.8198048,6.773544,-5.069301,6.641725,1008.171
4.643776894,5.286916,-6.084905,-5.080081,-0.06493492,0.5690496,-0.8338376,6.795142,-4.694321,7.446316,1008.173
4.676054954,10.4927,-5.615283,-4.348793,-0.07459324,0.5636987,-0.8338472,6.795142,-4.694321,7.446316,1008.171
4.710815906,13.34349,-4.030307,-3.922208,-0.0208739,0.5581777,-0.7948358,6.782495,-4.33544,7.005974,1008.171
4.743093967,15.4506,-6.261013,-4.226912,-0.08176674,0.5341992,-0.8219135,7.157257,-4.333794,7.436184,1008.171
4.777854919,14.2731,-7.200257,-4.470675,-0.07402857,0.5278746,-0.838403,7.157257,-4.333794,7.436184,1008.169
4.810132980,9.996914,-8.256907,-5.872311,-0.07887221,0.529293,-0.8441858,7.155934,-3.604762,7.426952,1008.169
4.844893932,5.844678,-6.848041,-6.116074,-0.1039762,0.5113075,-0.8466511,6.454351,-3.585516,8.309438,1008.169
4.877171993,-0.2287399,-5.673985,-4.775378,-0.09383103,0.5137414,-0.8510101,6.454351,-3.585516,8.309438,1008.169
4.909449577,-2.583739,-6.554527,-4.592556,-0.08319945,0.5220527,-0.8350323,6.817128,-3.589504,8.303923,1008.174
4.944211006,-6.48808,-6.61323,-4.105031,-0.08992636,0.5085275,-0.8220419,7.179905,-3.593493,8.298407,1008.174
4.976488590,-9.028999,-6.789338,-4.105031,-0.09722456,0.5229805,-0.8349968,7.179905,-3.593493,8.298407,1008.174
5.011250019,-10.14453,-7.082852,-4.653497,-0.1166118,0.5329992,-0.8610038,7.518712,-3.60875,7.421437,1008.172
5.043527603,-11.50795,-7.728582,-4.897259,-0.1064616,0.5427838,-0.8382484,7.543344,-3.961997,8.297507,1008.172
5.078289032,-6.921896,-8.198204,-4.226912,-0.1035615,0.5471851,-0.8271105,7.543344,-3.961997,8.297507,1008.172
5.110566616,-7.355711,-9.313557,-5.141022,-0.109897,0.5660207,-0.832791,6.817789,-3.95402,8.308538,1008.172
5.142845154,-7.479659,-10.72242,-5.81137,-0.1180495,0.5447764,-0.8116229,6.793158,-3.600773,7.432468,1008.172
5.177605629,-4.504923,-10.37021,-5.080081,-0.1320516,0.5384698,-0.804377,6.793158,-3.600773,7.432468,1008.176
5.209884167,-4.319002,-10.2528,-3.922208,-0.1572425,0.548467,-0.8318219,6.805143,-3.595139,7.868196,1008.172
5.244644642,-9.896631,-9.254854,-3.373742,-0.1572309,0.5450943,-0.8274902,7.157257,-4.333794,7.436184,1008.172
5.276923180,-18.07715,-7.317663,-3.190919,-0.164012,0.5587102,-0.8022593,7.157257,-4.333794,7.436184,1008.178
5.311683655,-24.64636,-3.854199,-1.667402,-0.1751616,0.5693133,-0.8055591,7.506727,-3.614385,6.985711,1008.178
5.343961716,-28.11689,-3.149766,-0.7532913,-0.1500248,0.5771723,-0.7925157,7.847906,-3.993353,6.175604,1008.176
5.376240254,-22.97307,-2.797549,0.404582,-0.1500184,0.5825741,-0.76928,7.847906,-3.993353,6.175604,1008.174
5.411000729,-24.64636,-1.917007,-0.5095286,-0.1727988,0.6052538,-0.7691019,7.473144,-3.994999,5.745393,1008.174
5.443279266,-23.96465,-1.095168,-0.204825,-0.162222,0.6250662,-0.7864159,7.099043,-4.361161,5.319797,1008.176
5.478039742,-28.67465,-2.914954,-1.911165,-0.1710206,0.6676517,-0.7789031,7.449835,-4.370784,4.878555,1008.176
5.510318279,-33.19873,-0.6255462,-2.947157,-0.1893729,0.6623169,-0.766808,7.449835,-4.370784,4.878555,1008.176
5.545078754,-36.17346,3.014026,-0.7532913,-0.1952227,0.6870265,-0.7531186,7.43785,-4.376419,4.442828,1008.174
5.577357292,-43.6103,6.242679,-3.617504,-0.1947203,0.690038,-0.721679,7.403606,-4.392518,3.197895,1008.174
5.609634876,-64.86727,8.766899,-9.955338,-0.2318744,0.6374821,-0.7765263,7.403606,-4.392518,3.197895,1008.174
5.644396305,-76.3324,17.92453,-35.7942,-0.4000213,0.5412592,-0.8970873,6.666728,-4.754691,2.777814,1008.174
5.676673889,-40.94543,10.46928,-41.94921,-0.4897963,0.4551895,-0.9437934,7.006195,-5.134464,1.905461,1008.179
5.711435318,23.25928,-3.678091,-32.68622,-0.4288029,0.4385359,-0.9116291,7.006195,-5.134464,1.905461,1008.179
5.743712902,69.67754,-0.7429517,-42.13203,-0.33697,0.4611085,-0.8971955,8.059622,-4.798013,0.6393647,1008.179
5.775990963,97.50372,3.014026,-50.90749,-0.3617173,0.4812041,-0.9439215,7.70883,-4.78839,1.080607,1008.179
5.810751915,97.5657,7.53414,-62.91281,-0.4012006,0.4143479,-0.932614,7.70883,-4.78839,1.080607,1008.179
5.843029976,75.37913,10.9976,-78.20893,-0.4179153,0.3433324,-0.8827041,8.083203,-5.51658,1.457804,1008.179
5.877790928,36.70756,13.0522,-93.26128,-0.4346732,0.2990148,-0.8084704,8.083864,-5.881096,1.46242,1008.181
5.910068989,5.53481,13.69793,-106.5464,-0.4601729,0.2647775,-0.7510809,8.083864,-5.881096,1.46242,1008.179
5.944829941,-19.50255,14.75458,-123.2441,-0.4764217,0.1902694,-0.7326155,8.440887,-8.380772,1.114966,1008.179
5.977108002,-26.4436,15.2242,-147.4376,-0.4628739,0.01495846,-0.6398543,8.806311,-9.842823,1.127914,1008.176
6.009386539,-21.91952,-1.97571,-144.0858,-0.5094256,-0.08242796,-0.4923755,8.806311,-9.842823,1.127914,1008.174
6.044147015,-8.781105,-6.848041,-131.7149,-0.645852,0.1416478,-0.5140125,10.6351,-12.40955,1.506127,1008.172
6.076425552,-7.727553,-24.9285,-132.7509,-0.6158726,0.1554146,-0.4753237,11.38859,-14.59335,2.394245,1008.175
6.111186028,-39.58201,-32.55986,-128.3631,-0.5902236,0.1892933,-0.3528763,11.38859,-14.59335,2.394245,1008.175
6.143464565,-79.12122,-38.89976,-126.474,-0.6532526,0.284685,-0.2820995,12.17368,-15.30299,4.508834,1008.173
6.178225040,-109.6123,-41.30657,-125.6817,-0.6865624,0.2706458,-0.2555184,12.9485,-16.01746,6.249942,1008.171
6.210503578,-141.5907,-48.05739,-118.5517,-0.7555493,0.4215744,-0.2134193,12.9485,-16.01746,6.249942,1008.169
6.242781162,-125.8494,-50.11199,-118.3689,-0.7252235,0.2652529,-0.2433798,13.99863,-16.0183,7.043522,1008.169
6.277542591,-115.5617,-53.28194,-120.8065,-0.7718264,0.3728489,-0.1551652,14.69928,-14.57867,6.20482,1008.175
6.309820175,-102.7952,-55.45394,-124.0363,-0.787692,0.3150307,-0.2100883,14.69928,-14.57867,6.20482,1008.175
6.344581604,-57.4924,-60.15016,-127.8147,-0.9095339,0.5228565,-0.1839886,16.10715,-10.60186,4.824803,1008.175
6.376859188,-23.53084,-61.67643,-133.8478,-1.030297,0.4907698,-0.1254147,15.7139,-7.024734,3.913475,1008.175
6.411620617,-17.0236,-47.29425,-129.5819,-1.120058,0.390097,-0.1973426,16.39595,-1.94559,2.592888,1008.177
6.443898201,9.872967,-40.42603,-124.8286,-1.267271,0.474302,-0.2149172,16.39595,-1.94559,2.592888,1008.179
6.476176262,16.69007,-46.0615,-120.8674,-1.369483,0.5768473,-0.1420815,17.07563,3.497266,1.205439,1008.179
6.510937214,14.2731,-49.64236,-107.7652,-1.597646,0.5325052,-0.1819673,17.03344,7.855357,-0.09488583,1008.18
6.543215275,-0.1667663,-56.62799,-86.74063,-1.738435,0.5356942,-0.2643138,17.03344,7.855357,-0.09488583,1008.186
6.577976227,-6.735975,-61.50032,-53.64983,-1.553555,0.4699585,-0.2549338,16.9674,12.14143,-2.265894,1008.191
6.610254288,-15.04044,-66.25525,-30.06577,-1.380233,0.3887498,-0.2320806,17.25706,14.65685,-4.793588,1008.195
6.677293301,-8.657158,-69.71872,-0.204825,-1.066945,0.2155216,-0.2066682,16.43469,16.07862,-8.224588,1008.196
6.709571838,-1.096371,-62.79178,13.26307,-0.9512806,0.1732516,-0.2115088,15.97642,16.76737,-11.65187,1008.198
6.744332313,5.782705,-50.3468,22.83076,-0.8704581,0.1493401,-0.1958654,15.97642,16.76737,-11.65187,1008.2
6.776610374,6.71231,-32.61856,31.4234,-0.9037282,0.121782,-0.1601759,15.87065,17.4473,-15.45815,1008.203
6.811371326,3.48968,-20.64319,41.41768,-0.9365939,0.1183316,-0.1509394,15.4606,17.06423,-17.19093,1008.203
6.843649387,-7.975448,-13.18794,47.69457,-0.9582639,0.09762754,-0.1016997,15.4606,17.06423,-17.19093,1008.209
6.878410339,-20.68005,-6.906744,46.23199,-1.036961,0.05978518,-0.06355357,15.40437,15.94332,-19.29347,1008.209
6.910688400,-33.81846,-0.6255462,44.70847,-1.094796,-0.02608356,-0.07793689,15.37144,15.19818,-20.52917,1008.211
6.942966461,-36.5453,-0.2146267,42.45367,-1.129915,-0.1119365,-0.1068722,15.37144,15.19818,-20.52917,1008.211
6.977727413,-24.21255,-1.036466,41.72238,-1.15338,-0.218073,-0.1335308,14.97404,14.45624,-21.8216,1008.212
7.010005474,-2.831634,-4.617335,45.92729,-1.113605,-0.2751107,-0.1479606,15.70025,14.08375,-21.82802,1008.212
7.044766426,15.26468,-7.435069,45.92729,-1.059964,-0.2706904,-0.1741568,15.70025,14.08375,-21.82802,1008.212
7.077044487,29.14677,-10.54632,41.53955,-1.000468,-0.282169,-0.1845025,16.41448,13.70562,-22.27016,1008.212
7.109322548,34.10467,-9.783179,34.04385,-0.992754,-0.2675799,-0.169933,16.05567,11.52251,-22.23695,1008.214
7.144083500,29.0848,-10.42891,22.16041,-0.9787986,-0.2326347,-0.1513937,16.05567,11.52251,-22.23695,1008.212
7.176361084,15.94639,-10.01799,5.950186,-0.9726056,-0.1851131,-0.1279318,16.40977,9.690311,-22.65511,1008.212
7.211122513,-3.513344,-8.374312,-13.97742,-0.9872058,-0.1303233,-0.0840793,16.03926,8.292159,-23.00538,1008.212
7.243400097,-18.94479,-3.736794,-35.85514,-0.9828598,-0.1225172,-0.06905767,16.03926,8.292159,-23.00538,1008.212
7.278161526,-18.63492,3.542351,-55.1124,-0.9978451,-0.1372007,-0.1053668,15.66516,7.925997,-23.43098,1008.216
7.310439110,-2.397818,7.827654,-67.2396,-1.038932,-0.1494738,-0.1222684,15.6513,8.953157,-23.87978,1008.216
7.342717648,16.3802,9.060412,-70.5304,-1.080614,-0.1099253,-0.1263046,15.6513,8.953157,-23.87978,1008.216
7.377478123,27.16362,8.473385,-65.83797,-1.096752,-0.02764736,-0.1093651,15.29654,11.14988,-23.46624,1008.216
7.409756661,24.00296,7.53414,-60.77989,-1.105611,0.04498584,-0.08862858,15.67826,12.97893,-22.68562,1008.216
7.444517136,9.005336,6.183976,-52.30913,-1.083458,0.09305665,-0.05939667,15.67562,14.43699,-22.70409,1008.215
7.476795673,-10.2065,8.003762,-44.26496,-1.069956,0.1129757,-0.04770998,15.67562,14.43699,-22.70409,1008.217
7.511556148,-27.18728,7.827654,-35.67232,-1.033174,0.1034399,-0.03672438,15.68562,15.53617,-22.28221,1008.217
7.543834686,-36.85517,10.58669,-29.02978,-1.018603,0.07980654,-0.02577107,15.33284,16.63935,-21.85481,1008.217
7.576112747,-37.59886,12.40647,-21.83878,-1.020457,0.0483686,-0.01917769,15.33284,16.63935,-21.85481,1008.219
7.610873699,-31.77333,13.87404,-12.88049,-1.024812,0.05127282,-0.01528428,15.7043,18.46357,-21.44768,1008.219
7.643151760,-26.13373,10.41058,-5.933251,-1.008832,0.04604274,-0.001328737,16.09999,19.20471,-20.21749,1008.22
7.677912712,-22.35334,7.710249,2.903151,-0.9686738,0.03745823,0.001919974,16.09999,19.20471,-20.21749,1008.222
7.710190773,-19.25465,4.481596,10.39886,-0.9323612,0.01478779,-0.006989087,16.48542,19.94102,-19.36079,1008.222
7.744951725,-19.75044,3.659757,16.06634,-0.9342197,-0.01911076,-0.01249565,15.76987,21.04818,-18.92788,1008.224
7.777229786,-19.68847,3.30754,21.49007,-0.9481568,-0.05740086,-0.01848459,15.76987,21.04818,-18.92788,1008.228
7.809507370,-22.35334,3.248837,23.74487,-0.9926009,-0.07738877,-0.02430372,16.15661,21.05546,-18.06194,1008.228
7.844268799,-36.5453,2.603106,19.90561,-1.091156,-0.10858,-0.005897993,16.87217,19.94831,-18.49485,1008.228
7.876546383,-47.51464,-4.969552,11.31297,-1.10985,-0.1900485,-0.04016164,16.87217,19.94831,-18.49485,1008.228
7.911307812,-40.82149,-16.4166,4.670431,-1.090794,-0.2834911,-0.06974034,16.53165,19.96276,-17.68013,1008.228
7.943586349,-20.06031,-23.98925,3.939143,-1.052564,-0.308669,-0.1062238,16.87151,20.31282,-18.49947,1008.228
7.978346825,-10.02058,-22.16947,-1.057995,-1.018493,-0.2158237,-0.1550801,16.87151,20.31282,-18.49947,1008.228
8.010625362,-14.73058,-13.30535,-10.13816,-0.9959521,-0.1793913,-0.2762646,16.48344,21.03457,-19.37464,1008.228
8.042902946,-4.690844,-5.615283,-5.689488,-0.9176551,-0.1827432,-0.3320478,16.43456,22.4709,-21.07376,1008.228
8.077664375,23.87901,13.63923,1.867159,-0.9308354,-0.131986,-0.3370487,16.43456,22.4709,-21.07376,1008.228
8.109941959,34.16665,24.67535,2.659388,-1.05074,-0.111253,-0.2578719,16.08311,22.84504,-20.63713,1008.228
8.144703388,28.21717,32.18931,0.831167,-1.08436,-0.0298216,-0.3332363,16.10537,22.8555,-19.82793,1008.226
8.176980972,-4.504923,51.1503,-8.797464,-1.182992,-0.05889128,-0.4028041,16.10537,22.8555,-19.82793,1008.226
8.211742401,-31.83531,61.5994,-12.81955,-1.241818,-0.1639194,-0.5009292,15.79318,21.42397,-18.06104,1008.229
8.244019985,-37.28899,72.81163,-14.95248,-1.224744,-0.2116292,-0.4567609,16.58893,21.44899,-15.51996,1008.229
8.276298046,-42.86662,79.85596,-10.32098,-1.218429,-0.2095363,-0.4156703,16.58893,21.44899,-15.51996,1008.229
8.311058998,-47.88649,79.91467,-0.5704692,-1.160333,-0.2168971,-0.3520235,16.3306,21.50208,-11.71739,1008.227
8.343337059,-56.5628,70.87444,5.340779,-1.071978,-0.1468322,-0.3145908,17.53707,21.54566,-7.43892,1008.227
8.378098011,-71.93227,58.37075,11.67861,-0.9864742,-0.1029537,-0.290837,17.27768,21.23343,-3.693987,1008.225
8.410376072,-81.66213,47.21722,21.61195,-0.9135281,-0.05758563,-0.245293,17.27768,21.23343,-3.693987,1008.225
8.442654610,-101.1219,33.77428,29.29048,-0.853667,-0.00797815,-0.2229018,17.0104,20.55265,-0.255672,1008.223
8.477415562,-116.4294,21.79891,38.55346,-0.7548595,-0.05734912,-0.1668332,17.09457,19.49775,2.746017,1008.222
8.509693622,-114.1983,8.532087,46.59763,-0.6648913,-0.05843895,-0.1360932,17.09457,19.49775,2.746017,1008.22
8.544454574,-106.6995,-3.971605,35.26266,-0.6353821,-0.04559557,-0.08387236,17.15411,18.79608,4.871635,1008.218
8.576732635,-97.34147,-3.736794,16.67575,-0.5922137,-0.08254993,-0.02954694,17.17006,16.61462,5.335058,1008.218
8.611493587,-72.61398,-0.7429517,-6.298896,-0.6303003,0.07316068,-0.03051325,17.17006,16.61462,5.335058,1008.217
8.643771648,-35.86359,-1.329979,-35.97702,-0.7057568,0.05916569,-0.09811162,17.54416,16.98078,5.760653,1008.215
8.676049232,6.71231,-8.256907,-53.64983,-0.8516737,-0.01896702,-0.1828432,16.83059,16.99439,6.207411,1008.219
8.710810661,79.6553,-13.01183,-57.00156,-1.010401,0.005962396,-0.2606764,16.83059,16.99439,6.207411,1008.221
8.743088245,141.0712,-26.80699,-55.59993,-1.110138,0.0354535,-0.3274918,17.16676,18.4372,5.311978,1008.221
8.777849674,174.9088,-46.23761,-37.25677,-1.102499,0.06439175,-0.3626347,17.11352,21.33079,3.532144,1008.219
8.810127258,175.2187,-63.32011,-19.52303,-1.059049,0.1126053,-0.3092759,17.11352,21.33079,3.532144,1008.217
8.844888210,152.4124,-73.53439,0.5264634,-1.075564,0.1532984,-0.2824198,17.00709,22.37523,-0.2787514,1008.217
8.877166271,108.1632,-74.12142,18.07739,-1.060035,0.1428239,-0.2448046,16.53684,23.05835,-4.141762,1008.217
8.909444809,53.75032,-72.18423,28.80295,-1.079852,0.1462236,-0.2244382,16.53684,23.05835,-4.141762,1008.217
8.944205761,2.374154,-59.85665,28.31542,-1.089361,0.07845084,-0.2233527,15.68657,21.91321,-8.723139,1008.222
8.976483822,-23.84071,-49.17274,24.59804,-1.076686,0.01685094,-0.2759416,15.96848,21.14156,-11.70726,1008.22
9.011244774,-30.53386,-39.25197,21.36819,-1.027649,-0.06916837,-0.2823377,15.96848,21.14156,-11.70726,1008.22
9.043522835,-23.09702,-29.50731,20.6369,-0.982103,-0.102861,-0.2671574,15.8996,20.37952,-14.25015,1008.218
9.078283787,-33.81846,13.34572,11.43485,-0.9574853,0.07583692,-0.3923719,15.86338,21.45697,-15.50893,1008.22
9.110561848,-40.26373,13.63923,-6.603599,-1.189979,-0.21076,-0.5153269,15.86338,21.45697,-15.50893,1008.22
9.142839432,-26.19571,6.653598,-6.481718,-1.301514,-0.3882311,-0.2400521,15.5006,21.46096,-15.50341,1008.217
9.177600861,23.94099,-16.82751,6.742415,-0.9951969,-0.2486333,-0.1461315,15.88564,21.46743,-14.69972,1008.217
9.209878445,51.58124,-13.42275,15.51788,-0.8553196,0.145112,-0.02816886,15.88564,21.46743,-14.69972,1008.217
9.244639874,11.6702,-10.1354,15.09129,-1.037474,0.2878253,-0.02986545,15.88365,22.56098,-14.71357,1008.217
9.276918411,-32.39307,-6.554527,-8.980287,-1.023248,0.1846182,-0.08076056,16.23577,21.82233,-15.14558,1008.217
9.311678886,-32.64096,-3.619388,-12.08826,-0.9973837,-0.1196993,-0.0820632,15.87365,21.4618,-15.13545,1008.217
9.343957424,-2.583739,-0.8603573,-11.35697,-1.033416,-0.1994661,-0.02781051,15.87365,21.4618,-15.13545,1008.219
9.376235008,14.89283,2.426998,-6.298896,-0.9941613,-0.05341434,-0.08846139,15.13716,21.82946,-15.50251,1008.217
9.410996437,14.52099,3.014026,-11.23509,-1.043777,0.06690682,-0.09830597,14.75975,23.28588,-15.95119,1008.221
9.443274021,1.258628,2.485701,-11.41792,-0.992258,-0.02177328,-0.03510732,14.75975,23.28588,-15.95119,1008.221
9.478035450,0.886786,6.007868,-11.11321,-0.9970427,-0.06555689,-0.09915987,15.86073,22.91503,-15.52739,1008.219
9.510313034,7.641915,4.481596,-9.711576,-1.013061,-0.03604847,-0.08880536,16.23312,23.28039,-15.16404,1008.219
9.545074463,3.427706,4.892515,-9.955338,-1.008235,-0.03167438,-0.08734057,16.23312,23.28039,-15.16404,1008.219
9.577352047,2.869943,4.833812,-9.28499,-1.008161,-0.06704047,-0.09914435,16.59761,23.27721,-15.10731,1008.219
9.609630108,5.286916,4.305487,-6.298896,-1.000881,-0.07863893,-0.1006763,16.23246,23.64491,-15.16866,1008.219
9.644391060,2.931917,4.246784,-2.947157,-1.004752,-0.07963587,-0.1059915,16.23246,23.64491,-15.16866,1008.221
9.676669598,1.568496,3.95327,-0.7532913,-1.009122,-0.06702031,-0.09237402,15.50862,23.65369,-15.09538,1008.225
9.711430073,1.692443,2.661809,0.8921077,-1.008653,-0.06854442,-0.1141384,16.24378,24.01506,-14.73755,1008.225
9.743708610,0.3909967,1.663862,2.354685,-1.012535,-0.06470206,-0.1194261,16.24378,24.01506,-14.73755,1008.225
9.775986671,-0.6625556,0.07888721,3.390677,-1.013517,-0.0637894,-0.1348888,15.88167,23.65453,-14.72742,1008.225
9.810747623,-1.716108,-0.9777628,3.451617,-1.009203,-0.03657048,-0.1033198,15.88167,23.65453,-14.72742,1008.225
9.843025684,-4.62887,-1.623493,3.451617,-0.9980785,-0.04287726,-0.1173994,15.88167,23.65453,-14.72742,1008.225
9.877786636,-2.893607,-0.390735,2.415625,-1.012557,-0.04378012,-0.08594978,16.2451,23.28602,-14.72832,1008.229
9.910064697,0.08112836,-3.149766,2.293744,-1.012607,-0.04252326,-0.1434717,15.88167,23.65453,-14.72742,1008.229
9.944825649,-0.3526873,-4.734741,3.268795,-1.002327,-0.08155484,-0.103107,15.88167,23.65453,-14.72742,1008.229
9.977103710,-0.3526873,-5.850093,6.133008,-1.035313,-0.05373988,-0.1497713,16.23246,23.64491,-15.16866,1008.229
10.009382248,1.196654,-6.848041,6.620534,-1.015455,-0.03937736,-0.06948158,15.88233,23.29001,-14.7228,1008.231
10.044142723,0.0191547,-6.61323,5.889246,-0.9986392,-0.001172334,-0.09105533,15.88233,23.29001,-14.7228,1008.231
10.076421261,-7.231764,-2.621441,5.340779,-0.9975031,-0.06399674,-0.06675962,15.88167,23.65453,-14.72742,1008.229
10.111181736,2.560075,-3.44328,6.681475,-1.021709,-0.04952344,-0.05937357,16.22351,22.91105,-15.53291,1008.229
10.143460274,2.869943,-3.678091,6.072067,-1.00346,-0.01480823,-0.1123938,16.22351,22.91105,-15.53291,1008.229
10.178221226,-32.95083,-27.39401,-5.019141,-0.6251031,-0.2385169,0.09871526,15.871,22.91986,-15.15391,1008.235
10.210499287,-5.186633,-16.71011,-2.459631,-1.250487,0.1523182,-0.1379837,16.22351,22.91105,-15.53291,1008.235
10.242776871,-6.797948,-13.83367,-8.614642,-1.070822,0.06892073,-0.05230955,16.22351,22.91105,-15.53291,1008.233
10.277538300,0.5769176,-11.60297,-11.05227,-1.005299,-0.02028183,-0.01234912,15.87034,23.28438,-15.15853,1008.231
10.309815884,-3.699265,-5.55658,-8.37088,-1.011413,-0.1266078,-0.1096282,15.13451,23.28753,-15.52098,1008.231
10.344576836,19.10704,-9.724477,-11.78356,-0.9346114,-0.08225873,-0.08246904,15.84676,24.00294,-15.97696,1008.235
10.376854897,17.49573,-8.609123,-18.85268,-1.018376,-0.02431671,-0.04956866,15.84676,24.00294,-15.97696,1008.235
10.411615849,21.0902,-11.01594,-25.86086,-1.058935,-0.06328308,-0.08982822,15.48332,24.37145,-15.97606,1008.234
10.443894386,25.8002,-10.72242,-38.17089,-1.046741,-0.09751079,-0.06152624,14.73258,25.03644,-16.84495,1008.234
10.476172447,26.41993,-7.024149,-44.81342,-1.049984,-0.1653442,-0.08365968,14.73258,25.03644,-16.84495,1008.234
10.510933399,34.22862,-9.430963,-46.21506,-1.057666,-0.1802878,-0.06003959,15.44615,25.02283,-17.29171,1008.234
10.543211460,37.5752,-8.080798,-50.60279,-1.092967,-0.1760006,-0.05027036,15.43284,25.74622,-17.73667,1008.232
10.577972412,43.46269,-11.30945,-52.00443,-1.112447,-0.1062605,-0.01744145,15.43284,25.74622,-17.73667,1008.232
10.610250473,37.07941,-15.30124,-59.7439,-1.183304,0.008279548,-0.001650868,14.29696,26.46548,-19.41001,1008.232
10.645011425,13.28152,-22.05206,-75.28378,-1.16736,0.001427316,-0.0379821,14.28432,26.82437,-19.85036,1008.232
10.677289486,-2.521765,-26.27866,-96.1255,-1.19477,-0.07180823,-0.06299481,14.28432,26.82437,-19.85036,1008.232
10.709568024,-2.335845,-22.75649,-128.9116,-1.542261,-0.2132898,-0.2496577,13.53386,28.27994,-20.667,1008.23
10.744328499,60.13361,-52.16658,-148.1079,-1.552621,-0.03780561,-0.5797931,13.86671,31.54533,-21.58551,1008.229
10.776607037,117.4592,-75.17808,-174.739,-1.68984,0.2568215,-0.7736148,13.86671,31.54533,-21.58551,1008.231
10.811367512,130.9695,-97.66124,-209.4143,-1.378226,0.001635184,-0.08393656,12.79759,34.45585,-22.91399,1008.229
10.843646049,148.8799,-30.97488,-111.7873,-0.6893104,-0.1615479,0.4464003,11.22477,37.3332,-27.16163,1008.229
10.878407001,204.5942,105.6852,25.81686,-0.8394437,0.1345595,-0.1568578,11.22477,37.3332,-27.16163,1008.228
10.910685062,158.114,37.53126,9.911332,-0.8036751,0.456544,-0.4209954,10.01433,39.47672,-31.4678,1008.226
10.942962646,46.00361,59.5448,11.43485,-0.4280862,0.1185885,0.2090948,10.40901,35.10981,-30.54647,1008.224
10.977724075,-7.975448,121.5349,66.95183,-0.4319427,0.06780495,0.07780249,10.40901,35.10981,-30.54647,1008.222
11.010001659,-10.33045,150.945,77.00705,-0.5548874,0.1109206,0.05269038,10.43827,32.20495,-29.63809,1008.219
11.044763088,-61.52069,185.4623,115.4606,-0.6905354,-0.001404442,0.008351132,11.64369,31.88321,-25.41724,1008.219
11.077040672,-75.58871,194.7373,147.942,-0.8761325,-0.03872533,0.005154862,11.64369,31.88321,-25.41724,1008.217
11.109319210,-32.45504,194.796,181.6422,-1.088492,-0.2155491,-0.01473041,13.60207,29.40649,-18.12873,1008.216
11.144080639,27.34954,179.7681,211.6251,-1.346891,-0.1383814,-0.01566849,15.58457,26.18238,-12.20133,1008.214
11.176358223,59.51387,171.1388,217.2926,-1.493494,-0.09469888,0.003749961,15.58457,26.18238,-12.20133,1008.216
11.211119652,63.48018,148.0099,201.9355,-1.830498,0.1399427,0.1281204,16.84708,20.8407,-6.173723,1008.216
11.243397236,23.07336,115.7821,181.2157,-1.920912,0.1924971,0.2905661,19.29446,13.28268,3.22712,1008.216
11.278158665,-92.38358,67.29357,116.6185,-1.624688,-0.01551853,0.6324698,20.62114,4.687733,11.41265,1008.218
11.310436249,-209.6997,17.80713,14.42094,-1.429996,-0.4353656,0.3831092,20.62114,4.687733,11.41265,1008.218
11.342714787,-210.0096,-27.33531,-73.88214,-1.145481,-0.7704129,0.2341091,20.68994,-1.117153,13.6029,1008.222
11.377475262,-88.97503,-87.09474,-126.5349,-1.224827,-0.9307121,-1.449482,20.23498,-2.250983,10.19869,1008.222
11.409753800,301.3971,-196.6928,-143.903,-2.155183,-1.923286,-1.962664,20.23498,-2.250983,10.19869,1008.222
11.444514275,272.6413,-143.1559,-23.72794,-0.5646499,0.05529334,-0.2178471,21.52775,0.9420652,4.595132,1008.222
11.476792812,120.6199,-86.09679,-5.567607,-1.020275,0.435122,0.7246159,21.0808,2.000964,1.598958,1008.222
11.543831825,-78.37753,-30.09434,-33.35657,-0.9728001,-0.1487801,-0.2592201,19.56817,3.812129,-0.5184464,1008.224
11.576109886,-57.05859,-23.22612,-3.008097,-0.9818785,-0.3745616,-0.1894188,19.89538,4.521074,-1.778127,1008.223
11.610870838,31.31585,-33.26429,2.049981,-0.9382569,0.01145321,-0.1293053,19.89538,4.521074,-1.778127,1008.217
11.643148899,32.67928,-28.74418,-8.309939,-0.9287534,0.3317964,0.001573767,20.23353,4.870332,-2.659712,1008.219
11.677909851,-14.11084,-21.40633,-18.60892,-1.055185,0.1868778,-0.1009833,20.2189,6.322761,-3.113903,1008.217
11.710188389,-7.975448,-35.14278,-15.25718,-1.017,-0.005567119,-0.08717323,20.2189,6.322761,-3.113903,1008.217
11.744948864,14.64494,-29.97694,-19.21832,-1.029548,-0.01429903,-0.08284489,19.79962,6.300186,-5.162528,1008.217
11.777227402,22.08178,-31.79672,-21.35125,-1.057256,0.06369519,-0.03496471,18.68599,7.029914,-6.026667,1008.217
11.809504986,16.44217,-34.26224,-27.01874,-1.075525,6.455995E-05,-0.08943228,18.68599,7.029914,-6.026667,1008.216
11.844266415,7.579941,-38.89976,-27.32344,-1.071932,-0.07138667,-0.04246929,18.68467,7.758945,-6.035898,1008.218
11.876543999,9.315204,-38.01921,-26.59215,-1.051129,-0.0551561,0.01704112,18.99802,9.495049,-7.744385,1008.218
11.911305428,2.684022,-41.01306,-24.82487,-1.122399,0.00933805,-0.02643149,18.99802,9.495049,-7.744385,1008.218
11.943583012,-6.240185,-46.0615,-30.79706,-1.109139,-0.08311231,-0.04390609,18.58598,10.20553,-9.491009,1008.218
11.978344440,6.71231,-51.52085,-42.9852,-1.181249,-0.05034562,-0.02422681,18.17499,11.28133,-11.18,1008.217
12.010622978,19.29296,-63.61362,-59.43919,-1.250319,0.1451962,0.04519874,18.17499,11.28133,-11.18,1008.217
12.042900562,1.258628,-76.88046,-81.80443,-1.31681,0.2319517,-0.002025102,18.1128,13.44106,-13.32408,1008.215
12.077661991,-13.92492,-92.6715,-118.5517,-1.645199,0.1799392,-0.2215777,17.31441,14.8741,-15.88363,1008.215
12.109939575,-26.38163,-150.6698,-145.5484,-1.849077,0.3456602,-0.6988003,17.31441,14.8741,-15.88363,1008.215
12.144701004,-40.82149,-194.2273,-145.7922,-1.766612,0.3967753,-0.8219643,16.11264,18.84583,-19.77715,1008.215
12.176978588,-29.7282,-170.4527,-142.3795,-0.9225756,-0.2397006,0.5726361,14.88476,24.93344,-24.50681,1008.219
12.209257126,-49.12596,-44.77003,-13.85554,-0.3832273,0.02594647,0.3941118,14.88476,24.93344,-24.50681,1008.219
12.244017601,-92.44555,17.45491,33.6782,-0.6050559,0.2646225,-0.5312884,12.15865,31.77622,-33.08462,1008.219
12.276296139,-76.70424,-18.706,56.28721,-0.2942055,-0.1490267,-0.04893787,9.973389,36.53886,-33.11153,1008.217
12.311057568,-85.38055,36.53331,138.1306,-0.2086848,-0.3004994,0.02011516,10.72027,38.00021,-32.26957,1008.216
12.343335152,-42.12293,72.40071,161.8975,-0.3871098,-0.1432025,-0.1081675,10.72027,38.00021,-32.26957,1008.218
12.378096581,-69.39135,112.9643,173.2934,-0.58871,-0.1768499,-0.1562682,11.57357,38.41712,-27.61672,1008.216
12.410374165,-144.7513,137.0912,177.2545,-0.736695,-0.1890838,-0.2140314,13.86943,36.65418,-21.2144,1008.216
12.442652226,-152.3741,162.0399,181.1547,-0.9815289,-0.3917296,-0.4007799,13.86943,36.65418,-21.2144,1008.216
12.477413178,-101.1838,168.0862,187.8582,-1.1692,-0.4032449,-0.498579,17.91435,32.43249,-6.337208,1008.215
12.509691715,-65.85885,173.6043,183.5314,-1.459168,-0.4747607,-0.5080294,19.21469,24.18998,0.9100099,1008.213
12.544452190,-24.21255,162.0399,197.4259,-1.645412,-0.3705554,-0.3025409,19.21469,24.18998,0.9100099,1008.217
12.576730728,-12.68545,136.8564,188.6504,-2.063626,-0.1863741,-0.291407,20.1854,18.46003,9.500629,1008.219
12.611492157,-4.566896,71.46146,121.0062,-1.665207,-0.4447173,0.1070361,21.56749,12.38411,19.83326,1008.219
12.643769741,-38.46649,30.78044,33.92197,-1.231649,-0.4945202,0.3238493,21.56749,12.38411,19.83326,1008.219
12.676047802,-58.48398,12.28907,-50.96843,-1.132079,-0.4914711,0.2825598,21.31698,8.123762,23.69044,1008.219
12.710808754,-41.2553,-20.23228,-95.33327,-1.287759,-0.3252364,0.2021394,21.32577,9.891224,24.10386,1008.22
12.743086815,-17.08558,-151.9026,-88.44697,-1.799286,0.4669772,0.2159647,21.32577,9.891224,24.10386,1008.224
12.777847767,-19.19268,-65.60952,-134.3353,-0.8860264,-0.4407794,-0.2470477,21.2832,13.51948,22.75052,1008.224
12.810126305,78.41583,-82.45722,-51.88255,-0.9253464,-0.1771548,0.3245103,20.78275,18.56632,18.02291,1008.224
12.844886780,49.72203,-36.66905,-27.44532,-1.159429,-0.04807907,0.055023,20.78275,18.56632,18.02291,1008.224
12.877165318,39.93019,-31.2097,-22.69195,-0.9657552,0.1616138,-0.2062259,19.93481,21.8002,13.75962,1008.224
12.909442902,-13.42913,-31.2684,-21.89972,-1.057806,0.3121029,0.0114087,19.88158,24.69379,11.97979,1008.226
12.944204330,-27.37321,-17.35584,-11.8445,-1.011682,-0.02021228,-0.1293271,19.88158,24.69379,11.97979,1008.228
12.976481915,-2.149924,-20.87801,-4.836319,-1.003249,0.1243116,-0.04343835,20.20823,25.70649,10.71626,1008.228
13.011243343,1.072707,-20.11487,-11.35697,-1.004623,0.2765547,-0.09913207,20.18294,26.42426,9.835576,1008.228
13.043521881,-4.690844,-20.8193,-19.40115,-0.9930698,0.1337286,0.01363903,20.18294,26.42426,9.835576,1008.228
13.078282356,-9.958605,-13.36405,-15.25718,-1.014498,-0.04234697,-0.08980495,19.05838,27.51367,8.593341,1008.228
13.110560894,0.0191547,-17.23843,-9.650635,-1.027239,0.03656951,-0.06805747,18.99647,28.57904,6.40086,1008.232
13.142838478,-7.045843,-21.99336,-13.30708,-0.9780641,0.1274836,0.01453806,18.99647,28.57904,6.40086,1008.232
13.177599907,-0.2907136,-13.30535,-18.91362,-1.025889,0.09040111,-0.03488047,17.84794,29.65719,4.287171,1008.231
13.209877491,-1.778082,-16.00568,-20.3762,-1.034985,0.04921472,-0.04283006,18.24601,30.03462,5.58422,1008.231
13.244638920,-4.442949,-18.11897,-20.49808,-1.036355,0.01582769,-0.04059976,18.94693,30.37989,4.697119,1008.229
13.276916504,-1.530187,-20.87801,-25.73898,-1.095443,0.04214079,-0.07996477,18.94693,30.37989,4.697119,1008.227
13.311677933,8.261652,-29.2725,-37.4396,-1.125459,0.0560759,-0.08368836,18.92098,31.46217,3.811818,1008.227
13.343956471,9.191257,-36.78646,-47.98234,-1.108069,0.07755448,-0.0434783,18.52197,32.54361,2.558553,1008.231
13.376234055,6.650336,-43.9482,-61.14553,-1.10664,0.09848057,-0.01000512,18.52197,32.54361,2.558553,1008.229
13.410995483,-6.735975,-50.93383,-74.06496,-1.191178,0.06877143,0.005478198,18.44913,33.96867,-0.01202536,1008.228
13.443273068,-19.19268,-67.3119,-86.74063,-1.319326,0.05761778,-0.03588476,17.25001,36.48233,-3.887084,1008.226
13.478034496,-48.01043,-88.3275,-101.0617,-1.440375,0.02385796,-0.3282962,17.25001,36.48233,-3.887084,1008.226
13.510312080,-55.32332,-128.9498,-145.975,-1.701248,-0.06193945,-0.8643553,16.41643,39.35815,-7.647782,1008.226
13.545073509,-32.88886,-142.4514,-159.2601,-0.8769065,-0.2563628,-0.3852491,15.16855,43.24739,-13.2212,1008.23
13.577352047,51.2094,-97.30902,-103.4993,-0.856317,-0.1022362,-0.1891079,15.16855,43.24739,-13.2212,1008.228
13.609629631,146.6488,-23.34352,-30.00483,-0.4941696,-0.1486719,0.2251214,10.64186,49.38671,-21.32647,1008.228
13.644391060,159.3534,77.15563,22.8917,-0.3349003,0.686952,-0.08518913,7.859917,53.67855,-29.87105,1008.225
13.676668644,23.69309,132.7472,-31.22364,-0.5197871,0.1883862,0.03420108,7.859917,53.67855,-29.87105,1008.225
13.711430073,-71.00266,145.6031,35.93301,-0.6954063,0.002343415,-0.02400745,8.143154,52.17786,-32.84594,1008.227
13.743707657,-35.73965,174.0739,34.47044,-0.7055166,0.03474999,0.1226805,9.643138,50.72557,-31.16888,1008.226
13.775986195,-44.97372,200.138,60.73588,-0.9623711,0.037545,0.02221131,9.643138,50.72557,-31.16888,1008.222
13.810747147,-10.39242,193.4458,87.42791,-1.168962,-0.3372657,-0.02105032,13.73957,49.66609,-25.2391,1008.222
13.843025207,137.1669,158.2829,136.9118,-1.257131,-0.5145589,-0.1417612,17.33058,44.67589,-13.70848,1008.222
13.910064220,344.5927,131.8666,141.1776,-1.39463,-0.03979473,-0.1576194,21.94716,34.59744,-4.744914,1008.22
13.944825172,383.3882,116.193,110.7073,-1.50329,0.09822383,-0.1788387,25.23532,15.47196,8.215405,1008.22
13.977103233,412.2679,67.35227,94.19232,-1.442853,0.1384408,-0.07190032,25.23532,15.47196,8.215405,1008.22
14.009381771,441.2096,34.42001,86.69662,-1.292652,0.2690795,0.08080195,28.37065,-3.186003,28.83297,1008.22
14.044142723,411.5862,12.69998,51.22913,-1.248445,0.388263,0.08428498,28.33378,-8.075568,40.41797,1008.219
14.076420784,356.0578,-21.46503,39.16287,-1.143105,0.4410383,0.1462382,28.33378,-8.075568,40.41797,1008.221
14.111181736,312.2425,-28.45066,37.63935,-0.899256,0.4833727,0.4374669,26.19419,-2.987436,42.06787,1008.219
14.143459797,162.2662,-1.917007,23.50111,-0.8860803,0.3563643,0.218202,23.98403,3.222798,41.21329,1008.218
14.178220749,49.90795,-4.147713,32.45939,-0.8656983,0.2238543,0.5118188,23.94146,6.851052,39.85995,1008.218
14.210498810,1.072707,1.898673,47.93833,-0.9201062,0.1205755,0.4978126,23.94146,6.851052,39.85995,1008.216
14.242777348,-26.38163,20.21394,48.42586,-1.020393,0.3369013,0.3005654,23.22789,6.864663,40.30671,1008.216
14.277538300,-41.99899,38.23569,41.11297,-1.132598,0.06820767,-0.4964606,22.87908,5.780741,40.7618,1008.214
14.309816361,18.23941,-0.2146267,-8.127117,-1.796161,-0.7848946,-1.348316,22.87908,5.780741,40.7618,1008.213
14.344577313,40.8598,-60.32627,44.64753,-0.78495,-0.2117766,-0.1579776,22.89437,3.963796,41.2206,1008.211
14.376855373,56.72506,-39.07587,29.96082,-1.064567,0.08786761,-0.03577839,22.87239,2.858979,40.363,1008.211
14.411616325,52.69677,-21.99336,2.598448,-0.9206554,0.5047906,0.349649,22.87239,2.858979,40.363,1008.211
14.443894386,-24.46044,3.131432,-17.14634,-1.013552,-0.02777065,-0.0732872,23.57529,2.110702,39.48974,1008.211
14.476172924,-6.364133,-9.959288,1.440574,-1.026391,-0.608824,-0.307647,23.18827,3.197772,38.67221,1008.211
14.510933876,47.36703,-13.24664,17.46798,-0.9939786,-0.1073883,-0.02205413,23.18827,3.197772,38.67221,1008.217
14.543211937,25.86217,-7.376366,10.03321,-0.9814075,0.1134744,0.02461782,23.1896,2.46874,38.68144,1008.217
14.577972889,7.022178,-2.797549,-1.118936,-0.999945,-0.05090974,-0.05846149,23.16364,3.55102,37.79613,1008.215
14.610250950,14.89283,-5.028255,-0.0829436,-1.085673,-0.2525333,-0.2208917,23.16364,3.55102,37.79613,1008.213
14.645011902,36.83151,-12.95313,-4.105031,-1.083935,-0.1463197,-0.1530935,22.45007,3.564631,38.24289,1008.209
14.677290440,48.8544,-11.42686,-18.06045,-1.046878,-0.04676382,-0.08057494,22.42742,2.824331,37.38067,1008.213
14.709568500,50.09388,-7.845987,-26.40933,-1.009507,-0.09104448,-0.04126529,22.42742,2.824331,37.38067,1008.213
14.744329452,44.64019,-8.609123,-26.22651,-1.075033,0.01280534,-0.04295077,23.151,3.909901,37.35579,1008.212
14.776607513,32.8652,-8.139502,-38.90218,-1.028857,-0.1170363,-0.1264566,23.49848,5.722857,36.89147,1008.208
14.811368465,56.10532,-7.728582,-48.59175,-1.035305,-0.2564565,-0.1359373,23.49848,5.722857,36.89147,1008.208
14.843646049,83.00188,-9.137448,-50.90749,-1.065331,-0.1932057,-0.009818899,22.77028,7.188897,36.88404,1008.207
14.875924587,74.44952,-13.18794,-50.41997,-1.08108,-0.04877055,0.07032024,23.12014,8.638141,36.48658,1008.207
14.910686016,36.89349,-11.83778,-52.91854,-1.01527,-0.05180624,0.118505,23.12014,8.638141,36.48658,1008.205
14.942963600,18.17744,-12.3661,-52.79666,-1.018009,-0.1303043,0.09050857,23.44045,12.20165,35.12849,1008.205
14.977725029,10.12086,-14.18589,-62.72999,-1.103116,-0.1535265,0.02142823,23.0504,14.01695,34.23948,1008.203
15.010002613,1.320602,-20.8193,-67.66619,-1.067648,-0.2318925,0.0001183388,23.0504,14.01695,34.23948,1008.206
15.044764042,0.3909967,-25.75034,-82.84042,-1.127136,-0.2780448,-0.1455309,23.01152,16.55246,32.96223,1008.202
15.077042580,22.57757,-34.26224,-111.7263,-1.466928,-0.201758,-0.3377403,22.99623,18.36941,32.50343,1008.202
15.109320164,67.32255,-65.37471,-127.449,-1.63481,-0.06681845,-0.6464955,22.99623,18.36941,32.50343,1008.198
15.144081593,69.5536,-88.3275,-140.3684,-1.46791,0.1318405,-0.5707926,22.9214,20.88802,29.919,1008.202
15.176359177,75.13123,-78.99375,-175.4703,-1.065507,-0.4210747,0.2934522,22.78317,26.23463,25.18203,1008.201
15.211120606,101.2841,-0.9777628,-112.6404,-0.7266018,-0.3709995,0.3606879,21.47129,32.34355,17.40152,1008.199
15.243398190,187.6754,82.6737,43.48966,-0.3717677,-0.194966,0.1694824,21.47129,32.34355,17.40152,1008.199
15.278159618,141.1332,69.17206,50.25408,-0.6781865,0.3553179,-0.4097554,20.66296,39.24432,14.77273,1008.199
15.310438156,162.8859,69.75909,14.17718,-0.6177585,0.1620087,0.1875123,21.41646,37.06052,15.66085,1008.201
15.342715740,68.43807,130.81,57.20132,-0.4678226,-0.04895734,0.210645,21.41646,37.06052,15.66085,1008.2
15.377477169,45.38388,156.5805,75.36165,-0.5734121,0.1723073,0.04727808,21.82943,34.89117,17.36369,1008.198
15.409754753,0.7628386,188.9257,78.46962,-0.6844644,0.0935012,0.01999676,23.13735,30.96935,25.11651,1008.198
15.444516182,-51.54293,198.9639,110.0978,-0.6528055,0.01879344,0.08186734,23.13735,30.96935,25.11651,1008.195
15.476794720,-42.61872,210.1174,140.4463,-0.9964992,-0.08974048,-0.09591448,23.41212,27.81508,34.93078,1008.193
15.511555195,21.27612,186.1667,175.731,-1.310611,-0.1900164,-0.1465687,23.32299,19.6175,44.44094,1008.191
15.543833732,60.93927,175.3067,189.8692,-1.730036,-0.09231662,-0.09289788,23.32299,19.6175,44.44094,1008.195
15.576111317,66.88873,162.7443,193.5257,-1.610113,-0.05531058,0.01582779,21.91935,12.35924,45.80026,1008.195
15.610872745,43.09085,132.1014,166.4071,-1.753711,0.00347138,0.2045292,20.14991,7.718136,47.19425,1008.193
15.643150330,-18.69689,82.84981,126.43,-1.650304,-0.08981889,0.4343761,20.14991,7.718136,47.19425,1008.193
15.677911282,-103.9107,34.36131,33.98291,-1.393352,-0.3770564,0.4225203,19.52409,3.759906,50.61738,1008.199
15.710189819,-108.0629,-13.83367,-42.74144,-1.171255,-0.6630958,0.3653032,19.56129,-3.519141,51.58115,1008.199
15.744951248,-42.30885,-51.75566,-78.20893,-1.279479,-0.5677853,0.1644845,19.56129,-3.519141,51.58115,1008.199
15.777228832,40.42598,-25.57423,-67.66619,-1.493826,-0.2255706,-0.773396,19.89832,-8.21718,50.38994,1008.199
15.809506893,290.7376,-166.9305,-10.32098,-0.8642604,0.4040304,-0.1576893,21.30347,-9.34922,48.63881,1008.203
15.844267845,149.9334,-124.4297,-33.96598,-0.6875809,0.0110877,0.6939319,21.30347,-9.34922,48.63881,1008.201
15.876546383,-46.2132,-38.84105,22.95264,-1.336336,0.1754713,0.1983229,22.02318,-6.137308,48.58701,1008.207
15.911306858,-7.541632,-26.74828,-28.23755,-0.8830387,0.2806743,-0.4145727,22.32583,1.491801,46.8039,1008.207
15.943585396,8.261652,-36.61035,-20.61996,-0.994455,0.1032091,0.005250025,22.32583,1.491801,46.8039,1008.207
15.978346825,-3.141502,-32.09023,-27.44532,-1.099298,0.02898831,-0.1022694,23.04139,0.3846426,46.37099,1008.208
16.010624409,-17.76729,-25.80904,-22.08254,-0.9826412,-0.3014415,-0.3175961,22.6304,1.460445,44.682,1008.208
16.042902946,22.32967,-41.18917,-1.606461,-0.9376841,-0.03850799,-0.1643982,22.6304,1.460445,44.682,1008.212
16.077663422,16.31823,-21.69984,-16.29317,-0.9339734,0.09914282,0.0394207,22.94523,1.433919,42.93357,1008.212
16.109941959,-17.33347,-31.3858,-18.24327,-1.138962,0.02002664,-0.1428437,24.04489,1.792103,43.34814,1008.212
16.144703388,3.985469,-22.52168,-17.0854,-1.048297,-0.08524403,-0.1533065,23.62125,3.226787,41.2188,1008.212
16.176980972,16.56612,-25.0459,-16.17129,-1.023691,-0.02529323,-0.047629,23.62125,3.226787,41.2188,1008.212
16.209259510,17.12388,-20.40838,-16.7807,-0.974322,-0.0327755,-0.01248692,23.57265,3.568765,39.47128,1008.211
16.244019985,14.89283,-20.23228,-16.23223,-1.053637,-0.06335796,-0.1164292,24.33416,3.577692,40.76743,1008.215
16.276298523,11.11244,-23.81314,-16.23223,-1.054513,-0.08497043,-0.06723944,24.33416,3.577692,40.76743,1008.215
16.311059952,11.9181,-25.22201,-16.7807,-1.052089,-0.0800538,-0.04642884,25.78262,5.019801,40.72691,1008.213
16.343337536,13.0956,-27.98104,-22.20442,-1.107378,-0.02713978,-0.09338581,25.03177,5.74554,39.85725,1008.211
16.378098965,17.5577,-36.55165,-35.06291,-1.130092,-0.03594496,-0.1020888,25.03177,5.74554,39.85725,1008.21
16.410376549,21.77191,-40.42603,-47.43387,-1.14213,-0.03430496,-0.03630589,25.35898,6.454484,38.59757,1008.21
16.442655087,27.72138,-48.93793,-61.63306,-1.255885,0.02936831,-0.000407652,26.03196,8.975578,36.81132,1008.211
16.477416039,5.53481,-58.15427,-86.55781,-1.395896,0.1031203,-0.1099106,26.03196,8.975578,36.81132,1008.211
16.509694099,0.2670493,-79.75689,-110.8122,-1.478997,0.02107312,-0.2605474,25.99254,11.81485,35.53023,1008.21
16.544455051,-5.868343,-111.2216,-136.3464,-1.704564,0.2402892,-0.4986004,25.14157,15.77696,31.19547,1008.211
16.576733112,-24.15057,-156.0118,-137.6261,-1.544172,0.3803443,-0.8607288,25.14157,15.77696,31.19547,1008.211
16.611494064,22.63954,-143.2146,-140.4294,-1.057042,0.1559156,-0.09680441,24.24211,21.90524,25.21459,1008.21
16.643772602,12.72376,-33.14688,-24.45923,-0.2653855,-0.04512024,0.600849,24.02933,28.67611,17.8448,1008.21
16.676050663,-32.64096,65.41508,10.7645,-0.7280101,0.3580316,-0.4236523,24.02933,28.67611,17.8448,1008.214
16.710811615,-25.2661,24.02962,20.02749,-0.45777,0.1123521,-0.03549664,21.41844,35.96698,15.6747,1008.214
16.743089676,-90.83424,80.56039,83.16206,-0.2477122,-0.1192718,0.1242022,21.50129,35.6411,18.66716,1008.21
16.777850628,-58.23608,114.9602,116.0091,-0.4763552,0.001035578,-0.02400355,21.50129,35.6411,18.66716,1008.21
16.810129166,-36.23544,138.6174,137.9478,-0.6728564,-0.135104,-0.04707575,21.63301,33.87889,23.35874,1008.21
16.844889641,-41.62714,151.2973,175.5482,-0.9346393,-0.05256546,-0.03105564,22.54286,29.57963,29.81451,1008.207
16.877168179,-0.2287399,149.8884,200.8386,-1.147729,-0.1067798,0.00196919,22.54286,29.57963,29.81451,1008.205
16.909446239,36.39769,142.7266,212.2345,-1.54204,-0.06191289,-0.133739,24.02729,24.70711,43.92957,1008.205
16.944207191,68.06623,140.085,221.4365,-1.565304,-0.01870649,-0.07349683,22.27345,10.52704,45.3821,1008.205
16.976485729,42.09927,125.1158,204.1294,-1.798601,0.09696332,-0.01529055,22.27345,10.52704,45.3821,1008.205
17.011246204,-8.409263,88.01565,155.9862,-1.745917,-0.01777315,0.2121266,20.88142,4.429517,47.22476,1008.209
17.043524742,-85.5045,49.15441,101.1396,-1.443108,-0.1835294,0.4522508,17.62869,3.376695,47.66173,1008.209
17.078286171,-161.1743,18.04193,12.7146,-1.245875,-0.4641245,0.1659684,17.62869,3.376695,47.66173,1008.207
17.110563755,-128.8861,-14.77291,-58.64697,-1.053268,-0.7629269,0.08021937,16.50743,2.64353,46.44257,1008.207
17.142842293,-40.01583,-35.84721,-81.49973,-1.050964,-0.7042631,0.1105212,14.69109,-1.379868,43.96789,1008.207
17.177602768,81.14268,-101.3008,-47.67764,-0.9677556,0.05724732,-0.5858309,16.0857,-3.582252,43.97445,1008.207
17.209881306,332.2599,-193.9925,-124.0973,-1.727319,-0.3633066,-1.093712,16.0857,-3.582252,43.97445,1008.207
17.244642258,143.922,-109.4605,-5.384785,-0.5414817,0.2555877,0.8912833,17.17271,-2.865186,43.94867,1008.204
17.276920319,-8.409263,-16.24049,-11.05227,-1.032899,0.1260825,0.3617573,18.57265,5.48582,42.51326,1008.21
17.311681271,-2.893607,-20.23228,-44.69154,-0.940097,0.4558969,-0.4966049,18.57265,5.48582,42.51326,1008.21
17.343959332,-1.716108,-18.11897,-39.14594,-0.9424837,-0.1551186,0.1298467,18.55802,6.938248,42.05907,1008.21
17.376237869,-39.89188,-15.94697,-15.50094,-1.348653,-0.1572681,-0.4469994,19.27065,8.383504,41.65609,1008.21
17.410998821,7.517967,-40.13251,-5.262904,-0.9224594,0.09244594,-0.09020377,19.27065,8.383504,41.65609,1008.21
17.443276882,20.34652,-21.75855,-15.25718,-0.9227448,0.2779357,0.09649199,19.25867,8.37787,41.22037,1008.208
17.478037834,0.329023,-13.07053,-28.17661,-0.8797714,0.2670503,-0.01050247,19.60814,9.097277,40.76989,1008.208
17.510315895,-22.78715,-10.95723,-31.89399,-1.040129,-0.08348138,-0.2113267,19.60814,9.097277,40.76989,1008.208
17.542594433,1.196654,-22.40428,-17.99951,-1.031359,-0.1017524,-0.1838935,19.58295,9.754288,39.88998,1008.214
17.577355385,20.34652,-25.57423,-22.57006,-1.023107,0.1426901,-0.02975476,19.13402,11.90674,36.87996,1008.212
17.609633446,9.996914,-21.28893,-34.57539,-1.04048,0.1193282,-0.05450553,19.13402,11.90674,36.87996,1008.212
17.644394398,3.48968,-27.68753,-36.34267,-1.031944,-0.02203078,-0.07756586,19.54408,12.2898,38.61274,1008.212
17.676672935,6.774283,-29.0964,-35.67232,-1.015893,-0.05238257,-0.05118391,20.28162,12.28746,39.03743,1008.21
17.711433411,13.15757,-30.32915,-36.70831,-1.05159,-0.06923564,0.003909216,20.28162,12.28746,39.03743,1008.21
17.743711948,14.52099,-30.56396,-37.92712,-1.079205,-0.07197814,-0.06807923,21.71875,13.35942,38.5658,1008.215
17.775990009,18.30138,-35.5537,-45.30095,-1.125622,-0.07209446,-0.06314547,21.68147,14.07154,37.24938,1008.213
17.810750961,19.6648,-41.8349,-57.00156,-1.189095,-0.01807885,-0.06366842,21.68147,14.07154,37.24938,1008.211
17.843029499,13.59139,-53.63416,-70.95699,-1.266076,0.03261048,-0.0346914,21.64326,16.24254,35.97675,1008.21
17.877789974,1.816391,-71.71461,-91.67683,-1.348837,0.05747285,-0.05370921,21.24188,17.68769,34.65662,1008.21
17.910068512,-18.01518,-77.17397,-116.9063,-1.406096,-0.1066903,-0.1816636,21.24188,17.68769,34.65662,1008.21
17.944829464,5.782705,-114.9199,-138.9668,-1.638935,0.04548122,-0.6342455,21.89062,21.29187,32.04732,1008.208
17.977107525,-6.364133,-151.7852,-151.2159,-1.637798,0.06764103,-0.9507743,21.7905,24.52824,28.58221,1008.206
18.009386063,64.09991,-132.8242,-130.8008,-1.047298,0.09223086,-0.1909746,21.7905,24.52824,28.58221,1008.208
18.044147015,84.79912,-28.80288,-27.32344,-0.353271,-0.1362563,0.4854618,21.26486,30.23208,22.97468,1008.208
18.076425076,88.08372,81.20612,7.047119,-0.5700498,0.6719914,-0.3027983,19.64946,36.73768,17.3737,1008.207
18.111186028,-11.56992,88.83749,-33.17375,-0.4687536,0.04252322,-0.06874385,19.64946,36.73768,17.3737,1008.205
18.143464088,-92.81739,119.3042,44.28189,-0.4234597,-0.04885238,0.06116743,18.94391,38.94403,18.22849,1008.202
18.178225040,-58.73188,163.0378,41.47861,-0.6430954,-0.0450322,-0.05387933,18.29922,39.71967,21.21814,1008.2
18.210503578,-34.4382,180.0029,77.73833,-0.6920683,-0.2137851,-0.1151631,18.46756,37.60985,27.22151,1008.2
18.242781639,-22.35334,195.2069,108.2087,-0.891439,-0.15096,-0.1143762,18.46756,37.60985,27.22151,1008.202
18.277542591,39.12453,195.0308,134.0476,-0.8445604,-0.3439083,-0.1136406,17.89902,35.13786,32.80481,1008.202
18.309820652,152.2265,192.8001,156.5347,-1.333002,-0.6025497,-0.3388575,17.6826,31.92721,37.95609,1008.2
18.344581604,303.5661,172.5477,178.8999,-1.436473,-0.4049485,-0.3466963,17.6826,31.92721,37.95609,1008.2
18.376860142,381.8389,156.5805,150.1968,-1.419444,-0.2163737,-0.2639596,16.62088,30.49238,38.86256,1008.199
18.411621571,416.1103,98.28864,115.034,-1.601376,0.09287224,-0.1042082,16.60228,34.1319,38.38068,1008.199
18.443899155,418.4653,30.36952,80.29784,-1.447381,0.2637733,0.07385368,16.60228,34.1319,38.38068,1008.203
18.476177216,404.0255,-5.14566,30.38741,-1.421199,0.2206971,0.6212884,16.36327,43.0794,30.17398,1008.203
18.510938167,315.8989,0.7833205,42.02708,-1.25417,0.03144435,0.3254381,16.35812,51.29346,17.23948,1008.205
18.543216705,328.4176,-27.27661,54.27617,-0.7418172,0.4580849,0.1246824,16.35812,51.29346,17.23948,1008.205
18.577978134,313.7298,-0.2733294,66.89089,-0.6188143,0.6736695,0.3770312,15.6833,55.16384,6.114309,1008.205
18.610255718,123.4707,23.91221,80.54161,-1.739038,1.215865,0.9563701,17.26565,54.30539,-2.369586,1008.205
18.645017147,-11.44597,18.51156,55.3731,-0.972665,1.125947,0.0487265,17.26565,54.30539,-2.369586,1008.208
18.677294731,-132.4805,33.18726,-1.911165,-1.573894,-0.397956,-1.023658,18.3606,50.64827,-2.339973,1008.208
18.709573269,-17.2715,-45.18095,47.26798,-0.8553564,-1.163415,-0.3140697,19.4778,47.00161,-1.501154,1008.208
18.744334221,75.25518,-16.534,45.25694,-0.923482,-0.09196775,-0.1009189,19.4778,47.00161,-1.501154,1008.208
18.776612282,66.20702,-13.77497,37.27371,-1.018566,0.354542,0.2208944,20.20997,43.34848,-1.466027,1008.208
18.811373234,-24.39847,1.957376,11.73955,-0.9801099,0.1221294,-0.1358374,19.44006,42.30193,-3.122578,1008.21
18.843651772,-19.81242,-2.38663,11.92237,-1.035708,-0.2927755,-0.1429111,19.44006,42.30193,-3.122578,1008.21
18.875929832,32.05954,-8.96134,19.41808,-1.03012,-0.2198577,-0.1932696,19.83906,41.22049,-1.869312,1008.21
18.910690784,23.81704,-9.137448,19.23526,-0.98369,0.02557832,-0.06386288,20.19289,40.48264,-2.239076,1008.21
18.942968845,9.996914,-4.793443,10.64262,-0.9927832,0.008838966,0.002292647,20.19289,40.48264,-2.239076,1008.21
18.977729797,4.977047,-3.678091,9.972273,-1.006215,-0.08702179,-0.1422882,19.79482,40.10521,-3.536125,1008.212
19.010008335,11.23639,-5.380471,13.7506,-1.029641,-0.1827387,-0.09298776,19.8068,40.11084,-3.100398,1008.214
19.044769764,20.16059,-3.03236,15.03035,-0.997059,-0.03874753,-0.04196163,19.8068,40.11084,-3.100398,1008.214
19.077047348,16.44217,-5.908796,14.11624,-0.9832247,0.02452667,-0.08900867,17.96961,39.755,-3.939658,1008.214
19.109325409,4.233364,-13.36405,17.0414,-1.086794,-0.1466416,-0.1028116,18.69516,39.74702,-3.950689,1008.214
19.144086361,8.57152,-9.607071,8.204992,-1.037654,-0.08226254,-0.1392927,18.6945,40.11154,-3.955305,1008.214
19.176364899,27.47349,-20.46709,11.86143,-1.001667,0.09553885,0.03277797,18.6945,40.11154,-3.955305,1008.213
19.211126328,0.6388913,-19.41044,-0.6923506,-1.133512,-0.06639884,-0.2322996,18.67489,38.64301,-4.746049,1008.213
19.243403912,28.52704,-34.43835,-13.55084,-1.085731,-0.0006646191,-0.1532283,18.65329,38.26803,-5.55064,1008.213
19.278165340,24.12691,-33.32299,-15.07436,-0.9894371,0.04631589,0.06292836,18.65329,38.26803,-5.55064,1008.213
19.310442925,1.568496,-28.33326,-17.0854,-0.9901581,-0.09975723,-0.05827688,18.60667,37.51646,-7.284315,1008.218
19.342721462,31.19191,-23.51963,-3.312801,-0.738806,-0.1433513,0.288526,17.82225,37.86159,-9.394287,1008.218
19.377482891,22.94941,-13.12924,-1.118936,-1.154947,0.05211359,-0.08558109,17.82225,37.86159,-9.394287,1008.218
19.409760475,27.03967,-23.28482,-11.5398,-1.10892,0.04480346,0.003230877,17.78602,38.93903,-10.65307,1008.218
19.444521427,17.86757,-17.82546,-12.94143,-0.9042548,-0.1788349,0.09627217,18.12615,38.19475,-11.52081,1008.218
19.476799965,33.42296,-13.89237,-10.93039,-1.000076,-0.1794346,0.0002709755,18.12615,38.19475,-11.52081,1008.222
19.511561394,48.29664,-11.25075,-7.456769,-0.9151064,-0.07419756,0.1379828,17.34106,38.90439,-13.6354,1008.222
19.543838978,34.84835,-5.55658,-3.069038,-1.072091,0.05500807,0.1274533,16.931,38.52132,-15.36817,1008.221
19.576117039,18.42533,-5.086957,-9.528753,-1.020564,-0.08885555,0.04288933,16.931,38.52132,-15.36817,1008.221
19.610877991,28.71296,3.601054,-11.60074,-0.9765731,-0.2934837,0.02664442,16.92205,37.78746,-15.73242,1008.222
19.643156528,63.54216,7.299329,-9.163109,-0.9820472,-0.2355012,0.005231156,16.18517,37.42529,-16.1525,1008.222
19.677917957,71.97057,9.588737,-9.163109,-1.036958,-0.1190077,0.01278002,16.18517,37.42529,-16.1525,1008.226
19.710195541,71.41281,5.479543,-10.32098,-1.064201,-0.02887127,0.07329763,16.52662,35.95197,-17.01101,1008.225
19.744956970,59.01808,-0.09722112,-12.1492,-1.089924,0.01024057,0.06970795,16.15583,33.76323,-17.41352,1008.225
19.777234554,46.4994,-4.382524,-11.17415,-1.011046,-0.002966156,0.1042704,16.15583,33.76323,-17.41352,1008.225
19.809513092,33.29901,-4.852146,-9.406872,-0.9911048,-0.04592178,0.1209036,15.4216,31.94299,-17.81514,1008.225
19.844274521,28.27914,-3.149766,-6.603599,-0.9474828,-0.08055504,0.1457515,16.13583,31.56487,-18.25728,1008.223
19.876552105,25.86217,12.75869,-7.761473,-1.284326,-0.04267047,-0.0998609,16.13583,31.56487,-18.25728,1008.221
19.911313534,26.66783,4.775109,-2.947157,-0.9445581,-0.0931551,0.1379385,15.7641,30.83499,-18.61601,1008.219
19.943592072,28.03125,9.882252,-4.04409,-0.9716896,-0.0743937,0.1279514,15.39132,29.7398,-19.03238,1008.219
19.978353024,27.9073,22.67945,-10.99133,-1.163713,-0.08201401,0.04081955,15.39132,29.7398,-19.03238,1008.219
20.010631084,33.17506,19.86172,-13.18519,-1.003708,-0.04510945,0.08564433,15.05213,29.02522,-18.20842,1008.224
20.042909145,34.35257,21.97502,-15.37906,-0.9941253,-0.001954827,0.1027894,15.80298,28.29948,-17.33877,1008.222
20.077670097,17.24783,21.5641,-16.17129,-1.009587,-0.0043925,0.1105439,15.80298,28.29948,-17.33877,1008.222
20.109948158,1.134681,16.57437,-14.09931,-1.056399,-0.05154793,0.08668817,16.1784,27.93661,-16.90394,1008.218
20.144709587,-7.355711,8.062466,-10.80851,-1.060245,-0.06954625,0.06242219,16.91594,27.93427,-16.47924,1008.218
20.176987171,-17.95321,0.7833205,-7.51771,-1.024393,-0.1067834,0.03941157,16.56647,27.21486,-16.02877,1008.22
20.209265709,-26.69149,-5.204363,-2.154927,-1.025277,-0.1504217,0.01499342,16.56647,27.21486,-16.02877,1008.22
20.244027138,-30.28597,-11.13334,3.451617,-1.00344,-0.1871773,0.003134833,16.57647,28.31404,-15.60689,1008.222
20.276304722,-32.51702,-14.30329,8.631577,-0.9825778,-0.2166392,0.002438915,16.18906,28.67128,-16.47744,1008.222
20.311066151,-30.22399,-15.12513,13.08025,-0.9491139,-0.2532716,0.0171451,16.18906,28.67128,-16.47744,1008.221
20.343343735,-22.53926,-14.18589,17.16328,-0.9650589,-0.2615751,0.00794692,16.18708,29.76482,-16.49129,1008.221
20.378105164,-5.682422,-14.30329,18.74773,-0.9583555,-0.2266457,0.02795207,16.53655,30.48423,-16.94177,1008.222
20.410383701,3.48968,-11.19205,19.17432,-0.9952576,-0.1491961,0.06569675,16.53655,30.48423,-16.94177,1008.221
20.442661286,1.444549,-9.724477,17.16328,-1.007021,-0.07560663,0.08547807,15.78702,30.48094,-17.80219,1008.222
20.477422714,-7.293737,-6.261013,13.08025,-1.03376,-0.001512185,0.1241487,15.78835,29.75191,-17.79296,1008.222
20.509701252,-11.26005,-5.791391,8.144052,-1.033854,0.04794026,0.1515026,15.78835,29.75191,-17.79296,1008.222
20.544462204,-17.82926,-5.204363,0.2217599,-1.01647,0.05766696,0.151037,16.14112,28.64874,-18.22035,1008.227
20.576740265,-30.84373,-2.504035,-5.689488,-0.9689657,0.0006235166,0.1283721,15.42623,29.39138,-17.78283,1008.225
20.611501217,-29.7282,-0.9777628,-9.711576,-1.00068,-0.09490648,0.0969572,15.42623,29.39138,-17.78283,1008.223
20.643779278,-16.21795,-0.2733294,-12.21014,-0.9986759,-0.1244222,0.09630162,15.77702,29.38176,-18.22407,1008.217
20.676057815,-12.62347,3.072729,-16.17129,-0.9793547,-0.1244521,0.07112099,15.77371,31.20433,-18.24715,1008.217
20.710818767,-6.674001,10.23447,-20.25432,-0.9570979,-0.1443672,0.03035094,15.77371,31.20433,-18.24715,1008.217
20.777857780,16.87599,16.57437,-25.73898,-1.026143,-0.1778593,0.05883219,16.50993,31.93103,-17.83168,1008.22
20.810136318,24.93257,20.74226,-29.27354,-1.025171,-0.19201,0.02345862,16.50993,31.93103,-17.83168,1008.218
20.844897270,27.41151,22.15113,-28.35943,-0.9747862,-0.2359365,0.01343149,16.14649,32.29953,-17.83078,1008.218
20.877175331,29.39467,26.14292,-24.88581,-0.9485613,-0.2823043,0.01746227,16.89403,33.39637,-16.98421,1008.218
20.909452915,38.5048,29.25417,-21.22937,-0.953841,-0.3031694,0.005269047,16.89403,33.39637,-16.98421,1008.22
20.944214344,52.07703,33.30466,-18.79174,-0.9731671,-0.3271042,-0.04413614,16.54523,32.31244,-16.52912,1008.22
20.976492882,65.46334,38.52921,-18.12139,-1.006004,-0.3836992,-0.152194,16.93197,32.31972,-15.66318,1008.224
21.011253834,93.04162,40.23159,-18.7308,-1.032098,-0.4115576,-0.2112757,16.93197,32.31972,-15.66318,1008.224
21.043531895,113.8648,40.70121,-18.54798,-1.010902,-0.3693148,-0.1873927,16.94357,31.59552,-15.28047,1008.224
21.078292847,118.141,37.70737,-15.37906,-1.003766,-0.3091837,-0.1566095,17.34561,29.78586,-13.95572,1008.222
21.110571384,114.9803,33.48077,-10.38192,-0.9593887,-0.2322977,-0.06828214,17.34561,29.78586,-13.95572,1008.222
21.142849445,99.48688,31.19136,-6.66454,-0.9638027,-0.1856548,-0.009511343,18.4748,26.14484,-12.68118,1008.225
21.177610397,83.06386,26.49514,-1.362698,-0.9701931,-0.1259989,0.03531799,19.25414,22.93951,-10.90853,1008.225
21.209888458,65.89716,26.37773,-0.0829436,-1.006034,-0.09751005,0.04715975,18.56679,20.77649,-9.624868,1008.225
21.244649410,50.15585,20.62486,-0.02200289,-1.03221,-0.06462514,0.06287318,18.56679,20.77649,-9.624868,1008.225
21.276927948,25.98612,16.51566,-0.5704692,-1.074758,-0.06766183,0.05956355,18.98082,18.97246,-7.864398,1008.225
21.309206009,9.25323,11.40852,-0.7532913,-1.114318,-0.1206626,0.01825516,19.72034,17.87657,-7.425854,1008.225
21.343966961,6.650336,3.424946,7.534645,-1.077497,-0.1632661,-0.01832434,19.72034,17.87657,-7.425854,1008.223
21.376245499,4.109416,0.9594288,21.42912,-1.025828,-0.1487494,-0.06234608,19.76856,16.80476,-5.731346,1008.223
21.411006451,11.73218,2.016079,47.51175,-1.009583,-0.1157946,-0.2048081,19.38247,16.43296,-6.592668,1008.229
21.443284512,46.93322,-3.267171,84.99028,-1.077895,-0.05398603,-0.1864222,19.38247,16.43296,-6.592668,1008.227
21.478045464,64.59571,13.52182,98.09253,-1.151806,0.1351641,-0.1426448,19.75922,15.34106,-6.148609,1008.229
21.510324001,41.35559,28.84325,99.67699,-1.260277,0.1816071,-0.1977424,20.16391,12.07333,-4.805401,1008.227
21.542602062,10.18284,43.57764,95.22832,-1.32468,0.2172061,-0.2056197,20.16391,12.07333,-4.805401,1008.227
21.577363014,-3.761239,60.89497,92.48598,-1.390895,0.177563,-0.2811188,19.49268,6.695253,-3.107488,1008.227
21.609641075,-1.282292,73.04644,93.88762,-1.426127,0.1523273,-0.2724845,20.26976,3.792884,-1.400931,1008.231
21.644402027,25.24243,81.03002,92.30316,-1.440133,0.1513799,-0.2545725,20.26976,3.792884,-1.400931,1008.229
21.676680565,52.82072,93.2402,85.66063,-1.382179,0.1795907,-0.2613051,20.34789,-0.5483036,1.206573,1008.226
21.711441994,79.40741,107.9746,83.64958,-1.300144,0.2402185,-0.2901435,21.52701,-5.260337,4.237875,1008.226
21.743719578,90.19083,117.6019,85.66063,-1.210896,0.3158426,-0.3266472,21.52701,-5.260337,4.237875,1008.226
21.775998115,87.27807,122.1807,90.59682,-1.108019,0.3518118,-0.3667898,21.65562,-10.9763,8.60598,1008.224
21.810759544,81.39057,120.1848,88.28107,-1.099388,0.3725474,-0.3956968,22.12117,-15.67472,12.08404,1008.224
21.843037128,74.75938,115.195,85.11216,-1.022452,0.3553916,-0.3824239,22.12117,-15.67472,12.08404,1008.224
21.877798557,70.91702,116.3104,85.11216,-0.9252388,0.3679692,-0.3230989,20.69893,-19.29346,12.96147,1008.226
21.910077095,69.42965,108.9725,86.87944,-0.7823048,0.2200377,-0.400148,19.62127,-18.54683,13.40451,1008.226
21.944837570,99.98267,83.96516,96.32525,-0.701969,0.2156588,-0.3321812,19.62127,-18.54683,13.40451,1008.225
21.977116108,78.78767,90.53987,66.52525,-0.5033169,0.3380413,-0.08632661,16.77396,-16.66497,15.54194,1008.225
22.009393692,48.23466,73.39866,75.91011,-0.5360159,0.2170232,-0.2126383,14.02976,-11.84512,19.38443,1008.223
22.044154644,19.35494,47.33463,78.46962,-0.4712539,0.2410159,-0.184602,14.02976,-11.84512,19.38443,1008.22
22.076433182,9.810993,30.78044,78.46962,-0.4052658,0.1233931,-0.249227,11.88443,-9.252671,20.6924,1008.22
22.111194611,6.774283,2.720512,91.08435,-0.3462626,0.1138324,-0.2643951,11.14237,-6.759471,20.23616,1008.218
22.143472195,-9.71071,-16.76881,88.70766,-0.3985974,0.1181063,-0.3870514,9.651996,-4.937842,18.92796,1008.215
22.178233624,-30.78176,-43.24376,80.05408,-0.4168423,0.02818791,-0.4875952,9.651996,-4.937842,18.92796,1008.215
22.210512161,-52.16267,-62.85049,68.96288,-0.4501577,-0.03425328,-0.6068043,8.12606,-2.403281,16.3656,1008.213
22.242789745,-61.33477,-80.34392,40.50356,-0.4302317,-0.1100121,-0.7025154,7.325013,0.4878201,13.78759,1008.213
22.277551174,-28.05491,-51.57956,5.46266,-0.09310333,-0.2733283,-1.057081,7.325013,0.4878201,13.78759,1008.212
22.309829712,125.144,11.87815,-6.786421,-0.2834024,-0.6522245,-2.463698,7.262168,3.012063,11.63889,1008.208
22.344590187,180.9203,-15.65346,12.77555,-0.6921879,0.4813022,-1.778591,6.852112,2.628998,9.906113,1008.207
22.376868725,96.76004,8.297276,-30.18765,-0.4286965,0.6314653,-0.8148114,6.852112,2.628998,9.906113,1008.203
22.411629677,12.35191,28.25622,-51.57784,-0.6176659,0.4593622,-0.6036366,5.492529,4.147286,13.33328,1008.204
22.443907738,-64.92924,2.779215,-32.86905,-0.6299607,0.3334213,-0.6289815,5.514515,5.252102,14.19088,1008.204
22.476186276,-46.15122,-2.327927,-15.31812,-0.3876887,0.09722083,-0.7048128,5.514515,5.252102,14.19088,1008.2
22.510947227,14.83086,-19.99747,15.09129,-0.4011203,0.171859,-0.9455954,6.228745,4.873975,13.74874,1008.2
22.543225288,27.41151,-24.22406,19.66184,-0.3646484,0.323279,-0.8476419,6.228083,5.23849,13.74413,1008.197
22.577986240,22.94941,-21.93466,13.93342,-0.4935097,0.206157,-0.8852549,6.228083,5.23849,13.74413,1008.197
22.610264778,-3.45137,-20.05617,9.362865,-0.5872607,0.1870663,-0.8701748,6.566889,5.223232,12.86716,1008.197
22.645025730,-34.31425,-14.18589,1.440574,-0.5686563,0.3013946,-0.8497438,6.192126,5.221586,12.43695,1008.195
22.677303791,-34.81004,-8.022096,-0.6923506,-0.5668601,0.3506724,-0.8755732,6.192126,5.221586,12.43695,1008.195
22.709582329,-16.96163,-4.969552,4.426669,-0.5325803,0.3823193,-0.8479111,6.895422,5.203146,11.61671,1008.195
22.744343281,-10.82624,-3.384577,7.169,-0.495317,0.3801076,-0.8180308,6.508014,5.560381,10.74615,1008.197
22.776621342,-12.49953,-2.914954,6.31583,-0.4995,0.3177568,-0.7922706,6.508014,5.560381,10.74615,1008.197
22.811382294,-12.37558,-5.615283,3.817262,-0.4921896,0.2794096,-0.8331133,6.508014,5.560381,10.74615,1008.194
22.843660355,-16.65176,-6.495824,0.3436413,-0.4975297,0.286637,-0.8378951,6.145898,5.199853,10.75629,1008.194
22.875938892,-24.70834,-5.55658,0.1608192,-0.5189142,0.3261977,-0.8555112,6.145898,5.199853,10.75629,1008.192
22.910699844,-13.92492,-8.843935,4.975135,-0.504925,0.3593283,-0.8012079,6.521321,4.836984,11.19111,1008.189
22.942977905,-2.335845,-8.374312,11.43485,-0.4885414,0.3948119,-0.7686511,7.233567,5.552404,10.73512,1008.189
22.977738857,-6.116238,-6.143607,6.864296,-0.5161274,0.3980551,-0.7879107,7.233567,5.552404,10.73512,1008.187
23.010017395,-22.22939,-3.912902,-0.3267064,-0.5189351,0.3632498,-0.7745663,6.134574,4.829703,10.32518,1008.184
23.044778824,-21.42373,-5.439174,-2.886216,-0.5150518,0.3540384,-0.7828454,6.509998,4.466833,10.76,1008.184
23.077056408,-10.51637,-6.730635,-2.459631,-0.4716194,0.3933856,-0.7754638,6.509998,4.466833,10.76,1008.183
23.109334946,-0.9104502,-12.65962,-3.373742,-0.4555664,0.3698841,-0.7268047,6.509998,4.466833,10.76,1008.181
23.144095898,8.881389,-16.65141,-2.459631,-0.4821185,0.35728,-0.7108657,6.873436,4.09833,10.7591,1008.181
23.176373959,22.39165,-13.30535,-1.728343,-0.5053552,0.3678552,-0.7122058,6.498013,4.461199,10.32428,1008.178
23.211134911,33.48493,-7.728582,-2.520572,-0.6475598,0.36874,-0.7592713,6.498013,4.461199,10.32428,1008.176
23.243413448,30.82006,-3.267171,-1.911165,-0.6300931,0.3568177,-0.7221519,6.509998,4.466833,10.76,1008.174
23.278174877,14.64494,7.299329,-4.226912,-0.5822818,0.3659919,-0.7686129,7.271507,4.47576,12.05615,1008.172
23.310452461,12.22797,8.708196,-3.617504,-0.5595381,0.3519558,-0.7885628,7.271507,4.47576,12.05615,1008.172
23.342730999,11.9181,9.236521,-3.861267,-0.5232381,0.3390065,-0.7848471,7.258861,4.834642,11.61581,1008.171
23.377492428,18.54928,7.651546,-3.25186,-0.5217343,0.3099111,-0.8038698,6.896746,4.474114,11.62594,1008.171
23.409770012,23.63112,6.125273,-0.4485878,-0.5086246,0.2842723,-0.8122624,6.896746,4.474114,11.62594,1008.169
23.444531441,20.16059,5.068623,0.3436413,-0.4858957,0.3014501,-0.7604857,6.906746,5.573297,12.04782,1008.169
23.476809025,13.65336,0.3136983,-3.678445,-0.5221297,0.2677604,-0.8181285,6.555955,5.582919,12.48906,1008.169
23.511570454,10.61665,-3.560685,-2.703394,-0.5202199,0.2842801,-0.8001513,6.555955,5.582919,12.48906,1008.167
23.543848991,8.385599,-7.845987,-6.725481,-0.5251262,0.3093831,-0.8140178,7.303766,5.585407,13.28724,1008.167
23.576126575,9.687046,-7.845987,-9.894398,-0.5507535,0.3039374,-0.8284967,6.203451,5.591737,12.86806,1008.171
23.610888004,4.481258,-2.621441,-16.11035,-0.6188509,0.2557058,-0.8663324,6.203451,5.591737,12.86806,1008.171
23.643166542,8.509546,1.429051,-13.97742,-0.6095759,0.2174903,-0.8699537,7.29112,5.944287,12.8469,1008.171
23.677927494,10.24481,4.657704,-10.32098,-0.5592456,0.2173172,-0.8207524,7.653897,5.940298,12.84138,1008.171
23.710205555,12.22797,7.299329,-6.481718,-0.5359465,0.1859888,-0.8030936,7.653897,5.940298,12.84138,1008.17
23.744966507,8.323626,11.05631,-1.118936,-0.522767,0.1767652,-0.6798975,7.677207,6.316084,13.70822,1008.17
23.777245045,-2.397818,9.764846,1.867159,-0.4812452,0.1736906,-0.7655731,7.326414,6.325707,14.14946,1008.17
23.809522629,-16.65176,4.188082,7.534645,-0.5491195,0.2015919,-0.9001476,7.326414,6.325707,14.14946,1008.166
23.844284058,-12.93334,17.74842,19.6009,-0.8196939,0.2510009,-1.085407,7.327076,5.961191,14.15408,1008.166
23.876562595,7.579941,4.599001,25.14651,-0.4944528,0.2145612,-0.8320268,7.303766,5.585407,13.28724,1008.166
23.911323547,9.625072,3.30754,26.79191,-0.5384895,0.2142945,-0.8735092,7.303766,5.585407,13.28724,1008.17
23.943601608,-20.06031,10.17577,16.31011,-0.3569055,0.3443393,-0.7798574,7.315752,5.591042,13.72297,1008.169
23.975880146,-42.49477,1.839971,6.864296,-0.5412596,0.3457458,-0.9230334,7.304427,5.220891,13.29185,1008.167
24.010641098,-39.27214,4.657704,9.423806,-0.4755133,0.3629712,-0.8935874,7.304427,5.220891,13.29185,1008.167
24.042919159,-14.60663,10.9976,15.51788,-0.4262197,0.3771675,-0.8873282,6.930327,4.854729,12.86626,1008.169
24.077680111,16.25625,21.79891,27.40131,-0.321212,0.340164,-0.8998509,7.305089,4.856376,13.29647,1008.169
24.109958649,36.89349,33.24596,49.70561,-0.1593661,0.3918384,-0.9250447,7.305089,4.856376,13.29647,1008.167
24.144720078,35.53006,42.34489,53.11829,-0.06828202,0.5203292,-0.9278944,6.95496,4.501482,13.74233,1008.167
24.176997662,-5.434528,61.5994,39.34569,-0.01387709,0.4506535,-0.8283361,6.639735,3.798172,15.43774,1008.167
24.209276199,-66.72648,83.61294,37.33465,-0.01434006,0.4463394,-0.8157902,6.675691,3.815076,16.74492,1008.167
24.244036675,-91.08213,88.72009,39.89416,-0.1395234,0.4276395,-0.801607,6.675691,3.815076,16.74492,1008.165
24.276315212,-73.10977,83.78905,44.83035,-0.2104714,0.3820535,-0.7702898,6.3249,3.824698,17.18616,1008.168
24.311076164,-47.26675,79.15153,56.53097,-0.2757252,0.3712188,-0.7706942,5.938813,3.452904,16.32484,1008.168
24.343354225,-0.1667663,73.75088,71.52238,-0.2346917,0.4057509,-0.7541494,5.938813,3.452904,16.32484,1008.168
24.378115177,13.15757,75.33585,71.94897,-0.2913233,0.4400497,-0.7238591,5.213921,3.096363,16.34048,1008.169
24.410393715,0.9487596,68.52633,57.93261,-0.3855031,0.4040808,-0.6909868,4.851144,3.100351,16.346,1008.168
24.442671776,-7.231764,52.85268,39.52851,-0.4139285,0.3927011,-0.5976866,4.851144,3.100351,16.346,1008.17
24.477432728,-24.89426,19.56821,16.98045,-0.4688274,0.4794358,-0.660889,3.034614,4.578358,16.35511,1008.17
24.509711265,145.9671,-109.4605,-9.406872,-0.2937789,0.4114959,-1.437088,2.645882,5.664625,15.47533,1008.168
24.544472694,6.402442,6.06657,-8.127117,0.06942768,0.3092474,-1.071522,2.645882,5.664625,15.47533,1008.168
24.576750278,26.11007,6.829707,6.498652,-0.05233721,0.7259601,-1.523806,3.31256,5.993795,13.34329,1008.168
24.611511707,-21.91952,14.87199,9.484747,-0.02558457,0.4228307,-1.031997,2.916,11.3935,12.40889,1008.167
24.643790245,-29.54228,8.532087,6.072067,0.004705473,0.3758233,-0.7915769,2.916,11.3935,12.40889,1008.167
24.676067829,-21.60965,-1.212574,-2.215868,0.05901739,0.3419238,-0.7019671,3.302748,11.40078,13.27482,1008.169
24.710829258,-14.11084,-3.736794,-3.678445,0.009401806,0.422173,-0.8270979,2.567193,10.30957,12.86398,1008.169
24.743107796,-16.27992,0.9007261,0.6483449,0.01898679,0.4296634,-0.909744,2.567193,10.30957,12.86398,1008.169
24.777868748,-11.19808,-0.3320322,0.404582,0.02716543,0.4373331,-0.9382409,2.567854,9.945057,12.86859,1008.169
24.810146809,-16.094,-1.506088,-1.850224,0.03727875,0.4601592,-0.9226629,2.544934,10.29911,12.05477,1008.167
24.844907761,-23.53084,-3.267171,-4.531615,0.02067563,0.5327392,-0.9110953,2.544934,10.29911,12.05477,1008.166
24.877186298,-29.79018,-6.848041,-5.81137,0.0172959,0.5459446,-0.86702,2.909035,9.56609,12.05849,1008.166
24.909464359,-21.05189,-3.912902,-2.642453,0.000522138,0.4966747,-0.8261718,3.273024,8.893822,12.06143,1008.166
24.944225311,-2.521765,1.252943,3.573499,-0.001333373,0.4598563,-0.8365293,3.273024,8.893822,12.06143,1008.166
24.976503849,2.188233,3.718459,5.706423,0.01701785,0.4622547,-0.8583099,2.523499,8.89053,11.20101,1008.17
25.011264801,-4.814791,0.9594288,1.867159,0.007754195,0.4853685,-0.8842642,3.261039,8.888187,11.6257,1008.168
25.043542862,-9.400842,-1.858305,-0.7532913,0.01730243,0.5391303,-0.8786613,3.261039,8.888187,11.6257,1008.168
25.078303814,-16.83768,-0.7429517,-0.4485878,0.03609184,0.5750605,-0.8591599,3.273686,8.529306,12.06605,1008.168
25.110582352,-19.87439,0.4898067,0.3436413,0.04343829,0.5471247,-0.8264608,2.899585,8.163146,11.64045,1008.166
25.142860413,-17.2715,0.2549956,-0.8751727,0.03049673,0.5094441,-0.7961905,2.911571,8.16878,12.07618,1008.169
25.177621365,-9.028999,-3.325874,-4.04409,0.008764806,0.4904383,-0.8170396,2.911571,8.16878,12.07618,1008.169
25.209899902,-0.6625556,-4.499929,-4.775378,0.00280089,0.5493709,-0.8432808,3.262362,8.159157,11.63494,1008.169
25.244661331,0.08112836,-3.912902,-3.434682,-0.00304161,0.5628715,-0.8528602,2.888261,7.792995,11.20934,1008.169
25.276938915,-6.178212,-1.212574,-1.911165,0.003689371,0.5822776,-0.8440625,2.888261,7.792995,11.20934,1008.169
25.309217453,-5.930317,-0.390735,-0.0829436,0.004759026,0.547521,-0.819607,3.612492,8.514049,11.18908,1008.167
25.343978882,-0.1047926,-0.390735,-0.5095286,-0.001487283,0.5320303,-0.8158141,3.251038,7.789006,11.20383,1008.165
25.376256466,5.039021,-0.6255462,-0.6314099,-0.005378997,0.5363206,-0.8317348,3.251038,7.789006,11.20383,1008.167
25.411017418,4.357311,-0.1559239,-0.1438843,0.001356017,0.547436,-0.8418384,3.249053,8.882553,11.18998,1008.167
25.443295956,-0.2907136,0.6072122,0.404582,0.007614334,0.5600442,-0.839363,3.251038,7.789006,11.20383,1008.167
25.478057385,-3.885186,0.4311039,0.6483449,0.01148234,0.5605425,-0.8384016,3.251038,7.789006,11.20383,1008.167
25.510334968,-3.141502,0.1962928,0.404582,0.0119861,0.5518315,-0.8389357,3.263023,7.794641,11.63955,1008.166
25.542613506,0.143102,-0.2146267,-0.204825,0.01202072,0.5407356,-0.8288466,3.251038,7.789006,11.20383,1008.166
25.577374935,3.551653,-0.5668434,-0.4485878,0.009137344,0.5373808,-0.8167735,3.251038,7.789006,11.20383,1008.166
25.609652519,4.419284,-0.9190601,-0.5704692,0.003303644,0.5474972,-0.8254052,2.536147,8.53165,11.64135,1008.166
25.644413948,1.878365,-0.6255462,-0.204825,0.007143293,0.553742,-0.8422984,3.249715,8.518037,11.19459,1008.164
25.676692486,-1.59216,-0.5081406,-0.0829436,0.003749755,0.5580942,-0.8403326,3.249715,8.518037,11.19459,1008.168
25.711453438,-4.257028,-0.03851834,0.03893781,0.003769335,0.551334,-0.8360201,3.261701,8.523672,11.63032,1008.166
25.743731499,-4.938738,0.13759,0.09987852,0.002335241,0.546023,-0.8312129,3.6258,7.790653,11.63404,1008.166
25.776010036,-4.009133,0.02018443,-0.2657657,0.0004103808,0.5441014,-0.8254184,3.6258,7.790653,11.63404,1008.166
25.810770988,-3.079528,0.07888721,-0.2657657,0.003302811,0.5470051,-0.8278252,3.251038,7.789006,11.20383,1008.166
25.843049049,-2.459792,0.13759,-0.1438843,0.004213264,0.5687634,-0.8339882,2.511514,8.884895,10.76528,1008.163
25.877810001,-1.654134,0.3136983,0.03893781,0.008566051,0.5697568,-0.8301245,2.511514,8.884895,10.76528,1008.163
25.910088539,0.2670493,0.02018443,-0.2657657,0.004716869,0.5629837,-0.8262872,2.888923,7.428479,11.21396,1008.165
25.944849491,3.241785,-0.4494378,-0.204825,0.005713883,0.5523597,-0.8205485,2.886938,8.522026,11.20011,1008.165
25.977127552,5.039021,-0.6842489,-0.4485878,0.002317889,0.5557244,-0.8243895,2.886938,8.522026,11.20011,1008.165
26.009406090,5.53481,-0.6255462,0.03893781,-0.0005798081,0.551333,-0.8326267,2.889585,7.063964,11.21857,1008.163
26.044167042,3.613627,-0.5081406,0.03893781,0.008115711,0.5513235,-0.8427976,2.875614,8.151876,10.769,1008.167
26.076445103,0.886786,-0.4494378,-0.3267064,0.005226006,0.5479424,-0.8384597,2.875614,8.151876,10.769,1008.167
26.111206055,-1.59216,-0.2733294,-0.3876471,0.002319052,0.5508426,-0.8369867,3.262362,8.159157,11.63494,1008.167
26.143484592,-3.265449,-0.2146267,-0.0829436,0.003778262,0.5494162,-0.8307132,2.536147,8.53165,11.64135,1008.167
26.178246021,-3.389397,0.1962928,-0.204825,0.0003972711,0.5479565,-0.8302308,2.525484,7.796984,11.21486,1008.167
26.210523605,-2.831634,-0.03851834,-0.204825,0.003280588,0.5552204,-0.8311626,2.525484,7.796984,11.21486,1008.167
26.242802143,-2.211897,-0.3320322,-0.2657657,0.002792195,0.5586196,-0.8272747,3.239053,7.783372,10.7681,1008.167
26.277563572,-1.654134,-0.1559239,-0.1438843,-0.002523146,0.5551989,-0.8326005,2.899585,8.163146,11.64045,1008.167
26.309841156,-0.7245293,0.13759,0.09987852,0.003748861,0.5615112,-0.8316113,2.899585,8.163146,11.64045,1008.167
26.344602585,0.7628386,-0.03851834,0.03893781,0.002334036,0.5504161,-0.8200687,3.6258,7.790653,11.63404,1008.169
26.376881123,2.126259,-0.09722112,-0.02200289,0.00425463,0.5532973,-0.828275,3.23773,8.512403,10.75887,1008.171
26.411642075,2.002312,-0.1559239,0.03893781,-0.0005782265,0.5513396,-0.8306929,3.23773,8.512403,10.75887,1008.171
26.443920136,1.072707,-0.2733294,-0.0829436,-0.0005924385,0.5561674,-0.8340495,3.238391,8.147887,10.76348,1008.171
26.476198197,-0.2287399,-0.3320322,-0.1438843,0.001333338,0.5595587,-0.8345178,3.251699,7.42449,11.20844,1008.171
26.510959625,-0.9724239,-0.03851834,-0.204825,0.006178472,0.5571693,-0.8297074,3.251699,7.42449,11.20844,1008.169
26.543237209,-0.7865028,-0.03851834,-0.02200289,0.006675438,0.5523396,-0.8273188,3.612492,8.514049,11.18908,1008.173
26.577998638,-0.4766346,-0.1559239,-0.0829436,-9.948655E-05,0.5552304,-0.8253539,3.613153,8.149533,11.19369,1008.173
26.610277176,-0.4146609,-0.3320322,-0.02200289,-0.001552454,0.5557052,-0.8267984,3.613153,8.149533,11.19369,1008.173
26.642554760,-0.1667663,0.3136983,0.09987852,0.001821461,0.5576244,-0.8345298,2.888261,7.792995,11.20934,1008.173
26.677316189,-0.7865028,-0.2733294,-0.204825,0.005686832,0.5595777,-0.8325933,3.261039,8.888187,11.6257,1008.172
26.709594726,-1.282292,-0.6255462,-0.5704692,0.004237152,0.5615323,-0.825811,3.261039,8.888187,11.6257,1008.172
26.744355678,-0.7245293,-0.3320322,-0.3267064,0.004249034,0.5571834,-0.823902,3.250377,8.153522,11.19921,1008.176
26.776633739,0.143102,-0.2146267,-0.0829436,-0.0005757284,0.5528159,-0.8234329,3.250377,8.153522,11.19921,1008.174
26.811394691,0.6388913,-0.8016545,-0.7532913,0.002307152,0.5595893,-0.8263012,3.250377,8.153522,11.19921,1008.174
26.843673229,0.08112836,-0.1559239,-0.4485878,-0.001086907,0.5624735,-0.8291782,3.625139,8.155169,11.62942,1008.174
26.875951767,-1.468213,-0.2146267,0.03893781,0.0008550351,0.5561584,-0.8379202,3.250377,8.153522,11.19921,1008.174
26.910712242,-4.380976,0.3136983,-0.02200289,-0.001575468,0.5639173,-0.8311027,3.250377,8.153522,11.19921,1008.174
26.942990780,-5.12466,-0.5081406,-0.6314099,-0.00302109,0.5624679,-0.829174,2.888923,7.428479,11.21396,1008.172
26.977751732,-4.319002,-0.4494378,-0.6923506,-0.000127306,0.5673318,-0.8243182,2.876937,7.422845,10.77823,1008.172
27.010029793,-2.76966,0.13759,0.2827006,-0.004943931,0.5610433,-0.8195092,2.876937,7.422845,10.77823,1008.17
27.044790745,-0.1667663,1.018132,1.07493,-0.004934608,0.5591273,-0.8137189,2.888261,7.792995,11.20934,1008.17
27.077069283,0.5769176,0.665915,0.8921077,0.001323852,0.5688042,-0.8194786,3.6258,7.790653,11.63404,1008.169
27.109347820,0.9487596,0.2549956,0.404582,0.001308598,0.5706956,-0.8325207,3.6258,7.790653,11.63404,1008.174
27.144109249,-0.4766346,0.2549956,0.2217599,0.008547572,0.5755442,-0.8358927,2.876937,7.422845,10.77823,1008.174
27.176386833,-3.079528,0.4311039,0.3436413,0.004208853,0.5726545,-0.8281648,2.876937,7.422845,10.77823,1008.174
27.211148262,-3.637291,0.665915,-0.02200289,0.005677825,0.5698025,-0.8141645,3.238391,8.147887,10.76348,1008.174
27.243426800,-2.459792,0.4898067,0.1608192,-0.0005948067,0.5654423,-0.8103083,3.238391,8.147887,10.76348,1008.176
27.278187752,0.329023,0.3136983,-0.0829436,0.00663938,0.5697824,-0.8209348,3.227067,7.777738,10.33237,1008.176
27.310465813,2.374154,-0.2733294,-0.3876471,0.004694274,0.5760843,-0.8160604,3.96593,7.046364,10.7663,1008.174
27.342744351,3.613627,-0.1559239,-0.3267064,0.005664985,0.5721926,-0.8228527,3.96593,7.046364,10.7663,1008.174
27.377505303,4.357311,-0.1559239,-0.3876471,0.002776299,0.5668611,-0.8228769,3.249715,8.518037,11.19459,1008.181
27.409783363,4.357311,-0.3320322,-0.4485878,-9.351328E-05,0.5557438,-0.8166492,3.250377,8.153522,11.19921,1008.179
27.444544315,4.295337,-0.2146267,-0.02200289,-0.002056371,0.5624608,-0.8320768,3.250377,8.153522,11.19921,1008.179
27.476822853,3.427706,-0.2146267,-0.2657657,-0.004475807,0.5609808,-0.8383647,3.97593,8.145545,11.18818,1008.179
27.511583805,3.365732,0.8420233,0.831167,0.005232063,0.5494335,-0.8268487,3.601168,8.143899,10.75797,1008.179
27.543861866,2.064286,-0.2733294,-0.3876471,0.004240688,0.5566602,-0.8355074,3.601168,8.143899,10.75797,1008.179
27.576140404,-1.40624,0.07888721,0.1608192,-0.01265882,0.5484063,-0.8292332,3.251038,7.789006,11.20383,1008.177
27.610901356,-2.955581,0.07888721,0.3436413,-0.00303185,0.561446,-0.8451333,2.875614,8.151876,10.769,1008.177
27.643179417,-4.257028,0.6072122,0.5874042,0.001319521,0.5643882,-0.837391,2.875614,8.151876,10.769,1008.175
27.677940369,-5.80637,0.9007261,0.7702263,0.01098877,0.5727164,-0.8156097,3.250377,8.153522,11.19921,1008.175
27.710218906,-4.814791,0.3724011,0.03893781,0.01393304,0.557754,-0.8065158,2.8876,8.157511,11.20473,1008.178
27.744980335,-1.530187,-0.5081406,-0.2657657,0.006665473,0.5606057,-0.8156692,2.8876,8.157511,11.20473,1008.178
27.777257919,0.514944,-1.036466,-0.8142321,0.01195528,0.5658754,-0.8359551,2.874953,8.516392,10.76438,1008.178
27.809536457,1.072707,-1.56479,-1.240817,-0.001110628,0.5716599,-0.8315431,3.603152,7.050352,10.77182,1008.178
27.844297886,0.7628386,-0.7429517,-0.8142321,-0.006400332,0.56297,-0.8209454,3.603152,7.050352,10.77182,1008.178
27.876576424,1.63047,-0.7429517,-0.3876471,-0.01072702,0.5527999,-0.8195437,3.601168,8.143899,10.75797,1008.178
27.911337376,3.675601,-0.09722112,0.03893781,-0.005912855,0.558101,-0.8301595,3.60183,7.779384,10.76258,1008.176
27.943615437,2.126259,-0.09722112,0.5264634,0.00375985,0.5605794,-0.8209809,3.60183,7.779384,10.76258,1008.18
27.975893497,-1.282292,-0.2146267,0.404582,0.00373257,0.5697511,-0.8276969,2.512176,8.52038,10.7699,1008.18
28.010654926,-4.071107,-0.2146267,0.1608192,0.003729448,0.5702268,-0.8301114,3.250377,8.153522,11.19921,1008.178
28.042932510,-4.380976,-0.5668434,-0.6923506,-0.002024119,0.5513551,-0.8248885,3.250377,8.153522,11.19921,1008.178
28.077693939,-2.397818,-0.3320322,-1.240817,-0.001531124,0.5509069,-0.8147398,3.613153,8.149533,11.19369,1008.18
28.109972477,-0.6625556,-0.03851834,-0.6923506,-0.006394275,0.5644611,-0.8093345,2.888261,7.792995,11.20934,1008.18
28.144733429,-1.034397,0.4311039,-0.02200289,-0.009343992,0.5803782,-0.8222904,2.513498,7.791349,10.77913,1008.177
28.177011490,-1.840055,0.7833205,0.5874042,-0.004048877,0.5876245,-0.8304791,2.513498,7.791349,10.77913,1008.177
28.209290028,1.568496,0.4311039,0.6483449,-0.001590052,0.5736302,-0.8208952,3.601168,8.143899,10.75797,1008.177
28.244050980,6.898231,0.4311039,0.9530484,0.006199094,0.5533454,-0.8157095,2.86429,7.781727,10.33789,1008.175
28.276329041,9.687046,0.2549956,0.4655228,0.007668708,0.5441434,-0.8191491,2.86429,7.781727,10.33789,1008.177
28.311089993,7.332047,-0.09722112,-0.02200289,0.006665451,0.5557189,-0.8297167,2.876276,7.787361,10.77361,1008.179
28.343368530,2.002312,-0.6255462,-0.204825,0.01099017,0.5658807,-0.8335358,3.239714,7.418856,10.77271,1008.181
28.378129959,-3.575318,-0.6255462,-0.5095286,-0.000133614,0.5629076,-0.8446478,3.239714,7.418856,10.77271,1008.179
28.410408020,-5.868343,-0.2146267,-0.5704692,-0.00107744,0.5576259,-0.831623,2.886276,8.886541,11.19549,1008.179
28.442686081,-4.009133,-0.1559239,-0.2657657,-0.01024585,0.5527915,-0.8224453,2.874953,8.516392,10.76438,1008.179
28.477447033,-3.94716,-0.3320322,-0.3876471,-9.836076E-05,0.5591444,-0.8127623,2.874953,8.516392,10.76438,1008.177
28.509725571,-3.017555,-0.1559239,-0.0829436,-0.004504832,0.5774753,-0.8261849,3.625139,8.155169,11.62942,1008.176
28.544486999,-2.645713,0.3136983,-0.02200289,0.0003399668,0.5711752,-0.8329993,3.239053,7.783372,10.7681,1008.174
28.576764583,-2.76966,0.6072122,0.404582,-0.006884669,0.5629653,-0.8219113,3.239053,7.783372,10.7681,1008.174
28.611526012,-0.8484765,0.9594288,0.7702263,0.00132843,0.5668684,-0.8194897,3.263023,7.794641,11.63955,1008.176
28.643804550,-0.8484765,0.3136983,-0.1438843,-0.001085386,0.5663891,-0.816103,2.864952,7.417211,10.3425,1008.17
28.676082134,-0.6005819,0.665915,0.7702263,0.002774135,0.5692955,-0.8185121,2.864952,7.417211,10.3425,1008.173
28.710843563,-0.4146609,0.5485094,0.2827006,0.008554876,0.5731312,-0.8339728,2.876276,7.787361,10.77361,1008.171
28.743122101,-0.9104502,0.1962928,-0.0829436,0.001794558,0.5711957,-0.8281679,3.23773,8.512403,10.75887,1008.171
28.777883053,-2.025976,0.4311039,0.3436413,0.0003516201,0.5687801,-0.8257614,3.23773,8.512403,10.75887,1008.169
28.810161591,-3.327423,-0.03851834,0.09987852,0.003245279,0.5721775,-0.8252648,3.239053,7.783372,10.7681,1008.168
28.844922543,-4.504923,-0.03851834,-0.3267064,-0.0006175925,0.5717006,-0.8199413,3.60183,7.779384,10.76258,1008.166
28.877200603,-5.31058,0.3136983,0.1608192,-0.003031325,0.5721989,-0.8136486,3.60183,7.779384,10.76258,1008.164
28.909479141,-5.620449,0.665915,0.2827006,-0.003518471,0.5716939,-0.8194517,2.876937,7.422845,10.77823,1008.164
28.944240093,-6.797948,0.5485094,0.1608192,0.002264311,0.5809133,-0.8169945,3.227067,7.777738,10.33237,1008.167
28.976518154,-8.161368,0.6072122,-0.1438843,0.0008021871,0.5852596,-0.818417,3.227067,7.777738,10.33237,1008.165
29.011279106,-7.975448,0.8420233,0.404582,-0.0006360057,0.5828637,-0.8102091,2.526807,7.067952,11.22409,1008.161
29.043557644,-7.727553,0.8420233,0.3436413,0.008041101,0.5940173,-0.8106478,3.590505,7.409233,10.33147,1008.161
29.075835705,-8.099395,-0.1559239,-0.5095286,0.003702424,0.5916163,-0.8014668,3.590505,7.409233,10.33147,1008.161
29.110596657,-7.355711,0.13759,-0.204825,0.003685653,0.5988768,-0.800942,3.590505,7.409233,10.33147,1008.16
29.142875195,-6.116238,0.2549956,-0.1438843,0.008507461,0.6056756,-0.7980131,3.589844,7.773749,10.32686,1008.158
29.177636623,-4.009133,-0.9777628,-1.301758,0.008519283,0.6052359,-0.7849628,3.215743,7.407587,9.901261,1008.158
29.209915161,0.5769176,-0.8603573,-0.8142321,0.009965509,0.6091311,-0.7791425,3.215743,7.407587,9.901261,1008.158
29.244676113,5.596784,-2.034413,-1.728343,0.001751493,0.6037582,-0.7868904,3.240376,7.05434,10.77733,1008.154
29.276954174,9.25323,-2.034413,-1.362698,0.00416637,0.6027759,-0.7931858,3.603152,7.050352,10.77182,1008.154
29.309232712,10.98849,-3.736794,-2.886216,-0.005988424,0.5988361,-0.8047889,3.603152,7.050352,10.77182,1008.153
29.343993664,13.83928,-3.560685,-2.276809,-0.01276219,0.596845,-0.8154213,3.239714,7.418856,10.77271,1008.151
29.376271725,13.71533,-4.499929,-3.190919,-0.01081668,0.5905448,-0.8198122,3.239053,7.783372,10.7681,1008.151
29.411032677,13.52941,-6.026202,-4.531615,-0.01366916,0.5741239,-0.8078135,3.239053,7.783372,10.7681,1008.149
29.443311215,14.14915,-7.200257,-5.019141,-0.01417953,0.5793867,-0.8251863,3.60183,7.779384,10.76258,1008.149
29.478072167,13.28152,-8.491718,-5.994192,-0.0286533,0.5677523,-0.8189365,3.251699,7.42449,11.20844,1008.149
29.510350704,11.17441,-10.07669,-5.506667,-0.02576559,0.5662383,-0.8397392,3.251699,7.42449,11.20844,1008.152
29.542628765,-5.744396,-9.489665,-6.116074,-0.03347339,0.5394593,-0.8814507,3.614476,7.420502,11.20293,1008.152
29.577389717,-57.36845,15.1655,-1.911165,0.7408686,0.8297304,-0.4178514,2.912232,7.804265,12.0808,1008.152
29.609668255,-63.19398,-6.437121,-5.567607,-0.03840216,0.5991652,-0.8230879,2.912232,7.804265,12.0808,1008.152
29.644429684,-67.16029,-6.789338,-8.797464,-0.1292092,0.5377452,-0.87787,3.285943,7.440589,12.45337,1008.152
29.676707268,-53.65004,-8.374312,-8.005236,-0.06986252,0.6331584,-0.7614301,3.276332,7.071244,12.08451,1008.152
29.711468697,-37.84675,-8.256907,-6.481718,-0.05688695,0.6802645,-0.723482,3.276332,7.071244,12.08451,1008.152
29.776024818,-9.772683,-6.495824,-3.617504,-0.07767479,0.6880429,-0.6953535,3.616461,6.326955,11.21677,1008.15
29.810786247,8.695468,-5.850093,-4.409734,-0.06609345,0.6967737,-0.6991963,3.616461,6.326955,11.21677,1008.148
29.843064308,14.70691,-7.611176,-5.933251,-0.07287584,0.6957242,-0.7175583,3.255669,5.237395,11.23614,1008.152
29.877825737,19.78875,-8.433015,-6.420777,-0.08736692,0.6849954,-0.729674,3.642416,5.244677,12.10208,1008.151
29.910104275,20.96625,-7.845987,-5.201963,-0.08494827,0.6771874,-0.750995,3.642416,5.244677,12.10208,1008.151
29.944865227,17.92954,-7.317663,-5.262904,-0.09987795,0.6558927,-0.7389979,4.005193,5.240688,12.09656,1008.151
29.977143288,16.25625,-7.728582,-4.836319,-0.1003317,0.6394001,-0.7502098,3.301898,5.259129,12.9168,1008.151
30.009421825,12.53783,-7.963393,-5.994192,-0.1070584,0.6283191,-0.7299539,3.301898,5.259129,12.9168,1008.149
30.044182777,8.447573,-7.141554,-5.323844,-0.1230452,0.6310821,-0.7579432,3.687984,5.630926,13.77812,1008.151
30.076460838,0.4529704,-6.789338,-5.019141,-0.1022649,0.6315795,-0.7715214,3.32653,4.905883,13.79287,1008.153
30.111221790,-6.797948,-8.198204,-6.481718,-0.1177902,0.654777,-0.7674885,4.050761,5.626938,13.7726,1008.153
30.143500328,-2.893607,-6.61323,-4.409734,-0.1298355,0.6436825,-0.7467378,4.050761,5.626938,13.7726,1008.153
30.178261757,3.365732,-4.969552,-1.911165,-0.1317514,0.640332,-0.7341833,3.689306,4.901895,13.78735,1008.155
30.210540295,12.10402,-3.149766,-0.02200289,-0.1332145,0.6466288,-0.7312437,3.712615,5.277678,14.65419,1008.157
30.242817879,18.17744,-2.738846,0.5874042,-0.1128338,0.6132663,-0.7401793,3.712615,5.277678,14.65419,1008.157
30.277578831,18.67323,-3.678091,-0.6314099,-0.1249469,0.618017,-0.7560796,3.70063,5.272044,14.21846,1008.155
30.309857369,21.02822,-2.210521,-0.6314099,-0.1278429,0.6058138,-0.7846656,4.064069,4.903541,14.21756,1008.155
30.344618797,11.73218,-2.797549,-1.240817,-0.1192114,0.6245973,-0.8184181,4.064069,4.903541,14.21756,1008.155
30.376896381,6.898231,-4.441227,-3.373742,-0.1269168,0.6163974,-0.803945,4.074731,5.638206,14.64406,1008.154
30.409174919,7.455994,-4.499929,-2.215868,-0.1215289,0.5995948,-0.7687611,4.073408,6.367238,14.63483,1008.156
30.443936348,5.410863,-6.554527,-3.129979,-0.1254188,0.6019378,-0.788077,4.073408,6.367238,14.63483,1008.154
30.476214886,6.092573,-9.196152,-4.470675,-0.1230047,0.6004635,-0.7967924,3.711292,6.00671,14.64496,1008.154
30.510975838,5.906652,-10.89853,-5.262904,-0.1519756,0.5863827,-0.7861744,3.699307,6.001076,14.20923,1008.154
30.543253899,4.667179,-10.78113,-5.262904,-0.1829893,0.5953021,-0.8411689,3.699307,6.001076,14.20923,1008.152
30.578014851,-0.8484765,-6.319715,-6.055133,-0.03585551,0.5767387,-0.7313675,3.710631,6.371226,14.64034,1008.151
30.610293388,-6.178212,-9.489665,-6.725481,-0.1969593,0.589617,-0.7933106,4.436846,5.998734,14.63393,1008.149
30.642571449,-10.64032,-7.845987,-4.9582,-0.1873434,0.6118956,-0.7961054,4.436846,5.998734,14.63393,1008.149
30.677332878,-15.22637,-6.906744,-5.506667,-0.2051782,0.5920426,-0.7845773,3.698646,6.365592,14.20461,1008.149
30.709610939,-12.43755,-4.147713,-3.008097,-0.1887129,0.5902376,-0.7599677,4.4242,6.357615,14.19358,1008.147
30.744371891,-6.797948,-3.267171,-2.703394,-0.1955028,0.5979528,-0.7623264,4.4242,6.357615,14.19358,1008.146
30.776650429,-3.885186,-1.036466,-1.362698,-0.2158056,0.5949879,-0.7632663,4.0601,7.090635,14.18987,1008.144
30.811411858,-3.265449,1.839971,1.318693,-0.1984427,0.6129332,-0.7661023,4.412214,6.351981,13.75786,1008.144
30.843689442,-4.504923,2.779215,1.257752,-0.1878172,0.6153554,-0.77433,4.412214,6.351981,13.75786,1008.144
30.875967979,-7.16979,3.190134,0.6483449,-0.1955259,0.6090962,-0.7583954,4.060761,6.726119,14.19448,1008.144
30.910729408,-1.654134,3.248837,1.440574,-0.1950918,0.6318603,-0.7529491,4.400229,6.346347,13.32213,1008.142
30.943007946,-7.479659,3.248837,0.4655228,-0.206175,0.6329651,-0.7031247,4.400229,6.346347,13.32213,1008.145
30.977768898,-12.43755,11.46723,2.964092,-0.1864939,0.6505045,-0.8277946,3.311237,6.722827,13.33406,1008.145
31.010046959,-57.12056,9.64744,3.634439,-0.2309346,0.6378607,-0.8084332,4.398906,7.075378,13.3129,1008.145
31.044807911,-110.17,23.6774,-27.50626,-0.3522235,0.8156778,-0.784439,4.4242,6.357615,14.19358,1008.145
31.109364510,-49.18793,10.23447,-45.36189,-0.4733618,0.4718261,-0.9036087,4.423538,6.722131,14.18897,1008.143
31.144125462,24.93257,1.252943,-35.42855,-0.4559374,0.4778091,-0.8663875,4.389567,5.61168,12.89564,1008.145
31.176403999,77.36228,-5.321768,-44.14307,-0.4101078,0.5141466,-0.8923853,4.389567,5.61168,12.89564,1008.145
31.211164951,79.71728,-2.504035,-50.78561,-0.4294128,0.5093569,-0.8614309,5.491205,4.876318,13.32405,1008.145
31.243443489,65.15347,1.722565,-66.20361,-0.4201633,0.4827638,-0.8625689,4.777637,4.889929,13.77081,1008.145
31.278204918,37.26533,9.706143,-81.49973,-0.4344875,0.4087107,-0.8542572,4.777637,4.889929,13.77081,1008.144
31.310482502,24.43678,14.98939,-91.98153,-0.3782077,0.3334191,-0.8427206,5.153722,4.162543,14.21025,1008.144
31.342761040,12.28994,21.15318,-100.0257,-0.3757814,0.3412803,-0.8098074,6.243376,3.421546,14.20293,1008.144
31.377522469,4.047442,24.26443,-107.3995,-0.3973123,0.2698424,-0.7376513,6.243376,3.421546,14.20293,1008.144
31.409801006,-4.690844,22.15113,-112.2748,-0.4498923,0.2325881,-0.6908563,6.622107,1.236097,14.66084,1008.142
31.444561958,-1.40624,13.63923,-129.2772,-0.4440959,0.09726477,-0.5011634,6.97753,-1.325136,14.25191,1008.143
31.476840019,-45.53149,-5.14566,-131.7149,-0.4438376,0.05337727,-0.3143227,6.97753,-1.325136,14.25191,1008.139
31.511600971,-62.45029,-7.669879,-127.1443,-0.6606966,0.153935,-0.3026479,8.10275,-2.779066,15.49876,1008.139
31.543879509,-65.05319,-17.82546,-121.4768,-0.6375219,0.169492,-0.3011591,9.546892,-4.622428,15.1263,1008.139
31.576157570,-71.06464,-30.44656,-128.9725,-0.6312647,0.1962669,-0.2594446,9.546892,-4.622428,15.1263,1008.138
31.610918522,-75.58871,-49.05534,-130.0085,-0.736676,0.2345776,-0.1463583,10.28537,-6.083638,15.50721,1008.136
31.643197060,-80.7945,-51.46215,-126.3521,-0.8602504,0.3415901,-0.1653045,12.11322,-7.191494,15.9292,1008.136
31.677958012,-59.53753,-69.89482,-129.0335,-0.9070515,0.4600926,-0.285873,12.11322,-7.191494,15.9292,1008.136
31.710236549,-54.39372,-79.52208,-132.5071,-0.9070679,0.4761507,-0.2596759,12.54675,-7.466242,18.47965,1008.136
31.742514610,-47.94846,-85.97939,-145.2437,-0.9640279,0.6034021,-0.3603518,14.40857,-7.463647,20.19498,1008.14
31.777275562,-49.93161,-85.45106,-154.4457,-0.9983311,0.5907169,-0.3618003,14.40857,-7.463647,20.19498,1008.142
31.809554100,-64.43346,-77.11526,-144.0858,-1.082202,0.6643435,-0.4129288,14.11015,-4.206767,22.71184,1008.143
31.844315529,-68.02793,-73.7105,-133.4821,-1.016105,0.5481505,-0.3412161,14.07494,1.978732,21.76192,1008.145
31.876594067,-55.32332,-58.62389,-121.8425,-1.030195,0.3978546,-0.2690411,14.07494,1.978732,21.76192,1008.145
31.911355019,-33.50859,-42.01101,-106.5464,-1.135788,0.2903261,-0.2085117,13.94528,9.214314,17.43682,1008.145
31.943633080,-10.14453,-33.38169,-97.83184,-1.236565,0.1905461,-0.1503657,14.23765,14.95365,15.17959,1008.147
31.975911140,10.55468,-30.74007,-80.89032,-1.306607,0.1671908,-0.1285928,14.23765,14.95365,15.17959,1008.148
32.010672569,23.69309,-30.27045,-62.18153,-1.407266,0.2247184,-0.0608508,14.17018,20.0295,12.99858,1008.154
32.042950153,7.39402,-31.97283,-50.84655,-1.426105,0.2179009,-0.05746489,13.75389,24.02143,11.27266,1008.155
32.077712059,-0.04281896,-37.84311,-29.39542,-1.367487,0.1750297,-0.04864965,13.7021,26.12523,9.502825,1008.155
32.109990120,-8.657158,-41.01306,-1.240817,-1.290138,0.1746867,-0.07250681,13.7021,26.12523,9.502825,1008.16
32.144751072,-10.95018,-46.88334,14.96941,-1.216053,0.1391579,-0.05208062,13.28978,27.93007,7.804601,1008.168
32.177029610,-10.33045,-50.75772,23.07452,-1.145253,0.07423089,0.006860577,13.59236,28.99226,5.66885,1008.169
32.209307671,-23.22097,-47.70517,31.60622,-1.12542,0.09288488,0.06832062,13.59236,28.99226,5.66885,1008.169
32.244068623,-71.18858,-46.23761,22.22135,-1.1321,0.08053564,0.1427144,12.80859,28.97287,3.563494,1008.169
32.276347160,-108.6207,-47.52906,-1.362698,-1.092521,-0.1267998,0.04524586,12.71442,28.9286,0.1399255,1008.169
32.311108589,-95.60621,-59.38703,-7.822413,-1.029569,-0.3886102,-0.01052359,12.71442,28.9286,0.1399255,1008.171
32.343387127,-21.85755,-63.26141,-0.3267064,-0.9585198,-0.6338053,-0.1682216,12.22755,32.15769,-4.191123,1008.171
32.378148079,83.55965,-62.55697,30.81399,-0.8801331,-0.6817425,-0.2431127,12.09291,36.47231,-8.852768,1008.171
32.410426140,159.4774,-58.03686,54.51993,-0.8815547,-0.5101505,-0.3011135,12.09291,36.47231,-8.852768,1008.171
32.442704201,173.7933,-52.5188,60.37024,-0.9124637,-0.300979,-0.2403945,11.63596,36.43203,-12.27082,1008.177
32.477465630,116.2198,-34.96667,45.25694,-0.9960369,-0.09031638,-0.1234747,11.21225,31.29979,-14.7528,1008.177
32.509744167,41.04572,-19.35173,14.54283,-1.033331,-0.04816216,-0.07626114,11.21225,31.29979,-14.7528,1008.177
32.544505119,-19.81242,-0.8603573,-18.79174,-1.030226,-0.1318473,-0.06900864,10.48518,25.53063,-15.10441,1008.177
32.576783180,-38.65241,13.75663,-36.28172,-1.011645,-0.2228126,-0.08116844,10.12638,23.34753,-15.0712,1008.179
32.611544132,-30.53386,30.19341,-40.66946,-0.9844902,-0.2488068,-0.06348753,10.12638,23.34753,-15.0712,1008.179
32.643822670,-11.56992,41.34694,-46.276,-0.9743669,-0.224962,-0.03291713,9.760952,24.80958,-15.08415,1008.179
32.676101208,1.196654,49.33052,-50.1762,-0.966665,-0.196741,0.005901829,10.15715,26.21981,-13.80017,1008.18
32.710862636,5.224942,56.14004,-49.07927,-0.993818,-0.1482601,0.05506332,10.15715,26.21981,-13.80017,1008.18
32.743140221,-3.079528,57.13799,-46.94635,-1.034491,-0.1187977,0.07272229,11.30171,27.32876,-11.71418,1008.186
32.777901649,-12.99531,50.50457,-42.19297,-1.055752,-0.1251479,0.07321544,11.75866,27.36904,-8.296129,1008.186
32.810179710,-18.2011,44.10597,-36.64737,-1.07069,-0.1410998,0.09104417,11.75866,27.36904,-8.296129,1008.186
32.844941139,-19.93637,34.71353,-28.78602,-1.0726,-0.1561562,0.07645951,12.20229,28.13272,-5.323035,1008.185
32.877219677,-16.03202,26.96476,-22.3263,-1.055679,-0.159054,0.06383716,12.98237,29.24485,-3.293773,1008.185
32.909497261,-7.851501,21.38799,-14.28213,-1.039717,-0.1594743,0.06911819,12.98237,29.24485,-3.293773,1008.185
32.944258690,-3.389397,14.81328,-3.129979,-1.024802,-0.1318885,0.05715694,13.39005,29.99163,-1.62786,1008.185
32.976537228,-3.94716,7.358032,5.828305,-1.008917,-0.1052628,0.04663844,13.41204,31.09645,-0.7702541,1008.185
33.011298180,-6.735975,-1.036466,13.87248,-0.9929801,-0.09601602,0.04859043,13.42468,30.73756,-0.3299115,1008.185
33.043576717,-11.69387,-10.07669,21.18536,-0.9973637,-0.07954541,0.05739542,13.42468,30.73756,-0.3299115,1008.186
33.075854778,-18.82084,-17.23843,28.19354,-1.00171,-0.08393286,0.05157858,13.42468,30.73756,-0.3299115,1008.188
33.110615730,-22.10544,-25.51553,35.56737,-0.998337,-0.08739259,0.0273797,12.67714,29.64072,-1.176486,1008.188
33.142894268,-19.87439,-33.79261,38.6144,-1.00891,-0.1184272,0.01755726,12.67714,29.64072,-1.176486,1008.188
33.177655697,-15.35031,-38.60624,41.35674,-1.01422,-0.1242725,0.01076732,13.35581,29.97553,-2.872794,1008.191
33.209933281,-12.49953,-40.36732,39.9551,-1.034521,-0.1311383,0.001103262,12.95707,29.96262,-4.174459,1008.194
33.244695187,-11.69387,-39.7216,35.62831,-1.019552,-0.1287397,-0.01776947,12.95707,29.96262,-4.174459,1008.195
33.276972771,-12.18966,-34.73186,28.92483,-1.014161,-0.1626322,-0.02764257,12.91322,29.57717,-5.788257,1008.195
33.309251309,-9.524789,-28.68548,21.85571,-1.030598,-0.1729269,-0.0528045,12.85567,29.18529,-7.900028,1008.195
33.344012737,-5.062686,-22.16947,14.0553,-1.019429,-0.1966437,-0.06359907,12.85567,29.18529,-7.900028,1008.195
33.376290321,-0.2907136,-16.5927,6.803356,-0.9918441,-0.2062418,-0.06322966,12.44429,29.53125,-9.642036,1008.197
33.411052227,3.303759,-10.66372,-0.8142321,-0.9787645,-0.2129467,-0.0536272,11.68383,29.88765,-10.88055,1008.201
33.443330288,9.315204,-7.141554,-3.129979,-0.9410416,-0.2137903,-0.04887891,11.68383,29.88765,-10.88055,1008.201
33.478091240,8.385599,-3.44328,-7.944295,-0.9174643,-0.1604512,-0.03702391,12.0466,29.88366,-10.88607,1008.201
33.510369778,-4.566896,2.544404,-13.00237,-0.8967348,-0.1298665,-0.0257756,12.42137,29.8853,-10.45586,1008.199
33.542647838,-14.79255,12.23036,-16.71976,-0.92713,-0.158991,-0.02635913,12.42137,29.8853,-10.45586,1008.199
33.577409267,-6.983869,20.62486,-14.16025,-1.068651,-0.2256893,-0.02498304,11.69647,29.52877,-10.44021,1008.201
33.609687328,15.01678,19.15729,-2.886216,-1.255165,-0.25645,0.05211079,11.71542,31.36181,-9.654084,1008.203
33.644448280,42.9669,14.28496,6.376771,-1.240606,-0.09497976,-0.007432318,11.71542,31.36181,-9.654084,1008.203
33.676726818,26.17204,23.91221,-1.240817,-1.115788,0.06001429,-0.07208427,12.85104,31.7369,-7.93234,1008.205
33.711488247,-61.64464,53.2049,-23.667,-1.132702,0.01260386,-0.1965611,12.8766,29.92479,-7.100053,1008.205
33.743766785,-113.0828,65.826,-17.20728,-1.126096,-0.1893362,-0.387715,12.8766,29.92479,-7.100053,1008.205
33.776044369,-103.5388,76.27509,-11.11321,-1.091226,-0.2012268,-0.3559508,12.94812,29.22876,-4.538707,1008.203
33.810805798,-87.23976,84.19997,7.595585,-1.106756,-0.1790283,-0.3611089,13.73991,31.44087,-2.025319,1008.203
33.843084335,-83.33542,85.90235,23.56205,-1.158606,-0.1112215,-0.3001818,13.73991,31.44087,-2.025319,1008.203
33.877845287,-88.72713,78.09488,36.42054,-1.154399,-0.01896284,-0.211197,14.16799,32.95598,2.620123,1008.207
33.910123825,-121.5112,73.92698,37.94405,-1.102708,0.01959234,-0.1588778,14.68381,32.65912,8.159178,1008.204
33.944885254,-150.7628,60.83627,40.07698,-1.046534,-0.03170753,-0.2076344,14.80289,31.25579,12.41042,1008.206
33.977162838,-149.1514,43.16673,41.9052,-0.957904,-0.09928153,-0.2309313,14.80289,31.25579,12.41042,1008.207
34.009441376,-123.9901,20.62486,42.33179,-0.8621173,-0.09393592,-0.1624591,15.62327,30.92757,15.82757,1008.207
34.044202328,-99.75845,18.86378,47.63363,-0.7018358,-0.1423787,-0.02723367,16.04691,29.49289,17.9569,1008.209
34.076480865,-77.5099,15.63512,43.00213,-0.6580005,-0.08821513,-0.07488061,16.04691,29.49289,17.9569,1008.207
34.111242294,-38.65241,8.473385,21.00254,-0.5763635,-0.02332907,0.01088104,16.08485,28.41624,19.27793,1008.207
34.143519878,-19.6265,9.940954,-14.28213,-0.6146145,-0.004102438,0.004788095,16.4965,26.97593,20.97154,1008.21
34.178281307,14.14915,10.76279,-36.70831,-0.7405995,-0.1208305,-0.0618352,16.4965,26.97593,20.97154,1008.21
34.210559845,71.04097,0.665915,-48.16516,-0.8673734,-0.1205672,-0.1625992,16.13505,26.25088,20.98629,1008.208
34.242838383,134.0062,-7.728582,-56.4531,-0.9824954,-0.1239865,-0.2174825,15.78161,27.71857,21.40907,1008.208
34.277599335,178.9371,-24.40017,-48.2261,-1.149146,-0.02801544,-0.3166494,15.78161,27.71857,21.40907,1008.206
34.309877396,194.6165,-47.58777,-35.36761,-1.155736,0.0904308,-0.3449681,15.72009,29.51378,19.2696,1008.206
34.344638348,159.1675,-60.67849,-21.65595,-1.171754,0.1316698,-0.3002228,15.99804,30.92921,16.25778,1008.206
34.376916885,114.3606,-70.30574,-8.858405,-1.199406,0.172756,-0.2907442,15.99804,30.92921,16.25778,1008.205
34.409195423,55.85743,-71.53851,-1.728343,-1.157252,0.154659,-0.2401769,15.92784,30.89621,13.70567,1008.205
34.443956375,-0.4766346,-64.78768,0.9530484,-1.184739,0.1123802,-0.2693644,14.3952,30.50901,10.7445,1008.205
34.476234436,-21.60965,-60.09146,2.293744,-1.156079,0.04459052,-0.305586,14.3952,30.50901,10.7445,1008.209
34.510995388,-18.26308,-52.63621,5.157957,-1.060647,-0.0330955,-0.3197697,14.67514,30.83091,7.746531,1008.211
34.543273926,0.5769176,-42.53933,11.43485,-0.9662433,-0.07194387,-0.2965056,13.92653,31.52861,4.759569,1008.211
34.578035355,22.45362,-32.44245,15.27411,-0.8821802,-0.03389302,-0.2776163,13.92653,31.52861,4.759569,1008.211
34.610313892,23.75507,-16.82751,16.85857,-0.8492925,-0.01178144,-0.2064959,13.87766,32.96494,3.060446,1008.212
34.642591476,12.22797,-2.151819,16.67575,-0.8701056,0.0002900871,-0.1967137,13.48157,31.49396,1.777244,1008.212
34.677352905,-0.3526873,10.46928,10.1551,-0.945882,-0.004721084,-0.04042814,13.48157,31.49396,1.777244,1008.212
34.709631443,-51.35701,21.32929,-1.240817,-1.180244,-0.1073589,-0.1415453,13.49356,31.4996,2.212971,1008.212
34.744392395,-36.85517,4.657704,5.218898,-1.222909,-0.2198065,-0.01494836,13.50687,30.7762,2.657929,1008.211
34.776670933,-6.921896,-1.799602,7.839348,-1.12927,-0.1933596,-0.1440779,13.50687,30.7762,2.657929,1008.215
34.811431885,23.75507,-8.433015,5.706423,-1.020425,-0.05460684,-0.2755023,14.24176,32.23192,3.064162,1008.213
34.843709946,20.53244,-8.31561,1.440574,-0.9073759,0.04156655,-0.122916,14.24176,32.23192,3.064162,1008.211
34.875988483,-1.840055,-1.095168,0.09987852,-0.9531533,0.01472998,-0.006461166,14.24176,32.23192,3.064162,1008.211
34.910749435,-3.265449,-7.728582,-4.409734,-1.127812,0.04314051,-0.04314798,14.54672,30.77053,3.078029,1008.211
34.943027973,-5.930317,-7.669879,-5.750429,-0.981568,-0.05133622,-0.0570532,13.86898,31.13673,2.647799,1008.21
34.977789402,-5.99229,-2.797549,-8.614642,-1.019958,-0.1758197,-0.05864514,14.89685,31.12543,2.632171,1008.208
35.010067940,10.24481,-5.439174,-3.739386,-1.010004,-0.09354577,-0.06496694,14.89685,31.12543,2.632171,1008.21
35.044828892,16.93796,-4.676038,-5.141022,-1.018422,0.004321887,-0.02378347,14.53275,31.85845,2.628455,1008.21
35.077106953,7.455994,-3.736794,-7.152066,-1.02275,-0.01513779,-0.05047392,14.22978,32.22629,2.628435,1008.21
35.109385490,4.915074,-2.621441,-6.298896,-1.014366,-0.08724749,-0.05912045,14.22978,32.22629,2.628435,1008.208
35.144146442,9.191257,-2.269224,-5.567607,-1.006624,-0.08378217,-0.04268052,13.86766,31.86576,2.638566,1008.208
35.176424980,9.129283,-0.8016545,-5.019141,-0.9985037,-0.03872711,-0.03470682,14.50878,31.84718,1.757001,1008.206
35.211185932,5.348889,1.429051,-5.750429,-1.003278,-0.06389703,-0.03242245,14.50878,31.84718,1.757001,1008.206
35.243463993,2.31218,3.131432,-5.019141,-1.004667,-0.09589944,-0.05000522,13.85501,32.22464,2.198224,1008.206
35.278224945,2.869943,3.835865,-2.093987,-1.001777,-0.08518738,-0.03303019,14.50812,32.2117,1.752385,1008.21
35.310503483,0.4529704,4.36419,-2.581512,-1.026976,-0.07717663,-0.07547294,14.50812,32.2117,1.752385,1008.21
35.342782021,-2.459792,4.716407,-0.3267064,-0.9969395,-0.08369883,-0.026264,15.24632,31.84484,2.181697,1008.212
35.377543449,-2.76966,5.009921,1.379633,-1.0197,-0.08928195,-0.08377591,14.21911,31.49162,2.20194,1008.212
35.409821034,-1.40624,4.36419,1.867159,-1.006198,-0.05958764,-0.04351075,14.21911,31.49162,2.20194,1008.212
35.444582939,-3.513344,4.011973,2.171863,-1.015408,-0.06410522,-0.08364201,13.85501,32.22464,2.198224,1008.216
35.476861000,-4.319002,3.835865,0.831167,-1.012491,-0.06452025,-0.06576341,14.90751,31.86009,3.058666,1008.214
35.509139538,-0.2907136,2.955323,1.806218,-1.054181,-0.03673017,-0.1124091,14.90751,31.86009,3.058666,1008.214
35.543900490,-1.096371,3.777162,0.1608192,-1.008139,-0.0625508,-0.05947689,14.89487,32.21898,2.618323,1008.214
35.576179027,1.320602,3.777162,0.09987852,-1.002826,-0.06305228,-0.06915997,14.90751,31.86009,3.058666,1008.214
35.610939979,0.4529704,3.659757,0.7702263,-1.019739,-0.07526931,-0.08998085,14.90751,31.86009,3.058666,1008.211
35.643218040,0.7628386,3.014026,1.440574,-1.00716,-0.07520717,-0.08227258,14.53275,31.85845,2.628455,1008.211
35.677978992,0.6388913,3.95327,1.9281,-1.002336,-0.06595283,-0.06869408,15.28227,31.86174,3.488878,1008.209
35.710257530,1.258628,5.186029,1.806218,-0.9825258,-0.05863067,-0.06676138,15.28227,31.86174,3.488878,1008.209
35.742536068,-0.4766346,6.536193,2.293744,-1.001878,-0.05530993,-0.07008487,14.91884,32.23024,3.489777,1008.209
35.777297497,-5.496501,7.53414,4.792313,-1.000855,-0.09514328,-0.1157568,14.57898,31.88018,4.309115,1008.206
35.809575081,2.002312,4.305487,6.803356,-1.004758,-0.07428645,-0.098226,14.57898,31.88018,4.309115,1008.208
35.844336510,2.436127,1.19424,7.961229,-1.019825,-0.05608089,-0.1396658,15.31784,31.14881,4.743042,1008.206
35.876615047,1.320602,-3.325874,7.656526,-1.041596,-0.04592818,-0.1240911,14.59229,31.15678,4.754073,1008.205
35.911375999,4.17139,-5.380471,8.997221,-1.02123,-0.06127065,-0.09908337,15.3185,30.78429,4.747659,1008.205
35.943654537,4.419284,-7.728582,10.21604,-1.023634,-0.0797897,-0.1354414,15.3185,30.78429,4.747659,1008.205
35.975932598,8.509546,-12.18999,11.73955,-1.027091,-0.03807178,-0.1028063,14.58229,30.0576,4.332195,1008.205
36.010694027,9.625072,-16.4753,10.70356,-0.996217,-0.005545349,-0.09833699,15.3085,29.68511,4.32578,1008.203
36.042972088,4.17139,-17.35584,10.21604,-1.045951,-0.02347188,-0.06255727,15.3085,29.68511,4.32578,1008.201
36.077733040,2.807969,-17.12103,10.21604,-1.021319,-0.01179365,-0.06447771,14.92479,28.9496,3.53132,1008.2
36.110011578,-0.6625556,-17.17973,8.02217,-1.027183,0.02898228,-0.02217405,14.93506,28.95443,3.9048,1008.2
36.144773006,-0.9104502,-14.12718,3.756321,-0.998181,0.04368136,0.006853339,14.93506,28.95443,3.9048,1008.2
36.177051544,-3.079528,-10.78113,1.98904,-1.011171,0.0009141724,-0.03590444,15.29784,28.95044,3.899284,1008.202
36.209329128,-0.2287399,-13.12924,0.7092856,-0.9825145,-0.05174264,-0.03336497,14.56268,28.58907,3.541451,1008.2
36.244090557,1.940338,-11.42686,-0.3876471,-0.9995212,-0.005709711,-0.001159625,14.56268,28.58907,3.541451,1008.2
36.276369095,6.216521,-11.36815,-1.48458,-1.001504,0.01754118,0.007195308,14.55069,28.58344,3.105724,1008.2
36.311130047,-0.9104502,-6.671932,-1.789283,-1.00622,-0.03817685,-0.008581374,14.53804,28.94232,2.665382,1008.198
36.343408585,2.002312,-7.376366,-0.8142321,-1.022189,-0.0265443,0.01037329,14.53804,28.94232,2.665382,1008.198
36.378169537,3.179811,-5.55658,-0.0829436,-0.9932353,-0.001293794,0.01142134,14.22441,28.57549,2.238867,1008.197
