Time (s),Gyroscope X (deg/s),Gyroscope Y (deg/s),Gyroscope Z (deg/s),Accelerometer X (g),Accelerometer Y (g),Accelerometer Z (g),Magnetometer X (uT),Magnetometer Y (uT),Magnetometer Z (uT),Barometer (hPa)
0.000000000,-17.7251,4.242597,-3.172182,0.5355507,-0.6547004,0.6566665,-35.31498,29.2885,-10.93864,1008.184
0.034646988,27.79483,0.7506809,-10.95563,0.5671706,-0.7245079,0.562288,-34.9554,27.74154,-12.27198,1008.184
0.066820145,72.39331,1.816011,-11.62979,0.5662626,-0.5581682,0.6060838,-34.96143,27.35472,-12.7164,1008.184
0.101467609,26.56622,1.105791,-15.67474,0.6571787,-0.3085903,0.6771829,-34.96143,27.35472,-12.7164,1008.182
0.133640766,-61.03355,16.31634,-15.79731,0.5402792,-0.3121615,0.7052362,-35.73491,26.96727,-14.04951,1008.18
0.168287754,-87.69434,2.644601,-23.64205,0.5060907,-0.6547191,0.6352512,-35.73542,26.205,-14.04579,1008.179
0.200457096,-53.84619,10.81213,-22.66146,0.598376,-0.6362684,0.6326142,-35.73542,26.205,-14.04579,1008.179
0.235104084,-23.31527,15.42857,-25.41937,0.5467876,-0.7020221,0.5067517,-36.1018,26.22174,-13.15129,1008.179
0.267277241,8.628544,20.045,-18.86166,0.5366904,-0.5902045,0.5868156,-36.45085,26.25553,-10.91796,1008.179
0.301924706,-0.8931707,6.846737,-22.47759,0.6122603,-0.5264031,0.6637564,-37.22432,25.86808,-12.25107,1008.179
0.334097862,4.205554,7.438587,-15.91988,0.5840001,-0.46388,0.6968294,-37.22432,25.86808,-12.25107,1008.179
0.368744850,-13.17925,1.164976,-14.26513,0.5712661,-0.4884835,0.6451715,-37.6083,25.48663,-12.69356,1008.179
0.400914192,7.338505,10.57539,-17.94235,0.5259752,-0.5702687,0.5215281,-37.98675,24.72973,-12.6879,1008.179
0.435561657,23.4947,6.373257,-7.339699,0.6126291,-0.3079781,0.6019297,-37.98675,24.72973,-12.6879,1008.179
0.467734814,-39.22575,-1.794275,9.820667,0.5774995,-0.1227406,0.7454925,-37.61485,24.33755,-13.13425,1008.179
0.502381802,-86.03572,5.544667,22.38451,0.5228449,-0.477184,0.5685966,-38.37098,23.96715,-13.12853,1008.18
0.534554958,-72.70532,1.224161,31.82271,0.559265,-0.4210261,0.6361997,-38.37098,23.96715,-13.12853,1008.179
0.566727638,-135.2415,-3.15553,33.66132,0.5766004,-0.4750008,0.6346289,-37.9639,24.37134,-10.90092,1008.179
0.601371765,-192.9246,-9.429141,25.93916,0.4684991,-0.7249985,0.4349928,-37.17289,26.29957,-8.30016,1008.179
0.633543968,-151.2748,-6.765816,20.36204,0.5313521,-1.011003,0.2710607,-37.17289,26.29957,-8.30016,1008.179
0.668191910,-104.2806,0.3955708,9.514232,0.570202,-1.042727,0.1475268,-35.97923,29.38938,-3.858042,1008.177
0.700364590,-38.67287,8.326363,4.243548,0.5462912,-0.9410576,0.09846009,-35.56668,30.56071,-1.251628,1008.179
0.735012531,-5.500452,17.38167,3.446817,0.5347199,-0.8032039,0.2809364,-35.56668,30.56071,-1.251628,1008.179
0.767184734,5.004149,19.21641,-5.562376,0.4670019,-0.9791546,0.2054078,-35.18296,30.56103,-0.8072815,1008.179
0.801828861,138.4924,17.91434,-14.44899,0.4677953,-1.238406,0.1348191,-35.93909,30.19063,-0.8015537,1008.177
0.834001541,278.3695,20.93277,-9.300884,0.5028989,-0.795885,0.2653876,-35.93909,30.19063,-0.8015537,1008.177
0.868649483,243.1699,11.3448,-8.381579,0.5468495,-0.417702,0.4927071,-35.61786,30.51036,-5.204399,1008.177
0.900821686,231.2524,22.82669,4.978992,0.5428971,-0.459797,0.5073389,-36.46086,28.53096,-11.82168,1008.177
0.935469627,274.0694,29.5146,11.29156,0.5412377,-0.2641968,0.5055929,-36.46086,28.53096,-11.82168,1008.177
0.967642307,155.2629,43.30471,12.63987,0.4074893,0.08806003,0.9700545,-36.16949,26.15515,-18.37915,1008.177
1.002285957,34.24503,20.99195,19.19758,0.5244336,-0.2129018,0.9785321,-35.86346,22.27023,-23.71785,1008.177
1.034458637,-8.756263,32.94733,20.36204,0.4766031,-0.2183989,0.8642172,-35.86346,22.27023,-23.71785,1008.177
1.066631317,-54.39906,24.66143,17.72669,0.3755409,-0.313166,0.8465449,-35.14271,20.32052,-26.32634,1008.177
1.101279259,2.792654,25.07572,15.09135,0.3527635,-0.6106744,0.8351468,-34.00863,20.68555,-26.334,1008.177
1.133451462,13.05153,9.450878,-7.584847,0.2938383,-0.4010715,1.0389,-34.00863,20.68555,-26.334,1008.183
1.168099403,3.65268,-5.878041,-11.07821,0.2765697,-0.3920453,1.128306,-33.26353,21.80684,-27.23601,1008.183
1.200268269,1.564046,-28.90101,-20.5777,0.351545,-0.3007377,1.121129,-32.89715,21.79011,-28.13051,1008.183
1.234915733,-11.82778,-54.11383,-19.04552,0.4013682,-0.1848102,0.954366,-32.89715,21.79011,-28.13051,1008.181
1.267088413,-31.97696,-61.98543,-25.48066,0.4439773,-0.3244834,0.8077351,-33.25801,21.43139,-26.78787,1008.181
1.301736355,-7.773377,-42.3952,-22.35502,0.5491322,-0.5344345,0.5886053,-34.74718,20.71334,-24.99129,1008.181
1.333909035,38.17657,-41.68497,9.023935,0.6144403,-0.0838519,0.6509964,-34.74718,20.71334,-24.99129,1008.179
1.368556976,-72.09102,-20.14163,39.79002,0.6670862,0.1851073,0.6300686,-35.85319,20.37593,-22.81598,1008.177
1.400725365,-140.8316,-4.161675,60.62761,0.5347869,-0.1574311,0.4993033,-36.96415,20.03364,-21.0232,1008.177
1.435373306,-56.54913,2.052751,74.3559,0.5372583,-0.5876416,0.4788636,-36.55552,22.72463,-18.80675,1008.181
1.467545509,100.037,14.18568,88.32934,0.5227163,-0.6430529,0.4592625,-36.55552,22.72463,-18.80675,1008.181
1.502193451,202.933,55.02334,103.8962,0.4785,-0.3105214,0.4373524,-34.65747,26.51481,-18.38875,1008.179
1.534366131,185.5481,92.84256,114.2537,0.3093668,-0.0389233,0.6787955,-32.46335,27.5529,-24.14383,1008.177
1.569014073,134.6223,109.7695,114.9279,0.1181993,-0.1457315,0.8040546,-32.46335,27.5529,-24.14383,1008.179
1.601182461,125.4078,125.1576,102.9156,0.1124966,-0.2413471,0.9267114,-28.77166,25.88941,-30.84993,1008.179
1.633355618,40.63379,132.2598,82.32321,0.0481082,-0.04396817,1.241275,-23.55004,24.22231,-36.16118,1008.179
1.668003082,-124.3069,87.75265,71.90441,-0.08699922,-0.2729685,1.418506,-23.55004,24.22231,-36.16118,1008.179
1.700175762,-63.3679,28.92275,76.6848,-0.08681338,-1.026385,1.340475,-18.29902,23.34591,-39.24474,1008.177
1.734823227,101.8185,-3.03716,41.44477,-0.2024131,-0.9269627,1.066669,-14.05384,27.11922,-37.56358,1008.177
1.766995907,234.8153,-7.771961,11.78185,-0.06803907,-0.2341811,0.984367,-14.05384,27.11922,-37.56358,1008.177
1.801640034,95.30685,-29.67042,-12.36524,-0.1801545,0.1990959,1.080083,-12.20376,27.05339,-40.63345,1008.179
1.833812237,43.21387,-28.90101,-15.3683,0.04375302,-0.1274209,1.053612,-12.2541,20.90978,-44.17393,1008.179
1.868460178,45.48679,-18.78037,-16.04246,0.0730826,0.0509534,0.915029,-12.2541,20.90978,-44.17393,1008.179
1.900632858,12.13008,-10.55366,-6.420394,0.1652176,0.1094035,0.8751271,-14.13982,18.27437,-43.70495,1008.177
1.935280800,7.154213,1.164976,2.466224,0.1531507,-0.0711951,0.8621829,-14.53035,16.74384,-44.58813,1008.179
1.967453003,23.37184,5.722222,5.837011,0.04859099,0.04317918,1.024125,-14.53035,16.74384,-44.58813,1008.179
2.002097130,2.055489,1.697641,2.466224,0.01906229,0.02613586,1.060892,-14.90251,16.75489,-44.13992,1008.179
2.034269810,-9.063416,-0.9064995,2.588798,0.04243751,-0.008320633,1.013636,-14.15813,15.5902,-44.96701,1008.181
2.068917751,-5.31616,-0.2554644,3.017807,0.06324574,-0.05787115,0.9585676,-14.15813,15.5902,-44.96701,1008.181
2.101089954,2.669793,2.585416,3.262956,0.07013094,-0.0380303,0.9552929,-14.90823,15.60662,-44.51686,1008.183
2.133263111,-1.691766,9.095768,0.5663267,0.05696039,-0.04086146,0.9573204,-14.90798,15.98775,-44.51872,1008.184
2.167910576,6.048466,10.27947,-2.191589,0.03804578,-0.03727539,0.9695765,-14.90798,15.98775,-44.51872,1008.184
2.200079918,2.915515,9.391693,-2.314163,0.05345898,0.03057128,1.028796,-13.77416,15.97165,-44.52453,1008.184
2.234726906,-9.554858,3.887486,-0.2916917,0.04123438,0.01755301,1.032177,-13.78019,15.58483,-44.96895,1008.186
2.266900063,-18.33941,3.295636,2.466224,0.03933216,-0.03071157,1.003358,-13.78019,15.58483,-44.96895,1008.186
2.301547527,-9.677719,3.709931,1.301771,0.01498057,-0.0904718,0.9799572,-14.15318,15.59507,-44.58449,1008.186
2.333720684,5.18844,1.934381,-0.1691176,0.01375899,-0.06122996,0.9946695,-13.39596,16.34741,-44.52832,1008.188
2.368367672,0.2125767,0.9282359,2.404937,0.02547643,0.001543551,1.023034,-13.39596,16.34741,-44.52832,1008.188
2.400537014,-9.984871,-3.74738,4.304835,-0.00722012,-0.006999148,1.027124,-13.39544,17.10968,-44.53204,1008.188
2.435184002,-30.68692,-8.363811,10.37225,-0.01234467,0.03234321,1.153298,-13.77942,16.72823,-44.97453,1008.188
2.467357159,-115.2766,-21.0294,5.346714,0.03001822,-0.1817268,1.303932,-13.77942,16.72823,-44.97453,1008.186
2.502004624,-60.23495,-63.16913,-33.93827,-0.1502181,-0.0462174,1.451331,-13.7624,17.50674,-43.70316,1008.182
2.534177780,-199.3748,-102.1721,-44.84735,-0.1316293,0.2288449,1.381607,-13.73196,19.82196,-41.48293,1008.182
2.568825245,-265.1668,-154.2549,-93.8157,-0.1066753,-0.7931098,1.303059,-16.7479,22.98228,-36.1904,1008.182
2.600994110,-106.4921,-188.2862,-145.1742,0.01369886,-1.372425,1.15738,-16.7479,22.98228,-36.1904,1008.182
2.635641575,18.33455,-217.9379,-175.5113,-0.01377014,-0.8410501,0.9995835,-21.54778,29.63854,-27.78132,1008.184
2.667814732,30.19062,-248.0631,-204.7452,0.06408788,-0.709029,0.7348458,-28.64883,29.43818,-21.55854,1008.182
2.699987412,77.06203,-255.1061,-221.8443,0.1802059,-0.5701734,0.3738894,-28.64883,29.43818,-21.55854,1008.182
2.734634876,124.4863,-248.9509,-214.8575,0.427798,-0.197366,0.09798481,-36.88234,23.92294,-14.92138,1008.182
2.766807556,131.4279,-247.4713,-200.0261,0.5576388,0.05872091,0.09406447,-42.45391,15.72005,-6.882143,1008.18
2.801451683,87.87378,-230.0709,-205.2968,0.5256209,0.1427483,0.01793604,-42.45391,15.72005,-6.882143,1008.179
2.833623886,64.8988,-205.3907,-214.4898,0.5032659,0.100502,-0.1248755,-45.00248,6.711936,1.145348,1008.177
2.868271351,129.9536,-197.8742,-221.6604,0.5933095,0.3597403,-0.627268,-45.28217,-0.4862386,9.152245,1008.175
2.900444508,78.47492,-154.0773,-211.6093,0.845145,0.9492518,-0.6189739,-45.28217,-0.4862386,9.152245,1008.175
2.935091495,-19.75231,-79.0899,-185.5011,0.7350407,0.928838,-0.8195906,-42.92279,-8.807556,16.70459,1008.175
2.967265129,-14.96073,-9.429141,-171.4663,0.6044477,0.7967904,-0.9071845,-37.96277,-15.30626,20.66386,1008.173
3.001908302,-53.4776,74.61357,-154.5511,0.534707,1.008383,-0.8300795,-37.96277,-15.30626,20.66386,1008.172
3.034081459,-95.37315,166.8238,-147.3805,0.2311397,0.658454,-0.8966476,-34.57173,-22.22067,20.23367,1008.172
3.068728447,-22.02523,244.7705,-121.8852,0.1576011,0.8465424,-0.9117628,-32.7431,-28.40169,15.85472,1008.172
3.100901604,60.6601,318.4558,-85.17422,0.0836125,1.235125,-0.6707252,-32.7431,-28.40169,15.85472,1008.172
3.135549068,27.54911,-144.5485,161.0158,-2.293776,-0.03854749,1.127248,-31.70378,-32.76392,8.792955,1008.168
3.167722225,240.8969,-171.3593,-14.57157,1.173193,0.7866652,-1.224429,-32.5473,-35.50558,2.179394,1008.168
3.199890614,-88.0015,108.9409,66.69501,0.8812316,1.79998,-0.04594776,-32.5473,-35.50558,2.179394,1008.168
3.234538555,-125.9041,6.609997,65.65314,-0.3380252,1.043892,0.002575862,-32.8394,-35.41575,8.811783,1008.169
3.266711235,-73.50392,-25.58665,82.56836,0.3832653,0.6893821,0.002562871,-32.50139,-34.69865,5.682163,1008.169
3.301359177,-11.82778,16.55308,128.6562,0.5207139,1.058812,0.03613791,-32.50139,-34.69865,5.682163,1008.171
3.333531380,-49.23891,15.25101,157.8901,0.2735388,1.022093,0.0246456,-34.79525,-31.96259,3.512783,1008.167
3.368179321,-55.87339,28.39008,168.7379,0.4274963,0.7880206,0.1080392,-37.82826,-28.88195,2.620808,1008.167
3.400348187,-49.36177,50.0518,185.6531,0.4053668,0.654064,0.09460938,-37.82826,-28.88195,2.620808,1008.167
3.434995651,-57.83916,66.80116,208.9422,0.437301,0.5946974,0.03260804,-41.24897,-23.13937,0.8251781,1008.167
3.467168331,-135.0572,85.44443,222.5479,0.4520971,0.4691136,-0.004233305,-44.30278,-16.65126,-1.868667,1008.167
3.501816273,-195.3204,104.3836,242.2823,0.5602151,0.3152364,-0.1882245,-45.85454,-8.67065,-5.406498,1008.169
3.533988953,-174.1884,118.1146,234.0699,1.458229,0.3135865,0.1137901,-45.85454,-8.67065,-5.406498,1008.167
3.568636894,-161.5337,326.505,273.171,1.258271,-0.156345,0.4139954,-45.51562,1.95024,-9.030778,1008.163
3.600805283,-240.2261,222.1026,250.4335,-0.9091243,-0.2864554,0.3979609,-43.32633,12.94996,-15.72711,1008.163
3.635452271,-155.2064,122.0208,253.1914,-0.1694583,-0.8460938,0.2447375,-43.32633,12.94996,-15.72711,1008.163
3.667625427,-97.0932,139.0661,244.0597,-0.01052384,-0.6274443,0.06237925,-35.40912,24.24443,-17.92743,1008.163
3.702272892,-59.1292,139.5396,251.4141,-0.2740145,-0.7675378,0.4825405,-27.84467,32.522,-18.00705,1008.163
3.734446049,103.6614,98.5835,254.4172,-0.6487936,-1.791104,1.385686,-27.84467,32.522,-18.00705,1008.163
3.766618729,1.686907,-24.52132,149.1874,-0.7860903,-2.794955,3.362602,-18.42617,39.2776,-20.76688,1008.165
3.801262379,205.4516,1.224161,-53.79526,-0.02094894,-1.232018,1.089453,-9.73356,38.71037,-25.65516,1008.165
3.833435059,334.2712,-8.600551,-23.8872,-0.01163408,-0.01052962,0.503203,-9.73356,38.71037,-25.65516,1008.167
3.868083000,-21.10378,-58.19759,-40.74113,-0.01434181,0.6882182,0.5398368,-8.657521,38.63742,-30.12376,1008.168
3.900255680,-169.2739,-0.1962794,-40.25083,0.3168541,-0.2488983,0.3935789,-10.96945,31.70672,-33.13857,1008.164
3.934903145,-25.15818,67.8073,-14.26513,0.3271097,-1.002751,0.6432101,-10.96945,31.70672,-33.13857,1008.166
3.967075825,243.7227,53.01105,1.975928,-0.004283207,-0.8885871,0.7576214,-12.44005,34.05398,-30.08179,1008.168
4.001719952,338.5099,37.97805,4.488697,-0.03228895,0.1180173,1.235649,-12.11906,33.99258,-34.48277,1008.168
4.033892155,24.53902,-0.07790934,-3.233469,-0.2247248,0.3164888,1.29451,-12.11906,33.99258,-34.48277,1008.168
4.068540096,-52.12614,-18.60282,-19.10681,0.1224205,-0.06336778,0.9762861,-10.32613,26.25291,-41.53196,1008.17
4.100712776,-15.39075,-6.706631,-5.623662,-0.03130705,-0.1964119,0.8074418,-11.08459,22.45232,-41.50949,1008.17
4.135360718,10.28716,-2.741235,-6.665542,0.02500981,-0.1535481,0.9263236,-11.08459,22.45232,-41.50949,1008.17
4.167532921,-17.47938,1.993566,-5.317227,0.07060671,-0.1667106,1.074245,-11.45572,23.98791,-41.06872,1008.17
4.202177048,-10.78347,-3.74738,-6.91069,0.01192287,-0.2829984,0.9996064,-11.82788,23.99896,-40.6205,1008.173
4.234349728,7.461366,-4.398416,-8.933162,0.07016074,-0.248281,0.9444013,-11.82788,23.99896,-40.6205,1008.175
4.266521931,18.15026,-3.39227,-7.278412,0.0356491,-0.1575952,0.9748728,-11.83892,24.74986,-41.51678,1008.177
4.301169872,-0.7703098,-2.91879,-6.175246,0.04521146,-0.1322315,0.9971647,-12.21712,24.37409,-41.51299,1008.173
4.333342552,-21.04235,-5.404561,-4.397922,-0.01159122,-0.1538886,0.9845022,-12.21712,24.37409,-41.51299,1008.173
4.367990494,-20.98092,-2.386125,-5.010792,0.06665924,-0.2067922,0.9722499,-12.58954,24.00401,-41.06291,1008.174
4.400158882,-16.37363,-0.01872433,-3.968913,0.02586522,-0.2208787,0.9445585,-12.58376,24.0097,-40.61663,1008.176
4.434806824,-24.11387,-5.404561,-3.233469,0.003154124,-0.2070206,0.9646466,-12.58376,24.0097,-40.61663,1008.178
4.466979504,-20.91949,0.04046069,-3.662478,0.09505948,-0.2658031,0.9541464,-12.57747,24.77765,-40.17407,1008.18
4.501627445,-9.001985,-0.9656845,-0.1691176,0.01462374,-0.3276704,0.936071,-12.57143,25.16446,-39.72965,1008.18
4.533799648,8.812835,-2.977975,1.11791,0.06604703,-0.3117999,0.950182,-12.57143,25.16446,-39.72965,1008.18
4.568447590,20.11603,-2.80042,0.4437526,0.01157677,-0.2678389,0.9510526,-13.31524,25.94884,-38.83694,1008.18
4.600616455,15.93876,-5.16782,-0.1691176,0.0577416,-0.1672549,0.995313,-12.94886,25.9321,-39.73144,1008.18
4.635263920,3.775541,-2.56368,0.1986045,0.03292871,-0.1602933,1.000904,-13.33257,25.93179,-40.17579,1008.18
4.667436600,-12.2578,-5.582116,0.4437526,0.023085,-0.173861,0.99751,-13.33257,25.93179,-40.17579,1008.18
4.702084541,-22.33239,-0.4330194,-1.456145,0.06800313,-0.2044909,0.9568324,-13.32757,24.79407,-39.72392,1008.181
4.734257221,-22.33239,3.295636,-0.5368397,0.05357,-0.2423948,0.9417126,-13.69369,25.19194,-38.83129,1008.181
4.768905163,-23.68386,4.242597,0.5050397,0.06827191,-0.2486974,0.9521275,-13.69369,25.19194,-38.83129,1008.181
4.801073551,-21.9638,9.214138,2.34365,0.1091753,-0.299756,0.9662669,-13.69318,25.95421,-38.83501,1008.18
4.833246231,-13.6707,13.83057,4.978992,0.09161251,-0.2899927,0.9621732,-13.68137,26.34671,-37.94431,1008.18
4.867893696,-18.21655,15.01427,5.898298,0.08872712,-0.2836531,0.9641804,-13.68137,26.34671,-37.94431,1008.177
4.900066376,-15.82076,20.22255,9.207797,0.01032275,-0.3116081,0.9391356,-12.55255,27.46832,-38.40198,1008.177
4.934714317,-14.285,17.55923,12.33344,0.007631874,-0.2954202,0.9595381,-12.1694,27.84896,-38.02325,1008.177
4.966886997,-22.94669,22.35321,19.01372,-0.006298579,-0.3033319,0.9316469,-12.1694,27.84896,-38.02325,1008.177
5.001530647,-24.97389,25.49002,29.9841,-0.0102374,-0.3705603,0.9600494,-11.40697,28.98731,-37.58641,1008.177
5.033703327,-30.4412,30.63911,45.24457,-0.06692965,-0.406624,0.9675111,-9.894701,29.7281,-37.59787,1008.179
5.068351269,-33.14414,30.52074,58.17613,-0.1376911,-0.3989837,0.9055744,-9.894701,29.7281,-37.59787,1008.179
5.100523949,-62.32359,29.75134,78.27827,-0.11232,-0.3580479,0.9432711,-8.376907,30.09344,-37.16119,1008.179
5.135171413,-122.5254,23.95121,85.81657,-0.002659774,-0.440405,0.9083109,-5.712966,31.59745,-35.84333,1008.179
5.167344093,-90.64301,34.30858,80.9136,-0.05799924,-0.6326953,0.8619341,-5.712966,31.59745,-35.84333,1008.179
5.201988220,-3.84183,43.12715,73.62045,-0.2297302,-0.570427,0.8953799,-2.646945,34.64337,-32.74972,1008.181
5.234160423,9.488569,52.4192,64.67255,-0.2637914,-0.3492515,0.916319,0.7799826,38.11152,-30.99906,1008.179
5.268808365,-26.63251,65.08479,49.47337,-0.2876706,-0.3422959,0.8587592,0.7799826,38.11152,-30.99906,1008.179
5.300981045,-18.58513,71.89106,37.21597,-0.2755679,-0.471483,0.7934753,4.19217,38.07375,-30.18766,1008.179
5.333153725,40.4495,82.60355,37.09339,-0.3086328,-0.5393187,0.7242987,7.227242,38.04218,-29.31057,1008.179
5.367801190,88.1195,83.31377,33.66132,-0.3467939,-0.3478746,0.8525169,7.227242,38.04218,-29.31057,1008.181
5.399970055,39.95805,77.2769,30.29053,-0.3995926,-0.3070796,0.8215339,10.25076,37.99923,-29.32604,1008.179
5.434617996,16.6145,70.88492,33.10974,-0.5086498,-0.3772787,0.7115949,13.62864,36.02332,-31.05551,1008.179
5.466790199,11.70006,61.06021,33.23231,-0.5658022,-0.3596386,0.6963677,13.62864,36.02332,-31.05551,1008.179
5.501438141,11.39291,48.27625,35.56122,-0.6640227,-0.3297752,0.6662005,16.2781,34.40256,-30.67876,1008.179
5.533610821,7.522796,32.41466,39.72874,-0.7227954,-0.2808753,0.675346,17.80116,34.01132,-29.79208,1008.179
5.568258762,-8.019098,14.4816,41.38348,-0.7134551,-0.2416901,0.6644959,17.80116,34.01132,-29.79208,1008.179
5.600427151,-19.32229,-0.7289445,42.60923,-0.7119794,-0.2358838,0.6630839,20.13653,32.45937,-29.35028,1008.179
5.635075092,-17.9094,-12.03328,39.85131,-0.7586764,-0.2432514,0.6846669,22.03779,32.44389,-28.46739,1008.181
5.667247772,-42.60442,-12.38839,25.75529,-0.8144295,-0.2353487,0.6664543,22.03779,32.44389,-28.46739,1008.183
5.701895714,-58.14632,0.8098659,21.09748,-0.8988506,-0.3083181,0.5278246,22.78763,32.04634,-28.91568,1008.183
5.734067917,-34.37275,15.66531,22.75223,-1.014466,-0.2274726,0.551742,23.56662,32.05834,-27.13442,1008.183
5.768715858,-20.36661,26.67372,33.35489,-1.021299,-0.07660384,0.5366615,24.71829,32.82155,-25.8051,1008.183
5.800884724,-22.20952,31.882,49.65723,-0.9405701,-0.05259704,0.4917622,24.71829,32.82155,-25.8051,1008.183
5.835532188,0.3354376,40.5822,68.96264,-0.9090749,-0.1167524,0.4379194,25.87388,32.06511,-24.08581,1008.183
5.867704868,2.485502,49.99261,81.83292,-0.8774135,-0.07009408,0.4664466,28.5305,31.27663,-23.20307,1008.183
5.899877548,-15.39075,52.83349,87.34875,-0.8258622,-0.1275723,0.4732037,28.5305,31.27663,-23.20307,1008.181
5.934525490,-51.51183,47.74358,90.71953,-0.8633099,-0.1422601,0.4956041,32.32569,28.9532,-21.8724,1008.179
5.966697693,-57.34772,30.93504,97.9514,-0.7238348,-0.275943,0.4329506,35.38785,26.28211,-18.75088,1008.179
6.001341820,-47.2117,25.31246,102.7318,-0.6131482,-0.1296057,0.4095062,35.38785,26.28211,-18.75088,1008.177
6.033514500,-88.49294,24.72061,91.45497,-0.6307788,-0.2326131,0.5100414,38.05283,23.21658,-17.09192,1008.176
6.068161964,-114.478,13.53464,74.96877,-0.6728649,-0.4230012,0.5300725,40.34756,20.54486,-14.85909,1008.176
6.100334644,-96.04888,7.497772,54.43762,-0.5891993,-0.5010717,0.5937181,40.34756,20.54486,-14.85909,1008.176
6.134982586,-68.03661,4.065042,42.2415,-0.3209773,-0.3410891,0.5530103,42.6541,18.26564,-11.73557,1008.177
6.167155266,-26.32536,-9.547511,71.41412,0.2914382,-0.009108135,0.5052068,43.42572,17.12775,-10.45877,1008.177
6.201798916,-210.678,-6.233151,44.69299,-0.1070036,-1.006289,0.7860475,43.42572,17.12775,-10.45877,1008.177
6.233971596,117.5447,31.82281,66.32729,-1.627179,-0.3698312,0.7047414,44.92571,15.57118,-11.28787,1008.177
6.268619537,24.96903,-38.72572,45.67358,-1.854181,0.8360838,1.157349,45.67427,13.26796,-11.72685,1008.177
6.300792217,-53.29331,-36.89099,24.52955,-0.9714149,-0.2899688,0.5946869,45.67427,13.26796,-11.72685,1008.179
6.335439682,20.23889,-15.64357,47.14447,-0.777929,-0.01362509,0.4891198,47.17268,10.56718,-12.61412,1008.179
6.367825985,-13.73213,-25.17236,49.28951,-0.791405,-0.01145207,0.5104715,47.16561,8.655827,-13.0511,1008.179
6.399994373,5.864175,-21.38451,55.41821,-0.8027212,0.01749644,0.5435917,47.16561,8.655827,-13.0511,1008.181
6.434642315,1.564046,-17.53749,48.30892,-0.8610345,0.2413079,0.6390069,47.14121,6.72742,-14.82692,1008.181
6.466814518,18.08883,-14.10476,41.3222,-0.7907993,0.1346156,0.5699919,47.50656,5.186148,-15.71397,1008.183
6.533635140,5.987036,-7.653591,32.19043,-0.8976601,0.264231,0.5667556,47.11553,2.893345,-16.59343,1008.183
6.568283081,6.048466,-9.429141,18.646,-0.9249203,0.2895364,0.6207206,47.48666,1.357758,-17.0342,1008.179
6.600451470,2.669793,-32.80722,-4.152774,-0.9146922,0.4012466,0.4480263,47.48666,1.357758,-17.0342,1008.18
6.635099411,-28.96687,-38.78491,-34.42856,-0.6568643,0.2153953,0.5573582,47.10295,0.1513311,-17.4089,1008.182
6.667272091,-19.50659,-37.77876,-50.36319,-0.8935276,0.2373396,0.6069833,47.09749,-0.6158087,-17.78771,1008.182
6.701919079,-44.20161,-60.32825,-81.43571,-0.7827013,0.3591794,0.5539337,47.09749,-0.6158087,-17.78771,1008.182
6.734092236,-60.97211,-50.56273,-104.2958,-0.6787663,0.03842125,0.8824172,46.3143,1.716827,-20.02672,1008.182
6.768739700,15.75447,-64.1161,-125.5011,-0.4325027,0.2608219,0.1724496,44.40355,4.769998,-21.81706,1008.184
6.800909042,-147.7733,-12.62513,-113.3663,-0.5637519,-0.01462683,1.064066,43.63342,9.337282,-23.17436,1008.184
6.835556030,-26.63251,-46.7157,-137.023,-0.8892736,-0.6356848,0.3158487,43.63342,9.337282,-23.17436,1008.186
6.867729187,-29.33545,-27.89487,-127.3397,-0.02529347,0.08833765,0.978915,40.62558,15.48974,-22.2961,1008.186
6.902376652,-88.30865,-16.88645,-93.93827,-0.8438452,-0.464352,0.4705951,38.33792,20.07281,-24.09195,1008.186
6.934549808,-7.343364,-3.333085,-64.09149,-0.3230424,-0.2974764,0.9833326,38.33792,20.07281,-24.09195,1008.186
6.966722012,-20.79663,-6.706631,-67.03326,-0.831713,-0.6342067,0.5447555,35.31723,24.30823,-24.09694,1008.186
7.001366138,-31.60838,27.56149,-54.71457,-0.5317584,-0.3456306,1.024407,33.44088,27.01437,-23.20774,1008.184
7.033538818,-30.99407,7.379402,-58.26921,-0.6842679,-0.4928172,0.6587792,33.44088,27.01437,-23.20774,1008.186
7.068186283,-42.17441,32.41466,-37.67678,-0.5411806,-0.3774874,0.7894987,33.07001,28.93109,-22.76883,1008.186
7.100358963,-39.71719,15.19182,-40.25083,-0.6706305,-0.5156367,0.6666579,31.95507,31.25105,-21.43535,1008.184
7.135006905,-39.34861,26.55535,-2.130302,-0.2894399,-0.3580031,0.7718863,31.95507,31.25105,-21.43535,1008.188
7.167179585,-38.42715,19.98581,9.820667,-0.59519,-0.8115043,0.5536189,30.47272,32.06322,-19.19993,1008.188
7.201823235,9.181417,18.62456,27.04232,-0.5229309,-0.4004999,0.6493589,30.48504,33.21799,-18.31295,1008.184
7.233995915,12.31437,4.183412,31.82271,-0.5775137,-0.6268069,0.5352145,30.48504,33.21799,-18.31295,1008.184
7.268642902,15.93876,19.86744,49.41209,-0.6279261,-0.4542454,0.7246054,31.25165,33.21781,-17.48801,1008.188
7.300816536,25.76763,3.473191,38.19656,-0.6726188,-0.3242041,0.6277666,32.76264,32.05294,-17.49017,1008.188
7.335463524,-23.3767,5.071187,18.46214,-0.7920033,-0.3500109,0.6031218,32.76264,32.05294,-17.49017,1008.188
7.367636681,4.328414,-4.635156,3.937113,-0.6670883,-0.4067359,0.6289626,33.50727,31.26937,-18.31912,1008.188
7.402279854,6.417048,-18.18852,3.262956,-0.6745316,-0.5146104,0.6083807,34.2679,29.73979,-17.86927,1008.184
7.434453011,12.56009,-33.39907,11.65928,-0.6639769,-0.4858142,0.5728517,34.2679,29.73979,-17.86927,1008.184
7.466625691,29.82203,-49.14228,23.79411,-0.5956577,-0.4049513,0.5916788,34.64006,29.72874,-18.31748,1008.184
7.501273632,15.63161,-53.58116,42.05764,-0.5804846,-0.4398023,0.6139039,34.6167,29.32486,-20.10074,1008.184
7.533446312,12.92867,-54.40975,49.59595,-0.518661,-0.4108251,0.6979159,34.6167,29.32486,-20.10074,1008.184
7.568094254,20.36175,-52.51583,49.96367,-0.5160353,-0.3531236,0.6921011,34.21513,28.54522,-21.88021,1008.184
7.600262642,19.37887,-44.76259,49.71852,-0.5747593,-0.2394559,0.791914,34.18026,26.98739,-24.48669,1008.184
7.634910584,-18.21655,-38.54817,44.93813,-0.5117221,-0.1706148,0.8849192,34.18026,26.98739,-24.48669,1008.184
7.667082787,-62.63074,-36.59506,27.71648,-0.5584169,-0.1721402,0.8458184,34.91751,25.05393,-25.8201,1008.184
7.701730728,-66.86944,-33.16233,8.288491,-0.3309642,-0.2799459,0.6707335,34.53906,24.29704,-25.81445,1008.184
7.733903408,-30.19548,16.67145,11.47542,-0.4612545,-0.2968155,0.8540059,34.53906,24.29704,-25.81445,1008.184
7.768550396,-29.88833,12.1142,0.01474344,-0.4899516,-0.3444224,0.8302632,34.53958,25.0593,-25.81817,1008.184
7.800719738,-26.38679,44.31085,10.98512,-0.4883336,-0.2664724,0.8689687,34.93511,25.45212,-24.48312,1008.184
7.835367203,-38.36572,50.99876,14.96878,-0.6097513,-0.4096637,0.6009294,34.95135,25.08723,-23.20617,1008.184
7.867540359,2.23978,67.92567,24.52955,-0.6900469,-0.4061966,0.6841292,34.95135,25.08723,-23.20617,1008.184
7.902187347,-6.606199,55.20089,27.65519,-0.6158026,-0.40892,0.6935359,36.11433,25.48068,-20.98243,1008.184
7.934360504,7.645657,61.65206,41.81249,-0.5790662,-0.3963671,0.6455787,37.27678,25.11187,-18.75497,1008.184
7.969007969,20.17746,62.3031,45.98001,-0.745366,-0.3688103,0.5871077,37.27678,25.11187,-18.75497,1008.184
8.001177311,23.86329,72.5421,46.89932,-0.5966173,-0.1908226,0.664307,39.57063,23.58192,-16.65524,1008.186
8.033349514,-11.21348,75.32379,46.28645,-0.7593843,-0.2627544,0.6098028,40.71497,22.05265,-15.76103,1008.186
8.067997456,-4.148983,85.62199,43.77368,-0.7148031,-0.2182539,0.4926278,40.71497,22.05265,-15.76103,1008.186
8.100170136,-0.954601,94.49974,34.51934,-0.7643272,-0.1670033,0.4978505,42.28348,20.56349,-11.29852,1008.186
8.134818077,14.46443,103.4367,31.82271,-0.7008318,-0.1275773,0.4272111,43.83961,19.06215,-7.792321,1008.186
8.166990280,10.10287,109.5327,34.27419,-0.8942738,-0.2916184,0.3674138,43.83961,19.06215,-7.792321,1008.184
8.201634407,25.58334,111.7226,33.84518,-0.9000386,-0.1561071,0.3126728,45.76872,17.55057,-4.670583,1008.184
8.233807087,17.53595,112.7879,32.86459,-0.9370259,-0.1901651,0.3411751,45.81887,16.07639,-0.7103672,1008.182
8.268454075,19.01028,106.9286,34.76448,-1.010523,-0.133978,0.2787002,45.81887,16.07639,-0.7103672,1008.184
8.300627232,17.47452,99.11617,34.15162,-1.110861,-0.1327118,0.1263711,46.63094,14.97829,3.690399,1008.184
8.335274696,2.669793,98.46513,35.80637,-1.019392,-0.1309986,0.09275573,46.30371,13.12915,7.718161,1008.184
8.367556572,7.277074,98.5835,38.50299,-1.103058,-0.1206285,0.06180995,46.30371,13.12915,7.718161,1008.184
8.402200222,7.338505,96.86714,34.33548,-1.079579,-0.007055834,0.01336322,46.72602,11.64392,11.23016,1008.186
8.434372902,6.355618,98.76106,31.82271,-1.027562,0.01426504,-0.02068635,46.01559,10.55673,14.80985,1008.186
8.469020844,0.7040201,100.4182,31.14855,-1.00962,-0.003261617,-0.1419801,46.01559,10.55673,14.80985,1008.187
8.501193047,4.021263,96.74877,31.63885,-1.059609,-0.02589911,-0.2144822,44.54795,8.717207,18.33338,1008.187
8.535840988,5.12701,96.74877,40.46418,-1.032174,-0.05253405,-0.1889298,43.08191,8.021893,21.91509,1008.187
8.568013668,19.99317,89.88331,48.3702,-1.100422,0.01564523,-0.3294388,43.08191,8.021893,21.91509,1008.187
8.600183010,5.495593,80.4137,48.00248,-1.15894,0.02564465,-0.3292923,40.48069,6.579606,25.44256,1008.187
8.634829998,-3.903261,71.65432,45.91872,-1.283924,0.08520806,-0.364749,39.00861,5.497473,28.57984,1008.186
8.667003155,-11.27491,55.73356,53.88604,-1.504311,0.1010176,-0.4078702,39.00861,5.497473,28.57984,1008.186
8.701650620,-79.15552,5.367112,3.140382,-1.444342,0.1229893,-0.5412804,36.76331,4.409023,30.38215,1008.186
8.733823776,-148.9405,-39.14002,-56.61446,-1.045147,0.1489554,-0.3785015,34.89487,2.933259,32.12063,1008.186
8.768470764,-92.11733,-63.82017,-62.49802,-0.9615327,0.159666,-0.1314456,34.89487,2.933259,32.12063,1008.184
8.800640106,-67.23801,-74.29592,-45.33765,-0.937557,0.3480478,0.0173755,34.50906,-0.1796479,31.69147,1008.186
8.835287571,-109.7479,-102.0537,-39.27024,-0.9326625,0.2527738,0.06522634,34.86445,-0.5880773,29.97004,1008.184
8.867460728,-88.49294,-105.3089,-27.31927,-0.8475087,-0.01558379,-0.1247964,34.86445,-0.5880773,29.97004,1008.184
8.902107716,-11.09062,-76.54495,-14.14256,-0.8310325,-0.003011758,-0.4352541,35.96334,-1.019425,27.28841,1008.184
8.934280395,-7.957668,-67.72638,-16.71661,-0.8719224,0.4346153,-0.1700211,38.57296,-2.996782,24.60649,1008.182
8.968928337,-108.765,-92.05142,-34.36728,-0.7624357,0.3215981,-0.1526944,39.29475,-3.421949,21.99056,1008.184
9.001096725,-104.4034,-92.82083,-24.37749,-0.639583,0.1999844,-0.1085714,39.29475,-3.421949,21.99056,1008.183
9.035744667,-75.34683,-83.58797,-21.19057,-0.7108581,0.2099094,-0.0003386354,40.76606,-3.483217,18.85886,1008.183
9.067917347,-117.1809,-81.04301,-28.72887,-0.7680857,0.3226322,0.1037906,41.4818,-4.295203,15.7985,1008.183
9.100090504,-212.2752,-73.94081,-46.13438,-0.7751229,0.2881086,0.1541815,41.4818,-4.295203,15.7985,1008.179
9.134737492,-264.0611,-69.08764,-59.31109,-0.857586,0.05023808,0.09611404,43.69692,-5.140845,11.7741,1008.177
9.166910648,-239.0589,-63.46506,-65.19466,-0.8465964,-0.1404821,0.04431124,44.03524,-5.185196,8.711952,1008.176
9.201553822,-161.8409,-54.17301,-58.14664,-0.8281337,-0.252836,0.08900266,44.03524,-5.185196,8.711952,1008.172
9.233727455,-84.62283,-52.57502,-45.70538,-0.864377,-0.2803399,0.08670411,45.1168,-5.633599,4.691486,1008.172
9.268374443,-29.15116,-42.21764,-32.89639,-0.8047177,-0.2602128,0.09161536,45.84564,-4.147414,2.512526,1008.17
9.300547600,1.256894,-27.65812,-17.2682,-0.7843664,-0.2551642,0.130027,45.84564,-4.147414,2.512526,1008.169
9.335195065,22.69611,-14.93335,-2.80446,-0.7779114,-0.2217658,0.1851901,45.82908,-3.021068,1.168102,1008.167
9.367368221,36.08794,-3.214715,11.90443,-0.7931187,-0.2416265,0.2434902,45.43458,-1.889354,-0.1743889,1008.163
9.402011395,57.89573,6.491627,31.08727,-1.004865,-0.2763191,0.265906,45.43458,-1.889354,-0.1743889,1008.163
9.434184551,62.073,7.261032,36.84824,-0.9719414,-0.2119598,0.2617913,45.81226,-2.275856,-0.1744614,1008.163
9.468831539,57.22,15.90205,37.5224,-0.9494914,-0.2101351,0.2611149,45.81752,-3.032438,0.2755413,1008.163
9.501004219,71.41042,20.28173,28.81964,-1.022064,-0.2169016,0.2810163,45.81752,-3.032438,0.2755413,1008.159
9.535652161,95.67544,17.08574,12.21086,-1.072102,-0.1767942,0.2885618,45.07769,-4.910314,1.627552,1008.158
9.567824841,45.54822,3.236451,-12.24266,-1.095649,0.1169581,0.538469,44.70528,-5.280394,2.077629,1008.162
9.602468491,23.92472,3.650746,-13.22325,-0.924641,0.1526436,0.4296816,44.70528,-5.280394,2.077629,1008.162
9.634641171,-12.8721,-4.161675,-10.71049,-1.008715,0.1133188,0.3742299,45.46668,-5.666579,2.521904,1008.162
9.666814327,-29.21259,-9.074031,-4.888218,-0.9272798,-0.06260125,0.3358698,45.09998,-4.888386,3.348921,1008.16
9.701461315,-22.57811,-10.31692,-6.91069,-0.9443875,-0.1891621,0.2776282,45.09998,-4.888386,3.348921,1008.16
9.733634949,-18.09369,-2.741235,-7.52356,-0.9133995,-0.170717,0.297735,45.8509,-4.903996,2.962528,1008.158
9.768281937,-23.43813,2.111936,-0.4755528,-0.8808233,-0.1521288,0.2744484,45.46193,-4.14773,2.068178,1008.158
9.800451279,-24.7896,7.142662,3.508104,-0.898589,-0.1884891,0.2685304,45.46193,-4.14773,2.068178,1008.158
9.835098267,-13.4864,10.75295,6.26602,-0.9056551,-0.2041424,0.2482233,45.45589,-4.534548,1.623758,1008.158
9.867271423,-17.9094,13.2979,2.833946,-0.9134079,-0.1658889,0.2944009,44.71131,-4.893575,2.522049,1008.158
9.901918888,-27.12396,15.07345,-1.394858,-0.9381286,-0.1419559,0.3608629,45.47874,-4.892942,3.410742,1008.158
9.934092045,-31.91553,13.17953,0.2598915,-0.9574519,-0.09864268,0.3633282,45.47874,-4.892942,3.410742,1008.156
9.968739033,-30.62549,5.722222,2.650085,-0.9628466,-0.154697,0.3291765,45.10106,-4.50644,3.410816,1008.156
10.000907898,-10.78347,0.7506809,4.366122,-1.000708,-0.2747328,0.4114441,45.48948,-4.882385,4.239548,1008.156
10.035555840,48.55831,-9.606696,-1.701293,-0.9146379,-0.3325001,0.4029347,45.48948,-4.882385,4.239548,1008.156
10.067728043,66.68028,2.881341,-0.5981268,-0.9917493,-0.00913808,0.3036542,45.47849,-5.274076,3.412603,1008.154
10.102375984,8.997127,-15.70275,-15.55216,-0.9580295,-0.2286897,0.2412796,45.47297,-4.898627,2.96446,1008.154
10.134548664,51.19982,7.320217,-6.29782,-0.8668355,-0.2185598,0.2289442,45.47297,-4.898627,2.96446,1008.154
10.166721821,35.4122,11.64072,-1.885154,-0.9646045,-0.07658144,0.198251,45.09554,-4.130992,2.962673,1008.154
10.201364994,20.48461,14.12649,-1.76258,-0.9304468,-0.1661758,0.1832157,45.11231,-3.733615,4.235901,1008.153
10.233538151,36.57938,22.76751,0.9953359,-0.8794509,-0.1425106,0.2007689,45.11231,-3.733615,4.235901,1008.153
10.268185616,31.3578,25.37165,-1.823867,-0.9027255,-0.04945076,0.2316372,45.11809,-3.727931,4.682182,1008.153
10.300358772,8.812835,22.70832,-7.52356,-0.8918383,-0.04694861,0.2484263,45.12964,-3.716561,5.574743,1008.153
10.335005760,-1.753196,9.746803,-11.93623,-0.8879233,-0.03877467,0.3038871,45.12964,-3.716561,5.574743,1008.151
10.367178917,-0.2788665,7.912067,0.4437526,-0.7360477,0.09749578,0.1344115,45.14145,-3.324058,6.465443,1008.149
10.401822090,-11.33634,0.2180157,15.94937,-0.6517332,0.2728848,0.2107446,45.13619,-2.567476,6.01544,1008.147
10.433995724,-43.34159,1.697641,24.22312,-0.7198693,0.1956107,0.1538674,45.13619,-2.567476,6.01544,1008.146
10.468642712,-21.3495,6.846737,34.02904,-0.7325938,0.00184138,0.06900278,45.14171,-2.942925,6.463583,1008.144
10.500815392,51.5684,20.69603,54.19247,-0.7837311,-0.02916851,-0.01994561,45.14068,-4.467458,6.471025,1008.144
10.535463333,134.438,35.66984,76.01064,-0.7816527,0.142529,0.02820443,45.14068,-4.467458,6.471025,1008.144
10.567635536,143.714,49.87424,87.65518,-0.821779,0.2596134,0.01653012,45.15725,-5.593805,7.815451,1008.144
10.602279663,186.8382,76.21157,99.8513,-0.8948296,0.2389471,-0.1299685,44.04525,-7.460627,9.615677,1008.144
10.634452343,192.5512,101.5428,93.47745,-1.11243,0.2472102,0.04613191,44.04525,-7.460627,9.615677,1008.144
10.669099808,175.105,103.851,76.80737,-1.238657,0.5080355,0.1140479,42.95581,-8.924389,13.13541,1008.144
10.701272488,55.49995,62.53983,39.97388,-1.436711,0.7048922,0.0857069,41.12832,-9.598091,17.99414,1008.146
10.733445645,-116.5666,-28.30916,-28.97402,-1.157135,-0.778898,0.3913954,41.12832,-9.598091,17.99414,1008.147
10.768093109,20.97606,-3.15553,-17.08434,-1.020633,0.5302482,0.5546722,39.6452,-9.929327,20.23513,1008.149
10.800261974,-18.40084,-36.71343,-15.00058,-0.7581518,-0.01661131,0.1143971,40.39504,-10.32688,19.78685,1008.151
10.834909439,75.15768,-38.0155,-17.57463,-0.9677151,0.0949713,0.03533251,40.39504,-10.32688,19.78685,1008.151
10.867082596,28.47057,-41.92171,-30.69005,-0.917707,0.3125417,-0.04238836,41.50626,-9.60346,17.9922,1008.151
10.901729584,-62.20072,-66.24676,-51.65022,-1.237806,0.2172916,0.2398549,42.24558,-8.487852,16.64391,1008.153
10.933903217,-0.647449,-101.1659,-51.28249,-1.290821,-0.01469334,0.08275128,42.24558,-8.487852,16.64391,1008.153
10.968550205,-32.03839,-135.2565,-52.75338,-1.363626,0.288109,0.2155848,44.09643,-7.410275,13.56845,1008.154
11.000718594,-18.64656,-145.4955,-59.18852,-1.172307,0.006749231,0.296312,45.5583,-5.576434,9.598639,1008.154
11.035366535,-57.83916,-125.195,-54.22427,-0.981095,0.04191804,0.3854336,46.99623,-3.766143,3.779951,1008.154
11.067539215,-58.5149,-102.7639,-61.1497,-0.9741284,-0.02959899,0.4941929,46.99623,-3.766143,3.779951,1008.156
11.102187157,-31.8541,-73.94081,-68.07515,-0.9894967,-0.3255747,0.4345383,47.68513,-1.557486,-1.526694,1008.158
11.134359837,-5.746173,-44.52585,-44.23449,-1.041,-0.2488217,0.5985674,46.8854,0.6953853,-5.040482,1008.158
11.169007301,10.77861,-24.34377,-38.71865,-0.8414416,-0.1067055,0.5255771,46.8854,0.6953853,-5.040482,1008.16
11.201176167,13.42012,-7.239296,-42.88617,-0.7280776,-0.07086436,0.5257788,47.62053,4.155632,-6.846528,1008.16
11.233349323,40.4495,-0.9656845,-51.7115,-0.6616014,-0.1072878,0.4400263,46.8599,5.685219,-7.296385,1008.16
11.267996311,51.69126,4.065042,-59.31109,-0.7170729,-0.08510554,0.4484388,46.8599,5.685219,-7.296385,1008.16
11.300169468,56.6057,-5.108635,-74.81672,-0.9152584,-0.1455891,0.4709974,46.85438,6.060668,-7.744527,1008.16
11.334816933,83.14363,-16.94564,-94.18342,-0.9593897,-0.1518874,0.5070252,46.10056,9.120473,-7.755545,1008.16
11.366990090,128.4793,-44.11156,-101.5991,-0.9859282,-0.1443387,0.7136309,46.10056,9.120473,-7.755545,1008.162
11.401633263,155.1401,-68.14068,-114.592,-0.8447132,-0.1463967,0.852558,46.07925,11.76567,-9.553692,1008.162
11.433806419,129.2779,-76.90006,-101.4766,-0.6319831,-0.05795068,0.6888684,44.14069,15.17236,-13.51354,1008.162
11.468453884,52.24414,-73.52651,-100.5573,-0.6636351,0.01428275,0.7201252,44.14069,15.17236,-13.51354,1008.162
11.500626087,26.87337,-72.28363,-94.30599,-0.5683216,-0.1692472,0.7109748,41.06702,16.68949,-17.45828,1008.162
11.535274029,50.21693,-59.85477,-81.06799,-0.4930735,-0.2406169,0.7569202,38.01146,19.36707,-20.06977,1008.163
11.567446709,61.33584,-59.20374,-77.7585,-0.5199199,-0.3116118,0.8486474,38.01146,19.36707,-20.06977,1008.163
11.602090359,61.88871,-59.61803,-75.06187,-0.4766839,-0.2133572,0.7777179,35.32121,21.64598,-23.63764,1008.162
11.634263039,38.29943,-58.37515,-68.87188,-0.4340936,-0.1679526,0.713589,32.27566,22.04813,-25.3454,1008.162
11.668910980,14.34157,-49.20147,-65.74624,-0.3967005,-0.2185216,0.6000353,32.27566,22.04813,-25.3454,1008.163
11.701083660,6.355618,-39.6135,-62.00772,-0.4176358,-0.2908713,0.5827642,29.97412,23.18963,-28.01706,1008.163
11.735731602,-4.763287,-35.70729,-67.27841,-0.4343089,-0.3440554,0.5988693,26.94509,23.60803,-28.44973,1008.163
11.767903805,-22.88526,-38.90328,-78.37137,-0.5109581,-0.4844992,0.7791765,26.94509,23.60803,-28.44973,1008.163
11.800073147,-15.57504,-39.43594,-77.81979,-0.5365131,-0.5218084,0.8340553,25.03857,24.38008,-29.78262,1008.163
11.834720612,-17.47938,-46.06466,-77.81979,-0.3940809,-0.4896899,0.8108191,22.01056,26.32302,-30.22274,1008.165
11.866893768,18.21169,-49.79332,-68.93317,-0.20594,-0.487445,0.782572,22.01056,26.32302,-30.22274,1008.165
11.901540756,25.7062,-58.31596,-40.06697,-0.1546647,-0.2794355,0.9766083,19.36049,28.26058,-30.66478,1008.165
11.933713436,-58.02346,-88.50032,-15.67474,-0.1930605,-0.4038631,1.055471,15.88005,29.05581,-31.92587,1008.165
11.968361378,-63.92077,-124.7807,9.759379,-0.08789303,-0.9241794,0.87186,15.88005,29.05581,-31.92587,1008.165
12.000529766,81.11643,-139.1035,50.08624,-0.02418112,-0.741086,0.9899007,13.22895,29.46884,-32.36047,1008.167
12.035177708,43.39816,-144.1342,56.95039,0.02369422,-0.1786636,1.130497,10.57862,31.02527,-32.80066,1008.167
12.067350388,-6.421908,-88.14521,11.47542,-0.07761459,-0.06527409,1.040797,10.57862,31.02527,-32.80066,1008.167
12.101997852,-13.79356,-54.46894,-21.37443,0.1390817,0.2443848,1.242321,7.513118,28.74162,-35.89799,1008.169
12.134170532,-136.3472,-52.04235,4.427409,0.0001135077,0.0543155,1.115285,4.483565,28.39775,-36.32693,1008.169
12.168818474,-203.9207,-71.04074,-7.462273,0.05659096,-0.6686085,0.8104409,2.629052,29.22097,-33.6433,1008.17
12.200986862,-110.485,-64.17529,-11.75237,0.2626013,-0.9749156,0.5606555,2.629052,29.22097,-33.6433,1008.17
12.235634804,-21.59522,-43.75645,-6.542968,0.3806851,-0.7608447,0.5136006,1.566573,33.49695,-28.36636,1008.172
12.267807484,-7.281934,-28.24998,-7.339699,0.3695709,-0.6311301,0.5220037,-0.6761074,36.28336,-26.58297,1008.172
12.302455425,-2.367501,-9.251586,-9.300884,0.3490128,-0.5793804,0.5476861,-0.6761074,36.28336,-26.58297,1008.172
12.334628105,-14.83787,2.407861,-12.73296,0.2536697,-0.5917975,0.7644091,-1.437251,37.05068,-27.0291,1008.174
12.366801262,-14.40786,-4.339231,-13.34583,0.2636394,-0.698524,0.8410382,-1.809926,36.29947,-26.57716,1008.174
12.401444435,2.669793,-7.771961,-13.16197,0.2246657,-0.6435895,0.7642528,-1.809926,36.29947,-26.57716,1008.174
12.433616638,-2.981805,-8.0087,-15.67474,0.2541971,-0.6396001,0.7341262,-2.18106,37.83505,-26.13639,1008.174
12.468264580,2.608363,-3.03716,-19.47453,0.3356066,-0.7110927,0.6421613,-2.553736,37.08384,-25.68446,1008.174
12.500437260,21.52893,8.030437,-22.10987,0.2846704,-0.6776797,0.662192,-2.553736,37.08384,-25.68446,1008.174
12.535085201,32.52497,19.15722,-22.9066,0.2956058,-0.6635281,0.6790766,-4.071015,37.48077,-26.12486,1008.174
12.567257881,39.95805,27.08801,-27.50313,0.246662,-0.6619663,0.6612302,-4.083086,36.70713,-27.0137,1008.174
12.601901531,61.15155,32.59222,-30.56748,0.2476963,-0.6198849,0.7059115,-4.083086,36.70713,-27.0137,1008.174
12.634074211,80.87071,31.34933,-32.3448,0.2652751,-0.4899942,0.8186421,-4.856812,35.93854,-28.34496,1008.172
12.668722153,73.43763,27.02883,-33.14154,0.2276958,-0.3409839,0.920477,-4.891213,35.07945,-30.95485,1008.172
12.700894356,59.73865,20.51847,-32.03837,0.2339425,-0.2845635,0.9396819,-4.891213,35.07945,-30.95485,1008.174
12.735542298,43.33673,12.23257,-27.13541,0.2451592,-0.282208,0.9376686,-5.305108,33.14504,-33.6213,1008.174
12.767714977,29.88347,-3.51064,-26.15482,0.2652698,-0.3001059,0.9585415,-5.701668,31.22769,-34.94891,1008.174
12.802358627,24.84617,-6.410706,-29.95461,0.2997259,-0.3768187,0.9146895,-5.701668,31.22769,-34.94891,1008.176
12.834531307,35.65792,-2.68205,-35.40916,0.2711795,-0.3507861,0.8732366,-5.708218,30.07861,-35.3896,1008.176
12.866819382,29.45345,0.3363858,-40.49598,0.3475464,-0.2832839,0.9270644,-7.238083,28.93962,-36.71513,1008.176
12.901467323,8.997127,0.5731258,-39.57667,0.2975768,-0.2276402,0.9352194,-7.238083,28.93962,-36.71513,1008.176
12.933639526,-7.404794,-3.096345,-39.33152,0.32975,-0.2423385,0.938172,-7.628092,28.17136,-37.60203,1008.177
12.968287468,-7.834807,0.8690509,-34.61242,0.2876422,-0.2122763,0.9070008,-9.140366,27.43056,-37.59058,1008.179
13.000456333,-10.29202,3.118081,-31.11906,0.2677675,-0.2700469,0.892732,-9.140366,27.43056,-37.59058,1008.179
13.035103798,-1.814627,1.164976,-25.66452,0.3541102,-0.22412,0.9245989,-9.896502,27.06017,-37.58485,1008.179
13.067276478,-16.43507,-0.9064995,-25.05165,0.3315111,-0.2473574,0.9178702,-11.02429,27.46309,-37.13463,1008.179
13.101924419,-14.34643,-0.01872433,-22.53888,0.3406885,-0.3127339,0.8801317,-11.02454,27.08196,-37.13277,1008.179
13.134097099,-8.879124,3.354821,-27.87085,0.3065785,-0.3477822,0.8449751,-11.02454,27.08196,-37.13277,1008.179
13.168745041,3.099806,8.385548,-29.15788,0.3860318,-0.3168643,0.8772646,-12.14077,27.49625,-35.78998,1008.181
13.200913429,0.08971594,11.46317,-31.24164,0.3858566,-0.2735399,0.8935293,-12.5363,27.10343,-37.12503,1008.181
13.235561371,-6.299047,16.43471,-28.23857,0.4051476,-0.2086004,0.8929207,-12.5363,27.10343,-37.12503,1008.181
13.267733574,-31.79267,37.14946,-16.34889,0.5185328,-0.09432705,0.7414569,-12.90821,27.49562,-36.67867,1008.181
13.302381516,-78.23406,90.06086,8.227204,0.6751148,0.04462532,0.6081095,-13.29218,27.11417,-37.12116,1008.181
13.334554195,-163.438,138.0599,10.92383,0.6205074,-0.3188155,0.9642304,-13.29218,27.11417,-37.12116,1008.179
13.369204044,41.8624,106.1592,-8.136431,0.1445572,-2.021693,1.073687,-11.37231,29.02142,-34.90873,1008.179
13.401370525,339.6156,33.24325,-17.81978,0.7710636,-0.1149309,1.127904,-7.572489,33.55839,-33.61156,1008.179
13.433543205,57.28143,35.61065,-5.317227,0.4753914,0.7217817,1.368921,-7.572489,33.55839,-33.61156,1008.179
13.468191147,-59.1292,12.5285,4.795132,0.3015793,-0.4079037,0.9761119,-6.143885,28.88453,-39.78114,1008.179
13.500363827,150.3485,-13.1578,-7.646134,0.0610265,-0.189932,0.7001118,-5.390063,25.82473,-39.77012,1008.179
13.535011292,161.0988,-25.58665,-28.17729,-0.1534646,-0.01892696,0.6447191,-5.390063,25.82473,-39.77012,1008.179
13.567183972,54.3942,-15.70275,-61.27228,-0.05119112,0.287703,0.8202944,-5.791629,25.04509,-41.54959,1008.179
13.601828098,-111.1608,-4.10249,-101.783,-0.09917552,0.2230333,0.7744191,-7.702263,19.71901,-42.85271,1008.177
13.634000302,-110.5465,27.79823,-124.5818,-0.1914393,-0.7302091,0.5929375,-7.702263,19.71901,-42.85271,1008.176
13.668648243,107.2244,12.82442,-101.9056,-0.2861621,-0.7027084,1.329097,-8.819005,19.37104,-41.5062,1008.176
13.700820923,207.3559,-35.47055,-62.86575,-0.5055162,0.1953252,1.388675,-10.70061,22.83377,-41.067,1008.174
13.735468865,44.25818,-71.92852,-78.49394,-0.2903006,0.02981676,0.7721996,-10.70061,22.83377,-41.067,1008.174
13.767641067,71.59472,-63.64261,-51.7115,-0.2154976,0.104489,0.8106772,-12.61702,17.502,-42.8164,1008.174
13.802284718,9.427139,-86.01455,-4.459209,-0.3145437,0.5181862,1.01938,-16.46802,13.35843,-43.22256,1008.172
13.834457874,-72.58247,-92.99838,-18.73908,0.3431954,0.2189418,1.095607,-16.46802,13.35843,-43.22256,1008.172
13.869104862,-7.711946,-34.52359,-33.63183,0.88756,-0.02862727,1.128011,-19.1041,10.35831,-42.30157,1008.172
13.901278019,39.77376,-9.488326,-20.02611,0.5877129,0.3130574,0.9952916,-22.09769,11.95422,-40.06214,1008.172
13.933450699,-73.99536,-16.47216,4.304835,0.4829651,0.1900898,0.8429434,-22.09769,11.95422,-40.06214,1008.172
13.968098640,-40.51579,-11.91491,19.68788,0.4220529,-0.3600142,0.6548529,-23.23755,11.5835,-40.50076,1008.172
14.000267029,65.94312,9.095768,15.94937,0.3510562,-0.1289196,0.8053944,-23.97609,11.6113,-39.15805,1008.172
14.034914970,35.35077,12.94279,-1.333571,0.2376481,0.1014589,0.9616277,-23.97609,11.6113,-39.15805,1008.17
14.067087650,38.36086,10.81213,-2.620599,0.3001153,0.154791,0.9942604,-23.60264,13.50591,-39.61557,1008.17
14.101735592,47.02255,5.840592,-1.272284,0.397402,0.3173566,1.052533,-23.61574,11.20774,-40.49696,1008.17
14.133907795,6.724201,-2.741235,0.1986045,0.3868426,0.3568142,0.9382408,-23.61574,11.20774,-40.49696,1008.169
14.168555737,-33.81987,-9.725066,-6.236533,0.3543662,0.1663157,0.8241854,-23.62833,9.671835,-41.38208,1008.167
14.200724602,-19.81374,-5.286191,-10.09762,0.3864737,0.01474489,0.8274562,-22.86167,8.529066,-40.4878,1008.167
14.235372067,14.403,6.018147,-5.072079,0.3059182,0.04695246,0.9239094,-23.61125,9.307756,-40.04138,1008.169
14.267544746,23.80186,8.977398,-1.640006,0.3124382,0.2409549,0.9090599,-23.61125,9.307756,-40.04138,1008.169
14.302192211,-17.1108,8.918213,-7.094551,0.3109168,0.07125194,0.8681511,-23.61652,10.06434,-40.49138,1008.169
14.334365368,-6.299047,15.48775,-13.34583,0.3115439,0.02841309,0.7892262,-23.23935,8.915569,-40.48773,1008.167
14.369012356,-29.0283,32.88814,-25.23551,0.3427747,0.14476,0.790858,-23.23935,8.915569,-40.48773,1008.169
14.401181698,-27.98398,44.9027,-30.50619,0.4142508,-0.1836542,0.8607475,-23.25065,9.285332,-41.38216,1008.169
14.435828686,107.5929,63.42761,-11.20078,0.3226086,-0.09703172,0.8309867,-22.12235,9.644676,-41.8361,1008.169
14.468001843,85.10941,55.43763,-19.5971,0.114781,0.5444462,1.050776,-22.12235,9.644676,-41.8361,1008.169
14.500174523,-21.28807,33.65755,-33.20282,0.08139537,0.3437835,1.065821,-21.02289,8.833006,-44.45211,1008.169
14.534822464,17.90454,31.11259,-21.80344,0.08837488,0.1713618,0.9925168,-19.14732,4.983459,-45.33573,1008.169
14.566995144,37.74656,22.88588,-16.7779,0.07326031,0.3585154,1.019747,-19.14732,4.983459,-45.33573,1008.169
14.601638794,3.836971,15.01427,-14.44899,0.1152485,0.3641286,1.019401,-18.39118,5.353855,-45.34146,1008.17
14.633811474,2.608363,13.53464,-8.626727,0.1546184,0.2917745,0.9774674,-16.89227,3.415344,-46.23245,1008.17
14.668458462,15.2016,15.25101,1.792067,0.1360072,0.3682092,0.9324813,-16.89227,3.415344,-46.23245,1008.17
14.700632096,-14.77644,17.73678,5.959585,0.1362018,0.4162595,0.9323936,-16.89856,2.647392,-46.67501,1008.17
14.735279083,-53.41618,26.43698,18.27828,0.244438,0.3019931,0.9757496,-16.52691,1.874072,-47.1195,1008.172
14.767452240,-87.69434,47.2701,24.03926,0.7516217,0.1897359,1.222177,-16.52691,1.874072,-47.1195,1008.172
14.802095413,-40.3315,33.36162,71.65926,0.2607921,-0.007976423,1.388043,-14.9451,3.763056,-46.69058,1008.172
14.834268570,-74.85539,-19.43141,80.30074,-0.09878214,0.1061432,1.226531,-13.815,6.790333,-47.15755,1008.172
14.868916035,-121.7882,-32.21537,49.47337,-0.3428202,-0.3032301,0.6648682,-13.815,6.790333,-47.15755,1008.174
14.901089191,-9.370567,-32.86641,19.44273,-0.1427554,-0.438593,0.6122394,-12.28385,9.834982,-45.84133,1008.172
14.935736179,52.67415,-19.60896,-27.31927,-0.3866583,-0.001711825,0.586787,-13.01358,15.58465,-44.144,1008.172
14.967909336,63.24018,-31.62352,-72.30395,-0.3442224,0.03432721,0.5669262,-13.01358,15.58465,-44.144,1008.172
15.000078201,246.9171,-23.63354,-93.69312,-0.07480001,-0.06661827,0.6792599,-15.28617,15.61199,-44.51493,1008.172
15.034726143,432.9284,4.242597,-55.45001,0.1969568,1.087225,0.8689142,-16.88583,12.94368,-46.27897,1008.17
15.066898346,191.7526,-8.304626,-35.28658,0.3218178,1.996173,1.11817,-16.88583,12.94368,-46.27897,1008.169
15.101546288,-196.979,-2.56368,-16.59404,0.3606979,1.212417,0.7811766,-18.42397,-0.4550937,-47.54464,1008.169
15.133718967,-283.8416,20.16337,15.52036,0.3622595,0.3926648,0.7247579,-18.04322,-13.40763,-46.59075,1008.169
15.168365955,-181.13,22.76751,38.25785,0.1170297,-0.09903393,0.8165005,-18.04322,-13.40763,-46.59075,1008.167
15.200535297,-67.11516,15.84286,31.02598,0.02765903,-0.1978583,0.9726875,-17.67773,-6.188518,-47.96688,1008.167
15.235182762,11.82293,8.207993,12.33344,-0.01269417,-0.06896582,1.044499,-16.52562,3.779739,-47.12881,1008.167
15.267355919,18.08883,-1.084055,-4.765644,0.02841506,0.05856248,1.054806,-15.71073,6.430357,-47.5923,1008.167
15.302002907,32.64783,-4.043305,-5.746236,0.1471892,0.1432932,0.9782407,-15.71073,6.430357,-47.5923,1008.167
15.334176064,46.65397,-3.096345,-3.233469,0.1128161,0.273795,0.9478253,-15.71073,6.430357,-47.5923,1008.165
15.368823528,32.95499,-3.51064,-2.498024,0.09171231,0.3840064,0.9383268,-15.32804,4.906139,-47.14051,1008.165
15.400992870,4.942719,-1.557535,-1.14971,0.08442859,0.4034184,0.9332528,-15.32804,4.906139,-47.14051,1008.167
15.435639858,-18.70799,0.3955708,-0.04654358,0.09141281,0.3213536,0.9329931,-16.52562,3.779739,-47.12881,1008.165
15.467813015,-18.09369,0.9874209,0.2598915,0.09999581,0.2229628,0.9566838,-15.71908,2.613338,-48.01997,1008.167
15.502460480,-5.070439,1.342531,0.5050397,0.1165087,0.1894424,0.9634835,-15.71908,2.613338,-48.01997,1008.167
15.534632683,6.109897,0.6323109,0.5663267,0.1054041,0.2200714,0.9628755,-16.14768,3.774371,-47.13074,1008.167
15.566805840,8.07567,-0.1370943,-0.2304046,0.09774658,0.2710217,0.9561371,-15.71228,4.143557,-47.58114,1008.167
15.601449013,2.17835,-0.2554644,-0.2304046,0.08651854,0.2913835,0.9458057,-15.71228,4.143557,-47.58114,1008.167
15.633622646,-3.104666,-0.2554644,-0.3529787,0.08891427,0.2787583,0.9466432,-16.15898,4.144135,-48.02516,1008.167
15.668269634,-2.736083,0.1588307,0.01474344,0.09966061,0.2550197,0.9593612,-15.71253,3.762423,-47.57928,1008.169
15.700442791,-1.077462,0.04046069,-0.04654358,0.1064984,0.2487047,0.9631014,-15.71253,3.762423,-47.57928,1008.169
15.735090256,0.02828553,-0.3738344,-0.1078306,0.09865642,0.2520975,0.9574186,-16.15924,3.763001,-48.0233,1008.169
15.767263412,1.932628,-0.1370943,0.5663267,0.09127396,0.2554619,0.9483571,-15.71253,3.762423,-47.57928,1008.17
15.801906586,1.809767,0.2772007,0.8727618,0.08501929,0.2681474,0.952858,-15.71253,3.762423,-47.57928,1008.17
15.834079742,-2.30607,0.3363858,1.301771,0.08700722,0.2768747,0.9529114,-16.53718,3.76837,-48.02137,1008.169
15.868726730,-7.466225,0.04046069,4.733844,0.0787083,0.2701432,0.9558254,-16.15346,3.768686,-47.57702,1008.167
15.900899410,-12.13494,-3.03716,10.98512,0.03868832,0.2626007,0.9590287,-16.15346,3.768686,-47.57702,1008.167
15.935547352,-19.44516,-3.688195,14.53977,0.1019227,0.1934326,0.9679904,-15.70675,3.768108,-47.133,1008.167
15.967720032,-3.043235,-1.143239,12.63987,0.1432111,0.1301887,0.9757597,-15.33408,4.519321,-47.58493,1008.167
16.002363682,12.68295,-3.451455,7.675622,0.1663827,0.208144,0.9660642,-15.33408,4.519321,-47.58493,1008.169
16.034536362,16.6145,-1.557535,2.527511,0.1547696,0.2416582,0.9616289,-15.71125,5.66809,-47.58858,1008.167
16.066709518,24.78474,-2.267755,-2.007728,0.08758887,0.3122579,0.9469318,-16.15847,4.906402,-48.02888,1008.169
16.101356506,8.321392,-3.569825,-5.010792,0.1259784,0.3916707,0.9472283,-16.15847,4.906402,-48.02888,1008.169
16.133530140,-18.40084,-2.32694,-6.29782,0.1408042,0.3149169,0.9483851,-16.15346,3.768686,-47.57702,1008.169
16.168177128,-20.67376,-1.557535,-7.952569,0.1132266,0.1683414,0.9315281,-16.14743,4.155504,-47.1326,1008.17
16.200346470,3.898402,-0.07790934,-8.136431,0.103421,0.1238599,0.9476409,-16.14743,4.155504,-47.1326,1008.17
16.234993458,27.18053,0.6914958,-6.29782,0.093853,0.201454,0.9329458,-16.52511,4.542006,-47.13253,1008.17
16.267166615,27.1191,1.697641,-3.662478,0.107817,0.3413731,0.959033,-16.53089,4.536322,-47.57881,1008.17
16.301814079,5.987036,0.9874209,-1.517432,0.1059366,0.3752977,0.9511362,-16.15398,3.006419,-47.5733,1008.17
16.333986759,-11.52063,0.9874209,-0.7207008,0.1105083,0.3155142,0.9433708,-16.15398,3.006419,-47.5733,1008.17
16.368634224,-10.35345,1.875196,-1.394858,0.1169214,0.2309584,0.9344199,-16.53243,2.249521,-47.56764,1008.17
16.400803089,2.854085,1.993566,-1.701293,0.1189743,0.241679,0.941237,-15.7133,2.619022,-47.5737,1008.17
16.435451031,4.328414,0.8098659,-2.069015,0.1041543,0.283621,0.9576271,-15.7133,2.619022,-47.5737,1008.17
16.467623234,-0.2788665,-0.4330194,-1.14971,0.08607577,0.2817557,0.9558524,-16.53192,3.011787,-47.57137,1008.17
16.502271176,-3.473248,-0.6697595,-0.7207008,0.1020876,0.2666014,0.952204,-16.53166,3.392921,-47.57323,1008.17
16.534443855,-0.954601,0.2180157,-0.1078306,0.1133894,0.2738701,0.9579425,-16.53166,3.392921,-47.57323,1008.169
16.569091797,-2.183209,-0.1370943,-1.14971,0.1113927,0.2777077,0.9507628,-15.7133,2.619022,-47.5737,1008.169
16.601260185,-3.166096,-0.4330194,-1.456145,0.100111,0.275293,0.9450642,-16.16001,2.619601,-48.01772,1008.167
16.633433342,-3.166096,-1.084055,-1.578719,0.102089,0.279659,0.9460457,-16.16001,2.619601,-48.01772,1008.167
16.668080807,-2.428931,-0.9064995,-0.4755528,0.1074327,0.2670376,0.9492658,-16.15398,3.006419,-47.5733,1008.167
16.700253010,-0.340297,-0.2554644,-0.4142658,0.1078319,0.2563159,0.9438717,-16.14794,3.393237,-47.12888,1008.167
16.734900952,3.099806,0.2180157,-0.4142658,0.1098642,0.2699192,0.9468569,-16.14794,3.393237,-47.12888,1008.167
16.767073631,2.915515,0.3955708,-0.5368397,0.108013,0.2903304,0.9489704,-16.53217,2.630654,-47.5695,1008.169
16.801717281,-1.753196,0.0996457,-0.3529787,0.1070393,0.2869523,0.9508797,-16.54347,3.000418,-48.46393,1008.169
16.833889961,-1.876057,0.2180157,0.01474344,0.09759814,0.2742717,0.9368852,-16.54347,3.000418,-48.46393,1008.169
16.868537903,-1.138892,0.8690509,0.07603047,0.09944525,0.255791,0.9333416,-16.15398,3.006419,-47.5733,1008.169
16.900710583,2.424072,1.756826,0.3211785,0.1038798,0.2504886,0.9409685,-16.91512,3.773738,-48.01943,1008.169
16.935358524,3.591249,2.052751,0.1986045,0.1035838,0.270492,0.9541502,-16.91512,3.773738,-48.01943,1008.169
16.967530727,1.686907,0.8690509,0.07603047,0.1072447,0.2818199,0.9778273,-15.71279,3.381289,-47.57742,1008.169
17.002174854,-1.998918,-0.6697595,0.01474344,0.1081193,0.2768871,0.9681386,-16.53166,3.392921,-47.57323,1008.169
17.034347534,-1.814627,-0.9064995,-0.1078306,0.1093195,0.2679357,0.9410616,-16.53166,3.392921,-47.57323,1008.169
17.068994999,1.932628,-0.01872433,0.2598915,0.1059178,0.2732849,0.9401735,-15.71305,3.000156,-47.57555,1008.164
17.101167679,0.08971594,0.2180157,-0.2304046,0.1055266,0.2878824,0.9446355,-16.5314,3.774055,-47.57509,1008.169
17.133340359,-2.183209,0.1588307,-0.5981268,0.1084549,0.2752955,0.9507704,-16.5314,3.774055,-47.57509,1008.167
17.167988300,-1.323184,-0.07790934,-0.5368397,0.1045257,0.2593341,0.9554954,-16.15398,3.006419,-47.5733,1008.169
17.200156689,1.809767,-0.01872433,-0.1691176,0.09917242,0.2598576,0.9569957,-16.52588,3.398606,-47.12695,1008.169
17.234804630,1.932628,-0.1370943,0.1373175,0.097216,0.2705018,0.9513177,-16.52588,3.398606,-47.12695,1008.169
17.266977310,0.7654505,-0.01872433,0.3211785,0.1015402,0.2767048,0.9402425,-16.16528,3.376183,-48.46772,1008.169
17.301624775,0.08971594,0.2180157,0.1373175,0.102502,0.2762034,0.9387834,-15.71883,2.994471,-48.02184,1008.17
17.333797455,-0.1560057,0.4547558,0.2598915,0.1083798,0.2747436,0.9420906,-15.71883,2.994471,-48.02184,1008.17
17.368445397,-1.998918,0.9282359,0.7501878,0.1103984,0.2791466,0.947892,-16.53744,3.387236,-48.01951,1008.17
17.400613785,-2.920374,1.164976,1.608206,0.09873424,0.2797317,0.9533077,-16.90986,3.017156,-47.56944,1008.17
17.435261726,-2.674653,1.224161,1.853354,0.1049242,0.2602174,0.944413,-16.1482,3.012104,-47.12702,1008.17
17.467434406,-2.24464,0.2772007,0.2598915,0.09967437,0.26422,0.956545,-16.1482,3.012104,-47.12702,1008.17
17.502082348,-1.753196,-0.07790934,-0.1691176,0.1030619,0.2583744,0.9559832,-16.15398,3.006419,-47.5733,1008.17
17.534255028,1.195463,-0.2554644,-0.5981268,0.1005472,0.2529993,0.9496963,-15.72435,3.36992,-48.46998,1008.17
17.568902493,3.222667,-0.1962794,-0.4142658,0.0942151,0.2714171,0.9421953,-15.72435,3.36992,-48.46998,1008.172
17.601071358,-0.0945753,-0.2554644,-0.3529787,0.1050152,0.269488,0.9507546,-16.15372,3.387552,-47.57516,1008.17
17.635719299,-0.03314489,0.2772007,-0.1691176,0.1059854,0.2622243,0.9535776,-15.71305,3.000156,-47.57555,1008.17
17.667891503,1.502615,0.0996457,-0.3529787,0.1089353,0.2656147,0.954542,-15.71305,3.000156,-47.57555,1008.172
17.700064182,1.932628,-0.01872433,-0.04654358,0.09970031,0.2734314,0.9551746,-15.71857,3.375604,-48.0237,1008.172
17.734712124,1.379755,-0.1370943,0.01474344,0.1040224,0.2810832,0.9431474,-16.53744,3.387236,-48.01951,1008.172
17.766884804,-0.1560057,-0.07790934,-0.1691176,0.1030528,0.2767417,0.9460127,-16.53744,3.387236,-48.01951,1008.172
17.801528454,-0.5860186,-0.1962794,-0.04654358,0.1034986,0.2675131,0.9454504,-15.71908,2.613338,-48.01997,1008.172
17.833701134,0.7040201,0.2772007,0.1373175,0.1035067,0.2684876,0.9459404,-16.53192,3.011787,-47.57137,1008.172
17.868349075,1.195463,0.04046069,-0.1691176,0.1065091,0.2786956,0.9498525,-16.53192,3.011787,-47.57137,1008.168
17.900521278,-1.261753,0.04046069,-0.1691176,0.1021725,0.2753829,0.9580597,-16.15423,2.625286,-47.57144,1008.168
17.935169220,-0.7088794,-0.01872433,-0.1691176,0.1016426,0.2603566,0.9603508,-16.15976,3.000734,-48.01958,1008.17
17.967341900,2.608363,0.1588307,0.01474344,0.1033832,0.2601546,0.9352688,-16.15976,3.000734,-48.01958,1008.17
18.001985550,20.73034,-0.4922044,-1.14971,0.08898368,0.2000372,0.9349076,-16.53166,3.392921,-47.57323,1008.17
18.034158230,34.73647,-0.8473145,-1.088423,0.1148112,0.3018715,0.9393621,-16.15976,3.000734,-48.01958,1008.17
18.068806171,11.51577,-0.6105744,0.2598915,0.1089452,0.3821265,0.9574305,-16.15976,3.000734,-48.01958,1008.17
18.100978851,-7.773377,-0.7881294,0.6276137,0.0993867,0.3606349,0.9337245,-16.53821,2.243836,-48.01392,1008.17
18.135626793,-12.19637,-1.912645,5.591863,0.09637032,0.3779401,0.9729373,-15.71438,1.030966,-47.56594,1008.172
18.167798996,-27.12396,-11.73736,7.430473,0.1098744,0.3332013,1.033656,-15.71438,1.030966,-47.56594,1008.17
18.199967861,-3.964691,-29.13775,13.37531,0.01685552,0.3564509,1.219322,-16.53295,1.487254,-47.56392,1008.17
18.234615803,-79.70839,-82.34508,5.775724,-0.1109608,0.5619297,1.47333,-16.91011,2.636023,-47.56757,1008.17
18.266788006,-101.7005,-125.8461,7.124038,-0.008202921,0.2301703,1.318288,-16.91011,2.636023,-47.56757,1008.17
18.301435947,-48.93176,-165.9735,12.57858,0.002970523,0.1015141,1.25832,-18.02056,3.056001,-45.77851,1008.17
18.333608627,-8.387681,-198.1109,6.940177,0.2020329,0.03230622,1.286739,-21.74595,7.352506,-41.82687,1008.17
18.368256569,-57.77773,-236.8771,-3.968913,0.2098324,0.1685515,1.33599,-27.35077,9.781557,-36.96369,1008.17
18.400424957,-125.9655,-270.4351,-36.57361,0.1507261,-0.09925333,0.9357201,-27.35077,9.781557,-36.96369,1008.168
18.435072899,-116.1981,-268.4819,-78.73909,0.293768,-0.3223864,0.3531825,-33.29436,10.3501,-28.96531,1008.164
18.467245579,-59.37492,-237.2322,-107.544,0.4717675,-0.2458582,0.06921878,-39.21434,11.70365,-19.18553,1008.164
18.501893044,-36.0928,-222.6135,-117.2886,0.5735303,0.1482796,0.1997304,-39.21434,11.70365,-19.18553,1008.163
18.534065724,-53.90762,-197.0456,-137.7585,0.5593475,0.1478756,0.1381635,-44.01023,9.603588,-9.968599,1008.161
18.568713188,-1.568905,-178.5207,-156.9413,0.6389229,0.1061097,-0.1285051,-45.79932,5.920611,-1.971025,1008.161
18.600882054,59.92294,-146.62,-162.2733,0.7207197,0.3124633,-0.1926371,-45.79932,5.920611,-1.971025,1008.159
18.635529518,86.03086,-130.4033,-141.6808,0.8029969,0.6658126,-0.3288256,-46.09583,-0.5323504,4.693304,1008.159
18.667702675,13.11296,-91.3412,-112.9985,0.9080259,0.9598477,-0.4001635,-44.89679,-6.578373,10.07264,1008.159
18.702349663,-76.6983,-43.934,-98.59608,0.7196716,0.7737274,-0.4245223,-44.89679,-6.578373,10.07264,1008.159
18.734523297,-26.50965,-10.61284,-88.79016,0.9347959,0.5861139,-0.6343722,-43.34927,-12.27787,13.15303,1008.158
18.766695499,-49.54606,59.04792,-86.7064,0.9823512,0.833554,-0.5537281,-41.45663,-16.4915,13.61011,1008.156
18.801339626,-78.23406,129.1822,-62.92703,1.013988,1.056471,-1.020207,-41.45663,-16.4915,13.61011,1008.156
18.833511829,-29.21259,251.1033,-48.58587,0.5331897,0.6863971,-0.8548918,-40.73799,-20.34768,10.94716,1008.154
18.868159771,-332.0031,300.1677,-137.8811,0.9963391,5.647871,5.9292,-41.21508,-24.24866,3.508444,1008.152
18.900332451,-146.9747,-140.5239,0.8727618,-0.2901555,-2.583291,0.6017178,-41.21508,-24.24866,3.508444,1008.152
18.934979439,441.4673,-40.02779,15.76551,1.551817,1.213502,0.3044596,-40.98128,-25.15761,-7.58303,1008.15
18.967153072,100.5899,-27.30301,35.07092,0.6455578,1.461488,-0.285129,-41.66158,-23.16811,-1.850572,1008.152
19.001796246,-42.54299,15.07345,40.28032,0.7737252,1.059812,-0.1117785,-41.66158,-23.16811,-1.850572,1008.152
19.033969402,-47.39599,36.91272,90.90339,0.7630598,0.6087599,0.1149982,-42.37727,-23.49871,1.279121,1008.152
19.068616390,23.12612,11.04887,120.0147,0.7053164,0.7983846,0.1204743,-42.39935,-21.99692,-0.5134449,1008.154
19.100789547,-28.35257,25.01654,120.3212,1.043729,0.8147337,0.2557852,-42.39935,-21.99692,-0.5134449,1008.154
19.135437012,-67.54517,51.88653,130.0045,0.7090696,0.6540126,0.3467528,-43.91406,-17.78866,-0.9724579,1008.156
19.167610168,-67.23801,38.62909,130.1884,0.5262604,0.4201907,0.308453,-45.82956,-13.21664,-3.21652,1008.156
19.202253342,-47.58028,41.41079,132.3334,0.7304819,0.3204134,0.152449,-45.82956,-13.21664,-3.21652,1008.154
19.234426498,-52.00327,74.55439,133.743,0.781549,0.3088802,0.1374175,-46.21964,-6.748245,-4.521307,1008.156
19.266599178,-87.51006,97.22225,133.743,0.7212594,0.20203,0.215665,-46.61735,-1.81088,-6.328685,1008.156
19.301247120,-116.0138,114.741,144.4683,0.7224239,0.03547729,0.1443912,-46.61735,-1.81088,-6.328685,1008.156
19.333419323,-91.99448,142.1437,156.4805,0.6758525,-0.08831603,0.2373131,-45.51955,4.676012,-9.490395,1008.156
19.368066788,-96.90891,162.1482,168.9831,0.487906,-0.1745999,0.4456153,-44.42702,10.71338,-13.03246,1008.154
19.400236130,-111.9594,158.1828,161.5673,0.3148627,-0.4215213,0.4143463,-44.42702,10.71338,-13.03246,1008.154
19.434883118,-38.48858,165.1667,157.645,0.3927565,-0.701097,0.5274765,-40.69391,17.85087,-17.03992,1008.154
19.467056275,51.99841,149.7785,153.4775,0.05593926,-0.7876381,0.7323457,-35.05403,24.59745,-19.71635,1008.154
19.501703739,162.266,140.96,133.9269,0.2383798,-0.7843677,0.8964781,-29.44985,29.78539,-25.06302,1008.152
19.533876896,198.6942,147.1152,100.219,-0.03003066,-0.5308481,1.121346,-29.44985,29.78539,-25.06302,1008.152
19.568523884,157.413,107.4021,48.55407,-0.05071063,-0.5122414,1.381009,-23.12176,30.36056,-32.62264,1008.154
19.600693226,167.7333,73.90335,19.1363,-0.02938863,-0.4550143,1.451653,-17.16289,26.76,-39.26729,1008.158
19.635340214,152.3757,31.05341,-25.23551,-0.08649184,-0.1752723,1.373516,-17.16289,26.76,-39.26729,1008.158
19.667513848,148.0142,2.762971,-30.32233,0.04008663,0.1763838,1.109171,-13.76509,22.07465,-44.17177,1008.156
19.702160835,33.63072,-7.061741,-8.197718,0.006159947,0.7327201,1.100096,-12.27973,15.93312,-45.87111,1008.158
19.734333515,-81.61273,-20.85185,-9.17831,-0.006991773,0.3689042,0.9304473,-12.27973,15.93312,-45.87111,1008.158
19.768981457,-24.72817,-19.37222,-2.314163,0.0896394,0.02468907,0.9816559,-13.43371,11.7397,-47.18368,1008.16
19.801149845,22.20466,-7.653591,-0.1691176,0.1544842,0.03934153,0.9093536,-14.54917,13.29739,-45.84647,1008.162
19.833323002,13.29726,1.342531,6.020872,0.1586576,0.05411169,0.8761785,-14.54917,13.29739,-45.84647,1008.163
19.867970467,2.731224,13.47546,5.837011,0.1434397,-0.05756225,0.8614219,-14.92634,14.44616,-45.85012,1008.163
19.900143623,27.42625,21.93892,3.508104,0.08455181,-0.1020959,0.9020922,-14.54313,13.68421,-45.40205,1008.163
19.934790611,66.61885,24.83898,5.591863,0.07047814,0.06859589,1.061244,-14.54313,13.68421,-45.40205,1008.163
19.966963768,13.42012,7.142662,4.549984,-0.07204227,0.3949439,1.307229,-13.79958,12.51871,-46.2929,1008.163
20.001606941,-5.807604,-18.83956,-5.439801,0.01463415,-0.005753429,1.013917,-12.67861,10.58556,-47.18196,1008.163
20.033780098,29.82203,-9.488326,-3.723765,0.1122091,0.1146697,0.8944632,-12.67861,10.58556,-47.18196,1008.159
20.068427563,7.215644,-2.741235,-0.7819878,0.06317386,0.1896135,0.8883086,-13.05629,10.97206,-47.18189,1008.159
20.100600243,-6.544769,0.2180157,-1.027136,0.1092956,0.137834,1.001203,-13.435,9.834032,-47.17437,1008.161
20.135247707,3.836971,-1.73509,-3.478617,0.05710446,0.1057162,1.019741,-13.435,9.834032,-47.17437,1008.165
20.167420387,9.365709,-3.98412,-5.807524,0.07258365,0.13066,0.9913646,-13.43526,9.4529,-47.17251,1008.165
20.202064514,5.495593,-5.16782,-6.236533,0.07188191,0.140623,0.9610873,-13.05706,9.828665,-47.17631,1008.161
20.234236717,2.055489,-4.635156,-3.41733,0.08289725,0.1799929,0.9752871,-13.05706,9.828665,-47.17631,1008.163
20.268884659,-4.271843,-2.386125,-2.069015,0.08575504,0.1571868,0.9779645,-13.81898,9.452583,-47.61686,1008.163
20.301057339,-5.807604,-3.806565,-2.80446,0.06094936,0.1423944,0.9949439,-14.19114,9.463636,-47.16864,1008.163
20.333230496,-8.694833,-12.44758,-4.0302,0.06127215,0.1460729,1.031603,-14.19114,9.463636,-47.16864,1008.164
20.367877960,-16.43507,-12.7435,-9.729894,0.1374596,0.1230593,0.9916605,-14.19114,9.463636,-47.16864,1008.17
20.400046826,-8.817694,-13.27617,-8.075144,0.08280396,0.1368704,0.9850545,-14.94702,9.474373,-47.16478,1008.17
20.434694290,-28.414,-18.30689,-6.849403,0.1078055,0.2156721,0.9604068,-14.94702,9.474373,-47.16478,1008.17
20.466866493,-46.29025,-12.7435,-4.397922,0.1547946,0.1179247,0.9663926,-15.69083,10.25875,-46.27207,1008.166
20.501514435,-56.18054,-13.21698,0.01474344,0.05826466,0.125259,0.9741018,-16.1315,10.64614,-46.27168,1008.168
20.533687115,-61.46356,-11.73736,-1.027136,0.1610993,0.009091783,0.9562784,-16.49107,12.1931,-44.93834,1008.168
20.568335056,-34.80276,-6.825001,-4.397922,0.1398461,-0.09259845,0.9734725,-16.49107,12.1931,-44.93834,1008.168
20.600503445,-9.86201,-8.659736,-3.723765,0.1343988,-0.08977991,1.020782,-17.23963,14.49632,-44.49936,1008.168
20.635151386,8.321392,-12.09247,-5.378514,0.1477362,-0.1225438,0.9977338,-17.22787,16.03142,-43.67799,1008.168
20.667324066,17.47452,-7.594406,-8.075144,0.1610581,-0.02044336,0.9656754,-17.22787,16.03142,-43.67799,1008.168
20.701972008,7.707087,1.520086,-7.400986,0.1228761,0.01397137,0.9349854,-18.36143,16.42865,-43.67405,1008.168
20.734144211,6.478479,4.124227,-6.359107,0.1004817,0.07115518,0.9718157,-18.36773,15.6607,-44.11661,1008.166
20.768792152,-8.387681,6.136517,-6.29782,0.1841135,0.09750503,0.9808927,-18.36773,15.6607,-44.11661,1008.166
20.800961018,-17.47938,8.799843,-2.130302,0.1518509,0.07295296,0.9862932,-18.36798,15.27957,-44.11475,1008.166
20.835608482,-30.07262,10.04273,2.098502,0.1371716,0.07298982,0.9816105,-17.995,15.26933,-44.49921,1008.166
20.867958546,-46.5974,12.23257,5.040279,0.1364454,0.004592374,0.9863554,-17.995,15.26933,-44.49921,1008.166
20.900131702,-48.93176,14.77753,7.736908,0.1119588,-0.07608414,0.9569989,-17.59978,16.4236,-43.23164,1008.168
20.934779167,-46.29025,20.69603,9.330371,0.1556681,-0.08906619,0.9381679,-17.22107,17.56163,-43.23915,1008.168
20.966952324,-48.74746,28.74519,11.35284,0.1278649,-0.1295365,0.9593017,-17.22107,17.56163,-43.23915,1008.168
21.001595497,-43.64874,33.77592,16.50095,0.06392539,-0.1040845,0.9456482,-16.4639,19.45656,-43.25233,1008.168
21.033768654,-66.37799,40.52301,22.81352,0.03977682,-0.08145342,0.9065362,-14.87605,21.73237,-42.37899,1008.168
21.068415642,-93.10022,47.68439,33.04845,0.04609934,-0.1820494,0.8945619,-14.87605,21.73237,-42.37899,1008.17
21.100588322,-83.08707,39.39849,33.66132,0.07459239,-0.4290842,0.9785373,-12.97403,22.86029,-41.50168,1008.172
21.135236263,-17.78654,42.65367,35.43864,-0.03703999,-0.5547078,1.169897,-11.05864,26.66753,-39.74483,1008.172
21.167408943,-17.35652,35.84739,39.05458,-0.1554844,-0.3542417,1.031429,-11.05864,26.66753,-39.74483,1008.172
21.202052593,-43.89446,33.47999,44.32526,0.007196793,-0.3282149,0.9236038,-8.405487,29.30357,-39.32512,1008.172
21.234225273,-50.77467,46.14559,60.38246,-0.06144631,-0.327724,0.9430464,-6.509239,30.42581,-38.89408,1008.172
21.268873215,-63.49076,36.49843,62.0985,-0.1597827,-0.3439424,0.9794983,-6.509239,30.42581,-38.89408,1008.17
21.301045895,-85.85143,34.66369,59.21801,-0.1485723,-0.3598934,0.8693662,-4.230099,31.54755,-38.08247,1008.17
21.335693359,-59.62065,39.99035,59.21801,-0.1619731,-0.5393994,0.8713855,-0.7924309,33.82015,-35.43335,1008.17
21.367866039,-15.0836,41.11486,57.50197,-0.2422787,-0.4928662,0.8744463,-0.7924309,33.82015,-35.43335,1008.17
21.402510166,-10.29202,45.317,52.78287,-0.2541857,-0.3996941,0.8642396,1.872581,36.91222,-34.12324,1008.17
21.434682369,-11.27491,47.38847,50.39268,-0.3508792,-0.4113677,0.8616716,4.919469,37.27314,-32.35545,1008.17
21.466855526,-1.446044,46.38233,46.71545,-0.4002989,-0.4078581,0.8443276,4.919469,37.27314,-32.35545,1008.17
21.501502991,1.195463,51.41305,44.44783,-0.4053802,-0.3949606,0.8141155,7.943244,37.61132,-32.37278,1008.172
21.533675671,-4.763287,57.62748,44.44783,-0.4880749,-0.4169986,0.7983174,10.22796,37.21504,-31.04368,1008.172
21.568323136,-0.0945753,62.53983,48.61535,-0.6260945,-0.4123316,0.7480698,12.87797,36.42006,-30.67097,1008.172
21.600492001,-3.411818,63.19087,54.92792,-0.7529517,-0.3062639,0.699518,12.87797,36.42006,-30.67097,1008.172
21.635139942,-22.27095,58.63363,57.93098,-0.7899096,-0.2329054,0.6214197,15.91279,36.00735,-29.79202,1008.172
21.667312145,-23.00812,57.74585,64.18225,-0.8048633,-0.228766,0.5820694,19.02215,35.60511,-28.02083,1008.172
21.701960087,-17.9094,61.77043,72.33343,-0.778874,-0.2441798,0.4881919,19.02215,35.60511,-28.02083,1008.172
21.734132767,-8.203389,65.26234,76.01064,-0.7698981,-0.2416309,0.5098192,22.44646,35.19841,-26.25125,1008.17
21.768780708,-13.36354,64.55212,82.3845,-0.7556586,-0.2928051,0.4287705,25.8697,33.20364,-24.47392,1008.17
21.800949097,31.1735,62.06636,86.91974,-0.7990353,-0.3583797,0.5833566,25.8697,33.20364,-24.47392,1008.172
21.835597038,1.994059,50.64365,87.04231,-0.7564105,-0.3134272,0.5235614,30.80392,31.2501,-22.76839,1008.172
21.867769718,-31.48552,36.14332,81.77162,-0.7979403,-0.2413272,0.6570932,33.47055,28.1862,-20.98192,1008.172
21.902417660,-37.13712,27.44312,76.86866,-0.7515499,-0.3178959,0.6396411,33.47055,28.1862,-20.98192,1008.172
21.934589863,-78.97123,16.78982,68.59492,-0.7374777,-0.1817095,0.6223165,36.88805,26.24927,-19.65118,1008.172
21.966762543,-66.50085,15.84286,69.69808,-0.5634529,-0.1295169,0.5160471,38.04293,23.20683,-17.85697,1008.17
22.001406193,-17.84797,1.520086,76.62351,-0.2618889,0.0482996,0.5436191,38.04293,23.20683,-17.85697,1008.168
22.033578873,-43.03444,-19.49059,52.04743,0.1785607,0.0890682,1.079203,40.32522,21.66552,-16.6498,1008.166
22.068226814,-12.31923,-8.067885,66.44987,-0.779216,-0.6795534,0.425802,41.46328,19.3683,-16.19815,1008.166
22.100399494,99.42269,-11.9741,47.38961,-1.633423,0.1968848,0.6747677,41.46328,19.3683,-16.19815,1008.166
22.135047436,-72.58247,-38.13387,7.736908,-1.612015,0.3011709,0.6166238,43.34642,18.19237,-16.64852,1008.164
22.167219639,-63.55219,-54.17301,-11.50722,-0.9044248,-0.2862723,0.5507124,44.0793,15.87372,-18.29884,1008.164
22.201863766,-13.60927,-38.54817,-8.075144,-0.5602895,-0.01813386,0.5482658,44.0793,15.87372,-18.29884,1008.164
22.234036446,-18.83085,-41.62579,-8.197718,-0.8299291,-0.12971,0.57107,42.93995,16.26527,-18.74118,1008.164
22.268683910,-23.62242,-55.23834,-21.68086,-0.8700504,-0.01466754,0.7353086,42.53942,17.01017,-20.52809,1008.166
22.300856590,-47.45742,-67.13453,-25.2968,-0.6381026,-0.09003947,0.614915,42.53942,17.01017,-20.52809,1008.166
22.335504532,-41.49867,-49.8525,-9.913754,-0.7065228,-0.02934591,0.5736378,41.38827,17.00922,-21.86113,1008.166
22.367677212,-32.65269,-46.3014,-13.28454,-0.7898864,-0.1439824,0.6973445,39.85494,19.29475,-23.64968,1008.166
22.402320862,-13.97785,-51.09539,-34.42856,-0.6838635,-0.05742409,0.7867207,39.85494,19.29475,-23.64968,1008.168
22.434493542,-29.39688,-48.84636,-53.18239,-0.5950776,0.08327311,0.7730742,38.33817,20.45394,-24.09381,1008.168
22.469141483,-69.0195,-30.26227,-73.9587,-0.553488,-0.06525104,0.7998996,36.81067,21.60257,-25.36674,1008.168
22.501314163,-81.85846,-9.961806,-77.08434,-0.359996,-0.1219689,0.6819467,36.81067,21.60257,-25.36674,1008.17
22.533486366,-90.52014,28.21253,-70.22019,-0.4820235,-0.3950893,0.8109735,34.53881,23.9159,-25.81258,1008.172
22.568134308,-41.37581,43.719,-76.71661,-0.6193196,-0.5743755,0.7616127,32.30155,27.40593,-23.65008,1008.173
22.600302696,-38.24286,50.28854,-86.89026,-0.5553944,-0.4779811,0.7145749,32.30155,27.40593,-23.65008,1008.173
22.634950638,-38.55001,60.58673,-58.57565,-0.5191537,-0.4794936,0.7306123,31.58291,31.26211,-20.98713,1008.173
22.667123318,-27.55397,59.99488,-43.07003,-0.6446679,-0.6707515,0.5210189,30.10736,33.60449,-18.31288,1008.175
22.701771259,-14.10071,65.61745,-22.41631,-0.6422338,-0.4639135,0.5945193,29.00789,35.62227,-15.76652,1008.175
22.733943939,-15.51361,47.09255,-14.57157,-0.6625012,-0.5427973,0.4856082,29.00789,35.62227,-15.76652,1008.175
22.768591404,-14.03928,37.20865,-1.578719,-0.6502267,-0.5427527,0.4363301,29.03178,36.78841,-13.98698,1008.175
22.800760269,-1.200323,30.284,12.14957,-0.6633524,-0.5494115,0.4455557,28.67168,37.5731,-12.64992,1008.175
22.835408211,5.372732,21.16951,21.40392,-0.6591108,-0.5544058,0.430051,28.67168,37.5731,-12.64992,1008.173
22.867580414,25.21475,7.142662,27.1649,-0.616328,-0.4696944,0.4279401,29.43886,37.1926,-11.75937,1008.173
22.902228355,16.98308,-0.7881294,25.63272,-0.8564979,-0.6102574,0.4873443,30.19449,36.80073,-11.76138,1008.173
22.934401035,19.87031,-22.50903,20.66847,-0.7981997,-0.5702033,0.4948425,30.19449,36.80073,-11.76138,1008.172
22.969048977,26.19764,-38.31143,23.30381,-0.7412447,-0.5788353,0.4821899,31.70021,36.39244,-12.21353,1008.172
23.001217365,27.91769,-47.01162,32.43558,-0.66843,-0.4732753,0.5595006,32.05923,34.0197,-13.54283,1008.172
23.033390045,28.47057,-53.0485,38.19656,-0.6652129,-0.4512663,0.5832701,32.05923,34.0197,-13.54283,1008.172
23.068037987,22.26609,-53.99546,42.48665,-0.5989382,-0.4280224,0.6189932,32.40802,33.60477,-15.77431,1008.172
23.100210190,28.83915,-46.3014,45.24457,-0.6253799,-0.3482593,0.6859314,32.38,32.43457,-17.87262,1008.172
23.134858131,26.50479,-41.74416,40.52547,-0.5830993,-0.3003098,0.6999102,32.38,32.43457,-17.87262,1008.172
23.167030811,15.32446,-28.72346,40.28032,-0.6282047,-0.3032164,0.7345291,33.09993,30.48405,-20.54487,1008.172
23.201674461,13.60441,-22.44984,41.19962,-0.5988885,-0.301357,0.6798049,33.83244,30.06944,-22.332,1008.172
23.233847141,4.389845,-11.67817,41.75121,-0.6446426,-0.2672099,0.7354613,33.83244,30.06944,-22.332,1008.172
23.268495083,6.417048,-5.345376,48.67664,-0.6589056,-0.335424,0.755276,33.06372,28.16314,-23.21139,1008.17
23.300667763,-8.32625,-9.369956,62.52751,-0.5887176,-0.2991348,0.7857682,34.94738,27.74948,-23.66548,1008.17
23.335315704,1.072603,-2.622865,77.78797,-0.5914553,-0.2703794,0.7363849,34.94738,27.74948,-23.66548,1008.17
23.367487907,-4.578995,-5.108635,86.123,-0.561028,-0.2534112,0.6904508,34.94006,25.457,-24.10059,1008.172
23.402132034,1.748337,5.485482,94.1516,-0.56016,-0.1472036,0.7424104,37.21796,23.53049,-23.21033,1008.168
23.434304714,-11.15205,15.96123,92.12914,-0.6785346,-0.1918064,0.6727753,37.21796,23.53049,-23.21033,1008.166
23.468951702,22.14323,28.56764,87.53261,-0.6899093,0.1159588,0.7964005,38.72741,20.07881,-23.20132,1008.166
23.501124859,6.355618,28.98193,76.99123,-0.7705098,-0.08670214,0.7106499,40.9935,17.7598,-23.20176,1008.166
23.535772324,23.74043,32.53303,68.71749,-0.741205,0.154885,0.7128502,40.9935,17.7598,-23.20176,1008.17
23.567945480,9.427139,35.61065,64.24354,-0.7379665,-0.05847256,0.678767,42.52054,14.70631,-21.85577,1008.17
23.600113869,11.08576,36.38006,67.67561,-0.8155293,0.1024461,0.6625014,44.03602,11.64145,-21.40234,1008.168
23.634761810,-0.2174361,27.50231,70.37224,-0.8237788,0.01749613,0.5929521,44.03602,11.64145,-21.40234,1008.166
23.666934490,15.93876,20.4001,70.67867,-0.881448,0.1056389,0.6563948,45.18511,8.593336,-20.05441,1008.166
23.701582432,-2.674653,-1.912645,68.96264,-0.7787665,0.2750843,0.5401897,46.71292,6.683249,-18.714,1008.166
23.733754635,-53.84619,-3.51064,69.1465,-0.8286751,0.1712057,0.632825,46.72216,3.264417,-17.80469,1008.168
23.768402576,-77.18974,-15.34764,66.7563,-0.8468546,0.2987704,0.6726062,46.72216,3.264417,-17.80469,1008.168
23.800570965,-145.3161,-21.79881,55.11178,-0.811603,0.2774244,0.6966833,47.09304,1.347696,-18.2436,1008.168
23.835218906,-167.2467,-23.8111,23.54896,-0.7581895,0.2492778,0.7947627,47.08041,-0.2517297,-19.12841,1008.168
23.867391586,-171.6697,-17.35993,-22.84532,-0.7000012,0.2437391,0.869366,47.08041,-0.2517297,-19.12841,1008.168
23.902039528,-85.48285,-24.93562,-49.93418,-0.6653402,0.08496846,0.9477456,46.70329,0.9605614,-19.13237,1008.166
23.934212208,71.10327,-39.37676,-39.02509,-0.4931004,0.1512715,0.970785,45.94946,4.020366,-19.14339,1008.166
23.968859196,192.4283,-20.37837,-20.94542,-0.3012374,0.3463503,0.7112873,45.94946,4.020366,-19.14339,1008.166
24.001028538,111.3402,28.50845,-12.12009,-0.3213857,0.3947162,0.6130641,44.41588,5.924768,-20.93008,1008.166
24.035675526,-39.90148,81.30148,-30.19976,-0.469053,-0.06543539,0.4525526,43.65845,3.648705,-20.91505,1008.164
24.067848682,-47.02741,124.5065,-43.07003,-0.4379652,-0.47508,0.2850056,43.65845,3.648705,-20.91505,1008.164
24.100021362,45.05678,157.0583,-52.01794,-0.4191072,-0.5473096,0.1830143,44.0708,3.296312,-18.23743,1008.164
24.134669304,30.86635,164.1605,-47.4827,-0.8220589,-0.2732374,0.5317352,46.03474,4.485148,-12.57855,1008.163
24.166841984,2.854085,137.8824,-29.03531,-1.062596,0.02494605,0.3349622,46.03474,4.485148,-12.57855,1008.163
24.201485634,-12.07351,114.09,-34.30599,-1.37333,0.1518423,0.2882979,46.48826,6.458539,-6.851892,1008.163
24.233658314,-80.1384,75.20542,-31.85451,-1.10505,-0.03521328,0.2481025,46.93573,8.045111,-1.569655,1008.163
24.268306255,-51.69612,70.11551,-9.300884,-0.7142652,-0.1991649,0.1987605,46.93573,8.045111,-1.569655,1008.163
24.300478458,-40.9458,66.50523,2.404937,-0.9899241,-0.140719,0.2360365,46.98222,8.471724,1.998728,1008.163
24.335126400,-13.60927,58.10096,9.269084,-1.11706,-0.1741356,0.1636834,46.62708,9.261287,3.718309,1008.163
24.367299080,-23.92958,58.10096,14.8462,-0.9429176,-0.108408,0.2392382,46.62708,9.261287,3.718309,1008.164
24.401942253,5.12701,58.69281,25.01985,-1.109019,-0.1671551,0.1299259,46.67882,8.931316,7.736696,1008.164
24.434115410,-7.957668,55.79274,30.22925,-1.032523,-0.1067142,0.08633047,46.32374,8.578291,9.525612,1008.164
24.468762875,-7.036212,54.66823,30.29053,-0.9147744,-0.2821462,0.07173549,46.32374,8.578291,9.525612,1008.163
24.500936031,3.284097,69.52367,45.24457,-1.126518,-0.08915085,0.1003663,45.9668,6.699919,11.25822,1008.163
24.535583019,15.26303,76.15238,47.69605,-1.202532,0.1148755,0.07335564,46.00095,5.971762,13.93962,1008.161
24.567756176,21.95894,79.58511,50.63783,-1.152379,-0.05944677,-0.02976936,46.00095,5.971762,13.93962,1008.163
24.602399349,18.88742,86.09547,58.91157,-1.243158,-0.05268376,-0.09249046,45.27814,4.872396,16.563,1008.163
24.634572983,25.95192,81.36066,62.15979,-1.296388,0.1747859,-0.1489224,43.80503,2.265729,19.70773,1008.163
24.666745186,20.11603,80.76881,53.27317,-1.352527,0.1049664,-0.1754842,43.80503,2.265729,19.70773,1008.161
24.701393128,48.7426,74.79113,29.80024,-1.386681,0.2854749,-0.2040433,42.71085,1.114706,22.84338,1008.161
24.733565808,19.50173,43.719,-2.314163,-1.491914,0.1101753,-0.1563066,40.47551,-1.106587,25.48008,1008.161
24.768213749,10.47146,-6.173966,-57.77892,-1.139414,-0.1461506,-0.187255,37.86511,-0.2726313,28.16758,1008.161
24.800382137,42.16955,-17.95178,-57.10476,-0.9614315,0.1920823,-0.01887348,37.86511,-0.2726313,28.16758,1008.161
24.835029602,-6.299047,-39.73187,-43.13132,-0.8573789,0.2756948,0.1278548,37.48272,1.696242,27.71362,1008.161
24.867202759,-64.84223,-63.82017,-34.98014,-0.94648,0.1655847,0.2053803,36.35045,3.999149,27.70826,1008.161
24.901849747,-139.6645,-88.08603,-43.56033,-0.9968661,0.202883,0.2890619,36.35045,3.999149,27.70826,1008.159
24.934022903,-243.7276,-106.7293,-50.36319,-0.9490548,0.2660564,0.1406807,37.46141,4.341437,25.91547,1008.159
24.968670368,-261.051,-119.8684,-36.20589,-0.784969,-0.03698946,-0.2797962,38.1882,2.778554,23.7514,1008.159
25.000839233,42.78385,-93.47186,-8.688014,-0.8843783,-0.1485918,-0.1506128,38.1882,2.778554,23.7514,1008.158
25.035486698,119.6333,-89.50647,-15.3683,-0.9677535,0.3521205,0.02251084,39.6506,-1.925523,20.19606,1008.158
25.067659855,14.64872,-101.2251,-46.50211,-0.8474911,0.2699972,0.08770956,41.50093,-1.610214,17.12432,1008.156
25.102306843,-36.76853,-90.69017,-60.59812,-0.7879794,0.2367974,0.1008585,41.50093,-1.610214,17.12432,1008.156
25.134480476,-99.3047,-90.39424,-87.25799,-0.8000588,0.1247795,0.1694557,42.21188,0.2392372,13.5409,1008.156
25.166652679,-116.3823,-93.41268,-92.28352,-0.7973024,-0.0944104,0.1970249,43.6903,2.152844,10.84587,1008.154
25.201296806,-96.84747,-87.13907,-96.81876,-0.8066135,-0.2181563,0.1941637,43.6903,2.152844,10.84587,1008.15
25.233469009,-83.02563,-81.57568,-90.81263,-0.8062227,-0.2960644,0.1621877,44.41388,4.39561,8.216908,1008.15
25.268116951,-74.73253,-66.66105,-67.64613,-0.792337,-0.3191045,0.1416243,44.00281,6.653671,5.529993,1008.154
25.300289631,-60.66496,-51.50969,-41.29271,-0.7595043,-0.3447339,0.1121866,44.00281,6.653671,5.529993,1008.154
25.334937096,-36.15423,-29.01938,-3.907626,-0.6824394,-0.3166211,0.09386533,44.34871,9.28294,2.901106,1008.154
25.367110252,-37.32141,-8.541366,27.04232,-0.6329142,-0.2798984,0.1043099,43.96602,10.80716,2.449316,1008.154
25.401753426,-59.74351,17.08574,50.33139,-0.6187855,-0.2461399,0.08517644,43.96602,10.80716,2.449316,1008.153
25.433926582,-139.9102,45.79048,54.25376,-0.613473,-0.1698505,0.09973378,43.96576,10.42602,2.451178,1008.151
25.468573570,-216.8211,59.9357,66.38858,-0.7544293,-0.3048908,0.05800181,45.12662,8.912996,4.620466,1008.149
25.500746727,-200.542,52.47838,79.50401,-0.9182256,-0.5876276,-0.01702862,45.12662,8.912996,4.620466,1008.149
25.535394192,-80.32269,32.17792,86.55201,-0.8818873,-0.7668927,-0.0776495,44.40887,5.533326,7.765045,1008.149
25.567567349,18.82599,30.63911,78.15569,-0.9055536,-0.6578225,0.01505041,44.81149,0.5373121,9.955259,1008.147
25.602214337,27.24196,15.13264,49.16693,-1.032438,-0.5756236,0.2073018,44.81149,0.5373121,9.955259,1008.147
25.634383679,-31.8541,-2.0902,-1.885154,-1.020889,-0.6798344,0.2964689,44.06485,-2.870783,10.86843,1008.146
25.669031143,-100.779,-14.10476,-55.81773,-0.7972049,-0.7180511,0.3943225,44.44125,-5.162952,10.87767,1008.146
25.701204300,-121.9725,-22.44984,-95.89945,-0.7983891,-0.999598,0.3896024,44.44125,-5.162952,10.87767,1008.144
25.733376980,-59.37492,-43.99319,-119.1885,-0.6556393,-1.237877,0.36076,44.04654,-5.55496,9.606373,1008.14
25.768023968,59.49292,-52.10154,-159.3928,-0.01456128,-0.9617298,0.2664388,44.79215,-3.671399,8.700642,1008.139
25.800197124,153.6043,-34.8787,-177.2886,0.3136389,-0.6750199,0.33322,44.79215,-3.671399,8.700642,1008.137
25.834840298,172.7092,-49.0831,-168.0343,-0.02181083,-0.5830323,0.1496106,44.77161,0.1171967,6.896912,1008.139
25.867120266,201.2129,-56.06693,-139.1681,0.1366239,-0.4616257,0.07104922,44.74239,8.150414,4.17984,1008.139
25.901768208,185.1796,-20.91103,-84.62264,0.04725489,-0.2732086,0.08837843,42.42769,14.23041,0.2089024,1008.139
25.933940887,159.8088,-48.19532,-42.21201,-0.05983283,-0.2758139,0.1221322,42.42769,14.23041,0.2089024,1008.139
25.968588352,253.613,-13.1578,24.59084,0.2930804,-0.5062447,-0.453266,41.61216,18.75303,-4.654893,1008.14
26.000761032,372.7266,55.67437,120.1986,-0.4055546,0.1756065,-0.4126878,40.42082,19.09341,-9.113758,1008.14
26.035405159,303.3102,82.24844,153.9678,-0.6839471,0.4379383,-0.6253092,40.42082,19.09341,-9.113758,1008.14
26.067577362,117.4832,142.9723,106.7154,-1.253749,0.4105762,-0.7643358,41.5172,13.70815,-11.70744,1008.142
26.102225304,284.0211,212.7514,78.52341,-0.6079808,-0.3805147,-3.677074,43.06869,5.3464,-8.167747,1008.142
26.134397984,-145.2546,-51.33213,-37.73806,-15.87014,12.39648,3.111405,43.06869,5.3464,-8.167747,1008.143
26.169045925,-468.44,162.5033,-211.4868,-4.514678,-4.310403,-0.001146887,43.20893,0.4694525,2.950014,1008.149
26.201218128,214.359,-71.33667,-342.641,-3.3636,1.110988,-0.5480027,42.45703,-2.18206,3.413189,1008.158
26.233386993,-639.1552,-28.36835,-105.1538,2.412921,-2.469057,-0.08916825,42.45703,-2.18206,3.413189,1008.158
26.268034935,399.5717,114.3859,33.96775,-1.799762,0.2409962,0.3710959,41.69581,7.028033,2.479527,1008.159
26.300207138,-62.63074,18.56537,0.9953359,-0.7131632,0.03577254,0.3905949,39.83804,12.79949,4.628933,1008.166
26.334855080,-78.17263,48.8681,50.69911,-0.7670003,-0.8002676,0.1374211,39.83804,12.79949,4.628933,1008.168
26.367027760,29.57631,92.90174,65.16284,-0.245228,-0.4243141,0.2575977,39.84959,12.81086,5.521494,1008.171
26.401675701,-57.40915,120.3044,109.8411,-1.153707,0.1292013,0.01132222,41.02861,11.3157,9.09338,1008.171
26.433844090,-106.4921,149.1867,141.7103,0.2167954,-0.1121278,0.44143,41.02861,11.3157,9.09338,1008.176
26.468492031,-61.58642,191.0897,147.5326,-1.592006,-0.2069316,-0.2413728,39.94943,7.95764,13.51498,1008.176
26.500664711,-82.77991,231.2171,177.4407,-1.358886,-0.0934289,0.1511812,39.26976,2.330151,19.73093,1008.178
26.535312653,-43.40302,286.2592,240.2599,-1.804877,0.09729897,0.2383731,39.26976,2.330151,19.73093,1008.179
26.567484856,17.59738,343.136,243.3242,-1.679467,0.4664923,-0.5222766,35.56049,-3.704731,25.51825,1008.179
26.602132321,95.30685,357.0445,133.6817,-0.866767,1.127983,-0.7634783,27.32652,-11.12483,32.22846,1008.175
26.634301663,269.4621,211.8636,23.48767,-0.06465498,1.650729,-1.442899,27.32652,-11.12483,32.22846,1008.179
26.668948651,240.9584,267.0832,26.85846,1.131303,1.280445,-1.861026,14.87428,-15.43592,38.94538,1008.182
26.701121807,187.2068,444.7567,79.9943,0.06740163,-0.07108275,-1.445794,5.093184,-8.015007,42.08428,1008.182
26.735769272,-48.93176,304.9616,29.9841,-0.3201738,-0.1810422,0.9779997,5.093184,-8.015007,42.08428,1008.181
26.767942429,2.608363,165.1667,142.1394,1.148856,-0.8837781,0.1728397,-5.512097,0.8729571,39.86423,1008.181
26.800114632,304.4774,240.3316,217.5224,-0.4500814,-1.037963,-0.7109947,-18.84601,4.510806,36.40869,1008.182
26.834758759,248.2072,164.634,293.3344,-1.26382,0.9419663,0.161722,-18.84601,4.510806,36.40869,1008.182
26.866931438,-313.6354,-56.1853,158.5643,-0.9271538,0.5961695,0.7293092,-23.84147,9.832005,29.77732,1008.18
26.901578903,-553.3983,-253.9224,-31.91579,-0.0329274,-0.7093104,-0.9387175,-23.87214,24.27528,26.58265,1008.182
26.933751583,-19.9366,-156.9774,-24.74521,-0.3694507,-0.02518843,0.3227792,-19.2084,19.00493,36.78619,1008.182
26.968399048,-228.5543,-275.525,-22.47759,1.447904,1.165345,3.120873,-19.2084,19.00493,36.78619,1008.184
27.000572205,-27.55397,-5.759671,3.875826,-0.6569833,-0.008517547,-3.997454,-12.31984,10.93121,38.95778,1008.184
27.035215378,-195.6276,45.13944,-18.98423,0.3137738,0.2298604,-0.08878294,-9.2813,7.475119,40.2979,1008.189
27.067388535,-653.407,51.29468,14.11076,-0.2514997,-0.1820215,-0.4903375,-9.2813,7.475119,40.2979,1008.188
27.102035522,78.96637,-2.91879,20.48461,-0.4597302,0.1822643,0.164344,-10.03898,4.817921,40.31479,1008.194
27.134209156,-122.1568,35.4331,-44.96993,0.1617762,0.9620811,-0.5286237,-10.45691,-11.6574,38.16565,1008.194
27.168856144,-188.6859,-1.143239,-12.0588,-0.06665052,0.8553405,-1.237357,-10.45691,-11.6574,38.16565,1008.192
27.201029301,-102.0691,18.56537,17.35897,-0.06307238,1.240317,-1.288201,-11.97966,-12.02761,37.34644,1008.192
27.235672474,-131.3714,1.993566,37.89013,-0.0910354,0.6698572,-0.5065019,-11.6337,-16.63501,35.13543,1008.192
27.267845631,-107.4135,-13.39454,-15.06186,0.0135891,0.7343503,-0.5729803,-11.6337,-16.63501,35.13543,1008.19
27.300018311,-128.7913,-17.12319,-71.1395,-0.3831324,1.026478,-0.71147,-11.6536,-20.4634,33.81519,1008.19
27.334665775,-61.83214,-1.37998,-93.26411,-0.4952425,1.035187,-0.4095845,-11.68398,-23.92121,31.66429,1008.191
27.366838932,-197.9619,-31.97863,-75.3683,-0.4532836,1.377337,-0.5763371,-11.68398,-23.92121,31.66429,1008.193
27.401485920,-519.6116,-77.1368,-92.28352,-0.05929918,1.632536,-0.2732858,-9.83127,-27.41236,28.99369,1008.195
27.433655262,-696.7155,-26.65198,-144.0098,-0.3336573,0.9696398,-0.3711446,-7.321407,-32.97927,18.80581,1008.191
27.468302250,-656.2328,18.15108,-224.4183,-0.5331517,0.2718485,0.1527537,-7.321407,-32.97927,18.80581,1008.193
27.500475407,-445.4651,43.719,-236.0629,-0.4616522,-0.3181553,0.3520722,-3.461883,-42.85335,-3.674236,1008.193
27.535122872,-332.1259,103.7326,-244.0302,-0.5505338,-0.4793615,0.5385884,3.46349,-40.15966,-23.61723,1008.194
27.567296028,-198.1462,154.4542,-239.0046,-0.5701906,-0.8195976,0.3383471,3.46349,-40.15966,-23.61723,1008.194
27.601943016,-23.13098,185.4079,-215.8382,-0.7260204,-0.5681093,0.3722404,11.31038,-30.39443,-31.16579,1008.193
27.634111881,228.4266,164.1605,-198.4939,-1.150953,-0.2083552,0.677047,20.45035,-20.99583,-31.25904,1008.193
27.668759823,356.4475,116.0431,-213.5092,-0.9603097,0.02708892,0.4270514,20.45035,-20.99583,-31.25904,1008.193
27.700932026,444.3545,70.88492,-211.3642,-0.8578065,0.6752527,0.5808582,28.47023,-16.45619,-25.13781,1008.187
27.735579968,409.032,59.99488,-202.9066,-0.80768,0.5644776,0.0950678,33.86298,-17.57405,-17.25376,1008.193
27.767752647,394.6573,68.93182,-198.8616,-0.779406,0.9464769,0.4295689,33.86298,-17.57405,-17.25376,1008.187
27.802400589,306.3203,37.56376,-166.8698,-0.6736107,0.9768087,0.4028037,36.97754,-17.14653,-10.25811,1008.193
27.834568977,47.82115,73.3115,-123.6012,-1.039642,1.120021,-0.01868769,39.70133,-12.5366,-4.492332,1008.193
27.866742134,-276.5929,75.38298,-118.5757,-1.13854,-0.7129185,0.7142234,39.70133,-12.5366,-4.492332,1008.194
27.901389599,62.31873,99.7672,-72.30395,-1.049805,-0.635242,0.1438304,40.87811,-7.558989,-1.462112,1008.193
27.933561802,-48.13316,58.63363,-77.88107,-0.9437454,-0.04112702,0.3405385,41.66545,-3.729967,0.7468147,1008.189
27.968209743,6.232758,40.52301,-69.48475,-0.8560026,-0.3683566,0.1967602,40.95677,-1.006628,4.244148,1008.189
28.000382423,-44.26304,19.68989,-62.80446,-0.6662413,-0.02368463,0.1375811,40.95677,-1.006628,4.244148,1008.194
28.035026073,4.082693,12.1142,-46.74725,-0.8921344,-0.767028,0.2130907,40.97621,2.123017,5.567795,1008.194
28.067198753,-46.04453,-8.12707,-38.59608,-1.013556,-0.5874974,0.2532997,40.5993,3.652919,5.562284,1008.19
28.101846695,-4.640426,-14.87416,-25.72581,-0.8974887,-0.460072,0.2985751,40.5993,3.652919,5.562284,1008.19
28.134019375,-6.114756,-11.38225,-20.94542,-0.8430525,-0.4020683,0.3024014,40.60058,5.558587,5.55298,1008.192
28.168667316,3.65268,-9.251586,-6.91069,-0.7942082,-0.5173218,0.3053334,40.21712,5.939404,5.106773,1008.192
28.200839520,-4.394704,-7.594406,2.159789,-0.8103992,-0.5255045,0.2408291,40.21712,5.939404,5.106773,1008.192
28.235483646,-1.814627,-0.6105744,9.759379,-0.8038206,-0.4929983,0.3692476,39.83418,7.082488,4.656845,1008.194
28.267656326,9.488569,10.39784,17.42026,-0.8584874,-0.4501458,0.289135,39.45547,5.944456,4.66436,1008.194
28.302303791,1.809767,7.616142,23.54896,-0.8979204,-0.510235,0.2133337,39.45547,5.944456,4.66436,1008.194
28.334476471,3.529819,6.550812,26.49074,-0.8669005,-0.449244,0.274761,40.21738,6.320538,5.104912,1008.194
28.366649151,17.41309,-0.3738344,27.96163,-0.856445,-0.3219648,0.2959567,39.83315,5.557954,4.664288,1008.194
28.401297093,3.161237,-6.706631,31.3937,-0.8524833,-0.4079323,0.2282131,39.83315,5.557954,4.664288,1008.196
28.433465481,15.07874,-3.98412,35.56122,-0.9053858,-0.3402266,0.2880688,40.22765,4.426239,6.006777,1008.198
28.468113423,4.451275,-5.286191,44.1414,-0.8695552,-0.3841828,0.2758041,40.58774,3.64155,4.669724,1008.198
28.500286102,10.10287,-2.0902,42.85437,-0.9586173,-0.3037312,0.2657304,40.58774,3.64155,4.669724,1008.2
28.534933567,6.417048,-2.91879,46.89932,-0.9518592,-0.2989967,0.2546204,40.59249,2.1227,5.123446,1008.2
28.567106247,6.478479,-8.541366,47.81862,-0.9065498,-0.2432328,0.2768293,40.20218,0.9097764,4.238712,1008.2
28.601754189,2.608363,-18.72119,47.57347,-0.94839,-0.2743031,0.2490076,40.20218,0.9097764,4.238712,1008.201
28.633922577,8.567114,-15.17009,45.42843,-0.8703238,-0.2046598,0.3298293,40.96281,-0.6198096,4.688568,1008.207
28.668570519,9.55,-19.13548,42.7318,-0.9415116,-0.2095339,0.2812894,40.19383,-2.907243,3.811039,1008.205
28.700743199,6.048466,-10.96795,36.84824,-0.8793098,-0.1376213,0.3314298,40.19383,-2.907243,3.811039,1008.209
28.735391140,1.748337,-22.2131,33.84518,-0.9781793,-0.2089305,0.2729605,40.17655,-4.066886,2.541534,1008.211
28.767563820,-5.25473,-20.08244,25.32628,-0.9238991,-0.02158431,0.3699164,40.92562,-5.607842,2.098827,1008.211
28.802211285,4.819858,-26.88872,22.81352,-0.9813249,-0.2052827,0.3033859,40.92562,-5.607842,2.098827,1008.211
28.834380150,10.47146,-21.73962,12.27215,-0.8564975,0.05929932,0.4538222,40.54087,-7.132693,1.661924,1008.211
28.869028091,7.154213,-29.78879,1.853354,-0.9070396,-0.1108462,0.3868572,40.907,-7.530565,0.769289,1008.211
28.901200294,0.02828553,-23.3968,-5.623662,-0.8791189,-0.00264404,0.4631626,40.907,-7.530565,0.769289,1008.211
28.933372974,22.45039,-31.50515,-14.75543,-0.9460363,-0.08397962,0.3209266,40.51725,-7.917699,-0.1194763,1008.211
28.968020916,-11.09062,-35.17462,-17.63592,-0.9035982,-0.2418125,0.3370634,40.50544,-8.310202,-1.010178,1008.211
29.000193596,23.12612,-37.83795,-25.97095,-0.8841131,0.006426753,0.5032899,40.50544,-8.310202,-1.010178,1008.211
29.034837246,5.802744,-36.53588,-33.75441,-0.9005907,-0.2002797,0.5007756,39.74429,-7.542883,-1.456311,1008.209
29.067009926,45.60965,-42.92786,-45.46023,-0.8886609,-0.07638352,0.5248216,40.47809,-6.051826,-3.252745,1008.209
29.101657867,18.0274,-55.94856,-33.01896,-0.9160275,-0.3948056,0.441958,40.834,-5.697988,-4.977907,1008.209
29.133830071,87.75092,-61.63032,-33.81569,-0.7721376,-0.2235445,0.5249312,40.834,-5.697988,-4.977907,1008.211
29.168478012,111.0945,-63.34669,-21.80344,-0.8857456,-0.2002406,0.6413813,40.81191,-4.196193,-6.770473,1008.211
29.200650692,165.3375,-71.75096,-14.44899,-0.9307768,-0.3272823,0.6287041,40.78931,-3.456666,-8.559317,1008.213
29.235294342,224.8022,-99.44955,-0.9045619,-1.007193,-0.1662134,0.632673,40.78931,-3.456666,-8.559317,1008.215
29.267467022,259.3261,-104.5395,-3.968913,-0.8918977,0.02382046,0.6138839,40.38331,-3.47891,-10.72503,1008.215
29.302114487,236.1054,-88.08603,-1.517432,-0.8377976,0.3421621,0.4516416,39.5857,-5.413635,-13.83582,1008.215
29.334287644,152.3757,-56.1853,-2.007728,-0.8508558,0.34386,0.3486296,39.5857,-5.413635,-13.83582,1008.213
29.368934631,105.5043,-15.22927,1.853354,-0.9159023,0.440023,-0.06352622,38.81621,-8.463335,-14.70963,1008.213
29.401107788,7.399935,20.16337,-11.75237,-1.030086,0.6666831,0.1765516,38.43095,-10.75045,-15.14281,1008.213
29.435750961,-77.61976,43.95574,-21.19057,-0.9293311,0.9083225,0.6094751,38.43095,-10.75045,-15.14281,1008.213
29.467924595,-79.83125,73.54824,-30.81263,-0.9158198,0.4744666,0.6269802,38.8144,-11.13127,-14.69661,1008.213
29.500096798,-42.54299,83.43214,-23.02918,-0.9088342,0.1750212,0.3834466,39.59443,-9.594732,-12.92279,1008.209
29.534744740,5.495593,100.8917,-31.30293,-0.9766895,0.1593785,0.3882888,39.59443,-9.594732,-12.92279,1008.215
29.566917420,8.997127,110.7756,-21.0067,-1.043511,0.2927223,0.3278337,41.14131,-7.677243,-10.3259,1008.213
29.601565361,-43.21873,122.6718,-33.75441,-1.171709,0.3438196,0.2624533,41.95022,-6.112282,-6.320689,1008.213
29.633733750,-8.879124,100.9509,-50.48576,-1.191121,-0.04138919,0.4618985,41.95022,-6.112282,-6.320689,1008.207
29.668381214,43.39816,96.57121,-60.53683,-0.9764966,0.3223296,0.6229182,42.75227,-4.934951,-2.823649,1008.207
29.700554371,-47.08884,59.34385,-105.2151,-1.136647,-0.02553402,0.6649247,43.94542,-2.607407,1.62219,1008.209
29.735201359,61.76585,33.53918,-108.7697,-0.7512406,-0.6307057,0.4211236,43.94542,-2.607407,1.62219,1008.209
29.767374515,32.15639,45.49455,-110.8535,-0.5335448,-0.304589,0.6174726,43.58058,-0.3038678,2.505522,1008.208
29.802021980,-99.61185,28.80438,-100.1283,-0.1770521,-0.1577438,0.6924767,43.98368,3.968682,4.204176,1008.206
29.834190845,-92.42448,81.41985,-89.34174,0.2970774,-0.1298176,0.6540608,43.98368,3.968682,4.204176,1008.206
29.868838310,-209.5723,77.33608,-44.96993,0.4484346,0.2630905,0.5310498,43.6372,7.81381,6.418907,1008.206
29.901011467,-236.9088,68.28078,26.79717,0.01303962,-0.5726429,0.5754586,42.18471,11.32152,10.80895,1008.206
29.935658455,129.4622,47.56602,82.50707,-0.6362913,-0.9741391,0.2706919,41.10816,10.63221,15.28128,1008.206
29.967832088,-23.13098,45.13944,35.56122,-1.291119,0.3285893,1.043317,41.10816,10.63221,15.28128,1008.206
30.000004292,-181.7443,3.177266,22.8748,-1.224045,0.448084,0.7207367,41.12286,7.980517,16.56939,1008.206
30.034647465,-133.0914,2.171121,29.43252,-1.117486,-0.2558745,0.3268933,40.74994,6.84817,17.02319,1008.21
30.066820622,-13.73213,-14.69661,24.40698,-1.148394,-0.2656174,0.4283213,40.74994,6.84817,17.02319,1008.21
30.101468086,20.79177,28.92275,48.55407,-1.398652,0.1270606,-0.739293,40.75314,3.04252,17.48808,1008.206
30.133641243,-62.7536,-18.60282,42.11893,-1.450833,-0.4023088,0.5090643,40.75789,1.52367,17.9418,1008.208
30.168288708,61.52013,17.73678,38.19656,-1.368554,0.234935,0.1775965,40.75789,1.52367,17.9418,1008.209
30.200461865,-31.0555,-0.01872433,10.92383,-1.344607,0.1802051,0.2082518,41.5064,-0.8430746,17.50312,1008.209
30.235105038,-4.210413,-9.310771,-8.99445,-0.9946711,0.07375931,-0.02628677,40.7563,-0.8266528,17.95327,1008.213
30.267278194,-32.34554,-18.48445,-1.394858,-1.071373,-0.2533531,0.179956,40.7563,-0.8266528,17.95327,1008.213
30.301925182,19.74745,-8.718921,14.04947,-0.8650736,-0.2689962,0.1726,41.13398,-1.213155,17.9532,1008.215
30.334098339,16.98308,3.354821,24.16183,-0.9745551,0.1129273,-0.03241756,41.50589,-1.605341,17.50684,1008.213
30.368745804,-11.15205,-11.44143,12.76244,-1.025849,-0.06098987,0.1035151,41.50589,-1.605341,17.50684,1008.213
30.400918484,18.21169,-8.363811,1.914641,-1.017834,0.1413287,-0.02792359,41.49433,-1.616711,16.61428,1008.213
30.435562134,-22.20952,-30.38064,-9.239597,-1.045896,-0.167274,0.09222199,41.11588,-2.37361,16.61994,1008.213
30.467734814,27.79483,-23.8111,-9.791181,-0.9776884,0.02418727,0.102322,41.11588,-2.37361,16.61994,1008.212
30.502382755,-3.104666,-25.29072,-5.194654,-1.0079,-0.1511203,0.1344166,41.85551,-2.019456,15.33912,1008.217
30.534554958,16.18448,-29.96634,-2.498024,-0.9220447,-0.06989018,0.1492271,42.22741,-2.411643,14.89277,1008.217
30.566728592,4.328414,-32.097,-0.9045619,-0.9913155,0.07260817,0.1414082,42.22741,-2.411643,14.89277,1008.217
30.601375580,-6.606199,-39.67268,-4.765644,-1.072117,-0.06845122,0.1761853,42.21008,-2.428697,13.55393,1008.217
30.633544922,14.403,-38.60735,-10.6492,-0.9883775,-0.01008753,0.182633,42.57145,-1.30772,12.20757,1008.216
30.668191910,15.07874,-40.73801,-15.73602,-1.022034,0.04998129,0.2716482,42.57145,-1.30772,12.20757,1008.217
30.700365067,12.43723,-39.14002,-17.88107,-1.023618,-0.02551954,0.2358546,43.31,-1.335512,10.86486,1008.217
30.735012531,11.08576,-36.12158,-20.02611,-0.9951609,-0.002793307,0.2430064,43.67664,-0.9711165,9.968504,1008.217
30.767184734,3.345528,-35.52973,-20.88413,-1.042773,-0.09037297,0.3106906,43.67664,-0.9711165,9.968504,1008.217
30.801832676,14.403,-34.76033,-18.98423,-1.094009,0.0336411,0.3092991,43.65538,0.5314904,8.239693,1008.217
30.834001541,-11.09062,-37.2461,-24.56135,-1.133945,-0.06135121,0.3648005,44.39393,0.5036987,6.896984,1008.217
30.868652344,8.689975,-40.32372,-25.23551,-0.9962465,-0.01843714,0.3537475,44.39393,0.5036987,6.896984,1008.217
30.900825977,13.48155,-42.04008,-13.16197,-1.136542,0.02016643,0.4228547,44.75561,2.069332,5.548454,1008.217
30.935472965,112.2617,-55.4159,72.9463,-1.282779,1.735883,0.9483193,44.35506,2.814228,3.761545,1008.217
30.967646122,-490.4321,-106.5518,-45.33765,-1.686151,0.04402151,-0.3001214,44.35506,2.814228,3.761545,1008.216
31.002293587,-128.1156,-54.76486,-75.30701,-0.8582339,-0.9601904,-0.01487585,44.69968,3.537829,1.14196,1008.216
31.034462452,173.3235,-7.239296,-33.93827,-1.359675,0.1997145,0.1478213,45.04873,3.504036,-1.091376,1008.214
31.066635132,100.897,-25.82339,11.84314,-1.331521,0.6382194,0.3825334,45.04873,3.504036,-1.091376,1008.214
31.101282597,-13.91642,-23.51517,17.78798,-1.191728,0.004035028,0.3094848,45.03345,6.536049,-2.445105,1008.214
31.133455753,58.0186,-10.3761,48.06377,-1.403493,-0.440814,-0.1110641,44.63297,6.138357,-4.162679,1008.214
31.168102741,74.29765,12.70605,83.67152,-1.119669,0.2669972,0.2786863,45.38281,5.740802,-4.610966,1008.21
31.200275898,-100.0419,27.56149,110.883,-1.216322,0.297431,0.2605591,45.38281,5.740802,-4.610966,1008.21
31.234919071,-203.3678,22.11647,128.7175,-1.33657,-0.2928531,0.1739109,45.7752,2.702608,-3.322927,1008.207
31.267092228,-173.144,29.92889,158.7481,-1.307762,-0.4867798,0.09540543,45.40042,-1.161196,-2.855794,1008.207
31.301739693,-121.2354,33.00651,182.4049,-1.342789,-0.4787699,0.1044743,45.40042,-1.161196,-2.855794,1008.205
31.333912850,-95.18886,36.14332,189.4529,-1.355974,-0.4482851,0.1467826,45.0307,-6.099193,-1.937109,1008.203
31.368560314,-83.27135,38.92501,185.8983,-1.255411,-0.521287,0.1862124,43.51431,-12.93812,-1.89588,1008.2
31.400733471,-45.67594,41.7659,177.931,-1.111404,-0.5930046,0.1683714,43.51431,-12.93812,-1.89588,1008.196
31.435376644,-34.00417,49.69669,165.7349,-0.8987158,-0.4110462,0.3611687,40.48141,-18.23673,-2.300639,1008.193
31.467548847,-90.33585,57.86422,144.6521,-0.6498099,-0.1884011,0.3144097,37.83172,-24.29728,-2.25733,1008.193
31.502196789,-187.3345,52.4192,105.4284,-0.4466913,-0.1691088,0.4924593,37.83172,-24.29728,-2.25733,1008.191
31.534369469,-210.9852,40.28627,84.77469,-0.2728775,-0.299972,0.5659145,34.79934,-28.83362,-2.665812,1008.188
31.569017410,-116.1366,24.18795,78.46213,-0.1907697,-0.4577596,0.4245496,32.48424,-31.89515,-6.145812,1008.18
31.601190090,3.038376,26.55535,76.01064,-0.2819289,-0.4649191,0.3814793,32.48424,-31.89515,-6.145812,1008.177
31.633358956,93.70966,26.25942,74.60104,-0.5134668,-0.3238179,0.402637,30.55962,-32.28355,-8.811965,1008.177
31.668006420,146.0484,41.23323,61.54692,-0.6474633,0.02903319,0.3142523,28.69144,-34.58429,-7.005699,1008.179
31.700179577,111.4631,45.90885,31.70013,-0.8347389,0.2900785,0.4343137,28.69144,-34.58429,-7.005699,1008.173
31.734826565,60.6601,27.56149,-2.559312,-0.8502333,0.244811,0.4707171,27.61907,-36.41213,-2.145261,1008.171
31.766999721,34.55218,20.99195,-16.47146,-0.7652641,0.4721658,0.4255266,25.78061,-37.47752,1.886515,1008.174
31.801647186,-15.14503,9.746803,-34.98014,-0.6938734,0.3883597,0.3668116,25.78061,-37.47752,1.886515,1008.172
31.833815575,6.785631,13.7122,-37.0639,-0.6223533,0.347188,0.3609849,26.9315,-37.85771,3.221416,1008.172
31.868463516,27.54911,15.60612,-38.90252,-0.6321153,0.3960376,0.3952186,27.69311,-36.72017,3.594494,1008.168
31.900636196,61.02869,14.30405,-28.85144,-0.5732868,0.4395129,0.4061141,27.69311,-36.72017,3.594494,1008.167
31.935284138,60.35295,19.86744,-21.12928,-0.726332,0.4540195,0.3633178,28.46132,-35.57613,4.477604,1008.165
31.967456341,72.20902,23.1818,-25.17422,-0.7662243,0.4438413,0.1505624,29.24608,-35.55845,6.705139,1008.159
32.002104282,133.0866,33.95347,-23.09046,-0.8560027,0.4506971,-0.02543719,29.24608,-35.55845,6.705139,1008.159
32.034273148,196.237,47.56602,-49.19873,-1.163669,0.4019483,-0.3772379,30.03244,-33.19044,8.9212,1008.159
32.068920612,192.7969,53.24779,-78.92295,-1.238799,0.60875,-0.3584439,30.8576,-31.99037,14.20336,1008.159
32.101093292,183.6438,27.85742,-67.21712,-1.182455,0.9256726,-0.1365652,30.93446,-28.10594,19.92265,1008.159
32.133265972,126.3906,-15.28846,-37.79935,-0.9310272,0.9650699,-0.0267626,30.93446,-28.10594,19.92265,1008.157
32.167913914,-25.28105,-20.97022,-6.29782,-0.841157,0.8181746,0.05360972,32.501,-22.7412,23.84163,1008.159
32.200086594,-159.4451,-36.12158,15.09135,-1.011567,0.6226383,0.07865177,33.63192,-19.71311,23.43842,1008.159
32.234730244,-240.0418,-53.58116,21.40392,-0.9471453,0.4431066,-0.1244232,33.63192,-19.71311,23.43842,1008.157
32.266902924,-217.3125,-37.42365,19.44273,-0.8598058,0.1233594,-0.4941938,33.9508,-21.68099,18.98298,1008.157
32.301550865,-131.0028,-24.75806,33.35489,-0.6382536,-0.01168706,-0.4289305,34.99543,-26.73629,12.37092,1008.157
32.333723068,-54.58335,4.065042,34.94835,-0.692829,-0.03511245,-0.2917265,34.99543,-26.73629,12.37092,1008.157
32.368371010,28.16341,7.142662,42.97695,-0.7650254,0.1933284,-0.1084198,34.18708,-28.68158,8.431318,1008.157
32.400543690,5.618453,24.30632,26.49074,-0.7664645,0.3133208,-0.221651,33.42992,-30.57651,8.444489,1008.155
32.435187340,-53.60046,22.11647,3.079095,-0.8870552,0.2527519,0.09179257,33.42992,-30.57651,8.444489,1008.152
32.467360020,-57.83916,-9.133216,-1.640006,-1.141746,0.320155,0.2971646,32.30111,-31.69811,8.902155,1008.152
32.502007961,-12.38066,-20.31918,-8.259005,-1.177172,0.3902577,0.1125032,32.28377,-31.71517,7.563313,1008.153
32.534180641,24.17044,5.426297,-16.83919,-1.34219,0.7293941,0.1139469,32.28377,-31.71517,7.563313,1008.153
32.568827629,-51.26611,-2.44531,-29.09659,-1.310272,0.5002426,0.1903258,33.02809,-31.73728,6.666883,1008.155
32.601000786,-33.63558,-17.06401,-16.34889,-0.758472,0.1856007,0.1526991,33.39499,-30.99175,5.768667,1008.157
32.635643959,4.451275,6.254887,-5.133366,-0.4118722,0.08980858,0.03877936,33.39499,-30.99175,5.768667,1008.153
32.667817116,54.02562,57.74585,9.085222,-0.7830235,0.4065375,0.08582367,34.90123,-30.63778,5.31279,1008.153
32.699989796,33.56929,40.1679,1.485632,-1.220171,0.5388014,0.150279,34.15113,-30.62136,5.762938,1008.153
32.734637737,21.4675,25.13491,-4.581783,-1.232376,0.4746175,0.06454986,34.15113,-30.62136,5.762938,1008.153
32.766810417,-6.114756,14.71834,-5.746236,-1.056036,0.3033132,-0.006469737,33.42414,-30.58219,7.998209,1008.153
32.801457405,19.4403,6.787552,-0.3529787,-0.7332608,0.3120575,0.01372651,33.81967,-30.18937,9.333256,1008.154
32.833626747,32.83213,21.76136,7.798195,-0.8061683,0.3843293,-0.1026053,33.81967,-30.18937,9.333256,1008.154
32.935094357,8.689975,5.899777,1.424345,-0.9545413,0.3830739,-0.04628319,33.47005,-29.77526,11.50098,1008.158
32.967267513,6.847062,3.828301,1.975928,-0.9134204,0.4100677,-0.04403435,33.09738,-30.52647,11.95291,1008.156
33.001914978,3.222667,1.224161,3.262956,-0.9091186,0.3785319,-0.03951448,32.33598,-30.14029,11.50864,1008.157
33.034083843,16.30734,-3.214715,2.159789,-0.9216715,0.4236895,-0.04529106,32.33598,-30.14029,11.50864,1008.161
33.068731308,3.65268,-6.825001,-1.088423,-0.824832,0.4795007,-0.04669856,32.73151,-29.74747,12.84369,1008.161
33.100903511,-1.568905,-5.700486,-0.9658489,-0.7895951,0.3953147,-0.05205938,32.73151,-29.74747,12.84369,1008.161
33.135551453,14.28014,3.118081,-0.04654358,-0.8899962,0.3717872,-0.08361047,32.34779,-29.74778,12.39934,1008.163
33.167724133,21.83608,-3.214715,-2.865747,-0.9229132,0.4378852,0.03243947,32.34779,-29.74778,12.39934,1008.163
33.199897289,18.27312,-4.635156,-6.726829,-0.9481304,0.4140517,-0.05331761,32.35383,-29.36097,12.84376,1008.163
33.234540463,14.52586,-3.86575,-10.22019,-0.8880956,0.4118297,-0.05100412,33.49342,-29.37139,13.28424,1008.164
33.266713619,18.94885,-1.320795,-12.36524,-0.8781978,0.401268,-0.02949358,33.49342,-29.37139,13.28424,1008.164
33.301361084,20.97606,-2.56368,-14.93929,-0.8936846,0.4459513,-0.03572869,33.49368,-28.99025,13.28238,1008.16
33.333533764,13.54298,1.579271,-16.41018,-0.9391592,0.3992251,-0.08196153,33.50575,-28.21662,14.17122,1008.162
33.368181229,4.512706,-3.86575,-18.06493,-0.9057836,0.406972,-0.0629291,33.50575,-28.21662,14.17122,1008.164
33.400353909,-2.24464,0.2180157,-21.37443,-0.8693312,0.3650694,-0.0602407,33.88998,-27.45403,14.61185,1008.162
33.434998036,7.277074,7.438587,-28.17729,-0.8984743,0.3541796,0.01947137,34.6406,-26.70819,14.15797,1008.164
33.467170239,16.73736,5.958962,-34.79628,-0.955609,0.3437888,0.01991883,34.6406,-26.70819,14.15797,1008.164
33.501818180,13.11296,2.703786,-39.08638,-0.9224132,0.3286445,0.02864222,35.39699,-25.95666,14.15038,1008.165
33.533990860,20.48461,2.230306,-43.92805,-0.9708088,0.2428073,-0.05596375,35.78148,-24.81294,14.58915,1008.165
33.568638802,30.12919,-5.345376,-46.44082,-0.9730433,0.3498378,-0.02517657,35.78148,-24.81294,14.58915,1008.165
33.600811005,10.3486,-14.10476,-55.021,-0.9338095,0.3116558,-0.04176342,36.54417,-23.29346,15.02412,1008.165
33.635455132,16.06162,-17.8926,-64.70436,-0.9574159,0.2014271,-0.1263198,37.67876,-22.16616,15.01273,1008.165
33.667627812,8.07567,-14.45987,-71.01692,-0.9833399,0.2149659,-0.02378239,37.67876,-22.16616,15.01273,1008.167
33.702274800,11.63863,-27.53975,-81.00671,-0.9218257,0.1788634,0.05487591,38.80886,-19.13889,14.54577,1008.167
33.734447956,-9.984871,-40.44209,-89.77075,-0.9420975,0.1612769,0.09010604,39.55999,-17.63077,14.08817,1008.167
33.766620636,-23.19241,-43.28297,-103.3765,-0.8934888,-0.04982554,-0.06295371,39.55999,-17.63077,14.08817,1008.169
33.801268578,3.468389,-21.20696,-107.0537,-0.791735,-0.101285,-0.1245773,41.43467,-14.24447,12.72292,1008.169
33.833436966,8.812835,-4.161675,-107.544,-0.9585581,-0.1125183,-0.0522594,42.92563,-10.85848,10.91331,1008.169
33.868084908,-15.32932,-7.476036,-111.3438,-1.030413,-0.1133496,0.1084281,42.92563,-10.85848,10.91331,1008.167
33.900257587,-24.48245,1.401716,-110.3019,-0.9472941,-0.2990829,-0.1315045,43.30036,-7.058198,10.44649,1008.168
33.934904575,5.004149,12.46931,-100.067,-0.9898948,-0.379314,-0.05175649,43.67536,-2.876784,9.977808,1008.168
33.967077732,7.707087,2.703786,-91.97709,-1.057215,-0.449597,0.04324616,43.67536,-2.876784,9.977808,1008.167
34.001725197,-6.237617,-8.482181,-83.27433,-0.9647872,-0.4377868,0.06079706,44.81783,1.368786,10.39751,1008.167
34.033894539,-11.82778,-7.535221,-72.5491,-0.8999763,-0.5082359,-0.03245039,44.05404,5.561434,9.552101,1008.165
34.068541527,-11.64349,-10.13936,-61.08842,-0.8946401,-0.5726061,-0.005074876,44.05404,5.561434,9.552101,1008.167
34.100714207,-13.11782,-15.28846,-52.81467,-0.8487254,-0.5452687,0.04485001,43.30022,8.621239,9.541082,1008.167
34.135362148,-27.86112,-17.24156,-45.95052,-0.7455866,-0.5383702,0.06177847,43.67862,10.52073,9.466091,1008.17
34.167534351,-17.7251,-11.14551,-40.49598,-0.7213587,-0.6280704,0.02659094,43.67862,10.52073,9.466091,1008.17
34.202182293,-0.2788665,-7.239296,-35.83817,-0.784564,-0.6125519,0.04707063,42.91959,13.19452,9.074406,1008.17
34.234350681,-5.807604,-5.700486,-33.01896,-0.7662894,-0.5887478,0.06155633,42.16449,14.34866,9.072693,1008.17
34.268998623,-5.807604,0.0996457,-27.25798,-0.7564487,-0.628338,0.03221816,41.77576,15.48606,8.176483,1008.17
34.301171303,-2.858944,2.111936,-23.02918,-0.7671097,-0.644658,0.04905308,41.77576,15.48606,8.176483,1008.17
34.333343983,-7.220503,3.177266,-19.10681,-0.7667432,-0.6544422,0.039329,41.40463,17.02165,8.617254,1008.17
34.367991924,-7.834807,5.781407,-13.89741,-0.7792598,-0.6773974,0.01274658,41.03298,17.79497,9.061747,1008.168
34.400164127,-0.03314489,8.267178,-8.749301,-0.765791,-0.6989197,-8.851534E-05,41.03298,17.79497,9.061747,1008.168
34.434808254,4.389845,9.628433,-4.704357,-0.7553971,-0.6722414,0.004372431,41.41118,18.17073,9.057953,1008.168
34.466980934,3.345528,10.27947,-1.823867,-0.7654219,-0.6468421,0.01865335,40.66025,18.18634,9.444347,1008.169
34.501628399,0.3354376,8.326363,-1.394858,-0.7586169,-0.6502854,0.01711547,40.66025,18.18634,9.444347,1008.169
34.533801079,2.301211,7.320217,-2.37545,-0.7379336,-0.6443766,-0.02158877,41.41721,18.55755,9.502373,1008.169
34.568449021,7.829948,6.550812,-3.601191,-0.7712988,-0.6564661,-0.03728309,40.66629,18.57316,9.888767,1008.169
34.600621700,13.11296,3.118081,-5.746236,-0.7578145,-0.6625001,-0.05577464,40.66629,18.57316,9.888767,1008.171
34.635264874,9.795722,-3.62901,-6.175246,-0.7531173,-0.6076385,0.01211374,40.2886,18.95967,9.88884,1008.171
34.667438030,-2.920374,-12.86187,-7.400986,-0.7047407,-0.6518238,0.04118204,40.29438,18.96535,10.33512,1008.171
34.702085018,6.478479,-17.83341,-9.423458,-0.7242746,-0.7334256,0.0209296,40.29438,18.96535,10.33512,1008.171
34.734258175,10.77861,-21.08859,-11.75237,-0.7810727,-0.6917683,0.036263,39.9054,19.72161,9.440771,1008.171
34.768905640,15.38589,-23.92947,-13.77484,-0.8188937,-0.7193683,0.02048239,41.03427,19.70064,9.052443,1008.171
34.801078796,23.86329,-25.58665,-16.65533,-0.8543355,-0.6817912,0.02401488,41.03427,19.70064,9.052443,1008.169
34.833247185,19.256,-29.55205,-21.80344,-0.7989019,-0.6049137,0.02123941,39.87785,20.45627,7.269402,1008.169
34.867894649,4.451275,-32.74804,-25.66452,-0.733079,-0.5719632,0.05656483,39.86655,20.82603,6.374979,1008.171
34.900067806,-9.80058,-33.2807,-27.07412,-0.6939213,-0.5614111,0.06544442,39.86655,20.82603,6.374979,1008.171
34.934714794,-12.19637,-29.61123,-25.90967,-0.6253058,-0.5856596,0.1123222,39.46601,21.57093,4.58807,1008.171
34.966887474,-28.16827,-31.38678,-25.90967,-0.6047937,-0.6297886,0.1937069,39.46679,22.71433,4.582487,1008.171
35.001535416,-54.46049,-35.58892,-26.2161,-0.6034867,-0.8131739,0.2056789,39.46679,22.71433,4.582487,1008.171
35.033703804,-39.71719,-34.10929,-23.09046,-0.5836014,-0.9385542,0.1355338,38.69986,23.47596,3.690073,1008.169
35.068351746,-11.88921,-23.10088,-13.83612,-0.6074238,-0.8566312,0.1065475,38.70063,24.61936,3.68449,1008.169
35.100524426,-0.7088794,-13.98639,-9.055737,-0.6687618,-0.8175045,0.1055144,38.70063,24.61936,3.68449,1008.169
35.135172367,16.6145,-6.765816,-6.29782,-0.6528139,-0.8128905,0.08467761,38.31718,25.00018,3.238283,1008.171
35.167345047,41.98526,0.7506809,-2.865747,-0.6179526,-0.7978776,0.1027921,37.93975,25.76782,3.236496,1008.171
35.201992512,29.82203,-2.0902,-4.949505,-0.6536692,-0.7229069,0.1717053,37.93975,25.76782,3.236496,1008.169
35.234161377,12.25294,-4.931081,-3.846339,-0.5906349,-0.701867,0.1712906,38.30118,25.74621,1.959475,1008.169
35.268809319,-7.711946,-7.357666,-4.397922,-0.5721795,-0.7112272,0.1652573,38.66757,25.72947,1.06498,1008.169
35.300981522,-8.26482,-10.13936,-5.684949,-0.5082219,-0.8043251,0.155699,37.91143,25.35907,1.070707,1008.169
35.335628986,-1.446044,-14.69661,-3.907626,-0.555927,-0.8248108,0.2379151,37.91143,25.35907,1.070707,1008.169
35.367802143,10.3486,-12.68432,2.098502,-0.5883086,-0.8180017,0.1558515,37.90694,27.25906,0.6151218,1008.165
35.399974823,7.215644,-10.13936,4.61127,-0.6603419,-0.8005453,0.1701635,37.91195,26.12134,1.066986,1008.165
35.434618473,4.205554,-4.990266,3.446817,-0.6808585,-0.869092,0.1427979,37.91195,26.12134,1.066986,1008.165
35.466791153,23.06469,6.491627,-5.746236,-0.655406,-0.9039651,0.1687829,37.90064,26.4911,0.1725636,1008.165
35.501438141,31.91067,33.30244,-24.43878,-0.6290351,-0.859665,0.2657839,37.90013,25.72884,0.1762848,1008.165
35.533611298,27.48768,44.96189,-38.22836,-0.5488971,-0.8315093,0.3809482,37.90013,25.72884,0.1762848,1008.167
35.568258762,33.9993,46.61907,-65.0108,-0.4776408,-1.133936,0.2958501,38.27884,26.86687,0.1687698,1008.171
35.600431919,142.854,50.11098,-97.67678,-0.3501565,-1.386735,0.1995506,37.16338,28.42456,1.505968,1008.171
35.635075092,247.1014,33.36162,-129.3009,-0.3857705,-1.134201,0.1947348,37.16338,28.42456,1.505968,1008.167
35.667247772,303.986,16.73063,-141.8034,-0.3732412,-0.7790973,0.1782654,34.48417,29.95257,-1.16562,1008.171
35.701895714,290.287,1.520086,-138.0649,-0.3691045,-0.3449216,0.4025619,30.99315,32.9598,-8.239837,1008.167
35.734067917,201.5201,-11.20469,-123.5399,-0.3958299,0.1091254,0.6032103,30.99315,32.9598,-8.239837,1008.167
35.768715858,26.25907,-22.86414,-101.9669,-0.2755248,0.01443098,0.737713,26.34969,34.06043,-16.63779,1008.168
35.800888538,-41.37581,-8.067885,-63.04961,-0.2114047,-0.3471593,0.5288019,23.28763,34.44634,-19.62063,1008.168
35.835532188,-28.53686,18.56537,-6.788116,-0.1000582,-0.3204812,0.4094109,23.28763,34.44634,-19.62063,1008.17
35.867704868,-63.18361,32.47385,28.69707,-0.348222,-0.5144044,0.5306277,20.28247,36.03087,-18.27377,1008.168
35.899877548,-131.6171,5.248742,23.8554,-0.591647,-1.072979,0.6372261,19.53733,36.05217,-17.44109,1008.168
35.934525490,-152.5648,-9.310771,4.61127,-0.2396876,-1.603794,0.3842281,19.53733,36.05217,-17.44109,1008.17
35.966697693,23.86329,10.57539,2.404937,0.102531,-1.391074,0.1803488,21.10056,36.5257,-13.49823,1008.17
36.001345634,106.18,26.20024,39.85131,-0.3763413,-0.4018334,0.3819163,20.36883,38.08371,-11.71668,1008.17
36.033514500,42.10812,62.3031,88.20676,-0.4524807,0.1411727,0.001503763,20.36883,38.08371,-11.71668,1008.168
36.068161964,-168.1068,52.30083,79.50401,-1.009453,-0.5677711,0.6742095,21.86192,36.076,-13.05364,1008.17
36.100334644,22.75754,-51.74643,24.46827,0.173838,-2.924881,0.3487524,24.91825,34.54181,-10.44774,1008.172
36.134982109,343.8543,137.3497,115.4182,-0.081774,-0.4758877,0.9767185,24.91825,34.54181,-10.44774,1008.172
36.167155266,111.5245,28.03497,121.9759,-0.649943,0.06479116,1.047691,26.41902,34.12865,-11.28242,1008.172
36.201802254,-276.5314,70.05633,43.77368,-0.2223688,-0.4091378,1.170898,30.13203,29.81996,-16.19038,1008.172
36.233971596,-314.864,6.550812,-17.94235,-0.631503,-0.6392851,1.085577,30.13203,29.81996,-16.19038,1008.172
36.268618584,-350.1865,-75.24288,-25.23551,1.070393,-1.110683,0.4695769,31.69951,26.80626,-11.72042,1008.172
36.300791264,-221.7355,42.00264,26.73589,0.4604171,-0.3918432,-0.04948669,32.94249,28.42108,-3.381845,1008.166
36.335439205,-265.474,27.1472,-110.8535,-0.7808905,-2.10507,-0.7687612,32.68558,29.30729,5.924505,1008.166
36.367611885,158.0887,33.65755,1.11791,-0.1424111,-1.194727,-0.2591865,32.68558,29.30729,5.924505,1008.164
36.402259827,100.4056,-1.49835,1.853354,0.1480669,0.02926563,-0.02430251,30.0967,29.01977,10.33895,1008.164
36.434428215,-128.1156,73.37069,46.83803,-0.1256641,0.3445671,-0.2885866,30.07962,29.38385,8.998253,1008.164
36.466600895,-176.1541,87.87102,82.07806,-0.4330508,-0.4832541,-0.5205288,30.07962,29.38385,8.998253,1008.164
36.501248360,-62.26215,107.3429,126.3273,-0.7406335,-0.3532681,-0.5421331,30.53217,28.69011,14.80169,1008.164
36.533421040,-62.93789,129.3005,136.5622,-1.027955,0.02049295,-0.5354068,30.97475,23.03515,20.11928,1008.164
36.568068981,-80.07697,134.7456,129.3917,-1.082598,-0.6115458,-0.5184175,30.97475,23.03515,20.11928,1008.164
36.600241661,70.61183,107.047,126.8176,-1.146545,-0.6378427,-0.5079156,31.42916,17.77269,26.32757,1008.167
