Time (s),Gyroscope X (deg/s),Gyroscope Y (deg/s),Gyroscope Z (deg/s),Accelerometer X (g),Accelerometer Y (g),Accelerometer Z (g),Magnetometer X (uT),Magnetometer Y (uT),Magnetometer Z (uT),Barometer (hPa)
0.008200169,0.1265746,-0.6114836,-0.315609,0.4199139,-0.09108824,0.9091756,-30.69162,14.07919,-32.50395,1007.809
0.042847633,-0.7334512,-0.1971886,-0.009173895,0.4232665,-0.08971208,0.9009618,-30.69162,14.07919,-32.50395,1007.809
0.075020313,0.6180179,-0.1380036,0.2359742,0.4295675,-0.09606897,0.8989226,-31.07559,13.69774,-32.94643,1007.809
0.109667778,0.6794483,0.1579215,0.05211313,0.4173968,-0.08824486,0.8986186,-31.44749,14.08993,-32.50008,1007.807
0.141839981,0.1265746,-0.01963352,-0.009173895,0.4149934,-0.08529802,0.9015573,-31.44749,14.08993,-32.50008,1007.807
0.174012661,0.2494354,0.2171065,-0.193035,0.4149833,-0.08579081,0.9005893,-31.0693,14.46569,-32.50388,1007.807
0.208660126,0.06514417,-0.1380036,-0.376896,0.4174335,-0.09207997,0.9048526,-30.69714,14.45464,-32.95209,1007.807
0.240832329,0.3722962,-0.3747436,-0.376896,0.4149895,-0.088203,0.9024974,-30.69714,14.45464,-32.95209,1007.809
0.275480270,-0.1805775,-0.4339286,-0.009173895,0.4222661,-0.08779514,0.8971309,-30.70343,13.68669,-33.39465,1007.807
0.307652950,0.4951571,-0.1971886,0.05211313,0.4174088,-0.08533249,0.8986425,-30.69714,14.45464,-32.95209,1007.807
0.342299938,0.7408787,-0.1380036,0.05211313,0.4208367,-0.08630572,0.9005305,-30.69714,14.45464,-32.95209,1007.807
0.374472618,0.003713749,-0.07881854,-0.07046092,0.4213045,-0.08826084,0.899064,-30.70317,14.06782,-33.39651,1007.807
0.409119606,-0.2420079,0.2171065,-0.009173895,0.4198629,-0.08678249,0.9010177,-31.07508,14.46001,-32.95016,1007.809
0.441292286,0.2494354,-0.01963352,-0.07046092,0.4203346,-0.08776683,0.8995591,-31.07508,14.46001,-32.95016,1007.807
0.475939751,0.5565875,-0.01963352,-0.009173895,0.4203345,-0.08679973,0.8990851,-30.69765,13.69237,-32.94837,1007.809
0.508111954,0.188005,-0.2563736,-0.07046092,0.4208204,-0.0853534,0.8981285,-30.69187,13.69806,-32.50209,1007.809
0.542759895,-0.1191471,0.03955149,-0.009173895,0.4251878,-0.08926608,0.8970915,-30.69187,13.69806,-32.50209,1007.807
0.574932575,0.3722962,0.3946616,-0.009173895,0.4183018,-0.09363344,0.8927817,-30.69187,13.69806,-32.50209,1007.807
0.609579563,0.003713749,0.1579215,-0.1317479,0.4184091,-0.08724942,0.9024733,-31.07508,14.46001,-32.95016,1007.807
0.641752243,0.003713749,-0.3155586,-0.315609,0.41403,-0.09108458,0.9058565,-31.07508,14.46001,-32.95016,1007.807
0.673924923,0.2494354,-0.5522986,0.05211313,0.4193425,-0.08777668,0.8976403,-30.70343,13.68669,-33.39465,1007.807
0.708571911,-0.4262991,-0.07881854,0.05211313,0.42569,-0.08973916,0.8990109,-30.69162,14.07919,-32.50395,1007.807
0.740744591,1.109461,0.03955149,0.3585483,0.423724,-0.0911929,0.8980533,-30.69162,14.07919,-32.50395,1007.807
0.775392532,0.3108658,-0.01963352,0.2972612,0.4222742,-0.08682065,0.8976209,-30.69739,14.07351,-32.95023,1007.809
0.807565212,-0.3648687,0.0987365,0.05211313,0.423722,-0.09167829,0.8980493,-31.45327,14.08424,-32.94636,1007.811
0.842212200,-0.1805775,0.2762915,-0.254322,0.4189095,-0.09207626,0.9062849,-30.69765,13.69237,-32.94837,1007.811
0.874384880,-0.1805775,0.03955149,-0.193035,0.4159697,-0.09303968,0.9053404,-30.69765,13.69237,-32.94837,1007.811
0.909031868,-0.05771666,-0.07881854,-0.193035,0.4197778,-0.09266264,0.89374,-31.07533,14.07887,-32.9483,1007.815
0.941204548,0.3722962,-0.1971886,0.05211313,0.4241857,-0.09460419,0.8965748,-31.08085,14.45432,-33.39644,1007.811
0.975852489,1.170892,-0.1380036,-0.009173895,0.4130276,-0.09062012,0.9024957,-31.08085,14.45432,-33.39644,1007.816
1.008025169,-0.1191471,0.2171065,-0.009173895,0.424293,-0.0853189,0.9048444,-31.45931,13.69742,-33.39078,1007.815
1.042672157,-1.040603,0.2171065,-0.07046092,0.4222968,-0.09211935,0.9028789,-30.69187,13.69806,-32.50209,1007.815
1.074844837,0.003713749,0.0987365,-0.009173895,0.4179012,-0.0921009,0.9024381,-30.69187,13.69806,-32.50209,1007.815
1.109491825,0.3722962,-0.1971886,-0.009173895,0.4203043,-0.09117936,0.8976033,-30.69765,13.69237,-32.94837,1007.816
1.141664505,0.3722962,0.1579215,-0.009173895,0.4188585,-0.08680343,0.8976529,-30.70343,13.68669,-33.39465,1007.816
1.176312447,-0.7948816,0.03955149,0.2359742,0.4184092,-0.08821652,0.9029474,-30.70343,13.68669,-33.39465,1007.816
1.208485127,0.2494354,0.03955149,0.05211313,0.4198978,-0.0949714,0.9091438,-30.69162,14.07919,-32.50395,1007.818
1.240657330,0.9251699,0.0987365,-0.254322,0.4154734,-0.08917625,0.9024848,-31.08137,13.69205,-33.39272,1007.818
1.275304794,-0.3034383,0.0987365,-0.254322,0.4194196,-0.08577231,0.9058501,-31.08137,13.69205,-33.39272,1007.816
1.307476997,-0.1805775,-0.3155586,-0.376896,0.416482,-0.09205288,0.9077537,-31.08085,14.45432,-33.39644,1007.818
1.342124462,-0.4877295,-0.2563736,0.1746872,0.4193122,-0.09215631,0.8961585,-30.69739,14.07351,-32.95023,1007.818
1.374297142,0.6794483,0.2762915,0.1746872,0.427146,-0.0945894,0.9004033,-30.69739,14.07351,-32.95023,1007.818
1.408944130,1.109461,-0.01963352,0.1134001,0.4164126,-0.08631313,0.8967157,-30.31342,14.45496,-32.50774,1007.818
1.441117287,-0.6720208,0.3946616,0.1134001,0.4232296,-0.08394276,0.8937797,-31.07508,14.46001,-32.95016,1007.818
1.475764752,-0.9791729,0.3946616,-0.07046092,0.4193628,-0.08872531,0.9005243,-31.07508,14.46001,-32.95016,1007.82
1.507936955,-0.1805775,0.3354765,-0.193035,0.4154697,-0.0959496,0.9053211,-31.07559,13.69774,-32.94643,1007.818
1.542584419,0.4337267,0.1579215,-0.254322,0.4169554,-0.08674926,0.903455,-31.06955,14.08456,-32.50201,1007.818
1.574757099,0.188005,-0.1971886,-0.193035,0.4184336,-0.08819436,0.9058393,-31.06955,14.08456,-32.50201,1007.818
1.609404087,0.1265746,-0.07881854,0.05211313,0.4198144,-0.09262939,0.8980779,-30.70317,14.06782,-33.39651,1007.818
1.641576767,0.188005,-0.1380036,-0.009173895,0.4227802,-0.08148748,0.8971781,-31.06981,13.70342,-32.50015,1007.816
1.676224708,-0.54916,0.2171065,-0.009173895,0.4203163,-0.088267,0.8976272,-31.06981,13.70342,-32.50015,1007.816
1.708396912,-0.3648687,0.3354765,0.05211313,0.4212905,-0.09262569,0.8995101,-30.69739,14.07351,-32.95023,1007.815
1.740569591,0.06514417,0.03955149,0.05211313,0.4227279,-0.09314062,0.8966005,-31.07508,14.46001,-32.95016,1007.815
1.775217056,-0.4262991,0.0987365,0.1134001,0.4188667,-0.08776314,0.8990909,-31.07508,14.46001,-32.95016,1007.815
1.807389259,0.3108658,0.1579215,0.05211313,0.4193018,-0.08684654,0.8923464,-30.70317,14.06782,-33.39651,1007.815
1.842036724,-1.163464,-0.01963352,0.2972612,0.418371,-0.09550482,0.9019237,-30.69714,14.45464,-32.95209,1007.815
1.874208927,0.06514417,-0.01963352,0.1134001,0.4158784,-0.09457345,0.8952066,-30.69714,14.45464,-32.95209,1007.813
1.908856869,0.003713749,0.1579215,-0.009173895,0.4232625,-0.09164996,0.9014277,-30.69162,14.07919,-32.50395,1007.813
1.941029549,-0.3648687,0.3354765,-0.254322,0.416978,-0.09108087,0.9082391,-31.07559,13.69774,-32.94643,1007.813
1.975676537,0.003713749,-0.4931136,-0.315609,0.4218412,-0.09015316,0.9057913,-31.07559,13.69774,-32.94643,1007.815
2.007849216,-0.4262991,-0.1380036,0.05211313,0.4212257,-0.09752025,0.8941684,-31.07559,13.69774,-32.94643,1007.815
2.042496681,0.003713749,0.0987365,0.2972612,0.4267066,-0.08970714,0.9038216,-31.45327,14.08424,-32.94636,1007.813
2.074668884,0.188005,-0.01963352,0.1134001,0.4202781,-0.0955553,0.8966034,-31.07508,14.46001,-32.95016,1007.811
2.109316826,0.4337267,0.2171065,0.1134001,0.4173583,-0.09069768,0.8952248,-31.07508,14.46001,-32.95016,1007.811
2.141489506,0.003713749,0.2171065,-0.07046092,0.4139852,-0.08919103,0.8996066,-30.69187,13.69806,-32.50209,1007.811
2.176136494,-0.856312,0.2762915,-0.07046092,0.4140137,-0.09109935,0.9039286,-30.69714,14.45464,-32.95209,1007.813
2.208309174,0.3108658,-0.3747436,-0.254322,0.4130643,-0.09252106,0.9077817,-30.69714,14.45464,-32.95209,1007.813
2.242956638,0.6794483,-0.6114836,-0.254322,0.4198447,-0.08921686,0.9000338,-30.31945,14.06814,-32.95216,1007.819
2.275128841,0.7408787,-0.3747436,-0.07046092,0.4218066,-0.08873391,0.9009835,-31.07533,14.07887,-32.9483,1007.819
2.307301521,0.2494354,-0.3747436,0.05211313,0.4252586,-0.08291532,0.9024451,-31.07533,14.07887,-32.9483,1007.819
2.341949463,-0.1191471,-0.01963352,0.1134001,0.4246717,-0.09412495,0.8960922,-30.69162,14.07919,-32.50395,1007.819
2.374122143,0.2494354,0.2171065,0.1134001,0.4227421,-0.09167705,0.8975765,-30.69739,14.07351,-32.95023,1007.819
2.408769131,-0.1805775,0.03955149,0.1746872,0.4173644,-0.09117569,0.8961847,-30.69739,14.07351,-32.95023,1007.816
2.440941811,-0.9177425,0.03955149,0.2359742,0.4174356,-0.09256168,0.9053307,-30.69739,14.07351,-32.95023,1007.816
2.475588799,0.6180179,0.2171065,-0.07046092,0.4168909,-0.09551222,0.9000094,-31.08137,13.69205,-33.39272,1007.815
2.507761479,1.048031,-0.4339286,-0.254322,0.4174418,-0.09400677,0.9067647,-31.08137,13.69205,-33.39272,1007.815
2.542408466,0.003713749,-0.07881854,0.05211313,0.4154309,-0.09163277,0.898609,-31.0693,14.46569,-32.50388,1007.819
2.574581146,0.3722962,0.03955149,-0.009173895,0.4247162,-0.09118304,0.8999721,-31.07533,14.07887,-32.9483,1007.819
2.609229088,0.4951571,0.03955149,-0.4381831,0.421345,-0.0862897,0.9029359,-31.07533,14.07887,-32.9483,1007.817
2.641401768,0.3108658,-0.5522986,-0.4994701,0.4174376,-0.09304337,0.9058086,-31.44724,14.47106,-32.50194,1007.813
2.676048756,-0.2420079,-0.1380036,0.1134001,0.4164167,-0.08727652,0.8976718,-30.31945,14.06814,-32.95216,1007.813
2.708221435,-0.7334512,0.3354765,0.1134001,0.4232242,-0.09603699,0.898982,-30.31945,14.06814,-32.95216,1007.813
2.742868423,1.109461,-0.07881854,0.05211313,0.4207944,-0.09263062,0.8985507,-30.69162,14.07919,-32.50395,1007.817
2.775041103,0.6180179,-0.01963352,-0.1317479,0.4213246,-0.08534108,0.9000519,-30.69739,14.07351,-32.95023,1007.817
2.809689045,-0.1805775,0.03955149,-0.1317479,0.4144366,-0.09019383,0.8957382,-30.69739,14.07351,-32.95023,1007.817
2.841861725,-0.4877295,0.3946616,0.1746872,0.4184355,-0.08577477,0.9048953,-30.31367,14.07382,-32.50588,1007.813
2.874033928,-1.102034,0.3354765,0.1134001,0.4194298,-0.0881808,0.9082401,-31.07533,14.07887,-32.9483,1007.813
2.908681393,0.4337267,-0.07881854,-0.009173895,0.4179299,-0.09691051,0.9081821,-31.07533,14.07887,-32.9483,1007.815
2.940854073,0.9866003,-0.1971886,0.1134001,0.4218048,-0.09212059,0.9024015,-30.32549,13.68132,-33.39658,1007.811
2.975501060,0.4951571,-0.1380036,0.05211313,0.416992,-0.0876831,0.908267,-31.07559,13.69774,-32.94643,1007.815
3.007673740,-0.54916,0.0987365,-0.009173895,0.4223046,-0.08727649,0.9014727,-30.69162,14.07919,-32.50395,1007.813
3.042321682,1.476203,-0.4341267,1.154106,0.4210153,-0.08227479,0.9198421,-30.69162,14.07919,-32.50395,1007.813
3.074493885,-1.718354,-1.319549,0.7218922,0.4226595,-0.1048086,0.8940949,-30.69739,14.07351,-32.95023,1007.813
3.109141350,3.564661,0.1600767,-0.1974131,0.4239995,-0.1073463,0.8805656,-31.07559,13.69774,-32.94643,1007.813
3.141314030,2.827496,0.6927418,-0.4425613,0.4213324,-0.07953113,0.8981717,-31.07559,13.69774,-32.94643,1007.813
3.175961018,-3.868419,0.3376317,-0.1361261,0.4136288,-0.07988111,0.9107727,-31.06981,13.70342,-32.50015,1007.809
3.208133698,-1.165481,0.5151867,-0.3199872,0.4237773,-0.1008158,0.9090594,-30.69739,14.07351,-32.95023,1007.809
3.242781639,2.888927,0.5743718,-0.6264223,0.4242974,-0.09305196,0.9091186,-30.69739,14.07351,-32.95023,1007.809
3.274953842,3.257509,-0.4909585,-0.5038483,0.4096846,-0.08086547,0.9064634,-30.70292,14.44895,-33.39837,1007.812
3.309601307,4.240396,-3.272654,-0.3812742,0.4069995,-0.0994892,0.9444128,-31.07585,13.31661,-32.94457,1007.813
3.341773987,20.2123,-10.84834,-1.729589,0.4068817,-0.1479906,1.011976,-31.07585,13.31661,-32.94457,1007.813
3.373946190,62.47643,-28.3671,-5.468097,0.4106051,-0.2232395,1.201229,-31.08111,14.07319,-33.39458,1007.813
3.408593655,116.5352,-64.23322,-14.29343,0.4367823,-0.2482658,1.308746,-31.44801,13.32766,-32.49636,1007.813
3.440765858,174.0955,-103.177,-17.7255,0.3546199,-0.2450456,1.169759,-31.44801,13.32766,-32.49636,1007.813
3.475413799,238.8431,-137.741,-15.15145,0.5296686,0.1644685,1.012442,-31.82775,10.66509,-32.4814,1007.813
3.507586479,132.8143,-158.1598,10.65039,0.5749619,0.6639847,1.05036,-35.1921,5.798469,-29.31584,1007.812
3.542233467,-64.25451,-178.697,14.14375,0.716006,0.5410285,0.9950098,-35.1921,5.798469,-29.31584,1007.812
3.574406147,-148.8442,-187.0421,4.153966,0.7363139,0.2184394,0.7800813,-38.91793,0.889933,-24.87295,1007.812
3.609053612,-139.0153,-198.3465,-23.48648,0.7111914,0.003831686,0.5655026,-42.23932,1.017026,-18.67137,1007.808
3.641225815,-103.8157,-196.0382,-51.7398,0.7737333,-0.09297136,0.3891552,-42.23932,1.017026,-18.67137,1007.81
3.675873279,-76.78632,-197.1036,-81.15757,0.7965903,-0.01042926,0.2816545,-45.15921,4.272455,-10.82931,1007.81
3.708046436,-48.4669,-194.9137,-89.61518,0.8810459,0.186552,0.07378462,-46.56201,4.40113,-2.405996,1007.808
3.742693424,-37.04084,-178.1644,-96.23418,0.8727372,0.2766375,-0.1456689,-46.56201,4.40113,-2.405996,1007.806
3.774866104,-11.11721,-142.7125,-104.3241,0.9410687,0.1178482,-0.2999275,-46.85094,0.621787,4.691591,1007.806
3.809513569,58.36059,-117.2038,-95.80517,0.870142,0.3761238,-0.2123045,-45.62781,-2.734374,11.77927,1007.803
3.841685772,-7.738535,-90.86647,-80.85114,0.7536497,0.6097595,-0.07625952,-45.62781,-2.734374,11.77927,1007.801
3.876333237,-28.80917,-64.7067,-70.18719,0.6560388,0.439683,-0.2276167,-43.68977,-6.903333,15.74284,1007.799
3.908505440,7.926221,-33.45701,-66.69383,0.6907645,0.493779,-0.3026867,-41.38374,-9.944818,18.87009,1007.796
3.940679073,-29.30061,1.876442,-64.67136,0.7105554,0.4514119,-0.3080406,-41.38374,-9.944818,18.87009,1007.796
3.975326061,-85.20229,24.89941,-74.9063,0.6722628,0.3900168,-0.3636194,-40.23521,-12.61262,20.1524,1007.79
4.007498741,-151.8543,70.7678,-99.9114,0.6344916,0.1701137,-0.4547317,-39.87533,-14.92103,18.88654,1007.792
4.042145729,-112.9688,118.4117,-143.5478,0.5362874,0.006601691,-0.4474514,-38.41236,-18.79932,15.32717,1007.787
4.108965397,232.4544,-249.4823,91.24282,-0.9496322,1.473753,-2.430465,-38.11335,-25.73818,9.620836,1007.787
4.141138077,-63.2102,-65.8904,-50.69792,4.075641,0.9914677,0.4550091,-35.40735,-29.14424,14.46938,1007.787
4.175786018,-5.957053,63.07374,33.7556,-0.8840517,0.7348517,-0.7718601,-35.40735,-29.14424,14.46938,1007.787
4.207958698,54.98191,-68.43535,14.26632,0.575422,1.284565,-0.2994291,-33.88904,-28.01663,14.90234,1007.787
4.242605686,-85.32514,60.82471,66.11514,0.9842094,0.8113994,-0.08928053,-35.38295,-27.21583,16.2452,1007.787
4.274778366,65.05651,52.36126,83.45937,0.1990997,0.5577731,-0.1886395,-35.38295,-27.21583,16.2452,1007.785
4.309425354,154.8678,44.78558,89.64936,0.488329,0.7394334,-0.2370766,-35.78374,-26.85207,14.46015,1007.785
4.341598034,58.48345,97.69698,98.04568,0.682723,0.761874,-0.2859414,-38.40942,-22.9861,15.79392,1007.781
4.376245976,-13.02155,143.7429,98.53598,0.3293341,0.6272634,-0.3459316,-38.40942,-22.9861,15.79392,1007.783
4.408418655,-73.46908,154.1595,101.539,0.5081102,0.5365499,-0.2239918,-41.08105,-18.78448,13.55558,1007.783
4.440590859,-112.7231,183.5744,118.393,0.5612361,0.433114,-0.007476465,-44.17629,-15.00328,7.814554,1007.781
4.475238323,-144.3598,189.848,130.8342,0.7009147,0.3627394,0.2721277,-44.17629,-15.00328,7.814554,1007.781
4.507411003,-147.4313,211.5098,137.8822,0.7429229,0.1662015,0.4301393,-46.92794,-12.02303,-0.5386181,1007.785
4.542057991,-149.3356,171.7374,127.157,1.084544,-0.1416461,0.6977074,-46.64932,-6.412907,-8.537759,1007.779
4.574230671,-43.06102,167.8904,99.57786,1.505262,-0.3725523,1.04904,-46.64932,-6.412907,-8.537759,1007.779
4.608878613,133.5514,147.1756,87.38174,0.6872978,-0.2452953,1.036995,-45.22482,-0.04525697,-15.65386,1007.779
4.641050815,165.1266,99.65009,50.67081,0.2082275,0.00331165,0.992423,-43.40519,4.873879,-21.36217,1007.781
4.675698280,118.6238,65.38197,20.39503,0.195345,0.2009026,0.9898342,-43.40519,4.873879,-21.36217,1007.781
4.707870960,-29.05489,41.70795,14.02118,0.3095472,0.4923469,0.9661073,-40.06044,5.15066,-25.78049,1007.783
4.742517948,-243.3242,35.67108,5.624854,0.6460005,0.3131151,0.7884524,-38.58514,2.427142,-28.45288,1007.787
4.774690628,-297.9973,52.30207,-2.403746,0.6375253,-0.2031969,0.6102732,-38.58514,2.427142,-28.45288,1007.789
4.809338570,-173.2321,66.74322,-6.080967,0.7298237,-0.3811381,0.8205068,-37.82169,5.090024,-28.02349,1007.791
4.841510773,-150.81,65.20441,-18.27708,0.5596637,-0.2573687,1.592386,-36.30556,11.54782,-28.06286,1007.791
4.876158237,21.31805,-9.664636,17.14681,0.459551,-0.4668806,1.04597,-36.30556,11.54782,-28.06286,1007.792
4.908330440,88.09291,-10.84834,6.850595,0.4897767,-0.3010818,0.7877387,-35.16338,15.34873,-27.64099,1007.792
4.942977905,78.69406,-7.297235,4.337827,0.5059477,-0.08784687,0.6924638,-35.16236,16.87327,-27.64843,1007.794
4.975150585,2.336053,6.374503,-4.671366,0.5882887,0.03433967,0.7919948,-35.16236,16.87327,-27.64843,1007.796
5.007322788,-61.06013,9.807234,-6.755125,0.5163088,-0.120306,0.8959854,-34.42484,15.32094,-28.9837,1007.796
5.041970730,-5.834192,2.409107,-0.8102834,0.4927317,-0.2851514,0.8413444,-35.17571,14.19396,-28.52797,1007.796
5.074143410,15.42073,3.770362,0.04773496,0.5299386,-0.1445458,0.8455304,-35.17571,14.19396,-28.52797,1007.796
5.108790398,-11.24007,3.296882,0.3541701,0.4900506,-0.1485834,0.8627393,-34.4251,14.93981,-28.98184,1007.798
5.140963078,-11.67008,0.2192617,0.3541701,0.4665576,-0.2283188,0.8931491,-34.79726,14.95086,-28.53363,1007.796
5.175610542,13.9464,-5.403315,-0.4425613,0.4703094,-0.2386315,0.8800151,-35.1752,14.95623,-28.53169,1007.796
5.207782745,30.04117,-5.58087,-2.097311,0.4916618,-0.2035462,0.8487751,-35.1752,14.95623,-28.53169,1007.796
5.242430687,40.79149,-5.876795,-4.364931,0.49571,-0.1284812,0.8295942,-34.41354,14.95118,-28.08928,1007.796
5.274603367,32.9284,-5.403315,-3.75206,0.5017886,-0.08333587,0.8342476,-34.41958,14.56436,-28.5337,1007.8
5.309250355,27.89111,-5.758425,-1.545728,0.5090592,-0.08341711,0.8283952,-34.41958,14.56436,-28.5337,1007.802
5.341423035,25.12674,-5.81761,-0.3199872,0.5172167,-0.06137731,0.8593487,-35.18175,13.80715,-28.97239,1007.8
5.376070500,21.80949,-7.35642,-1.055431,0.5150902,-0.1006955,0.8575984,-35.18721,13.04,-29.3512,1007.802
5.408242703,-0.4897462,-9.783006,-2.710181,0.484913,-0.1556007,0.8935773,-35.18721,13.04,-29.3512,1007.802
5.442890644,60.2035,-12.68307,-1.423154,0.4653956,-0.1627178,0.8392348,-35.94965,11.90166,-29.78802,1007.8
5.475063324,77.40402,-22.92208,-4.119782,0.5988451,-0.05098493,0.8119187,-35.94413,11.52621,-29.33989,1007.802
5.507236004,65.67081,-12.74226,-10.86136,0.5342595,0.1125516,0.8288116,-35.94413,11.52621,-29.33989,1007.802
5.541882992,56.33339,-14.10351,-10.1872,0.5514629,0.09907665,0.791908,-36.69633,9.63615,-28.94419,1007.802
5.574055672,38.82572,-15.3464,-4.671366,0.5750151,0.09037294,0.8113785,-36.31943,8.106249,-28.93868,1007.802
5.608702660,30.1026,-9.546266,0.5380312,0.5774297,0.1150371,0.7382954,-36.31943,8.106249,-28.93868,1007.802
5.640875339,-6.018483,-0.6093285,2.070207,0.5503741,0.1864301,0.8524063,-37.08154,6.206445,-29.30803,1007.8
5.675523281,-28.13343,12.23382,6.605447,0.6224719,0.2169059,0.8225828,-37.83298,5.459788,-28.91792,1007.802
5.707695961,-99.39271,17.02781,6.237724,0.5571247,0.1674257,0.9100266,-37.83298,5.459788,-28.91792,1007.8
5.742342949,-58.1729,1.758072,3.663669,0.5547366,-0.1766667,0.8503361,-37.45948,6.211813,-29.3061,1007.8
5.774515629,10.38344,-1.141994,3.541095,0.5029403,-0.09619994,0.8032829,-37.06953,8.12267,-28.48853,1007.804
5.809162617,31.14692,-1.733844,0.8444663,0.6123422,0.04160347,0.8053262,-37.06953,8.12267,-28.48853,1007.804
5.841335297,25.12674,5.782653,2.683077,0.5705373,0.02841983,0.8311535,-37.07453,9.260386,-28.94039,1007.806
5.875983238,26.6625,10.45827,8.505343,0.5666506,0.0560183,0.8198493,-37.07505,8.498119,-28.93667,1007.806
5.908155441,39.93147,15.84411,8.015048,0.4827625,-0.09246136,0.8974919,-37.07505,8.498119,-28.93667,1007.807
5.942802906,118.3781,0.5151867,20.21117,0.5982021,0.1074123,0.8329926,-37.4582,8.117481,-29.3154,1007.807
5.974975586,62.415,3.060142,27.07531,0.4481619,0.3650603,0.9141186,-36.71439,7.333107,-30.20811,1007.807
6.009622574,10.01486,5.072433,20.02731,0.4712874,0.3680951,0.818974,-36.71439,7.333107,-30.20811,1007.806
6.041795254,-18.85744,14.54204,18.86285,0.5531363,0.1331096,0.800367,-36.71568,5.42744,-30.19881,1007.807
6.073967934,-13.75871,19.39521,17.14681,0.5905939,0.04387639,0.7713258,-36.34981,4.648435,-31.08958,1007.807
6.108615398,-19.41031,28.74644,13.10187,0.614726,0.1362824,0.8109044,-36.34981,4.648435,-31.08958,1007.807
6.140788078,-30.71351,26.20148,14.63405,0.5652416,0.055592,0.826607,-36.35456,6.167284,-31.5433,1007.803
6.175435543,-0.612607,25.13615,13.71474,0.5555702,-0.0008939221,0.9226314,-35.23756,6.896391,-32.89167,1007.803
6.207607746,46.50452,10.39908,-4.916514,0.4926746,0.03763391,0.9688439,-35.23756,6.896391,-32.89167,1007.803
6.242255211,56.39481,-1.615474,-9.880763,0.542883,0.0005829316,0.9801199,-34.85936,7.272156,-32.89546,1007.809
6.274427891,68.98805,14.77878,-9.574327,0.4267597,0.1835577,0.7778621,-33.71976,7.261735,-32.45498,1007.809
6.309075356,34.89417,23.24223,-3.077903,0.5127753,0.2233469,0.8318534,-33.73813,5.720146,-33.78638,1007.809
6.341248036,39.01001,33.89553,12.12128,0.4860811,0.1714244,0.8162505,-33.73813,5.720146,-33.78638,1007.809
6.375895500,-9.212864,45.73254,26.52373,0.4376454,0.2396599,0.8847449,-33.36674,4.565693,-34.22901,1007.809
6.408067703,-24.14046,33.65879,33.08144,0.4379313,0.106046,0.8672528,-32.62814,3.395313,-35.50239,1007.809
6.442715168,-30.2835,45.96928,26.95274,0.3983467,0.1831153,0.7651097,-32.62814,3.395313,-35.50239,1007.809
6.474887371,-71.62616,58.69405,32.16213,0.4294373,0.1402405,0.827126,-30.74897,4.881634,-36.41206,1007.809
6.509535313,-86.2466,69.28818,33.63302,0.3300809,0.09683222,0.987719,-29.6199,6.384378,-36.87159,1007.809
6.541707993,-50.24838,58.63487,32.28471,0.3053235,-0.09240997,0.9786779,-29.6199,6.384378,-36.87159,1007.809
6.576355457,5.100421,48.86934,22.23364,0.3250576,0.00629874,1.014493,-26.97778,9.771315,-37.34815,1007.809
6.608527661,9.523412,55.14295,10.89554,0.268817,0.04660337,0.9806466,-25.10387,12.01422,-38.70782,1007.813
6.640700340,16.71077,51.88778,1.518623,0.2363201,0.03489462,0.9519333,-25.10387,12.01422,-38.70782,1007.813
6.675347328,44.60018,57.98383,-1.852163,0.2454275,0.1618029,0.9871165,-23.22548,12.35714,-39.61192,1007.809
6.707520962,-7.615674,65.50034,-6.264828,0.1613394,0.1601837,0.9117319,-21.34708,12.70006,-40.51601,1007.811
6.774340630,-109.0987,84.02525,10.16009,0.1027156,0.07768821,1.002215,-19.09672,11.50821,-41.79712,1007.811
6.808987617,-78.38351,93.73158,39.394,0.003727994,-0.03535266,1.00799,-16.82754,13.7628,-41.81989,1007.81
6.841160297,-38.14659,86.51101,52.44814,-0.0455222,-0.09700821,1.100486,-16.82754,13.7628,-41.81989,1007.81
6.875808239,-173.4778,102.8461,56.12536,-0.2162566,0.128274,0.999342,-13.35531,17.91093,-41.47556,1007.808
6.907980442,-211.5032,92.96218,71.38583,-0.2772466,-0.3290555,0.7570692,-9.179354,19.7746,-40.16729,1007.81
6.942627907,-99.577,87.99064,96.5748,-0.4263566,-0.3363005,0.7285169,-9.179354,19.7746,-40.16729,1007.81
6.974800587,-95.58402,88.9376,114.1642,-0.6091936,-0.1370193,0.7096939,-4.965642,26.24597,-36.20367,1007.808
7.009447575,-133.3023,95.80306,133.2244,-0.7126646,-0.1823473,0.5555638,0.3627005,31.15885,-33.64101,1007.808
7.041620255,-106.5801,110.4218,155.4716,-0.7991868,-0.3927386,0.4076268,0.3627005,31.15885,-33.64101,1007.808
7.076267242,-13.45156,131.9651,169.7515,-1.003428,-0.3759667,0.310861,6.090295,33.42116,-29.28212,1007.806
7.108440399,5.899017,153.3901,158.965,-1.154964,-0.4238062,0.3036866,14.4467,35.24852,-26.21001,1007.806
7.140613079,18.06224,169.8435,133.5922,-1.182091,-0.6091408,0.3592878,14.4467,35.24852,-26.21001,1007.806
7.175260544,48.96173,185.7051,111.4063,-1.09288,-0.5134013,0.2435647,23.23516,32.49032,-23.5641,1007.806
7.207432747,72.67388,188.8419,87.38174,-1.06073,-0.4909228,0.283938,30.4704,28.63302,-19.18319,1007.806
7.242080212,65.17937,182.3907,64.09267,-0.9520717,-0.3973543,0.2769475,37.31532,24.7689,-15.75665,1007.804
7.274252892,115.368,164.6944,56.92209,-0.6895163,-0.4024016,0.1062382,37.31532,24.7689,-15.75665,1007.803
7.308900356,266.2411,144.5715,56.49308,-0.4336118,-0.1313567,0.1721188,41.14909,20.95992,-11.35833,1007.803
7.341073036,248.9792,133.3855,42.94865,-0.3855851,0.2822267,0.4609059,43.82124,17.52057,-9.123719,1007.801
7.375720501,1.598888,82.01295,49.19992,-0.7939017,0.9442605,1.203295,43.82124,17.52057,-9.123719,1007.801
7.407892704,-21.74467,-47.12875,72.18256,-0.7833915,0.0562462,0.7346026,46.12046,12.94886,-6.435309,1007.801
7.442540169,-112.9074,-9.191155,64.03139,-1.518007,0.3468572,-0.007584089,47.25826,10.27051,-5.981806,1007.801
7.474712372,16.52648,-22.4486,88.60748,-1.618962,0.1516048,0.03609221,47.25826,10.27051,-5.981806,1007.799
7.509360314,-41.27954,-32.62842,63.72495,-1.171759,0.4285489,-0.01688946,48.01157,6.448435,-5.967066,1007.801
7.541532993,-43.73676,-41.15107,42.88736,-0.808612,0.3649205,0.02257741,47.98666,3.757761,-7.739163,1007.801
7.576180458,-35.7508,-37.48159,29.77194,-0.7307683,0.1916846,0.07826282,47.98666,3.757761,-7.739163,1007.805
7.608352661,-0.9811895,-32.92435,29.83323,-0.7318628,0.2800373,0.07948342,48.3515,1.454221,-8.622494,1007.805
7.643000126,-21.8061,-15.93825,30.87511,-0.6881716,0.07948884,0.03307844,47.94989,0.6110613,-10.40165,1007.799
7.675172329,30.47118,-11.08508,32.83629,-0.9905905,0.3474138,0.152825,47.94989,0.6110613,-10.40165,1007.803
7.707345009,-6.755648,-9.191155,20.5176,-1.111365,0.45894,0.1866833,47.94308,-0.9191575,-10.84049,1007.803
7.741992950,-2.57838,-21.67919,16.16622,-1.096233,0.4734135,0.1220735,48.31421,-2.454745,-11.28126,1007.803
7.774165630,-11.85437,-19.13424,17.88226,-0.9083037,0.3555034,0.1848998,48.31421,-2.454745,-11.28126,1007.803
7.808812618,-6.571357,-14.10351,27.87204,-0.8831782,0.4648452,0.2183428,47.16889,-3.592598,-12.09868,1007.801
7.840985298,-5.957053,-8.30338,32.89758,-0.8399746,0.2976657,0.1558295,47.54053,-4.365918,-12.54318,1007.801
7.875632286,17.07935,-0.1950334,34.06203,-0.8278512,0.4077146,0.2096435,47.54053,-4.365918,-12.54318,1007.801
7.907805443,13.39353,7.321463,26.76888,-0.844386,0.5040417,0.2279439,47.5345,-4.752736,-12.9876,1007.801
7.942452908,9.400551,12.11545,20.02731,-0.867878,0.4934948,0.1668622,47.53321,-6.658404,-12.97829,1007.801
7.974625587,3.748952,15.54818,22.72393,-0.9233512,0.7780294,0.3967474,47.53321,-6.658404,-12.97829,1007.801
8.009272575,17.26364,17.20536,27.44304,-0.9027075,0.3808672,0.1416768,47.54374,-8.171568,-12.07829,1007.801
8.041445255,8.724816,18.44825,27.6269,-0.8513556,0.5141428,0.1485623,47.17679,-7.774509,-11.24941,1007.803
8.076092243,9.27769,21.76261,27.1366,-0.7544333,0.5821183,0.1511103,47.17679,-7.774509,-11.24941,1007.805
8.108264923,-2.148367,26.91171,26.15601,-0.7684508,0.4155542,0.131552,47.55896,-10.06099,-10.7939,1007.805
8.142912865,-73.77623,37.80174,27.01403,-0.8617697,0.3178629,-0.00864449,47.19181,-11.18766,-9.89382,1007.805
8.175085545,14.80643,22.5912,28.85264,-0.8539079,0.5682124,0.1090259,47.19181,-11.18766,-9.89382,1007.807
8.207257748,-1.595494,15.54818,36.26836,-0.7885696,0.6268349,0.07419558,47.20285,-11.93855,-8.997537,1007.807
8.241905212,-0.4897462,4.539767,23.94967,-0.8643828,0.5859863,0.0152803,47.60287,-13.44571,-7.206905,1007.807
8.274077892,-5.342749,-7.297235,21.25305,-0.9379873,0.5569298,0.03934553,47.60287,-13.44571,-7.206905,1007.807
8.308725357,2.090331,-28.66302,24.56255,-0.8283927,0.6476306,-0.08721321,46.46829,-14.57301,-7.195521,1007.807
8.340898037,-8.168548,-38.96122,11.20197,-0.7715054,0.6663885,0.05315446,47.21813,-14.97057,-7.643809,1007.807
8.375545502,-46.07111,-46.47771,-0.3812742,-0.772346,0.6248549,0.2056137,46.42681,-16.13734,-10.31204,1007.807
8.407717705,-20.3932,-54.23095,3.663669,-0.8006276,0.5409866,0.07456436,46.42681,-16.13734,-10.31204,1007.807
8.442365170,-12.28438,-60.7413,5.257132,-0.9206718,0.5908344,0.1671933,45.65989,-15.3757,-11.20446,1007.807
8.474537373,-51.2927,-92.10936,12.489,-0.7373582,0.7334237,0.01916651,44.86439,-15.40395,-14.2608,1007.807
8.509185314,-15.84735,-115.6058,16.16622,-1.090358,0.8777379,0.5678275,44.86439,-15.40395,-14.2608,1007.807
8.541357994,-101.4813,-163.1906,13.04058,-0.7724859,0.395294,-0.1066851,44.05841,-15.06162,-18.14781,1007.805
8.576005459,-74.14481,-174.3765,19.35315,-0.4498377,0.383277,0.4314906,42.47815,-15.10755,-23.43169,1007.805
8.608177662,-72.54762,-155.7332,7.831187,-0.228854,0.3632865,0.3733518,42.47815,-15.10755,-23.43169,1007.805
8.642825127,-67.57175,-101.1647,12.30514,-0.3315431,0.7049271,1.054818,37.85831,-13.22192,-30.04824,1007.805
8.674997330,-31.6964,-103.0586,-5.958393,-0.5602282,0.1510589,0.647988,34.7833,-12.46787,-34.05302,1007.805
8.709645271,72.73531,-116.4936,2.254068,-0.1936996,0.6601878,0.754805,34.7833,-12.46787,-34.05302,1007.805
8.741817951,-33.35502,-93.1155,0.170309,-0.6663337,0.7472602,0.9156188,31.33773,-10.55855,-37.5514,1007.805
8.773990631,-43.85962,-118.0324,3.357234,-0.2313979,0.2208853,0.6623653,27.5342,-12.05214,-39.30975,1007.805
8.808637619,-6.694218,-67.96187,0.04773496,-0.1884015,0.555684,0.7389521,27.5342,-12.05214,-39.30975,1007.805
8.840810299,-69.78325,-56.65754,0.170309,-0.3991497,0.6905522,0.9724262,24.09364,-11.28054,-42.35627,1007.805
8.875457287,-45.76396,-56.4208,-11.16779,-0.1389397,0.2577941,0.7876087,21.05908,-10.4867,-43.23708,1007.807
8.907630444,-15.29448,-36.12034,-16.74491,-0.184131,0.4607722,0.7704238,21.05908,-10.4867,-43.23708,1007.807
8.942277908,-50.12552,-24.16496,-18.52223,-0.2193714,0.5477444,0.9483634,18.71844,-8.17816,-44.12888,1007.807
8.974450588,-78.87495,-25.17111,-25.7541,-0.2140534,0.482874,0.9738069,16.81796,-7.019287,-45.01736,1007.808
9.009097576,-109.1601,-24.46089,-25.50895,-0.1888703,0.2989287,0.8655336,16.81796,-7.019287,-45.01736,1007.808
9.041270256,-117.4532,-34.16723,-21.09629,-0.2199096,0.3132449,0.9396873,16.81924,-5.113618,-45.02666,1007.808
9.075918198,-135.2066,-52.15948,-15.3966,-0.2235847,0.3342659,0.9567648,15.68247,-0.9107289,-45.48761,1007.808
9.108090401,-175.1364,-61.62908,-10.80007,-0.1497033,0.2451746,0.9066589,15.68247,-0.9107289,-45.48761,1007.808
9.142737865,-201.5515,-63.40463,-12.5161,-0.1172305,0.1398751,0.9310338,14.18617,4.902639,-44.61553,1007.808
9.174910545,-231.3452,-49.37778,-3.690773,-0.1894744,-0.2218287,0.8713681,11.93395,10.66322,-43.73928,1007.808
9.209557533,-120.1562,-38.42855,0.292883,-0.2603003,-0.702465,0.7475667,11.93395,10.66322,-43.73928,1007.812
9.241730213,15.05215,-59.14331,-8.532449,0.004524508,-0.3265545,1.011366,9.344693,18.37382,-39.81019,1007.812
9.273902893,-14.25016,-34.46316,-8.71631,0.005134442,-0.2799861,0.9452286,7.470153,23.7479,-38.93401,1007.814
9.308550358,-3.806989,-37.71833,-9.390467,0.03052284,-0.2510864,0.9326981,7.470153,23.7479,-38.93401,1007.812
9.340723038,4.056105,-19.90364,-0.5651352,0.1670385,-0.2160926,0.9008647,5.575192,24.53133,-39.37434,1007.814
9.375370503,-10.5029,-3.982874,1.763772,0.02796341,-0.240173,1.087534,4.069468,24.93962,-38.92218,1007.814
9.407542706,-20.70035,-9.723821,-1.361867,0.08150423,-0.181979,0.9265261,4.069468,24.93962,-38.92218,1007.814
9.442190170,-42.69244,9.452124,5.440993,0.139665,-0.340722,0.8976827,3.31911,24.57491,-38.47018,1007.816
9.474362373,-9.950029,14.95633,12.24385,0.06069566,-0.3324769,0.8459496,3.31988,25.71831,-38.47576,1007.818
9.509010315,11.67348,22.35446,15.43078,0.05857372,-0.4627018,0.8887577,3.703856,26.09976,-38.03327,1007.818
9.541182995,41.77438,23.53816,18.74028,0.02042897,-0.3388677,0.9354425,3.703856,26.09976,-38.03327,1007.818
9.575830460,34.9556,26.79333,22.78522,0.04505907,-0.234812,0.9124526,5.215873,26.45942,-38.04287,1007.818
9.608002663,28.01397,33.06694,28.48491,-0.05671323,-0.3003931,1.028541,6.714789,24.52091,-38.93386,1007.818
9.642650127,35.44704,29.51584,29.83323,-0.01570229,-0.364298,0.88737,6.714789,24.52091,-38.93386,1007.818
9.674823284,61.43211,35.6119,37.55539,-0.06645522,-0.3403898,0.9338307,7.842574,24.11799,-39.38408,1007.818
9.709470272,88.83008,33.71798,41.78419,-0.1217469,-0.3373868,0.9729313,8.958028,22.56029,-40.72128,1007.818
9.741642952,130.9713,23.83408,46.19686,-0.1043738,-0.3323319,0.9472649,8.958028,22.56029,-40.72128,1007.818
9.776289940,181.5286,30.34443,56.12536,-0.1599541,0.03873891,1.006273,11.21257,20.22991,-41.61428,1007.816
9.808462620,182.7572,31.40976,65.3797,-0.1118123,-0.05011111,0.970869,12.3092,15.22577,-44.20982,1007.816
9.840635300,223.2398,42.00388,76.53394,0.002384778,0.06921533,0.9717512,12.3092,15.22577,-44.20982,1007.816
9.875283241,278.65,58.16139,92.52985,-0.1946876,0.3473499,0.8467071,14.92703,8.30505,-45.97499,1007.816
9.907455444,247.0748,65.08604,86.70759,-0.2340019,0.8833104,0.9613883,16.44413,-0.915781,-45.0452,1007.816
9.942102909,-142.824,110.9544,40.86489,-0.4957248,1.110961,1.297805,16.44413,-0.915781,-45.0452,1007.816
10.008922577,-341.9814,126.9936,31.54926,-0.3380991,0.0002078526,0.6152696,22.20946,-11.62915,-41.89846,1007.816
10.041095257,-157.9359,126.9344,40.55846,-0.4792163,-0.3882942,0.5608457,22.20946,-11.62915,-41.89846,1007.816
10.075743198,63.15216,67.39426,46.07429,-0.4555167,0.3711161,0.8652428,26.78736,1.361789,-39.37132,1007.816
10.107915401,3.073218,78.16592,45.70657,0.06419885,0.5523673,0.6604118,31.36746,7.816431,-36.30219,1007.814
10.142562866,-31.45068,86.80694,53.67388,0.580443,0.8985544,1.00838,31.36746,7.816431,-36.30219,1007.814
10.174735546,-196.5756,148.6553,57.78011,-0.3926731,-0.386935,1.044941,34.4062,5.884058,-35.03327,1007.814
10.209382534,181.0371,71.9515,21.80463,-0.3651219,-0.1358203,0.8337102,37.09171,5.124005,-31.91912,1007.814
10.241555214,171.454,116.0443,-5.284236,-0.2099758,0.2434613,0.6454815,37.09171,5.124005,-31.91912,1007.814
10.276203156,158.0007,98.11127,-4.671366,-1.189903,0.9463462,0.6517439,39.7882,4.755644,-27.97802,1007.814
10.308375359,-91.8982,68.22285,16.04365,-0.8788544,0.3068938,0.6353758,43.22698,0.1099975,-24.84883,1007.814
10.340548039,19.04513,63.54722,19.5983,-0.9860604,-0.05138949,0.3042168,43.22698,0.1099975,-24.84883,1007.816
10.375195503,6.206169,61.23901,16.71781,-0.9690544,0.3641037,0.4429253,45.52692,-2.175717,-22.23534,1007.82
10.407367706,0.8617229,53.3674,22.47879,-0.7745283,0.1052273,0.5459799,46.31194,-1.776896,-20.00966,1007.822
10.442015648,17.14078,53.13066,30.87511,-0.8149996,0.3509987,0.6052596,46.31194,-1.776896,-20.00966,1007.822
10.474188328,17.38651,46.56113,37.18767,-0.8356396,0.2814102,0.5055866,47.4681,-2.913663,-18.22476,1007.818
10.508835316,18.30796,36.32212,42.88736,-0.8761359,0.3227214,0.4865431,48.25019,-4.422134,-16.11729,1007.819
10.541007996,2.643205,21.94016,46.56458,-0.9798874,0.4075525,0.4684486,48.25019,-4.422134,-16.11729,1007.823
10.575655460,11.85777,1.284592,56.06407,-0.8337134,0.4743584,0.3509915,48.27228,-5.923929,-14.32472,1007.823
10.607827664,21.99379,-9.960561,53.98031,-0.9970447,0.3983791,0.463713,48.66652,-7.436776,-12.98037,1007.823
10.642475605,11.67348,-31.20798,53.91903,-0.9133393,0.5693455,0.4696434,48.28074,-10.48616,-13.40983,1007.823
10.674648285,-27.76485,-37.89589,49.07735,-0.756496,0.5929254,0.4813883,48.28074,-10.48616,-13.40983,1007.823
10.709295273,-19.16459,-59.26168,43.74538,-0.62922,0.5288628,0.5013625,47.50599,-12.77928,-14.73364,1007.822
10.741467953,-47.91403,-100.2769,27.19789,-0.3632607,0.6085967,0.7530699,46.72571,-14.69695,-16.50559,1007.822
10.776114941,-67.75604,-78.02332,14.3889,-0.6011688,0.3834593,0.4835141,46.72571,-14.69695,-16.50559,1007.82
10.808288574,-46.50113,-63.81892,-13.74185,-0.3471319,0.2077004,0.1365111,45.16335,-15.10615,-20.38501,1007.82
10.842935562,89.62867,-15.46477,-37.76636,-0.6191744,0.8373671,0.73469,43.23898,-15.11342,-23.05303,1007.82
10.875108242,-23.58758,-15.05047,-52.84297,-0.6111686,0.4479385,0.6562128,43.23898,-15.11342,-23.05303,1007.82
10.907280445,39.99289,-5.640055,-75.70303,-0.7039182,0.5233243,0.6162478,43.23505,-13.59375,-23.443,1007.82
10.941927910,65.97797,-2.444064,-107.94,-0.6182449,0.4245014,0.6965735,43.23005,-12.45604,-23.89486,1007.82
10.974100590,113.4022,10.39908,-114.7429,-0.6370135,0.5617227,0.603408,43.23005,-12.45604,-23.89486,1007.82
11.008748531,58.91346,8.445978,-116.1525,-0.637647,0.7229927,0.6823454,43.61582,-9.406652,-23.4654,1007.82
11.040920734,-9.765738,14.95633,-103.037,-0.7039818,0.1916128,0.6530377,44.3782,-7.125718,-23.0979,1007.82
11.075568199,106.7678,0.3968167,-74.84501,-0.7084639,0.1592656,0.483631,44.3782,-7.125718,-23.0979,1007.82
11.107740402,107.1363,-12.74226,-41.93388,-0.6724054,0.5206355,0.4766337,45.53167,-3.694567,-21.78161,1007.82
11.142387867,26.6625,-21.38327,-16.00946,-0.7474431,0.2677964,0.4964574,45.91089,-1.794267,-21.79285,1007.818
11.174560547,33.11269,-21.14653,-3.997209,-0.7496327,0.2607827,0.529678,45.91089,-1.794267,-21.79285,1007.818
11.209208012,-25.18477,-18.30564,0.3541701,-0.706054,0.3733724,0.4926036,45.15476,-2.164664,-21.78712,1007.818
11.241380692,-86.36946,-19.84446,8.444057,-0.6709753,0.338738,0.6187566,44.77104,-2.16498,-22.23147,1007.818
11.276028156,-100.4985,-29.5508,21.9272,-0.5476242,0.2354321,0.7714758,44.77104,-2.16498,-22.23147,1007.816
11.308200359,-118.6819,-10.49323,32.16213,-0.4763853,0.0839005,0.553144,44.00412,-1.403346,-23.12388,1007.816
11.342847824,-112.1088,29.6934,21.80463,-0.4653567,-0.3198887,0.3766745,43.61596,-0.6462684,-23.95448,1007.816
11.375020981,-13.94301,55.43888,35.53292,-0.9183304,-0.09682773,0.3721361,43.61596,-0.6462684,-23.95448,1007.816
11.409667969,145.6532,28.27296,39.63915,-0.9695211,0.4886247,0.7919598,42.87158,0.5184268,-23.12738,1007.815
11.441840649,30.77834,43.83862,41.72291,-0.7888396,0.5686337,0.7094756,44.7781,-0.253628,-21.79449,1007.815
11.474013329,-43.6139,54.66947,22.54007,-0.7421364,0.4378183,0.5811955,44.7781,-0.253628,-21.79449,1007.815
11.508660317,-17.07596,58.75324,-3.016616,-0.8026855,0.4506946,0.5124587,44.7876,-3.291327,-20.88704,1007.815
11.540832996,-20.94607,60.58797,-24.95737,-0.6790456,0.48413,0.4590427,45.19944,-4.405986,-18.20571,1007.815
11.575480938,-30.46779,69.64329,-48.9206,-0.8323196,0.3958745,0.4968593,47.10559,-3.273998,-17.00963,1007.815
11.607653618,-40.97239,80.41496,-67.06155,-0.7875851,0.3413827,0.4458647,47.10559,-3.273998,-17.00963,1007.815
11.642300606,-35.01364,86.09672,-79.87054,-0.9886699,0.2417706,0.4907818,47.15233,-2.466252,-13.44311,1007.815
11.674473286,-14.06587,85.32731,-84.77351,-1.041813,0.1841256,0.4083805,48.70633,1.426113,-10.40955,1007.815
11.709120274,-9.520017,80.59251,-77.97065,-0.9814088,0.02813017,0.296635,48.70633,1.426113,-10.40955,1007.815
11.741292953,-14.98732,82.42725,-69.14532,-0.9792742,-0.01088255,0.3372634,48.37693,4.907163,-6.854117,1007.816
11.775940895,-7.185661,85.44568,-52.96554,-0.9733891,0.01526491,0.2699441,48.8081,8.001213,-2.918167,1007.815
11.808113575,-13.14441,86.74775,-37.88894,-1.020114,-0.06845709,0.2089579,48.8081,8.001213,-2.918167,1007.816
11.842760563,-16.83024,86.86612,-24.89608,-1.060879,-0.06075627,0.1742159,47.71601,9.96278,0.2022953,1007.818
11.874933243,-1.534063,87.10286,-11.22908,-1.00915,-0.06674042,0.06089595,47.00656,11.54272,3.705212,1007.816
11.909581184,-7.677104,90.83152,-0.1974131,-1.02004,-0.09825907,0.05784572,47.00656,11.54272,3.705212,1007.816
11.941753387,-6.817079,97.04594,9.976233,-1.041738,-0.08095004,0.02252293,46.29634,11.97926,7.213707,1007.816
11.973926067,-19.96319,103.793,18.00483,-1.115538,-0.0893536,-0.04481965,45.21504,12.80879,11.23232,1007.818
12.008573532,-18.48886,110.2442,22.29493,-1.222091,-0.02953764,-0.03562029,45.21504,12.80879,11.23232,1007.818
12.040745735,-25.92194,117.228,21.49819,-1.298565,0.01066097,-0.09627124,43.38152,11.74827,15.64662,1007.818
12.075393200,-53.93421,87.45797,9.669797,-1.374881,0.07462379,-0.03333589,42.67687,10.66677,19.67259,1007.818
12.107565403,-116.0404,-0.01747838,-10.73878,-1.372045,-0.03572829,0.009107853,42.67687,10.66677,19.67259,1007.818
12.142213345,-131.9508,-73.28852,-35.06973,-1.226764,0.06738842,-0.05791359,40.07644,10.36788,23.19448,1007.818
12.174386025,-118.129,-170.1152,15.61464,-0.7989021,0.03804605,0.0005120495,38.94711,8.484007,23.65586,1007.818
12.209033012,274.9642,-97.61356,53.91903,-1.116251,0.8322018,-0.6339309,38.94711,8.484007,23.65586,1007.818
12.241205692,-69.41467,-101.1055,26.21729,-1.035794,1.009028,-0.4365682,40.41765,7.279339,20.52975,1007.818
12.275853157,-340.7528,-31.50391,16.41137,-0.5937838,0.1602623,-0.4467259,41.87374,9.107495,16.11366,1007.816
12.308026314,-272.0736,-10.90752,8.444057,-0.9047596,-0.009601561,-0.2042248,41.87374,9.107495,16.11366,1007.815
12.342673302,-194.8556,-40.67759,8.38277,-1.065337,0.04376795,-0.0586506,43.39525,6.429457,17.01151,1007.813
12.374845982,-165.799,-54.58606,11.38583,-0.8573923,-0.04272773,-0.1263739,43.01397,1.48009,17.03763,1007.813
12.409492970,-99.88416,-51.80437,14.94048,-0.8082985,-0.1412758,-0.1599384,43.01397,1.48009,17.03763,1007.811
12.441665650,-38.33088,-53.28399,14.51147,-0.8497288,-0.131391,-0.1006664,43.74464,-1.665977,15.26384,1007.811
12.476313591,0.43171,-60.32701,12.55029,-0.750804,-0.07844452,0.03139685,44.09792,-3.980886,13.48795,1007.808
12.508486271,-1.10405,-52.98807,15.3082,-0.7607477,0.04995414,0.1217181,44.09792,-3.980886,13.48795,1007.806
12.540658474,-41.4024,-48.54919,15.00177,-0.7778157,0.117712,0.1484639,45.19738,-4.792556,10.87194,1007.81
12.575305939,-87.6595,-43.93276,9.731084,-0.7686912,0.07494052,0.2097221,45.17376,-5.577562,9.090538,1007.808
12.607478619,-120.7091,-38.54692,6.360299,-0.7788725,0.06247907,0.2236923,45.17376,-5.577562,9.090538,1007.808
12.642125606,-134.3466,-31.44472,1.702485,-0.818391,-0.003044396,0.1984569,45.1394,-6.373127,6.48033,1007.806
12.674298763,-127.405,-16.76684,-4.855227,-0.8514197,-0.07136813,0.1919359,45.87717,-7.544319,5.143202,1007.805
12.708946228,-87.16806,6.019393,-14.66115,-0.8166658,-0.1420446,0.2387469,46.23123,-8.715826,3.361727,1007.803
12.741118431,5.223282,23.12386,-21.70916,-0.779614,-0.194078,0.375824,46.23123,-8.715826,3.361727,1007.797
12.775765896,155.2978,25.07697,-20.60599,-0.8818231,-0.2184693,0.4199566,45.85303,-9.091591,3.365522,1007.799
12.807938576,280.493,-1.970584,-16.86748,-1.01221,-0.0945589,0.2910909,46.24959,-7.174238,4.693127,1007.799
12.842586040,311.761,-25.70377,-17.7255,-0.9148865,0.07778642,0.2327997,46.24959,-7.174238,4.693127,1007.792
12.874758720,257.3951,-32.09576,-2.465033,-0.8483161,0.4077323,0.3876925,45.89001,-5.627281,6.026459,1007.796
12.909406185,49.76033,-20.19957,7.953761,-0.9610198,0.6625211,0.4997765,45.88552,-3.727298,5.570875,1007.788
12.941578388,-35.62794,-19.72609,-4.548791,-1.03577,0.08818572,0.2446174,45.88552,-3.727298,5.570875,1007.791
12.976225853,54.92049,-34.87745,-6.448689,-1.090718,-0.04088504,0.214182,46.63036,-2.987138,4.670725,1007.791
13.008399010,102.6519,-49.67371,-9.635615,-1.055797,0.2134367,0.2978928,45.86318,-2.606637,3.78017,1007.789
13.040571690,53.01614,-52.27785,-14.10957,-0.9573076,0.3878095,0.3774592,45.86318,-2.606637,3.78017,1007.787
13.075218678,-38.26945,-42.57151,-18.15451,-0.9142491,0.3393813,0.3564142,46.60173,-2.634429,2.43746,1007.787
13.107391357,-98.40982,-33.45701,-22.50589,-0.8953223,0.1937117,0.2981608,46.58021,-1.512956,0.7105103,1007.787
13.142038345,-113.706,-21.44245,-26.67341,-0.8710487,0.05379916,0.2346029,46.58021,-1.512956,0.7105103,1007.787
13.174211025,-80.47215,-10.6116,-25.44767,-0.8675267,-0.03167571,0.2304914,46.94107,-1.154246,-0.6321259,1007.787
13.208858967,-17.99741,-1.674659,-20.5447,-0.872617,-0.04977221,0.2723236,46.55813,-0.01116145,-1.082056,1007.787
13.241031647,38.45713,3.592807,-14.96759,-0.8633041,-1.075026E-05,0.3112069,46.55813,-0.01116145,-1.082056,1007.787
13.275678635,64.93365,14.48285,-9.574327,-0.8534638,0.1421085,0.3681987,46.56472,1.201446,-0.6416664,1007.791
13.307851315,34.89417,24.36675,-5.835819,-0.895622,0.2706981,0.3995361,46.93187,2.328108,-1.541744,1007.789
13.342498303,-26.84339,27.50356,-0.4425613,-0.9138788,0.2889433,0.4249209,46.93187,2.328108,-1.541744,1007.789
13.374671459,-78.26065,20.16461,8.015048,-0.8911538,0.241248,0.4228696,46.57127,2.350532,-0.2009697,1007.789
13.409318924,-89.87099,19.27684,17.94355,-0.8851218,-0.03310139,0.2860737,46.95524,2.731982,0.241518,1007.787
13.441491604,-11.11721,19.27684,24.13354,-0.94704,-0.128451,0.2810454,46.95524,2.731982,0.241518,1007.785
13.476138592,71.56813,14.83796,25.66571,-0.9058369,-0.1216922,0.3028887,46.21562,2.377827,1.522333,1007.789
13.508311272,111.0065,15.489,26.27858,-0.9245699,0.09040252,0.352048,46.9762,0.784719,1.972498,1007.789
13.542959213,76.23684,18.21151,21.06919,-0.9250497,0.2315399,0.4009339,46.9762,0.784719,1.972498,1007.789
13.575131416,18.86083,21.64424,15.06306,-0.9501734,0.2715477,0.4116201,46.22559,0.03887391,2.426369,1007.789
13.607304096,-28.80917,20.46054,7.953761,-0.9517022,0.1985145,0.3811484,46.61457,-0.7173917,3.320717,1007.789
13.641951084,-43.36818,16.6727,2.62179,-0.9377427,0.09095434,0.3521754,46.61457,-0.7173917,3.320717,1007.789
13.674123764,-30.22206,10.81338,-0.9328574,-0.9376675,0.02045893,0.3371335,46.25396,-0.6949687,4.661493,1007.789
13.708771229,-5.649901,3.947917,-4.058496,-0.936285,0.02037766,0.32748,46.25897,-1.832684,5.113356,1007.789
13.740944385,11.73491,-0.5501435,-6.387402,-0.9487602,0.05303322,0.3370236,46.25897,-1.832684,5.113356,1007.788
13.775591373,19.22942,-3.568579,-7.980865,-0.9563771,0.1059547,0.334157,45.88103,-1.827316,5.11529,1007.786
13.807764053,15.97361,-3.391024,-9.084032,-0.9524663,0.1243171,0.3260778,46.25948,-1.070417,5.109634,1007.786
13.842411041,15.54359,-4.160429,-10.06462,-0.9523562,0.123004,0.281722,46.25922,-1.45155,5.111496,1007.786
13.874583721,20.76518,-1.733844,-10.55492,-0.9286829,0.1018748,0.263493,46.25922,-1.45155,5.111496,1007.786
13.909231663,21.19519,0.3968167,-12.27096,-0.9290386,0.1368145,0.2623383,45.87628,-0.3084666,4.661568,1007.786
13.941404343,13.08638,3.296882,-13.61927,-0.9305393,0.1425912,0.25517,46.62638,-0.3248883,4.211418,1007.784
13.976051331,7.80336,8.860273,-12.82254,-0.9259906,0.0968103,0.2378801,46.62638,-0.3248883,4.211418,1007.784
14.008224010,27.33823,12.293,-8.777596,-0.9112668,0.06687009,0.2042379,46.25499,0.8295653,4.654051,1007.782
14.042870998,43.12585,15.72574,-4.426218,-0.9243887,0.1791352,0.2144439,46.26133,1.661039,5.096298,1007.782
14.075044155,16.7722,18.92173,-5.529384,-0.8991452,0.2136685,0.240039,46.26133,1.661039,5.096298,1007.782
14.107216835,-5.342749,21.64424,-3.935922,-0.9082835,0.165033,0.2214073,46.27288,1.672409,5.988859,1007.782
14.141864300,-17.69026,21.94016,-3.568199,-0.8691463,0.1064534,0.2032072,46.27917,2.440361,6.431419,1007.781
14.174036503,-22.48183,24.42593,-2.832755,-0.8677692,0.06433396,0.1551292,46.27917,2.440361,6.431419,1007.779
14.208683968,-22.60469,24.5443,-0.3812742,-0.8922207,0.05187263,0.09693269,46.29073,2.451731,7.32398,1007.779
14.240856648,8.110513,27.7403,10.40524,-0.7938442,0.01500968,-0.02527103,46.30095,1.700021,8.156509,1007.779
14.275504112,94.72739,43.54269,18.37255,-0.6958262,-0.01109457,-0.1372607,46.30095,1.700021,8.156509,1007.779
14.307676792,119.2996,60.05531,10.89554,-0.7049243,0.187707,0.01966694,45.55663,1.722128,9.052938,1007.777
14.342324257,56.33339,68.87388,1.457336,-0.8146843,0.3371147,0.1265167,45.57422,2.120316,10.38992,1007.777
14.374496460,-12.46868,68.75551,-1.668302,-0.8813105,0.2646735,0.1308792,45.57422,2.120316,10.38992,1007.777
14.409144402,-27.64199,75.85771,3.112086,-0.8914274,-0.04683435,-0.0513803,45.23095,2.159794,13.06954,1007.777
14.441317082,68.98805,70.70861,6.850595,-1.062315,0.1366469,-0.03429512,44.50339,2.579277,15.23919,1007.777
14.475964069,58.97489,78.58022,-14.96759,-0.9211531,0.1424646,-0.1960702,44.50339,2.579277,15.23919,1007.779
14.508136749,11.9192,64.73093,-11.22908,-1.19457,0.4702886,0.09404538,43.39268,2.618122,17.03012,1007.781
14.542784214,-62.59589,59.2859,-38.74695,-0.8356149,-0.101886,-0.2938367,42.66621,3.41955,19.26167,1007.781
14.574956417,20.88804,70.05758,-21.83173,-0.7740121,-0.3177581,-0.1756913,42.66621,3.41955,19.26167,1007.779
14.609604359,141.6602,41.05692,21.19176,-1.59633,0.7023338,-0.03428864,41.93262,3.452214,20.9869,1007.779
14.641777038,-25.06191,-9.25034,3.295947,-0.6068032,0.2480686,0.1686688,41.57124,2.331237,22.33326,1007.781
14.673949718,-36.5494,6.670428,-0.8102834,-1.137132,0.3500571,-0.03954963,41.57124,2.331237,22.33326,1007.781
14.708596706,-25.06191,-24.63844,11.38583,-0.859528,-0.03083323,-0.09588999,41.56123,4.606668,21.42953,1007.783
14.740769386,-16.70737,-58.0188,-4.977801,-1.219092,0.0874606,0.0323142,41.17648,3.081818,20.99263,1007.785
14.775417328,-10.56433,-90.45218,-7.367995,-1.192244,0.1613963,-0.1186746,41.17648,3.081818,20.99263,1007.785
14.807589531,-14.92589,-85.53982,8.689205,-1.295036,0.1775405,-0.1055324,43.41554,2.259728,18.8171,1007.786
14.842236996,-35.19793,-94.18083,25.48185,-1.313378,0.1739107,-0.02152326,44.88133,2.573908,15.23726,1007.788
14.874409676,-30.71351,-92.40528,21.86592,-1.12218,0.1138401,0.05379936,45.96898,1.369735,11.73055,1007.79
14.909056663,-20.51606,-82.8765,17.2081,-0.9993026,0.1976536,0.1757716,45.96898,1.369735,11.73055,1007.792
14.941229343,-28.62487,-76.48451,14.20504,-0.9935432,0.2004008,0.2210485,47.42792,0.09017491,7.712181,1007.792
14.975877285,-42.93816,-63.40463,10.71168,-1.084834,0.2669961,0.3010152,48.90532,-0.7268631,5.094236,1007.792
15.008049488,-62.96447,-52.33703,8.811779,-1.143819,0.1991996,0.2831728,48.90532,-0.7268631,5.094236,1007.793
15.042696953,-46.19397,-45.17564,7.831187,-1.118463,0.1419946,0.3084925,48.87014,-1.523239,2.420275,1007.795
15.074869156,-27.39627,-44.52461,8.873066,-0.9925101,0.186387,0.2927412,48.83578,-2.318804,-0.1899338,1007.795
15.109517097,-10.99435,-45.53075,3.786243,-0.9331632,0.08730929,0.2600407,48.83578,-2.318804,-0.1899338,1007.797
15.141689777,16.28076,-44.34705,5.257132,-0.8413292,0.1666507,0.3485258,49.57432,-2.346595,-1.532642,1007.797
15.176337242,31.5155,-53.34318,4.215253,-0.8360104,0.1767715,0.2796337,49.55095,-2.750468,-3.315905,1007.799
15.208509445,26.47821,-66.12714,3.602382,-0.8151294,0.1968464,0.3157543,49.55095,-2.750468,-3.315905,1007.8
15.240682125,12.22635,-63.28626,4.031392,-0.8493559,0.209528,0.3017182,49.53362,-2.767523,-4.654746,1007.802
15.275330067,-6.264205,-75.36,10.52782,-0.8360277,0.252564,0.4152185,48.73761,-3.558035,-7.707367,1007.802
15.307502747,-11.05578,-88.61744,13.28573,-0.8471342,0.1912758,0.5170008,48.73761,-3.558035,-7.707367,1007.802
15.342149735,-7.431383,-96.13394,19.72087,-0.8570233,0.1819817,0.5642524,47.55782,-3.206275,-11.27367,1007.802
15.374322414,-2.394089,-104.2423,24.01096,-0.7633713,0.1563316,0.571361,47.88985,-4.018577,-14.77837,1007.802
15.408969402,1.537457,-91.28077,28.48491,-0.710341,0.2539735,0.6791571,47.88985,-4.018577,-14.77837,1007.802
15.441142082,1.844609,-69.32313,30.26224,-0.6846491,0.2280222,0.7293133,45.95531,-4.416723,-18.20958,1007.804
15.475790024,27.52252,-56.95346,25.60442,-0.6372568,0.2307403,0.7346775,45.16425,-5.202362,-20.87967,1007.802
15.507962704,58.11487,-46.30016,11.81484,-0.6171278,0.3636952,0.7428157,45.16425,-5.202362,-20.87967,1007.802
15.542609692,80.53697,-48.49001,-7.429282,-0.6181304,0.368028,0.7375588,43.99556,-6.744088,-23.48036,1007.804
15.574782372,104.6791,-48.72675,-16.07075,-0.5578701,0.4129547,0.685793,42.47122,-8.258518,-24.35774,1007.804
15.609430313,104.1877,-62.75359,-20.97371,-0.5307231,0.5097773,0.7335739,42.47122,-8.258518,-24.35774,1007.804
15.641602516,107.0135,-68.55372,-27.22499,-0.4751921,0.5166631,0.7181705,42.07543,-9.032471,-25.69093,1007.802
15.676249981,35.26275,-73.82119,-39.17596,-0.3822836,0.8300245,0.8794287,40.54479,-11.31485,-27.01087,1007.802
15.708422184,-93.67968,-63.16789,-32.8634,-0.1639808,0.637193,0.876284,40.54479,-11.31485,-27.01087,1007.802
15.740594864,-104.2457,-43.34091,-39.4824,-0.2788045,0.2403238,0.7608138,39.76529,-12.08912,-28.7884,1007.802
15.775242329,50.74322,-56.0065,-45.42724,-0.3695129,0.1016721,0.6607432,38.22649,-10.57073,-30.95576,1007.802
15.807415485,115.1223,-58.07798,-50.94307,-0.3268397,0.4240129,0.8210983,38.22649,-10.57073,-30.95576,1007.802
15.842062473,43.86301,-42.27558,-57.37821,-0.3366466,0.5579299,0.8087978,37.45586,-6.765708,-32.30934,1007.8
15.874235153,3.4418,-34.04886,-73.68056,-0.4421947,0.3775821,0.705148,35.18744,-7.876898,-32.29216,1007.8
15.908882141,15.78931,-30.55695,-84.58965,-0.5047916,0.3409822,0.7651983,34.04207,-7.872162,-33.17892,1007.799
15.941054821,33.91129,-32.21413,-89.12489,-0.573348,0.3546084,0.7886043,34.04207,-7.872162,-33.17892,1007.8
15.975702763,24.88102,-40.73677,-91.33121,-0.5769873,0.5487797,0.7261331,33.6599,-5.585678,-33.63443,1007.8
16.007875443,-100.0684,-20.67305,-79.31896,-0.4890797,0.8481812,0.6472872,32.5158,-3.675275,-34.53049,1007.8
16.042522430,-259.2961,5.131618,-84.77351,-0.4806899,0.3464676,0.6107788,32.5158,-3.675275,-34.53049,1007.8
16.074695110,-212.5475,10.16234,-71.59679,-0.5673609,-0.02806383,0.6407938,31.38956,-0.9855499,-34.09143,1007.8
16.109342098,-164.0789,5.545913,-69.26789,-0.5207439,-0.126187,0.6607579,30.6801,7.894574,-31.00671,1007.806
16.141515255,-171.6963,13.4767,-68.47116,-0.5120177,-0.3703361,0.5396098,30.6801,7.894574,-31.00671,1007.804
16.176162720,-176.4879,16.90944,-71.16779,-0.6515047,-0.3010533,0.7482603,30.72434,14.79396,-27.97999,1007.806
16.208335400,-253.6445,9.570494,-72.63867,-0.5624016,-0.7327605,0.5264881,29.64587,19.81596,-23.98185,1007.806
16.242982388,0.3088492,-16.5301,-70.12591,-0.5376304,-1.731074,0.2403951,29.64587,19.81596,-23.98185,1007.806
16.275155068,224.5299,-67.01491,-59.03296,-0.6189795,-0.7175367,0.6389654,28.95055,25.21861,-19.60498,1007.806
16.307327747,166.5396,-121.8202,-51.43336,-0.4477867,-0.5697572,0.90465,26.63379,28.24953,-23.56104,1007.804
16.341975212,181.4057,-155.3781,-56.9492,-0.5101805,-0.4611764,1.034821,26.63379,28.24953,-23.56104,1007.804
16.374147892,253.1564,-187.1605,-51.12693,-0.3853266,0.04376344,1.072041,23.14443,25.16432,-30.1592,1007.804
16.408795357,105.1706,-149.9331,4.092679,-0.2887723,0.1979632,0.9890254,16.93392,20.58168,-37.62862,1007.804
16.440967560,46.56595,-128.3898,16.77909,0.01168155,0.5081978,0.8784015,16.93392,20.58168,-37.62862,1007.806
16.475615502,-61.73587,-104.3607,4.521688,0.6024639,0.4924525,0.979763,11.97666,15.27581,-40.7014,1007.806
16.507788181,-186.1939,-20.79142,-15.64174,0.3848444,0.09625023,0.8845374,6.672402,13.0528,-41.55572,1007.806
16.542435169,-152.96,11.1093,-5.713245,-0.0469012,-0.3094325,0.8066556,6.672402,13.0528,-41.55572,1007.804
16.574607849,-44.41249,-20.25875,-0.8715703,0.0796653,-0.531821,0.8769051,4.435971,16.54363,-39.32946,1007.804
16.609255314,5.714725,-15.05047,9.179502,0.2327679,-0.4848995,0.9549112,4.468461,21.90792,-37.12411,1007.804
16.641428471,-19.41031,0.9886668,-6.938985,0.1078164,-0.606049,0.8365066,4.468461,21.90792,-37.12411,1007.803
16.676075458,76.97401,-2.621619,-9.451754,0.06191633,-0.4153584,0.7989829,3.707318,22.67525,-37.57024,1007.803
16.708248138,52.70899,6.847983,-20.78985,0.1150916,-0.03529256,0.9616439,3.701798,23.05069,-38.01839,1007.801
16.742895126,2.643205,1.166222,-18.76738,0.03306887,-0.0166206,1.064265,3.701798,23.05069,-38.01839,1007.801
16.775067806,-7.308522,-22.4486,-16.86748,0.1017677,0.0762306,1.064389,3.316794,21.14471,-38.45343,1007.801
16.807240486,-70.2747,-18.12809,-7.613142,0.1549597,-0.08450326,1.025936,3.688699,20.75252,-38.89978,1007.801
16.841888428,-61.67444,-18.00972,-1.852163,0.168851,-0.3453047,0.8886966,3.688699,20.75252,-38.89978,1007.801
16.874060631,-29.36204,-14.04433,1.457336,0.1198939,-0.3998491,0.8964157,1.816335,20.79642,-37.55127,1007.801
16.908708096,7.86479,-15.93825,-0.6264223,0.1787048,-0.3385352,0.9546944,1.829692,23.47572,-36.67173,1007.799
16.940880775,3.564661,-11.20345,-2.894042,0.1894876,-0.2471887,0.9741448,1.829692,23.47572,-36.67173,1007.799
16.975528240,-3.745558,-5.4625,-4.058496,0.251545,-0.2048677,0.9633107,0.6963892,24.2541,-36.66965,1007.797
17.007700920,-28.44058,6.019393,0.231596,0.1746756,-0.3062305,0.9241503,0.7016516,23.49751,-36.21965,1007.797
17.042348385,18.61511,-2.799174,-1.055431,0.214781,-0.4426393,0.8845736,0.7076883,23.88433,-35.77523,1007.801
17.074520588,17.87795,6.907168,-3.629487,0.108921,-0.2917666,0.9321131,0.7076883,23.88433,-35.77523,1007.801
17.109168053,4.8547,-1.141994,-12.5161,0.1435163,-0.2794133,0.9198421,0.31845,24.25946,-36.66772,1007.801
17.141341209,8.417665,4.303028,-11.1065,0.2135185,-0.2655373,0.9390653,0.3124132,23.87264,-37.11214,1007.801
17.175988197,10.81345,7.439833,-10.92264,0.1346621,-0.3117954,0.8690479,0.3124132,23.87264,-37.11214,1007.801
17.208160877,31.39264,9.925604,-9.022745,0.2251519,-0.2990331,0.9459106,-0.06000519,23.50257,-36.66206,1007.801
17.242808342,23.59098,20.46054,-3.935922,0.155298,-0.3049998,0.8824073,0.6843176,23.48046,-37.55849,1007.801
17.274980545,72.55102,23.12386,-3.997209,0.1758978,-0.3378524,0.8525422,0.6843176,23.48046,-37.55849,1007.801
17.309628487,88.09291,25.01778,-6.387402,0.121242,-0.1225799,1.038951,0.2937918,21.94992,-38.44168,1007.801
17.341801167,54.18332,18.86254,-8.71631,0.02010937,-0.01539128,1.08946,1.037087,20.40328,-39.33067,1007.803
17.373973847,36.92138,6.907168,-8.103439,0.0476988,-0.07711108,1.034228,1.037087,20.40328,-39.33067,1007.803
17.408620834,41.03721,-4.693095,-6.264828,0.07804193,-0.08052941,0.9881265,1.401927,18.09974,-40.214,1007.803
17.440793514,42.51154,-12.15041,-8.838883,0.0835016,-0.08720525,0.9441587,1.389598,16.94497,-41.10098,1007.803
17.475441456,53.07757,-18.0689,-5.345523,0.0934656,0.02943466,0.9700913,1.389598,16.94497,-41.10098,1007.803
17.507613659,33.05126,-24.63844,-5.897106,0.08467325,0.1135369,1.044612,0.993865,15.02843,-42.36482,1007.803
17.542261124,-5.035597,-21.73838,-1.729589,0.151128,0.1219911,1.05081,0.2311783,13.50895,-42.79979,1007.803
17.574433327,-18.55029,-17.77298,-2.587607,0.1992801,-0.03302379,0.9324391,0.2311783,13.50895,-42.79979,1007.805
17.609080792,-13.14441,-8.007455,-7.735717,0.1933016,-0.1303035,0.9649508,-0.5315084,11.98947,-43.23476,1007.805
17.641253948,28.93542,-12.03204,-10.1872,0.1037635,-0.07494695,0.9103307,-0.9028978,13.14392,-42.79213,1007.805
17.675901413,42.45011,-21.62001,-10.1872,0.1802989,0.1043756,0.9882147,-0.9028978,13.14392,-42.79213,1007.805
17.708073616,7.86479,-18.30564,-8.348587,0.2011163,0.1384162,1.009991,-1.664298,13.53011,-43.2364,1007.805
17.742721081,-6.571357,-20.02201,-9.94205,0.2349757,0.003095058,0.9815677,-2.421464,11.63518,-43.22323,1007.805
17.774893284,4.547548,-20.37712,-11.29036,0.2255165,-0.01395412,0.9675375,-2.421464,11.63518,-43.22323,1007.809
17.809541225,10.93631,-22.98126,-13.0064,0.2496508,0.04415782,0.9658633,-3.549762,11.27584,-42.76929,1007.809
17.841713905,10.75202,-19.84446,-8.838883,0.2270564,0.08036624,0.9890266,-5.073076,11.28594,-43.65411,1007.809
17.873886585,20.08944,-25.88133,-6.264828,0.26814,0.1198991,0.9807752,-5.073076,11.28594,-43.65411,1007.811
17.908533573,-3.868419,-17.47706,-3.506912,0.3184217,0.1191824,0.9831921,-4.317455,10.89407,-43.65612,1007.811
17.940706253,-0.7354679,-17.12195,-2.955329,0.2827033,0.05306153,0.9458663,-6.201889,10.16433,-43.19645,1007.811
17.975354195,3.257509,-14.99129,-2.097311,0.2859326,0.07411451,0.9715558,-6.201889,10.16433,-43.19645,1007.811
18.007526875,-6.509927,-17.89135,-5.713245,0.2618381,0.03054592,0.9709395,-6.963547,10.16938,-43.63886,1007.809
18.042173862,9.339121,-19.96283,-8.532449,0.316247,0.003491388,0.8964627,-7.329672,10.56725,-42.74623,1007.809
18.074346542,20.15087,-13.63003,-8.164726,0.3853697,0.1209437,0.8770241,-7.329672,10.56725,-42.74623,1007.803
18.108993530,9.830564,-1.970584,-3.75206,0.3935426,0.2015093,0.881468,-8.469011,10.95881,-43.18857,1007.807
18.141166687,-25.18477,5.960208,-4.242356,0.3606053,0.1646633,0.9287075,-8.841688,10.20759,-42.73663,1007.805
18.175814152,-66.95745,26.73415,-6.877698,0.3437967,0.03647758,0.8487597,-9.219885,9.831829,-42.73284,1007.804
18.207986355,-68.43178,33.18531,-20.72857,0.2526133,-0.2801133,0.8363965,-9.219885,9.831829,-42.73284,1007.804
18.242633820,18.49225,41.64877,-22.75104,0.3208194,-0.09977538,0.8517068,-8.840916,11.35099,-42.74222,1007.802
18.274806500,16.7722,52.77555,-29.79905,0.3391194,-0.002557726,1.008023,-7.700032,13.24624,-42.31104,1007.802
18.309453964,64.19648,54.07762,-25.44767,0.1585756,-0.04993029,0.9167735,-7.700032,13.24624,-42.31104,1007.802
18.341626644,79.7998,62.89619,-34.39557,0.2755889,-0.005152335,0.8823109,-6.200603,12.07,-43.20576,1007.802
18.376274109,184.6001,104.2665,-32.55696,0.03090059,0.03117782,0.8410316,-4.701428,10.51262,-44.09861,1007.8
18.408446312,151.3048,93.6724,-44.38536,-0.01494563,0.6770658,1.170688,-4.701428,10.51262,-44.09861,1007.8
18.440618992,25.06531,103.4379,-39.78883,-0.1058284,0.4112637,0.820859,-1.320137,6.254779,-45.43439,1007.802
18.475266934,48.40886,92.13359,-38.93081,-0.1528,0.3068205,1.03107,2.071126,-0.3420143,-45.86613,1007.806
18.507439613,46.19736,74.14134,-34.70201,-0.1970498,0.4024849,0.9455115,2.071126,-0.3420143,-45.86613,1007.806
18.542086601,44.47731,78.99451,-29.37004,-0.1520717,0.4221634,0.9457362,5.849751,-1.5391,-45.87989,1007.806
18.574259281,42.51154,74.96993,-22.99619,-0.2660089,0.3451438,0.9553223,9.267253,-3.476029,-44.54915,1007.806
18.608907223,61.06353,60.4696,-11.96452,-0.2698181,0.4472823,0.917158,9.267253,-3.476029,-44.54915,1007.806
18.641079426,49.39175,58.1022,-6.080967,-0.2628406,0.4658312,0.8092778,12.29552,-5.037826,-44.11089,1007.804
18.675726890,48.90031,59.99612,-0.9941444,-0.3426522,0.5147852,0.8118722,14.19523,-7.340101,-43.21684,1007.804
18.707899570,25.8639,60.94308,4.153966,-0.3327689,0.4674592,0.8494678,14.19523,-7.340101,-43.21684,1007.806
18.742546558,29.73402,69.88003,4.399114,-0.3231634,0.5649139,0.8419876,16.46762,-8.891159,-42.77472,1007.806
18.774719238,12.84065,82.24969,-0.2587002,-0.2886423,0.5583404,0.8300433,19.13471,-10.05021,-41.0613,1007.806
18.809367180,22.66952,91.36418,-9.451754,-0.3848856,0.5462211,0.7069675,19.13471,-10.05021,-41.0613,1007.808
18.841539383,17.32508,99.70927,-19.01253,-0.4805466,0.4900685,0.7907831,21.85984,-11.21503,-39.73074,1007.812
18.876186848,62.23071,87.99064,-22.4446,-0.5383384,0.5061974,0.6420355,25.28415,-11.62174,-37.96116,1007.81
18.908359528,73.16532,90.47641,-35.98904,-0.7120149,0.4558468,0.6726429,25.28415,-11.62174,-37.96116,1007.81
18.940531731,105.1091,63.78396,-38.31794,-0.6924793,0.5892295,0.6099364,27.96332,-12.00716,-35.35891,1007.81
18.975179672,123.5383,74.08216,-47.0207,-0.6584649,0.6915191,0.4268204,31.39893,-12.78363,-32.69491,1007.812
19.007352352,83.05562,63.60641,-52.10752,-0.673031,0.8463262,0.4769146,31.39893,-12.78363,-32.69491,1007.812
19.041999340,32.74411,36.7956,-49.22703,-0.5824636,0.8061159,0.3562021,33.33274,-14.67148,-29.18878,1007.812
19.074172020,27.89111,34.66494,-37.33735,-0.6218287,0.6488912,0.3355113,34.87287,-15.42679,-26.96139,1007.81
19.108819962,52.34041,-0.9644386,-7.06156,-0.6354072,0.6764507,0.5648149,34.87287,-15.42679,-26.96139,1007.81
19.140992641,-49.57265,-44.05113,-1.116719,-0.5871198,0.5828227,0.6652943,36.78016,-15.05545,-25.63408,1007.81
19.175639629,-196.3913,-61.1556,3.173373,-0.592189,0.3929685,0.211661,37.15258,-14.68537,-26.08416,1007.808
19.207812309,-205.053,-75.71511,-8.961457,-0.7032572,-0.01473101,0.1418563,36.7297,-12.81981,-29.66177,1007.808
19.242460251,-107.6244,-120.7549,-25.14123,-0.6905077,0.06467737,0.6918714,36.7297,-12.81981,-29.66177,1007.808
19.274632454,-242.4641,-140.4635,-29.0636,-0.2272354,0.3771818,0.7918268,34.42078,-6.73413,-33.18643,1007.808
19.309279919,-215.1276,-107.3199,-51.37208,-0.3741283,-0.3990758,0.2373186,30.587,-2.925148,-37.58475,1007.808
19.341452599,-28.56344,-117.2038,-68.40987,-0.6523305,-0.1632067,0.8737603,30.587,-2.925148,-37.58475,1007.806
19.376099587,124.2754,-139.8125,-76.07075,-0.5635296,-0.10221,0.7842647,26.78519,6.691973,-39.84364,1007.805
19.408272743,214.271,-139.1023,-29.86033,-0.4104827,1.009143,0.8633345,21.83493,10.53412,-42.89732,1007.809
19.442920208,-68.30892,-98.14622,-47.26585,-0.536673,0.5999241,1.027428,21.83493,10.53412,-42.89732,1007.81
19.475092411,-30.22206,-87.197,-52.16881,-0.6900734,0.1375329,0.8245358,16.04647,4.085105,-46.85288,1007.81
19.507265091,126.7326,-89.80114,-57.4395,-0.6614027,0.3668631,0.8733949,10.36633,4.91653,-47.72016,1007.81
19.541912556,100.9319,-116.7303,-55.41702,-0.08512596,0.5959237,0.9884779,10.36633,4.91653,-47.72016,1007.809
19.574085713,36.24564,-94.12165,-34.273,-0.6558658,0.8881653,0.8154629,6.569139,3.048305,-48.9666,1007.809
19.608732700,-89.01097,-85.83575,-25.07994,-0.3015085,0.4431143,0.9227213,2.403153,-1.154317,-49.37083,1007.807
19.640905380,-100.2527,-87.07863,-1.607015,-0.1541963,0.2648561,1.001335,2.403153,-1.154317,-49.37083,1007.807
19.675552368,-87.41378,-88.14396,4.644262,0.08982145,0.05472381,1.163134,-1.747891,-0.3273114,-48.907,1007.809
19.707725048,37.47425,-91.51751,-17.60293,0.1524611,0.09720276,1.047219,-5.136002,3.60642,-48.0797,1007.809
19.742372990,40.48434,-81.57442,-29.0636,0.2257787,0.5417182,1.020316,-5.136002,3.60642,-48.0797,1007.809
19.774545670,-91.46819,-40.26329,-26.2444,0.4046963,0.2352023,0.9148996,-8.902298,5.958276,-47.17897,1007.81
19.809192657,-44.47392,-15.70151,-31.26993,0.09949964,-0.07045651,0.9234215,-12.29348,4.112294,-46.2597,1007.809
19.841365337,43.92444,-8.717675,-26.85727,0.1382993,-0.1565723,1.110811,-12.29348,4.112294,-46.2597,1007.809
19.876013279,144.916,-38.60611,-30.84092,0.1066017,-0.2903061,1.120127,-13.80344,6.801703,-46.26499,1007.81
19.908185482,272.1999,-63.1087,-45.1208,0.1089051,0.09261904,0.8022503,-14.18215,5.663671,-46.25748,1007.813
19.942832947,337.1318,-71.21705,-29.24746,0.1611466,0.7277557,0.5558772,-14.18215,5.663671,-46.25748,1007.813
19.975005627,155.7278,-33.04272,-3.997209,0.06278595,1.027582,0.7270026,-16.49986,-0.8289604,-44.87476,1007.813
20.009653091,36.92138,8.564348,21.0079,-0.1438029,0.8805957,0.6043267,-19.11978,-14.09694,-42.11842,1007.811
20.041825771,-63.51735,28.68725,39.76173,0.02084646,0.7687355,0.6813981,-19.11978,-14.09694,-42.11842,1007.811
20.073998451,-105.5972,29.04236,27.07531,0.09689758,0.6614196,0.7241476,-20.24672,-19.78728,-41.2559,1007.811
20.108645439,-69.4761,20.87483,7.340891,0.2104878,0.5620672,0.8167405,-20.2622,-18.27899,-42.53843,1007.811
20.140818119,-12.59154,17.91558,-5.713245,0.07653954,0.3358705,0.6657418,-20.2622,-18.27899,-42.53843,1007.811
20.175465584,21.68663,18.27069,-9.451754,0.3426496,0.3607642,0.7294979,-19.89877,-14.10895,-43.89967,1007.811
20.207638741,30.16403,29.45666,-4.855227,0.2438473,0.6452361,0.797353,-18.38649,-13.36815,-43.91113,1007.811
20.242285729,-37.53229,24.5443,6.237724,0.2375452,0.7429492,0.8131593,-17.26475,-14.1579,-44.80577,1007.809
20.274458408,-71.5033,36.02619,13.22444,0.1281303,0.6215754,0.8016117,-17.26475,-14.1579,-44.80577,1007.809
20.309105396,-78.32207,35.49353,18.67899,0.04294279,0.5230976,0.8165367,-16.89259,-14.16895,-45.25398,1007.813
20.341278076,-74.3291,26.85252,20.21117,0.16128,0.4656332,0.9311206,-15.32708,-10.77249,-46.17135,1007.815
20.375926018,-82.0079,22.47283,21.0079,0.1491463,0.4536274,1.002953,-15.32708,-10.77249,-46.17135,1007.815
20.408098698,-79.42783,14.71959,13.77603,0.1045868,0.2966245,0.9447163,-14.19698,-7.745209,-46.63832,1007.815
20.442745686,-36.48797,7.735758,4.521688,0.1001313,0.1723859,0.8810737,-13.07214,-3.961349,-47.55529,1007.813
20.474918366,10.19915,3.888732,0.292883,0.07696287,0.2230257,0.8870094,-13.07214,-3.961349,-47.55529,1007.817
20.509566307,27.09251,-2.739989,-1.852163,0.06912335,0.3612617,0.9325661,-12.68688,-1.674232,-47.12211,1007.815
20.541738510,16.89506,-3.450209,-0.1974131,0.05282698,0.4510731,0.9243006,-12.6924,-1.298783,-47.57025,1007.82
20.573911190,-4.05271,-3.686949,2.62179,0.05459411,0.4793884,0.9466895,-12.6924,-1.298783,-47.57025,1007.82
20.608558655,-27.64199,-2.088954,5.011984,0.06868616,0.4019301,0.9189274,-12.6874,-2.436499,-47.11839,1007.822
20.640730858,-30.83637,-0.3134034,6.544159,0.07945005,0.3211836,0.9032193,-12.6874,-2.436499,-47.11839,1007.822
20.675378799,-25.73765,0.2192617,5.992577,0.1089356,0.2989812,0.9384292,-12.6874,-2.436499,-47.11839,1007.824
20.707551479,-20.76178,1.698887,3.724956,0.1194738,0.2542598,0.9365161,-13.06431,-0.9065962,-47.12389,1007.824
20.742198467,-3.315545,0.5743718,1.150901,0.1095858,0.2329147,0.9316124,-13.07009,-0.912281,-47.57018,1007.824
20.774371147,11.24346,-1.497104,-1.607015,0.08577926,0.2403827,0.9405721,-13.07009,-0.912281,-47.57018,1007.824
20.809019089,21.44091,-3.272654,-2.036024,0.09646024,0.3355052,0.9460766,-12.6856,0.2314359,-47.13141,1007.822
20.841191769,13.63925,-2.917544,-1.790876,0.09120018,0.3801183,0.9373356,-12.69112,0.6068845,-47.57955,1007.822
20.875838757,-5.219888,-0.6685135,-0.4425613,0.07885259,0.3490961,0.934785,-12.69112,0.6068845,-47.57955,1007.822
20.908011436,-0.1211637,-1.082809,0.04773496,0.1014353,0.3032057,0.914916,-12.68585,-0.1496975,-47.12955,1007.822
20.942659378,3.38037,1.047852,-0.3199872,0.1083995,0.3274705,0.918907,-13.06456,-1.28773,-47.12203,1007.824
20.974831581,5.899017,1.698887,-1.178006,0.1108176,0.3143821,0.9226326,-13.06456,-1.28773,-47.12203,1007.822
21.009479046,4.301826,-0.3134034,-0.8715703,0.117634,0.3602357,0.956687,-12.68085,-1.287413,-46.67769,1007.822
21.041651726,3.687522,-2.029769,-0.9941444,0.1101195,0.3629966,0.9321979,-12.68662,-1.293098,-47.12397,1007.822
21.073823929,-8.229978,-1.141994,-0.1974131,0.1505792,0.4328357,0.951194,-12.68662,-1.293098,-47.12397,1007.82
21.108471870,-29.66919,2.231552,2.070207,0.09723189,0.3894369,0.953744,-13.43698,-1.65781,-46.67196,1007.82
21.140644550,-30.8978,-1.615474,8.260196,0.09624369,0.3512287,0.9707903,-13.05879,-1.282045,-46.67575,1007.82
21.175291538,-37.22514,-3.686949,13.34702,0.09452624,0.344719,0.9437606,-13.05879,-1.282045,-46.67575,1007.818
21.207464218,-48.71262,0.04170663,17.51454,0.1127777,0.3105113,0.9254744,-13.06328,0.6179379,-47.13134,1007.817
21.242111683,-55.89998,6.374503,17.14681,0.113127,0.2088706,0.9000512,-13.44015,2.211363,-47.13716,1007.815
21.274284840,-42.01671,10.45827,13.53088,0.09011948,0.1083743,0.8820854,-13.44015,2.211363,-47.13716,1007.815
21.308931828,-4.237001,13.06241,8.811779,0.03815416,0.07746638,0.8688195,-12.67142,4.117663,-46.25777,1007.813
21.341104508,-2.824102,14.36448,11.0794,0.0911849,0.2238369,1.127401,-12.28642,6.023647,-45.82272,1007.811
21.375751495,-41.03382,11.34604,3.541095,0.0331749,0.1188004,1.127558,-11.91978,6.388042,-46.71908,1007.81
21.407924175,-13.26727,-6.468645,1.150901,0.01357781,0.009615193,1.055023,-11.91978,6.388042,-46.71908,1007.808
21.442572117,37.84283,-3.568579,-0.07483909,0.1008651,0.09817488,0.888167,-11.15106,8.294342,-45.83969,1007.806
21.474744797,46.56595,3.119327,-0.3199872,0.1067726,0.2340755,0.8285004,-11.529,8.299711,-45.83776,1007.806
21.509391785,19.84372,8.978643,4.27654,0.1647047,0.2968959,0.9557256,-11.529,8.299711,-45.83776,1007.806
21.541564465,0.3088492,7.084723,3.357234,0.1009121,0.3079745,0.9665341,-11.15787,6.764123,-46.27853,1007.807
21.576212406,-23.46472,2.349922,2.866938,0.05253233,0.2525418,0.9853265,-11.15889,5.239589,-46.27109,1007.805
21.608384609,-26.59767,-2.088954,1.947633,0.06554156,0.1836207,1.056937,-11.15889,5.239589,-46.27109,1007.805
21.640557289,-20.88464,-4.160429,0.170309,0.1067201,0.1623475,1.031313,-10.78622,5.990803,-46.72302,1007.805
21.675204754,-7.0628,-3.805319,2.070207,0.09945524,0.1387764,0.9911808,-11.16364,6.758439,-46.72481,1007.805
21.707376957,-3.806989,-2.148139,1.396049,0.08026098,0.1377934,0.9142319,-11.16364,6.758439,-46.72481,1007.805
21.742024898,-3.561267,3.237697,1.825059,0.03968442,0.1214868,0.9135121,-11.529,8.299711,-45.83776,1007.805
21.774197578,9.646273,2.882587,2.192781,0.05558033,0.1724013,0.9802994,-11.52374,7.543129,-45.38776,1007.807
21.808844566,1.046014,1.343777,2.070207,0.06852254,0.2233444,0.9859007,-11.52374,7.543129,-45.38776,1007.807
21.841017246,-16.03164,-0.6093285,1.825059,0.08459415,0.1913196,0.9975365,-11.15709,7.907524,-46.28411,1007.807
21.875665188,-13.26727,-1.201179,2.376642,0.1078053,0.139268,0.9973728,-11.15157,7.532075,-45.83597,1007.808
21.907837868,-11.48579,-0.3725885,1.579911,0.1175284,0.1266133,0.9991058,-11.15157,7.532075,-45.83597,1007.81
21.942484856,-4.667014,0.9886668,0.292883,0.08359525,0.09220929,0.9846789,-11.90694,8.305079,-45.83582,1007.812
21.974657536,8.110513,0.2784467,-0.2587002,0.07363793,0.1157731,0.9497801,-11.14477,9.062294,-45.39713,1007.812
22.009305477,8.294804,0.8111118,0.231596,0.07601152,0.1707901,0.9733474,-11.14477,9.062294,-45.39713,1007.812
22.041477680,0.7388621,0.7519268,0.4154571,0.08050638,0.1771483,0.982516,-11.52848,9.061977,-45.84148,1007.812
22.076125145,-3.438406,0.04170663,0.170309,0.07648073,0.1398222,0.9861018,-11.529,8.299711,-45.83776,1007.812
22.108297825,1.168875,-1.201179,-0.5038483,0.08515225,0.1382257,0.9734758,-11.529,8.299711,-45.83776,1007.812
22.142944813,4.363256,-0.7868835,-0.2587002,0.07359039,0.1635658,0.9790945,-10.77915,7.902156,-46.28605,1007.814
22.175117970,0.4931404,-0.2542184,0.170309,0.07595666,0.1712238,0.9666036,-10.39492,8.664739,-45.84542,1007.814
22.207290649,-3.008393,0.2192617,0.5380312,0.08136726,0.1620481,0.9761174,-10.39492,8.664739,-45.84542,1007.818
22.241937637,-3.376976,0.3376317,0.4767441,0.08967771,0.1421938,0.9874442,-11.14528,8.300027,-45.39341,1007.816
22.274110317,-2.762671,-0.2542184,0.170309,0.09597412,0.1474383,0.9792347,-11.15106,8.294342,-45.83969,1007.816
22.308758259,-0.9811895,-0.07666339,-0.01355207,0.09392946,0.1357581,0.9738556,-11.15106,8.294342,-45.83969,1007.814
22.340930939,0.1859883,-0.01747838,0.04773496,0.08473714,0.1440972,0.979312,-11.51693,9.073347,-44.94891,1007.814
22.375577927,1.414597,0.1600767,0.109022,0.08089233,0.1456211,0.9856265,-11.15054,9.056609,-45.84341,1007.814
22.407750607,-0.612607,-0.2542184,0.231596,0.0745362,0.15628,0.9790257,-11.15054,9.056609,-45.84341,1007.813
22.442397595,-3.131254,-0.3134034,0.170309,0.0808635,0.1533319,0.9784603,-10.77838,9.045556,-46.29163,1007.813
22.474570751,-4.298432,-0.2542184,0.231596,0.07897507,0.1451788,0.9899786,-10.77838,9.045556,-46.29163,1007.813
22.509218216,-1.964076,-0.07666339,0.109022,0.08026499,0.1305061,0.9763497,-10.40044,9.040188,-46.29356,1007.811
22.541390896,1.721749,-0.01747838,0.231596,0.086596,0.1343314,0.9729481,-10.40044,9.040188,-46.29356,1007.811
22.576037884,3.011787,0.1600767,0.5993182,0.08907802,0.1425782,0.9739571,-10.76708,8.675793,-45.39721,1007.811
22.608210564,1.598888,0.2192617,0.8444663,0.08921164,0.151404,0.9855965,-11.53426,9.056293,-46.28776,1007.809
22.642858505,0.9845837,-0.01747838,0.9670404,0.08911037,0.1455091,0.9763908,-11.53426,9.056293,-46.28776,1007.811
22.675030708,1.291736,0.4560017,0.7831793,0.0852148,0.1465032,0.9769173,-10.77864,8.664423,-46.28976,1007.809
22.707203388,2.028901,0.3376317,0.5993182,0.0837389,0.1435982,0.9769071,-10.7726,9.051241,-45.84534,1007.809
22.741850376,2.520344,0.6335568,0.4767441,0.07404218,0.1557934,0.9785443,-10.7726,9.051241,-45.84534,1007.809
22.774024010,0.3702796,0.5743718,0.109022,0.08238786,0.1620838,0.9814103,-11.15054,9.056609,-45.84341,1007.807
22.808670998,-2.025507,0.1600767,-0.01355207,0.08533614,0.1572521,0.9861628,-10.76708,8.675793,-45.39721,1007.807
22.840843677,-4.728445,-0.3725885,-0.01355207,0.08434619,0.1538592,0.9861441,-10.76708,8.675793,-45.39721,1007.807
22.875490665,-4.789875,-0.6093285,0.231596,0.08277723,0.1431325,0.9788404,-11.15684,8.288657,-46.28597,1007.807
22.907663822,-3.868419,-0.9644386,-0.01355207,0.09939279,0.1285647,0.9886872,-11.15054,9.056609,-45.84341,1007.807
22.942311287,-0.1825941,-0.3725885,0.231596,0.0919659,0.127053,0.976694,-11.15054,9.056609,-45.84341,1007.809
22.974483967,-0.305455,0.2192617,-0.2587002,0.08710827,0.1353182,0.9753615,-10.77864,8.664423,-46.28976,1007.809
23.009130955,1.107445,0.6335568,-0.2587002,0.08272917,0.1295489,0.9796928,-11.15029,9.437742,-45.84528,1007.807
23.041303635,4.117535,0.1008916,-0.1974131,0.08328576,0.1383131,0.9836158,-11.15029,9.437742,-45.84528,1007.809
23.075951576,2.704635,0.2192617,-0.1361261,0.08029073,0.1435859,0.9730833,-11.15029,9.437742,-45.84528,1007.807
23.108123779,2.274622,0.1008916,0.109022,0.07984516,0.1489462,0.9755416,-11.52848,9.061977,-45.84148,1007.807
23.142771244,2.274622,0.8702968,0.3541701,0.07933915,0.1445801,0.9755104,-11.52848,9.061977,-45.84148,1007.807
23.174943924,2.950357,0.6335568,0.292883,0.08139174,0.1601361,0.9799575,-11.15658,8.66979,-46.28783,1007.81
23.209591389,0.43171,0.7519268,0.109022,0.0892112,0.1601078,0.9813303,-10.76708,8.675793,-45.39721,1007.805
23.241764069,1.168875,0.7519268,0.170309,0.08268967,0.147405,0.9663444,-10.76708,8.675793,-45.39721,1007.805
23.273936749,-1.779785,0.4560017,0.292883,0.09030251,0.1674614,0.9915026,-11.15632,9.050924,-46.28969,1007.805
23.308583736,-5.097027,-0.2542184,0.170309,0.07549269,0.1388489,0.9851391,-11.52874,8.680844,-45.83962,1007.804
23.340756416,-2.086937,-0.4909585,0.5380312,0.08270211,0.1425806,0.9701605,-11.52874,8.680844,-45.83962,1007.804
23.375404358,-3.008393,0.04170663,0.231596,0.0775094,0.1408324,0.9918845,-11.15054,9.056609,-45.84341,1007.804
23.407577038,-5.46561,-0.6685135,1.089614,0.09411349,0.1518832,0.9879646,-11.15632,9.050924,-46.28969,1007.804
23.442224026,-2.762671,-0.3134034,1.150901,0.0822904,0.1208918,0.9897474,-11.15632,9.050924,-46.28969,1007.804
23.474396706,-3.622697,0.2784467,-0.07483909,0.08227367,0.130548,0.9830793,-10.77235,9.432375,-45.84721,1007.806
23.509044647,-0.4897462,-0.2542184,-0.8715703,0.07965794,0.1154096,0.9694829,-10.77812,9.426689,-46.29349,1007.804
23.541216850,2.458914,-0.9644386,-0.4425613,0.08917806,0.1325142,0.9907431,-10.77812,9.426689,-46.29349,1007.804
23.575864315,-0.4897462,-0.6685135,0.109022,0.08779275,0.1456494,0.9937562,-11.15003,9.818876,-45.84713,1007.81
23.608036995,-0.2440245,0.1008916,-0.01355207,0.08321111,0.1280903,0.9796763,-10.77235,9.432375,-45.84721,1007.81
23.642684460,3.994674,0.5743718,-0.8102834,0.07864377,0.1090934,0.9679943,-10.76657,9.438059,-45.40092,1007.81
23.674857140,10.5063,0.4560017,-1.055431,0.08124661,0.1377599,0.9735084,-10.76657,9.438059,-45.40092,1007.811
23.709504604,7.86479,0.04170663,-0.7489963,0.08834209,0.1771348,0.9858168,-10.76631,9.819193,-45.40279,1007.811
23.741676807,-0.05973332,0.3968167,-0.07483909,0.07896549,0.1741842,0.974794,-10.7726,9.051241,-45.84534,1007.811
23.773849487,-3.684128,0.04170663,-0.1974131,0.0837368,0.145047,0.9759552,-10.7726,9.051241,-45.84534,1007.813
23.808497429,-0.3668854,-0.3725885,-0.1974131,0.08479435,0.1373793,0.989378,-10.76683,9.056926,-45.39906,1007.813
23.840670109,2.520344,-0.3134034,-0.4425613,0.09108048,0.1450323,0.9787785,-11.1621,9.045239,-46.73597,1007.813
23.875317097,0.6160012,0.6335568,-0.2587002,0.08817841,0.160061,0.9745916,-11.1621,9.045239,-46.73597,1007.813
23.907489777,-1.779785,0.04170663,0.109022,0.08285148,0.1610921,0.9789878,-10.77838,9.045556,-46.29163,1007.815
23.942137718,-3.254115,-0.2542184,0.04773496,0.07845653,0.1475713,0.9851833,-10.7726,9.051241,-45.84534,1007.815
23.974309921,-4.298432,-0.2542184,0.109022,0.08236016,0.1475516,0.9851467,-10.7726,9.051241,-45.84534,1007.815
24.008957386,-2.51695,-0.3134034,0.231596,0.08124054,0.1372709,0.9730223,-10.77312,8.288974,-45.84163,1007.815
24.041130066,-0.8583286,0.3376317,0.170309,0.08465667,0.1285498,0.9772567,-11.15029,9.437742,-45.84528,1007.815
24.075777531,3.011787,0.4560017,0.231596,0.08964144,0.136358,0.9859504,-11.15029,9.437742,-45.84528,1007.815
24.107950211,1.783179,0.1600767,-0.2587002,0.09066756,0.1475208,0.9865149,-10.77235,9.432375,-45.84721,1007.815
24.142597675,-0.2440245,0.1600767,-0.3199872,0.08429945,0.1543003,0.9803642,-11.52848,9.061977,-45.84148,1007.816
24.174769878,-1.288342,0.5151867,-0.2587002,0.08424531,0.1402276,0.9807307,-11.52848,9.061977,-45.84148,1007.816
24.209417820,2.213192,0.04170663,-0.2587002,0.08520918,0.1373103,0.9806976,-11.14477,9.062294,-45.39713,1007.818
24.241590500,3.4418,0.4560017,-0.1974131,0.08041647,0.1475688,0.9861289,-10.39441,9.427006,-45.84914,1007.815
24.276237488,-1.165481,0.3376317,-0.5038483,0.06904594,0.1653459,1.018193,-10.39441,9.427006,-45.84914,1007.813
24.308410168,-24.57047,-0.7276986,-2.648894,0.07014577,0.2051063,1.013691,-11.15054,9.056609,-45.84341,1007.813
24.340582848,-31.32781,-12.32796,6.11515,0.05365762,0.3574577,1.184765,-11.52848,9.061977,-45.84148,1007.813
24.375230789,-130.4151,-43.81439,-1.178006,0.02670417,0.3443565,1.29384,-11.52848,9.061977,-45.84148,1007.817
24.407402992,-207.2031,-71.15786,1.028327,-0.03105252,0.05095848,1.415352,-11.13873,9.449112,-44.95271,1007.815
24.442050457,-178.7608,-119.2753,0.109022,0.008997057,-0.1478814,1.399361,-12.23479,14.07293,-42.29156,1007.815
24.474223137,-222.9293,-150.4066,-30.65706,0.02131305,-0.3812508,1.293692,-12.23479,14.07293,-42.29156,1007.815
24.508870602,-185.8253,-174.2581,-87.53143,0.2284794,-1.033448,0.942235,-15.17939,21.04937,-36.57169,1007.813
24.541043282,-53.3199,-183.1359,-132.7,0.256577,-0.8689159,0.8960933,-19.29299,27.68929,-28.67618,1007.813
24.575690746,-73.59193,-198.1097,-157.9502,0.2921703,-0.3799728,1.004386,-25.63635,30.14614,-22.47029,1007.812
24.607862950,-143.3769,-206.0405,-176.704,0.2574821,-0.4120872,0.7827252,-25.63635,30.14614,-22.47029,1007.81
24.642510891,-18.67315,-212.5509,-188.7776,0.4958424,-0.5471295,0.2925682,-32.71639,28.06204,-14.51684,1007.807
24.674683571,64.31934,-201.7792,-182.465,0.6661863,-0.2104133,0.1332488,-39.42499,23.6809,-6.93669,1007.805
24.709330559,49.82176,-184.9706,-172.7817,0.6690392,-0.04894668,-0.01197452,-39.42499,23.6809,-6.93669,1007.805
24.741503239,93.99023,-183.2543,-151.2699,0.8258181,0.1327388,-0.1425615,-42.7505,17.70986,-0.7053394,1007.801
24.776151180,13.27067,-160.0538,-136.7449,0.923943,0.3913297,-0.03096734,-44.94822,11.33589,5.075792,1007.799
24.808323860,-103.0171,-112.5282,-137.4803,0.7974976,0.1899253,-0.1721917,-44.94822,11.33589,5.075792,1007.798
24.840496063,-68.61607,-80.8642,-141.5866,0.7193584,0.1163471,-0.2597931,-45.24969,6.084165,11.28795,1007.794
24.875143528,-34.5222,-47.66142,-153.0473,0.7157646,0.3043106,-0.3719618,-44.452,-0.4238846,14.88627,1007.792
24.907316208,-71.07329,3.711177,-155.3149,0.774767,0.3490232,-0.5152977,-44.452,-0.4238846,14.88627,1007.792
24.941963673,-89.31812,69.93921,-159.7275,0.6854514,0.2407269,-0.5804269,-43.31105,-5.765301,15.73532,1007.792
24.974136353,-91.77534,120.7791,-180.5038,0.5673847,0.2253064,-0.4531685,-41.83803,-13.06161,13.14901,1007.791
25.008783817,-50.67839,177.8927,-203.1187,0.5073445,0.4057361,-0.1937331,-41.83803,-13.06161,13.14901,1007.787
25.040956020,17.01792,-27.71606,-4.671366,-1.796875,2.170794,-0.4517008,-41.54504,-20.38729,6.99826,1007.787
25.075603962,-204.1316,-76.83962,17.08553,3.676375,0.6382083,0.9652958,-39.61381,-26.08647,10.52299,1007.787
25.107776642,49.33032,4.835692,33.32659,-0.5800933,0.5371057,-0.9165884,-39.61381,-26.08647,10.52299,1007.785
25.142423630,52.03326,-41.0327,34.73619,1.088445,1.133615,-0.09434478,-38.48525,-25.34599,10.06719,1007.784
25.174596310,25.31103,39.22218,59.68001,0.7389402,0.7185345,-0.07908152,-38.0842,-25.32862,11.85038,1007.784
25.209244251,146.759,27.62193,70.5891,0.4973578,0.7573924,-0.042285,-38.0842,-25.32862,11.85038,1007.784
25.241416931,148.6019,44.66721,86.09471,0.7176388,1.155756,0.02015762,-39.97313,-24.15838,11.85447,1007.784
25.276063919,-4.175571,82.01295,105.8291,0.6336085,0.8423991,-0.07177552,-41.08152,-20.68933,13.62864,1007.784
25.308236599,2.336053,89.94374,121.5186,0.5316052,0.4881041,-0.1339945,-41.08152,-20.68933,13.62864,1007.788
25.342884541,31.20835,103.0828,101.7229,0.71096,0.380583,-0.05124056,-43.38651,-16.12331,10.49395,1007.788
25.375056744,0.6774317,141.2572,101.6003,0.6738954,0.2744404,-0.05514375,-45.30728,-10.79471,7.799887,1007.784
25.407229424,-11.11721,153.2125,97.80054,0.6909457,0.4023625,0.05371962,-45.30728,-10.79471,7.799887,1007.782
25.441876888,-65.11454,163.925,103.6228,0.778506,0.2604331,0.1471684,-46.88498,-7.029307,2.497402,1007.782
25.474049091,-44.90393,165.9373,113.49,0.8437861,-0.001528775,0.1443997,-47.33463,-3.285695,-3.257165,1007.784
25.508697033,43.18727,178.1886,110.3644,1.231745,0.009045281,0.2551007,-47.33463,-3.285695,-3.257165,1007.782
25.540869713,46.99596,218.0793,106.9323,0.9827631,0.3159492,0.6175976,-47.03945,1.198077,-9.911882,1007.782
25.575516701,-74.02195,224.6488,105.0324,0.3946799,0.1272937,0.7622737,-44.85974,5.332523,-16.95724,1007.782
25.607689381,-40.48095,193.991,108.7096,0.188299,-0.208951,0.5816416,-44.85974,5.332523,-16.95724,1007.782
25.642337322,55.65765,184.4622,84.93026,0.1155036,-0.3425778,0.5783271,-41.18013,8.98947,-24.90073,1007.782
25.674510002,80.41411,178.1294,50.97725,0.1760624,-0.2187447,0.8144807,-35.94341,13.8122,-29.4148,1007.78
25.709156990,47.79456,182.9234,15.24692,0.2275877,-0.1168182,0.973418,-29.59195,14.79124,-35.19115,1007.78
25.741329670,27.15394,190.3215,-14.23214,0.0976467,-0.2662396,1.088115,-29.59195,14.79124,-35.19115,1007.782
25.775977611,124.2754,174.5191,-49.53347,-0.2022303,-0.3259071,1.088011,-24.36481,12.74869,-40.05426,1007.782
25.808149815,277.6057,136.4632,-85.07994,-0.3636778,-0.1630003,0.9607205,-17.99808,10.69572,-44.47688,1007.782
25.842797279,490.5235,6.492873,-69.94205,0.4063882,0.497233,1.977443,-17.99808,10.69572,-44.47688,1007.782
25.874969959,624.9947,-89.80114,-1.423154,-0.799309,2.638266,1.017763,-11.92261,2.195574,-46.69861,1007.778
25.907143116,-25.98337,-91.04403,-15.3966,0.4355537,1.554663,0.5220558,-9.966007,-17.25382,-40.4289,1007.784
25.941790104,-296.9529,42.06306,4.215253,0.322742,0.567254,0.1766046,-9.966007,-17.25382,-40.4289,1007.784
25.973962784,-164.0175,47.09379,4.644262,-0.1105885,0.1530985,0.3208695,-13.00302,-28.65056,-40.80389,1007.784
26.008609772,-45.27252,20.57891,6.911882,0.05776224,0.5772358,0.9860266,-12.66379,-18.79113,-44.36069,1007.785
26.040783405,-47.054,19.15847,0.4767441,-0.1698514,0.5736744,1.195863,-12.66379,-18.79113,-44.36069,1007.787
26.075430393,24.81958,-11.73611,0.9670404,0.07874405,0.3834055,0.7890231,-11.92293,-15.38872,-45.72015,1007.789
26.107603073,48.59315,1.935627,-2.036024,0.01761177,0.541231,0.6969047,-11.1718,-13.88061,-46.17774,1007.791
26.142251015,4.240396,0.1600767,2.131494,-0.05926698,0.7438378,0.8000302,-11.1718,-13.88061,-46.17774,1007.791
26.174423218,-36.67226,-2.621619,3.112086,0.01789597,0.6400255,0.8572583,-11.91715,-15.38304,-45.27386,1007.791
26.209070683,-32.74072,-0.9644386,2.928225,0.02781582,0.4907744,0.8323174,-11.54525,-15.77522,-45.72022,1007.792
26.241242886,-9.827168,0.9886668,0.4154571,0.02484816,0.4772129,0.8341612,-11.54525,-15.77522,-45.72022,1007.792
26.275890827,-0.05973332,1.639702,-1.116719,-0.001601614,0.4912781,0.815726,-11.17231,-14.64288,-46.17402,1007.792
26.308063507,0.001697099,-3.272654,-0.01355207,0.002158447,0.550086,0.8282258,-11.54974,-13.87524,-46.1758,1007.791
26.342710972,-8.229978,-0.8460686,-0.8715703,0.02370572,0.5481137,0.8381304,-11.54974,-13.87524,-46.1758,1007.791
26.374883175,-9.520017,-1.674659,0.04773496,0.00484143,0.5609333,0.8519081,-11.54396,-13.86955,-45.72952,1007.791
26.409531117,-17.13739,-6.823755,1.028327,0.006060465,0.5418441,0.8319774,-11.54396,-13.86955,-45.72952,1007.795
26.441703796,-21.43752,-6.52783,-0.8102834,0.03760222,0.5129942,0.8246973,-11.54396,-13.86955,-45.72952,1007.796
26.473876476,-27.51913,-10.6116,1.641198,0.01282838,0.5426817,0.8820491,-12.30536,-13.48337,-46.1738,1007.795
26.508523464,-37.9623,-11.14426,0.5380312,0.01731788,0.4629971,0.8741203,-11.92113,-12.72079,-45.73317,1007.795
26.540696144,-13.20584,-19.25261,3.602382,0.03100879,0.4276533,0.8944271,-11.92113,-12.72079,-45.73317,1007.796
26.575344086,-14.7416,-22.21186,4.399114,0.03649468,0.4964007,0.8751807,-12.2983,-11.57202,-45.73682,1007.798
26.607516289,-34.09218,-17.95053,5.563567,0.05970801,0.5129806,0.9001648,-13.43134,-10.41251,-45.7366,1007.796
26.642163753,-51.84557,-17.77298,10.5891,0.01057887,0.4761345,0.9369513,-13.43134,-10.41251,-45.7366,1007.8
26.674335956,-58.3572,-20.96897,10.09881,0.08892209,0.404977,0.8864698,-13.81429,-9.269426,-46.18653,1007.8
26.708983898,-37.10227,-24.75681,14.3889,0.07571356,0.3817641,0.9519536,-14.94104,-7.341969,-45.74375,1007.8
26.741156578,-57.12859,-18.12809,13.46959,0.08751167,0.4243384,0.9415905,-14.94104,-7.341969,-45.74375,1007.798
26.775804043,-80.84072,-13.09737,9.60851,0.1408552,0.2777659,0.9143385,-15.69538,-5.04443,-45.75105,1007.8
26.807976246,-58.48006,-10.43404,7.524752,0.1724107,0.2189472,0.9231991,-16.1295,-3.507948,-45.30995,1007.8
26.842624187,-54.1185,-4.160429,5.440993,0.1674481,0.2135771,0.9159711,-17.25549,-0.4370899,-44.87276,1007.798
26.874796867,-50.00266,0.4560017,5.195845,0.1565072,0.1491292,0.9227719,-17.25549,-0.4370899,-44.87276,1007.798
26.909443855,-29.79205,4.598952,4.644262,0.1627954,0.1151973,0.9325554,-17.62555,2.686554,-44.43974,1007.8
26.941616535,8.601955,-2.444064,4.88941,0.1511925,0.06989896,0.9674762,-17.24632,4.586853,-44.45098,1007.802
26.976264477,64.01219,-6.6462,3.357234,0.1669214,0.1366568,0.9485998,-17.24632,4.586853,-44.45098,1007.802
27.008437157,24.94245,6.433688,-1.729589,0.2067793,0.2793764,0.9768784,-17.62374,5.354488,-44.45277,1007.802
27.040609360,-18.30457,14.89714,-6.509976,0.1526459,0.187352,0.967467,-17.63659,3.437451,-45.33602,1007.804
27.075256825,25.74104,15.25226,-8.655023,0.1356997,0.120417,0.8995934,-17.63659,3.437451,-45.33602,1007.804
27.107429504,37.7814,22.41364,-8.409875,0.1460136,0.2359617,0.9096076,-17.24761,2.681185,-44.44167,1007.804
27.142076969,25.31103,33.83635,-7.06156,0.1256697,0.2381359,0.9266855,-16.88122,2.664447,-45.33617,1007.804
27.174249649,52.40184,36.85478,-1.974737,0.08137508,0.2481305,0.9353751,-16.88122,2.664447,-45.33617,1007.804
27.208897114,47.11882,41.70795,3.786243,0.0296066,0.3329373,0.9476433,-15.69152,0.672572,-45.77896,1007.806
27.241070271,37.28996,48.92852,6.544159,0.04178364,0.2908228,0.9071765,-13.80889,-1.265623,-46.22561,1007.806
27.275717259,64.93365,48.04075,11.20197,0.002576814,0.3198413,0.9313996,-13.80889,-1.265623,-46.22561,1007.804
27.307889938,69.11092,45.19987,12.85672,-0.01036263,0.4380752,0.960451,-12.30394,-2.817316,-46.67218,1007.802
27.342536926,59.5892,46.32439,10.52782,-0.03726324,0.4096599,0.9088938,-9.671973,-5.915333,-47.56339,1007.805
27.374710083,61.06353,49.46119,13.46959,-0.01388174,0.4747496,0.9304202,-9.671973,-5.915333,-47.56339,1007.806
27.409357548,44.53875,58.16139,12.18257,-0.0502543,0.6158191,0.9473466,-8.533663,-7.831421,-47.11361,1007.808
27.441530228,-15.66306,67.03915,13.83731,-0.09531976,0.7077282,0.9408128,-6.278868,-9.78067,-48.00847,1007.808
27.476177216,-115.426,79.34962,13.28573,-0.1012582,0.6293815,0.9108204,-6.278868,-9.78067,-48.00847,1007.808
27.508350372,-121.0162,82.84155,12.85672,-0.176811,0.3968675,0.8594805,-3.634062,-10.96165,-48.01642,1007.808
27.540523052,-78.5678,81.95377,8.99564,-0.2161616,0.305384,0.8668055,-0.9919472,-7.574712,-48.49299,1007.808
27.575170040,-44.35106,76.98222,2.192781,-0.294523,0.3750743,0.9158292,-0.9919472,-7.574712,-48.49299,1007.806
27.607342720,-44.35106,73.01683,-4.671366,-0.3092577,0.3161027,0.8749925,2.406817,-3.055112,-48.979,1007.806
27.641990662,-15.66306,68.10448,-12.5161,-0.3136449,0.2774806,0.8361551,5.432704,-0.8104465,-48.94188,1007.805
27.674163341,6.697612,67.86774,-20.97371,-0.3137498,0.3266345,0.9160912,5.432704,-0.8104465,-48.94188,1007.805
27.708810329,-5.281318,72.18824,-25.50895,-0.3929373,0.2703666,0.8696123,8.846477,1.502118,-48.14196,1007.805
27.740983009,-7.431383,70.41269,-34.02785,-0.4629959,0.2569601,0.7853236,11.13119,1.105828,-46.81286,1007.803
27.775630951,3.503231,69.28818,-35.13102,-0.4853589,0.2315569,0.7496548,11.13119,1.105828,-46.81286,1007.803
27.807803154,4.301826,73.78623,-33.23112,-0.6299343,0.2398567,0.7886683,13.77754,2.211649,-46.83198,1007.803
27.842450619,-2.57838,67.45344,-25.44767,-0.7062066,0.2623469,0.7606454,16.81313,2.942338,-45.95861,1007.801
27.874623299,-26.53624,73.49031,-18.27708,-0.7685673,0.2018955,0.6860191,16.81313,2.942338,-45.95861,1007.803
27.909270763,-56.76001,85.26813,-9.451754,-0.974017,0.1281085,0.489226,19.48207,3.308631,-44.18888,1007.803
27.941443443,-72.3019,90.77233,-9.022745,-1.053504,0.11747,0.443126,21.07442,3.684451,-42.85996,1007.803
27.976090908,-93.80254,103.7338,-1.729589,-1.038354,0.08170525,0.346772,25.2674,6.326629,-40.28033,1007.803
28.008263111,-99.63843,122.2588,12.36643,-1.094828,-0.03335293,0.2441665,25.2674,6.326629,-40.28033,1007.801
28.040436745,-85.57087,141.198,24.43997,-1.025573,-0.06416123,0.1960303,28.72209,9.377732,-36.35985,1007.801
28.075083733,-54.60994,155.935,36.14579,-0.9493427,-0.1306571,0.1822388,32.939,12.04346,-31.93134,1007.801
28.107256413,-73.83765,168.1272,38.90371,-0.8341283,-0.1481479,0.2542835,32.939,12.04346,-31.93134,1007.803
28.141903400,-57.49717,168.5414,42.58093,-0.586591,-0.08985966,0.3565661,37.17692,12.82545,-25.77216,1007.803
28.174076557,-48.77405,158.7167,56.49308,-0.2822562,-0.03684934,0.2514975,41.8033,12.08891,-18.71491,1007.801
28.208724022,-38.33088,148.3002,68.6892,-0.2153976,0.3753786,0.6914456,41.8033,12.08891,-18.71491,1007.801
28.240896225,-128.5107,79.17207,85.11412,-1.669459,0.6292917,1.4624,45.29531,11.74879,-11.71747,1007.799
28.275543690,-201.3058,-24.16496,80.70145,-0.6599827,-1.082177,0.4073921,47.2512,8.359154,-6.418782,1007.797
28.307716847,195.5347,-11.08508,83.15294,-1.436361,0.6573369,0.1503815,47.2512,8.359154,-6.418782,1007.797
28.342364311,-87.41378,13.06241,67.03445,-1.47255,0.6337136,0.2107744,47.62156,5.680166,-6.853971,1007.797
28.374536514,35.26275,-6.823755,47.23874,-1.210611,0.5535989,0.06114192,48.00219,1.106881,-6.387296,1007.794
28.409184456,-47.97546,-6.231905,7.831187,-0.8351527,0.4407625,0.02152231,48.00219,1.106881,-6.387296,1007.794
28.441357136,-11.17864,-6.942125,-2.403746,-0.7728126,0.3165092,0.1249921,48.75019,-2.022131,-6.822248,1007.792
28.476004124,-9.888598,-4.98902,5.931289,-0.822218,0.2794119,0.1290033,48.73838,-2.414634,-7.712949,1007.79
28.508176804,-3.131254,-1.674659,21.06919,-0.9021391,0.2514163,0.0977063,48.73838,-2.414634,-7.712949,1007.79
28.542824745,-4.114141,-4.51554,29.83323,-0.9211293,0.376272,0.1003588,48.74415,-2.408949,-7.266668,1007.789
28.574997425,-7.922826,-9.191155,26.6463,-0.9593722,0.4415424,0.1055918,48.7439,-2.790083,-7.264808,1007.787
28.607169628,-10.99435,-15.05047,19.53701,-0.9231633,0.4254938,0.1248836,48.7439,-2.790083,-7.264808,1007.791
28.641817093,-3.131254,-22.86289,14.51147,-0.902554,0.4786877,0.1125978,49.11554,-3.563404,-7.709301,1007.793
28.673989296,-17.07596,-21.20571,11.9987,-0.8443729,0.3817854,0.17247,48.34708,-5.08857,-8.590551,1007.793
28.708637237,-6.325635,-16.82602,17.63711,-0.8620729,0.4469968,0.1832947,48.34708,-5.08857,-8.590551,1007.793
28.740809917,-4.05271,-10.84834,21.31433,-0.9163406,0.3587188,0.1560814,48.71924,-5.099623,-9.038765,1007.794
28.775457382,5.346143,-10.1973,20.57889,-0.8462052,0.4283265,0.1641948,48.33527,-5.481073,-9.481251,1007.794
28.807630539,1.230305,-6.942125,13.8986,-0.7939676,0.497684,0.1912711,48.33527,-5.481073,-9.481251,1007.794
28.842277527,-4.851305,-5.4625,11.75356,-0.837217,0.4318537,0.186794,47.945,-6.630476,-10.3663,1007.793
28.874450207,-26.84339,-6.52783,15.43078,-0.7926127,0.5685127,0.3764482,47.93896,-7.017293,-10.81072,1007.793
28.909097195,-8.844282,-4.337985,18.80157,-0.9075399,0.3707798,0.1522427,47.17736,-8.154829,-11.18379,1007.794
28.941270351,1.353166,-2.621619,21.49819,-0.9021583,0.4780431,0.2181467,47.17736,-8.154829,-11.18379,1007.794
28.975917816,3.073218,-3.686949,23.33681,-0.872287,0.5065202,0.2166567,47.55504,-8.54133,-11.18387,1007.794
29.008090496,-1.04262,-0.5501435,22.60136,-0.8533272,0.4933039,0.2144428,47.17607,-10.0605,-11.17449,1007.793
29.042737484,-5.649901,1.994812,22.72393,-0.7985284,0.4931254,0.2896039,47.17607,-10.0605,-11.17449,1007.793
29.074910641,-37.59372,8.919458,20.02731,-0.7882828,0.456396,0.1908777,46.79184,-10.82308,-11.61511,1007.797
29.109558105,-13.63585,6.433688,25.11413,-0.8125215,0.4552502,0.1525344,46.7971,-11.57966,-11.16511,1007.797
29.141730309,4.731839,5.723468,24.56255,-0.7518145,0.6054429,0.2192401,46.7971,-11.57966,-11.16511,1007.795
29.173902988,-3.315545,7.143908,20.27245,-0.8583145,0.5676627,0.2237784,47.17427,-12.72843,-11.16146,1007.793
29.208550930,-1.841215,6.315318,16.22751,-0.8127117,0.61551,0.2266393,46.41762,-13.8611,-11.15201,1007.795
29.240723610,-19.28745,0.1008916,20.45631,-0.8616572,0.9606637,0.3909293,46.41762,-13.8611,-11.15201,1007.795
29.275370598,16.03504,-9.723821,8.99564,-0.9258562,0.5861922,0.1913034,46.03917,-14.618,-11.14636,1007.793
29.307543278,-13.63585,-19.72609,5.686141,-0.9373323,0.5391498,0.1259528,46.04412,-14.61312,-10.76383,1007.793
29.342191219,-3.131254,-38.66529,7.524752,-0.9121199,0.6886696,0.2084081,46.04412,-14.61312,-10.76383,1007.795
29.374363422,-40.23523,-54.70443,21.62077,-0.9757416,0.5529732,0.194387,46.4053,-15.01587,-12.03899,1007.793
29.409010887,-48.58976,-94.18083,27.19789,-0.7661819,0.4357712,-0.01483037,45.24233,-15.40932,-14.26273,1007.793
29.441183567,-16.9531,-104.3015,23.8271,-0.4414668,0.5840224,0.2850936,45.24233,-15.40932,-14.26273,1007.793
29.475831032,-84.89513,-87.6113,33.20401,-0.4712954,0.6047963,0.442193,44.44657,-15.8187,-17.31721,1007.79
29.508003712,-91.2839,-52.63296,32.83629,-0.295386,0.4102604,0.5054638,42.12698,-16.98024,-21.2528,1007.79
29.542651177,-12.03866,-33.63457,23.09166,-0.5459197,0.4797712,0.7980562,42.12698,-16.98024,-21.2528,1007.79
29.574824333,20.3966,-27.12421,18.98543,-0.4962055,0.6521398,0.6491115,40.57059,-15.86003,-24.75714,1007.786
29.609471321,-68.30892,-8.599305,7.463465,-0.6497292,0.6889391,0.5385416,39.0415,-15.85561,-26.08824,1007.786
29.641644001,-39.80521,-35.41012,-3.016616,-0.8286773,0.7015294,0.608277,39.0415,-15.85561,-26.08824,1007.784
29.676290989,-44.71965,-35.58767,-13.98699,-0.563394,0.5667639,0.3603169,39.01814,-16.25949,-27.87151,1007.784
29.708464622,-61.30585,-51.03496,-23.79292,-0.6679375,0.841511,0.737107,39.00735,-15.12745,-28.76965,1007.783
29.740636826,-81.33217,-32.92435,-26.06054,-0.4626676,0.4261737,0.5100478,39.00735,-15.12745,-28.76965,1007.783
29.775284290,-101.8499,-24.10578,-26.73469,-0.4315696,0.4296909,0.6085966,37.47485,-12.8411,-30.49445,1007.783
29.807456493,-72.54762,-5.166574,-36.84705,-0.6533692,0.2573714,0.7789094,36.70318,-10.56062,-31.84058,1007.784
29.842104435,-13.88158,-17.18113,-30.28934,-0.5484811,0.3626866,0.7821729,36.70318,-10.56062,-31.84058,1007.786
29.874277115,-32.67928,-27.89362,-23.54777,-0.6553224,0.3985446,0.7685235,36.31574,-7.517555,-32.7461,1007.786
29.908924103,-18.73458,-34.81827,-12.45482,-0.5792936,0.2033483,0.618713,35.93331,-5.612204,-33.19975,1007.792
29.941096783,-14.7416,-35.4693,-5.835819,-0.4933853,0.339679,0.7294132,35.93331,-5.612204,-33.19975,1007.792
29.975744724,-18.42743,-20.0812,-2.710181,-0.4728192,0.2086314,0.7430829,35.16164,-3.331721,-34.54589,1007.79
30.007917404,26.04819,-23.39556,-0.8715703,-0.4684843,0.2365673,0.7808687,34.01678,-2.564718,-35.43637,1007.792
30.042564392,35.87706,-20.55468,-2.342459,-0.5581911,0.3168414,0.8103235,32.87692,-2.935431,-35.87498,1007.792
30.074737549,54.42904,-36.88974,-1.852163,-0.5085359,0.3721326,0.7110242,32.87692,-2.935431,-35.87498,1007.792
30.109385014,29.91831,-31.44472,-1.974737,-0.485388,0.4993156,0.7909045,32.87615,-4.078831,-35.8694,1007.79
30.141557694,9.953424,-25.9997,-2.710181,-0.3915486,0.398474,0.7405156,32.10351,-4.46547,-37.13876,1007.79
30.176205158,-10.5029,-11.85448,-6.080967,-0.4502344,0.5513082,0.884031,32.10351,-4.46547,-37.13876,1007.787
30.208377838,-31.81926,-4.75228,-11.16779,-0.4107362,0.3698589,0.7939607,30.96339,-5.217317,-37.57552,1007.787
30.240550518,-34.5222,-5.93598,-15.09016,-0.4901246,0.4066248,0.8528445,30.57994,-4.8365,-38.02173,1007.785
30.275197506,-39.92807,-7.35642,-18.15451,-0.4654238,0.3328662,0.808144,30.57994,-4.8365,-38.02173,1007.787
30.307370186,-36.48797,-5.284945,-19.80926,-0.4673753,0.2879044,0.8299635,30.19096,-4.080234,-38.91608,1007.787
30.342018128,-35.62794,-0.8460686,-16.56105,-0.4148669,0.2096481,0.7864124,30.19854,-1.406615,-38.48282,1007.787
30.374190807,-2.086937,5.190803,-17.2352,-0.4631726,0.06292565,0.8001136,30.19854,-1.406615,-38.48282,1007.791
30.408837795,-1.472633,7.380648,-12.39353,-0.3914568,0.3037405,0.8554136,29.4492,-0.2467921,-38.03825,1007.791
30.441010952,-2.946963,13.83181,-8.2873,-0.4502527,0.2573936,0.8497962,29.83344,0.5157913,-37.59763,1007.789
30.475658417,5.284713,16.49514,-8.348587,-0.4564244,0.2445628,0.818418,29.83344,0.5157913,-37.59763,1007.789
30.507830620,2.888927,16.2584,-10.86136,-0.4970045,0.2905959,0.8452042,30.21193,1.336212,-37.60359,1007.789
30.542478085,-3.622697,13.65426,-12.39353,-0.4778208,0.2433246,0.7699255,30.58435,1.706292,-38.05367,1007.789
30.574651241,-10.74862,15.60737,-9.94205,-0.516979,0.3061998,0.8416632,30.58435,1.706292,-38.05367,1007.787
30.609298229,-18.73458,11.70115,-9.022745,-0.5108765,0.2179766,0.797499,30.97911,0.9557113,-36.71304,1007.787
30.641470909,-10.13432,8.682718,-7.613142,-0.5010019,0.1924407,0.7653844,31.72999,2.08269,-37.16877,1007.787
30.676118851,-6.141344,7.617388,-1.974737,-0.5440689,0.1654244,0.8219574,31.72999,2.08269,-37.16877,1007.787
30.708291531,4.79327,2.290737,2.928225,-0.5286414,0.1690441,0.7977433,31.36412,2.861695,-36.278,1007.789
30.740463734,14.99072,-3.627764,7.524752,-0.5365593,0.1491565,0.7942792,32.49763,3.607045,-36.35127,1007.789
30.775111198,27.15394,-4.337985,14.14375,-0.4973083,0.1999297,0.7948136,32.49763,3.607045,-36.35127,1007.789
30.807283878,35.38561,-5.4625,20.39503,-0.5026433,0.2009534,0.7982458,32.50314,3.231596,-35.90314,1007.787
30.841931343,48.59315,-5.521685,26.21729,-0.4968946,0.2950854,0.7980042,32.49634,1.701377,-36.34197,1007.789
30.874104023,36.79851,-7.297235,33.87817,-0.4819593,0.4035635,0.838765,32.49634,1.701377,-36.34197,1007.789
30.908751488,-2.394089,1.107037,43.56152,-0.3783237,0.300326,0.7357271,31.73444,0.119185,-36.71288,1007.789
30.940924644,-5.52704,10.04397,45.0937,-0.4860849,0.3434561,0.7833601,31.72686,-2.554434,-37.14613,1007.789
30.975571632,-23.03471,16.6727,47.11617,-0.4457944,0.3749021,0.8589174,31.72686,-2.554434,-37.14613,1007.789
31.007744312,-29.05489,13.77263,43.86795,-0.4740225,0.342266,0.8256537,32.09824,-3.708889,-37.58876,1007.787
31.042392254,-56.69857,19.0401,39.08757,-0.4421928,0.4109128,0.7473567,31.73186,-3.69215,-36.69427,1007.787
31.074564934,-20.94607,21.4075,32.95887,-0.5552657,0.3067817,0.6405495,31.73186,-3.69215,-36.69427,1007.787
31.109211922,17.14078,24.01164,18.24998,-0.5788066,0.3718864,0.8856795,32.493,-4.459469,-36.24814,1007.787
31.141384602,22.23951,26.37904,20.21117,-0.4594587,0.3667488,0.8628336,33.25409,-4.084199,-35.87134,1007.785
31.176032543,-6.694218,37.50582,26.83016,-0.4277163,0.4367667,0.7734627,33.64859,-5.215914,-34.52885,1007.785
31.208204746,-26.41338,44.19373,24.43997,-0.5060924,0.3696685,0.770749,33.64859,-5.215914,-34.52885,1007.785
31.242852211,-7.00137,39.87322,23.33681,-0.4769558,0.3486368,0.7057158,34.78793,-5.607468,-34.08651,1007.784
31.275024891,4.977561,45.19987,22.35621,-0.4764261,0.3583063,0.7641124,35.93883,-5.987653,-32.75161,1007.784
31.307198048,7.189055,46.73868,20.88532,-0.5468161,0.4735621,0.8105454,35.93883,-5.987653,-32.75161,1007.785
31.341845036,-27.39627,54.31436,22.66265,-0.5458786,0.4102493,0.7203628,37.08947,-6.748971,-31.41484,1007.784
31.374017716,-33.17073,57.15524,23.70453,-0.597849,0.3237639,0.6753088,38.24532,-7.124282,-29.69742,1007.784
31.408664703,8.294804,50.23059,23.15294,-0.5973717,0.3039627,0.6254951,38.24532,-7.124282,-29.69742,1007.784
31.440837860,22.79238,49.16526,19.53701,-0.5519791,0.4415254,0.6180117,39.40251,-6.736515,-27.91996,1007.784
31.475485325,18.00081,49.57956,15.43078,-0.6130159,0.5094566,0.6389032,40.55892,-7.492147,-26.13692,1007.782
31.507658005,0.001697099,53.54496,8.873066,-0.579086,0.4283593,0.5926101,40.55892,-7.492147,-26.13692,1007.782
31.542305470,13.9464,48.04075,3.724956,-0.6110045,0.4737916,0.5470105,41.33689,-9.004679,-24.34822,1007.782
31.574478150,0.06312751,57.45117,1.089614,-0.5977272,0.5038369,0.4864024,42.49299,-8.998857,-22.63265,1007.782
31.609125614,1.291736,51.94696,-0.9328574,-0.7668713,0.4076907,0.497792,42.49299,-8.998857,-22.63265,1007.78
31.641297817,7.619069,42.77328,-1.91345,-0.6726081,0.4560617,0.5999771,43.27751,-9.362303,-20.40326,1007.78
31.675945759,-15.23304,43.06921,1.334762,-0.7254942,0.4364057,0.4716147,44.43444,-9.355669,-18.62394,1007.78
31.708118439,-12.40725,43.06921,8.689205,-0.7931457,0.343652,0.4218353,44.43444,-9.355669,-18.62394,1007.778
31.742765427,10.93631,40.16914,12.489,-0.8734207,0.3897293,0.4287482,45.21152,-9.726425,-16.96833,1007.778
31.774938106,-0.2440245,29.2791,14.75662,-0.8305745,0.499123,0.4803422,45.22334,-9.333921,-16.07763,1007.778
31.809586048,-13.45156,24.18919,12.05999,-0.7757448,0.4651977,0.4593069,45.22334,-9.333921,-16.07763,1007.777
31.841758728,5.284713,22.76875,5.440993,-0.8094018,0.4711811,0.4582244,46.00129,-10.84645,-14.28893,1007.782
31.873930931,16.1579,15.72574,-2.158598,-0.7393651,0.5359005,0.3988184,44.87299,-11.2058,-13.83499,1007.784
31.908578873,-9.827168,12.94404,-8.90017,-0.767543,0.474296,0.3855595,44.87299,-11.2058,-13.83499,1007.786
31.940751553,-1.718354,5.545913,-11.1065,-0.8109663,0.3908991,0.3688892,46.01811,-11.59167,-12.94637,1007.786
31.975398540,7.434777,-5.284945,-10.61621,-0.8457754,0.4585866,0.375074,45.64621,-11.19948,-12.50001,1007.788
32.007571220,-6.325635,-9.605451,-11.41294,-0.8687853,0.4281309,0.4391436,45.64621,-11.19948,-12.50001,1007.789
32.042219162,4.916131,-17.12195,-13.06769,-0.8369323,0.4005685,0.4101811,46.02441,-10.82371,-12.50381,1007.791
32.074391842,-3.745558,-11.7953,-17.17392,-0.6726536,0.4169633,0.4391494,45.64146,-9.68063,-12.95374,1007.791
32.109038830,9.21626,-6.6462,-21.46401,-0.7005029,0.3633948,0.4611396,45.64146,-9.68063,-12.95374,1007.791
32.141211510,10.69059,6.966353,-28.32816,-0.5923524,0.4874126,0.4370529,46.01966,-9.304863,-12.95753,1007.791
32.175859451,-7.861395,14.95633,-38.68567,-0.7474632,0.4534314,0.46232,46.39234,-8.55365,-13.40947,1007.791
32.208032131,-13.26727,25.01778,-46.10139,-0.7600258,0.3864668,0.3934413,46.39234,-8.55365,-13.40947,1007.789
32.242679119,-3.008393,24.42593,-54.49771,-0.889694,0.3122842,0.4460956,47.15476,-7.415302,-12.97264,1007.786
32.274852276,5.161852,30.28525,-60.38127,-0.8134427,0.3526761,0.3830571,47.16157,-5.885084,-12.5338,1007.786
32.309499741,2.704635,35.49353,-67.12284,-0.753006,0.291899,0.3453602,47.56911,-3.576039,-10.37925,1007.786
32.341671944,-11.3015,47.50808,-68.59373,-0.7162774,0.3305201,0.3419619,47.56911,-3.576039,-10.37925,1007.784
32.373844624,-19.28745,60.4696,-69.6969,-0.8339477,0.1434589,0.3670637,47.96067,-0.5209694,-9.503508,1007.784
32.408492565,17.01792,63.66559,-65.83582,-0.9384452,0.1236818,0.2526779,47.99115,1.857778,-7.283579,1007.788
32.440665245,-5.219888,66.62485,-63.13919,-0.9080537,0.1918009,0.2939258,47.99115,1.857778,-7.283579,1007.787
32.475312233,2.090331,71.59639,-53.1494,-0.9518219,-0.0098632,0.2353137,48.41,3.797059,-4.234607,1007.787
32.507485390,0.06312751,73.60868,-42.73061,-1.062976,0.003398219,0.1839223,47.68481,6.504155,-2.012361,1007.787
32.574305058,-4.421292,72.18824,-19.50282,-1.221087,0.03609834,0.1683152,47.72602,7.68735,1.106022,1007.787
32.608952999,0.3088492,69.64329,-13.06769,-1.150118,-0.02149508,0.04667835,46.9995,9.631367,3.268234,1007.787
32.641125679,-0.7968982,72.36579,-14.04828,-1.13817,-0.0140848,0.07120992,46.9995,9.631367,3.268234,1007.783
32.675772667,4.424687,74.67401,-14.59986,-1.035422,0.08627078,-0.003631402,46.662,9.676529,6.394133,1007.783
32.707945347,-1.718354,80.35577,-10.1872,-0.9994867,0.02600596,-0.05362749,45.56807,10.11275,9.458282,1007.783
32.742593288,-9.704308,86.09672,-5.345523,-1.025044,0.01000876,-0.06749887,45.56807,10.11275,9.458282,1007.783
32.774765968,-5.158457,94.4418,3.663669,-1.13173,-0.05353164,-0.1306512,44.48702,11.32342,13.47503,1007.783
32.809412956,19.29085,103.4379,13.40831,-1.165946,-0.06933413,-0.1878201,43.01514,11.76501,16.54111,1007.783
32.841585636,8.049082,89.05597,8.444057,-1.153245,-0.01094782,-0.09828737,43.01514,11.76501,16.54111,1007.783
32.876233578,6.636182,25.01778,-2.342459,-1.144503,-0.0188413,0.01676386,41.16563,11.45051,19.67661,1007.782
32.908405781,19.598,-22.56697,-20.36084,-1.06124,-0.006812748,-0.06922781,39.31029,12.27292,22.29649,1007.782
32.940578461,40.30005,-61.39234,-30.84092,-1.011222,0.103414,-0.09384978,39.31029,12.27292,22.29649,1007.782
32.975226402,37.7814,-82.81731,-28.32816,-0.9407005,0.1424616,-0.08309992,38.92683,12.65374,21.85028,1007.782
33.007399082,15.05215,-93.94409,-20.29956,-0.9262716,0.152352,-0.113037,38.51633,14.53148,19.22898,1007.782
33.042046070,-12.34582,-95.18698,-8.471162,-0.9081783,0.2233812,-0.1429862,38.51633,14.53148,19.22898,1007.782
33.074218750,116.6581,-9.723821,75.24691,-0.6714717,0.3716573,-0.9672276,39.61151,17.14351,16.08619,1007.78
33.108866692,66.77656,-17.47706,29.46551,-1.033629,0.321243,-0.3106727,40.33958,17.48629,13.91281,1007.782
33.141039372,-78.32207,3.060142,13.8986,-0.9934776,0.3350047,-0.0106482,40.33958,17.48629,13.91281,1007.78
33.175686359,-213.5918,5.013247,13.83731,-0.9168377,0.2897122,-0.04403069,39.94328,15.95008,12.58334,1007.779
33.207859516,-260.8933,-0.8460686,8.627918,-0.9823755,0.3237534,-0.07784247,41.09912,15.57476,14.30077,1007.779
33.242506981,-300.3316,-18.18727,-4.303644,-0.9306624,0.3293237,-0.140457,40.76535,12.57654,17.88784,1007.779
33.274679184,-286.4483,-30.79369,-6.142254,-0.8568269,0.07194611,-0.1726698,40.76535,12.57654,17.88784,1007.779
33.309327126,-230.4238,-43.28173,-3.874635,-0.8499046,-0.08762076,-0.02655802,40.40114,7.263096,19.25466,1007.777
33.341499806,-195.347,-46.95119,4.092679,-0.8234904,-0.1684883,0.07808672,41.14841,3.054206,18.82498,1007.777
33.376146793,-139.9368,-52.51459,4.092679,-0.8553526,-0.309179,0.1292801,41.14841,3.054206,18.82498,1007.777
33.408319473,-40.84953,-58.37391,12.55029,-0.8651381,-0.3125386,0.1278977,41.89012,-0.8427582,17.94747,1007.775
33.440492153,32.43695,-57.66368,21.68205,-0.893967,-0.1466401,0.1594184,42.62687,-3.538484,16.61779,1007.773
33.475140095,36.30707,-55.17791,27.25917,-0.9070694,0.003769947,0.2697125,42.62687,-3.538484,16.61779,1007.773
33.507312298,-16.89167,-52.57377,24.50126,-0.8466458,0.05408973,0.3510215,42.97071,-3.958283,14.00378,1007.772
33.541960240,-100.9285,-46.30016,8.260196,-0.8072596,0.02188666,0.2915845,43.71451,-4.742657,13.11108,1007.772
33.574132919,-153.5129,-46.59608,-14.59986,-0.7463594,-0.1191876,0.2898532,43.71451,-4.742657,13.11108,1007.772
33.608779907,-149.3356,-59.79434,-37.45992,-0.6704282,-0.2334199,0.3797829,44.43495,-5.930904,10.43511,1007.772
33.640952587,-113.7674,-73.82119,-51.2495,-0.6697673,-0.350735,0.3990535,44.40034,-7.107602,7.826761,1007.77
33.675600529,-41.95528,-88.97255,-62.52632,-0.7033274,-0.4741854,0.355933,44.40034,-7.107602,7.826761,1007.768
33.707773209,21.6252,-103.7688,-71.53551,-0.5191345,-0.3748385,0.3916653,45.49371,-7.163501,4.696995,1007.766
33.742420196,55.41193,-117.1446,-66.81641,-0.2844182,-0.2353687,0.4388249,46.5779,-4.943158,0.7272568,1007.766
33.774592876,64.68793,-116.7303,-63.81335,-0.1603636,-0.21465,0.4990521,46.5779,-4.943158,0.7272568,1007.765
33.809240818,27.46109,-112.0547,-78.64481,-0.00152311,-0.5154763,0.6151077,46.52192,-2.332072,-3.748575,1007.769
33.841413021,68.92662,-100.3953,-92.00538,0.3437276,-0.7209641,0.6260981,45.71666,0.2962481,-7.710504,1007.769
33.876060486,127.7155,-78.26006,-94.51814,0.3371515,-0.5302836,0.7385914,45.71666,0.2962481,-7.710504,1007.769
33.908233643,187.8559,-50.73904,-62.46503,0.03655332,-0.3842724,0.785498,45.28965,3.363855,-11.67654,1007.765
33.942881107,301.7479,-54.94117,-31.33122,-0.1418104,-0.2996175,0.1925908,43.73346,6.007784,-15.25207,1007.765
33.975053310,400.4666,-11.7953,12.12128,-0.07279947,0.2967633,0.2185534,43.73346,6.007784,-15.25207,1007.768
34.007225990,104.0034,67.15752,-3.077903,-0.4818388,0.176921,-0.6062109,42.56586,4.848004,-17.79086,1007.772
34.041873932,116.7195,332.4247,-4.487504,-0.9215532,-1.070462,-1.516141,41.43778,-1.287803,-16.98993,1007.777
34.074046612,929.0138,603.137,-50.20763,-2.513704,-0.6375087,-6.699453,41.43778,-1.287803,-16.98993,1007.78
34.108693600,-378.2254,-89.09092,-120.6264,3.726824,4.938929,7.273503,43.09291,-1.5491,-5.902539,1007.78
34.140866280,183.6786,-336.721,113.49,-3.198225,-1.962591,0.3520004,43.17117,-4.138259,0.2946606,1007.785
34.175514221,-296.2772,-192.7239,-192.3322,-3.088017,3.06006,0.2352473,43.17117,-4.138259,0.2946606,1007.794
34.207686424,-282.2096,-54.88199,-193.2515,-0.1814497,-0.3638748,0.2685868,44.68268,-4.540866,0.2887859,1007.801
34.242333889,-140.7354,103.7338,-95.86646,1.284527,-1.447505,0.7371317,44.65084,-0.382507,-2.409367,1007.805
34.274507046,340.449,86.1559,-81.89301,0.324591,0.6232073,0.1953646,44.65084,-0.382507,-2.409367,1007.805
34.309154034,-42.07814,118.7668,-35.1923,-2.116272,-0.4717013,-0.4218235,44.3012,7.331793,-0.6598358,1007.808
34.341326714,-3.315545,107.6401,-3.935922,-1.362323,0.2820039,0.4319401,42.86001,10.46974,4.624626,1007.811
34.375974178,-11.85437,94.56017,37.00381,-0.7985387,0.1033968,0.418941,41.77236,11.67391,8.131336,1007.818
34.408147335,-63.45592,78.99451,70.89553,-0.3760192,0.1907195,0.3077504,41.77236,11.67391,8.131336,1007.82
34.442794323,-148.9671,123.7976,82.11106,-0.9228967,0.2003183,0.3818584,41.44013,10.9625,11.70724,1007.824
34.474967003,-35.56651,191.8603,81.25304,-1.122505,-0.4526373,-0.582287,40.73915,7.980201,16.12504,1007.824
34.507139683,34.83274,210.9179,52.38685,-1.614957,0.2099295,-0.3288199,40.73915,7.980201,16.12504,1007.827
34.541787148,-140.5511,229.5612,27.50432,-1.572384,0.4232666,-0.70872,39.29282,3.495479,21.44672,1007.829
34.573959828,-82.06934,212.9302,-18.15451,-0.9945091,0.1587201,-1.094181,34.8421,1.738694,28.10968,1007.836
34.608607292,-121.0162,252.8801,-35.49874,-0.675119,0.4867027,-1.282919,34.8421,1.738694,28.10968,1007.837
34.640779495,-12.03866,333.3125,-22.99619,-0.3549078,0.3796638,-1.802529,28.87278,-1.590357,34.34186,1007.837
34.675427437,-27.4577,393.5629,12.9793,-0.2806838,1.03844,-0.6048415,20.55579,-4.458702,39.24494,1007.836
34.707600117,-27.70342,344.7352,64.27654,-0.7131984,0.5046903,0.333729,20.55579,-4.458702,39.24494,1007.838
34.742247105,76.91257,191.6828,63.29594,-0.255738,0.290842,1.158665,7.735503,-3.104348,41.53651,1007.836
34.774420261,23.46811,140.9612,56.98338,0.6402014,-0.4989693,-1.42671,-4.732011,-4.82717,42.05592,1007.837
34.809067726,294.4377,296.9729,85.48184,-0.648846,-0.4359647,-0.3807555,-4.732011,-4.82717,42.05592,1007.839
34.841240406,802.8358,-38.60611,104.9711,-0.4380258,0.4371728,0.126719,-11.18954,-2.863535,39.46556,1007.839
34.875888348,553.7354,-60.85967,161.8455,0.7227064,2.026768,1.189874,-18.8844,7.52008,33.26984,1007.842
34.908060551,-234.6625,-78.43762,295.0834,-1.266959,0.04956689,0.6267538,-18.8844,7.52008,33.26984,1007.846
34.942708015,334.1217,-39.4347,52.20299,-2.689595,-5.776902,-6.15407,-15.22665,31.34218,22.48629,1007.84
34.974880219,-71.93331,-48.96349,3.970104,0.1050057,-0.9287607,-0.7948039,-9.143971,33.51377,20.21246,1007.847
35.009528160,8.663386,43.54269,-40.4017,-0.008694316,0.1210347,0.3827963,-9.143971,33.51377,20.21246,1007.847
35.041700840,-609.388,-61.33315,14.3889,-0.6015273,0.54383,-0.6247233,-8.779711,37.68463,18.91497,1007.851
35.073873520,-522.7711,-28.01199,-59.09424,-0.02167402,-0.4640225,-0.5309569,-9.444481,37.02324,25.99929,1007.852
35.108520508,-218.1991,38.45278,-9.206606,0.2048158,0.01397751,-1.278639,-9.444481,37.02324,25.99929,1007.854
35.140693665,63.8279,41.82632,10.83425,-0.2424337,0.1262644,-1.419586,-7.031233,24.18436,37.97302,1007.854
35.175341129,189.2688,30.4628,2.62179,-0.1414745,-0.09591195,-1.086406,-8.538638,13.54546,38.92542,1007.855
35.207513332,104.4948,5.782653,15.55335,-0.245543,-0.3128546,-1.402933,-8.538638,13.54546,38.92542,1007.855
35.242161274,-47.17686,-10.31567,9.547223,-0.1449888,-0.1787868,-0.8836523,-9.699289,16.58221,36.68493,1007.857
35.274333954,-78.87495,-6.823755,4.031392,-0.1077312,-0.08411162,-0.7930855,-10.46364,21.15518,35.77391,1007.859
35.308981419,-53.93421,9.984789,-2.219885,-0.09468364,-0.05089009,-0.8825852,-10.46364,21.15518,35.77391,1007.861
35.341153622,-10.13432,11.5236,-1.423154,-0.08222201,-0.08009825,-1.011636,-9.69171,19.25583,37.11819,1007.861
35.375801563,34.58702,7.025538,1.396049,-0.09111619,-0.08592036,-1.080045,-9.687219,17.35585,37.57377,1007.861
35.407974243,32.80554,-1.793029,0.8444663,-0.08909909,-0.1318099,-1.050076,-9.687219,17.35585,37.57377,1007.859
35.442621231,9.093399,-9.783006,0.4154571,-0.1031829,-0.1365508,-0.98154,-10.06516,17.36122,37.57571,1007.857
35.474793911,-3.745558,-9.842191,-0.5038483,-0.113187,-0.1198369,-0.960583,-10.83156,18.88512,36.67957,1007.861
35.509441853,-4.728445,-3.686949,-0.6264223,-0.1264492,-0.1183992,-0.9715334,-10.06991,18.88007,37.12198,1007.862
35.541614533,0.1245579,1.402962,-0.07483909,-0.122814,-0.1128602,-1.006225,-10.06991,18.88007,37.12198,1007.862
35.576261521,1.046014,2.349922,0.292883,-0.1164601,-0.119169,-1.001999,-10.06413,18.88575,37.56826,1007.862
35.608434677,-4.789875,1.047852,0.3541701,-0.1075996,-0.1210773,-0.9919754,-10.07594,18.49325,36.67756,1007.864
35.640607357,-5.219888,0.2192617,0.04773496,-0.108584,-0.1152772,-0.9957744,-10.07594,18.49325,36.67756,1007.862
35.675254345,1.414597,-0.01747838,-0.3812742,-0.1056523,-0.1133541,-0.9962679,-9.68619,18.88038,37.56633,1007.862
35.707427025,4.79327,0.1600767,-0.3812742,-0.1071341,-0.1196495,-0.9953418,-10.0762,18.11211,36.67942,1007.862
35.742074966,0.9845837,-0.3134034,-0.07483909,-0.1095556,-0.1201041,-0.9929131,-10.0762,18.11211,36.67942,1007.862
35.774247646,-2.148367,-0.9052536,0.3541701,-0.1085898,-0.1196347,-0.9943641,-9.691967,18.8747,37.12005,1007.864
35.808894634,-1.841215,-0.9644386,0.231596,-0.1148788,-0.1122996,-0.991353,-10.07016,18.49893,37.12384,1007.862
35.841067314,-0.05973332,-0.6093285,0.04773496,-0.1139778,-0.1167248,-0.9981459,-10.07016,18.49893,37.12384,1007.862
35.875715256,-0.4283158,-0.1950334,-0.01355207,-0.1149355,-0.1162197,-0.9962049,-9.314285,18.4882,37.11998,1007.862
35.907887459,-0.7354679,0.1008916,-0.1361261,-0.1163648,-0.1166645,-0.9918572,-9.697489,19.25014,36.67191,1007.862
35.942534924,-0.2440245,0.1008916,-0.01355207,-0.1124674,-0.1123378,-0.9947498,-9.697489,19.25014,36.67191,1007.864
35.974708080,0.3088492,0.1600767,-0.01355207,-0.1149273,-0.1162123,-0.9952408,-10.07016,18.49893,37.12384,1007.862
36.009355068,-0.9811895,0.04170663,0.170309,-0.1158524,-0.1176119,-0.9884958,-9.314543,18.10706,37.12184,1007.862
36.041527748,-4.544153,-0.07666339,0.5993182,-0.1164036,-0.1113806,-0.9990432,-9.314543,18.10706,37.12184,1007.862
36.076175690,-11.17864,-1.378734,1.150901,-0.1158689,-0.1118241,-0.9932679,-10.44233,18.50998,37.57206,1007.862
36.108348370,-26.6591,-2.799174,2.683077,-0.1194981,-0.1076489,-1.020674,-9.691967,18.8747,37.12005,1007.862
36.140521050,-37.77801,-4.929835,6.482872,-0.1498353,-0.09354927,-1.037144,-9.691967,18.8747,37.12005,1007.866
36.175168037,-54.36422,5.545913,29.28164,-0.1673897,-0.04021987,-1.119445,-10.07042,18.1178,37.12571,1007.865
36.207340717,-115.9175,1.107037,52.32557,-0.2485597,0.05284212,-1.125632,-9.68144,17.36153,38.02005,1007.863
36.241988659,-391.6172,-56.59835,31.24283,-0.4169848,0.7496951,-1.06385,-9.68144,17.36153,38.02005,1007.863
36.274160862,-708.1681,-37.36322,3.050799,0.03552264,0.5491247,-1.416283,-8.904507,14.32447,39.8162,1007.863
36.308808327,-461.4636,-65.35773,-27.77657,-0.4004516,0.2406954,-0.5919846,-6.998696,5.172349,41.57255,1007.861
36.340981484,-212.9775,-123.655,-65.46809,-0.5393262,0.6991751,-0.2663794,-6.998696,5.172349,41.57255,1007.861
36.375628471,-175.8121,-145.3167,-79.44154,-0.378031,1.10369,-0.1994796,-5.204802,-18.24594,35.49252,1007.863
36.407801151,-274.9608,-149.8739,-109.9625,-0.6755578,1.379227,0.09235783,-1.116887,-28.27618,30.6743,1007.862
36.442449093,-634.4516,-130.2837,-162.9145,-0.5816198,0.9557126,-0.1968719,-1.116887,-28.27618,30.6743,1007.86
