Time (s),Gyroscope X (deg/s),Gyroscope Y (deg/s),Gyroscope Z (deg/s),Accelerometer X (g),Accelerometer Y (g),Accelerometer Z (g),Magnetometer X (uT),Magnetometer Y (uT),Magnetometer Z (uT),Barometer (hPa)
0.000000000,0.4008042,0.2237517,-0.1065083,0.002504808,-0.2392749,-0.9671273,1.212438,16.07619,32.83392,1006.752
0.032557011,0.03163948,0.2237517,-0.04530888,-0.005219916,-0.2437783,-0.9609047,1.21812,15.71238,32.83653,1006.752
0.065114975,-0.3375252,-0.07365303,0.01589051,-0.004815822,-0.2388645,-0.9714644,1.205126,16.43742,32.38523,1006.752
0.097671986,-0.2759978,-0.01417209,0.1382893,-0.005810233,-0.2374129,-0.9728914,1.205126,16.43742,32.38523,1006.752
0.132733822,-0.5221076,-0.3115768,-0.1065083,-0.01015079,-0.2423027,-0.9787623,0.8459678,16.07355,32.83511,1006.747
0.165291786,-0.3990527,0.1047898,0.1382893,-0.01209458,-0.2418598,-0.9748867,1.208388,16.44259,33.27738,1006.747
0.197848797,0.2162218,-0.1926149,-0.04530888,-0.01014807,-0.2404052,-0.9685825,1.208388,16.44259,33.27738,1006.747
0.232911110,0.5238591,-0.07365303,0.01589051,-0.009699769,-0.2374746,-0.9704717,0.4811282,16.07348,33.28237,1006.747
0.265468597,-0.02988797,0.1047898,-0.1677077,-0.01166522,-0.2369921,-0.9752962,1.571597,16.44007,32.38404,1006.747
0.298026085,0.09316694,0.2237517,0.07708991,-0.006279439,-0.2393541,-0.9748541,1.571597,16.44007,32.38404,1006.747
0.333087921,0.1546944,-0.07365303,0.01589051,-0.01351798,-0.2448009,-0.97348,1.214069,16.07878,33.27999,1006.747
0.365645409,0.03163948,0.04530885,0.1382893,-0.008742349,-0.2369562,-0.9748151,1.219751,15.71497,33.2826,1006.749
0.398202896,-0.09141543,-0.01417209,0.07708991,-0.0067439,-0.2398771,-0.9680944,1.219751,15.71497,33.2826,1006.749
0.433264732,0.03163948,0.1047898,0.01589051,-0.007767635,-0.2374207,-0.9767567,1.2157,16.08136,33.72606,1006.749
0.465822697,0.1546944,-0.1926149,0.01589051,-0.003330031,-0.2407935,-0.9705285,0.8475988,16.07613,33.28118,1006.747
0.498379707,-0.09141543,0.04530885,0.01589051,-0.005281351,-0.2422392,-0.9787661,0.8475988,16.07613,33.28118,1006.747
0.530937672,-0.09141543,0.04530885,0.01589051,-0.00872069,-0.2369958,-0.9661151,1.212438,16.07619,32.83392,1006.748
0.565999508,0.03163948,0.2832326,0.01589051,-0.008202326,-0.2399005,-0.9671265,1.586221,15.71761,33.28141,1006.75
0.598556519,-0.1529429,0.04530885,-0.1677077,-0.004311897,-0.2417428,-0.9782761,1.586221,15.71761,33.28141,1006.75
0.631114483,-0.2144703,-0.01417209,0.01589051,-0.008735062,-0.2383964,-0.9787041,1.569178,16.80905,33.27358,1006.746
0.666176319,-0.09141543,0.04530885,-0.04530888,-0.004778385,-0.2417865,-0.970059,0.8475988,16.07613,33.28118,1006.747
0.698733807,0.03163948,-0.133134,0.07708991,-0.008235261,-0.2388891,-0.9758119,0.8475988,16.07613,33.28118,1006.747
0.731291294,0.03163948,-0.07365303,0.1382893,-0.009152392,-0.243286,-0.9734612,1.210807,16.07361,32.38785,1006.747
0.766353131,0.1546944,-0.07365303,0.1382893,-0.005760251,-0.2427359,-0.9778065,1.212438,16.07619,32.83392,1006.747
0.798910618,0.1546944,0.04530885,0.1994887,-0.0082091,-0.2408394,-0.9743916,1.212438,16.07619,32.83392,1006.747
0.831467629,-0.02988797,0.1047898,0.07708991,-0.007206265,-0.2423064,-0.9695811,1.21812,15.71238,32.83653,1006.747
0.866530419,-0.1529429,-0.1926149,0.01589051,-0.007693588,-0.2427876,-0.9720049,0.8419175,16.43994,33.27857,1006.742
0.899087429,-0.1529429,-0.133134,0.01589051,-0.004304298,-0.2412811,-0.9729519,0.8419175,16.43994,33.27857,1006.743
0.931645394,0.09316694,0.2237517,-0.1065083,-0.01359488,-0.2384775,-0.9748337,1.945379,16.08149,32.83154,1006.743
0.964202404,0.769969,0.2237517,-0.04530888,-0.01015808,-0.2408626,-0.9748734,1.574859,16.44523,33.27619,1006.743
0.999264240,-0.1529429,-0.01417209,0.01589051,-0.005315244,-0.2378968,-0.9719326,1.574859,16.44523,33.27619,1006.743
1.031822205,-0.09141543,-0.01417209,0.01589051,-0.003255158,-0.2466375,-0.9677175,1.573228,16.44265,32.83012,1006.745
1.064379215,-0.09141543,-0.01417209,0.07708991,-0.005246009,-0.243255,-0.9691141,1.214069,16.07878,33.27999,1006.745
1.099441528,-0.09141543,-0.133134,0.07708991,-0.01060721,-0.2433161,-0.9710433,1.208388,16.44259,33.27738,1006.743
1.131999016,-0.5221076,-0.07365303,0.01589051,-0.01456065,-0.2404074,-0.9806627,1.208388,16.44259,33.27738,1006.743
1.164556503,-0.2144703,-0.07365303,0.01589051,-0.01305592,-0.2442735,-0.9812065,1.574859,16.44523,33.27619,1006.743
1.199618340,0.5853866,0.1047898,-0.04530888,-0.01406168,-0.2404231,-0.9758297,1.212438,16.07619,32.83392,1006.743
1.232175350,0.4623317,-0.01417209,0.01589051,-0.009192681,-0.2394075,-0.9714684,1.212438,16.07619,32.83392,1006.743
1.264733315,0.09316694,0.2832326,-0.04530888,-0.007186498,-0.2447205,-0.9730016,1.578909,16.07884,32.83273,1006.744
1.299795151,-0.09141543,-0.01417209,0.07708991,-0.008228041,-0.2389023,-0.9729118,0.8475988,16.07613,33.28118,1006.744
1.332353115,-0.1529429,-0.07365303,0.1382893,-0.005775203,-0.2403305,-0.9724526,0.8475988,16.07613,33.28118,1006.746
1.364910126,-0.1529429,-0.3115768,0.01589051,-0.004309557,-0.2403202,-0.9705204,1.58459,15.71503,32.83534,1006.744
1.399971962,-0.1529429,-0.4305387,-0.1065083,-0.01216306,-0.2355518,-0.9728569,1.21812,15.71238,32.83653,1006.744
1.432529926,-0.02988797,-0.07365303,-0.1065083,-0.009176146,-0.2413402,-0.9739149,1.21812,15.71238,32.83653,1006.745
1.465086937,0.7084415,0.1642707,0.01589051,-0.01505324,-0.2399279,-0.9806549,1.210807,16.07361,32.38785,1006.745
1.497644901,0.5853866,0.1642707,0.1382893,-0.00674098,-0.2422605,-0.9782817,0.8589611,15.34851,33.2864,1006.745
1.532706261,0.09316694,0.2237517,-0.04530888,-0.008640938,-0.2442756,-0.9681597,0.8589611,15.34851,33.2864,1006.747
1.565263748,0.03163948,0.1642707,-0.1065083,-0.006193358,-0.244743,-0.9652689,1.212438,16.07619,32.83392,1006.745
1.597821236,0.3392768,-0.01417209,0.07708991,-0.006781336,-0.236955,-0.9694998,0.8419175,16.43994,33.27857,1006.743
1.632883072,-0.1529429,-0.01417209,0.07708991,-0.01059428,-0.2452421,-0.9749398,0.8419175,16.43994,33.27857,1006.743
1.665441036,-0.6451625,-0.01417209,0.01589051,-0.009190585,-0.2413138,-0.979715,0.8419175,16.43994,33.27857,1006.743
1.697998047,-0.09141543,-0.07365303,0.07708991,-0.007717342,-0.2408418,-0.9724585,0.8475988,16.07613,33.28118,1006.743
1.733059883,0.4008042,-0.133134,0.07708991,-0.006774049,-0.2383952,-0.9733888,0.8475988,16.07613,33.28118,1006.743
1.765617848,0.2777493,0.1047898,0.01589051,-0.009149607,-0.2428155,-0.9700704,0.8532801,15.71232,33.28379,1006.743
1.798174858,0.2162218,0.2237517,0.01589051,-0.009141942,-0.2437807,-0.9715352,1.225432,15.35115,33.28521,1006.743
1.833237648,0.09316694,0.1642707,-0.04530888,-0.006716468,-0.2432565,-0.9729797,1.225432,15.35115,33.28521,1006.743
1.865794659,-0.09141543,0.04530885,0.2606881,-0.005229542,-0.2437607,-0.9647714,1.941329,16.44788,33.275,1006.743
1.898352623,-0.1529429,0.04530885,0.07708991,-0.006257713,-0.2408206,-0.972943,1.208388,16.44259,33.27738,1006.743
1.930909634,0.09316694,0.04530885,0.01589051,-0.01065149,-0.2399059,-0.9729248,1.208388,16.44259,33.27738,1006.739
1.965971470,0.4008042,0.3427135,0.01589051,-0.0101126,-0.2442749,-0.9725086,1.582171,16.08401,33.72487,1006.739
1.998528957,1.569826,0.2237517,0.01589051,-0.008752868,-0.2350346,-0.9699521,0.8475988,16.07613,33.28118,1006.739
2.031086445,0.8930239,-0.1926149,0.07708991,-0.003372794,-0.2354836,-0.9627134,0.8475988,16.07613,33.28118,1006.739
2.066148758,-0.7682174,-0.07365303,0.1994887,-0.009562368,-0.2510427,-0.9788963,1.58054,16.08142,33.2788,1006.74
2.098705769,-2.060294,-0.01417209,-0.04530888,-0.0134889,-0.2491345,-0.9822471,1.206757,16.44,32.83131,1006.74
2.131263733,-2.244876,0.1642707,-0.04530888,-0.01308741,-0.2399354,-0.9734062,1.206757,16.44,32.83131,1006.736
2.166325569,-1.383492,0.6401182,-0.3513059,-0.01128704,-0.2267993,-0.9712741,1.206757,16.44,32.83131,1006.738
2.198882580,0.2162218,0.6401182,-0.2901065,-0.0122489,-0.226834,-0.9664399,0.4778662,16.06832,32.39022,1006.738
2.231440544,0.8314964,0.4021945,-0.2289071,-0.007781006,-0.2345426,-0.9684954,0.4778662,16.06832,32.39022,1006.738
2.266502380,2.431211,-0.07365303,0.01589051,-0.003801198,-0.2436823,-0.9778228,1.212438,16.07619,32.83392,1006.742
2.299059391,1.938991,-0.2520958,-0.1065083,0.0006118272,-0.2446321,-0.9701076,1.573228,16.44265,32.83012,1006.739
2.331617355,-0.2759978,-0.7279434,0.01589051,0.0001409717,-0.2456191,-0.9681886,1.573228,16.44265,32.83012,1006.739
2.364174366,-1.506547,-0.6684624,-0.1677077,-0.01399935,-0.2438662,-0.9666981,1.578909,16.07884,32.83273,1006.739
2.399236679,-1.998767,-0.5495005,-0.1065083,-0.01162524,-0.2427725,-0.9865022,1.21812,15.71238,32.83653,1006.741
2.431794167,-0.1529429,0.1047898,0.01589051,-0.0146093,-0.2379405,-0.9888424,1.21812,15.71238,32.83653,1006.743
2.464351654,0.8314964,0.4616754,0.01589051,-0.00922809,-0.2369648,-0.9743315,1.205126,16.43742,32.38523,1006.743
2.499413490,1.754408,0.5806373,0.1994887,-0.005747082,-0.2413331,-0.9657006,1.205126,16.43742,32.38523,1006.745
2.531970978,1.569826,0.8185611,0.3218875,-0.005273441,-0.2398756,-0.9642288,1.205126,16.43742,32.38523,1006.745
2.564528465,-0.3990527,0.878042,0.01589051,-0.008711753,-0.2393902,-0.9738856,1.208388,16.44259,33.27738,1006.745
2.599590302,-3.044733,0.8185611,-0.2901065,-0.004765906,-0.2427605,-0.9695904,0.8402865,16.43736,32.8325,1006.745
2.632148266,-2.798623,0.04530885,-0.2289071,0.01312016,-0.2313475,-0.969917,0.8402865,16.43736,32.8325,1006.745
2.664705277,3.108012,-0.6089815,0.2606881,0.008736009,-0.2304504,-0.966032,1.21812,15.71238,32.83653,1006.74
2.699767113,5.507583,-1.025348,0.6890838,-0.007738,-0.2365236,-0.9603083,1.578909,16.07884,32.83273,1006.74
2.732325077,1.569826,-1.14431,0.3218875,-0.02416347,-0.2512464,-0.9759851,1.578909,16.07884,32.83273,1006.742
2.764882088,-6.736381,-0.7279434,0.07708991,-0.02324469,-0.2478038,-0.9822173,1.573228,16.44265,32.83012,1006.742
2.799943924,-7.905403,-0.07365303,-0.2289071,-0.01063399,-0.2451696,-0.9908901,1.21812,15.71238,32.83653,1006.742
2.832501888,-0.3375252,0.7590801,-0.5961035,-0.00352811,-0.2247365,-0.9751171,1.21812,15.71238,32.83653,1006.74
2.865058899,6.245913,0.3427135,-0.1065083,0.001304963,-0.2188992,-0.9624649,0.8402865,16.43736,32.8325,1006.74
2.897616863,6.245913,-0.07365303,-0.04530888,0.001464403,-0.2320319,-0.9597651,0.851649,15.70974,32.83772,1006.74
2.932678223,0.9545513,-0.3115768,0.3830869,-0.004223788,-0.2476111,-0.9701484,0.851649,15.70974,32.83772,1006.74
2.965236187,-2.614041,-0.5495005,0.1994887,-0.01336328,-0.2593518,-0.9795027,1.214069,16.07878,33.27999,1006.742
2.997793198,-2.552514,-0.5495005,0.01589051,-0.01244584,-0.253053,-0.9726403,0.8475988,16.07613,33.28118,1006.742
3.032855034,-1.19891,0.1047898,-0.1677077,-0.0097469,-0.233108,-0.968955,1.210019,16.44517,33.72345,1006.742
3.065412998,-0.2759978,0.6401182,-0.1677077,-0.008325019,-0.2320666,-0.9800581,1.210019,16.44517,33.72345,1006.742
3.097970009,-0.2144703,0.2237517,0.2606881,-0.002476875,-0.2319992,-0.9781293,0.8419175,16.43994,33.27857,1006.742
3.133031845,1.016079,-0.1926149,0.2606881,-0.006243274,-0.2408469,-0.9671429,1.574859,16.44523,33.27619,1006.742
3.165589809,1.139134,-0.3710577,0.1382893,-0.001282492,-0.2471332,-0.9599929,1.574859,16.44523,33.27619,1006.738
3.198146820,-0.2759978,-0.9063862,0.07708991,-0.003701814,-0.2505224,-0.9697098,1.221382,15.71755,33.72867,1006.738
3.233209610,-2.737096,-0.7279434,0.01589051,-0.01311642,-0.2370288,-0.9714284,0.4868093,15.70967,33.28498,1006.738
3.265766621,-2.552514,-0.9658671,0.1994887,-0.01265963,-0.2355405,-0.9767233,0.4868093,15.70967,33.28498,1006.738
3.298324108,0.03163948,-0.6684624,0.1382893,-0.01509232,-0.2360516,-0.9781789,1.583802,16.08659,34.17095,1006.738
3.330881596,2.000518,0.1642707,0.1382893,-0.01557407,-0.2355918,-0.973821,1.21812,15.71238,32.83653,1006.738
3.365943432,1.508299,0.5806373,-0.1065083,-0.0126125,-0.2399071,-0.9782401,1.21812,15.71238,32.83653,1006.738
3.398500919,0.4623317,0.878042,-0.2901065,0.002042065,-0.2421791,-0.9710382,1.573228,16.44265,32.83012,1006.738
3.431058407,2.308156,-0.6089815,0.07708991,-0.04564982,-0.2732374,-0.90476,1.210019,16.44517,33.72345,1006.738
3.466120243,0.03163948,-0.9063862,0.3830869,-0.003622546,-0.2207591,-0.9948747,1.210019,16.44517,33.72345,1006.738
3.498677731,-2.367931,-1.441715,0.3218875,-0.004240458,-0.2428245,-0.9541238,0.4811282,16.07348,33.28237,1006.738
3.531235218,-1.814184,-1.501196,0.07708991,-0.007771827,-0.2336081,-0.9602637,1.212438,16.07619,32.83392,1006.74
3.566297531,-0.02988797,-0.3115768,0.01589051,-0.01356535,-0.2437631,-0.9879656,1.212438,16.07619,32.83392,1006.74
3.598854542,0.09316694,0.2832326,-0.1065083,-0.01805586,-0.2326839,-0.9790913,1.214069,16.07878,33.27999,1006.741
3.631412506,-2.367931,-0.1926149,0.1382893,-0.01371842,-0.2211298,-0.9426661,1.58459,15.71503,32.83534,1006.74
3.666474343,-1.137382,-0.07365303,0.07708991,-0.005525288,-0.2232448,-0.9881436,1.58459,15.71503,32.83534,1006.74
3.699031353,0.8930239,0.5806373,0.07708991,-0.01118054,-0.2398353,-0.9898414,1.586221,15.71761,33.28141,1006.741
3.731589317,0.6469141,-0.01417209,0.1382893,-0.0150542,-0.2365968,-0.965136,1.214069,16.07878,33.27999,1006.741
3.766651154,-0.4605802,-0.3115768,-0.1065083,-0.01064674,-0.2384877,-0.9642024,1.214069,16.07878,33.27999,1006.737
3.799208164,1.323716,0.3427135,-0.1065083,-0.004328878,-0.2388581,-0.9714648,1.58459,15.71503,32.83534,1006.739
3.831766129,0.769969,1.056485,-0.2901065,-0.01418323,-0.2311644,-0.9814889,1.225432,15.35115,33.28521,1006.739
3.864323139,0.03163948,0.6401182,-0.4737047,-0.01661802,-0.2297692,-0.9746979,1.225432,15.35115,33.28521,1006.739
3.899384976,-0.2759978,0.5806373,-0.1677077,-0.007850552,-0.2310863,-0.980527,1.578909,16.07884,32.83273,1006.739
3.931942940,1.508299,0.9970039,0.07708991,-0.004812901,-0.2412478,-0.9816517,1.206757,16.44,32.83131,1006.739
3.964500427,-0.02988797,1.234928,-0.2289071,-0.003721647,-0.2466813,-0.9595003,1.206757,16.44,32.83131,1006.739
3.999562263,-0.6451625,0.9970039,-0.2901065,3.695022E-05,-0.2340144,-0.9554437,0.8419175,16.43994,33.27857,1006.735
4.032119274,-3.044733,0.9375229,-0.2289071,-0.004889491,-0.2330226,-0.9737921,1.587852,15.7202,33.72748,1006.735
4.064677238,-7.966931,0.5806373,-0.3513059,-0.01032412,-0.2239129,-0.9620469,1.587852,15.7202,33.72748,1006.733
4.099739075,1.139134,0.6401182,-0.2289071,-0.01678365,-0.2213813,-1.002606,0.8435485,16.44252,33.72464,1006.733
4.132296085,14.24448,0.2832326,0.2606881,-0.005856781,-0.2368522,-0.9893177,1.58459,15.71503,32.83534,1006.735
4.164854050,12.15255,-0.2520958,0.1382893,-0.008957814,-0.2531536,-0.9407424,1.58459,15.71503,32.83534,1006.737
4.199915886,7.784099,-0.7874243,-0.1677077,-0.006617084,-0.2500966,-0.9648668,1.219751,15.71497,33.2826,1006.737
4.232472897,10.73742,-0.07365303,-0.4125053,-0.01198461,-0.2520485,-0.978426,1.939698,16.4453,32.82893,1006.737
4.265030861,10.06061,1.889218,-1.697693,-0.0114143,-0.2593286,-0.9790209,1.939698,16.4453,32.82893,1006.737
4.297587872,9.19923,4.922746,-4.696463,-0.03004493,-0.2507774,-0.9890234,0.8459678,16.07355,32.83511,1006.737
4.332650185,30.4262,4.387417,-19.44552,-0.006169955,-0.2562004,-1.010398,0.8329742,16.79859,32.38381,1006.737
4.365207672,68.20406,2.305584,-27.89104,-0.04886374,-0.2755954,-1.035788,0.8329742,16.79859,32.38381,1006.737
4.397765160,98.41404,0.6995991,-29.17622,-0.03733122,-0.3867638,-1.031211,0.8216116,17.52621,32.37859,1006.737
4.432826996,128.4395,1.472851,-22.38309,0.0114632,-0.432866,-1.013593,0.426125,18.96884,30.64877,1006.737
4.465384483,180.1841,8.134717,-11.5508,0.06490228,-0.4494817,-0.9476759,0.426125,18.96884,30.64877,1006.737
4.497941971,241.0962,16.75945,-5.492055,0.02606006,-0.5418788,-0.9403472,-0.7266588,21.85884,28.46481,1006.734
4.533003807,292.8408,18.54388,-5.98165,-0.03872262,-0.6599981,-0.9087338,-0.07391906,25.83801,23.59065,1006.736
4.565561295,267.2454,13.07163,-15.71235,-0.002110199,-0.5855492,-0.7176662,-0.07391906,25.83801,23.59065,1006.736
4.598118782,47.34625,9.383817,-0.7185023,-0.006852447,-0.5530277,-0.5097968,-1.275846,30.51422,15.72215,1006.736
4.633180618,60.94382,31.21332,-3.105279,0.1094274,-0.4035789,-0.4438233,-1.355815,34.48846,10.91408,1006.736
4.665737629,-80.20017,42.87159,21.49688,0.1122238,-0.5842983,-0.5592098,-1.355815,34.48846,10.91408,1006.737
4.698295593,-162.5239,41.86041,16.41733,0.1076049,-0.5558626,-0.5201014,-1.741803,35.20053,8.679691,1006.736
4.730852604,-124.1308,66.66396,16.35613,0.05572011,-1.427794,-1.194613,-2.104402,35.57682,11.29098,1006.736
4.765915394,-53.12809,46.91629,15.19334,0.08704416,0.02793125,-0.1732946,-2.104402,35.57682,11.29098,1006.737
4.798472405,-91.7058,42.39574,18.55931,-0.1397202,-0.5586902,-0.5005708,-2.421318,33.04299,13.98687,1006.737
4.831030369,-57.80417,43.10951,26.94362,0.01822575,-0.7389475,-0.6997243,-3.161572,33.39893,13.54057,1006.737
4.866092205,41.68573,29.78578,29.4528,-0.01036199,-0.6431432,-0.5817413,-3.161572,33.39893,13.54057,1006.733
4.898649216,-90.16762,38.47,42.30467,-0.056942,-0.2982555,-0.4618743,-3.515282,32.67088,13.92933,1006.731
4.931207180,35.22535,28.00135,35.57274,-0.05720465,-0.9295074,-0.5870317,-3.523204,32.65833,11.76269,1006.733
4.966268539,45.4389,23.71872,35.51154,-0.03934085,-0.686708,-0.4905364,-2.794922,32.65624,10.48582,1006.733
4.998826027,186.9521,-6.795,60.72569,-0.1444242,-0.5732688,-0.3021208,-2.794922,32.65624,10.48582,1006.731
5.031383514,-120.7468,40.61131,24.74045,-0.0319348,0.06193331,0.1289661,-1.360529,33.73539,6.52231,1006.731
5.066445351,-87.33736,-7.627733,55.09535,-0.06168612,-1.395349,-0.6540732,0.8123069,35.20134,5.612591,1006.733
5.099002838,-30.60903,-11.91036,47.38422,0.0217071,-0.7094924,-0.329495,0.8123069,35.20134,5.612591,1006.731
5.131560326,-29.00932,-20.29717,51.91298,-0.1063253,-0.6898774,-0.4136632,3.082174,34.48782,5.228134,1006.731
5.166622162,-84.19946,-23.68759,60.66449,-0.2434179,-0.6792942,-0.461707,4.901533,35.2261,4.770895,1006.731
5.199180126,-73.3091,-42.30512,61.82728,-0.3516373,-0.8913828,-0.5170429,4.901533,35.2261,4.770895,1006.731
5.231737137,-26.42517,-44.03006,64.82606,-0.4050616,-0.8743185,-0.5747362,7.454444,36.34344,6.029234,1006.732
5.264295101,-17.44216,-37.07079,50.62779,-0.2729451,-1.033471,-0.6802511,9.278697,37.08946,6.910212,1006.732
5.299356937,42.301,-46.52826,47.13942,-0.1899584,-0.7187765,-0.4966808,9.278697,37.08946,6.910212,1006.734
5.331913948,4.523144,-43.25681,43.95706,-0.26796,-0.8464492,-0.5391569,11.46048,38.19677,6.895245,1006.734
5.364471912,9.137703,-54.08234,38.32671,-0.1403056,-0.906221,-0.6020643,14.7433,39.31461,7.322784,1006.734
5.399533749,-16.82688,-62.58812,41.32548,-0.05194141,-0.7777691,-0.7002488,14.7433,39.31461,7.322784,1006.736
5.432090759,-49.99018,-75.49549,50.1382,-0.06336123,-0.7456471,-0.6364254,16.93239,40.06069,7.7565,1006.739
5.464648724,-97.24328,-94.58887,56.87013,-0.3432252,-0.8051249,-0.6501139,19.87674,40.10179,11.18812,1006.741
5.499710560,-111.1485,-95.06472,48.97541,-0.3319941,-0.9452307,-0.9074852,19.87674,40.10179,11.18812,1006.741
5.532267571,-49.00574,-89.94936,26.08683,-0.314469,-1.119797,-0.9449685,23.21783,38.32944,15.1414,1006.743
5.564825535,0.2162218,-64.01566,2.647465,-0.4004795,-0.9141017,-0.6831407,25.85517,34.36118,17.77451,1006.745
5.599886894,-1.014327,-48.84802,-11.61199,-0.4857264,-0.4182754,-0.5208133,25.85517,34.36118,17.77451,1006.746
5.632444859,-0.4605802,-62.05279,-6.899642,-0.8236251,-0.5543898,-0.7333161,27.71351,32.92433,18.67115,1006.744
5.665001869,3.600232,-72.6404,-5.675653,-0.8734394,-0.3651682,-0.4857925,28.83323,31.84601,19.56756,1006.744
5.697559834,12.21408,-86.49947,0.9950809,-0.8765172,-0.229118,-0.6993,28.83323,31.84601,19.56756,1006.744
5.732621670,52.26845,-84.47711,23.57766,-0.7927815,-0.02090226,-0.7169893,29.59029,30.39827,19.95798,1006.746
5.765178681,12.2756,-73.94898,51.17859,-0.733931,-0.0741153,-0.6037811,30.71587,28.2108,17.80344,1006.747
5.797736645,-40.26884,-62.23124,72.47598,-0.6893452,-0.2554995,-0.5611539,30.71587,28.2108,17.80344,1006.749
5.832798481,-97.12022,-34.51311,83.49187,-0.7010887,-0.136756,-0.4162515,32.19734,26.38204,14.30689,1006.749
5.865355492,-84.50709,-38.97419,87.34743,-0.7093201,-0.479477,-0.6346414,33.71537,22.74714,13.05375,1006.757
5.897913456,-76.57005,-19.286,76.51514,-0.8735215,-0.3745303,-0.5642423,33.71537,22.74714,13.05375,1006.758
5.932975292,-83.33807,-28.3271,73.63877,-0.9546921,-0.3744363,-0.4974565,34.14615,18.00512,10.4738,1006.756
5.965532303,-63.21859,-32.55024,62.01088,-0.9543762,-0.3455809,-0.4298272,34.92128,15.09476,9.600172,1006.76
5.998090267,-43.59133,-33.44246,47.87382,-0.924097,-0.4935736,-0.5026873,34.92128,15.09476,9.600172,1006.76
6.033152103,10.2452,-30.94426,30.67679,-0.885245,-0.5157058,-0.6533926,35.68607,12.54083,7.449438,1006.758
6.065709114,18.12071,-23.44966,8.828604,-0.8667745,-0.2783506,-0.5337788,35.70958,10.71403,6.124279,1006.76
6.098267078,7.537989,-17.26364,-16.01835,-0.8652012,-0.2219947,-0.4183603,35.70958,10.71403,6.124279,1006.761
6.130824089,2.615793,-3.226143,-30.27781,-0.8248813,-0.1823468,-0.4709658,35.72196,9.615215,4.85762,1006.763
6.165886402,-12.58149,9.740702,-41.1713,-0.8760363,-0.2109717,-0.4152814,35.712,10.34505,5.234745,1006.765
6.198443890,2.861903,4.327936,-46.25085,-0.9133997,-0.2596818,-0.3918196,35.712,10.34505,5.234745,1006.765
6.231001377,22.30458,1.234928,-46.43445,-0.9003788,-0.1946515,-0.3338016,35.34716,10.34499,5.682007,1006.766
6.266063213,25.01179,-3.820952,-42.21169,-0.909315,-0.22341,-0.340999,34.58418,12.15616,5.225254,1006.768
6.298620224,40.33212,-8.400985,-35.66336,-0.9011245,-0.2183858,-0.3534981,34.58418,12.15616,5.225254,1006.77
6.331178188,47.40778,-11.85088,-26.66705,-0.8883955,-0.2245288,-0.3555376,33.4864,12.15081,5.674894,1006.772
6.366240025,46.42334,-13.57583,-18.77233,-0.8828012,-0.2510521,-0.3849502,33.10717,12.87357,5.288511,1006.772
6.398797035,39.40921,-13.3379,-14.18237,-0.8774957,-0.2874559,-0.3801936,33.10717,12.87357,5.288511,1006.773
6.431355000,39.65532,-13.57583,-9.286418,-0.889502,-0.2983838,-0.3629471,33.09822,13.23221,4.393757,1006.775
6.466416836,33.50257,-9.947489,-1.391695,-0.8997369,-0.2932689,-0.3415907,32.35066,13.94938,3.49877,1006.777
6.531531811,1.262189,-6.735518,7.11502,-0.8626849,-0.2961964,-0.3397376,32.35876,13.21659,2.611848,1006.779
6.566593647,-3.721535,-3.939914,17.02932,-0.9384849,-0.2181689,-0.2949701,32.35736,13.21437,2.229501,1006.777
6.599150658,-16.88841,-11.43451,21.31328,-0.9003657,-0.2264859,-0.2806325,32.35736,13.21437,2.229501,1006.777
6.631708622,-7.47471,-9.828526,25.41364,-0.9004983,-0.3079379,-0.3244122,32.36872,12.48675,2.234723,1006.779
6.664265633,-14.05815,-9.174236,26.27043,-0.9740852,-0.2897659,-0.2568745,32.37683,11.75396,1.347801,1006.779
6.699327946,-33.37777,-12.14828,23.08806,-1.038841,-0.3381304,-0.280752,32.37683,11.75396,1.347801,1006.779
6.731885433,-29.13237,-16.01455,15.74413,-0.934249,-0.4087627,-0.2664624,33.10814,11.75667,0.8993521,1006.779
6.764442444,-28.57863,-9.828526,5.646235,-0.9179804,-0.3234183,-0.1776849,32.74976,11.02124,0.01361847,1006.777
6.799504757,-13.31982,-16.01455,1.545876,-0.889007,-0.4118969,-0.3023238,32.74976,11.02124,0.01361847,1006.779
6.832062245,7.168824,-14.23012,-3.656073,-0.8444144,-0.366284,-0.3717606,33.12029,10.65749,-0.4310303,1006.779
6.864619732,12.82935,-6.021747,-10.38801,-0.8597203,-0.2967124,-0.3247636,33.1276,10.29626,0.01765251,1006.779
6.899681568,11.96797,-1.382234,-18.09913,-0.8720364,-0.2837692,-0.3206873,33.13756,9.566431,-0.3594723,1006.779
6.932238579,8.337846,7.064059,-27.09544,-1.01536,-0.3176267,-0.3399172,33.13756,9.566431,-0.3594723,1006.779
6.964796543,21.56625,10.09759,-39.21292,-1.059645,-0.4004237,-0.3218025,33.12597,10.29368,-0.4284191,1006.78
6.999858379,22.12,7.361464,-48.94363,-1.015354,-0.3432651,-0.2600678,33.1276,10.29626,0.01765251,1006.776
7.032415390,26.42692,3.495203,-44.59847,-1.027925,-0.2105885,-0.1884252,33.1276,10.29626,0.01765251,1006.778
7.064973354,13.01393,-2.750295,-40.37571,-1.012925,-0.2310896,-0.1263968,32.7433,11.75661,1.346612,1006.778
7.097530365,8.091736,-5.843304,-39.27412,-0.8764454,-0.2775396,-0.1016183,32.7433,11.75661,1.346612,1006.778
7.132592201,28.27274,-8.579427,-35.66336,-0.8752156,-0.3568905,-0.17582,32.7352,12.4894,2.233534,1006.778
7.165150166,46.23876,-16.31195,-28.62543,-0.7976699,-0.2853476,-0.1888213,33.08462,13.58348,2.224512,1006.782
7.197707176,42.11642,-17.26364,-28.44183,-0.7448737,-0.2513255,-0.1448492,32.69217,15.03091,1.323112,1006.778
7.232769013,33.68716,-13.75427,-26.11625,-0.6233045,-0.3710234,-0.1931969,32.69217,15.03091,1.323112,1006.778
7.265326977,22.7968,-15.00337,-25.99385,-0.6548401,-0.2219964,-0.03137851,32.6686,16.11201,-0.4690084,1006.779
7.297883987,13.32157,-20.41613,-22.13829,-0.6444504,-0.5143308,-0.1620098,31.17775,17.18031,-2.638722,1006.779
7.332946301,21.81236,-20.35665,-17.36474,-0.5638465,-0.4572678,-0.1882862,31.17775,17.18031,-2.638722,1006.781
7.365503788,-7.597765,-15.12233,-9.225219,-0.5859359,-0.3940293,-0.1573307,30.43283,17.52886,-4.359519,1006.781
7.398060799,-40.33037,-16.43091,4.11625,-0.6458962,-0.6146204,-0.2350783,28.9574,17.50315,-6.967471,1006.781
7.433123112,-15.47328,-22.31952,13.78575,-0.634375,-0.6782623,-0.2080245,28.9574,17.50315,-6.967471,1006.783
7.465680599,-20.64158,-20.29717,25.35244,-0.5899218,-0.7074307,-0.2921366,28.21225,17.85133,-8.751993,1006.783
7.498238087,9.69145,-17.20416,36.36833,-0.7579268,-0.6986651,-0.243503,27.47628,17.84124,-9.578034,1006.785
7.530795574,5.507583,-9.41216,35.20554,-1.041466,-0.5785619,-0.107985,27.47628,17.84124,-9.578034,1006.785
7.565856934,-14.11968,-8.10358,25.78084,-1.027209,-0.642777,-0.1602164,28.21406,17.10858,-11.35948,1006.786
7.598414898,-2.798623,-1.263272,14.64255,-1.028944,-0.5928864,-0.234377,27.86464,16.0145,-11.35046,1006.786
7.630971909,15.65961,5.398593,11.21538,-1.010628,-0.4896812,-0.2192856,27.86464,16.0145,-11.35046,1006.786
7.666033745,-6.920963,9.502778,11.88857,-1.038418,-0.3997261,-0.2014516,27.86301,16.01192,-11.79653,1006.788
7.698591709,1.508299,12.00098,14.27535,-0.9215493,-0.447138,-0.2346739,28.59455,16.015,-12.18125,1006.79
7.731148720,-5.936524,22.58858,12.92896,-0.8008351,-0.4844204,-0.240193,28.59455,16.015,-12.18125,1006.79
7.766210556,23.71971,34.7227,14.33655,-0.7559682,-0.4906192,-0.2446813,28.59595,16.01721,-11.79891,1006.79
7.798768521,44.82363,42.39574,15.86653,-0.8006374,-0.327576,-0.2092811,28.96,16.38883,-10.91056,1006.792
7.831325531,24.33499,51.55581,14.27535,-0.8551272,-0.2880031,-0.1970237,28.96,16.38883,-10.91056,1006.787
7.866387367,16.45947,49.59293,13.66336,-0.9245871,-0.3044471,-0.2001078,29.70756,15.67167,-10.01557,1006.787
7.898945332,-8.274568,48.7602,11.03178,-0.9251891,-0.3835594,-0.225483,30.44782,15.31574,-9.569266,1006.787
7.931502342,6.984242,47.80851,8.583806,-0.8802576,-0.3965345,-0.2358753,30.44782,15.31574,-9.569266,1006.787
7.966564178,2.185101,46.38096,7.543416,-0.9545339,-0.3799015,-0.2587519,31.17569,16.05862,-7.856303,1006.787
7.999122143,3.66176,49.05761,8.400208,-0.9694713,-0.3937038,-0.2589481,31.54277,16.43504,-6.13954,1006.785
8.031679153,-2.244876,46.262,9.379398,-1.020332,-0.4637696,-0.2802697,31.54277,16.43504,-6.13954,1006.785
8.064237118,8.399374,31.39177,14.09175,-0.9863231,-0.4109219,-0.2616113,32.64544,16.44814,-5.250962,1006.785
8.099298954,5.56911,17.47322,19.2325,-0.8717847,-0.3184177,-0.1829703,32.65033,16.45589,-3.912746,1006.785
8.131855965,-3.783063,8.134717,24.12845,-0.804792,-0.2492087,-0.1408921,32.65033,16.45589,-3.912746,1006.787
8.164413929,-7.659293,1.591813,29.8812,-0.7641663,-0.2671374,-0.1431383,33.00544,17.18616,-3.919158,1006.787
8.199475288,-11.35094,-4.832129,32.57397,-0.8056592,-0.2589285,-0.1434564,33.39464,15.73356,-3.909902,1006.787
8.232032776,-28.45557,-13.09998,27.98401,-0.9087644,-0.2823848,-0.1968862,33.39464,15.73356,-3.909902,1006.789
8.264590263,-24.82545,-16.19299,19.2325,-0.9285989,-0.4952594,-0.3596291,34.12758,15.73886,-3.912279,1006.789
8.299652100,9.999087,-19.76184,14.45895,-0.9746122,-0.3866129,-0.3361752,34.50052,15.00613,-5.246462,1006.789
8.332210064,21.6893,-21.01094,11.15418,-1.010472,-0.3156942,-0.3234576,34.50052,15.00613,-5.246462,1006.789
8.364767075,18.42835,-18.81015,7.665815,-0.9734184,-0.3105393,-0.2823277,34.51756,13.9147,-5.238628,1006.791
8.399828911,-0.7682174,-29.51672,-1.697693,-1.013336,-0.4084702,-0.3432386,34.52995,12.81589,-6.505286,1006.786
8.432386875,20.64334,-24.46084,-5.98165,-1.043363,-0.4733159,-0.3838358,34.52995,12.81589,-6.505286,1006.788
8.464943886,84.878,-16.60935,-13.75397,-1.059254,-0.4866911,-0.3738736,33.78806,13.16924,-7.397664,1006.788
8.497500897,78.6022,-19.76184,-22.01589,-1.004407,-0.3530655,-0.2114068,34.52179,12.80297,-8.735645,1006.786
8.532563686,24.64262,-23.27122,-35.47976,-0.983266,-0.3532173,-0.3303402,34.52179,12.80297,-8.735645,1006.786
8.565120697,22.12,-15.06285,-43.25208,-0.9337171,-0.4416556,-0.4052106,33.4234,12.42385,-10.00396,1006.788
8.597678661,50.42263,-3.761471,-44.53727,-0.9194501,-0.3980365,-0.3378529,33.42177,12.42126,-10.45003,1006.788
8.632740498,41.00893,-5.962266,-48.20924,-0.9421342,-0.2975101,-0.1729159,33.42177,12.42126,-10.45003,1006.788
8.665297508,35.3484,2.900394,-47.47484,-0.8690954,-0.3469117,-0.2148272,32.67015,13.50481,-10.90156,1006.784
8.697855473,47.10014,8.551084,-45.08807,-0.8758641,-0.3313941,-0.1203254,31.92422,14.22456,-11.35048,1006.784
8.732917309,56.6369,11.52513,-41.9057,-0.8643894,-0.3175374,-0.141877,31.92422,14.22456,-11.35048,1006.784
8.765474320,59.34411,15.56983,-35.72456,-0.7581776,-0.269229,-0.0938716,31.18318,14.95205,-10.46118,1006.782
8.798032284,34.73312,14.55866,-30.82861,-0.6649233,-0.2955789,-0.1238496,31.16613,16.04349,-10.46901,1006.782
8.833093643,44.20835,19.31713,-16.14075,-0.586641,-0.4316308,-0.2265432,30.78504,16.7633,-11.36519,1006.782
8.865651131,75.58735,24.84886,-7.266838,-0.5344499,-0.4249291,-0.1617188,30.78504,16.7633,-11.36519,1006.782
8.898208618,61.86673,38.17259,-0.8409011,-0.5087673,-0.5948863,-0.2271755,30.4269,16.02823,-12.1872,1006.782
8.933270455,102.5364,47.39214,4.238649,-0.5221127,-0.5006359,-0.2571442,30.05903,16.02337,-12.56835,1006.781
8.965827942,43.4085,62.20289,-4.451665,-0.7308099,-0.5279296,-0.09156094,30.05903,16.02337,-12.56835,1006.781
8.998385429,49.13055,45.0129,10.11379,-0.6222869,-0.5364371,-0.3658701,31.54336,14.94474,-12.18293,1006.781
9.030942917,2.984957,54.82726,22.41487,-0.6376418,-0.6757122,-0.1374094,31.54336,14.94474,-12.18293,1006.782
9.066004276,-7.290128,65.8907,17.76371,-0.8997573,-1.085387,0.06347871,31.90843,14.94517,-12.56647,1006.782
9.098562241,-16.08855,22.17222,2.769863,-1.014505,-1.105692,0.2440626,33.01632,14.59373,-11.80273,1006.782
9.131119251,55.34482,6.766654,2.892262,-1.147751,-0.845129,0.1703428,33.77119,13.51534,-10.45905,1006.784
9.166181088,43.4085,-17.56105,9.1958,-0.8837838,-0.2827484,0.05975721,33.77119,13.51534,-10.45905,1006.784
9.198739052,-20.82617,-23.3307,9.685395,-0.7448091,-0.0320437,-0.2700821,34.12872,13.87663,-11.355,1006.784
9.231296063,-104.5035,8.015755,10.41979,-0.6579695,-0.611744,-0.579187,34.14009,13.14901,-11.34978,1006.782
9.266357899,-42.1762,0.5211564,25.96443,-0.8250696,-0.2835617,-0.2322715,34.14009,13.14901,-11.34978,1006.783
9.298915863,-71.58633,3.554684,18.9877,-0.8654239,-0.6418385,-0.1168543,34.12467,14.24302,-10.91154,1006.783
9.331472874,-31.22431,5.695998,12.74537,-0.9185598,-0.7193609,-0.1083182,34.49846,13.88444,-10.46404,1006.783
9.366534710,-8.028458,2.00818,6.380628,-0.8644573,-0.7097696,-0.2445364,34.49846,13.88444,-10.46404,1006.783
9.399092674,13.44462,3.733127,0.9950809,-0.852855,-0.5574893,-0.3519509,34.15229,12.79553,-9.562876,1006.785
9.431649685,18.5514,4.090013,-1.024499,-0.8464344,-0.4639872,-0.2683565,34.87955,13.16463,-9.567865,1006.785
9.464207649,9.44534,6.290807,-2.064889,-0.8490866,-0.3909084,-0.208267,34.87955,13.16463,-9.567865,1006.785
9.499269486,-20.27242,3.316761,-0.1065083,-0.8500261,-0.4655438,-0.1509162,35.60681,13.53374,-9.572853,1006.785
9.531826496,-26.85586,3.316761,-4.696463,-0.7366614,-0.6348925,-0.205814,35.25739,12.43966,-9.563831,1006.783
9.564384461,-13.19676,10.87084,-5.920451,-0.7664092,-0.6000593,-0.255525,35.25739,12.43966,-9.563831,1006.783
9.599446297,-18.48812,7.777831,-4.02327,-0.6679832,-0.638788,-0.2209244,35.60681,13.53374,-9.572853,1006.783
9.632003307,0.5853866,7.896793,-1.330496,-0.7135859,-0.5276178,-0.2167674,35.24337,13.53589,-8.743246,1006.781
9.664561272,-8.028458,8.31316,0.3830869,-0.7056673,-0.4978408,-0.2226047,35.24337,13.53589,-8.743246,1006.781
9.699623108,-3.352371,6.766654,-1.697693,-0.7491639,-0.4962139,-0.2771595,34.50801,13.89957,-7.851336,1006.779
9.764737606,8.337846,6.945097,-3.717273,-0.7704721,-0.4658484,-0.2824761,35.25231,13.17724,-7.848491,1006.781
9.799799442,7.722571,7.539907,-5.859251,-0.8768112,-0.442638,-0.2409324,34.87448,13.90222,-7.852524,1006.781
9.832356930,9.014648,7.12354,-10.02081,-0.8261738,-0.5460169,-0.3402005,35.62041,13.18248,-7.403607,1006.781
9.864914417,6.492023,1.41337,-6.716043,-0.8658431,-0.4458738,-0.352169,35.62041,13.18248,-7.403607,1006.781
9.897471905,-4.82903,0.7590801,-4.696463,-0.8144581,-0.515534,-0.3832507,35.60011,14.26874,-8.303585,1006.784
9.932533741,-6.859436,-2.631333,1.05628,-0.8281808,-0.5311901,-0.2935682,35.60337,14.27391,-7.411441,1006.786
9.965091229,-11.22789,-2.333929,3.810253,-0.8037958,-0.6145386,-0.2779452,35.60337,14.27391,-7.411441,1006.782
9.997648716,1.569826,-2.512372,5.340238,-0.7718223,-0.5610809,-0.2921452,34.86312,14.62984,-7.857747,1006.782
10.032710075,-2.860151,-1.025348,7.665815,-0.7467442,-0.5013866,-0.3081768,34.86638,14.63501,-6.965602,1006.782
10.065268040,-15.10412,-4.237319,8.339008,-0.7631575,-0.500912,-0.2462815,34.86638,14.63501,-6.965602,1006.782
10.097825050,-4.521392,-1.084829,5.462636,-0.751821,-0.5029183,-0.2004022,35.24258,13.90745,-7.407641,1006.782
10.132886887,-5.751942,-4.891609,3.871453,-0.7683197,-0.5113243,-0.2159826,35.60011,14.26874,-8.303585,1006.782
10.165444851,-10.24345,-8.995793,-0.1677077,-0.6988851,-0.4782435,-0.3436398,35.60011,14.26874,-8.303585,1006.78
10.198001862,-2.983206,-9.590603,2.586265,-0.7471548,-0.3381438,-0.2965018,34.87285,13.89964,-8.298596,1006.78
10.233063698,-13.01218,-6.20019,0.3218875,-0.8071011,-0.4585171,-0.2895796,35.24258,13.90745,-7.407641,1006.78
10.265621662,5.138418,0.04530885,-1.330496,-0.8351411,-0.5172249,-0.285131,35.24258,13.90745,-7.407641,1006.78
10.298178673,-10.61261,-1.501196,-1.758892,-0.8578588,-0.5311486,-0.2809712,35.24258,13.90745,-7.407641,1006.782
10.333240509,0.7084415,-6.319152,-6.04285,-0.8028673,-0.5417852,-0.3488593,35.24095,13.90487,-7.853713,1006.784
10.365798473,21.25861,-3.404586,-6.04285,-0.8383511,-0.4136396,-0.3081998,35.24095,13.90487,-7.853713,1006.784
10.398355484,-0.3375252,-2.452891,-5.00246,-0.8486392,-0.4810851,-0.2555641,35.23932,13.90228,-8.299785,1006.779
10.430913448,7.599516,-2.274448,-8.368427,-0.865864,-0.5517306,-0.2667761,34.86554,14.26086,-8.747279,1006.781
10.465975285,-1.629602,-7.746694,-6.838442,-0.8521338,-0.427284,-0.2334713,34.86554,14.26086,-8.747279,1006.781
10.498532295,-9.135952,-6.795,-5.186059,-0.8035036,-0.475464,-0.2932253,34.50638,13.89699,-8.297407,1006.783
10.531090260,7.537989,-4.118357,-10.57161,-0.7323866,-0.4726768,-0.2748831,34.85822,14.62209,-9.195962,1006.783
10.566152096,43.65461,-0.6089815,-16.32435,-0.6136984,-0.5639505,-0.1705306,34.85822,14.62209,-9.195962,1006.783
10.598709107,58.79036,1.353889,-20.05751,-0.5563153,-0.5003366,-0.1014593,34.86251,14.25607,-9.575699,1006.783
10.631267071,57.19065,-2.512372,-29.35982,-0.5685858,-0.4889039,-0.085805,34.48872,14.61465,-10.02319,1006.784
10.666328430,29.13413,-12.02932,-37.13214,-0.6248346,-0.4815673,-0.1499279,34.48872,14.61465,-10.02319,1006.784
10.698885918,-1.075855,-18.27482,-40.00851,-0.9804724,-0.6591043,0.3542857,34.48546,14.60948,-10.91534,1006.784
10.731443405,-34.60832,-19.64288,-42.0281,-0.9654632,-0.8888359,-0.379616,33.01227,14.96012,-11.35926,1006.784
10.766505242,55.9601,-31.65803,-30.58381,-0.969119,-0.8936605,-0.5039139,32.9922,16.04676,-12.19552,1006.786
10.799062729,-20.94922,-35.1674,-26.60585,-0.7380433,-0.6701955,-0.1420621,32.9922,16.04676,-12.19552,1006.786
10.831620217,24.76568,-14.64648,-3.839671,-0.6738148,-0.5596805,-0.6373494,32.24323,16.76171,-13.47285,1006.786
10.864177704,-8.828315,4.744303,8.583806,-0.7917579,-0.5656748,-0.3008968,32.24323,16.76171,-13.47285,1006.79
10.899239540,-7.782348,13.488,15.31574,-0.8283998,-0.632825,-0.06938161,31.87513,16.75648,-13.91774,1006.79
10.931797028,-9.135952,6.885617,13.84695,-0.8780733,-0.6234751,-0.0237536,31.50056,17.48662,-13.02963,1006.785
10.964354038,4.338562,4.030531,9.991392,-0.7680529,-0.5588419,-0.133567,31.50056,17.48662,-13.02963,1006.789
10.999415874,-11.28941,4.327936,10.60339,-0.7781549,-0.4418916,-0.1230723,32.24487,16.76429,-13.02678,1006.789
11.031973839,-38.54608,1.651294,14.27535,-0.8126679,-0.516592,-0.2532402,31.8784,16.76164,-13.02559,1006.789
11.064530849,-22.42588,4.387417,17.15172,-0.8554999,-0.592697,-0.2065057,32.25786,16.03925,-12.57549,1006.789
11.099592686,-14.24273,-3.107181,18.37571,-0.8512747,-0.5828403,-0.2242443,32.25786,16.03925,-12.57549,1006.791
11.132150650,-4.521392,-1.7986,18.7429,-0.7778949,-0.6096154,-0.2179563,32.24929,16.7713,-11.81601,1006.791
11.164707661,7.291879,-0.9063862,18.25331,-0.6925125,-0.5879381,-0.251061,32.99788,15.68295,-12.19291,1006.788
11.199769497,4.892309,-0.8469052,12.74537,-0.6899524,-0.5757694,-0.1416347,32.99788,15.68295,-12.19291,1006.79
11.232327461,19.90501,1.651294,9.746594,-0.6248983,-0.6472173,-0.1679231,33.36295,15.68338,-12.57644,1006.79
11.264884472,19.04362,-12.80257,1.974271,-0.7132182,-0.4579543,0.06707048,33.75051,14.2282,-13.01326,1006.788
11.297442436,-56.69668,-12.92154,-9.531216,-0.7646734,-0.6841392,-0.144666,33.75051,14.2282,-13.01326,1006.79
11.332504273,-39.09982,-7.092404,-16.01835,-0.7432611,-0.952279,-0.4330031,33.74888,14.22562,-13.45933,1006.79
11.365061283,46.1157,3.673646,-13.44798,-0.7669573,-0.6465083,-0.3026373,33.37268,14.95318,-13.01729,1006.79
11.397619248,47.16167,7.539907,-4.757663,-0.7837077,-0.417822,-0.08837992,33.37268,14.95318,-13.01729,1006.79
11.432681084,13.01393,1.770256,-6.471246,-0.8016976,-0.4732218,-0.1409291,32.99648,15.68073,-12.57525,1006.79
11.465238094,-1.998767,-0.8469052,-6.777243,-0.7350087,-0.5682735,-0.2086662,32.9989,15.31176,-13.46479,1006.784
11.497796059,-7.228601,-2.928738,-2.432085,-0.778835,-0.5583791,-0.1591685,32.9989,15.31176,-13.46479,1006.786
11.532857895,-2.921678,-3.642509,2.525066,-0.7896494,-0.6523935,-0.2495337,33.00621,14.95053,-13.0161,1006.786
11.565414906,10.30672,-8.460465,6.503026,-0.7637874,-0.6132109,-0.2417103,32.63406,15.31169,-13.01753,1006.786
11.597971916,10.55283,-11.31555,7.727015,-0.7635251,-0.5338981,-0.1549428,32.63406,15.31169,-13.01753,1006.786
11.633034229,-1.19891,-7.330328,11.33778,-0.7428141,-0.5545563,-0.1485107,32.99158,15.67299,-13.91347,1006.787
11.665591717,-19.16493,-6.021747,10.66459,-0.7901149,-0.7174868,-0.1519175,32.63322,14.93755,-14.7992,1006.787
11.698148728,-3.660008,-5.307976,13.11256,-0.7982126,-0.6096512,-0.1618656,32.63322,14.93755,-14.7992,1006.789
11.730706692,-8.459149,-5.664862,13.78575,-0.7988594,-0.6046094,-0.2033584,33.007,14.57897,-14.35171,1006.785
11.765768528,-6.797908,-5.189014,12.92896,-0.7881914,-0.5986806,-0.1940941,32.64053,14.57632,-14.35052,1006.785
11.798325539,2.984957,-0.8469052,11.09298,-0.7677957,-0.5417693,-0.146358,32.64053,14.57632,-14.35052,1006.787
11.830883503,-2.183349,2.067661,7.421017,-0.8032594,-0.5452384,-0.1265582,33.3832,13.85141,-14.79375,1006.787
11.865944863,-6.490271,1.472851,6.931422,-0.8315966,-0.5098191,-0.1941466,33.37612,14.21301,-15.17871,1006.787
11.898502350,-11.28941,0.878042,6.625425,-0.812455,-0.5682915,-0.2129421,33.37612,14.21301,-15.17871,1006.787
11.931059838,-1.937239,-4.2968,8.033011,-0.8065456,-0.5217814,-0.1639006,33.02102,13.48274,-15.17229,1006.787
11.966121674,-11.65858,-6.140709,10.29739,-0.7922788,-0.5356557,-0.1713767,33.01673,13.84876,-14.79256,1006.787
11.998679161,-7.72082,-8.341503,11.52138,-0.8002658,-0.5653074,-0.1930899,33.01673,13.84876,-14.79256,1006.787
12.031236649,-9.135952,-6.438114,8.21661,-0.8100371,-0.6028931,-0.1854365,33.38888,13.4876,-14.79114,1006.789
12.066298485,-6.182634,-5.307976,6.441827,-0.8032112,-0.5557899,-0.157172,33.38888,13.4876,-14.79114,1006.787
12.098855972,-9.751226,-4.534724,3.014661,-0.7872623,-0.585269,-0.148453,33.38888,13.4876,-14.79114,1006.784
12.131413460,-1.506547,-5.962266,1.239879,-0.8118244,-0.4820971,-0.1420215,33.39456,13.12379,-14.78852,1006.784
12.166475296,-4.459865,-3.761471,1.362277,-0.8227341,-0.4661821,-0.1461185,33.38749,13.48539,-15.17348,1006.787
12.199032307,-3.044733,-2.036524,1.423477,-0.8396065,-0.4852646,-0.1662118,33.38749,13.48539,-15.17348,1006.787
12.231590271,-7.105546,-3.880433,1.729474,-0.8330444,-0.5041545,-0.1616726,33.39317,13.12158,-15.17087,1006.789
12.264147282,-7.351655,-4.653686,2.219069,-0.8514666,-0.5169107,-0.1879517,33.03377,12.75733,-14.78472,1006.791
12.299209118,-1.075855,-2.750295,3.871453,-0.8503308,-0.5328891,-0.1978642,33.03377,12.75733,-14.78472,1006.791
12.331767082,1.139134,-2.690814,3.259459,-0.8235433,-0.5239891,-0.1547337,32.66022,13.11628,-15.16849,1006.791
12.364324093,-7.228601,-5.248495,2.769863,-0.817113,-0.4818151,-0.1125261,33.75964,13.12422,-15.17206,1006.791
12.399385929,-28.82474,-6.378633,-1.330496,-0.8383101,-0.5566518,-0.1750362,33.75964,13.12422,-15.17206,1006.791
12.431943894,-15.47328,-6.85448,-2.554484,-0.8468811,-0.54481,-0.2381696,33.02506,13.11635,-15.61576,1006.791
12.464500904,-5.198195,-6.616557,0.07708991,-0.8518811,-0.4700193,-0.1340645,33.02241,13.48495,-14.78995,1006.791
12.499562740,5.138418,-11.31555,5.034241,-0.839636,-0.412022,-0.02829873,33.02241,13.48495,-14.78995,1006.793
12.532120705,-9.197479,-6.676037,7.727015,-0.8138756,-0.4667141,-0.1108487,33.01533,13.84655,-15.1749,1006.793
12.564677715,-10.61261,-11.49399,11.21538,-0.9119887,-0.5311779,-0.1102873,32.65291,13.47751,-15.61718,1006.793
12.599739552,10.73742,-17.85845,21.92527,-0.9875313,-0.366219,0.05568362,32.65291,13.47751,-15.61718,1006.794
12.632296562,-32.08569,-26.1263,23.94485,-0.957306,-0.5031186,0.2135636,33.02343,13.11376,-16.06183,1006.794
12.664854527,-18.54965,-47.12307,16.72332,-0.9213657,-0.5096121,0.1418901,32.67237,12.0171,-16.49888,1006.794
12.699916363,6.30744,-51.70311,17.82491,-0.9036039,-0.3188886,0.1476829,31.93617,12.00664,-17.38864,1006.794
12.732473374,-25.44073,-67.58453,22.04767,-0.9049807,-0.408365,0.1545366,31.93617,12.00664,-17.38864,1006.794
12.765031338,10.922,-70.91546,22.29247,-0.8619897,-0.4651352,-0.06195709,32.29877,11.63035,-19.99993,1006.796
12.797588349,31.90286,-73.11625,26.39283,-0.7751463,-0.3346349,0.02502437,32.29877,11.63035,-19.99993,1006.796
12.832650185,38.30172,-61.93383,33.85916,-0.938028,-0.2646067,-0.1293974,30.84201,10.51578,-22.15397,1006.796
12.865208149,21.81236,-58.18653,37.83712,-0.8376526,-0.3403553,-0.07119456,29.76308,8.676245,-24.30399,1006.796
12.897765160,36.94811,-41.88875,38.69391,-0.8305126,-0.5214221,-0.2044756,29.76308,8.676245,-24.30399,1006.79
12.932826996,103.7054,-36.17858,54.78935,-0.8929418,-0.2317855,-0.05740039,27.58553,6.457204,-27.78604,1006.79
12.965384960,97.98335,-27.55385,60.1137,-0.8652507,-0.07261749,0.07502957,26.50497,4.615081,-30.38212,1006.79
12.997941971,52.57609,-17.91793,56.80893,-0.9641982,-0.02289286,0.07878396,25.828,0.5975375,-32.13531,1006.79
13.033003807,10.73742,-3.999395,43.71226,-0.8106651,-0.2758094,-0.07990341,25.828,0.5975375,-32.13531,1006.79
13.065561295,8.645483,14.85606,25.65844,-0.9309523,-0.3300933,-0.1366872,25.87042,-2.317746,-32.94284,1006.789
13.098118782,-195.5641,18.72232,-34.31697,-2.68986,-2.544022,-0.2349887,25.521,-3.411824,-32.93382,1006.789
13.133180618,100.0753,26.93069,3.626655,-1.04956,0.4355708,0.01528782,25.521,-3.411824,-32.93382,1006.789
13.165738106,29.31871,7.956274,4.728244,-0.9675043,-0.003093238,0.4155195,25.84607,-0.8650856,-33.39936,1006.789
13.198295593,-12.39691,1.948699,2.280268,-0.8955278,-0.1990883,0.4366287,25.89883,-4.136799,-32.92979,1006.787
13.230852604,-6.859436,3.792608,-0.3513059,-1.06275,-0.2133226,0.09724239,25.89883,-4.136799,-32.92979,1006.789
13.265914917,-10.12039,1.115966,-0.9021005,-0.9069198,-0.2378834,0.1730908,26.64313,-4.859127,-32.92694,1006.79
13.298472405,7.968681,2.365066,-1.452895,-0.9206841,-0.205958,0.2731668,25.90451,-4.50061,-32.92718,1006.792
13.331029415,7.845626,1.829737,-1.94249,-0.9554922,-0.05727938,0.2894866,25.90451,-4.50061,-32.92718,1006.792
13.366091251,-7.72082,4.744303,-4.145669,-0.9417278,-0.2231612,0.1491802,26.27261,-4.49538,-32.48229,1006.792
13.398648739,-11.28941,3.792608,-3.533674,-0.9282489,-0.2440464,0.1846184,26.64881,-5.222938,-32.92433,1006.792
13.431206226,-2.306404,4.030531,-3.533674,-0.937777,-0.2113208,0.2281474,26.64881,-5.222938,-32.92433,1006.789
13.466268063,2.185101,2.900394,-1.758892,-0.9223307,-0.1956499,0.2462565,26.6334,-4.128922,-32.48609,1006.789
13.498825550,-2.490986,3.078837,-0.9632999,-0.9404267,-0.2028746,0.1804245,26.62772,-3.765112,-32.4887,1006.789
13.531383038,-9.443589,2.305584,0.5054857,-0.927837,-0.2339151,0.2021742,26.62772,-3.765112,-32.4887,1006.789
13.566444397,1.569826,2.721951,3.075861,-0.9411874,-0.1999474,0.2819791,26.62609,-3.767694,-32.93478,1006.791
13.599002361,-0.2144703,4.863265,3.443057,-0.9409201,-0.2470457,0.1666999,26.99559,-3.760251,-32.10754,1006.791
13.631559372,-3.721535,2.246104,3.810253,-0.9279415,-0.192877,0.1554294,26.99559,-3.760251,-32.10754,1006.793
13.664116860,-5.013612,1.948699,5.585035,-0.9509951,-0.2123147,0.1952754,27.36634,-4.123629,-32.48847,1006.793
13.699179173,-5.936524,0.878042,5.768634,-0.9429541,-0.1937004,0.1863675,27.36369,-3.755022,-31.66266,1006.793
13.731736183,-9.320534,-1.14431,5.646235,-0.9541822,-0.2037824,0.1272525,27.36369,-3.755022,-31.66266,1006.793
13.764293671,-13.13524,-2.809776,7.17622,-0.9829046,-0.1737314,0.275652,27.36634,-4.123629,-32.48847,1006.795
13.799355984,-11.41247,-2.274448,4.911842,-0.9509382,-0.1758519,0.1929314,26.99987,-4.126276,-32.48728,1006.795
13.831912995,-7.290128,-1.7986,3.932652,-0.9465714,-0.2180401,0.1845495,26.99987,-4.126276,-32.48728,1006.791
13.864470482,-3.352371,-0.07365303,0.9950809,-0.9361904,-0.146008,0.1919223,26.99559,-3.760251,-32.10754,1006.791
13.899531841,4.030924,-0.9063862,-0.1065083,-0.9478742,-0.1846349,0.2092292,26.61636,-3.03749,-32.49393,1006.792
13.932089806,1.262189,3.019356,-2.615684,-0.950886,-0.1783254,0.2025611,26.61636,-3.03749,-32.49393,1006.792
13.964646816,4.215507,2.781432,-0.04530888,-0.9459857,-0.2210678,0.2106051,27.35638,-3.393794,-32.11134,1006.794
13.999708652,1.815936,5.458074,2.15787,-0.9610426,-0.180963,0.2189655,27.35498,-3.396008,-32.49369,1006.792
14.032266617,3.292595,7.658869,3.198259,-0.9465063,-0.1849216,0.1695866,27.35498,-3.396008,-32.49369,1006.792
14.064823627,3.538705,7.242502,3.932652,-0.9343936,-0.1870297,0.1337729,26.99722,-3.757668,-31.66147,1006.794
14.099885464,-4.152228,7.064059,4.361048,-0.9574941,-0.197345,0.1979269,28.09663,-3.749728,-31.66504,1006.794
14.132443428,3.292595,6.647693,6.809023,-0.9519723,-0.1652911,0.2187125,28.09663,-3.749728,-31.66504,1006.792
14.165000439,-1.506547,7.242502,5.034241,-0.9414938,-0.1371935,0.05623302,27.72853,-3.754958,-32.10992,1006.792
14.197557449,-5.505832,2.484027,4.177449,-0.9351922,-0.1802285,0.2382868,27.36206,-3.757604,-32.10873,1006.792
14.232620239,-3.783063,4.863265,0.7502832,-0.9767591,-0.1847261,0.1469001,27.36206,-3.757604,-32.10873,1006.793
14.265177250,-0.70669,3.019356,-2.432085,-0.9751665,-0.1450517,0.1905244,27.36774,-4.121415,-32.10612,1006.795
14.297734261,1.016079,5.81496,-4.757663,-0.9790416,-0.1527496,0.1623748,27.73747,-4.113603,-31.21517,1006.791
14.332796097,0.2162218,6.528731,-6.165249,-0.9418849,-0.2009961,0.1906055,27.73747,-4.113603,-31.21517,1006.791
14.365354061,10.2452,9.264854,-5.920451,-0.9615654,-0.1880383,0.1705204,27.72853,-3.754958,-32.10992,1006.791
14.397911072,8.337846,11.22773,-4.512865,-0.9661243,-0.2081691,0.2021205,28.09826,-3.747145,-31.21897,1006.791
14.432972908,10.36825,14.02333,-1.208097,-0.9579692,-0.2097389,0.1436001,28.09826,-3.747145,-31.21897,1006.791
14.465530872,16.33642,12.77423,1.11748,-0.985395,-0.1922103,0.1646792,28.46878,-4.110892,-31.66362,1006.791
14.498087883,12.7063,14.61814,1.913072,-0.9550829,-0.1664111,0.1360409,28.84825,-4.833283,-31.21351,1006.793
14.533149719,12.76782,15.21295,2.280268,-0.959926,-0.2059429,0.1581612,28.84825,-4.833283,-31.21351,1006.79
14.565707684,13.01393,16.75945,3.443057,-0.9668109,-0.2002009,0.1582555,29.57714,-4.461596,-30.77243,1006.79
14.598264694,22.98138,16.46205,4.238649,-0.9669676,-0.2003901,0.09299686,29.59013,-5.186635,-30.32113,1006.792
14.630821705,27.719,16.99738,4.789443,-0.9571782,-0.1642644,0.08580453,29.59013,-5.186635,-30.32113,1006.79
14.665883541,22.85833,17.83011,4.05505,-0.9581228,-0.1244349,0.0883466,30.33038,-5.542569,-29.87483,1006.792
14.698441506,14.61365,16.16464,4.238649,-0.9622322,-0.150674,0.07538245,30.72121,-6.992582,-29.4195,1006.789
14.730998516,11.53727,16.22412,6.319428,-0.9639589,-0.2057432,0.1030632,30.72121,-6.992582,-29.4195,1006.789
14.766060353,16.45947,15.27243,8.889803,-0.9525083,-0.1182333,0.02366329,31.09999,-7.778193,-29.41503,1006.789
14.798618317,3.16954,11.58461,6.809023,-0.9988785,-0.1770241,0.1001514,31.1087,-8.137206,-28.584,1006.791
14.831175327,2.062046,11.70357,6.992621,-0.9600298,-0.1022364,0.01134681,31.1087,-8.137206,-28.584,1006.793
14.866237164,-0.5221076,7.361464,5.462636,-0.9748846,-0.1527564,0.06956238,31.49059,-9.228575,-29.02343,1006.79
14.931352139,-0.1529429,6.46925,4.11625,-0.9936821,-0.09687003,0.01726169,32.22274,-8.851721,-27.6902,1006.792
14.966413975,-10.67414,6.647693,2.769863,-0.9795362,-0.1698641,0.07752327,32.22274,-8.851721,-27.6902,1006.792
14.998970985,-5.690414,6.46925,4.299848,-0.9725091,-0.1198547,0.002389284,32.22111,-8.854304,-28.13627,1006.789
15.031528950,-4.213755,5.041708,3.871453,-0.9644514,-0.09556337,0.02740432,32.95731,-8.843844,-27.24651,1006.791
15.064085960,-5.259722,5.577036,3.504256,-0.9672713,-0.139964,0.05718239,32.95731,-8.843844,-27.24651,1006.791
15.099147797,-0.5221076,6.885617,4.667045,-0.9865512,-0.11733,0.04787878,32.23573,-9.576759,-27.23891,1006.791
15.131705761,1.877463,7.956274,3.993851,-0.9777082,-0.1282971,0.02691772,32.2341,-9.579343,-27.68498,1006.793
15.164262772,2.062046,7.361464,3.626655,-0.9900184,-0.1153648,0.0334108,32.2341,-9.579343,-27.68498,1006.791
15.199324608,-3.660008,5.695998,2.402667,-0.9901397,-0.1103871,0.007384511,32.59247,-8.843908,-26.79925,1006.792
15.231881619,-5.136667,4.327936,2.525066,-0.9692685,-0.1023813,0.01667067,32.97599,-9.932693,-26.7926,1006.792
15.264439583,-14.73495,2.00818,2.892262,-0.9627747,-0.117817,0.009661628,32.97599,-9.932693,-26.7926,1006.792
15.299501419,-3.906118,2.067661,-0.2289071,-0.9871585,-0.1232993,-0.03003538,32.6022,-9.574113,-27.2401,1006.788
15.332058430,5.076891,0.4616754,-0.1677077,-0.9866065,-0.1262656,-0.01751337,33.34082,-9.932631,-27.23986,1006.789
15.364616394,4.707726,0.8185611,-1.330496,-0.9686839,-0.1144435,-0.0009154912,33.34082,-9.932631,-27.23986,1006.791
15.399678230,1.631353,-0.2520958,-0.7185023,-0.9883,-0.09161562,0.05262317,32.61115,-9.932758,-26.34534,1006.787
15.432235241,-10.05886,-0.4305387,-0.9632999,-0.9093407,-0.08364404,-0.0836437,33.33677,-9.566236,-26.7964,1006.787
15.464792252,-8.520678,7.301983,2.831063,-0.8319259,0.009484949,-0.2471291,33.33677,-9.566236,-26.7964,1006.789
15.499855042,-50.23629,-0.5495005,-0.2901065,-1.595951,-0.3727291,0.1697651,33.32946,-9.205009,-27.24508,1006.789
15.532412052,-23.5949,16.22412,1.668274,-0.9073367,-0.08562381,-0.07014129,32.97194,-9.5663,-26.34914,1006.789
15.564969063,30.97995,8.134717,-1.575294,-0.9279048,-0.1079759,-0.02357489,32.97194,-9.5663,-26.34914,1006.785
15.597527027,-1.445019,12.89319,-0.5961035,-0.9654862,-0.1353611,0.01229685,33.31647,-8.47997,-27.69638,1006.785
15.632588864,-7.228601,15.80776,0.01589051,-0.9881151,-0.07916705,-0.01195959,33.32704,-8.836032,-26.35555,1006.786
15.665145874,1.754408,11.76305,-0.3513059,-1.002241,-0.1287511,-0.04992244,33.32704,-8.836032,-26.35555,1006.788
15.697702885,-2.121821,7.301983,-0.5961035,-0.985389,-0.1110581,-0.04483501,34.04862,-8.103117,-26.36315,1006.786
15.732765675,1.077606,2.721951,-1.514094,-0.9776157,-0.1152044,-0.07245826,34.04862,-8.103117,-26.36315,1006.787
15.765322685,-1.321965,-0.7874243,-1.452895,-0.9909925,-0.1263161,-0.01896003,34.04862,-8.103117,-26.36315,1006.787
15.797879696,5.999803,-2.750295,-2.00369,-0.9878452,-0.1048675,-0.02395299,34.0543,-8.466928,-26.36054,1006.789
15.832941532,5.446055,-4.475243,-2.309686,-0.9731933,-0.110464,-0.03372005,34.42948,-8.823295,-25.5307,1006.789
15.865499497,2.554265,-4.177838,-1.697693,-0.9783468,-0.1356363,-0.07035238,34.42948,-8.823295,-25.5307,1006.788
15.898056507,-4.33681,-6.081228,-1.085699,-0.9754945,-0.1197763,-0.02322561,34.40941,-7.73666,-26.36695,1006.788
15.933118344,1.200661,-4.2968,-1.94249,-0.9750964,-0.1072418,0.0001673235,34.05002,-8.100904,-25.9808,1006.79
15.965675354,3.16954,-1.501196,-1.94249,-0.9635702,-0.1405092,-0.02548694,34.05002,-8.100904,-25.9808,1006.79
15.998233318,2.308156,-1.084829,-1.269297,-0.9729643,-0.127053,-0.01898868,34.42645,-8.828092,-26.35912,1006.79
16.030790329,1.692881,-1.084829,-0.6573029,-0.9837899,-0.1174745,-0.01883209,34.04862,-8.103117,-26.36315,1006.786
16.065852165,-1.014327,-1.679638,-1.636493,-0.9833794,-0.1120968,-0.02455097,34.04862,-8.103117,-26.36315,1006.787
16.098410130,-5.505832,-3.0477,-1.514094,-0.9801117,-0.1436054,-0.03325224,34.04434,-7.737092,-25.98342,1006.787
16.130967140,-1.506547,-2.928738,-2.187288,-0.9821814,-0.1272374,-0.004964666,33.67484,-7.744536,-26.81065,1006.787
16.166028976,-2.060294,-3.107181,-3.288877,-0.9857076,-0.1175548,-0.006747049,33.67484,-7.744536,-26.81065,1006.787
16.198585987,-6.551798,-4.713167,-5.553255,-0.9752591,-0.1012373,-0.03792768,34.41914,-8.466864,-26.8078,1006.787
16.231143951,-15.16564,-5.189014,-6.716043,-0.9807,-0.1286826,-0.003538015,33.67647,-7.741953,-26.36457,1006.789
16.266205788,-7.659293,-4.356281,-7.328037,-0.9697623,-0.1456003,0.007310993,33.67647,-7.741953,-26.36457,1006.785
16.298762798,-11.22789,-3.70199,-8.307227,-0.9734753,-0.1194057,0.007714212,33.68052,-8.108347,-26.80803,1006.785
16.331320763,-16.58077,-3.523547,-9.225219,-0.9752825,-0.1743276,0.003011033,34.029,-6.953633,-26.81749,1006.785
16.366382599,-15.65786,-3.464067,-10.20441,-0.9876538,-0.1156806,0.002950961,34.029,-6.953633,-26.81749,1006.787
16.398939610,-19.65715,-4.772647,-12.16279,-0.9774615,-0.1558577,-0.003472356,33.6479,-6.233824,-27.71367,1006.784
16.431496620,-23.22574,-2.809776,-11.4284,-0.9439908,-0.1879466,-0.01172825,34.74327,-5.85949,-27.27378,1006.786
16.466558457,-9.135952,1.234928,-10.44921,-0.9619601,-0.1873174,0.01198416,34.74327,-5.85949,-27.27378,1006.788
16.499116421,-6.490271,3.91157,-11.1836,-0.9614228,-0.1470314,0.02516605,33.62518,-4.778581,-27.72411,1006.788
16.531673432,-13.99662,6.409769,-11.79559,-0.9584718,-0.1993086,-0.01285437,33.61382,-4.05096,-27.72934,1006.788
16.564231396,-12.51996,6.588212,-12.34639,-0.9502974,-0.189975,-0.01126973,33.61382,-4.05096,-27.72934,1006.791
16.599293232,-19.04187,6.885617,-13.50918,-0.9837085,-0.1603727,0.009515965,33.60651,-3.689732,-28.17802,1006.789
16.631850243,-17.87285,6.707174,-12.04039,-0.9740563,-0.2474891,-0.04306037,34.32403,-2.590423,-27.74216,1006.789
16.664407253,-9.997336,5.517555,-8.674424,-0.9557884,-0.2244629,-0.03112567,34.32403,-2.590423,-27.74216,1006.789
16.699469090,-13.38135,3.852089,-7.940031,-0.992596,-0.2006348,-0.03266012,34.31267,-1.862802,-27.74738,1006.79
16.732027054,-6.367216,1.472851,-5.859251,-0.9789602,-0.248441,-0.06143848,35.0383,-1.496281,-28.19844,1006.79
16.764584065,2.492738,0.9375229,-4.818862,-0.9620124,-0.2361545,-0.04289907,35.0383,-1.496281,-28.19844,1006.792
16.799645901,5.753693,1.056485,-2.493285,-0.9596328,-0.2312658,-0.04234341,34.67346,-1.496344,-27.75118,1006.788
16.832203865,6.184385,0.9970039,0.1382893,-0.9547272,-0.2341222,-0.04142497,35.03425,-1.129887,-27.75498,1006.788
16.864760876,-0.1529429,1.41337,1.729474,-0.9469512,-0.2335171,-0.04529026,35.0302,-0.7634931,-27.31152,1006.79
16.899822712,1.016079,1.353889,2.708664,-0.9664717,-0.2298882,-0.0442493,35.0302,-0.7634931,-27.31152,1006.792
16.932379723,6.06133,1.591813,4.299848,-0.9422085,-0.2697888,-0.0709838,35.02289,-0.4022651,-27.7602,1006.792
16.964937687,16.58253,0.9970039,3.504256,-0.9729506,-0.2154308,-0.03580508,35.0302,-0.7634931,-27.31152,1006.793
16.997494698,20.82792,-0.133134,4.422247,-0.9760679,-0.2022703,-0.05300285,35.0302,-0.7634931,-27.31152,1006.793
17.032556534,10.06061,-0.5495005,3.932652,-0.9603457,-0.2094568,-0.03089233,35.40235,-1.124657,-27.3101,1006.793
17.065114021,4.830781,-0.5495005,4.422247,-0.961943,-0.1916291,-0.001616192,35.04725,-1.854925,-27.30369,1006.795
17.097671509,1.200661,-0.2520958,4.667045,-0.9525908,-0.2016796,-0.009029205,35.04725,-1.854925,-27.30369,1006.795
17.132733345,3.538705,-0.5495005,4.11625,-0.9707736,-0.1863918,-0.002977897,35.05293,-2.218736,-27.30107,1006.793
17.165290833,0.6469141,-2.274448,4.544646,-0.9681541,-0.2100026,-0.04007728,35.04561,-1.857508,-27.74976,1006.793
17.197848320,4.153979,-5.248495,5.15664,-0.9892129,-0.2038731,-0.05881514,35.04561,-1.857508,-27.74976,1006.793
17.232910156,9.568396,-7.806175,6.686625,-0.9754682,-0.2105552,-0.04636255,34.31835,-2.226613,-27.74477,1006.791
17.265467167,7.661044,-9.055275,7.910613,-0.9634621,-0.2390472,-0.05212597,35.06834,-3.312751,-27.73932,1006.789
17.298024654,24.39651,-10.60178,7.482217,-0.9968898,-0.1638115,-0.02000976,35.06834,-3.312751,-27.73932,1006.789
17.333086491,12.33713,-10.00697,5.891033,-0.975768,-0.1710073,0.01949697,33.97461,-3.684502,-27.73314,1006.791
17.365643978,22.73527,-11.91036,7.298619,-0.9837404,-0.251521,-0.03924553,33.98597,-4.412124,-27.72791,1006.791
17.398201466,37.74797,-14.64648,6.441827,-1.03279,-0.1868795,-0.07301512,33.98597,-4.412124,-27.72791,1006.793
17.430758476,43.71613,-19.46444,1.301078,-1.062922,-0.2443971,-0.1222012,34.35649,-4.77587,-28.17256,1006.793
17.465820313,73.37236,-24.8772,-4.941261,-1.05324,-0.2194358,-0.02660452,33.26844,-5.511433,-28.16377,1006.793
17.498377800,73.0032,-19.34548,-1.208097,-0.9126323,-0.08960951,-0.06391308,33.26844,-5.511433,-28.16377,1006.793
17.530935288,43.03933,9.026931,3.932652,-0.5199747,0.3098018,-0.3052041,32.92307,-6.971905,-28.59821,1006.793
17.565997124,-5.690414,60.24002,22.59847,-0.6261489,-0.1389613,-0.2520094,31.85953,-8.849202,-26.79687,1006.793
17.598554611,21.38167,87.48228,28.04521,-0.9584971,-0.3227552,-0.01328756,31.85953,-8.849202,-26.79687,1006.793
17.631112099,27.34983,-51.22726,4.483446,-1.541545,-0.1182207,1.528017,32.60039,-8.831363,-24.63261,1006.793
17.666173935,-94.35149,29.7263,-5.920451,-1.024713,-0.2139896,-0.285639,33.69878,-8.452231,-23.3643,1006.788
17.731288910,-6.244161,6.945097,0.8114826,-0.9891797,-0.3250483,-0.0244106,34.05817,-8.087988,-23.75045,1006.788
17.766350269,55.89857,3.733127,-2.676883,-1.058079,-0.06615315,-0.08129978,34.0345,-6.57211,-23.76133,1006.788
17.798907757,6.492023,1.115966,-2.676883,-0.9651332,-0.1071043,-0.1076332,34.0345,-6.57211,-23.76133,1006.79
17.831464768,7.599516,-0.3710577,-1.330496,-0.9454358,-0.1984579,-0.05539114,34.77881,-7.294438,-23.75848,1006.788
17.866526604,-1.998767,-2.096005,-3.166478,-0.9751789,-0.1094692,-0.04433725,34.78683,-7.71667,-23.37309,1006.788
17.899084568,-7.536238,-2.988219,-2.799282,-0.9631741,-0.1802329,-0.05267909,34.78683,-7.71667,-23.37309,1006.79
17.931641579,-6.797908,-1.025348,-2.554484,-0.9786852,-0.1411458,-0.03563298,34.77881,-7.294438,-23.75848,1006.79
17.964198590,-7.905403,-0.07365303,-0.6573029,-0.9582034,-0.1409341,-0.02356509,34.78543,-7.718884,-23.75543,1006.79
17.999260426,1.754408,2.900394,-2.064889,-0.9882646,-0.1002411,0.02590581,34.78543,-7.718884,-23.75543,1006.79
18.031818390,0.769969,4.327936,-4.880061,-0.9710931,-0.1715398,-0.06317311,34.41373,-7.294871,-23.37494,1006.79
18.064375401,-4.705975,-2.333929,-3.839671,-0.9822834,-0.1417951,-0.1163633,34.77452,-6.928413,-23.37874,1006.792
18.099437237,-6.490271,-5.189014,-3.900871,-0.9515156,-0.2227787,-0.06832411,34.77452,-6.928413,-23.37874,1006.787
18.131995201,-0.02988797,-6.20019,-3.472475,-0.9915406,-0.07918073,-0.01872377,34.77312,-6.930627,-23.76109,1006.787
18.164552212,-6.059579,-3.464067,-5.553255,-0.9526278,-0.2495931,-0.05326407,34.76744,-6.566816,-23.7637,1006.789
18.199614048,13.75226,-6.85448,-5.186059,-0.970031,-0.1365485,-0.05974003,34.76744,-6.566816,-23.7637,1006.789
18.232171059,2.92343,-4.058876,-7.328037,-0.9227074,-0.2116084,0.01544269,34.76582,-6.5694,-24.20977,1006.789
18.264729023,38.24019,-3.404586,-3.227677,-0.990999,-0.09211592,-0.05807516,34.76013,-6.205589,-24.21239,1006.791
18.299790859,5.076891,-3.0477,-3.839671,-0.9058786,-0.2351955,0.01361646,34.76013,-6.205589,-24.21239,1006.791
18.332347870,7.845626,-2.214967,-5.553255,-0.9778798,-0.1137154,0.0261736,34.39529,-6.205652,-23.76513,1006.791
18.364904881,-19.59562,4.922746,-6.104049,-0.9452294,-0.2430116,0.01643546,34.76582,-6.5694,-24.20977,1006.788
18.397462845,7.414934,1.41337,-6.716043,-1.048503,-0.1279229,-0.04406464,34.76582,-6.5694,-24.20977,1006.788
18.432524681,16.82864,-3.285624,-4.757663,-0.9470586,-0.1506757,-0.09333073,34.39529,-6.205652,-23.76513,1006.787
18.465081692,-0.7682174,-0.01417209,1.11748,-0.9246513,-0.2881035,0.05149755,34.76744,-6.566816,-23.7637,1006.788
18.497639179,2.431211,2.127142,5.09544,-1.012874,-0.1527614,0.06863221,34.76744,-6.566816,-23.7637,1006.788
18.532700539,-20.27242,-0.3115768,2.769863,-0.9386321,-0.03590707,-0.08433726,34.75445,-5.841778,-24.215,1006.788
18.565258503,-50.17477,-3.880433,1.607075,-0.9767597,-0.2037493,0.05573504,34.39203,-6.210818,-24.65727,1006.788
18.597815514,-83.64571,-5.664862,2.708664,-1.033022,-0.1631513,-0.05476795,34.39203,-6.210818,-24.65727,1006.79
18.632877350,-19.47256,-2.036524,-0.6573029,-1.198673,-0.09676918,-0.1638052,34.39203,-6.210818,-24.65727,1006.79
18.665434837,-0.70669,-4.237319,-4.941261,-1.200636,-0.211697,-0.1196359,34.3693,-4.755575,-24.66771,1006.79
18.697992325,21.32014,3.435722,-13.08078,-1.097666,-0.1670117,0.1796733,34.3693,-4.755575,-24.66771,1006.792
18.733054161,30.8569,10.87084,0.9950809,-0.5451719,0.140736,0.1388811,33.99147,-4.030601,-24.67175,1006.794
18.765611172,-6.367216,21.75585,17.09052,-0.5305526,-0.01392129,0.2032135,33.625,-4.033247,-24.67056,1006.794
18.798169136,12.52171,36.03128,34.40995,-0.3432025,-0.1238044,0.2153742,34.37094,-4.752993,-24.22164,1006.794
18.865787983,261.2772,-2.750295,11.33778,-0.06353211,1.453665,0.4054523,35.84879,-5.096253,-22.50322,1006.795
18.898345471,-84.38403,15.27243,-2.738082,-0.8441697,-0.3461687,0.2245497,35.84069,-4.363466,-21.6163,1006.795
18.930902958,22.30458,-4.653686,-3.105279,-1.093116,-0.2709444,-0.2482551,35.84069,-4.363466,-21.6163,1006.795
18.965964794,-42.60689,-5.367457,-2.98288,-0.9825643,-0.08753786,0.02754425,36.22989,-5.816062,-21.60704,1006.795
18.998522282,-2.614041,-2.512372,-1.269297,-0.9696113,-0.2960585,-0.2497242,36.59231,-5.447021,-21.16477,1006.797
19.031079292,-10.30497,-4.118357,-5.124859,-0.9475949,-0.147738,-0.0995693,36.59231,-5.447021,-21.16477,1006.795
19.066141129,-23.41032,1.532332,-3.411276,-1.037558,-0.1367691,0.008477914,35.84637,-4.727277,-21.61369,1006.795
19.098698616,-35.83887,3.792608,-2.187288,-0.9122564,-0.30838,-0.1552257,36.58173,-5.09096,-22.5056,1006.795
19.131256104,6.245913,9.62174,-3.717273,-0.9877921,-0.178629,-0.1546234,36.58173,-5.09096,-22.5056,1006.797
19.166317940,0.1546944,6.766654,-1.391695,-0.9606001,-0.1657672,-0.1264175,36.92548,-3.63307,-22.51723,1006.797
19.198874950,-21.01075,5.755479,6.747824,-0.9946142,-0.151599,-0.02707629,36.93768,-3.986549,-20.73033,1006.797
19.231432915,-17.3191,8.789007,5.585035,-0.9686131,-0.1887129,-0.1267599,36.93768,-3.986549,-20.73033,1006.797
19.266494751,-10.18192,13.66644,2.402667,-0.9920481,-0.1893805,-0.1538165,36.55822,-3.264157,-21.18044,1006.797
19.299051762,-14.91953,10.93032,0.3830869,-0.9962728,-0.17736,-0.03133473,36.56553,-3.625384,-20.73175,1006.797
19.331608772,-35.65429,-0.1926149,-2.370886,-0.9160879,-0.1741716,-0.2870698,36.56553,-3.625384,-20.73175,1006.797
19.364166737,-32.02417,2.781432,1.178679,-0.9160718,-0.1585058,-0.2056235,36.92064,-2.895116,-20.73817,1006.799
19.399228573,-24.51781,8.551084,4.973042,-0.9561812,-0.1368197,-0.1733511,36.92632,-3.258927,-20.73556,1006.797
19.431785584,-13.56593,8.372641,5.462636,-0.9342928,-0.1863736,-0.2214991,36.92632,-3.258927,-20.73556,1006.797
19.464342594,-28.39404,1.175447,3.749054,-1.077764,-0.1951741,0.01825996,36.91636,-2.529092,-20.35843,1006.793
19.499404431,-22.73352,-0.9658671,3.320658,-0.9639984,-0.1938357,-0.05626946,37.64362,-2.159987,-20.36342,1006.796
19.531962395,-20.21089,-2.750295,1.301078,-0.994332,-0.1830293,-0.06139246,37.64362,-2.159987,-20.36342,1006.798
19.564519405,-31.77806,-8.282022,-2.493285,-0.9145657,-0.08828995,-0.2514413,37.26579,-1.435013,-20.36745,1006.8
19.599581242,-44.02202,-14.64648,-1.636493,-0.920953,0.002938382,-0.2384423,37.26439,-1.437227,-20.7498,1006.8
19.632138252,-28.33252,1.41337,0.1382893,-0.8879619,-0.1236509,-0.09539235,37.26439,-1.437227,-20.7498,1006.8
19.664696217,-22.85657,-4.772647,-5.00246,-1.018703,-0.207559,-0.1869378,36.88655,-0.7122521,-20.75383,1006.802
19.699758053,-6.182634,1.532332,-4.818862,-0.9022028,-0.1815857,-0.2204903,37.24166,0.01801634,-20.76024,1006.802
19.732315064,-59.83458,-22.02212,-10.694,-1.06203,-0.008609556,-0.02869674,37.24166,0.01801634,-20.76024,1006.802
19.764873028,-51.22073,-17.85845,-6.348847,-1.049981,-0.07285035,-0.1877527,36.49736,0.7403436,-20.76309,1006.802
19.797430039,-5.444304,-7.746694,-7.940031,-1.054286,-0.1762576,-0.6495008,36.49409,0.7351775,-21.65523,1006.802
19.832491875,12.09102,-0.133134,-11.85679,-1.328717,-0.2386044,-0.4457188,36.49409,0.7351775,-21.65523,1006.802
19.865048886,33.62563,19.4361,2.463866,-0.9729915,0.003036688,-0.4080558,36.46974,2.187838,-22.11175,1006.802
19.897606850,13.13699,31.33228,10.17499,-0.9212166,0.01108503,-0.107806,36.10327,2.185192,-22.11056,1006.802
19.932668686,-10.85872,21.87481,10.17499,-1.056866,-0.2926359,0.1342134,36.10327,2.185192,-22.11056,1006.8
19.965225697,22.85833,-6.081228,3.871453,-1.007199,-0.4406313,0.2232659,35.7504,1.831279,-19.94013,1006.8
19.997783184,66.35823,-13.69479,5.462636,-0.6256574,-0.1194077,0.04314835,36.12986,1.108889,-19.49002,1006.798
20.032845020,7.845626,6.350288,-3.839671,-0.6511685,-0.1811649,-0.1284012,36.12986,1.108889,-19.49002,1006.798
20.065402508,22.30458,32.46242,-15.03916,-0.7397916,-0.3576009,-0.1658106,35.76744,0.7398467,-19.93229,1006.798
20.097959518,48.69986,41.20612,-22.56669,-0.9783937,-0.266653,-0.1158551,36.14691,0.01745605,-19.48219,1006.798
20.133021355,48.51527,33.41412,-15.16156,-1.18652,-0.1568646,-0.0603244,36.14691,0.01745605,-19.48219,1006.798
20.165578842,42.05489,24.43249,-0.3513059,-1.193783,-0.2069182,-0.08234961,36.51664,0.02526855,-18.59123,1006.796
20.198136330,1.385244,-6.913961,1.423477,-1.119171,-0.2280238,-0.1431657,36.89913,-0.6923265,-17.31271,1006.796
20.233198166,-15.10412,-36.05962,4.728244,-0.9589064,-0.2122521,-0.0531717,36.89913,-0.6923265,-17.31271,1006.796
20.265755653,-15.53481,-48.37217,1.362277,-0.7991676,-0.2757869,-0.1582212,37.27128,-1.05349,-17.31129,1006.792
20.298312664,21.99694,-41.29394,4.299848,-0.7284943,-0.3514501,-0.09708816,36.17126,-1.435205,-19.02567,1006.792
20.330870628,4.153979,-57.41328,-9.04162,-0.8771133,-0.1722162,-0.0724583,36.17126,-1.435205,-19.02567,1006.796
20.365931988,-11.90469,-61.81487,-11.306,-0.8861676,-0.131906,-0.1979959,35.79282,-1.084003,-20.74766,1006.795
20.398489475,-12.95065,-47.95581,-15.89595,-0.8905966,-0.2216581,-0.2457651,33.96633,-2.206381,-23.79266,1006.795
20.431046486,8.276319,-37.07079,-18.40513,-1.025694,-0.186879,-0.159063,33.96633,-2.206381,-23.79266,1006.793
20.466108322,-15.16564,-33.44246,-21.83229,-1.081617,-0.1255542,-0.2310634,33.58928,-1.852966,-25.1323,1006.793
20.498666287,-28.02488,-20.29717,-16.75274,-1.051011,-0.1382843,-0.1234941,32.10738,-1.143312,-26.40726,1006.793
20.531223297,-32.51639,-0.3115768,-11.4284,-1.007426,-0.1168787,-0.3223608,32.10738,-1.143312,-26.40726,1006.793
20.566285133,-7.228601,1.829737,-0.9632999,-1.158523,-0.0439688,-0.2234605,31.36954,-1.156354,-27.74309,1006.793
20.598842144,-26.30211,18.30596,1.913072,-1.069091,-0.3763537,-0.08602168,30.99334,-0.4287963,-27.30105,1006.793
20.631400108,12.02949,21.57741,0.3830869,-1.00257,-0.2986178,0.003074661,30.99334,-0.4287963,-27.30105,1006.793
20.666461945,29.0726,18.30596,-5.492055,-0.8193315,-0.2129028,0.06172734,30.99092,-0.0598197,-26.41152,1006.793
20.699018955,12.02949,12.95267,-8.796823,-0.7774771,-0.1610044,0.09776523,30.9899,0.3113704,-25.13964,1006.789
20.731575966,7.04577,8.134717,-9.470016,-0.8643169,-0.2387738,0.06427632,31.358,0.3166003,-24.69476,1006.79
20.764133930,12.39866,4.446898,-8.980421,-0.8926137,-0.2328604,0.07212788,31.358,0.3166003,-24.69476,1006.795
20.799195767,20.95098,9.62174,-1.208097,-0.9196813,-0.2393465,-0.07440813,32.09258,0.3244767,-24.25106,1006.793
20.831752777,34.97923,12.77423,8.277809,-0.913719,-0.2969811,-0.1013955,31.36695,-0.04204369,-23.8,1006.793
20.864309788,41.87031,9.56226,18.7429,-0.8806725,-0.256478,0.06305525,31.36695,-0.04204369,-23.8,1006.791
20.899371624,-3.167788,-6.259671,12.86776,-0.8733071,-0.2612506,0.06490884,32.11591,-0.7569919,-22.52267,1006.785
20.931929589,1.139134,-14.2896,7.604616,-0.9400515,-0.3124197,0.01102116,32.1283,-1.855804,-23.78933,1006.785
20.964486599,2.67732,-15.36026,2.15787,-1.009018,-0.2927772,-0.01713184,32.1283,-1.855804,-23.78933,1006.785
20.999548435,0.6469141,-15.36026,-3.656073,-1.032123,-0.3125975,-1.035421E-05,31.76182,-1.858451,-23.78814,1006.785
21.032105923,-3.84459,-21.84368,-9.347617,-1.05497,-0.284962,-0.05032125,31.40345,-2.593885,-24.67387,1006.785
21.064663410,1.323716,-22.49797,-5.247258,-1.052288,-0.2996503,-0.01912844,31.40345,-2.593885,-24.67387,1006.787
21.099725246,-7.536238,-23.50914,-7.940031,-1.026452,-0.2941336,0.01718405,30.29346,-2.245764,-26.01113,1006.787
21.132282257,-13.81204,-18.0369,-9.102819,-0.9191068,-0.2851032,-0.05722182,30.29207,-2.247978,-26.39348,1006.787
21.164839745,-22.2413,-13.99219,-10.26561,-0.8986076,-0.2901552,-0.0631192,30.29207,-2.247978,-26.39348,1006.785
21.197397232,-21.74908,-9.471642,-14.97796,-0.8974463,-0.3090336,-0.07645951,28.8205,-1.894754,-26.39133,1006.785
21.232459068,-9.135952,0.878042,-14.91676,-0.8869197,-0.3351327,-0.07831798,28.4524,-1.899983,-26.83622,1006.785
21.265016556,-3.290843,1.41337,-15.83475,-0.9235134,-0.2261962,0.01473754,28.4524,-1.899983,-26.83622,1006.785
21.297573567,-33.25471,13.78541,-19.50672,-0.9166895,-0.2902714,-0.08920588,28.44975,-1.531376,-26.01041,1006.781
21.332635403,-9.197479,12.47683,-16.38555,-0.9025543,-0.2578264,-0.1293282,28.80649,-0.7985249,-25.57075,1006.781
21.365192890,-1.075855,18.72232,-17.36474,-0.8876073,-0.2981504,0.016022,28.80649,-0.7985249,-25.57075,1006.781
21.397750378,-25.68684,21.63689,-27.46264,-0.8400743,-0.5018969,-0.03788687,29.17054,-0.4269009,-24.6824,1006.784
21.432812214,51.22248,7.480426,-20.60831,-0.9407541,-0.4810724,0.1162418,29.53296,-0.05786037,-24.24013,1006.777
21.465369225,65.00463,-0.6684624,-19.26192,-0.9131289,0.2073264,0.1513699,29.53296,-0.05786037,-24.24013,1006.777
21.497927189,3.600232,0.7590801,-8.368427,-1.03218,-0.4094074,-0.0860782,29.51327,1.402179,-23.42216,1006.779
21.532989025,26.73456,3.316761,4.11625,-0.9275146,-0.1852067,-0.03248756,29.51895,1.038369,-23.41954,1006.779
21.565546036,3.046485,-2.809776,-0.2901065,-0.9822912,-0.3051138,0.09963135,29.51895,1.038369,-23.41954,1006.779
21.598103047,-31.34736,-12.56465,-9.16402,-0.9019748,-0.5895223,-0.07686737,29.52486,0.6749263,-23.35321,1006.779
21.633164883,23.4736,-16.07403,-13.20318,-0.8740169,-0.4736466,-0.04177351,29.52891,0.3085332,-23.79667,1006.779
21.665722847,-6.428744,-20.5351,-12.59119,-0.8723655,-0.3001236,0.065765,29.52891,0.3085332,-23.79667,1006.779
21.698279858,-22.73352,-8.876832,-8.307227,-0.784679,-0.4130833,-0.06462122,29.16244,0.3058858,-23.79548,1006.779
21.765898705,-9.197479,-10.42334,-3.594874,-0.8614543,-0.4286507,-0.06768488,28.41814,1.028215,-23.79833,1006.777
21.798456192,23.22749,-12.14828,-1.94249,-0.8971556,-0.4140884,-0.05921085,28.41488,1.023049,-24.69047,1006.782
21.831013680,19.6589,-11.01815,0.1382893,-0.9473902,-0.2592388,0.05147649,27.6803,1.015172,-25.13417,1006.782
21.866075516,-6.613326,-7.211366,3.504256,-0.8609382,-0.3137105,0.09358255,27.6803,1.015172,-25.13417,1006.784
21.898632527,-8.459149,0.1642707,-1.269297,-0.9246168,-0.5057192,0.02545878,28.04514,1.015236,-25.58142,1006.784
21.931190014,-7.905403,4.030531,-9.286418,-0.8456634,-0.5546994,0.0144844,27.32356,0.2823205,-25.57383,1006.78
21.966251850,10.98353,9.026931,-14.85556,-0.9060986,-0.5553879,-0.007219729,27.32356,0.2823205,-25.57383,1006.782
21.998809338,30.48773,8.31316,-15.58996,-0.8730813,-0.4174973,0.01080354,27.6803,1.015172,-25.13417,1006.786
22.031366825,22.36611,13.07163,-17.54834,-0.8948136,-0.4380879,-0.01220833,28.03946,1.379047,-25.58404,1006.786
22.066428661,4.153979,5.874441,-22.07709,-0.8946515,-0.4194148,-0.05639427,28.03946,1.379047,-25.58404,1006.786
22.098985672,21.25861,14.4397,-17.54834,-0.9335181,-0.3326838,-0.002828856,28.05167,1.025568,-23.79714,1006.784
22.131543160,18.36682,18.30596,-13.75397,-0.9045316,-0.3864668,0.04369356,28.41385,1.394239,-23.41859,1006.782
22.164100647,8.768538,16.40257,-10.9388,-0.8948492,-0.4584187,0.0759395,28.41385,1.394239,-23.41859,1006.782
22.199162483,17.99766,13.72593,-14.54957,-0.9097371,-0.5217198,0.05952006,28.77954,1.768445,-22.08418,1006.784
22.231719494,-9.074425,4.803784,-18.52753,-0.8860573,-0.5813705,0.09870743,29.14601,1.771093,-22.08536,1006.784
22.264277458,4.769254,-4.653686,-16.87514,-0.9257184,-0.4242245,0.1625321,29.14601,1.771093,-22.08536,1006.784
22.299339295,-2.737096,-9.41216,-17.73194,-0.7989112,-0.4837649,0.1528005,28.41796,1.773548,-20.74477,1006.784
22.331896305,-15.90397,-8.519946,-19.62912,-0.8067043,-0.5000336,0.07473615,28.76878,2.869841,-20.37144,1006.785
22.364453316,-39.96121,-11.61296,-24.28027,-0.8976632,-0.6011705,0.03799445,28.76878,2.869841,-20.37144,1006.787
22.399515152,-7.413183,-13.21894,-20.60831,-0.9142034,-0.4669837,0.08694517,28.39523,3.228791,-20.75521,1006.787
22.432073116,-38.73066,-21.42731,-21.4651,-0.9034051,-0.4337628,0.08019092,28.38527,3.958626,-20.37809,1006.783
22.464630127,-45.25257,-20.29717,-20.42471,-0.847339,-0.4118091,0.009415349,28.38527,3.958626,-20.37809,1006.783
22.499691963,-58.11181,-3.642509,-21.8935,-0.7955069,-0.5887673,-0.1509153,27.63123,5.411158,-19.94008,1006.785
22.532248974,-35.22359,2.66247,-24.58627,-0.804471,-0.7067788,-0.196211,27.26234,5.777488,-19.04936,1006.785
22.564806938,1.815936,4.387417,-22.01589,-0.8263175,-0.5627654,-0.07943244,27.26234,5.777488,-19.04936,1006.785
22.599868775,0.03163948,-0.133134,-14.73316,-0.8752004,-0.3996122,0.02606313,26.87478,7.232668,-18.61255,1006.785
22.632425785,-31.34736,5.101189,-10.8776,-0.7847919,-0.444212,-0.05977888,26.86505,7.962873,-18.1717,1006.783
22.664982796,-67.03329,19.61454,-8.184829,-0.7288784,-0.7549393,-0.1834841,26.49755,8.331415,-16.89863,1006.783
22.697540760,-36.39262,17.47322,-4.084469,-0.8017594,-0.7538072,-0.1075063,26.49755,8.331415,-16.89863,1006.78
22.732602596,-24.57934,14.20177,7.727015,-0.8767294,-0.5919076,-0.1209154,26.84456,9.794472,-16.01812,1006.78
22.765159607,-65.80274,21.33949,-0.7797017,-0.8929163,-0.6398834,-0.1975219,27.18994,11.25494,-15.58368,1006.78
22.797717095,-71.89396,28.53668,-6.471246,-0.8724066,-0.9166717,-0.2979565,27.18994,11.25494,-15.58368,1006.779
22.832778454,-38.17691,35.19855,-14.05997,-0.8785269,-0.6587377,-0.1784884,27.55702,11.63136,-13.86692,1006.779
22.865335942,-66.91024,43.22847,-24.76987,-0.8430355,-0.7669769,-0.3208366,27.91413,12.73762,-11.77303,1006.777
22.897893429,-52.75892,53.22127,-31.1958,-0.8070679,-0.7212583,-0.3317749,27.91413,12.73762,-11.77303,1006.777
22.932955265,-40.69954,57.86078,-40.62051,-0.7657938,-0.6354828,-0.3720765,27.9026,14.21058,-8.724693,1006.777
22.965512753,-24.57934,61.78652,-40.86531,-0.7073901,-0.5406066,-0.3344321,27.887,16.04992,-5.232898,1006.777
22.998069763,-28.76321,59.28833,-33.76618,-0.7222015,-0.4164025,-0.2232798,27.887,16.04992,-5.232898,1006.775
23.033131599,-38.54608,56.07635,-30.09421,-0.6268967,-0.5118228,-0.3413213,26.41852,17.15365,-1.285053,1006.775
23.065689564,-47.28297,53.04283,-26.91184,-0.5946163,-0.6123822,-0.3656054,26.39865,19.35902,2.586479,1006.773
23.098246574,-46.54465,48.10591,-20.17991,-0.5743182,-0.6460234,-0.3907904,26.39865,19.35902,2.586479,1006.773
23.130803585,-42.72995,46.262,-15.95715,-0.61359,-0.7133799,-0.4401178,26.04336,19.37408,5.646446,1006.772
23.165865421,-15.04259,41.20612,-18.95592,-0.5939758,-0.6963084,-0.503682,26.02209,21.57725,9.135632,1006.766
23.198423386,-17.07299,37.16142,-16.87514,-0.575882,-0.6135683,-0.477785,26.02209,21.57725,9.135632,1006.766
23.230980396,-31.53195,33.71152,-22.56669,-0.5367144,-0.6809292,-0.5151037,26.00892,23.04762,11.73789,1006.766
23.266042233,-18.05743,39.7191,-27.64624,-0.517204,-0.7168813,-0.674702,25.2709,23.77991,13.45561,1006.77
23.298599243,-12.08927,41.74145,-28.93143,-0.481948,-0.6792642,-0.6166403,25.2709,23.77991,13.45561,1006.77
23.331157208,-2.983206,44.53705,-38.35613,-0.3961597,-0.6564813,-0.6777644,24.88092,25.60406,14.78196,1006.766
23.366218090,-2.983206,49.59293,-42.21169,-0.4565079,-0.5708783,-0.6512645,24.12018,27.7916,16.48923,1006.766
23.398776054,-25.93295,44.00172,-47.71964,-0.2859142,-0.7005321,-0.6147371,24.12018,27.7916,16.48923,1006.764
23.431333065,17.56697,51.91269,-53.71718,-0.2676767,-0.8223459,-0.707488,22.994,29.6053,16.92582,1006.764
23.466394901,21.50472,53.34023,-62.5299,-0.2202581,-0.8676711,-0.6511868,21.86618,31.41641,16.91633,1006.764
23.498952389,57.06759,57.68234,-75.74896,-0.1690053,-0.8781692,-0.6538132,21.86618,31.41641,16.91633,1006.762
23.531509876,66.91198,64.82005,-88.05004,-0.2688257,-1.000591,-0.6314158,19.27411,33.21952,17.35767,1006.761
23.564067364,69.12697,59.16936,-101.2079,-0.2482051,-1.107004,-0.4720947,16.28734,36.0937,14.73358,1006.759
23.599128723,97.24502,31.51073,-113.0194,-0.3201468,-0.9019799,-0.2359097,16.28734,36.0937,14.73358,1006.754
23.631686211,105.4282,3.019356,-111.4894,-0.3607303,-0.8190252,-0.1055434,12.20847,38.59872,12.56174,1006.754
23.664243698,88.20048,-31.1227,-95.57757,-0.3360265,-0.5039966,-0.05484022,8.505808,40.37617,9.947866,1006.753
23.699305535,31.22606,-59.73303,-74.28017,-0.1031616,-0.625178,-0.2053105,8.505808,40.37617,9.947866,1006.751
23.731863022,-8.213039,-76.92303,-50.04522,0.1821167,-0.7073577,-0.4451444,4.070201,42.14834,7.336369,1006.749
23.764420033,4.646199,-79.8376,-20.79191,0.2389546,-0.465091,-0.5459124,2.158095,43.22351,6.888605,1006.747
23.799481869,-25.87142,-74.30587,-2.615684,0.3052177,-0.553182,-0.7551724,2.158095,43.22351,6.888605,1006.747
23.832039833,-50.05171,-63.83722,17.09052,0.3264817,-0.3977802,-0.8799502,1.424133,43.58941,8.162865,1006.746
23.864596844,-86.29139,-45.04124,39.5507,0.3076298,-0.4624337,-0.9307062,1.789815,43.96362,9.49728,1006.746
23.899658680,-97.36633,-31.89595,57.05373,0.2069592,-0.386566,-0.909633,1.789815,43.96362,9.49728,1006.746
23.932215691,-78.35435,-9.888008,68.92641,0.1102453,-0.6921761,-0.8871331,3.339322,43.26474,12.55633,1006.74
23.964772701,-59.52694,4.863265,87.28623,0.07831538,-0.4260148,-0.7273943,5.208613,41.84523,16.44803,1006.74
23.999834538,-116.0091,1.591813,93.22257,-0.1498007,-0.3154886,-0.6776336,5.208613,41.84523,16.44803,1006.744
24.032392502,-153.5409,19.07921,73.94476,-0.08250117,-0.8858171,-0.9662749,7.074265,40.04716,17.79335,1006.742
24.064949512,-127.4532,31.09436,68.68162,-0.3227308,-0.6853039,-0.8609914,8.240653,36.8059,22.14656,1006.741
24.097506523,-136.8669,38.17259,59.7465,-0.08533716,-0.6371238,-0.9421762,8.240653,36.8059,22.14656,1006.742
24.132568359,-83.52265,62.20289,67.64123,-0.1474683,-0.523366,-0.9133116,8.669439,33.55196,25.22765,1006.736
24.165126324,-66.35649,74.93181,68.31442,-0.1007313,-0.2785518,-0.7501073,9.108977,29.19663,26.59601,1006.736
24.197683334,-97.61244,70.94659,76.33154,-0.2471864,-0.07162596,-0.5046372,9.108977,29.19663,26.59601,1006.736
24.232745171,-176.9213,69.40008,77.55553,-0.2662274,-0.2731641,-0.4873918,8.413153,27.01327,27.44247,1006.736
24.265302658,-98.84299,47.86798,69.04881,-0.5649089,-0.4525846,-1.001737,8.088924,24.84067,29.68969,1006.735
24.297859669,-155.6944,-15.06285,26.82123,-1.041849,0.7781244,-0.5803308,8.088924,24.84067,29.68969,1006.736
24.365478993,-71.03258,-16.66883,-28.38063,-0.5122144,0.7264371,-2.325654,5.98808,18.64222,30.12356,1006.736
24.398036480,-42.97606,-24.34188,0.07708991,-0.373107,0.8706398,-2.11042,5.98808,18.64222,30.12356,1006.736
24.433098316,23.59666,4.090013,64.64246,-0.07036697,0.2899997,-0.9628492,5.368154,10.98694,28.46021,1006.736
24.465655327,-70.1712,54.82726,32.94117,-0.1451068,-0.1098621,-0.5671914,5.739518,10.99734,29.79723,1006.736
24.498213291,40.33212,44.77498,12.19457,-0.1156933,-0.07416973,-0.3177362,5.739518,10.99734,29.79723,1006.736
24.530770302,104.1361,15.92672,8.277809,-0.1011964,0.206867,-0.6208902,6.867946,9.559996,31.52467,1006.736
24.565832138,100.5675,-15.5387,17.88611,-0.09175329,0.1942171,-0.8033254,6.138267,9.559868,32.41919,1006.738
24.598389149,98.16793,-29.93308,19.6609,-0.03077452,0.1344058,-1.047435,5.732815,11.73234,31.0665,1006.738
24.630947113,74.29527,-24.52032,14.45895,-0.02776541,-0.01394031,-1.120758,5.732815,11.73234,31.0665,1006.734
24.666007996,53.86816,-7.151885,7.421017,-0.05149771,-0.006399753,-1.030712,6.045914,14.63292,28.87779,1006.736
24.698565960,45.99265,-14.94389,7.482217,-0.04999382,0.01589442,-0.9066287,7.474446,16.82121,27.96522,1006.736
24.731122971,1.077606,-6.616557,13.60216,-0.1015535,0.06167279,-0.8614098,7.474446,16.82121,27.96522,1006.737
24.766184807,9.19923,-14.52752,9.256999,-0.07126463,-0.2098302,-0.9206861,7.451112,17.90268,26.23683,1006.737
24.798741818,32.08744,-19.5834,11.94977,-0.1141481,-0.1153739,-1.079685,7.80622,18.63295,26.23042,1006.739
24.831299782,37.93255,-21.60575,11.82737,-0.1712146,-0.02426294,-1.079206,7.80622,18.63295,26.23042,1006.739
24.866361618,9.814505,-11.01815,11.27658,-0.09411845,-0.122842,-1.089969,8.13776,20.44431,24.43188,1006.739
24.898918629,4.338562,-4.415762,7.359818,-0.1184876,-0.1611129,-1.080378,8.865021,20.81342,24.4269,1006.741
24.931476116,7.230352,-0.8469052,0.9338814,-0.1551263,-0.1613738,-1.127718,8.865021,20.81342,24.4269,1006.741
24.966537952,1.631353,11.58461,1.484676,-0.1186877,-0.1882774,-1.092394,9.2171,21.53889,23.59206,1006.741
24.999094963,-18.54965,12.2389,-0.5961035,-0.1241297,-0.1943184,-0.9561683,9.220129,21.54369,24.42048,1006.741
25.031652927,-40.02274,8.134717,-3.656073,-0.07047544,-0.1529378,-0.9246526,9.220129,21.54369,24.42048,1006.741
25.064209938,-70.35577,9.026931,-2.432085,-0.1610067,-0.002694427,-0.9841455,9.225809,21.17987,24.4231,1006.741
25.099271774,-127.0841,0.8185611,-2.92168,-0.1705722,0.02248956,-0.9919693,9.240435,20.45742,25.32046,1006.743
25.131828785,-154.7714,3.852089,-6.226448,-0.02891003,-0.1475973,-1.229622,9.240435,20.45742,25.32046,1006.743
25.164386749,-175.014,24.7299,-19.62912,0.02590642,0.05678505,-1.341601,8.906242,19.01466,27.9448,1006.743
25.199447632,-339.723,64.87952,-34.62297,-0.02995931,0.2823461,-1.405295,7.890239,14.29231,30.59502,1006.743
25.232005596,-191.9955,61.25119,-29.23742,-0.02315882,0.1304917,-1.338495,7.890239,14.29231,30.59502,1006.737
25.264562607,-200.3633,67.55617,-27.15664,-0.05075205,0.1436256,-1.207273,7.622824,8.481606,32.86834,1006.735
25.299624443,153.2965,52.32906,-2.126088,-0.239747,1.168912,-0.3199202,4.816046,0.4565949,32.9353,1006.735
25.332181454,139.9451,30.44007,13.17376,-0.03359767,-0.09243327,0.5079969,4.816046,0.4565949,32.9353,1006.733
25.364739418,262.7539,64.93901,19.84449,-0.2003361,0.3670628,-0.967832,3.758822,-2.466997,32.06761,1006.733
25.399801254,903.8084,40.78975,26.76003,-0.2112435,-1.138216,-2.041648,1.305465,-13.45834,32.60097,1006.732
25.432358265,139.6375,35.31751,-34.25577,-0.0773919,1.623304,-0.2749577,1.305465,-13.45834,32.60097,1006.732
25.464915753,-0.3375252,15.80776,-48.27044,-0.04785538,0.004156909,-0.8845744,-1.393255,-4.305834,35.15629,1006.733
25.497472763,-36.39262,-9.828526,-43.74168,0.0560663,0.6673657,-0.4380673,-2.678516,7.694562,35.51976,1006.729
25.532534599,-234.2034,-34.21571,-36.64255,-0.1386251,1.404982,-1.0642,-2.678516,7.694562,35.51976,1006.731
25.565092087,-270.32,-52.00051,-28.31943,0.07541981,0.6083397,-0.9721512,-2.664125,6.971738,36.3534,1006.731
25.597649574,-113.4865,-29.27879,-12.40759,0.01332531,0.6849328,-1.105785,-2.5505,-0.3044767,36.40562,1006.731
25.632711411,-44.08355,-9.41216,-2.799282,-0.02412286,0.6221646,-0.984412,-2.5505,-0.3044767,36.40562,1006.731
25.665268421,11.72186,-10.5423,-3.350076,0.01377635,0.5031782,-0.7895295,-0.6082351,-7.635473,35.17785,1006.727
25.697826386,94.66087,-15.77662,-4.635264,-0.006837932,0.4367338,-0.7726383,-0.9503498,-9.090779,35.63555,1006.728
25.732887268,98.35251,-16.31195,-4.268067,0.001282585,0.3392644,-0.9036782,-0.9503498,-9.090779,35.63555,1006.728
25.765445233,71.52654,-11.7914,-2.860481,0.01004,0.3569347,-1.022811,-0.6052063,-7.630676,36.00626,1006.73
25.798002243,71.34196,-7.092404,-1.636493,-0.01913952,0.3246754,-0.9599528,0.4494398,-4.649032,36.42744,1006.732
25.833064079,73.37236,-10.06645,-1.452895,-0.0520198,0.2782168,-0.8847396,0.4494398,-4.649032,36.42744,1006.734
25.865621090,57.68287,-15.59818,-2.98288,0.01505898,0.2621893,-1.014594,0.7875042,-2.827331,36.4132,1006.729
25.898179054,60.39008,-7.270847,9.807794,0.0858266,0.2485481,-1.018254,0.3812649,-0.2833023,36.39611,1006.729
25.930736065,91.46143,-4.356281,15.49934,0.016125,0.1770101,-0.9839916,0.3812649,-0.2833023,36.39611,1006.731
25.965797901,73.68,-5.843304,9.685395,-0.08897196,0.03677477,-1.013582,1.818741,1.546339,36.3783,1006.728
25.998354912,43.22392,-2.512372,10.54219,-0.083152,0.08297253,-1.002732,1.050081,3.721325,35.91894,1006.73
26.030912399,0.5238591,-2.036524,-0.9632999,-0.1529156,-0.001293803,-1.054705,1.050081,3.721325,35.91894,1006.73
26.065974236,-21.19533,-1.441715,-5.736853,-0.04008578,0.07980908,-0.9322488,1.382464,5.906837,35.90208,1006.73
26.098531723,-39.89968,-1.858081,-4.574064,-0.02098695,0.09597479,-1.011778,1.381066,5.904624,35.51974,1006.732
26.131089211,-30.17834,3.614165,-1.024499,-0.06655504,0.1192048,-1.013796,1.381066,5.904624,35.51974,1006.734
26.166151047,1.385244,11.70357,1.974271,-0.08001924,0.1419656,-1.034221,1.7589,5.179649,35.52377,1006.731
26.198708057,25.19637,11.64409,1.362277,-0.03509699,0.1370927,-1.009687,1.04035,4.45153,36.35979,1006.731
26.231265068,40.76281,8.789007,0.5054857,-0.01994421,0.1338552,-1.0025,1.04035,4.45153,36.35979,1006.731
26.266326904,49.99193,7.599388,0.4442863,-0.01953439,0.0661009,-0.9580967,0.6651688,4.807898,35.52995,1006.733
26.298885346,35.90215,6.826136,-0.5349041,0.0271515,0.0269255,-0.9732408,0.6424441,6.263141,35.5195,1006.733
26.331441879,29.38024,4.446898,-1.452895,0.02309524,-0.002264223,-0.978516,0.6424441,6.263141,35.5195,1006.735
26.366503716,7.476462,1.234928,-0.8409011,0.008298701,-0.02678729,-0.9721085,0.2759733,6.260495,35.52069,1006.73
26.399060726,-15.35022,-0.3710577,0.1994887,-0.002567953,0.01420121,-1.038662,0.2402549,8.440775,35.05896,1006.73
26.431618214,-20.76464,1.770256,0.8114826,-0.002052441,0.05595374,-1.027391,0.2402549,8.440775,35.05896,1006.73
26.464175701,-15.47328,1.234928,0.7502832,-0.005893604,0.0591329,-0.9896358,0.2418857,8.443357,35.50503,1006.73
26.499237538,-5.567359,-1.620157,0.6278844,-0.01208846,0.05357129,-0.9602286,0.2475672,8.079548,35.50764,1006.732
26.531794548,-3.352371,-3.404586,0.01589051,-0.01126722,0.05861889,-0.9988226,0.2475672,8.079548,35.50764,1006.728
26.564352036,-0.1529429,-2.690814,-0.04530888,-0.009899033,0.05880716,-1.036041,0.619719,7.718383,35.50906,1006.73
26.599413872,-2.860151,0.3427135,0.1382893,-0.01741742,0.05012205,-0.9651098,0.2646108,6.988116,35.51547,1006.73
26.631970883,-6.613326,3.25728,0.3830869,-0.02433901,0.05212623,-0.9979422,0.6381607,6.629165,35.89924,1006.73
26.664528847,-9.935809,5.933921,0.2606881,0.003690004,0.03391594,-0.9745616,0.6381607,6.629165,35.89924,1006.73
26.699589729,-65.9258,10.9898,2.708664,-0.006612793,0.04153296,-0.9691183,0.2646108,6.988116,35.51547,1006.727
26.732147694,-138.5897,21.10156,5.09544,0.015837,0.08067776,-0.9627423,0.2773714,6.262708,35.90304,1006.727
26.764704704,-373.8092,38.23207,1.05628,-0.007323338,0.2124577,-1.04385,0.2773714,6.262708,35.90304,1006.727
26.799766541,-667.7259,44.95342,-11.1836,0.1201067,0.6709024,-0.9219353,-0.4158013,3.710739,35.92369,1006.727
26.832323551,-98.10466,35.85284,-15.34516,0.2433435,-0.1157166,-1.47302,-1.697737,-9.118951,31.687,1006.729
26.864881516,85.06258,18.06803,-14.30477,0.06841027,0.8624124,-0.4365537,-1.697737,-9.118951,31.687,1006.729
26.897438526,162.1565,37.2209,-18.77233,-0.1169215,1.622584,0.08808548,-1.891351,-20.4049,30.877,1006.73
26.932500363,11.53727,3.435722,-21.3427,0.02525983,0.7949745,-0.4791113,-2.316443,-16.02669,33.45956,1006.726
26.965057373,-15.10412,-18.15586,-19.32312,0.01043771,0.8136678,-0.676513,-2.316443,-16.02669,33.45956,1006.726
26.997614861,70.91126,-9.293199,-4.818862,0.0310641,0.7052313,-0.924226,-1.976748,-14.2024,33.89138,1006.728
27.032676697,158.834,-3.880433,8.645005,0.007299148,0.5936193,-0.817146,-1.599704,-14.55582,35.23102,1006.728
27.065234184,171.8163,-5.426938,10.97058,0.03476168,0.4216161,-0.9614261,-1.599704,-14.55582,35.23102,1006.73
27.097791672,142.7138,-4.237319,5.15664,0.05678393,0.3285924,-0.9623832,-1.279704,-11.27149,36.48082,1006.73
27.132853508,121.6714,-1.14431,2.525066,0.05201192,0.2770403,-0.9684822,-0.9920871,-6.112278,36.88872,1006.73
27.165410519,91.95366,0.2832326,1.790673,0.06078609,0.2343883,-0.9691414,-0.9920871,-6.112278,36.88872,1006.73
27.197967529,62.11284,1.353889,1.913072,0.02647018,0.2073091,-0.99079,-1.058631,-1.743967,37.30346,1006.73
27.233029366,41.07045,1.41337,1.974271,0.0399346,0.1802675,-0.9907321,-1.472182,1.16129,36.83768,1006.732
27.265586376,30.24162,1.770256,1.668274,0.05205207,0.1449133,-0.9835492,-1.472182,1.16129,36.83768,1006.727
27.298144341,24.1504,1.710775,1.05628,0.06118479,0.1120144,-0.9903439,-1.487595,2.255305,37.27592,1006.727
27.330701351,18.9821,0.9375229,0.6278844,0.0594411,0.09592102,-0.983337,-1.519263,4.069192,36.37072,1006.727
27.365763187,12.52171,-0.3710577,-0.1065083,0.05500876,0.09833298,-0.9919967,-1.519263,4.069192,36.37072,1006.729
27.398320198,9.076176,-1.084829,-0.2289071,0.05394828,0.1060882,-0.9904273,-1.156843,4.438232,36.813,1006.729
27.430878162,6.79966,-0.9658671,0.01589051,0.04378973,0.09964906,-0.9929326,-1.895466,4.796751,36.81276,1006.729
27.465939522,4.646199,-0.8469052,0.2606881,0.04437124,0.0928241,-0.9867534,-1.895466,4.796751,36.81276,1006.729
27.498497009,2.984957,-0.7279434,0.1994887,0.04398426,0.08217172,-0.9965831,-1.527364,4.80198,37.25764,1006.731
27.531054497,1.938991,-0.07365303,0.1382893,0.05031746,0.07987086,-1.006775,-1.534676,5.163208,36.80896,1006.731
27.566116333,1.200661,0.6995991,0.01589051,0.05172628,0.08569226,-1.000404,-1.534676,5.163208,36.80896,1006.732
27.598673344,0.8314964,0.4021945,0.01589051,0.05418589,0.08520292,-0.9926797,-1.906828,5.524372,36.80754,1006.732
27.631230354,0.3392768,-0.4900196,-0.04530888,0.05411659,0.09198807,-0.988709,-1.528995,4.799397,36.81157,1006.732
27.666292191,-0.02988797,-0.7279434,-0.1065083,0.04485946,0.09140129,-0.9930595,-1.528995,4.799397,36.81157,1006.728
27.698850155,0.4008042,-0.4900196,-0.04530888,0.0473555,0.08371124,-1.00478,-0.8057852,5.534895,37.25004,1006.728
27.731407166,1.631353,-0.01417209,-0.04530888,0.04541818,0.08319113,-1.002853,-1.91414,5.8856,36.35886,1006.73
27.766469002,2.861903,0.5806373,-0.04530888,0.04982759,0.08224791,-0.9965876,-1.91414,5.8856,36.35886,1006.73
27.799026013,3.784815,0.6401182,-0.04530888,0.04884236,0.08463398,-0.9897829,-1.168205,5.165854,36.80777,1006.732
27.831583500,4.707726,0.8185611,-0.2289071,0.04832888,0.08610295,-0.993627,-1.181199,5.890893,36.35648,1006.732
27.864140988,5.999803,1.234928,0.01589051,0.05046315,0.06914131,-0.9982382,-1.181199,5.890893,36.35648,1006.732
27.899202824,7.599516,1.41337,0.1994887,0.0582338,0.06928026,-1.006461,-1.175518,5.527082,36.35909,1006.734
27.931759835,8.337846,1.115966,0.6890838,0.06169023,0.06733492,-0.9963431,-1.186881,6.254704,36.35387,1006.729
27.964317322,8.030209,0.04530885,0.3218875,0.05695843,0.05703216,-0.9887617,-1.186881,6.254704,36.35387,1006.729
27.999379158,6.368968,-0.4900196,0.1382893,0.05401586,0.05798347,-0.9926113,-1.544407,5.893412,37.24981,1006.729
28.031936169,4.461617,-0.4900196,0.3830869,0.05254946,0.05702337,-0.9993919,-1.192562,6.618515,36.35126,1006.729
28.064494133,3.16954,-0.3115768,0.3218875,0.04914694,0.05554097,-1.003762,-1.192562,6.618515,36.35126,1006.729
28.099555016,2.308156,0.04530885,0.2606881,0.05169231,0.04776081,-0.9956654,-1.546039,5.890829,36.80374,1006.731
28.132112980,1.754408,-0.3115768,0.07708991,0.04434983,0.05249169,-0.9883354,-1.563083,6.982261,36.79591,1006.731
28.164669991,1.631353,-0.1926149,0.1382893,0.05605752,0.04880076,-0.9980705,-1.563083,6.982261,36.79591,1006.731
28.199731827,1.754408,0.1047898,0.1994887,0.05454842,0.05172355,-1.003825,-1.925503,6.613222,36.35363,1006.731
28.232288837,1.262189,0.1047898,0.1382893,0.05216919,0.04873678,-0.9951676,-1.559032,6.615868,36.35244,1006.731
28.264846325,0.7084415,-0.133134,-0.04530888,0.0526396,0.05067578,-0.9927215,-1.559032,6.615868,36.35244,1006.729
28.297403812,1.323716,-0.07365303,0.07708991,0.0554824,0.05608965,-0.999409,-1.570395,7.343489,36.34722,1006.73
28.332465649,2.92343,-0.1926149,0.2606881,0.05173742,0.04387354,-0.9957247,-1.923872,6.615804,36.79971,1006.73
28.365022659,3.354122,-0.2520958,0.1382893,0.04835422,0.04092902,-0.99915,-1.923872,6.615804,36.79971,1006.73
28.397580147,3.477177,0.1642707,0.07708991,0.04928465,0.04387475,-1.002973,-1.570395,7.343489,36.34722,1006.73
28.432641983,2.800375,0.2832326,0.1382893,0.05322854,0.03955676,-1.004009,-1.563083,6.982261,36.79591,1006.73
28.465198994,1.385244,0.3427135,0.2606881,0.05228803,0.03758065,-0.9996883,-1.563083,6.982261,36.79591,1006.73
28.497756958,0.3392768,0.3427135,0.1994887,0.05132737,0.03754377,-0.9943707,-1.932815,6.974449,35.90495,1006.73
28.532817841,-0.1529429,0.04530885,0.07708991,0.04891121,0.03510006,-0.9982727,-1.559032,6.615868,36.35244,1006.732
28.565375805,-0.4605802,-0.133134,0.07708991,0.05665158,0.03957484,-0.9982119,-1.568764,7.346072,36.79329,1006.732
28.597932816,-0.1529429,-0.01417209,0.3218875,0.05469982,0.03908112,-1.002085,-1.568764,7.346072,36.79329,1006.734
28.632994652,-0.02988797,-0.07365303,0.07708991,0.05369729,0.04245,-0.9976818,-1.570395,7.343489,36.34722,1006.736
28.665551663,1.385244,-0.133134,0.07708991,0.05757397,0.04301089,-1.002994,-1.936865,7.340843,36.34841,1006.736
28.698109150,2.062046,-0.133134,0.1382893,0.05228841,0.03805557,-0.9972641,-1.936865,7.340843,36.34841,1006.736
28.730666638,1.754408,0.04530885,0.01589051,0.05321118,0.04196653,-0.9996222,-1.203924,7.346136,36.34604,1006.737
28.765728474,1.262189,-0.07365303,-0.04530888,0.05429617,0.03321528,-0.9958898,-1.576076,7.7073,36.34461,1006.737
28.798285484,1.262189,-0.133134,0.01589051,0.05671638,0.03470036,-0.9949026,-1.576076,7.7073,36.34461,1006.739
28.830842972,1.385244,-0.1926149,0.1382893,0.05180432,0.03709279,-1.000662,-1.563083,6.982261,36.79591,1006.739
28.865904808,1.139134,0.04530885,0.07708991,0.04557184,0.02969743,-0.9954517,-1.929553,6.979615,36.79709,1006.739
28.898461819,0.8314964,0.1642707,0.01589051,0.0489185,0.03365992,-1.002162,-1.929553,6.979615,36.79709,1006.741
28.931019783,0.1546944,0.5806373,0.1994887,0.05371668,0.03956092,-1.003526,-1.929553,6.979615,36.79709,1006.741
28.966080666,0.09316694,0.6401182,0.01589051,0.05230614,0.03612072,-0.9992272,-1.563083,6.982261,36.79591,1006.743
28.998638630,-0.70669,0.4616754,-0.04530888,0.05869799,0.03181031,-0.9949486,-1.563083,6.982261,36.79591,1006.741
29.031195641,-0.8912724,0.3427135,-0.2289071,0.04742859,0.03797449,-0.9933937,-1.563083,6.982261,36.79591,1006.741
29.066257477,-1.568074,0.1047898,-0.1677077,0.06198143,0.04112,-1.002061,-1.942546,7.704653,36.3458,1006.744
29.098814487,0.4008042,-0.6684624,-0.04530888,0.06932259,0.03924524,-0.9962956,-1.942546,7.704653,36.3458,1006.746
29.131371975,2.062046,-1.14431,0.3830869,0.06692289,0.03629583,-0.995855,-1.557401,6.618451,36.79852,1006.74
29.166433811,3.046485,-0.1926149,0.566685,0.04806851,0.02581114,-0.988746,-2.299285,6.971802,35.90614,1006.742
29.198991299,3.969397,0.2237517,0.3830869,0.03776351,0.02915168,-1.004637,-2.299285,6.971802,35.90614,1006.742
29.231548786,3.16954,-0.01417209,0.1382893,0.04698327,0.03123354,-1.008481,-1.207974,7.712529,36.78949,1006.742
29.264105797,0.09316694,0.5211564,-0.04530888,0.04845102,0.02933752,-1.014795,-1.946597,8.071047,36.78926,1006.742
29.299167633,-3.229316,0.9970039,-0.4125053,0.05588825,0.02253114,-0.993154,-1.946597,8.071047,36.78926,1006.737
29.331724644,-3.783063,0.6401182,-0.2289071,0.05781214,0.0273563,-0.9800311,-1.563083,6.982261,36.79591,1006.739
29.364281654,-2.860151,0.1047898,-0.04530888,0.0698175,0.04018824,-0.9885477,-1.933603,7.346009,37.24055,1006.739
29.399343491,0.03163948,-0.5495005,0.2606881,0.07323316,0.0354637,-1.008442,-1.933603,7.346009,37.24055,1006.739
29.431901455,2.738848,-0.6684624,0.4442863,0.05819464,0.03088269,-1.00608,-1.570395,7.343489,36.34722,1006.739
29.464458466,3.538705,-1.084829,0.4442863,0.05340324,0.02592054,-0.9974504,-1.570395,7.343489,36.34722,1006.739
29.499520302,2.492738,-1.620157,0.3218875,0.05286954,0.0307557,-0.9935091,-1.570395,7.343489,36.34722,1006.739
29.532077313,0.5238591,-1.14431,-0.04530888,0.05082846,0.03613244,-1.005993,-1.200662,7.351302,37.23818,1006.735
29.564634800,0.4623317,-0.4305387,0.1994887,0.04354046,0.03362963,-1.010858,-1.576076,7.7073,36.34461,1006.735
29.599696636,0.8314964,0.1047898,0.1382893,0.04320003,0.0224166,-1.004261,-1.576076,7.7073,36.34461,1006.737
29.632253647,1.262189,0.1642707,-0.1065083,0.04947272,0.02736044,-1.004675,-1.572025,7.340906,35.90115,1006.735
29.664811611,0.8930239,0.3427135,-0.04530888,0.05288133,0.02740488,-1.004678,-1.936865,7.340843,36.34841,1006.735
29.697368622,0.09316694,0.6995991,0.01589051,0.06073439,0.02358844,-0.9979764,-1.936865,7.340843,36.34841,1006.735
29.732430458,0.2777493,0.04530885,0.1994887,0.0607347,0.02549032,-0.9887632,-1.576076,7.7073,36.34461,1006.735
29.764987469,0.4008042,-0.4305387,0.07708991,0.05976404,0.02499611,-0.9897366,-1.563083,6.982261,36.79591,1006.735
29.797544480,1.077606,-0.01417209,-0.4125053,0.07466952,0.0003876528,-0.9862593,-1.563083,6.982261,36.79591,1006.731
29.832606316,1.508299,-0.2520958,0.01589051,0.0641696,0.02073062,-1.000924,-1.568764,7.346072,36.79329,1006.732
29.865163803,4.584671,0.04530885,0.2606881,0.05777696,0.01648147,-1.04642,-1.203924,7.346136,36.34604,1006.734
29.897721291,3.231067,0.6401182,0.9338814,0.05054376,0.02529324,-0.9747384,-1.203924,7.346136,36.34604,1006.734
29.932783127,3.16954,-0.3115768,0.2606881,0.05241244,0.02736557,-0.9974274,-1.570395,7.343489,36.34722,1006.734
29.965340138,1.631353,0.4616754,0.3830869,0.06067933,0.03462809,-0.9678385,-1.940915,7.707236,36.79187,1006.736
29.997897625,1.754408,0.4021945,0.3218875,0.06134543,0.01147783,-1.004929,-1.940915,7.707236,36.79187,1006.736
30.032959461,4.707726,-0.6684624,0.4442863,0.05708373,0.001212192,-1.004115,-1.581757,8.071112,36.342,1006.736
30.065516472,1.877463,-0.3115768,0.1994887,0.05264352,0.008870253,-0.9909424,-1.576076,7.7073,36.34461,1006.738
30.098073483,0.6469141,-0.9658671,-0.04530888,0.04465554,0.02482344,-0.9950417,-1.576076,7.7073,36.34461,1006.738
30.133135319,-1.19891,-0.3115768,0.1382893,0.04559377,0.02395003,-1.013908,-2.314698,8.065819,36.34438,1006.734
30.165693283,0.09316694,0.6995991,0.1994887,0.04912469,0.01568567,-1.003403,-1.949859,8.065882,35.89712,1006.734
30.198250294,2.67732,0.2832326,0.1994887,0.05709652,0.002140057,-0.994433,-1.949859,8.065882,35.89712,1006.734
30.230807304,4.646199,0.4616754,0.01589051,0.0585602,0.001202672,-0.9978325,-1.585807,8.437504,36.78546,1006.734
30.265869141,3.231067,0.6995991,-0.1677077,0.05018308,0.009836694,-0.9967258,-1.948228,8.068464,36.34319,1006.734
30.298426628,0.1546944,0.4616754,-0.04530888,0.05392679,0.02348196,-0.9941044,-1.948228,8.068464,36.34319,1006.734
30.330983639,-1.075855,0.1642707,0.2606881,0.0568973,0.01677227,-1.006294,-1.219337,8.440151,36.78427,1006.727
30.366045475,0.2162218,0.2832326,0.2606881,0.06050482,0.0002826252,-1.003649,-1.95554,8.429691,35.8945,1006.727
30.398602963,1.754408,0.2237517,0.1382893,0.05867289,-0.007088551,-0.9911917,-1.95554,8.429691,35.8945,1006.727
30.431160450,1.877463,-0.1926149,-0.2289071,0.05711907,0.0001964211,-0.9944627,-1.585807,8.437504,36.78546,1006.727
30.466222286,0.9545513,0.5211564,-0.1065083,0.05498494,0.01430414,-1.00343,-1.583388,8.068527,35.89593,1006.727
30.498779297,3.477177,1.41337,0.2606881,0.0544477,0.01771894,-1.007727,-1.95554,8.429691,35.8945,1006.727
30.531336308,9.383813,4.030531,0.9338814,0.06323238,-0.02685478,-1.01325,-1.95554,8.429691,35.8945,1006.729
30.566398144,36.702,8.789007,7.971812,0.0355541,0.01396444,-0.9845643,-1.589069,8.432339,35.89332,1006.729
30.598955155,96.32211,14.14229,12.50057,0.03237432,0.02723929,-1.026896,-1.59312,8.798733,36.33678,1006.729
30.631512642,133.6078,13.90437,7.053821,0.07333885,-0.07353352,-1.085995,-1.59312,8.798733,36.33678,1006.725
30.664070130,161.9104,17.59219,8.339008,0.07969189,-0.2107779,-1.133049,-2.731279,10.96628,35.05019,1006.727
30.699131966,176.8616,16.9379,7.604616,0.1000359,-0.2952826,-0.9825773,-2.446819,15.68555,32.78469,1006.728
30.731689453,173.5391,13.54748,3.014661,0.0788727,-0.3848697,-0.9017496,-2.446819,15.68555,32.78469,1006.728
30.764246464,149.851,7.004579,-2.432085,0.07248083,-0.4859787,-0.8099942,-2.525946,20.03393,29.7583,1006.728
30.799308300,99.27542,-4.772647,-10.57161,0.03652301,-0.5706598,-0.7812821,-2.605304,24.38195,26.66819,1006.728
30.831865311,42.54711,-12.80257,-16.75274,0.04737563,-0.532782,-0.7434946,-2.605304,24.38195,26.66819,1006.728
30.864422322,28.21122,-16.01455,-17.73194,0.04055312,-0.5215021,-0.8912293,-3.38617,26.91042,24.42193,1006.728
30.899484158,71.6496,-5.902785,-2.92168,-0.004374363,-0.4116203,-0.8160362,-2.673301,28.00234,23.58331,1006.727
30.932041645,90.16936,-3.70199,-5.369657,0.03972875,-0.5635862,-0.8309651,-2.673301,28.00234,23.58331,1006.727
30.964599133,122.2867,-1.382234,-4.512865,0.01247086,-0.6375708,-0.7784127,-3.057658,28.71699,21.79498,1006.727
30.999660969,139.5144,6.885617,1.05628,0.06806429,-0.7153612,-0.7201978,-2.734828,30.88737,19.16542,1006.727
31.032217979,230.3904,-32.13388,-6.165249,0.0352917,-1.368652,-0.9012484,-2.734828,30.88737,19.16542,1006.725
31.064775467,40.63976,-9.888008,-4.574064,0.1906112,-0.7623402,-0.6195236,-3.525013,33.40108,14.37018,1006.725
31.097332478,11.5988,-23.39018,9.073401,-0.1448349,-0.6590247,-0.6804627,-3.199764,35.20249,10.85108,1006.723
31.132394314,-100.8734,6.409769,3.871453,0.1531887,-0.6845962,-0.6158845,-3.199764,35.20249,10.85108,1006.723
31.164951325,-76.57005,8.194198,1.668274,0.1851383,-0.7588682,-0.6504015,-3.571916,35.56365,10.84966,1006.723
31.197509289,-94.22843,11.34669,11.21538,0.1893274,-0.7322991,-0.6031126,-2.829422,35.58407,13.45999,1006.719
31.232570171,-38.48455,11.70357,14.58135,0.160538,-0.7848265,-0.6768761,-2.829422,35.58407,13.45999,1006.719
31.265128136,-26.24058,13.96385,15.25454,0.08134761,-0.7999859,-0.6697804,-2.801803,34.13657,14.80865,1006.719
31.297685146,12.58324,7.599388,15.98893,0.09811313,-0.7745249,-0.6631241,-2.79286,33.77793,15.7034,1006.719
31.332746983,20.64334,9.681221,21.00728,0.08928858,-0.6305864,-0.5990474,-2.79286,33.77793,15.7034,1006.719
31.365304470,93.36879,4.030531,19.5997,0.09140223,-0.9415258,-0.6173278,-2.797753,33.77018,14.36519,1006.721
31.397861481,120.81,15.9862,18.55931,0.1023555,-0.8335523,-0.6031233,-2.080046,34.12416,11.74749,1006.717
31.432923317,46.60792,13.66644,21.06848,0.08870286,-0.8398243,-0.4398245,-2.080046,34.12416,11.74749,1006.718
31.465480328,52.76067,10.87084,14.76495,0.07906067,-0.9014264,-0.4939265,-1.375332,35.20317,8.678501,1006.718
31.498038292,31.28759,13.07163,16.23373,0.04173448,-0.7891939,-0.4858943,-1.022465,35.55709,6.508066,1006.718
31.533099175,0.5853866,9.264854,7.482217,0.02798663,-0.7473662,-0.531647,-1.022465,35.55709,6.508066,1006.72
31.565657139,-58.17334,19.25765,16.23373,0.04382621,-0.6997073,-0.5990914,-0.6625187,35.5494,4.722589,1006.72
31.598214150,-110.6563,29.78578,30.37079,-0.02945432,-0.4071037,-0.4940142,-0.3130915,36.64347,4.713568,1006.72
31.630771637,-122.408,15.92672,36.79673,-0.1418036,-0.5142916,-0.5438787,-0.3130915,36.64347,4.713568,1006.72
31.665832997,-201.4092,-0.8469052,38.51031,-0.1627261,-0.5065086,-0.4987858,1.172308,35.93936,6.944395,1006.72
31.698390484,-116.5014,-3.642509,49.5874,-0.1645181,-0.9296138,-0.6570193,1.932456,35.24212,11.28051,1006.722
31.730947495,-7.843875,-47.06359,66.23364,-0.1322212,-0.2620264,-0.2031257,1.932456,35.24212,11.28051,1006.718
31.766009331,-122.6541,-54.37975,61.21529,-0.1361988,-0.6058821,-0.4800256,3.484383,34.17426,13.45002,1006.719
31.798566342,-42.79147,-77.99369,60.97049,-0.1493634,-0.5475774,-0.4075836,6.055358,33.82898,13.44431,1006.721
31.831124306,-66.35649,-97.80084,79.33031,-0.26853,-0.08531672,-0.3351603,6.055358,33.82898,13.44431,1006.721
31.866185188,-186.6427,-89.47351,63.11247,-0.2623537,-0.7120393,-0.7942682,8.272857,32.75601,13.89109,1006.723
31.898743153,-22.73352,-92.38808,51.11739,-0.17545,-0.9688292,-0.9336153,11.56867,33.14881,14.76992,1006.722
31.931300163,38.24019,-98.63358,66.90684,-0.2078151,-0.4253443,-0.6270489,11.56867,33.14881,14.76992,1006.725
31.966362000,-90.16762,-76.32822,57.66572,-0.3287646,-0.5648134,-0.7629554,15.58342,34.64313,16.46696,1006.723
31.998919487,-19.41104,-88.28389,53.50416,-0.6318946,-0.7344917,-0.6579418,21.43135,36.52483,19.93974,1006.723
32.031476498,-50.72851,-126.3517,65.19325,-0.9897178,-0.5354909,-0.4510588,21.43135,36.52483,19.93974,1006.728
32.064033508,-82.04599,-157.9361,60.54209,-1.193128,-0.6615158,-0.7858317,25.54026,32.20334,22.5707,1006.731
32.099095345,-68.20232,-174.1149,45.73184,-1.084934,-0.5344037,-0.7472603,29.29665,26.03728,21.26499,1006.733
32.131652355,58.17509,-167.2151,28.902,-1.055015,-0.713128,-1.114965,29.29665,26.03728,21.26499,1006.737
32.164210320,128.624,-147.289,32.26797,-0.9741928,-0.1221221,-1.099259,31.94511,19.47695,16.07825,1006.737
32.199271679,97.49113,-93.93458,38.02071,-0.90482,0.2421846,-1.069116,33.45111,15.4502,9.984663,1006.738
32.231829166,-28.70168,-51.70311,35.69514,-0.7785452,0.03841265,-0.7871546,33.45111,15.4502,9.984663,1006.74
32.264386654,-51.22073,-16.31195,33.24716,-0.6984726,-0.3214266,-0.6245065,33.83825,12.87591,4.776339,1006.742
32.299448013,-42.11467,-0.3710577,36.06234,-0.8390208,-0.3259659,-0.5640181,33.48658,11.40547,2.621337,1006.744
32.332005501,-43.96049,-25.11513,44.69145,-1.038751,-0.2904247,-0.6154877,33.48658,11.40547,2.621337,1006.745
32.364562512,-44.39119,-14.40856,49.465,-0.9618599,-0.1786301,-0.5050966,33.87251,9.94771,1.738449,1006.745
32.399624348,-39.46899,-10.42334,51.72938,-0.9517384,-0.05713616,-0.3679073,34.60811,9.584398,0.910264,1006.745
32.432181358,-41.25328,-12.68361,48.24101,-0.8684477,-0.1715002,-0.3102771,34.98999,8.493029,0.4708357,1006.747
32.464738846,-31.40889,-10.24489,37.65352,-0.9259816,-0.2970329,-0.3372724,34.98999,8.493029,0.4708357,1006.743
32.499800205,-7.105546,-8.519946,19.4161,-0.9252362,-0.2828101,-0.3631585,35.74566,7.043079,0.4789028,1006.745
32.532358170,8.645483,-5.605381,-0.8409011,-0.8895636,-0.2578998,-0.3947157,35.38565,6.305063,-0.8529024,1006.745
32.564915180,4.215507,-1.858081,-17.91553,-0.8520241,-0.1757983,-0.3862487,35.38565,6.305063,-0.8529024,1006.748
32.597472668,10.42978,6.885617,-26.36105,-0.82577,-0.1345339,-0.4073965,35.39133,5.941251,-0.8502913,1006.75
32.632534504,18.48988,7.599388,-25.50426,-0.9252542,0.005055157,-0.3945366,35.38565,6.305063,-0.8529024,1006.751
32.665091515,14.85976,8.491602,-23.54588,-0.9744563,-0.0003046097,-0.4255069,35.38565,6.305063,-0.8529024,1006.751
32.697648525,5.076891,9.681221,-20.9755,-0.9701622,-0.02809129,-0.3949989,34.64866,6.666162,-0.4070635,1006.751
32.732710362,-4.890557,10.39499,-20.48591,-0.9245797,-0.0860118,-0.352906,35.0054,7.399014,0.03259754,1006.753
32.765267372,6.492023,10.33551,-19.69032,-0.8282026,-0.1260082,-0.3656937,35.0054,7.399014,0.03259754,1006.755
32.797824860,13.50615,7.777831,-19.07832,-0.8243437,-0.1220855,-0.3622539,34.27409,7.396303,0.4810467,1006.757
32.832886696,23.4736,7.539907,-17.42594,-0.8939596,-0.1211224,-0.3462206,34.26436,8.126507,0.9218969,1006.757
32.865443707,22.55069,4.803784,-15.89595,-0.9178822,-0.1526546,-0.3210596,34.26436,8.126507,0.9218969,1006.757
32.898001671,8.830066,3.078837,-14.79436,-0.9353396,-0.1962409,-0.2985056,33.88653,8.851482,0.9178638,1006.758
32.933063507,13.69073,0.2237517,-12.59119,-1.026424,-0.2135515,-0.386173,33.15359,8.846189,0.9202414,1006.76
32.965620518,6.922715,-3.999395,-6.838442,-0.9774151,-0.07863952,-0.4150981,33.15359,8.846189,0.9202414,1006.762
32.998177528,4.892309,-1.382234,-2.92168,-0.8698643,-0.03199197,-0.4251246,33.51274,9.210064,0.4703684,1006.764
33.030734539,-5.198195,1.472851,1.423477,-0.8825668,-0.114726,-0.4370088,33.52006,8.848837,0.9190521,1006.761
33.065796375,-5.998052,5.993402,3.075861,-0.9214415,-0.1543262,-0.3906879,33.52006,8.848837,0.9190521,1006.761
33.098353863,-15.35022,2.484027,1.301078,-0.9140919,-0.1486067,-0.3451703,33.51274,9.210064,0.4703684,1006.761
33.130910873,-23.10268,8.432121,-3.656073,-0.8386557,-0.3228281,-0.3991391,33.51033,9.579041,1.359901,1006.765
33.165972710,8.830066,10.09759,-12.40759,-0.9503938,-0.2792139,-0.4771562,33.51033,9.579041,1.359901,1006.762
33.198529720,7.661044,10.57343,-19.44552,-0.963216,-0.2087486,-0.4059792,33.51033,9.579041,1.359901,1006.764
33.231087685,12.64477,3.614165,-18.64993,-1.019239,-0.1514645,-0.3388286,34.24061,9.95294,2.183332,1006.764
33.266148567,14.85976,2.959875,-15.34516,-1.009692,-0.08826184,-0.3161216,34.24061,9.95294,2.183332,1006.764
33.298706532,47.59236,-10.12593,-6.716043,-0.9979495,-0.04974265,-0.3097447,33.1412,9.945,2.186899,1006.765
33.331263542,54.60649,-18.3343,-6.960841,-0.8978209,-0.1007846,-0.2347299,33.50767,9.947647,2.18571,1006.761
33.366325379,38.11713,-19.40496,-1.820091,-0.9284492,-0.1753588,-0.1691321,33.50767,9.947647,2.18571,1006.763
33.398882389,16.39794,-21.01094,-3.778472,-0.8542367,-0.1586382,-0.2129359,33.49896,10.30666,1.354679,1006.763
33.431439877,0.6469141,-24.93669,-5.308457,-0.8757014,-0.0723955,-0.2154664,33.12355,10.66266,0.461113,1006.763
33.463996887,-2.121821,-36.65443,-5.124859,-0.8494833,-0.1559848,-0.2481865,33.12355,10.66266,0.461113,1006.765
33.499058724,12.21408,-44.38695,-4.145669,-0.8513245,-0.1523998,-0.1872245,33.48778,10.28895,-1.7041,1006.765
33.531615734,4.953836,-44.32747,-6.654844,-0.7889396,-0.2367129,-0.1711695,32.75399,9.909512,-3.483399,1006.765
33.564172745,23.71971,-42.48356,-5.430856,-0.8514942,-0.3178565,-0.2477539,32.75399,9.909512,-3.483399,1006.765
33.599234581,30.67231,-40.75861,-4.757663,-0.8814472,-0.3391355,-0.2499831,32.00014,10.61671,-6.098951,1006.76
33.631792069,32.57966,-35.1674,-8.858022,-0.9145322,-0.397586,-0.3160988,31.98895,10.599,-9.15773,1006.762
33.664349556,38.73241,-34.45363,-11.61199,-0.9254103,-0.4130634,-0.2573525,31.98895,10.599,-9.15773,1006.764
33.699410916,53.92969,-29.04087,-10.9388,-0.9351654,-0.2796804,-0.2258221,31.24567,10.95014,-10.43246,1006.765
33.731968880,40.20907,-28.6245,-6.593645,-0.928088,-0.2135918,-0.2035521,30.14099,10.56104,-13.42133,1006.765
33.764525891,23.22749,-18.98859,-2.493285,-0.9197361,-0.3033985,-0.2029968,30.14099,10.56104,-13.42133,1006.765
33.799587727,19.72043,-13.15946,-6.287648,-0.9950996,-0.3411554,-0.1324437,29.40013,10.5432,-15.58559,1006.767
33.832144737,-3.229316,-8.698389,-11.61199,-0.917652,-0.4855595,-0.2178623,29.03202,10.53798,-16.03047,1006.767
33.864701748,54.42191,-6.378633,-13.75397,-0.9415644,-0.3807761,-0.1369668,29.03202,10.53798,-16.03047,1006.765
33.899763584,4.830781,-7.984618,-11.2448,-0.950918,-0.354077,-0.05050938,29.02573,10.52801,-17.75104,1006.766
33.932321072,-10.67414,15.6888,-36.33655,-0.888585,-0.780823,-0.2924846,29.02247,10.52285,-18.64318,1006.766
33.964878083,38.91699,31.33228,-69.62902,-1.23733,-0.8702785,-0.5361679,29.02247,10.52285,-18.64318,1006.768
33.997435093,103.0286,24.7299,-70.36341,-0.9357963,-0.473196,-0.2099221,28.2879,10.51497,-19.08687,1006.766
34.032496929,76.57179,33.771,-68.52743,-0.9314621,-0.2593027,-0.2076298,28.26517,11.97021,-19.09732,1006.769
34.065053940,61.92826,26.51433,-45.70006,-0.7747653,-0.1866863,0.08867002,28.26517,11.97021,-19.09732,1006.771
34.097611427,11.96797,29.78578,-19.50672,-0.664781,-0.3556549,0.04731587,28.25139,13.06681,-18.21301,1006.771
34.132673264,19.16668,31.45125,2.953462,-0.6836989,-0.5992718,-0.08592757,28.24734,13.4332,-17.76955,1006.771
34.165230274,-3.229316,21.04208,5.707434,-0.716728,-0.4792164,-0.07584667,28.24734,13.4332,-17.76955,1006.771
34.197788239,5.81522,14.97503,18.8041,-0.7407118,-0.3386871,-0.05337773,29.35141,13.44852,-16.49862,1006.773
34.232849121,-29.8707,42.09834,23.63886,-0.6458419,-0.7306579,-0.3673604,29.7122,13.81498,-16.50242,1006.773
34.265407085,19.41279,53.39971,35.32794,-0.6757612,-0.5757683,-0.3137305,29.7122,13.81498,-16.50242,1006.773
34.297964096,-45.49868,35.19855,19.78329,-0.8519697,-0.2419523,-0.4800664,30.0722,14.553,-15.17062,1006.77
34.333025932,-62.72637,43.7638,32.51277,-0.9234743,-0.4277605,-0.3325019,31.92626,13.48218,-13.89424,1006.77
34.365582943,-94.22843,71.77932,13.23496,-0.9487421,-0.9417142,-0.5655722,31.92626,13.48218,-13.89424,1006.77
34.398139954,67.03503,37.75623,10.11379,-1.161499,-0.7657833,0.1038938,32.65413,14.22506,-12.18127,1006.77
34.430697441,17.50544,24.55146,-3.594874,-1.04443,-0.6819827,0.1799828,33.01553,14.96529,-10.46712,1006.77
34.465759277,104.8129,5.279631,-5.430856,-0.8561385,-0.2199351,0.1128935,34.11821,14.9784,-9.578543,1006.766
34.498316288,31.41064,10.21655,-0.2289071,-0.6494374,-0.06765918,-0.07494991,34.11821,14.9784,-9.578543,1006.766
34.530873299,31.65675,34.48478,6.074631,-0.615047,-0.2397757,-0.1747677,34.11821,14.9784,-9.578543,1006.768
34.565935135,-22.9181,7.12354,0.6278844,-0.761044,-0.06751051,-0.1067428,34.49441,14.25084,-10.02058,1006.77
34.598492146,-87.15277,1.829737,7.665815,-0.7710472,-0.2580731,-0.1255919,34.49441,14.25084,-10.02058,1006.765
34.631049633,-169.3534,-1.263272,-25.25946,-0.8326422,-0.6750472,-0.4132192,34.48771,14.98584,-8.751312,1006.765
34.666111469,-89.12165,-22.37901,-23.72948,-0.9379233,-0.8433721,-0.2527876,34.48365,15.35223,-8.307852,1006.767
34.698668480,43.83919,-8.81735,-8.919222,-0.9895874,-0.6844847,-0.7095217,34.48365,15.35223,-8.307852,1006.768
34.731226444,91.33838,9.264854,0.2606881,-0.7756998,-0.3308813,-0.5839726,34.11071,16.08496,-6.973669,1006.768
34.766287327,-15.16564,14.7371,-10.6328,-0.9049351,-0.1981959,-0.4218259,34.09851,16.43843,-8.760569,1006.77
34.798844338,-37.68469,-2.452891,-6.104049,-0.8662984,-0.5266811,-0.3253655,34.09851,16.43843,-8.760569,1006.77
34.831402302,0.09316694,0.4021945,-10.8776,-0.7861584,-0.6472678,-0.1914537,33.73935,16.07456,-8.310697,1006.772
34.866463661,13.81379,-3.583029,-17.48714,-0.8503976,-0.4796093,-0.3705835,34.46419,16.81264,-7.426152,1006.77
34.899021149,3.723287,-10.12593,-11.97919,-0.7206901,-0.2778192,-0.3400777,34.46419,16.81264,-7.426152,1006.773
34.931578636,-22.42588,-5.367457,-16.14075,-0.7628156,-0.4275077,-0.3548885,34.09772,16.81,-7.424963,1006.773
34.964135647,7.476462,-3.761471,-13.63158,-0.8066418,-0.3663028,-0.2601373,32.98531,17.52709,-7.872692,1006.773
34.999197483,-15.47328,-9.233717,-14.05997,-0.8317384,-0.2939097,-0.2203385,32.98531,17.52709,-7.872692,1006.775
35.031754494,-25.13309,-4.713167,-14.18237,-0.7969417,-0.5247928,-0.4341635,33.70852,18.26259,-7.434219,1006.77
35.064311504,-18.98034,-9.888008,-9.837213,-0.7354193,-0.5271521,-0.380604,33.34369,18.26253,-6.986959,1006.772
35.099373341,-7.597765,-0.9658671,-8.858022,-0.6856989,-0.621191,-0.6116906,33.34369,18.26253,-6.986959,1006.774
35.131930828,14.42906,11.16824,-4.145669,-0.6406887,-0.6200415,-0.5222918,32.59938,18.98485,-6.989803,1006.776
35.164487839,62.29742,19.19817,4.667045,-0.8355016,-0.5383337,-0.1341558,32.94718,20.07635,-7.444898,1006.776
35.199549675,33.93327,3.197799,2.769863,-0.9675845,-0.3251344,-0.1563946,32.94718,20.07635,-7.444898,1006.777
35.232106686,15.47503,3.197799,8.461407,-0.9105026,-0.3203663,-0.2922058,32.57907,20.07112,-7.889781,1006.775
35.264663696,32.51814,10.39499,14.58135,-0.8259193,-0.4976047,-0.4042347,32.96422,18.98492,-7.437064,1006.777
35.299725533,23.96582,4.030531,13.60216,-0.9056901,-0.3643752,-0.3262349,32.96422,18.98492,-7.437064,1006.778
35.332283020,12.33713,1.948699,14.52015,-0.8643589,-0.3518372,-0.2932139,32.59449,18.9771,-8.328019,1006.778
35.364840031,22.36611,-0.8469052,14.88734,-0.9978853,-0.351961,-0.32789,32.97395,18.25471,-7.877914,1006.778
35.397397995,16.33642,-6.140709,21.31328,-1.044864,-0.2504775,-0.3349972,32.97395,18.25471,-7.877914,1006.774
35.432458878,-58.60403,-6.497595,27.55562,-0.8959709,-0.3438163,-0.436624,32.99342,16.79431,-8.759613,1006.774
35.465015888,-30.60903,0.1047898,24.06725,-0.8971716,-0.4540659,-0.4566731,33.72636,16.7996,-8.761991,1006.776
35.497573853,-36.14651,-2.571852,22.04767,-0.8030858,-0.4986365,-0.4323083,33.72636,16.7996,-8.761991,1006.776
35.532635212,-25.68684,-6.616557,17.33532,-0.7400446,-0.4464429,-0.2942939,34.10014,16.44102,-8.314497,1006.776
35.565192700,-29.99376,-2.274448,11.70498,-0.6384286,-0.5550075,-0.2834805,34.4796,15.71863,-7.864391,1006.778
35.597750187,-10.12039,-1.382234,7.849413,-0.6982146,-0.4747674,-0.2517458,34.4796,15.71863,-7.864391,1006.777
35.632811070,-10.55108,4.922746,3.565456,-0.7345473,-0.5007946,-0.2965785,34.83876,16.0825,-8.314262,1006.777
35.665369034,-7.228601,4.922746,2.280268,-0.7382234,-0.4328692,-0.2815208,34.84607,15.72127,-7.86558,1006.777
35.697926045,-1.814184,9.145893,3.381857,-0.8184553,-0.3714551,-0.3360947,34.84607,15.72127,-7.86558,1006.777
35.732987881,-8.766787,8.610564,2.586265,-0.8074068,-0.4142581,-0.4034643,34.48124,15.72121,-7.418319,1006.779
35.765544892,2.800375,4.803784,4.667045,-0.858338,-0.3046351,-0.3949755,34.4796,15.71863,-7.864391,1006.779
35.798101902,5.261473,7.242502,3.13706,-0.9180323,-0.3675551,-0.4098957,34.4796,15.71863,-7.864391,1006.776
35.830659390,-2.983206,9.383817,-0.2901065,-0.8925008,-0.4792673,-0.4589956,34.85502,15.36263,-6.970825,1006.776
35.865721226,-3.475425,2.543508,-2.738082,-0.8272175,-0.432873,-0.4278981,35.58633,15.36534,-7.419274,1006.776
35.898278237,-0.09141543,2.721951,-4.696463,-0.8159059,-0.3697859,-0.4810848,35.58633,15.36534,-7.419274,1006.778
35.930835247,-4.521392,-5.5459,-2.126088,-0.8014951,-0.3815449,-0.4194058,35.21721,15.7313,-6.592278,1006.781
35.965897083,-5.136667,-3.761471,-2.432085,-0.7242083,-0.3622113,-0.3882493,34.84933,15.72644,-6.973435,1006.783
35.998454094,-0.5221076,-3.107181,-8.490826,-0.7823702,-0.5178765,-0.4171538,34.84933,15.72644,-6.973435,1006.785
36.031011581,6.861187,-5.486419,-15.65116,-0.7711783,-0.5576122,-0.4110036,34.84933,15.72644,-6.973435,1006.785
36.066073418,1.200661,-8.75787,-18.16033,-0.7306099,-0.5041496,-0.2956668,35.58796,15.36792,-6.973202,1006.78
36.098630428,27.65747,-9.531122,-21.6487,-0.7575023,-0.534205,-0.2830482,35.58796,15.36792,-6.973202,1006.782
36.131187439,53.499,-0.9063862,-23.05628,-0.8369221,-0.3841301,-0.3802575,34.83634,16.45148,-7.42473,1006.784
