Time (s),Gyroscope X (deg/s),Gyroscope Y (deg/s),Gyroscope Z (deg/s),Accelerometer X (g),Accelerometer Y (g),Accelerometer Z (g),Magnetometer X (uT),Magnetometer Y (uT),Magnetometer Z (uT),Barometer (hPa)
-0.506433487,1.792289,-0.3883658,-0.2417383,0.2326101,0.7318596,0.6463386,-0.04483178,-42.40936,-19.99058,1006.57
-0.473658085,0.3013907,-0.5065512,0.2469738,0.2437889,0.7255544,0.6366944,-0.05835432,-41.68048,-20.00204,1006.57
-0.438361645,-0.2576963,-0.09290238,0.2469738,0.2544593,0.73,0.6328115,-0.05159304,-42.04492,-19.99631,1006.57
-0.405586719,-1.872836,0.3798391,0.06370676,0.2564213,0.7237585,0.6434062,-0.05159304,-42.04492,-19.99631,1006.57
-0.372811794,-2.307682,0.5571171,0.3080628,0.2481858,0.7148964,0.6395882,-0.4082864,-42.40339,-19.61716,1006.57
-0.340036392,-0.9410248,0.1434683,0.3080628,0.2355764,0.7099811,0.64829,-0.4156705,-42.04404,-19.99584,1006.57
-0.307261467,1.04684,-0.4474585,-0.4250054,0.2355739,0.7119626,0.6531007,-0.4156705,-42.04404,-19.99584,1006.57
-0.271965027,1.419565,-0.4474585,-0.4860944,0.2442767,0.726099,0.6443942,-0.04420891,-42.40426,-19.61763,1006.57
-0.239190101,-0.6925417,-0.1519951,0.002617747,0.2442738,0.7270631,0.6429487,0.3124843,-42.04579,-19.99678,1006.57
-0.206414699,-0.6304209,-0.3292731,0.6745969,0.2476863,0.7222513,0.6472801,0.3124843,-42.04579,-19.99678,1006.57
-0.173639774,-1.624353,-0.03380971,-0.05847127,0.2413833,0.7183057,0.6477823,-0.4081826,-42.40254,-19.555,1006.57
-0.138343334,-0.5683001,0.4389318,0.1858848,0.2447975,0.7125099,0.6506711,-0.04410511,-42.40341,-19.55547,1006.57
-0.105568409,0.4256323,-0.03380971,-0.3028273,0.2491779,0.7066451,0.6424865,-0.04410511,-42.40341,-19.55547,1006.572
-0.072793007,2.165014,-0.5065512,-0.3028273,0.2506055,0.7193366,0.6448707,-0.05086637,-42.03897,-19.5612,1006.572
-0.040018081,1.978652,-0.4474585,-0.4250054,0.2345487,0.7333335,0.6458505,-0.04483178,-42.40936,-19.99058,1006.572
-0.007243156,-0.9410248,-0.09290238,0.1858848,0.2369712,0.7342809,0.6391042,-0.04483178,-42.40936,-19.99058,1006.572
0.028052807,-1.189508,0.5571171,0.7356859,0.2433335,0.7138985,0.642008,-0.4149438,-42.0381,-19.56073,1006.57
0.060827732,-1.624353,0.5571171,0.06370676,0.2462595,0.710584,0.6521146,0.3199722,-42.40428,-19.55594,1006.572
0.093602657,0.7362362,0.08437566,-0.3639164,0.2438323,0.7090591,0.6458651,0.3199722,-42.40428,-19.55594,1006.572
0.126378059,1.357444,-0.09290238,-0.5471834,0.2433223,0.7202902,0.6506629,0.3124843,-42.04579,-19.99678,1006.572
0.161674500,0.1150284,0.3207464,-0.05847127,0.2408884,0.7216907,0.6448902,-0.05086637,-42.03897,-19.5612,1006.57
0.194449425,-0.5061794,0.02528298,0.002617747,0.2360426,0.7177641,0.6463518,-0.05086637,-42.03897,-19.5612,1006.57
0.227224350,-0.1955755,0.08437566,-0.3639164,0.2389519,0.7192394,0.6448985,-0.7783983,-42.03213,-19.18731,1006.57
0.259999752,-0.3819378,0.2616537,0.002617747,0.2467192,0.7197813,0.6434352,-0.4143209,-42.033,-19.18778,1006.572
0.292774677,-0.7546625,0.3798391,0.1858848,0.24381,0.7188129,0.6477758,-0.4143209,-42.033,-19.18778,1006.572
0.328071117,0.3013907,0.202561,-0.1806493,0.242353,0.7182904,0.6444106,-0.04420891,-42.40426,-19.61763,1006.572
0.360846043,0.4877531,0.202561,-0.1806493,0.2452741,0.7148988,0.643446,-0.4149438,-42.0381,-19.56073,1006.574
0.393621445,1.108961,-0.03380971,-0.2417383,0.2491485,0.719825,0.6467989,-0.7716371,-42.39657,-19.18158,1006.575
0.426396370,0.3635115,-0.1519951,0.6745969,0.2427822,0.7436801,0.6530358,-0.7716371,-42.39657,-19.18158,1006.575
0.461692810,-0.6925417,-0.2701804,0.4302409,0.2341117,0.7118634,0.6405889,-0.4081826,-42.40254,-19.555,1006.575
0.494467735,0.6119946,-0.2110877,0.002617747,0.2384622,0.7196755,0.63816,-0.4217051,-41.67366,-19.56646,1006.573
0.527243137,-2.618286,0.6753024,-0.1195603,0.2472296,0.7075461,0.6343066,-0.4217051,-41.67366,-19.56646,1006.577
0.560018063,0.1771492,0.4980244,-0.5471834,0.2535442,0.7096539,0.649692,0.3267335,-42.76872,-19.55021,1006.571
0.592792988,0.7362362,0.3207464,-0.5471834,0.2447788,0.7223207,0.660765,-0.4224318,-41.67961,-20.00157,1006.575
0.628088951,0.8604777,0.202561,-0.2417383,0.2423318,0.7280611,0.6487281,-0.4224318,-41.67961,-20.00157,1006.575
0.660863876,-0.8167832,0.3798391,0.1247958,0.2374842,0.7246114,0.6487448,-0.05097017,-42.03983,-19.62336,1006.575
0.693639279,-1.003146,0.202561,0.1247958,0.2384658,0.7197325,0.6463431,-0.05159304,-42.04492,-19.99631,1006.575
0.726414204,-0.2576963,0.02528298,-0.1195603,0.2413827,0.7182957,0.6463383,-0.05159304,-42.04492,-19.99631,1006.579
0.761710644,0.2392699,-0.03380971,0.06370676,0.2491572,0.7169296,0.6506541,0.3124843,-42.04579,-19.99678,1006.579
0.794485569,-0.6304209,0.2616537,0.1858848,0.246731,0.7159252,0.6492174,-0.05086637,-42.03897,-19.5612,1006.579
0.827260971,0.6119946,-0.3292731,-0.1195603,0.2448016,0.710048,0.646824,-0.05086637,-42.03897,-19.5612,1006.579
0.860035897,0.4877531,-0.2110877,-0.1195603,0.2442994,0.7168555,0.6458522,-0.4150476,-42.03895,-19.62289,1006.58
0.892810822,0.4256323,-0.03380971,-0.1806493,0.2476967,0.7168571,0.6419932,-0.4150476,-42.03895,-19.62289,1006.58
0.928107262,1.481686,-0.2701804,-0.3639164,0.2394093,0.7319363,0.6492106,-0.4150476,-42.03895,-19.62289,1006.582
0.960882664,0.4877531,-0.3883658,0.1858848,0.236028,0.7241021,0.647305,0.3199722,-42.40428,-19.55594,1006.582
0.993657589,0.5498738,-0.6838292,0.1858848,0.2389349,0.7270553,0.6482563,-0.04483178,-42.40936,-19.99058,1006.582
1.026432514,-0.6925417,-0.2110877,0.1247958,0.2520524,0.723235,0.6434174,-0.04483178,-42.40936,-19.99058,1006.582
1.061728954,-0.7546625,0.02528298,0.2469738,0.2525544,0.7159203,0.6415017,-0.4089093,-42.40848,-19.99011,1006.582
1.094504356,0.6119946,0.08437566,-0.2417383,0.2472322,0.7085971,0.6453763,-0.4089093,-42.40848,-19.99011,1006.578
1.127279282,1.295323,-0.5656438,-0.1806493,0.2433161,0.7227185,0.6496966,-0.4089093,-42.40848,-19.99011,1006.578
1.160054207,-0.319817,-0.6838292,-0.05847127,0.2433253,0.7178115,0.644409,-0.03807053,-42.77379,-19.98485,1006.578
1.192829609,0.798357,-0.5656438,0.1247958,0.2399284,0.7157948,0.6386437,-0.4089093,-42.40848,-19.99011,1006.582
1.228125095,0.7362362,-0.6247365,-0.3639164,0.2408957,0.7187753,0.6458574,-0.4089093,-42.40848,-19.99011,1006.582
1.260900021,1.605927,-0.4474585,-0.3639164,0.2457235,0.7305011,0.6453469,-0.05159304,-42.04492,-19.99631,1006.582
1.293675423,-0.5061794,0.2616537,0.1247958,0.2452536,0.7241758,0.6468016,-0.402148,-42.77292,-19.98438,1006.582
1.326450348,-1.127387,0.08437566,0.3691518,0.2452524,0.7246628,0.6468009,-0.402148,-42.77292,-19.98438,1006.582
1.361746788,0.05290762,-11.20233,4.645383,0.2040726,0.7111355,0.7821816,-0.4143209,-42.033,-19.18778,1006.582
1.394521713,35.64811,-41.57597,23.88842,0.298688,0.7310283,0.7275333,-0.03807053,-42.77379,-19.98485,1006.58
1.427297115,103.2355,-75.25879,56.63213,0.3497087,1.172467,0.9722415,-0.7648758,-42.76101,-19.17585,1006.58
1.460072041,36.2072,-73.60419,86.19923,0.3364244,1.034781,0.9392665,-0.7648758,-42.76101,-19.17585,1006.58
1.492846966,213.6241,-103.446,132.2603,0.461752,0.9426615,0.5684596,-3.670331,-42.69543,-14.88313,1006.579
1.528143406,340.4126,-103.7415,183.1475,0.6818534,1.429018,0.2052205,-7.650344,-43.32216,-8.091192,1006.579
1.560918808,258.7238,-66.80853,223.283,0.5899689,1.442151,0.03309111,-7.650344,-43.32216,-8.091192,1006.579
1.593693733,260.5253,-44.29423,243.6256,0.6536676,0.9167446,-0.3778324,-13.50625,-43.48228,5.845708,1006.575
1.626468659,260.8359,-19.23893,249.3069,0.8362285,0.9438362,-0.2733694,-20.86615,-38.2294,15.53382,1006.574
1.659244061,123.1142,17.39853,226.2152,0.6921858,0.4881991,-0.136597,-20.86615,-38.2294,15.53382,1006.57
1.694540501,98.94918,25.84879,201.4742,0.6428024,0.2268897,-0.1139434,-27.25398,-30.03757,22.62529,1006.57
1.727315426,27.13757,27.3261,187.2404,0.643136,0.1002712,-0.04251179,-31.44179,-20.12149,22.90991,1006.57
1.760090351,41.36322,31.75805,158.8951,0.6588558,-0.2407432,-0.3539575,-31.44179,-20.12149,22.90991,1006.57
1.792865753,94.10377,40.74014,132.9934,0.7358443,-0.1505464,-0.3629405,-34.49577,-12.45624,23.16629,1006.57
1.828161240,95.34618,59.70889,112.6508,0.6841271,-0.2310964,-0.2577596,-36.42619,-6.566085,22.64089,1006.568
1.860936642,118.5794,75.30936,89.55912,0.7797589,-0.2266499,-0.2936139,-36.42619,-6.566085,22.64089,1006.567
1.893711567,95.09769,108.3422,72.51528,0.8288692,-0.2923645,-0.4876201,-37.62337,-1.125783,20.44295,1006.567
1.926486492,58.13583,190.0674,30.54712,0.8184308,-0.660908,-0.8042573,-38.46458,4.667045,17.43075,1006.565
1.959261894,-14.42123,379.7549,-71.16608,0.5067815,-0.492972,-0.7931813,-38.46458,4.667045,17.43075,1006.567
1.994558334,-61.50878,467.5666,-99.20594,0.07586566,-0.2089838,0.2216419,-40.36044,7.901695,9.299927,1006.562
2.027333260,-373.0445,264.6423,-72.14351,2.649893,-3.088005,-6.253959,-42.59536,5.82206,-5.461368,1006.56
2.060108185,-195.1927,-129.4468,114.7278,0.0898063,3.67619,2.032894,-42.59536,5.82206,-5.461368,1006.56
2.092883587,-581.8324,5.993644,17.29081,0.9339433,-0.6011158,0.4416241,-40.33271,3.861181,-15.19455,1006.56
2.128180027,57.39038,11.60745,-10.13816,0.7784584,-0.6287876,0.08101331,-40.3089,2.796741,-13.06396,1006.559
2.160954952,5.333174,41.80381,-24.49408,0.6625966,0.003567334,0.5958735,-40.3089,2.796741,-13.06396,1006.557
2.193729878,12.53918,19.34859,-24.3719,1.058446,-0.4697138,0.4878229,-40.37753,6.502699,-13.06006,1006.555
2.226505280,36.5178,25.84879,-15.08637,0.9131963,-0.4264768,0.5766727,-39.64512,6.046057,-15.22987,1006.555
2.259280205,8.998299,26.79427,-18.69062,0.5761308,-0.3502407,0.8088924,-39.64512,6.046057,-15.22987,1006.555
2.294576645,10.92404,9.421019,-25.4715,0.2294084,-0.2727248,1.166768,-39.61808,4.588309,-15.20695,1006.553
2.327351570,-23.24238,-35.90307,-37.1395,0.195746,0.01192543,1.238623,-39.23444,3.488182,-15.62534,1006.553
2.360126972,-64.17998,-60.60381,-45.14217,0.2823629,-0.1385215,0.8612571,-39.23444,3.488182,-15.62534,1006.552
2.392901898,-84.80407,-53.09904,-70.4941,0.4902023,-0.4087872,0.5473236,-40.30639,2.39749,-15.60674,1006.552
2.428197384,-99.58882,-48.25344,-99.32812,0.3466097,-0.4366554,0.7046301,-40.72013,2.068884,-13.05195,1006.552
2.460972786,-55.91791,-69.29043,-122.5419,0.34349,-0.5348538,0.8049088,-41.76889,-0.09134436,-11.27571,1006.552
2.493747711,-49.20887,-89.85468,-160.1728,0.3670757,-0.2772689,0.6278049,-41.76889,-0.09134436,-11.27571,1006.55
2.526522637,-108.0994,-83.35448,-193.0998,0.6473415,-0.1598421,0.3679905,-41.69847,-3.712788,-9.540127,1006.548
2.559298039,-70.95114,-54.87182,-222.9112,0.5861455,-0.173715,0.2675519,-42.33408,-8.480593,-7.350343,1006.548
2.594594479,-11.19095,-58.06282,-253.2113,0.6623743,0.03594651,0.2795705,-42.33408,-8.480593,-7.350343,1006.548
2.627369404,-10.32126,-42.1078,-277.1582,0.7171257,0.2951936,0.3040808,-39.94549,-16.12726,-6.362687,1006.546
2.660144329,-4.481909,-33.48027,-284.0002,0.4857266,0.6017193,0.2574755,-36.51009,-24.56092,-4.990994,1006.546
2.692919731,46.20864,-43.64421,-270.7439,0.3532687,0.985575,0.3563717,-36.51009,-24.56092,-4.990994,1006.546
2.728216171,-6.034928,-49.3762,-260.9696,0.3140216,1.142122,0.2931704,-29.4499,-32.22474,-4.44448,1006.546
2.760991097,-93.12826,-25.32548,-238.2446,0.2457529,1.039553,0.1933637,-22.34747,-38.85018,-3.479168,1006.545
2.793766022,-113.6281,-2.752073,-213.9311,0.1470558,0.9109882,0.314132,-22.34747,-38.85018,-3.479168,1006.545
2.826541424,-99.27821,19.52587,-192.0002,0.2393662,0.9206653,0.4741919,-13.17822,-42.93854,-7.654684,1006.546
2.894612789,108.5779,-36.61218,-196.7651,0.06271086,0.9994356,1.088228,-5.081921,-44.8446,-12.36052,1006.548
2.927387715,951.619,5.343624,-14.17003,0.3395205,4.735913,0.3902235,2.607331,-44.16307,-14.49533,1006.552
2.960163117,-224.3273,12.96658,74.16469,0.2331485,1.659516,0.2728466,8.102867,-44.31473,2.037601,1006.552
2.992938042,-186.0609,13.02567,59.13678,0.02868708,0.1772965,-0.06379451,8.102867,-44.31473,2.037601,1006.553
3.028234482,40.55565,-7.124932,27.73703,0.1740121,0.3428358,0.03380911,6.68963,-46.89711,-0.4689205,1006.555
3.061008930,66.95699,-11.67507,4.156671,0.218782,0.7291109,0.1274676,5.207431,-45.84616,-3.840807,1006.557
3.093784809,76.39935,-13.8615,-11.97083,0.2423199,0.821799,0.05073559,5.207431,-45.84616,-3.840807,1006.559
3.126559258,68.01304,-13.09329,-24.86061,0.1919703,1.178792,0.1100058,4.119455,-45.80873,-1.290886,1006.559
3.159334660,-18.08636,-2.042961,-29.01467,0.2134937,1.120835,0.1543274,4.124438,-45.76797,1.692737,1006.56
3.194630623,1.108961,-0.2110877,-16.36924,0.2054662,1.018746,0.1212863,4.124438,-45.76797,1.692737,1006.562
3.227405548,12.6013,1.266229,-1.280252,0.1935033,1.152722,0.14133,4.852593,-45.76972,1.691797,1006.564
3.260180950,6.886193,0.3798391,11.243,0.1792208,1.029759,0.1256642,5.588132,-46.13081,2.069541,1006.564
3.292955875,18.8755,0.3798391,12.15933,0.186316,0.9006065,0.1046622,5.588132,-46.13081,2.069541,1006.564
3.328252316,23.59668,-0.1519951,6.05043,0.1936595,0.8763493,0.1094949,5.582097,-45.76043,2.498922,1006.566
3.361027241,20.42852,-2.397517,-1.341341,0.1916272,0.9158393,0.1176234,5.218747,-45.75361,2.934504,1006.567
3.393802643,8.749816,-2.397517,-7.266975,0.1929941,0.949806,0.0978331,5.218747,-45.75361,2.934504,1006.567
3.426577568,10.30284,-2.456609,-8.610933,0.1973106,0.9676917,0.07324646,4.856745,-45.73576,4.17815,1006.569
3.459352493,19.55883,-3.165722,-5.73975,0.1981876,1.004113,0.05682319,5.213439,-45.37729,3.798997,1006.569
3.494648934,22.35427,-3.402092,-0.8526285,0.192305,1.025416,0.04573372,5.585523,-45.7324,4.550163,1006.569
3.527423859,16.20431,-1.688405,1.285487,0.1928574,0.9951478,0.03470671,5.585523,-45.7324,4.550163,1006.569
3.560199261,8.687695,-0.2110877,0.796775,0.1977544,0.9761341,0.02605924,5.579488,-45.36202,4.979545,1006.569
3.592974186,0.4256323,1.384415,-0.9748065,0.1875854,0.9648675,0.02898851,5.222899,-45.71964,5.420856,1006.569
3.628270626,-2.431924,1.798064,-2.196587,0.1831922,0.9760895,0.03716516,5.222899,-45.71964,5.420856,1006.571
3.661045551,-3.239494,2.448083,-1.524608,0.1850936,0.9941559,0.04146568,4.853514,-45.34245,6.285819,1006.571
3.693820954,-3.239494,3.098103,-0.2417383,0.1870656,0.9825136,0.0458108,5.216138,-45.35521,5.415126,1006.571
3.726595879,-0.3819378,2.861732,0.1247958,0.1909941,0.9630281,0.04053587,5.216138,-45.35521,5.415126,1006.572
3.759370804,1.481686,1.738971,-0.3028273,0.1885556,0.9689024,0.04775323,5.580215,-45.35608,5.414657,1006.567
3.794666767,-0.3819378,0.9707659,-0.05847127,0.1929103,0.9772853,0.0573575,5.580942,-45.35014,5.849768,1006.567
3.827441693,0.6741154,0.4389318,0.3691518,0.1880693,0.9724247,0.06459673,5.580942,-45.35014,5.849768,1006.567
3.860217095,1.916531,-0.3883658,0.1858848,0.1846711,0.9698809,0.05305595,5.945019,-45.35101,5.849298,1006.567
3.892992020,2.475618,1.207137,-0.7304505,0.1856714,0.956202,0.04585377,5.210104,-44.98483,5.844508,1006.565
3.928288460,7.445281,1.679878,-1.707875,0.182269,0.9551092,0.03286672,5.210104,-44.98483,5.844508,1006.567
3.961063385,12.10434,0.6162097,-1.096985,0.204554,0.9752067,0.02460042,5.586976,-45.72052,5.420386,1006.567
3.993838787,10.30284,2.034434,-1.219163,0.200125,0.9969793,0.009174535,5.938984,-44.98063,6.27868,1006.565
4.026613712,5.146811,4.516326,-1.035896,0.1962814,0.9799077,0.0101721,5.938984,-44.98063,6.27868,1006.565
4.059388638,2.848342,5.69818,-3.296189,0.191916,0.9748937,-0.00521356,5.21218,-44.96784,7.087684,1006.563
4.094685078,-5.413721,5.402717,-3.968168,0.1807012,0.9993261,0.01980703,5.204691,-44.60935,6.646842,1006.563
4.127460480,-12.55761,5.875458,-2.990744,0.1651968,0.9896233,0.04392651,5.204691,-44.60935,6.646842,1006.565
4.160235405,-6.407653,4.279956,-1.219163,0.1453341,0.9714807,0.05025867,5.21083,-44.97888,6.279619,1006.565
4.193010330,-0.2576963,0.7343951,1.285487,0.1710505,0.9840319,0.07328412,4.839264,-44.61952,5.839248,1006.565
4.228306770,3.158946,0.2616537,1.10222,0.1720648,0.962994,0.05839121,4.839264,-44.61952,5.839248,1006.563
4.261082172,4.774087,-1.038385,1.468754,0.1623445,0.9637832,0.04349086,5.574907,-44.97976,6.27915,1006.563
4.293857098,8.190729,-2.574795,-0.05847127,0.1637711,0.9754472,0.03817492,5.21083,-44.97888,6.279619,1006.563
4.326632023,8.625574,-2.042961,-1.035896,0.1676444,0.9788386,0.03094019,5.21083,-44.97888,6.279619,1006.563
4.359407425,10.55132,-1.215663,-0.6693614,0.1627893,0.9732499,0.003522513,5.218214,-45.33822,6.658302,1006.563
4.394702911,6.824073,-1.983868,-0.3028273,0.1686065,0.9792098,0.01312697,5.218941,-45.33228,7.093414,1006.565
4.427477837,8.439212,-1.688405,1.10222,0.1928365,1.000882,0.01881317,5.576983,-44.96277,7.522326,1006.567
4.460253239,5.271053,-0.3292731,3.362514,0.2492034,0.9827978,0.01196767,5.576983,-44.96277,7.522326,1006.567
4.493028164,2.848342,-0.9202,5.989341,0.2535724,0.9888794,0.04082985,5.206145,-44.59746,7.517066,1006.567
4.528324604,9.681627,-1.215663,4.095582,0.1794112,0.936762,0.05937605,5.213633,-44.95596,7.957908,1006.567
4.561099529,23.0376,2.270805,12.70913,0.1580296,0.9519829,0.1027264,5.213633,-44.95596,7.957908,1006.567
4.593874931,9.86799,32.58535,33.29613,0.05430533,1.063641,0.03541346,5.585198,-45.31532,8.398279,1006.567
4.626649857,-15.16668,56.04514,62.9854,0.1693557,1.077278,0.03704548,4.467271,-43.84392,9.184834,1006.568
4.659424782,22.72699,29.45344,62.00797,0.4750538,0.9391688,-0.09006958,4.467271,-43.84392,9.184834,1006.568
4.694721222,98.14162,-20.83443,33.11287,0.3444132,0.7457865,-0.07695286,2.288945,-44.20821,8.82043,1006.567
4.727496624,123.052,-32.06205,25.59892,0.2820126,0.8424154,-0.1140153,0.05471459,-44.53331,11.31541,1006.567
4.760271549,7.942246,-6.65219,13.01458,0.4558054,1.323585,0.1635557,0.05471459,-44.53331,11.31541,1006.567
4.793046475,-82.75409,-30.762,4.034493,0.1542747,1.07317,-0.04522543,-2.157119,-42.65324,15.14342,1006.567
4.828342915,-46.22707,-32.00295,-10.38251,0.1889214,0.565481,-0.1846187,-1.437906,-42.30838,13.83142,1006.567
4.861118317,-20.57119,-35.31214,-17.65211,0.1669044,1.049609,-0.1568958,-1.437906,-42.30838,13.83142,1006.57
4.893893242,-17.65151,-24.61637,-7.938954,0.3225314,1.175961,-0.03374539,-1.427186,-43.06018,12.16459,1006.57
4.926668167,-29.08174,-17.58434,-5.556483,0.3078159,1.027045,-0.06910682,0.3843628,-42.71708,10.91334,1006.572
4.959443569,-4.481909,-6.356727,7.760923,0.2694992,0.7859606,-0.1629995,0.3843628,-42.71708,10.91334,1006.568
4.994739056,55.96161,-6.41582,6.966765,0.3451861,0.796738,-0.2450267,0.7544748,-43.08834,10.48349,1006.572
5.027514458,32.23147,-7.53858,-4.029257,0.3110744,0.8652675,-0.1545531,0.7552015,-43.08239,10.9186,1006.572
5.060289383,18.81338,-9.606825,-13.31479,0.324033,0.7311812,-0.1216491,0.7552015,-43.08239,10.9186,1006.572
5.093064308,26.9512,-12.38418,-26.69328,0.2630565,0.868229,-0.02110647,0.7437552,-42.33654,12.15031,1006.572
5.128360748,-3.053131,-25.62094,-38.11693,0.1618511,0.953046,-0.02917741,0.7452086,-42.32465,13.02054,1006.574
5.161136150,10.55132,-29.52106,-40.86594,0.1711729,0.8950178,-0.1205708,0.7452086,-42.32465,13.02054,1006.574
5.193911076,26.20576,-24.20272,-38.23911,0.1898108,1.017282,-0.1405351,2.620863,-41.95368,13.82044,1006.574
5.226686001,22.85123,-18.52982,-34.32941,0.2002615,1.108708,-0.1729489,4.448011,-42.32248,13.82382,1006.572
5.259461403,18.99974,-15.92974,-28.22051,0.2261165,1.045634,-0.2393431,4.448011,-42.32248,13.82382,1006.572
5.294757843,12.16646,-9.902288,-20.15676,0.2179614,0.9961045,-0.2782394,5.527448,-41.59028,14.24607,1006.572
5.327532768,6.078623,-3.165722,-13.00934,0.1981049,0.9623987,-0.3387931,7.3418,-41.22427,14.6731,1006.572
5.360307694,-3.798581,4.339048,-7.205886,0.1372705,1.032466,-0.2752146,7.3418,-41.22427,14.6731,1006.57
5.393083096,-16.09849,4.634512,-0.7304505,0.1494011,1.044557,-0.2319391,7.3418,-41.22427,14.6731,1006.57
5.425858021,-27.90144,7.411868,1.163309,0.1543945,0.9911889,-0.2082838,7.712639,-41.58958,14.67836,1006.57
5.461154461,-35.48018,8.948277,0.857864,0.1520594,0.9653447,-0.1398859,7.339724,-41.24125,13.42992,1006.568
5.493929386,-39.64227,7.825517,0.918953,0.1695643,0.9582956,-0.1240319,7.339724,-41.24125,13.42992,1006.567
5.526704788,-50.82401,11.1938,-2.01332,0.1486554,0.9849398,-0.04941138,7.709836,-41.6125,13.00007,1006.567
5.559479714,-69.58448,6.230014,0.002617747,0.08298334,1.049693,0.02622059,7.355751,-42.36937,10.8986,1006.568
5.594775200,-80.64198,3.157195,5.317362,0.1014904,1.026973,0.02861774,7.355751,-42.36937,10.8986,1006.568
5.627550602,-79.64805,0.9707659,10.32666,0.07391542,1.003091,0.1293237,7.357529,-42.77457,7.920709,1006.568
5.660325527,-53.61944,-8.83862,16.92427,0.1037379,0.9282174,0.1823156,6.995957,-43.17295,5.378397,1006.568
5.693100453,-10.69399,-15.75246,15.45814,0.1650039,0.88004,0.1143709,6.995957,-43.17295,5.378397,1006.57
5.761172295,35.52387,-18.7071,-2.62421,0.1873736,0.8484206,0.02290681,6.278626,-43.92216,3.774668,1006.572
5.793947220,52.48285,-21.9572,-5.495394,0.2066112,0.9169084,-0.0268223,6.278626,-43.92216,3.774668,1006.572
5.826722145,57.76311,-23.96634,-8.672023,0.1787831,0.9683676,-0.08748543,7.002718,-43.53738,5.384127,1006.57
5.859497547,59.25401,-22.31175,-10.26034,0.1694133,1.021095,-0.1279771,7.369598,-43.51533,7.061945,1006.57
5.894793987,46.51925,-17.22978,-6.106284,0.1460569,1.033769,-0.1683752,7.369598,-43.51533,7.061945,1006.572
5.927568913,37.32537,-9.370454,-3.84599,0.1727925,1.013236,-0.2117302,7.003017,-43.11521,9.605196,1006.572
5.960343838,27.01332,-3.756649,-0.4860944,0.1513559,1.04376,-0.2088372,8.433734,-41.64906,10.45062,1006.572
5.993119240,16.39067,1.798064,2.079644,0.1514599,0.9948733,-0.2352386,8.433734,-41.64906,10.45062,1006.572
6.025894165,-2.866769,6.407292,2.751623,0.1673736,1.059964,-0.1391021,8.071007,-41.63715,11.25915,1006.574
6.061190605,-12.06064,5.816366,5.43954,0.1301998,0.9670401,-0.1499452,7.706929,-41.63628,11.25962,1006.574
6.093965530,-18.64544,10.48469,5.561718,0.128326,0.9463764,-0.1075498,7.706929,-41.63628,11.25962,1006.574
6.126740932,-20.94391,7.825517,3.362514,0.1457785,0.9652804,-0.07151756,7.335467,-41.27606,10.88141,1006.574
6.159515858,-13.55154,6.643663,0.980042,0.1874461,1.005118,-0.06590009,7.712341,-42.01176,10.45729,1006.574
6.194811821,-31.19384,4.693604,2.385089,0.1728422,1.018563,-0.07599432,7.712341,-42.01176,10.45729,1006.574
6.227586746,-35.91502,7.530054,4.156671,0.1696866,0.9122223,-0.09604375,7.354298,-42.38126,10.02838,1006.572
6.260361672,-6.904619,1.857156,1.590932,0.1287446,0.9786716,-0.08641955,7.346084,-42.02871,9.152425,1006.572
6.293137074,-7.277344,-0.2110877,1.224398,0.1893831,1.008587,-0.05965221,7.346084,-42.02871,9.152425,1006.574
6.325911999,-15.53941,4.752697,2.99598,0.1949258,0.9279325,-0.03836388,7.716299,-42.39912,8.784732,1006.574
6.361208439,-2.991011,-0.5656438,4.767561,0.2186899,0.947383,-0.001384706,7.708085,-42.04657,7.908778,1006.574
6.393983364,4.649846,-2.929351,3.240336,0.2442695,1.013356,-0.0001007249,7.708085,-42.04657,7.908778,1006.574
6.426758766,-22.80754,0.8525805,5.989341,0.2291286,1.060343,0.05137008,7.358256,-42.76863,8.35582,1006.574
6.459533692,-27.21811,-2.279331,6.966765,0.2273481,0.9886038,0.03270932,7.357529,-42.77457,7.920709,1006.574
6.494830132,-21.81361,-5.174873,7.272211,0.1536994,0.9106427,-0.02379919,8.07747,-42.42376,7.043815,1006.574
6.527605057,5.146811,-7.893137,6.844588,0.243141,1.092215,0.06524829,8.07747,-42.42376,7.043815,1006.574
6.560380459,-17.27879,-8.661342,11.91498,0.1793252,0.9692588,0.0400728,6.990649,-42.79662,6.24289,1006.574
6.593155384,13.03615,-17.99798,10.6932,0.1826685,0.9956938,0.0554286,6.991272,-42.79153,6.615843,1006.574
6.625930309,-2.618286,-17.34797,10.44884,0.1832546,0.949283,0.03431724,6.991272,-42.79153,6.615843,1006.574
6.661226750,5.705899,-21.8981,10.63211,0.1084499,0.9739964,0.1061803,6.248972,-42.06601,6.23237,1006.575
6.694002152,-15.66365,-25.9755,3.179247,0.1260919,0.8862479,0.003259319,6.985238,-42.42115,7.045225,1006.575
6.726777077,-9.513693,-34.13029,-6.778263,0.1112708,0.783666,-0.02254445,6.985238,-42.42115,7.045225,1006.575
6.759552002,36.14508,-41.39869,-7.266975,0.1648616,0.8863943,-0.1624213,6.592039,-40.97951,5.779598,1006.575
6.794848442,88.20229,-44.64878,11.36518,0.2522213,0.8955486,-0.2117412,7.328304,-41.33465,6.592453,1006.575
6.827623368,86.33867,-35.43033,18.26823,0.1694394,1.202829,-0.1884212,7.328304,-41.33465,6.592453,1006.575
6.860398770,4.774087,-29.40287,31.03584,0.1427833,1.37259,-0.2574486,8.061442,-41.29564,9.575136,1006.575
6.893173695,-47.90433,-12.91601,25.66,0.2163059,0.859642,-0.3593799,7.314457,-40.1887,10.42911,1006.575
6.925949097,-43.05891,-0.3292731,17.16863,0.3087717,0.9995316,-0.2447646,7.314457,-40.1887,10.42911,1006.575
6.961244583,-79.02684,4.575419,18.26823,0.2818266,0.915779,-0.1396376,7.313004,-40.20058,9.558887,1006.575
6.994019508,-67.5345,1.088951,11.73171,0.209166,0.8481959,-0.1056681,6.593388,-40.96847,6.587663,1006.577
7.026794910,-97.60095,4.634512,10.32666,0.1739695,1.171023,-0.004985234,6.593388,-40.96847,6.587663,1006.577
7.059569836,-141.7688,8.416443,9.532504,0.2187548,0.9196057,-0.003749803,6.232543,-41.3609,4.480463,1006.579
7.094866276,-131.4568,16.68942,2.079644,0.3006,1.04118,0.1513527,5.86151,-41.41692,0.3162928,1006.58
7.127641201,-182.1473,17.28035,10.02122,0.4505915,1.101781,0.3511521,5.86151,-41.41692,0.3162928,1006.58
7.160416603,-201.7154,16.39396,13.56438,0.2503928,0.9842126,0.4942872,5.86517,-42.22647,-5.577334,1006.58
7.193191528,-196.0624,-1.570219,20.1009,0.1810845,1.160398,0.62993,5.842409,-41.57316,-11.12093,1006.579
7.225966454,-286.8209,6.289107,32.13544,0.2533898,0.9830239,0.6699789,5.842409,-41.57316,-11.12093,1006.579
7.261262894,-293.9648,11.90291,55.47144,0.2982593,0.7157507,0.772324,6.523988,-39.85716,-18.79605,1006.579
7.294038296,-253.2756,7.825517,54.18858,0.1352426,0.4654563,0.8347021,5.350025,-36.32566,-27.30554,1006.58
7.326813221,-146.5521,-14.39333,41.11552,0.08389281,0.2062778,0.8159602,5.350025,-36.32566,-27.30554,1006.58
7.359588146,-100.7691,-25.85731,32.74633,0.2737261,0.226687,0.8612084,4.482314,-29.42039,-33.38167,1006.579
7.394884586,-96.04794,-22.54812,30.36386,0.3266564,0.2367805,0.9183497,2.933851,-24.71403,-36.00279,1006.579
7.427659989,-80.82835,-31.11656,31.15801,0.3636803,0.1783606,0.8774343,2.933851,-24.71403,-36.00279,1006.581
7.460434914,-32.00141,-39.86228,24.68258,0.3630044,0.01273802,0.6639609,2.148804,-21.81972,-37.72598,1006.581
7.493209839,20.11792,-30.23017,14.5418,0.5381895,0.0645886,0.6957185,1.006663,-19.21719,-38.63586,1006.575
7.525985241,9.86799,-29.58015,18.08496,0.4287921,0.3457884,0.7826806,1.006663,-19.21719,-38.63586,1006.578
7.561280728,-35.91502,-37.55766,28.59228,0.508283,0.1780512,0.6590349,-0.5149077,-18.83128,-37.3343,1006.576
7.594056130,-13.73791,-53.51269,41.66533,0.5262666,-0.0700345,0.4711537,-1.592891,-19.5516,-36.88631,1006.576
7.626831055,62.85701,-61.96294,35.86187,0.4848797,-0.2398465,0.4045985,-3.063449,-18.82517,-37.33101,1006.574
7.659605980,182.4395,-72.06778,19.91764,0.6308407,-0.1547949,0.41327,-3.063449,-18.82517,-37.33101,1006.568
7.694902420,258.1647,-63.02661,-1.096985,0.7992066,0.3355973,0.5526892,-5.215886,-20.23693,-34.32164,1006.567
7.727677822,194.8637,-70.3541,0.3080628,0.9053978,0.8342173,0.6893553,-6.945601,-24.59777,-29.21472,1006.569
7.760452748,54.96767,-56.05367,-4.579059,0.9909749,0.7781674,0.6507279,-6.945601,-24.59777,-29.21472,1006.569
7.793227673,-14.66972,-34.30757,-24.24972,0.8656588,0.5668864,0.534854,-8.278458,-30.72008,-24.01841,1006.567
7.826003075,-11.99852,-35.01668,-29.13684,0.6497425,0.4766822,0.4296024,-9.341465,-32.15738,-22.68874,1006.567
7.861299038,19.55883,-38.26678,-33.22981,0.4733571,0.3005255,0.3133154,-9.341465,-32.15738,-22.68874,1006.567
7.894074440,72.48573,-45.65336,-31.88585,0.4972584,0.2615058,0.3465315,-8.977388,-32.15825,-22.68921,1006.566
7.926849365,117.8339,-50.79443,-32.49674,0.5817597,0.4730321,0.4066638,-8.60302,-32.49469,-20.57055,1006.566
7.959624768,141.4398,-51.26717,-42.75969,0.7318973,0.6313667,0.3728551,-8.60302,-32.49469,-20.57055,1006.567
7.994920731,113.4854,-42.34417,-47.28028,0.7940224,0.8365189,0.3136725,-8.55612,-34.62952,-16.74449,1006.567
8.027696133,50.92982,-26.92098,-46.6083,0.8250362,0.8539831,0.2663991,-7.773072,-37.19041,-12.85051,1006.566
8.060471058,12.97403,-12.85692,-45.56979,0.7275062,0.8113128,0.2007482,-7.773072,-37.19041,-12.85051,1006.566
8.093245983,-12.18489,-7.479488,-42.6986,0.6227086,0.7698438,0.1765098,-6.6563,-38.25153,-10.28622,1006.566
8.126021385,-14.04851,-7.30221,-41.599,0.5137491,0.6431956,0.1649251,-4.458313,-38.98564,-10.27758,1006.567
8.161317825,26.88908,-16.40248,-42.75969,0.59244,0.6387491,0.2013287,-4.458313,-38.98564,-10.27758,1006.567
8.194092751,47.88591,-17.76161,-41.0492,0.5834734,0.7260564,0.1603026,-3.001381,-38.98404,-9.906507,1006.567
8.226867676,61.49036,-15.98883,-39.09435,0.5576706,0.74347,0.1040182,-1.895626,-39.71552,-9.896458,1006.567
8.259643078,50.49498,-9.07499,-33.41307,0.5705526,0.8481077,0.1476339,-1.895626,-39.71552,-9.896458,1006.567
8.294938564,22.23002,-4.643039,-29.99209,0.5238274,0.8970056,0.1616305,-1.170599,-39.32312,-7.727568,1006.567
8.327713966,6.327106,0.1434683,-32.13021,0.5914692,0.8337079,0.1529009,0.3027625,-40.02661,-5.604589,1006.566
8.360488892,6.63771,3.511751,-36.83406,0.5953046,0.8602507,0.1831776,0.3027625,-40.02661,-5.604589,1006.566
8.393263817,-1.127387,0.3798391,-31.5804,0.5217299,0.9789188,0.2471944,1.037678,-40.39279,-5.599798,1006.566
8.426039219,-20.69543,-5.7658,-25.4715,0.4757396,0.9049308,0.1684716,2.191213,-40.39046,-5.228333,1006.564
8.461335659,-5.724324,-4.406668,-26.93764,0.336414,0.8865949,0.150538,2.191213,-40.39046,-5.228333,1006.564
8.494110584,24.71486,-23.61179,-27.85398,0.3434783,0.9756643,0.1335393,4.010251,-40.40586,-6.038747,1006.568
8.526885510,46.20864,-21.9572,-31.70258,0.4507537,0.9674197,0.009587358,4.73019,-40.05506,-6.91564,1006.57
8.559660912,54.40859,-22.60721,-15.57508,0.5032547,1.148098,0.0144855,4.73019,-40.05506,-6.91564,1006.57
8.594957352,-3.425856,2.802639,7.822012,0.3932354,1.069559,0.05866874,5.09031,-39.66856,-5.243552,1006.57
8.627732277,3.904396,-6.770376,20.1009,0.4021832,0.9915552,0.1069013,5.83344,-40.3873,-4.362808,1006.568
8.660507202,-5.600083,4.220863,24.07169,0.480617,0.873485,0.05298066,5.106012,-40.3796,-3.926757,1006.568
8.693282604,10.61344,4.634512,26.14872,0.396639,0.8691391,0.08928852,5.106012,-40.3796,-3.926757,1006.568
8.726057530,2.351376,0.9116732,24.49931,0.5014093,0.9142231,0.07308714,4.377857,-40.37786,-3.925817,1006.566
8.761353970,-1.251629,8.35735,18.20714,0.3908785,0.8332529,0.04844052,4.01378,-40.37699,-3.925347,1006.566
8.794128895,-8.209156,1.443507,16.25229,0.4428521,0.8415443,0.1277294,4.01378,-40.37699,-3.925347,1006.566
8.826904297,3.966516,-0.6247365,14.66398,0.5779718,0.7699712,0.03846491,1.827863,-40.38364,-4.792751,1006.566
8.859679222,14.03008,6.230014,9.715772,0.5201763,0.7672665,-0.0008655933,0.681712,-40.74532,-4.785534,1006.565
8.894974709,42.35716,5.166346,0.857864,0.4819902,0.6832865,-0.05504233,0.681712,-40.74532,-4.785534,1006.563
8.927750111,68.82061,9.066463,4.950828,0.5695596,0.8336091,0.02491082,1.048696,-40.72241,-3.045557,1006.563
8.960525036,46.20864,13.79388,13.992,0.4118546,0.7813939,-0.0102572,0.6799337,-40.34012,-1.80764,1006.561
8.993300438,66.46002,7.057312,6.783499,0.3894083,0.6077532,-0.0898483,0.6799337,-40.34012,-1.80764,1006.561
9.026075363,108.64,5.048161,-0.6082724,0.4575983,0.7267691,-0.07622993,-0.03116888,-41.03838,0.3181591,1006.559
9.061371803,82.61142,-2.042961,-8.061132,0.4629556,0.9250609,-0.07317197,-0.03367379,-40.63913,2.86094,1006.558
9.094146729,85.65533,-9.547732,-19.60696,0.3856535,0.7284369,-0.2402062,-0.03367379,-40.63913,2.86094,1006.558
9.126921654,161.8775,-19.65258,-17.95755,0.4396922,0.8447224,-0.3921385,-0.7569494,-40.59747,5.783344,1006.558
9.159697056,165.2321,1.384415,8.432902,0.4000188,0.9749156,-0.4625195,0.3430687,-40.53641,10.44385,1006.558
9.194993496,179.4577,0.4980244,47.3466,0.269234,1.060622,-0.3771374,0.3430687,-40.53641,10.44385,1006.558
9.227768421,64.28579,14.91664,68.30014,0.2877215,0.8492,-0.3359469,0.3305708,-39.37941,15.08857,1006.558
9.260543346,31.7345,-1.038385,80.02924,0.3428689,0.54792,-0.2335749,-1.159247,-37.13156,19.28287,1006.558
9.293318749,65.46609,-25.79822,75.63082,0.3693855,0.4083001,-0.3123707,-1.159247,-37.13156,19.28287,1006.558
9.326093674,83.48111,-44.88516,55.53253,0.3433305,0.5384545,-0.3346477,-3.727345,-36.0262,19.70407,1006.558
9.361390114,32.9148,-92.63203,31.95217,0.723976,0.5248406,-0.5088202,-5.556999,-35.25814,22.24348,1006.558
9.394165039,19.37247,-80.28167,-9.40509,1.200119,0.6060212,-0.5432859,-5.556999,-35.25814,22.24348,1006.558
9.426940441,-2.431924,-78.98163,-10.87123,0.5805622,0.7906889,-0.5574983,-5.912965,-35.61067,23.05774,1006.558
9.459715366,-46.10283,-78.3316,-13.55914,0.5743727,0.5415257,-0.521006,-4.071568,-36.7024,23.50769,1006.559
9.495011807,-54.48914,-76.44064,0.3691518,0.3251146,0.5874268,-0.6244581,-4.071568,-36.7024,23.50769,1006.561
9.527786732,-35.91502,-91.68655,-0.8526285,0.1987664,0.8065334,-0.7616767,-2.618062,-36.72882,21.82753,1006.561
9.560562134,-52.62551,-99.72316,-7.450242,0.06904685,0.8341126,-0.7720006,-0.3972859,-38.95549,19.31058,1006.563
9.593337059,-59.64516,-90.68198,14.90834,-0.1217178,0.8441274,-0.5732422,-0.3972859,-38.95549,19.31058,1006.563
9.626111984,-89.09041,-113.019,38.24434,-0.5850143,1.257967,-0.6675953,1.5254,-41.55776,15.92952,1006.563
9.661407948,-204.076,-128.974,13.86982,0.1523977,0.9367657,-0.6082087,3.742645,-43.8133,11.29917,1006.563
9.694182873,-90.2707,-169.6298,2.751623,-0.3896772,1.247126,-0.4302496,4.478121,-45.43413,-0.4890211,1006.563
9.726958275,-243.5848,-157.1613,1.041131,-0.113813,1.001881,-0.5195861,4.478121,-45.43413,-0.4890211,1006.563
9.759733200,-196.4972,-135.5924,-54.48878,0.08036781,0.6012276,-0.5868335,4.806343,-44.46906,-9.830503,1006.565
9.792508125,109.7582,-106.5779,-22.23379,1.420405,1.14474,-1.291212,2.837339,-37.2855,-17.96124,1006.565
9.827804566,-209.7289,39.55828,11.85389,0.5478121,1.557812,-0.2331763,2.837339,-37.2855,-17.96124,1006.566
9.860579968,-449.3909,43.81296,46.7968,0.6515273,0.0559661,-1.031182,0.8397756,-30.60858,-14.27122,1006.566
9.893354893,-35.97714,-36.90765,16.00794,0.1550035,0.4147669,-0.8057492,0.7654018,-26.59978,-14.33425,1006.566
9.926129818,-68.09358,-132.9333,15.09161,0.3450789,1.003659,-0.4653207,0.7654018,-26.59978,-14.33425,1006.568
9.961426258,-153.0748,-188.0667,62.43559,0.1299482,0.8211721,-0.3947379,0.3094699,-21.47386,-12.73571,1006.568
9.994201660,-46.9104,-182.0393,38.73306,0.1228895,0.55693,-0.2142936,-1.536909,-19.93318,-11.4519,1006.568
10.026976585,40.43141,-138.0152,-51.98413,0.1108462,1.115438,-0.2882738,-1.536909,-19.93318,-11.4519,1006.57
10.059751511,-108.9069,-47.42614,-88.75972,0.3878831,0.8546331,-1.076046,-4.454213,-19.54478,-10.2107,1006.57
10.092526913,-107.6024,-11.79325,-45.14217,0.1620798,1.191974,-0.4098139,-4.096897,-19.18121,-10.2169,1006.57
10.127823353,-132.078,12.31656,-5.251038,-0.170773,0.6551195,-0.5194098,-4.096897,-19.18121,-10.2169,1006.571
10.160598278,-13.48942,-1.274756,-4.884503,0.1417752,1.040173,0.05738401,-3.753726,-18.09387,-10.60751,1006.571
10.193373203,34.84054,-4.406668,-3.296189,0.05401289,1.200504,0.1064494,-3.416071,-16.6319,-10.25795,1006.573
10.226148605,-31.93929,-2.397517,-7.144797,0.02799891,0.8837844,-0.0229792,-3.416071,-16.6319,-10.25795,1006.573
10.261444569,-47.53161,-3.224814,-10.19925,0.02450449,1.151484,0.09648468,-3.058754,-16.26834,-10.26415,1006.577
10.294219971,-33.86504,-2.988444,-7.266975,0.06949239,1.024957,0.1273758,-3.780771,-16.63612,-10.63043,1006.577
10.326994896,-36.84683,-6.120356,-28.46486,0.0004380669,0.6767794,0.2185604,-3.780771,-16.63612,-10.63043,1006.577
10.359770298,-62.37847,19.17131,-8.672023,0.6608268,1.47659,1.188621,-3.43167,-15.92001,-11.51258,1006.579
10.392545223,-55.91791,2.979917,-22.11161,0.08317147,1.006169,0.2106473,-3.440611,-15.5734,-12.82365,1006.579
10.427840710,-94.06007,14.56208,-18.14082,-0.008194369,1.039529,0.215146,-3.440611,-15.5734,-12.82365,1006.579
10.460616112,-93.25249,19.17131,-11.84865,0.009098106,0.9180451,0.2340612,-3.077883,-15.58531,-13.63218,1006.581
10.493391037,28.19362,12.7893,-17.46884,0.03375509,0.7448476,0.1615781,-2.001353,-14.87689,-14.95039,1006.581
10.526165962,68.44788,14.14843,-23.15012,-0.04715366,1.10966,0.3316222,-2.001353,-14.87689,-14.95039,1006.579
10.561462402,-66.3542,15.03482,-38.48346,-0.06708897,0.9196635,0.3483222,-2.387064,-13.79374,-15.77517,1006.579
10.594237805,-56.477,10.01195,-46.6083,-0.05823098,0.8548999,0.2694554,-1.286721,-14.14976,-14.96279,1006.579
10.627012730,-29.33022,2.329898,-50.02929,-0.1349606,1.085441,0.3862609,-0.9396958,-13.45063,-17.08812,1006.579
10.659787655,-77.34958,7.88461,-49.4184,-0.1074586,0.7379552,0.3207728,-0.9396958,-13.45063,-17.08812,1006.579
10.692563057,0.3635115,11.72563,-59.25373,-0.2072364,1.089029,0.568863,-0.5897639,-12.72772,-17.473,1006.579
10.727859497,-34.54836,13.32114,-47.34137,-0.1720681,0.9743615,0.425988,0.9271214,-12.73221,-17.53712,1006.581
10.760634422,-30.63476,13.91206,-52.28958,-0.1812267,0.4990235,0.2288864,0.9271214,-12.73221,-17.53712,1006.581
10.793409348,-12.80609,18.87585,-59.07046,-0.1978784,1.021464,0.5068469,1.646439,-12.3865,-18.78696,1006.579
10.826184750,-24.91964,12.84839,-48.92968,-0.3153782,0.8024001,0.4530619,2.725148,-11.66024,-18.79983,1006.581
10.861481190,-29.76506,11.43017,-64.87392,-0.2209349,0.9231579,0.5455588,2.725148,-11.66024,-18.79983,1006.581
10.894256115,-23.24238,21.18046,-73.18202,-0.392545,0.7846799,0.4489394,4.167935,-10.93486,-18.81317,1006.581
10.927031040,-16.90606,23.89873,-73.54855,-0.4807862,0.9496579,0.5365078,4.517764,-10.2128,-19.26021,1006.581
10.959806442,-8.706122,26.43971,-71.83807,-0.516152,0.9218327,0.5698477,4.517764,-10.2128,-19.26021,1006.581
10.992581367,-16.03637,28.50796,-62.30818,-0.4710391,0.6916825,0.3371084,5.595747,-9.492489,-19.70819,1006.581
11.027877808,3.655913,15.68484,-56.93235,-0.6117408,0.8685527,0.4469261,7.404791,-8.750147,-18.41667,1006.581
11.060652733,-8.768243,4.398141,-53.02265,-0.6128724,0.7241061,0.4076748,7.404791,-8.750147,-18.41667,1006.581
11.093428135,-6.718256,2.270805,-45.20325,-0.5903279,0.6346093,0.3976476,7.772723,-9.139232,-20.15186,1006.581
11.126203060,22.91335,2.448083,-45.69197,-0.62107,0.7173547,0.4972377,8.851431,-8.412975,-20.16473,1006.581
11.161499023,-18.39696,-0.6838292,-41.0492,-0.6573094,0.6314394,0.4425779,8.851431,-8.412975,-20.16473,1006.579
11.194273949,-9.637934,-2.161146,-42.82079,-0.5066827,0.5923458,0.4528696,8.473209,-7.688323,-20.54867,1006.579
11.227048874,-24.4848,0.9707659,-42.08772,-0.6515205,0.8551579,0.459556,9.558903,-7.254726,-19.7487,1006.579
11.259824276,-52.19067,7.766424,-42.1488,-0.6246006,0.5687959,0.4998768,9.558903,-7.254726,-19.7487,1006.579
11.292599201,-28.83325,1.266229,-38.11693,-0.7735788,0.5315992,0.5128016,10.2647,-6.180143,-21.01,1006.579
11.327895641,-51.01037,-10.72959,-42.51534,-0.7235169,0.7257183,0.562452,10.61525,-5.452142,-21.02193,1006.577
11.360670567,-64.49058,-10.96596,-51.00671,-0.6267639,0.4622909,0.5250733,10.61525,-5.452142,-21.02193,1006.577
11.393445969,-45.35738,-3.756649,-49.47949,-0.577496,0.3818756,0.5982446,10.59279,-4.376662,-22.34446,1006.577
11.426220894,-49.70583,1.266229,-46.54721,-0.7181323,0.5107676,0.6022348,10.91568,-2.196008,-22.75226,1006.573
11.461517334,-50.01644,-2.220239,-45.81414,-0.7053697,0.4306907,0.4877611,10.91568,-2.196008,-22.75226,1006.577
11.494292259,-50.2028,1.325322,-41.72118,-0.715482,0.4107164,0.5691653,11.26478,-1.479894,-23.63441,1006.577
11.527067185,-60.39061,-3.047536,-37.32277,-0.7963499,0.3109692,0.5401444,11.59505,0.3414178,-23.66353,1006.576
11.559842587,-30.57264,-3.933927,-34.02396,-0.716581,0.2546582,0.5410029,11.59505,0.3414178,-23.66353,1006.576
11.592617512,-39.1453,1.738971,-16.12488,-0.783181,0.3170504,0.698472,11.55448,2.52804,-23.69791,1006.571
11.627913952,10.24071,-3.343,-0.5471834,-0.7248004,0.2455434,0.5708805,12.24738,4.336592,-24.59773,1006.571
11.660688877,51.79951,-5.056688,13.07567,-0.6698672,0.198003,0.4620341,12.23313,5.059522,-25.0443,1006.571
11.693464279,107.584,-2.574795,15.82467,-0.7608792,0.2838591,0.4510492,12.23313,5.059522,-25.0443,1006.573
11.726239205,130.1338,-13.0342,15.64141,-0.7069528,0.2832394,0.5072416,11.51715,4.321354,-25.83996,1006.571
11.761535645,161.2563,-23.72997,17.65734,-0.7273464,0.2770106,0.4764922,12.28441,2.1211,-26.67675,1006.571
11.794310570,158.7715,-28.51648,21.07833,-0.6508994,0.3890593,0.458813,12.28441,2.1211,-26.67675,1006.573
11.827085972,132.6187,-12.97511,20.16199,-0.6961609,0.4219123,0.4049583,11.60224,-0.4392529,-27.44376,1006.573
11.859860897,78.07661,-2.220239,11.97606,-0.7839816,0.6060809,0.450137,10.58438,-4.445442,-27.37932,1006.577
11.892635823,57.01766,12.19837,19.49001,-0.7267501,0.6201806,0.3777758,10.58438,-4.445442,-27.37932,1006.577
11.927932263,43.78593,34.29904,28.95881,-0.7621439,0.5823184,0.2984921,9.540099,-6.988788,-26.96485,1006.579
11.960707665,39.62384,47.4767,36.77821,-0.8063795,0.819591,0.3637046,9.21564,-9.252259,-28.17222,1006.577
11.993482590,16.51491,62.60443,50.7065,-0.7212592,0.7346869,0.2384766,9.21564,-9.252259,-28.17222,1006.571
12.026257515,0.6119946,83.1096,51.19521,-0.7644176,0.7044068,0.2082988,10.33492,-10.71263,-28.15071,1006.571
12.061553478,-116.1751,104.383,42.76493,-0.7458287,1.024905,0.04940368,11.08263,-11.81363,-28.56957,1006.571
12.094328403,-207.3684,145.3933,39.52721,-0.6116302,0.499517,-0.163366,11.08263,-11.81363,-28.56957,1006.571
12.127103806,-104.0615,147.4615,35.61751,-0.6502253,0.6546393,0.1281969,13.28592,-12.92406,-29.42542,1006.571
12.159878731,-161.7717,154.4935,32.9296,-0.5860004,0.8183305,0.1975954,16.91696,-9.311488,-31.16579,1006.576
12.192653656,-177.7367,171.3941,39.89375,-0.5550361,0.2425506,0.1464026,16.91696,-9.311488,-31.16579,1006.576
12.227950096,-143.2597,140.9022,37.87781,-0.6646454,0.8770502,0.541867,21.60973,-7.063583,-30.33701,1006.576
12.260725498,-143.2597,126.0109,48.07967,-0.6634725,0.3584436,0.4136409,28.16575,-3.776576,-28.71883,1006.574
12.293500423,-94.18431,95.28269,41.54315,-0.6214448,0.6847384,0.5699734,28.16575,-3.776576,-28.71883,1006.574
12.326275349,-156.7399,83.9369,26.33198,-0.7241312,0.3746872,0.5812742,32.52396,-3.035247,-27.05764,1006.572
12.361571789,-155.1869,55.69059,21.50595,-0.6998112,0.5629296,0.5871905,36.52558,-2.651539,-24.95514,1006.572
12.394347191,-186.123,62.66353,10.44884,-0.8112893,0.2807937,0.6312027,36.52558,-2.651539,-24.95514,1006.572
12.427122116,-144.0052,45.76302,-11.17667,-0.7735056,0.3019162,0.541548,38.32859,-1.538815,-23.23423,1006.572
12.459897041,-163.8838,64.08176,-49.05186,-0.9959273,0.06216462,0.3003119,40.83333,1.035005,-21.16423,1006.57
12.492672444,43.53745,57.9952,-63.52996,-1.198207,-0.273775,0.07024437,40.83333,1.035005,-21.16423,1006.57
12.527968884,176.7244,24.78512,-39.46089,-1.103774,1.128244,0.4221895,42.66987,3.604481,-19.52848,1006.57
12.560743809,-66.0436,36.2491,-58.76502,-0.8377303,0.294795,0.224975,42.98019,6.591732,-18.70552,1006.57
12.593518734,57.1419,28.74433,-50.45691,-0.7541916,0.3023925,0.3065969,42.98019,6.591732,-18.70552,1006.57
12.626294136,6.513469,32.88081,-56.74908,-0.9819661,0.5235713,0.3092106,44.7885,7.32813,-17.84911,1006.57
12.661590099,13.53312,23.83963,-48.07444,-0.9946415,0.3307416,0.2599511,44.39125,9.156284,-17.50434,1006.569
12.694365502,15.5831,29.80799,-48.50206,-0.9399985,0.4387905,0.3236797,44.34464,11.71329,-17.10933,1006.569
12.727140427,-5.3516,29.80799,-52.28958,-0.9303495,0.2308031,0.1689718,44.34464,11.71329,-17.10933,1006.569
12.759915829,0.9225985,24.60784,-47.28028,-0.9843084,0.2627416,0.2041911,44.3204,13.19396,-15.45397,1006.569
12.792690754,-2.18344,23.54417,-47.09702,-0.9796537,0.3505607,0.220414,44.65961,14.66867,-14.17202,1006.569
12.827987194,-6.904619,22.83506,-46.42504,-0.9709457,0.1546608,0.1942137,44.65961,14.66867,-14.17202,1006.569
12.860762119,2.537739,21.18046,-50.76236,-0.9653502,0.2506,0.186354,43.89224,16.86807,-13.3974,1006.57
12.893537045,-1.997078,12.55293,-52.10632,-1.057971,0.1855771,0.1221692,43.50257,18.33858,-12.54962,1006.57
12.926312447,-6.656136,12.73021,-53.26701,-1.021359,0.1227501,0.2184494,43.50257,18.33858,-12.54962,1006.57
12.961607933,0.1771492,15.98031,-49.9682,-1.007733,0.1036251,0.1833065,43.10356,20.22238,-12.57876,1006.57
12.994383335,-6.097049,18.10764,-50.76236,-1.02473,0.1074967,0.2001887,42.33702,22.42858,-11.30686,1006.57
13.027158260,-7.712189,19.76224,-53.26701,-1.010651,0.1040343,0.175611,42.33702,22.42858,-11.30686,1006.572
13.059933186,-16.4091,21.12137,-54.61097,-1.061553,0.06095967,0.1358437,41.92696,24.99155,-10.53844,1006.572
13.092708588,-18.58332,20.0577,-50.82344,-1.055555,-0.01360053,0.1224637,40.38366,26.45888,-10.12429,1006.572
13.128005028,-22.49693,22.83506,-45.32543,-1.031153,-0.06348804,0.133071,40.38366,26.45888,-10.12429,1006.57
13.160779953,-34.23776,22.89415,-36.65079,-1.105817,-0.1067895,0.1593068,39.63198,27.94724,-8.032869,1006.572
13.193554878,-21.31664,19.58496,-30.66407,-1.07778,-0.06812137,0.08312691,37.78735,29.43228,-6.375153,1006.576
13.226330280,-20.63331,14.85755,-25.89913,-0.9867875,-0.1628697,0.006036016,37.78735,29.43228,-6.375153,1006.575
13.261626720,-27.40448,16.45305,-26.38784,-0.9555718,0.002715103,0.1072797,37.05462,29.81629,-5.074608,1006.575
13.294401646,-38.46198,19.58496,-23.02794,-0.9845478,-0.2814502,0.04038611,36.67306,30.9334,-3.413039,1006.575
13.327176571,-14.11063,19.2895,-11.05449,-0.9188851,-0.122085,0.04624788,36.67306,30.9334,-3.413039,1006.575
13.359951973,-37.84077,21.23956,-0.4250054,-1.019208,-0.1972345,0.07596216,35.57687,31.32338,-1.739072,1006.575
13.392726898,-43.80436,22.36232,-18.93498,-0.8981754,-0.04728195,0.06245231,34.85234,31.35484,0.4374266,1006.575
13.428023338,-79.46169,19.23041,-21.62289,-1.026964,-0.03548397,-0.1172893,34.85234,31.35484,0.4374266,1006.576
13.460798264,-53.37096,9.65739,-22.60032,-1.037005,-0.3058829,-0.118302,34.49035,31.3727,1.681073,1006.576
13.493573666,-48.21494,10.30741,-16.0027,-1.050513,-0.1283429,-0.06510642,33.03892,31.4161,4.604416,1006.575
13.526348591,-42.87255,12.73021,-14.84201,-1.084738,-0.2156392,0.02945324,33.03892,31.4161,4.604416,1006.573
13.561645031,-53.55732,14.32571,-12.82608,-1.121806,-0.1523475,0.0005640581,32.67691,31.43396,5.848063,1006.575
13.594419956,-42.49982,6.820941,-20.15676,-1.063211,-0.3190121,-0.1538409,33.031,32.19083,7.949533,1006.573
13.627195358,-44.73617,1.620785,-14.41439,-1.012747,-0.08679041,-0.08836398,33.031,32.19083,7.949533,1006.573
13.659970284,-41.56801,-1.156571,-11.54321,-0.9579464,-0.2384159,0.03351909,32.32531,31.11709,9.272997,1006.571
13.692745209,-17.77575,-0.4474585,-9.160735,-0.9651346,-0.2940665,-0.04628604,31.61275,30.40694,10.52857,1006.569
13.728041649,-36.72259,1.916249,-9.893803,-0.9628716,-0.2243914,-0.04495233,30.88605,30.42058,11.39974,1006.569
13.760817051,-34.17564,-2.870258,-11.54321,-0.9881144,-0.2406623,-0.1132213,30.88605,30.42058,11.39974,1006.568
13.793591976,-9.203089,-7.184024,-3.907079,-0.9069596,-0.2622048,-0.08690642,30.53757,29.70956,12.65484,1006.568
13.826366902,1.978652,-3.520278,-5.312127,-0.9079542,-0.25349,-0.0931749,30.18098,29.35194,13.09615,1006.568
13.861663342,-0.009213155,6.3482,-11.11558,-0.9604359,-0.2389,-0.103181,30.18098,29.35194,13.09615,1006.568
13.894438744,25.70879,1.443507,-1.891142,-1.01334,-0.2531257,-0.124214,30.20127,28.25863,13.11334,1006.568
13.927213669,28.87695,0.9707659,2.140733,-1.084941,-0.1526389,-0.0856867,29.82294,28.98244,12.66724,1006.568
13.959988594,0.1771492,-0.9792926,0.3691518,-1.094874,-0.2688271,-0.1129256,29.82294,28.98244,12.66724,1006.568
13.992763996,40.61777,-5.11578,6.844588,-0.9733092,-0.3585537,-0.2050188,29.46563,28.61887,12.67344,1006.568
14.028059483,2.910463,6.407292,5.989341,-1.046451,-0.2114131,-0.1092761,30.19992,28.24759,12.30528,1006.568
14.060834408,12.16646,3.807214,7.516567,-1.005423,-0.3209685,-0.1544563,30.19992,28.24759,12.30528,1006.568
14.093609810,10.05435,3.629937,8.921614,-1.022396,-0.3172323,-0.08703106,30.20054,28.25269,12.67823,1006.566
14.126385689,46.64349,-7.597673,14.90834,-1.009251,-0.3317304,-0.08655901,30.20803,27.8942,13.11907,1006.566
14.159160614,68.57213,-8.661342,19.73437,-0.9749572,-0.2473963,-0.04681444,30.20803,27.8942,13.11907,1006.566
14.194456101,61.6146,-9.134084,28.16465,-0.9333792,-0.160973,0.004462396,30.20523,27.87127,11.44079,1006.566
14.227231503,40.61777,-0.4474585,31.89108,-0.9309499,-0.1700239,-0.03933365,30.93058,27.8466,9.761559,1006.564
14.260006428,49.31468,1.916249,37.26692,-0.9893445,-0.1159128,-0.03205627,30.93058,27.8466,9.761559,1006.565
14.292781353,2.66198,0.6162097,30.48604,-0.9239548,-0.03859472,0.01195738,31.30069,27.47534,9.331707,1006.565
14.328077793,-15.78789,-2.811166,26.57634,-0.8990033,-0.1162722,0.01779162,32.41851,26.00309,8.482993,1006.565
14.360853195,10.30284,-14.33424,27.3705,-0.9013187,-0.1605014,0.03374871,32.41851,26.00309,8.482993,1006.563
14.393628121,31.48602,-19.65258,27.85921,-0.9703325,-0.1332726,0.04012906,33.16841,24.91992,9.369468,1006.562
14.426403046,37.26325,-25.85731,30.79148,-1.018026,-0.09191258,0.0218881,33.91611,23.81892,8.950605,1006.562
14.459178448,38.62991,-26.92098,33.72375,-0.9592447,-0.0985704,0.04438272,33.91611,23.81892,8.950605,1006.562
14.494474888,36.33144,-28.69376,35.00662,-1.004856,-0.1090583,0.06183573,35.37566,23.42212,6.841057,1006.56
14.527249813,32.60419,-27.03917,30.60821,-0.9160674,-0.07759067,0.06783541,35.39376,22.31098,5.552912,1006.56
14.560024738,26.08151,-21.42536,27.18723,-0.9433988,-0.01585133,0.08417349,35.39376,22.31098,5.552912,1006.558
14.592800141,22.23002,-19.35712,22.05575,-0.9588381,-0.05433888,0.1011158,36.50348,21.19212,3.890404,1006.558
14.628096581,25.27394,-18.94347,21.50595,-0.979943,0.04450061,0.1221968,37.23704,20.8149,3.08713,1006.556
14.660871506,12.6013,-22.01629,22.17793,-0.9473681,0.0211805,0.09134752,37.23704,20.8149,3.08713,1006.556
14.693646431,18.44066,-18.94347,23.09426,-0.9011514,-0.01140846,0.1119856,37.2571,19.64982,2.29721,1006.556
14.726421833,20.98761,-18.29345,24.62149,-0.9401718,0.05927621,0.09801209,37.2699,18.915,1.873559,1006.555
14.759196758,21.98154,-18.7071,23.82733,-0.9439878,0.02798705,0.08555289,37.2699,18.915,1.873559,1006.555
14.794493199,24.77698,-17.99798,22.66664,-0.9504292,0.08906046,0.1210969,37.64677,18.17931,1.449437,1006.553
14.827268124,21.17397,-19.23893,23.64407,-0.9421887,0.0934523,0.1124062,38.38565,17.42576,-0.2183306,1006.553
14.860043526,21.36033,-13.21148,22.84991,-0.959707,0.1134252,0.1340789,38.76928,16.32563,-0.6367223,1006.553
14.892818451,17.63309,-15.92974,23.52189,-0.9641364,0.1397384,0.1412702,38.76928,16.32563,-0.6367223,1006.551
14.928114891,24.90122,-10.19775,22.17793,-0.980634,0.1322082,0.1288053,38.77459,15.94931,-1.501216,1006.551
14.960889817,24.34213,-13.44785,21.50595,-0.9647427,0.1913893,0.1455261,39.50888,15.57803,-1.869378,1006.549
14.993665218,21.79518,-8.070415,24.80476,-0.9400927,0.248409,0.191111,39.50888,15.57803,-1.869378,1006.548
15.026440144,7.631643,-5.411244,30.42495,-1.082072,0.3325896,0.2105754,39.16291,14.46776,-3.157054,1006.548
15.059215069,-3.922822,-10.13866,34.33464,-1.053655,0.2191064,0.176021,39.91208,13.37865,-2.705692,1006.548
15.094511509,15.14826,-12.2069,32.68524,-1.011775,0.1561898,0.1129581,39.91208,13.37865,-2.705692,1006.548
15.127286911,30.61633,-10.67049,31.34128,-0.9463444,0.2139465,0.1454484,40.6523,12.63614,-3.565395,1006.548
15.160061836,33.59813,-6.888561,28.40901,-0.919167,0.2260729,0.1756915,40.30642,11.52672,-4.790912,1006.546
15.192836762,27.13757,-1.865683,25.23238,-0.9183255,0.2861828,0.2039992,40.30642,11.52672,-4.790912,1006.544
15.228133202,15.21038,0.2616537,25.47674,-0.9310574,0.3328956,0.2131049,41.06308,10.07911,-3.898708,1006.544
15.260908604,10.11647,3.216288,32.07435,-0.9151053,0.3586777,0.1894415,41.08264,8.979858,-4.316629,1006.542
15.293683529,-1.065266,7.116405,39.28286,-0.9428113,0.3645672,0.1591725,41.08264,8.979858,-4.316629,1006.542
15.326458454,-3.73646,8.652814,43.07037,-0.9374138,0.3422554,0.1659324,41.10365,7.892493,-3.864328,1006.542
15.359233856,-2.742527,9.421019,43.07037,-0.9282838,0.3782116,0.1427512,41.55545,6.433727,-3.841956,1006.541
15.394529343,-11.68792,8.948277,39.16068,-0.9044738,0.3670612,0.1215316,41.55545,6.433727,-3.841956,1006.541
15.427305222,-0.5061794,6.939126,33.84593,-0.8903267,0.337393,0.1104715,41.52356,4.920479,-3.44505,1006.543
15.460080147,10.73768,5.225439,25.41565,-0.8845498,0.3619169,0.1282312,41.97006,3.838038,-2.558184,1006.543
15.492855549,9.12254,3.866307,16.06903,-0.888016,0.3906398,0.1306029,41.97006,3.838038,-2.558184,1006.541
15.528151035,7.072556,0.4980244,5.011917,-0.8924118,0.4013146,0.1301159,41.99638,2.374346,-2.970376,1006.543
15.560925961,5.519536,-1.688405,-2.379854,-0.8812178,0.3922145,0.1387676,41.6451,1.6404,-3.393558,1006.543
15.593701363,7.445281,-3.047536,-5.556483,-0.8870126,0.3770079,0.1301397,41.6451,1.6404,-3.393558,1006.543
15.626476288,9.557385,-4.997595,-5.495394,-0.8996692,0.3915602,0.1368869,42.01666,1.281035,-2.953186,1006.541
15.659252167,8.066487,-6.41582,-4.701237,-0.9025617,0.3827694,0.136907,42.00387,2.015853,-2.529534,1006.541
15.694547653,4.587725,-6.356727,-5.373216,-0.9273582,0.392156,0.1157717,42.00241,2.003965,-3.399758,1006.541
15.727323055,-0.2576963,-7.656766,-6.594996,-0.9603336,0.374371,0.1192463,42.00241,2.003965,-3.399758,1006.543
15.760097981,18.2543,-5.411244,-7.389153,-0.9447954,0.3775333,0.1350896,41.63834,2.004838,-3.399288,1006.543
15.792872906,27.01332,-3.697556,-8.610933,-0.9307365,0.3914415,0.1571779,41.99492,2.362459,-3.840599,1006.541
15.828169346,35.8966,1.975342,-6.228462,-0.9011823,0.419963,0.1609157,41.99492,2.362459,-3.840599,1006.541
15.860944748,19.24823,6.820941,-6.900441,-0.9018661,0.5113175,0.2016954,41.62346,2.722674,-4.218812,1006.54
15.893719673,-13.1167,12.67112,-7.877865,-0.9041781,0.4585544,0.1810819,41.62554,2.739656,-2.975636,1006.54
15.926494599,-13.17882,15.56666,-6.472818,-0.9006623,0.4068675,0.1681547,41.62554,2.739656,-2.975636,1006.54
15.959270001,-8.768243,16.39396,-4.456881,-0.8715451,0.4179591,0.1873234,41.98213,3.097276,-3.416948,1006.54
15.994566441,-12.49549,18.04855,-2.929655,-0.8875781,0.4181852,0.1690693,41.6195,3.110037,-2.546254,1006.541
16.027341366,-27.03175,15.80303,-4.701237,-0.9031153,0.4185761,0.1739192,41.6195,3.110037,-2.546254,1006.54
16.060116291,-38.52409,15.15301,-7.022619,-0.8904104,0.3714414,0.1041626,41.97828,3.485488,-1.682231,1006.541
16.092891693,-18.58332,10.95743,-9.893803,-0.9320878,0.3349861,0.09468921,41.6013,4.22033,-1.320268,1006.541
16.128188133,-11.87428,5.816366,-13.19261,-0.9240089,0.4111081,0.1056266,41.6013,4.22033,-1.320268,1006.54
16.160963059,-9.575813,2.625361,-15.14746,-0.930777,0.3978782,0.1022931,41.60275,4.232217,-0.4500449,1006.54
16.193737984,-1.748595,-0.3883658,-16.18597,-0.9507259,0.4137471,0.09702151,41.16447,4.96211,-0.4609563,1006.538
16.226513386,-3.922822,-3.57937,-17.28557,-1.017807,0.441859,0.08799237,41.16447,4.96211,-0.4609563,1006.54
16.259288311,-1.37587,-10.78868,-17.22449,-0.9822304,0.3775057,0.03601792,41.16374,4.956167,-0.8960679,1006.541
16.294584751,11.29677,-12.38418,-15.14746,-0.9661973,0.3717247,0.02588001,41.51429,5.684168,-0.9079978,1006.541
16.327359676,15.52098,-13.27057,-11.90974,-0.9482423,0.3777625,0.03208602,41.51429,5.684168,-0.9079978,1006.541
16.360135079,15.2725,-14.98426,-6.900441,-0.9147761,0.3986645,0.05604323,41.56894,6.054403,-0.4786947,1006.541
16.392910004,9.86799,-12.97511,-2.440943,-0.9560918,0.4143251,0.04649038,40.75589,7.187418,-2.17411,1006.541
16.428206444,3.718033,-14.51152,2.873801,-0.9768624,0.3643302,0.02591645,40.75589,7.187418,-2.17411,1006.543
16.460981369,10.4892,-7.479488,0.5524189,-1.012119,0.2816399,0.01360929,40.75589,7.187418,-2.17411,1006.543
16.493756771,20.98761,-10.49321,-7.816776,-1.070898,0.2903497,0.006033793,41.11249,7.545039,-2.615421,1006.543
16.526531696,28.1315,-3.57937,-24.67735,-0.9818907,0.2363316,0.04537576,41.11249,7.545039,-2.615421,1006.543
16.559306622,36.95265,1.738971,-38.97218,-0.9048174,0.3081571,0.1259535,40.75444,7.17553,-3.044333,1006.543
16.594603062,-1.934957,5.520902,-47.34137,-0.9012031,0.4368132,0.2027689,40.7274,8.633278,-3.067253,1006.541
16.627378464,-38.64833,9.066463,-53.26701,-0.8975079,0.304079,0.1610817,40.7274,8.633278,-3.067253,1006.541
16.660153389,-53.93005,8.002794,-56.68799,-0.9795486,0.2905777,0.139154,40.34168,9.716423,-3.892038,1006.541
16.692928314,-60.82545,4.693604,-57.84868,-1.002655,0.1945242,0.08159015,39.9594,10.82759,-2.665581,1006.546
16.728224755,-33.55443,-4.406668,-60.71986,-1.041066,0.007014507,0.05789578,38.82806,13.02872,-1.828329,1006.544
16.761000157,0.4877531,-8.661342,-59.13155,-0.9998481,0.03680813,0.09048571,38.82806,13.02872,-1.828329,1006.542
16.793775082,28.25574,-15.457,-61.88056,-0.9465297,-0.1319058,0.06798952,38.41665,15.58065,-1.867969,1006.542
16.826550007,64.03731,-16.87522,-60.10897,-0.9404351,-0.02716076,0.1352078,37.64647,17.75713,-2.771632,1006.542
16.859325409,38.94051,-16.69795,-60.04789,-0.9191774,0.02134696,0.1514506,37.64647,17.75713,-2.771632,1006.542
16.894621372,15.83158,-7.006746,-52.22849,-0.9808081,0.002712018,0.137184,36.89596,18.8352,-4.031059,1006.54
16.927396775,22.10578,-1.688405,-39.33871,-0.9145676,-0.08700767,0.1126127,36.11717,21.43091,-5.376519,1006.54
16.960171700,31.48602,6.230014,-28.95358,-0.9300312,-0.1203187,0.1035537,36.11717,21.43091,-5.376519,1006.54
16.992947102,35.08903,11.13471,-27.36526,-0.953704,-0.1706676,0.1056112,35.00392,22.5209,-5.827412,1006.54
17.028243065,39.4996,14.91664,-31.09169,-0.9159024,-0.132089,0.144935,34.26828,22.88114,-6.267314,1006.54
17.061018467,36.70417,19.99861,-38.91109,-0.9455389,-0.1149185,0.1984106,34.26828,22.88114,-6.267314,1006.54
17.093793392,30.61633,19.2895,-43.61494,-0.9281499,-0.07781223,0.1906116,33.5185,23.96516,-7.091628,1006.54
17.126568317,23.90729,25.78969,-44.04256,-0.9602914,-0.04217358,0.1713797,32.77609,24.68983,-7.53726,1006.54
17.159343720,20.80125,24.96239,-40.4994,-0.9747772,-0.07082545,0.2008203,32.77609,24.68983,-7.53726,1006.54
17.194640160,18.8755,24.1351,-35.79555,-1.021404,-0.07191234,0.1706067,32.03441,25.42045,-7.547781,1006.542
17.227415085,19.62095,19.82133,-32.1913,-0.9764925,0.02260608,0.1212589,30.92262,26.52232,-7.128449,1006.545
17.260190010,-3.487977,17.51672,-30.60298,-0.9689897,-0.07139289,0.1122369,30.92262,26.52232,-7.128449,1006.545
17.292965412,17.75733,15.80303,-24.18863,-0.9686275,-0.2319159,0.07059947,30.16066,28.34625,-7.156159,1006.545
17.328260899,45.09047,13.43932,-16.12488,-0.9233899,-0.04391088,0.1573353,29.42575,28.71244,-7.16095,1006.545
17.361036778,8.190729,15.62575,-12.64281,-0.9717814,-0.1225516,0.112802,29.42575,28.71244,-7.16095,1006.545
17.393811703,-11.75004,17.6349,-6.533907,-1.017653,-0.2426765,0.0529216,29.06167,28.71331,-7.16048,1006.545
17.426587105,16.14219,13.26204,-4.456881,-1.097767,-0.2564061,-0.00414974,28.68334,29.43711,-7.606582,1006.543
17.459362030,-6.780377,12.19837,-8.672023,-1.006468,-0.2488745,0.05868075,28.68334,29.43711,-7.606582,1006.543
17.494657993,17.32248,17.81218,-10.87123,-0.8621722,-0.5044975,-0.03417904,28.67658,29.80154,-7.612312,1006.543
17.527433396,48.25863,10.83924,-18.69062,-0.8749148,-0.2220695,0.1132036,28.31323,29.80836,-7.17673,1006.543
17.560208798,17.75733,4.929976,-24.79952,-0.8674409,-0.3119766,0.062297,28.31323,29.80836,-7.17673,1006.541
17.592983723,17.32248,4.102678,-25.4715,-0.8560158,-0.2023032,0.1314207,27.95373,29.42697,-8.475865,1006.541
17.628279686,22.91335,0.4980244,-19.60696,-0.9063348,-0.06858734,0.1602202,27.13713,30.88066,-8.932879,1006.54
17.661054611,1.357444,-3.933927,-5.923017,-0.8717061,-0.1487446,0.07794604,27.13713,30.88066,-8.932879,1006.538
17.693829537,7.010435,-0.2701804,4.950828,-0.8645188,-0.08098353,0.2183845,26.41366,30.50099,-10.16938,1006.54
17.726604939,-59.58304,4.339048,2.385089,-0.8669355,-0.1121503,0.08173046,26.0421,30.86036,-10.60976,1006.54
17.759380341,-77.4117,9.00737,1.285487,-1.048747,-0.72407,-0.3583248,26.0421,30.86036,-10.60976,1006.544
17.794676304,49.56317,-13.32966,-8.549845,-0.9134995,-0.3870359,-0.1704597,24.95132,30.87486,-9.738124,1006.544
17.827451229,87.51896,-7.065839,-3.723812,-1.041716,-0.294055,0.2576349,25.30863,31.23842,-9.744324,1006.546
17.860226631,76.70995,-15.57519,-0.1195603,-1.220831,-0.5052363,0.360908,24.56946,31.56979,-12.29762,1006.544
17.893001557,83.41899,-4.87941,14.11418,-1.261463,-0.2228376,0.04721227,24.56946,31.56979,-12.29762,1006.544
17.925777436,47.82378,2.802639,18.39041,-1.062211,-0.3720919,-0.3641183,23.84912,30.79596,-15.70396,1006.544
17.961072922,74.03875,3.748122,8.55508,-0.9551138,-0.2073291,0.01806194,23.8666,29.67972,-17.36506,1006.546
17.993848324,36.02084,7.057312,17.59625,-1.09325,0.1828485,0.4726883,23.8666,29.67972,-17.36506,1006.547
18.026623249,13.34675,4.929976,11.36518,-1.220061,-0.4886783,0.009487163,23.52604,28.19398,-19.45507,1006.546
18.059398174,14.0922,3.570844,5.622808,-0.9854953,-0.285634,0.07023908,23.53883,27.45916,-19.87872,1006.546
18.094694614,9.433145,5.402717,12.64804,-0.9006771,-0.2060416,0.13779,23.53883,27.45916,-19.87872,1006.546
18.127470017,8.31497,10.83924,-0.5471834,-0.9062852,-0.3294588,-0.02374827,23.551,26.71925,-20.67532,1006.546
18.160244942,11.23465,10.48469,0.1858848,-0.9308292,-0.172169,0.2124215,24.28592,26.35307,-20.67053,1006.546
18.193019867,-4.60615,13.97116,9.043792,-1.026216,-0.330893,-0.01575986,24.28592,26.35307,-20.67053,1006.546
18.225795269,3.904396,12.67112,9.410326,-1.113504,-0.4167234,-0.2070055,23.91498,26.71753,-20.73795,1006.546
18.261091232,16.32855,15.50756,19.85655,-0.9044621,-0.236842,0.1956088,24.29196,25.98269,-21.09991,1006.547
18.293866634,-11.9364,20.94409,25.29347,-0.9954057,-0.193359,0.1144088,24.29196,25.98269,-21.09991,1006.547
18.326641560,-2.12132,14.85755,20.34526,-1.024302,-0.1075601,0.02048248,25.02615,25.61056,-21.53024,1006.547
18.359416962,13.53312,5.816366,11.42626,-0.9806334,-0.07537629,0.1137146,26.14001,24.52567,-20.70639,1006.547
18.394712925,-21.99997,17.10307,18.39041,-1.003955,-0.2748021,0.1092568,26.14001,24.52567,-20.70639,1006.552
18.427488327,23.3482,12.96658,16.61883,-1.015215,-0.2748204,-0.09000017,26.13939,24.52058,-21.07934,1006.552
18.460263252,-4.419788,9.893761,30.85257,-1.095114,0.07999378,0.1118265,26.50409,24.5248,-20.70686,1006.55
18.493038654,0.6119946,13.38023,37.08365,-1.018519,-0.264768,0.1689651,26.50409,24.5248,-20.70686,1006.55
18.525813580,26.20576,6.998219,32.99068,-1.014004,-0.1862113,-0.1661918,28.04136,23.42785,-20.69163,1006.55
18.561110020,-21.503,-0.4474585,36.77821,-0.9062523,-0.1546911,-0.1053619,28.41896,22.6981,-20.68064,1006.552
18.593884945,3.655913,2.507176,34.82336,-0.935064,-0.2675844,0.01377295,28.41896,22.6981,-20.68064,1006.552
18.626659870,-1.810716,6.702756,44.78086,-0.9446905,0.1513784,0.250957,29.18238,20.88606,-19.78271,1006.552
18.659435272,-52.99823,18.40311,46.247,-0.9469795,-0.4243196,-0.3089563,29.55176,20.50886,-20.64767,1006.553
18.694731713,11.73161,9.539205,40.6879,-1.032953,0.2705587,0.05603524,29.55176,20.50886,-20.64767,1006.555
18.727506638,-84.55559,20.29407,50.03452,-0.8311823,-0.2757736,-0.09813703,30.30205,19.35901,-20.19535,1006.555
18.760281563,-18.76969,38.96736,43.74235,-1.019563,0.152801,0.05521824,32.15166,17.91473,-18.86945,1006.553
18.793056965,-90.58131,26.32153,66.77292,-1.293922,0.3437466,-0.03154529,32.15166,17.91473,-18.86945,1006.553
18.825831890,-95.79945,20.23498,42.88711,-0.7420303,-0.2194471,-0.2298451,32.52323,17.55536,-18.42907,1006.553
18.861128330,-82.56773,19.88042,18.26823,-0.6445262,0.2799336,0.02669948,34.3667,16.48062,-16.73595,1006.549
18.893903256,-74.49203,12.73021,28.22574,-0.8647004,0.1495242,-0.04189784,35.4685,16.13649,-15.05334,1006.549
18.926678658,-32.5605,26.73518,19.73437,-0.8037888,-0.1183382,0.09651222,35.4685,16.13649,-15.05334,1006.549
18.959453583,-49.51947,25.84879,45.39175,-1.048178,0.5081511,-0.1479028,35.81978,16.87044,-14.63016,1006.549
18.994750023,-60.39061,21.23956,49.36254,-1.094137,0.2831462,0.1187384,37.28431,16.51439,-13.75608,1006.549
19.027524948,-27.83932,14.68027,55.83798,-1.02957,0.2223375,-0.2288663,37.28431,16.51439,-13.75608,1006.553
19.060300350,-13.17882,10.24832,56.44887,-1.088702,0.4285963,0.01693898,38.39068,15.788,-13.37308,1006.553
19.093075275,-15.29093,11.962,53.51659,-0.8483785,0.01288534,-0.09997539,38.7609,15.41759,-13.74077,1006.555
19.125850201,11.17253,16.74851,51.31739,-0.8057798,0.4778967,-0.09740775,38.7609,15.41759,-13.74077,1006.555
19.161146641,3.780154,22.77597,62.19123,-1.215002,0.423183,-0.11946,40.25777,13.22748,-13.70827,1006.555
19.193922043,-23.80147,24.66693,66.71183,-0.9201275,0.3858316,-0.03201393,41.03326,10.67467,-13.6691,1006.555
19.226696968,-2.92889,21.59411,59.32005,-0.7167274,0.7968335,-0.1452731,41.03326,10.67467,-13.6691,1006.555
19.259471893,-12.86821,14.3848,49.48472,-0.8002092,0.3724188,-0.1439541,42.94199,9.217516,-13.27566,1006.555
19.294768334,-18.45908,11.37108,51.74501,-0.8136168,0.4954568,-0.1542163,42.98932,6.666455,-13.23555,1006.555
19.327543736,-7.028861,0.3798391,55.28818,-0.9865343,0.7032642,-0.249429,42.98932,6.666455,-13.23555,1006.555
19.360318661,-11.9364,-2.456609,81.12884,-1.132471,0.6433457,-0.07570232,44.46642,5.50382,-13.59223,1006.555
19.393093586,-36.03926,-2.042961,95.91238,-0.6109601,0.6402943,-0.09089416,45.21413,4.402819,-14.0111,1006.555
19.425868988,-33.7408,-10.72959,107.8858,-0.2881926,0.544418,0.1616811,45.21413,4.402819,-14.0111,1006.555
19.461165428,-68.15571,-21.30717,108.1302,-0.6095681,0.6322192,-0.2733214,45.29381,0.01768827,-14.81256,1006.553
19.493940354,-122.6356,-47.13068,67.75034,-0.6543407,1.069706,-0.3417466,45.7099,-2.915663,-16.01036,1006.553
19.526715279,-119.1569,-62.84933,57.79283,-0.9016854,1.05964,0.2591134,45.7099,-2.915663,-16.01036,1006.557
19.559490681,-124.8099,-50.49896,43.92562,-0.8847564,1.064809,0.1416131,46.10884,-5.149859,-19.39519,1006.556
19.594787121,-44.2392,-74.96333,45.63611,-0.8530331,0.98728,0.0906304,45.76006,-6.283056,-22.36115,1006.556
19.627562046,-22.37269,-64.85847,42.58166,-0.5422395,0.8342853,0.4083039,45.76006,-6.283056,-22.36115,1006.556
19.660336971,14.15432,-48.48981,17.96279,-0.6092409,1.022231,0.3412703,44.6771,-7.044126,-24.89679,1006.556
19.693112374,16.32855,-35.43033,14.11418,-0.4593004,0.8304857,0.1823543,42.87677,-8.204852,-25.68436,1006.556
19.725887299,29.31179,-29.10741,1.652021,-0.3861105,0.6972298,0.2622876,42.87677,-8.204852,-25.68436,1006.554
19.761183739,11.85585,-13.80241,-5.556483,-0.3838862,0.8082288,0.3930454,41.39359,-10.0234,-25.65376,1006.554
19.793958664,-3.115252,-11.02505,-9.099646,-0.4044392,0.6338342,0.2027377,40.31623,-10.73862,-24.83282,1006.556
19.826734066,-1.686474,-8.602249,-7.57242,-0.4242731,0.5994725,0.1879144,40.31623,-10.73862,-24.83282,1006.557
19.859508991,-18.45908,-5.529429,-8.794201,-0.5368117,0.7543517,0.1831343,38.50333,-11.09275,-24.38963,1006.557
19.894805432,-13.61366,-7.30221,-4.151435,-0.6127731,0.8499016,0.2173471,38.5026,-11.09869,-24.82474,1006.556
19.927580357,-2.245561,-11.97053,5.867163,-0.646335,0.8840789,0.2698436,38.13852,-11.09782,-24.82427,1006.556
19.960355759,2.289255,-14.86607,12.83131,-0.6016076,0.8625857,0.2769904,38.13852,-11.09782,-24.82427,1006.556
19.993130684,10.30284,-15.87065,13.74765,-0.5147076,0.8716371,0.2835097,38.13114,-10.73848,-25.20296,1006.554
20.025905609,17.19824,-11.08414,6.233697,-0.4791316,0.8143533,0.2676267,37.40975,-11.10117,-25.19629,1006.554
20.061202049,15.64522,-3.815742,-0.05847127,-0.4748874,0.8639426,0.2497315,37.40975,-11.10117,-25.19629,1006.556
20.093976975,9.86799,2.270805,0.1247958,-0.5557967,0.7888045,0.2577384,37.05981,-11.82408,-24.8114,1006.556
20.126752377,11.54525,-1.747497,6.111519,-0.4959657,0.7384311,0.2259026,36.70323,-12.1817,-24.37009,1006.554
20.159527302,18.06793,-4.524854,9.77686,-0.4883145,0.7816069,0.192124,36.70323,-12.1817,-24.37009,1006.554
20.194823742,6.016502,-3.638463,8.432902,-0.4495966,0.8319641,0.1731832,36.71071,-12.54019,-23.92925,1006.554
20.227598667,3.158946,-5.11578,2.140733,-0.461733,0.8354428,0.1977562,36.36016,-13.26819,-23.91732,1006.554
20.260374069,-5.3516,-2.161146,-4.823414,-0.4724773,0.8556012,0.1679068,36.36016,-13.26819,-23.91732,1006.554
20.293148995,-5.413721,-2.870258,-8.305489,-0.5142597,0.8730703,0.2088954,36.37223,-14.00895,-24.77608,1006.56
20.325923920,-9.016726,-3.933927,-9.099646,-0.5486369,0.8339076,0.2215513,36.00212,-13.6377,-24.34623,1006.56
20.361220360,-5.289479,-6.297634,-6.778263,-0.519475,0.8224621,0.2214994,36.00212,-13.6377,-24.34623,1006.56
20.393995762,-0.878904,-4.052112,-6.35064,-0.5005502,0.8335422,0.2512823,35.63876,-13.63088,-23.91065,1006.56
20.426770687,-1.748595,-0.9202,-6.717174,-0.4889211,0.840831,0.2348774,35.98256,-12.53844,-23.92831,1006.558
20.459545612,-3.922822,2.38899,-7.57242,-0.4980905,0.8163793,0.2315665,35.98256,-12.53844,-23.92831,1006.558
20.494842053,-2.494044,4.575419,-6.96153,-0.4858421,0.7691922,0.2248695,35.98859,-12.90882,-24.35769,1006.56
20.527617931,-3.984943,8.120979,-6.900441,-0.5252914,0.8225775,0.2450998,35.98859,-12.90882,-24.35769,1006.56
20.560392380,-6.034928,12.55293,-4.151435,-0.5311376,0.8282861,0.2325896,35.98859,-12.90882,-24.35769,1006.56
20.593167305,-4.357667,12.73021,-0.9748065,-0.5373423,0.7834472,0.2355601,35.98328,-12.5325,-23.4932,1006.56
20.625942707,6.327106,14.08934,1.529843,-0.5645537,0.7879633,0.2173261,36.70468,-12.16981,-23.49987,1006.56
20.661239147,1.730169,14.4439,1.041131,-0.5491341,0.8352374,0.2032588,36.70468,-12.16981,-23.49987,1006.56
20.694014073,-2.369803,13.26204,0.1247958,-0.544768,0.8377358,0.2070955,36.70468,-12.16981,-23.49987,1006.56
20.726788998,-2.059199,14.97573,-0.6693614,-0.5773599,0.8708935,0.2518895,36.70613,-12.15792,-22.62964,1006.56
20.759564400,-59.70728,11.90291,8.127457,-0.6051461,1.150811,0.406532,36.70613,-12.15792,-22.62964,1006.56
20.794860840,-159.2248,43.51749,22.42229,-0.5930712,0.7933198,0.5317149,37.42888,-11.78419,-21.82825,1006.56
20.827635765,-149.7824,37.43095,36.10622,-0.6185934,0.7004596,0.5160304,37.05731,-11.42482,-22.26862,1006.558
20.860410691,-132.0159,28.86251,36.47276,-0.4195553,0.7433507,0.6315019,37.05731,-11.42482,-22.26862,1006.562
20.893186093,-153.8824,32.70353,37.63345,-0.1413844,0.7649456,0.6009651,37.03172,-9.955189,-21.42132,1006.561
20.925961495,-139.4704,9.00737,28.89772,-0.1969116,0.6567366,0.7254512,35.90099,-7.748967,-20.21111,1006.561
20.961257458,-94.92976,-2.574795,34.76227,-0.09464752,0.9399905,0.7132291,35.50198,-5.86517,-20.24025,1006.561
20.994032383,-84.80407,-0.2110877,28.22574,-0.06181744,0.7696231,0.4775407,35.50198,-5.86517,-20.24025,1006.561
21.026807785,-13.92427,-1.511127,23.33862,-0.1837089,0.363305,0.4659269,34.75427,-4.76417,-19.82139,1006.559
21.059583187,70.12514,-23.02086,10.93755,-0.3776469,0.6652157,0.5511329,34.37885,-4.016591,-18.52704,1006.559
21.094879150,-30.69688,-15.457,-11.42103,-0.3994295,0.6039606,0.3832816,34.37885,-4.016591,-18.52704,1006.559
21.127654076,-37.84077,2.329898,-28.70922,-0.5409902,0.4608165,0.1397827,33.30618,-5.113228,-18.94355,1006.557
21.160429955,8.004367,53.09051,-56.68799,-0.7108825,0.3577298,-0.2625588,34.01612,-4.00468,-17.71851,1006.557
21.193204880,210.456,53.9769,-19.3626,-1.122632,1.337923,0.6212021,34.01612,-4.00468,-17.71851,1006.557
21.225980282,49.74953,-19.00256,5.256273,-0.8630077,1.048784,0.8929914,34.69913,-1.437535,-16.45422,1006.559
21.261275768,30.49209,1.384415,24.31605,-0.8545129,0.3974683,0.1618017,36.15003,-1.065549,-15.65377,1006.559
21.294051647,-0.8167832,19.05313,43.13146,-0.2853571,1.124614,0.8775475,36.15003,-1.065549,-15.65377,1006.557
21.326826572,-128.5371,11.48926,47.46878,-0.1749929,0.611006,0.6364163,36.53584,-2.147846,-14.76682,1006.557
21.359601975,-3.860701,26.08516,33.17395,-0.03668358,0.6599479,0.7144765,35.83546,-3.597904,-14.30785,1006.561
21.394898415,-35.72866,41.33107,13.13676,-0.03632284,0.6347531,0.3125764,35.83546,-3.597904,-14.30785,1006.56
21.427673340,-119.9023,73.89114,-28.03724,-0.1278543,0.2513371,-0.08423337,36.57922,-4.311541,-13.05416,1006.56
21.460448265,-77.22534,91.61894,-23.69992,-0.4837468,0.4892492,0.167523,37.3238,-5.018385,-11.30319,1006.56
21.493223667,-87.22678,145.3342,-54.9775,-0.5430336,0.3602367,0.4566751,37.3238,-5.018385,-11.30319,1006.558
21.525998592,-80.57986,117.9152,-7.633509,-0.9489187,0.9708085,0.5688748,39.1214,-3.530186,-8.779946,1006.56
21.561295033,-203.3926,131.6247,37.32801,-0.9983231,0.9339404,0.649435,41.26632,-0.9206781,-4.160964,1006.56
21.594069958,-158.1066,64.84996,45.57502,-0.9459445,0.0969568,0.4108541,41.26632,-0.9206781,-4.160964,1006.56
21.626845360,-97.66307,50.25406,-1.341341,-0.7622471,-0.2082509,0.2140015,42.41131,-0.148715,-0.8173358,1006.56
21.659620285,319.9128,69.45919,4.523205,-1.138674,0.1742464,-0.1495917,42.82625,-2.671776,1.335704,1006.56
21.694916725,389.6123,31.99442,47.10225,-0.7215008,1.417833,0.07378457,42.82625,-2.671776,1.335704,1006.561
21.727691651,237.7891,71.58652,-4.701237,-0.9896291,-0.04203468,0.7871107,43.19125,-2.245376,5.929255,1006.563
21.760467053,779.855,-80.8135,97.56178,-0.9260601,2.797439,-0.4770433,44.21554,1.813458,9.718662,1006.563
21.793241978,-187.614,26.79427,44.84195,-0.2484079,0.8013094,-0.695143,44.21554,1.813458,9.718662,1006.563
21.826016903,37.32537,68.39552,12.22042,-0.4751531,0.7047188,-0.09468291,45.50628,10.59936,8.272973,1006.565
21.861313343,-10.50762,0.5571171,31.82999,-0.7434964,0.3849845,-0.2962179,46.20956,12.0732,9.554448,1006.567
21.894088745,70.18726,38.25825,16.31339,-0.6939904,1.03865,-0.1375083,47.67471,11.72225,10.80147,1006.568
21.926863671,-5.475841,17.87127,21.20051,-0.5641364,0.9651883,-0.07175907,47.67471,11.72225,10.80147,1006.57
21.959638596,-25.9757,18.63948,21.13942,-0.5911639,0.6680015,-0.1925502,48.73386,13.54777,11.20653,1006.572
21.992413998,23.90729,13.55751,31.09693,-0.593612,0.8762686,-0.216445,49.47024,13.19347,12.08154,1006.572
22.027710438,-6.96674,12.37565,33.11287,-0.5326452,0.9734346,-0.1844848,49.47024,13.19347,12.08154,1006.572
22.060485363,-45.35738,9.65739,35.92296,-0.5516571,0.5907652,-0.2108192,50.22616,11.73992,12.53863,1006.574
22.093260288,16.82552,16.92579,28.10357,-0.4440287,0.8860455,-0.110915,49.51964,10.65939,13.36483,1006.574
22.126035690,-24.04995,12.08019,36.90038,-0.5424032,0.9973754,-0.1618738,49.51964,10.65939,13.36483,1006.578
22.161331654,-39.45591,2.920825,46.91898,-0.4631606,0.7414171,-0.2247343,50.27556,9.205845,13.82192,1006.578
22.194107056,-3.363735,11.72563,36.16732,-0.505153,1.061188,-0.135102,49.58871,7.02691,14.29235,1006.578
22.226881981,-38.21349,11.962,26.45416,-0.5180095,0.9397773,-0.2094996,49.58871,7.02691,14.29235,1006.578
22.259657383,-12.24701,21.77139,15.03052,-0.4352977,0.8925401,-0.09794869,50.36677,4.425254,15.2027,1006.578
22.292432308,-54.17853,16.80761,19.97873,-0.4453106,1.213029,-0.1537646,49.67242,2.604815,15.23229,1006.578
22.327728748,-95.42673,28.50796,5.500629,-0.3485335,0.7752236,0.01658643,49.67242,2.604815,15.23229,1006.578
22.360503674,0.9225985,22.4805,10.20448,-0.4539574,0.7790288,-0.07992297,48.61399,0.7852473,15.26235,1006.578
22.393278599,-21.62724,-7.774951,37.81672,-0.3504889,1.175032,-0.05862258,46.85446,-2.490322,15.31627,1006.58
22.426054001,-50.82401,-3.343,45.26958,-0.3506341,0.8287986,-0.05087997,46.85446,-2.490322,15.31627,1006.58
22.461350441,-35.8529,0.8525805,33.35722,-0.3368098,0.7218615,-0.1070709,46.16687,-4.675199,15.35159,1006.58
22.494125366,-49.33311,-6.711283,44.96413,-0.3288896,1.073809,-0.07296211,44.41377,-8.387833,14.54197,1006.58
22.526900292,-18.89393,26.97155,39.40503,-0.3181605,1.013501,-0.2837331,44.41377,-8.387833,14.54197,1006.58
22.559675694,-124.4993,11.78473,54.6162,-0.274015,1.075868,-0.05287817,43.00333,-10.94729,13.71373,1006.585
22.592450619,39.25112,74.89571,40.6879,-0.3005013,0.8007778,0.06168199,41.96384,-13.87121,12.95292,1006.585
22.627747059,-151.646,-5.352151,45.20849,-0.448793,0.6929815,0.1469158,41.96384,-13.87121,12.95292,1006.584
22.660521984,45.83592,57.227,28.95881,-0.2861741,0.9411148,0.2645712,40.50771,-17.1475,13.00645,1006.585
22.693297386,20.61489,34.12176,28.16465,-0.1293986,1.297513,-0.1507903,39.46884,-20.06632,12.61858,1006.585
22.726072312,-210.1638,56.63607,46.91898,-0.1859317,1.324649,0.5978203,39.46884,-20.06632,12.61858,1006.584
22.761368752,73.79027,62.95899,7.516567,0.00211125,0.1654808,0.1601195,38.02064,-20.41623,13.43426,1006.584
22.794143677,-12.18489,42.51292,17.96279,-0.09279855,1.330489,0.4151546,35.8968,-23.7627,12.68154,1006.584
22.826919079,-72.81477,29.86709,23.82733,-0.1049333,0.6990903,0.3318967,35.8968,-23.7627,12.68154,1006.582
22.859694004,63.97519,21.83048,16.55774,-0.1947727,1.22448,-0.1389725,34.4305,-23.00147,14.78536,1006.582
22.892469883,-67.59662,23.60326,-4.334702,-0.07758866,0.8936487,0.6121725,33.3856,-25.54991,14.82688,1006.58
22.927765370,37.01477,-2.870258,3.667959,-0.3021392,1.126256,0.2932117,33.04326,-26.63046,15.71476,1006.58
22.960540772,-47.78009,-27.86646,3.179247,-0.1598374,1.47339,0.03385972,33.04326,-26.63046,15.71476,1006.58
22.993315697,-177.3019,-19.23893,-3.174011,-0.06339235,1.216284,0.4157383,31.94354,-26.26935,15.27533,1006.58
23.026091576,-146.8627,-70.82684,19.12348,-0.2179917,0.6569482,0.2908312,30.1499,-28.14491,11.07953,1006.58
23.061387062,-80.14501,-63.49935,3.057069,0.01491331,0.9078074,0.1556008,30.1499,-28.14491,11.07953,1006.58
23.094162464,-80.02077,-34.18938,21.20051,-0.2594914,1.379899,0.3668579,28.73095,-30.774,5.154273,1006.578
23.126937866,-201.7775,-47.60342,27.61485,-0.2400456,0.9642261,0.3809165,27.95617,-31.91637,1.442952,1006.578
23.159713268,-166.6792,-18.88437,24.62149,0.1129854,0.5750837,0.5173724,27.95617,-31.91637,1.442952,1006.578
23.192488194,-211.282,4.81179,21.07833,0.05083078,0.7982937,0.6129743,25.7813,-33.0919,-4.939397,1006.578
23.227784634,-256.6923,4.752697,37.14474,-0.01266771,0.5605888,0.6852061,23.58624,-33.17328,-11.27678,1006.578
23.260559559,-246.815,-16.99341,41.72641,-0.03797456,0.3973525,0.7745641,23.58624,-33.17328,-11.27678,1006.583
23.293334961,-180.6564,-24.3209,20.03981,0.1071848,0.2021911,0.7605544,23.1681,-31.09617,-19.39133,1006.581
23.326109886,-128.8477,-10.49321,19.91764,0.09369005,0.4006499,0.9504253,20.18477,-27.88992,-25.34423,1006.579
23.361406326,-145.7446,-4.524854,29.0199,-0.006789203,0.1720277,0.9023906,20.18477,-27.88992,-25.34423,1006.577
23.394181252,-105.1176,-10.6114,17.41299,-0.04591315,-0.1468168,0.763369,19.03877,-25.38889,-29.23678,1006.576
23.426956654,-25.10601,-1.156571,6.600232,-0.07394349,0.0171557,0.8440572,18.59494,-21.35329,-31.8488,1006.576
23.459731579,-29.95143,-0.3292731,2.201822,-0.03250129,-0.02986179,0.966777,18.59494,-21.35329,-31.8488,1006.574
23.492506504,0.9225985,-4.702132,-2.685299,0.02137671,-0.008508334,1.031119,17.83901,-19.89974,-32.30589,1006.572
23.527802944,1.295323,-5.883986,-7.144797,0.06876043,0.0715702,1.003449,17.45934,-19.18697,-33.56006,1006.57
23.560578346,4.401362,-2.752073,-9.649446,0.09989034,0.04286391,0.9702042,17.45934,-19.18697,-33.56006,1006.569
23.593353272,13.7816,-0.6838292,-12.76499,0.0778458,0.1280452,0.9893826,17.08922,-18.81572,-33.13021,1006.569
23.626128197,6.078623,-6.297634,-12.88717,0.0248448,0.1567515,0.9788751,18.18822,-19.18278,-33.12589,1006.569
23.661424637,-7.898551,-1.452034,-6.35064,0.05922371,0.2030138,1.006643,18.18822,-19.18278,-33.12589,1006.567
23.694200039,-22.80754,0.6162097,-1.768964,0.06183179,0.1285692,1.013969,17.46079,-19.17509,-32.68983,1006.571
23.726974964,-19.63938,0.2616537,1.041131,0.0769205,0.1146112,1.019731,17.81738,-18.81746,-33.13115,1006.568
23.759749890,-28.58477,0.02528298,4.401027,0.09738686,0.07803009,0.9874862,17.81738,-18.81746,-33.13115,1006.568
23.792525292,-20.07422,0.202561,1.774199,0.09763071,-0.03130492,0.9529924,18.18,-18.83022,-34.00184,1006.57
23.827821732,-6.221291,0.9116732,2.385089,0.1532838,0.06423005,1.036955,17.79564,-17.73604,-34.01856,1006.568
23.860596657,-5.537962,-1.570219,-3.662723,0.1957003,-0.001422075,1.070167,17.79564,-17.73604,-34.01856,1006.566
23.893371582,11.54525,-5.706707,-9.527268,0.2504378,0.05910739,1.094014,18.15899,-17.74286,-34.45414,1006.566
23.926146984,-16.84394,-0.6838292,-25.65477,0.638822,0.3557338,1.400236,18.15223,-17.37842,-34.45987,1006.566
23.961443424,-41.38165,-11.97053,-51.43433,0.4103899,0.2049977,1.220013,17.42949,-17.75215,-35.26127,1006.564
23.994218349,-14.23487,-47.83979,-66.5844,0.1172388,0.3066291,0.98902,17.42949,-17.75215,-35.26127,1006.564
24.026993275,-43.9286,-46.77612,-81.18468,0.2734908,0.3305977,0.8860832,16.64444,-14.85784,-36.98446,1006.564
24.059768677,-38.46198,-38.0895,-78.98548,0.1079207,0.08993123,0.7251012,15.50739,-12.70341,-39.56594,1006.563
24.092544079,51.48891,-34.95758,-68.2949,0.005989909,-0.1517576,0.6207703,15.50739,-12.70341,-39.56594,1006.559
24.127840042,197.7212,-26.92098,-50.02929,-0.08413904,-0.06980164,0.39799,14.36492,-10.17351,-41.34509,1006.559
24.160614967,287.113,-3.520278,-22.60032,-0.05748988,0.1856173,0.5361741,12.49207,-10.52155,-40.46671,1006.557
24.193390846,219.8983,22.12595,18.14606,-0.03599396,0.8227556,0.9433576,12.49207,-10.52155,-40.46671,1006.556
24.226165772,55.651,55.86787,51.43957,-0.01333039,0.7396743,1.225507,12.28099,-18.50348,-37.79166,1006.554
24.261462212,-285.889,50.37225,28.40901,-0.2240469,1.503979,2.059055,12.77746,-25.46646,-36.00402,1006.558
24.294237614,-524.2464,74.95481,8.677258,-0.07317876,-1.323034,0.8643669,12.77746,-25.46646,-36.00402,1006.558
24.327012539,208.7787,-30.46654,-21.86725,0.04160564,-1.450439,0.6149414,12.41091,-25.9056,-41.52995,1006.56
24.359787464,420.6105,-41.16232,-60.10897,0.02123562,0.1342252,0.4051344,13.93736,-10.19542,-43.02282,1006.56
24.392562866,399.0546,-39.38954,-68.60034,0.1533675,0.4806886,0.2016455,13.93736,-10.19542,-43.02282,1006.56
24.427858830,334.2005,-10.6114,-52.90047,0.2499227,0.9602019,0.4038285,13.7786,-20.68765,-37.32405,1006.56
24.460634232,165.729,30.45801,-38.3002,0.1673928,1.223444,0.7478011,14.36824,-31.92538,-28.25723,1006.56
24.493409157,-80.76622,41.0356,-12.58172,0.1388358,1.746931,1.540845,14.36824,-31.92538,-28.25723,1006.56
24.526184559,-93.31462,18.99403,21.13942,0.01880681,0.2130002,0.8103281,16.75077,-38.85212,-23.48839,1006.566
24.561480522,138.8307,-14.33424,34.579,0.02790995,0.02932323,0.6502898,17.4807,-39.25906,-26.46722,1006.566
24.594255924,246.2997,-36.73037,29.26426,0.05403693,0.6776258,0.6261454,17.4807,-39.25906,-26.46722,1006.566
24.627030850,192.8137,-34.0712,10.57102,0.1339707,0.9360288,0.4989682,16.75149,-38.84618,-23.05328,1006.568
24.659805775,155.6033,-37.79404,0.796775,0.1548485,1.121038,0.3941843,15.02501,-43.11061,-15.33663,1006.568
24.692581177,39.06475,-28.87104,-2.868566,0.08306222,1.067603,0.290461,15.02501,-43.11061,-15.33663,1006.568
24.727877617,19.55883,-21.42536,-6.900441,0.1356953,0.9594033,0.1460907,14.29129,-45.5961,-10.63359,1006.568
24.760652542,17.38461,-13.27057,2.201822,0.09079725,1.062081,0.1874396,14.2994,-45.94949,-9.8198,1006.568
24.793427468,-0.8167832,-10.49321,3.912315,0.07455301,0.953447,0.2035268,14.2994,-45.94949,-9.8198,1006.569
24.826202870,-0.3819378,-8.484064,2.934891,0.1273624,1.011152,0.2437489,13.94884,-46.67749,-9.80787,1006.569
24.861499310,-12.06064,-1.097478,-0.9748065,0.1673422,0.9342259,0.1994848,13.94281,-46.30711,-9.378489,1006.571
24.894274235,-10.4455,7.88461,1.896377,0.1956652,0.8748345,0.2394601,13.94281,-46.30711,-9.378489,1006.571
24.927049160,-19.57726,9.539205,1.468754,0.1289963,0.9538273,0.3328834,13.57801,-46.31219,-9.81313,1006.574
24.959824562,-3.612218,4.870883,0.1858848,0.175767,0.8899822,0.3405704,14.29805,-45.96053,-10.62786,1006.579
24.992600441,17.13612,1.857156,0.5524189,0.1625775,0.9194476,0.3213028,14.29805,-45.96053,-10.62786,1006.579
25.027895927,35.15115,-0.8611073,-0.1806493,0.1476472,0.8616285,0.2891742,14.65599,-45.59188,-10.26111,1006.58
25.060671806,50.37074,-5.411244,-2.746388,0.1309733,0.9235724,0.2520555,14.30158,-45.93166,-8.514465,1006.58
25.093446732,51.48891,-9.665917,-4.212524,0.1306946,1.035391,0.2234873,14.30969,-46.28506,-7.70067,1006.582
25.126221657,20.55276,-5.883986,-2.074409,0.1533104,1.117221,0.1973168,14.30969,-46.28506,-7.70067,1006.582
25.161518097,-35.8529,3.03901,0.1247958,0.1428925,1.000545,0.1705611,14.32539,-46.99611,-6.383876,1006.584
25.194293499,-53.1846,7.057312,-1.158074,0.1095203,0.959901,0.2491634,14.31791,-46.63761,-6.824717,1006.584
25.227068424,-49.58159,7.530054,1.590932,0.1441373,0.9073472,0.2843,14.31791,-46.63761,-6.824717,1006.584
25.259843350,-24.42268,7.943702,7.516567,0.1888452,0.8936296,0.2890282,13.93678,-45.93673,-8.949106,1006.584
25.292618752,17.01188,3.866307,19.61219,0.1375971,0.7921112,0.2498311,13.94281,-46.30711,-9.378489,1006.586
25.327915192,72.29937,-1.038385,33.11287,0.01932405,0.8710974,0.05407837,13.94281,-46.30711,-9.378489,1006.584
25.360690117,129.8853,-5.647614,64.14609,-0.04210417,0.8818697,-0.4242657,13.20862,-45.93499,-8.948167,1006.584
25.393465042,153.864,18.40311,60.29748,0.5223672,1.444445,-0.186253,12.52133,-47.69769,-4.691778,1006.586
25.426240444,-39.82863,96.76001,26.57634,0.6141931,1.499601,0.2110509,12.52133,-47.69769,-4.691778,1006.586
25.461536884,-43.3074,85.29603,27.49267,0.1929933,0.8053498,0.4061224,9.288808,-49.49719,0.8741906,1006.585
25.494311810,-24.54692,84.05508,26.94287,0.266259,0.8621841,0.5767463,7.831045,-49.50558,0.005846739,1006.585
25.527086735,-50.14068,70.34558,39.0385,0.2570351,1.077812,0.6390203,7.831045,-49.50558,0.005846739,1006.583
25.559862137,-91.32675,40.44468,38.54979,0.1727345,0.5436289,0.4046394,6.388985,-50.22503,0.4542978,1006.583
25.592637062,3.096826,13.26204,21.01724,0.1988804,0.3456905,0.2744267,4.192776,-49.89611,-2.532236,1006.581
25.627933502,61.42823,-4.702132,1.590932,0.3148743,0.7872235,0.3144018,4.192776,-49.89611,-2.532236,1006.579
25.693483830,55.40252,-32.18023,-26.51002,0.07588588,1.038913,0.3757223,2.369157,-49.49844,-0.4222171,1006.579
25.726259232,93.2962,-34.24847,-22.96685,0.03385756,0.9207069,0.2368866,2.369157,-49.49844,-0.4222171,1006.579
25.761555195,26.6406,-22.37084,-18.69062,0.2030304,1.042346,0.2261934,3.10698,-49.84085,1.32302,1006.579
25.794330120,-8.644002,-14.6297,-28.2816,0.255522,0.800615,0.1402695,3.825142,-49.08485,3.42402,1006.579
25.827105999,20.30428,-19.5344,-40.98811,0.2277989,0.8153279,0.1181704,3.825142,-49.08485,3.42402,1006.578
25.859880924,37.57386,-36.73037,-43.18732,0.1300974,0.8497853,0.07791584,4.541124,-48.34668,4.219685,1006.578
25.892656327,59.68885,-46.53975,-35.61228,0.145333,0.9482237,-0.07245352,6.381794,-49.44436,4.234525,1006.578
25.927952767,103.5461,-46.1261,-11.90974,0.244733,1.191812,-0.1823255,6.381794,-49.44436,4.234525,1006.576
25.960727692,47.5753,-24.91183,1.529843,0.2559355,1.375791,-0.2134365,8.191462,-48.69691,5.899004,1006.578
25.993502617,-40.82256,-2.811166,5.744985,0.2357709,1.092309,-0.1224654,8.925221,-48.65281,9.254641,1006.576
26.026278019,-48.77402,6.466385,1.835288,0.1862146,0.9096221,-0.06960414,8.925221,-48.65281,9.254641,1006.576
26.059052944,-41.13317,10.66197,-2.990744,0.1610032,0.9100107,0.01661883,8.916385,-48.30536,8.005733,1006.576
26.094349384,-37.21956,8.120979,-5.189949,0.1536274,0.9564953,0.05651928,8.549504,-48.32741,6.327916,1006.576
26.127124310,-25.29237,4.929976,-1.096985,0.169574,0.9933066,0.07808726,9.652351,-49.08267,4.597519,1006.576
26.159899712,-6.96674,3.629937,2.568357,0.1648214,0.9519425,0.08875083,9.652351,-49.08267,4.597519,1006.574
26.192674637,3.966516,1.207137,2.018555,0.1794033,0.9462365,0.09113166,9.28089,-48.72246,4.219306,1006.579
26.227971077,10.30284,2.802639,-1.463519,0.2251429,0.8971029,0.04440513,9.293791,-49.45643,3.857813,1006.577
26.260746002,14.0922,2.15262,-5.800839,0.1763541,0.9976294,0.061217,9.293791,-49.45643,3.857813,1006.577
26.293521404,9.246782,0.02528298,-4.273613,0.1684089,1.069064,0.04765005,8.917436,-48.71649,4.592729,1006.575
26.326296330,-10.56975,2.684454,-0.1806493,0.1544941,0.9998254,0.0530824,9.646317,-48.71229,5.026901,1006.573
26.359072208,-8.581881,4.043585,2.018555,0.1740324,0.9533032,0.06321476,9.646317,-48.71229,5.026901,1006.573
26.394367695,3.531671,2.329898,0.6135079,0.1992486,0.9676409,0.0636147,9.281513,-48.71737,4.592259,1006.572
26.427143574,5.892261,2.920825,-0.9748065,0.2035418,0.9967818,0.04671294,9.288275,-49.0818,4.597989,1006.572
26.459918499,-3.922822,3.807214,-1.096985,0.1884939,0.9967299,0.05733867,9.288275,-49.0818,4.597989,1006.572
26.492693901,-17.40303,2.38899,-1.891142,0.1666226,1.009357,0.07855143,9.281513,-48.71737,4.592259,1006.576
26.527990341,-23.49087,2.270805,-2.379854,0.132754,0.9634876,0.1066199,9.644344,-48.72843,3.845884,1006.576
26.560765267,-12.74397,0.7934878,-0.5471834,0.1327897,0.9483865,0.1061612,9.644344,-48.72843,3.845884,1006.576
26.593540192,5.954382,-2.69298,2.690535,0.1683274,0.9086892,0.09795358,9.650379,-49.09881,3.416502,1006.576
26.626315594,20.92549,-5.824893,2.751623,0.1842108,0.9647171,0.08146516,10.00697,-48.74119,2.97519,1006.576
26.659090519,15.83158,-3.283907,0.4302409,0.193342,0.9996825,0.05587864,10.00697,-48.74119,2.97519,1006.576
26.694386959,-1.624353,0.7343951,-1.585697,0.168067,1.013723,0.07420917,10.00093,-48.37081,3.404572,1006.574
26.727161884,-10.75611,0.6162097,-0.2417383,0.1652045,0.9932802,0.07954174,9.281513,-48.71737,4.592259,1006.578
26.759937287,-5.910686,0.7934878,1.529843,0.1692346,0.9344695,0.09213623,9.281513,-48.71737,4.592259,1006.572
26.792712212,6.389227,0.02528298,0.980042,0.1857225,0.9433637,0.09063964,9.286303,-49.09794,3.416972,1006.572
26.828008652,12.72555,-1.038385,-1.035896,0.1885272,0.9836136,0.06217197,8.929713,-49.45556,3.858283,1006.578
26.860783577,7.072556,0.5571171,0.002617747,0.177774,1.010704,0.04867852,8.929713,-49.45556,3.858283,1006.577
26.893558979,1.916531,0.6162097,2.385089,0.1801463,1.035113,0.05393109,9.295036,-49.44624,4.603719,1006.578
26.926333904,-13.17882,5.520902,8.921614,0.1970249,1.080918,0.03697436,9.64559,-48.71824,4.591789,1006.578
26.959109783,-12.80609,-0.8020146,29.44752,0.195455,1.132678,0.05807998,9.64559,-48.71824,4.591789,1006.578
26.994405270,-9.265209,-10.67049,73.92033,0.2366663,1.379554,0.1408857,9.287029,-49.092,3.852083,1006.577
27.027180672,-16.09849,-14.74789,121.1421,0.305336,1.325746,0.3049483,8.544625,-48.36732,3.406451,1006.577
27.059956074,126.7172,-37.14402,161.7052,0.3766703,1.323626,0.1945505,8.544625,-48.36732,3.406451,1006.575
27.092731476,122.5551,-34.60303,199.7637,0.4023477,1.769444,0.2588015,5.269279,-48.34842,4.218745,1006.575
27.128027916,75.9645,-34.24847,237.2113,0.4219607,1.249295,0.09683865,-0.2588025,-47.4768,9.248321,1006.575
27.160802841,143.614,-38.68042,270.7492,0.621905,1.027,-0.2431419,-7.594038,-44.12082,13.49511,1006.575
27.193577766,131.1899,-10.25684,286.3269,0.6393149,0.8512815,-0.2491761,-7.594038,-44.12082,13.49511,1006.573
27.226353169,106.8385,1.5026,279.3016,0.4707551,0.4816203,-0.1861235,-15.38514,-38.91957,19.32992,1006.574
27.259128094,94.53861,-7.243117,249.6123,0.5503816,0.08669569,-0.132286,-23.16889,-31.14657,22.20212,1006.572
27.294424534,95.65678,-13.56603,217.113,0.5719872,-0.01897487,-0.1557647,-23.16889,-31.14657,22.20212,1006.57
27.327199459,62.91913,-11.32051,190.9669,0.5474044,-0.1067677,-0.2143002,-27.76255,-21.98427,25.04821,1006.57
27.359974861,61.80096,-6.534005,160.5446,0.6081679,-0.3471478,-0.2559605,-30.08878,-14.25408,25.73781,1006.569
27.392749786,87.9538,-4.22939,134.5206,0.5684187,-0.3418746,-0.08017712,-30.08878,-14.25408,25.73781,1006.565
27.428046227,52.23436,-11.55688,111.9177,0.6128561,-0.238592,-0.05925826,-31.2998,-7.667819,27.37653,1006.563
27.460821152,10.4892,-9.429546,88.5817,0.6599475,-0.449971,-0.1163334,-31.05252,-1.418468,26.84258,1006.562
27.493596554,17.01188,-19.35712,73.67597,0.6620833,-0.5338104,-0.1287275,-31.05252,-1.418468,26.84258,1006.562
27.526371479,18.50278,-19.35712,61.64143,0.7042813,-0.5468155,-0.2987287,-31.4761,1.873376,27.59955,1006.56
27.559147358,37.13901,-19.00256,52.05046,0.755306,-0.5695047,-0.3310668,-30.05963,4.062452,27.9984,1006.558
27.594442845,39.31324,-26.27096,38.79414,0.8116516,-0.5788288,-0.3388882,-30.05963,4.062452,27.9984,1006.558
27.627218723,16.26643,-19.41621,26.88178,0.8306643,-0.6143644,-0.3590969,-29.72863,5.889709,28.40439,1006.556
27.659993649,-0.3819378,-11.14323,16.49665,0.8117704,-0.6350612,-0.3710549,-28.6781,8.134453,28.36765,1006.555
27.692769051,-8.209156,-2.811166,3.60687,0.8366047,-0.6782084,-0.4422903,-28.6781,8.134453,28.36765,1006.555
27.728065491,16.82552,1.561693,0.7356859,0.8908657,-0.6342102,-0.4838825,-27.94994,8.132708,28.36671,1006.553
27.760840416,40.30717,2.093527,4.401027,0.8567134,-0.560762,-0.4564745,-27.9567,8.497145,28.36098,1006.551
27.793615341,55.40252,4.457234,2.324,0.8533975,-0.6074798,-0.5170478,-27.9567,8.497145,28.36098,1006.548
27.826390743,69.75242,13.6166,1.957466,0.8387542,-0.565352,-0.4646082,-27.96346,8.861582,28.35525,1006.546
27.859165669,57.51463,31.4035,1.71311,0.816347,-0.4913811,-0.2360197,-28.35739,10.29728,26.65451,1006.546
27.894462109,20.86337,41.33107,-0.9137175,0.7652022,-0.3836845,-0.0257056,-28.35739,10.29728,26.65451,1006.547
27.927237034,5.457416,36.07182,2.140733,0.7777956,-0.3476964,0.09166255,-28.77701,13.20176,25.73891,1006.547
27.960012436,-9.327331,28.9807,5.928252,0.753618,-0.3720811,0.1861035,-29.52076,13.91539,24.48522,1006.545
27.992787361,-18.89393,13.26204,9.532504,0.6963473,-0.378713,0.2117615,-29.52076,13.91539,24.48522,1006.543
28.028083801,-24.4848,-5.470336,11.12082,0.7372013,-0.4349249,0.06348997,-30.62048,14.2765,24.04579,1006.543
28.060859680,-34.67261,-10.25684,11.97606,0.7164775,-0.52258,-0.04993014,-30.62194,14.26462,23.17556,1006.542
28.093634605,-3.922822,-13.8615,12.09824,0.72821,-0.5828776,-0.1904247,-30.24143,13.55865,24.927,1006.54
28.126409531,4.960449,-16.10702,8.677258,0.7827111,-0.6452454,-0.2597761,-30.24143,13.55865,24.927,1006.54
28.159184933,-2.245561,-13.32966,3.484692,0.8240079,-0.6652442,-0.3137564,-29.87132,13.18739,24.49715,1006.538
28.194480896,3.096826,-9.665917,1.163309,0.8610982,-0.7600054,-0.3979399,-29.15606,13.91962,24.8577,1006.536
28.227256298,22.66487,-5.647614,1.71311,0.8920595,-0.7332627,-0.511655,-29.15606,13.91962,24.8577,1006.536
28.260031223,31.85875,2.625361,1.285487,0.8972927,-0.718241,-0.6690953,-29.15534,13.92556,25.29281,1006.536
28.292806625,57.63887,28.62614,-2.257676,0.8974298,-0.8156116,-0.874009,-29.15741,13.90858,24.04964,1006.535
28.328102589,91.18409,70.1683,-12.82608,0.8092934,-0.7333565,-0.9860812,-29.15741,13.90858,24.04964,1006.533
28.360877991,93.6068,136.7066,-25.10497,0.7393943,-0.7957224,-1.255865,-29.17842,14.99594,23.59733,1006.533
28.393652916,109.3234,253.1192,-64.99609,0.6292011,-0.8481953,-1.45529,-30.6756,16.76388,19.34377,1006.533
28.426427841,79.31902,420.5879,-133.4769,0.2229369,-0.6102203,-0.9237431,-30.6756,16.76388,19.34377,1006.529
28.459203720,104.4779,523.7047,-149.6655,-0.2677968,-0.305457,-0.001230754,-34.35368,17.72666,9.137229,1006.528
28.494499683,72.92058,280.8337,-52.47285,-8.557826,-2.160193,8.90524,-39.07508,15.31448,-8.164592,1006.527
28.527275562,-544.0008,33.17628,41.90968,-0.1668915,0.4940737,1.811577,-39.07508,15.31448,-8.164592,1006.527
28.560050488,196.3546,-10.6114,-1.524608,0.7701769,-1.084333,0.8384202,-37.1703,9.7043,-18.27504,1006.527
28.592825413,73.91451,31.22622,-38.66673,0.657442,0.01857961,1.080113,-36.14215,13.37493,-16.22034,1006.528
28.628121853,1.108961,6.466385,-36.0399,0.6229479,-0.03353423,0.7712392,-36.14215,13.37493,-16.22034,1006.527
28.660896778,-53.93005,-8.602249,-28.95358,0.5668981,-0.3706324,0.6890859,-36.46846,11.16625,-17.86378,1006.527
28.693672180,-27.09387,-32.18023,-45.56979,0.2714984,-0.8990912,0.7613432,-36.81081,10.0857,-16.9759,1006.527
28.726447106,-34.29988,-43.17147,-85.46091,0.2429522,-0.9088396,0.9347158,-36.81081,10.0857,-16.9759,1006.525
28.759222508,-37.96501,-60.6629,-120.1595,0.1226715,-0.5732892,0.866142,-37.1546,8.993258,-16.95824,1006.525
28.794518471,-22.12421,-81.81808,-158.5234,0.1177909,-0.6156514,0.5932853,-38.57358,7.203434,-14.81431,1006.525
28.827293873,70.24938,-89.44103,-179.2326,0.1766527,-0.4664952,0.5399712,-38.57358,7.203434,-14.81431,1006.525
28.860068798,90.06591,-117.8646,-191.6336,0.2759547,0.03013121,0.4682269,-39.58605,3.171319,-12.20041,1006.529
28.892844677,33.90873,-104.5688,-208.3109,0.6876986,0.02470136,0.3830202,-40.98238,-2.973772,-8.682303,1006.529
28.960916043,5.084691,-94.28663,-227.0042,0.7358438,0.3995201,0.3659748,-40.82473,-10.98844,-3.893377,1006.529
28.993690968,-22.24845,-71.77232,-237.2671,0.7149506,0.6153103,0.3955435,-38.05512,-19.33684,-0.8434908,1006.531
29.026466370,-75.98293,-62.96751,-246.3694,0.5585861,0.8385912,0.4745212,-38.05512,-19.33684,-0.8434908,1006.531
29.059241295,-113.2554,-73.24963,-242.1543,0.3555539,0.8485109,0.394119,-34.64665,-26.3119,0.5674407,1006.533
29.094537735,-119.8402,-62.84933,-253.3335,0.3685347,0.8521428,0.1302965,-27.6029,-33.27061,-0.6379521,1006.533
29.127312660,-127.4189,-34.95758,-256.8767,0.1602018,0.8879128,0.2717758,-20.51428,-39.58936,-3.905169,1006.533
29.160088062,-87.72375,-19.00256,-236.6562,0.08997704,0.8068354,0.2532914,-20.51428,-39.58936,-3.905169,1006.537
29.192862988,-12.55761,-10.55231,-220.2233,-0.002443559,0.899498,0.3823759,-11.30609,-42.59644,-8.968177,1006.537
29.228159428,-23.11814,-10.31594,-181.5539,0.1104308,1.24334,0.5255171,-2.524438,-45.19732,-11.05274,1006.537
29.260934353,-89.09041,17.6349,-128.1011,0.2040634,1.026654,0.2796457,-2.524438,-45.19732,-11.05274,1006.537
29.293709755,143.6761,15.03482,-40.37722,0.3052426,0.5136083,0.1304755,5.176884,-45.25655,-14.04631,1006.537
29.326485634,376.6912,16.92579,-18.07973,-0.0469319,4.982643,0.7561218,10.62597,-44.52887,-13.1946,1006.537
29.359260559,-409.4473,5.757273,64.39044,0.3082873,1.078356,0.1652379,10.62597,-44.52887,-13.1946,1006.539
29.394556999,-297.3814,27.56247,43.92562,0.02187468,-0.0159297,-0.03701222,11.06971,-48.07562,-5.927344,1006.54
29.427331925,-50.63765,13.26204,22.78882,0.07657942,-0.3180554,0.154414,9.544059,-45.70108,-19.14324,1006.542
29.460106850,155.6033,-7.597673,-2.318765,0.1366071,0.4579568,0.594992,9.544059,-45.70108,-19.14324,1006.542
29.492882252,110.0688,-7.893137,-14.47548,0.1889023,1.179919,0.8363863,8.74549,-42.07789,-20.87789,1006.542
29.528178692,52.23436,-11.85235,-19.66805,0.1865981,0.893416,0.6813437,7.707646,-44.5686,-16.60957,1006.544
29.560953617,105.2855,-19.65258,-0.4250054,0.1768248,1.092882,0.5212542,7.707646,-44.5686,-16.60957,1006.545
29.593728542,38.75415,-15.16154,13.01458,0.1305437,0.9310145,0.4123388,8.46034,-45.62884,-14.04481,1006.547
29.626503945,40.05869,-13.15239,9.104881,0.1628475,0.8085026,0.3354289,8.491641,-47.05177,-11.47338,1006.547
29.659278870,42.72988,-10.13866,-0.7304505,0.1521103,0.8297824,0.3267578,8.491641,-47.05177,-11.47338,1006.549
29.694575310,61.98732,-11.4387,-5.678661,0.1703053,0.9314939,0.2933474,7.759529,-46.66266,-9.799883,1006.549
29.727350235,41.30111,-7.124932,-2.563121,0.2036044,1.012416,0.2637834,8.14742,-47.72797,-7.669763,1006.549
29.760126114,28.25574,-0.3883658,1.652021,0.2044807,1.052867,0.2666085,8.14742,-47.72797,-7.669763,1006.555
29.792901039,-4.54403,2.329898,4.21776,0.1826679,1.039635,0.281121,8.157815,-48.06269,-5.488474,1006.555
29.828197479,-22.6833,4.398141,4.278849,0.1868574,0.9126008,0.2880416,8.151676,-47.69316,-5.121251,1006.555
29.860972882,-15.72577,3.866307,0.980042,0.1811984,0.8464805,0.3117414,8.151676,-47.69316,-5.121251,1006.555
29.893747807,8.625574,0.7934878,-2.01332,0.1690455,0.8557634,0.3305294,7.794137,-48.12851,-5.922161,1006.557
29.926522732,16.51491,-1.511127,-2.318765,0.1921895,0.9215959,0.3144903,7.429333,-48.13358,-6.356803,1006.557
29.959298134,21.5467,-0.8611073,-2.135498,0.1809663,0.9403394,0.2918647,7.429333,-48.13358,-6.356803,1006.557
29.994594574,20.67701,-1.156571,-1.096985,0.1712569,0.937763,0.2832271,7.787599,-47.69229,-5.120781,1006.557
30.027369499,17.57097,-1.511127,-0.6082724,0.1833382,0.9576683,0.2595817,8.160291,-48.11239,-4.679455,1006.557
30.060144424,10.11647,1.088951,-0.4860944,0.1808799,0.970304,0.2586058,8.160291,-48.11239,-4.679455,1006.557
30.092919827,-3.860701,1.679878,0.6135079,0.1852955,0.9528679,0.2672861,7.803701,-48.47002,-4.238142,1006.557
30.125695705,-0.319817,1.679878,-0.6693614,0.1834049,0.9304249,0.2639549,7.798394,-48.09369,-3.373649,1006.563
30.160991669,1.04684,1.207137,-0.5471834,0.1848886,0.919746,0.267337,8.174541,-48.83532,-4.232882,1006.563
30.193767071,9.433145,-0.09290238,-1.096985,0.1766092,0.9298979,0.2663786,8.174541,-48.83532,-4.232882,1006.563
30.226541996,16.51491,-1.983868,-1.341341,0.1727155,0.9297216,0.2456895,7.811916,-48.82256,-3.362189,1006.563
30.259316921,17.19824,-1.629312,-1.219163,0.181365,0.9677758,0.2446489,7.433813,-48.02699,-3.001181,1006.564
30.294613361,9.86799,0.6162097,-1.158074,0.1857072,0.9769721,0.2311466,7.433813,-48.02699,-3.001181,1006.562
30.327388764,1.978652,1.916249,-0.7915395,0.1852571,0.9618635,0.2302078,7.806505,-48.44709,-2.559855,1006.562
30.360163689,2.724101,2.329898,-0.7915395,0.1804516,0.9418985,0.236507,8.178797,-48.80051,-1.684371,1006.562
30.392938614,7.818005,0.9116732,-0.9137175,0.1775671,0.9312131,0.2442317,8.178797,-48.80051,-1.684371,1006.562
30.425714016,16.14219,-0.6838292,-0.9748065,0.1727028,0.9325534,0.2326885,8.542147,-48.80732,-2.119953,1006.564
30.461010456,18.50278,-1.747497,-0.9748065,0.1653717,0.9499317,0.2192016,7.80007,-48.01003,-1.696316,1006.564
30.493785381,18.99974,-2.515702,-0.7304505,0.1687366,0.9620554,0.2076226,7.80007,-48.01003,-1.696316,1006.564
30.526561260,20.55276,-3.106629,-0.4250054,0.1813561,0.9615733,0.1931526,7.815446,-48.79369,-1.24879,1006.564
30.559336186,20.86337,-3.57937,-1.219163,0.1730852,0.9652901,0.1772817,8.180873,-48.78352,-0.4411952,1006.564
30.594632626,18.99974,-3.57937,-2.440943,0.1594748,0.9669707,0.1551688,8.180873,-48.78352,-0.4411952,1006.564
30.627407551,19.86944,-5.470336,-1.341341,0.1682633,0.9486037,0.1648029,7.825737,-49.12926,0.8703401,1006.568
30.660182953,24.96334,-6.002171,-2.196587,0.1721628,0.9412939,0.1595096,7.44959,-48.38763,1.729573,1006.568
30.692957878,32.54207,-8.543157,-1.096985,0.1823066,0.9622675,0.1517522,7.44959,-48.38763,1.729573,1006.568
30.725732804,35.52387,-9.015898,-0.2417383,0.1973134,0.9743043,0.1136709,8.179821,-48.37239,2.97181,1006.57
30.761029244,44.34502,-9.252269,-2.257676,0.1799956,0.8933538,0.04981285,7.837481,-49.45294,3.859693,1006.57
30.793804646,52.17224,-10.55231,-2.196587,0.1550505,0.9675986,0.04061424,7.837481,-49.45294,3.859693,1006.568
30.826579571,42.35716,-11.02505,-2.135498,0.1845637,1.009116,0.02218992,8.561573,-49.06817,5.469152,1006.57
30.859355450,38.75415,-9.606825,-3.723812,0.1521926,0.9275258,-0.04548234,8.914931,-48.31724,7.13551,1006.57
30.894650936,48.07227,-10.02047,-3.723812,0.1437092,1.017326,-0.07881153,8.914931,-48.31724,7.13551,1006.57
30.927426815,29.6224,-6.002171,-3.296189,0.1805983,1.025497,-0.06880274,8.546494,-47.86232,9.242695,1006.57
30.960201740,25.39819,-5.11578,-2.01332,0.1709974,0.9796618,-0.06485999,8.55729,-48.26372,10.98983,1006.57
30.992977142,23.96941,-6.297634,0.1247958,0.1855594,0.9877867,-0.03458098,8.55729,-48.26372,10.98983,1006.57
31.025752068,31.67238,-8.188601,2.079644,0.2011658,0.9500871,-0.08173463,8.914206,-47.83348,11.41778,1006.57
31.061048508,37.44962,-10.13866,2.751623,0.1613396,0.9556661,-0.07202135,8.908794,-47.458,12.22012,1006.57
31.093823433,39.189,-11.61598,1.774199,0.1495999,0.9951386,-0.05472397,8.908794,-47.458,12.22012,1006.57
31.126598835,45.7738,-13.0342,1.468754,0.1905279,0.9102825,-0.1899558,8.183443,-47.43333,13.89935,1006.57
31.159373760,53.04193,-14.09787,-1.463519,0.1613526,0.9250535,-0.2019429,8.900254,-46.68837,15.19228,1006.57
31.194670200,71.67816,-18.11617,2.018555,0.1728992,0.965907,-0.2241745,8.526911,-45.92381,17.7298,1006.568
31.227445126,72.23725,-17.46615,3.851226,0.1481198,0.9614158,-0.2799469,8.526911,-45.92381,17.7298,1006.568
31.260221005,65.90093,-17.22978,7.394389,0.1457496,0.9228953,-0.3535316,8.880996,-45.16694,19.83127,1006.568
31.292995930,55.83736,-15.27972,6.416965,0.1543809,0.9672307,-0.361802,9.235081,-44.41006,21.93274,1006.566
31.325771332,26.57848,-12.73874,5.195184,0.2004496,1.000517,-0.3229712,9.235081,-44.41006,21.93274,1006.566
31.361067772,4.215,-12.266,5.256273,0.2181819,0.8894338,-0.3498021,8.853522,-43.29295,23.59431,1006.566
31.393842697,6.140744,-10.07957,1.652021,0.1395753,0.8638822,-0.3577603,8.484137,-42.91576,24.45927,1006.566
31.426617622,14.83765,-9.606825,-0.7915395,0.1559991,0.8864214,-0.428112,8.484137,-42.91576,24.45927,1006.566
31.459393025,9.06042,-7.774951,0.918953,0.1298041,0.8739766,-0.4352515,8.833965,-42.1937,24.01223,1006.564
31.494689465,7.880126,-5.706707,-0.8526285,0.1458915,0.8453022,-0.4458365,9.204804,-42.55901,24.01749,1006.563
31.527464390,-1.437991,-3.520278,-2.502032,0.1539557,0.9312953,-0.4161408,9.204804,-42.55901,24.01749,1006.563
31.560239315,-7.650068,-2.220239,-3.357278,0.1437988,0.9121358,-0.4276405,9.199496,-42.18269,24.88198,1006.561
31.593015194,-13.98639,-1.038385,-6.717174,0.1612585,0.9250917,-0.4065215,9.19877,-42.18863,24.44687,1006.561
31.625790119,-22.31057,2.329898,-7.205886,0.153549,0.9052497,-0.3790357,9.19877,-42.18863,24.44687,1006.559
31.661086559,-23.86359,3.216288,-5.06777,0.1181275,0.8957472,-0.3721983,9.568154,-42.56582,23.58191,1006.559
31.693861962,-20.63331,-1.570219,-3.84599,0.1394075,0.9345011,-0.3578663,9.203455,-42.57005,23.20943,1006.556
31.726636887,-19.32877,-3.697556,-4.029257,0.1734315,0.9206709,-0.3564821,9.203455,-42.57005,23.20943,1006.556
31.759411812,-11.19095,-5.411244,-1.035896,0.1273605,0.9025038,-0.3221687,9.936916,-42.94812,22.34399,1006.556
31.794708252,-2.804648,-7.656766,1.346576,0.1326293,0.9342486,-0.3159714,10.3063,-43.32532,21.47903,1006.556
31.827483654,-2.059199,-8.897713,1.10222,0.1132603,0.9121971,-0.3120413,10.3063,-43.32532,21.47903,1006.552
31.860258579,0.1150284,-6.947654,-1.707875,0.1390215,0.8991818,-0.3236355,10.30568,-43.33041,21.10608,1006.552
31.893033505,-7.277344,-4.643039,-5.312127,0.146691,0.9380983,-0.3395973,10.67038,-43.32619,21.47856,1006.556
31.925809384,-17.65151,-1.983868,-7.022619,0.1452006,0.949681,-0.3530893,10.67038,-43.32619,21.47856,1006.553
31.961105824,-13.86215,-0.09290238,-5.006681,0.130208,0.9262484,-0.3429098,10.31099,-43.70673,20.24158,1006.553
31.993880749,-5.289479,1.088951,-1.341341,0.109775,0.9512279,-0.2981324,10.67579,-43.70166,20.67623,1006.553
32.026656151,-1.997078,0.5571171,2.873801,0.08552112,0.9418121,-0.2922843,10.67579,-43.70166,20.67623,1006.551
32.059431076,-1.189508,-0.6838292,5.317362,0.08118004,0.9326326,-0.2763752,10.6811,-44.07799,19.81173,1006.551
32.094727516,10.98616,-3.697556,10.50993,0.1190738,0.9266876,-0.2663476,11.40853,-44.08568,19.37568,1006.551
32.127502441,14.65129,-4.702132,7.577656,0.1400107,0.8964418,-0.2986028,10.66758,-43.34912,19.80027,1006.551
32.160277844,20.73913,-6.888561,2.751623,0.1501433,0.918756,-0.3236914,10.66758,-43.34912,19.80027,1006.555
32.193052769,22.29215,-8.602249,1.529843,0.1360547,0.911959,-0.3737093,9.583559,-43.69904,20.67764,1006.555
32.225828648,22.66487,-8.897713,3.118158,0.1214351,0.9352616,-0.3669707,9.942225,-43.32444,21.4795,1006.555
32.261124134,15.21038,-7.065839,5.134095,0.1165946,0.9309115,-0.3563627,9.942225,-43.32444,21.4795,1006.555
32.293900013,8.749816,-5.7658,6.783499,0.1252872,0.9504454,-0.3593009,10.30703,-43.31937,21.91414,1006.555
32.326674938,-2.680407,-5.233966,5.867163,0.1482387,0.8940704,-0.369379,9.572839,-42.94724,22.34446,1006.557
32.359450340,5.519536,-4.997595,2.446178,0.1779889,0.8362508,-0.3852473,9.572839,-42.94724,22.34446,1006.559
32.394746780,21.23609,-6.770376,-0.5471834,0.1540987,0.872412,-0.4093133,9.571385,-42.95913,21.47424,1006.56
32.427521706,18.06793,-5.411244,-3.112922,0.1326358,0.9111121,-0.4213547,9.572839,-42.94724,22.34446,1006.565
32.460296631,4.401362,-2.988444,-2.257676,0.1471524,0.9357021,-0.4045786,9.572839,-42.94724,22.34446,1006.565
32.493072033,-6.96674,-0.6247365,-2.01332,0.1112723,0.9099464,-0.4232278,9.567532,-42.57092,23.20896,1006.565
32.525847435,-15.78789,3.216288,-2.807477,0.1200079,0.9155039,-0.4049651,10.29569,-42.57267,23.20802,1006.565
32.561143398,-10.88035,3.511751,-0.4860944,0.1229733,0.8971485,-0.3866527,10.29569,-42.57267,23.20802,1006.565
32.593919277,-6.407653,1.916249,-0.2417383,0.1428932,0.8959806,-0.3684065,9.937643,-42.94217,22.77911,1006.565
32.626694203,0.4877531,0.9707659,-0.6693614,0.1283592,0.8832433,-0.3616138,10.65904,-42.57948,22.77244,1006.563
32.659469128,7.134676,-1.570219,0.1858848,0.1360947,0.8954102,-0.3722404,10.65904,-42.57948,22.77244,1006.563
32.694765568,9.743748,-1.570219,-0.1195603,0.1414175,0.898196,-0.3982507,10.65831,-42.58543,22.33732,1006.563
32.727540970,12.41494,0.7934878,-1.524608,0.1350743,0.9077634,-0.4155791,10.30099,-42.94899,22.34352,1006.567
32.760315895,22.1679,3.984493,-3.112922,0.1414333,0.8933927,-0.3886163,10.30099,-42.94899,22.34352,1006.567
32.793090820,31.61026,2.861732,1.652021,0.1519757,0.9579669,-0.3603383,10.65904,-42.57948,22.77244,1006.569
32.825866223,28.50422,2.093527,3.423603,0.1622954,0.8958213,-0.414663,10.28424,-41.82681,24.43973,1006.569
32.861162663,17.32248,1.088951,4.950828,0.1423792,0.897046,-0.4247262,10.28424,-41.82681,24.43973,1006.569
32.893938065,15.83158,-6.002171,7.699834,0.1268104,0.921189,-0.3659995,10.64374,-41.44542,25.73887,1006.569
32.926713467,19.86944,-9.665917,10.32666,0.095862,0.8587794,-0.4086732,9.550777,-41.44874,25.30517,1006.569
32.959488392,31.36178,-13.80241,12.8924,0.07696443,0.8395403,-0.4211148,9.550777,-41.44874,25.30517,1006.569
32.994784832,65.59032,-20.3026,14.78616,0.1231404,0.8032793,-0.5082961,9.531843,-40.34439,26.09604,1006.571
33.027559757,52.23436,-18.88437,12.8924,0.1574248,0.8849372,-0.5032056,9.897374,-40.33337,26.96579,1006.571
33.060335159,24.15577,-18.52982,10.14339,0.2061039,0.8261342,-0.5431855,9.897374,-40.33337,26.96579,1006.569
33.093110085,19.43459,-15.33881,7.455478,0.1635154,0.7552508,-0.5997782,9.50167,-38.49249,28.24295,1006.571
33.125885010,29.06331,-17.93889,7.94419,0.1222446,0.7554504,-0.5914975,9.859609,-38.12383,28.6097,1006.571
33.161181450,29.31179,-16.40248,6.355875,0.1051197,0.808838,-0.5977951,9.834018,-36.65419,29.45701,1006.573
33.193957329,9.371023,-14.27515,5.256273,0.1260189,0.794167,-0.6315179,9.834018,-36.65419,29.45701,1006.573
33.226732254,23.3482,-14.6297,6.111519,0.2503155,0.8203256,-0.5211389,9.456417,-35.92445,29.44602,1006.573
33.259507656,17.88157,-23.07996,10.87646,0.1655066,0.9626173,-0.478311,9.821221,-35.91937,29.88066,1006.573
33.294804096,-15.10456,-21.0708,17.9017,0.09478372,0.8813384,-0.5251942,9.821221,-35.91937,29.88066,1006.575
33.327579022,-28.89537,-20.47988,21.62813,0.08871192,0.977977,-0.5585394,10.5344,-35.20413,28.99803,1006.575
33.360353947,-50.5134,-23.90725,28.22574,0.1365774,0.84485,-0.6398024,10.88964,-34.85755,27.74866,1006.575
33.393129349,-44.54981,-20.53897,29.14208,0.1567479,0.7349582,-0.6382406,10.88964,-34.85755,27.74866,1006.575
33.425904274,-43.80436,-32.06205,26.27089,0.269353,0.7063697,-0.8926235,11.25695,-35.25173,25.64052,1006.575
33.461200714,-32.43626,4.516326,22.11684,-0.03359628,0.6969715,-0.8293139,11.62488,-35.64082,23.90533,1006.578
33.493976593,-5.786445,3.807214,18.08496,0.1307761,0.6497325,-0.5360019,11.62488,-35.64082,23.90533,1006.578
33.526751518,-5.227358,7.589146,16.25229,0.085388,0.9755908,-0.4073804,10.88862,-35.28567,23.09248,1006.578
33.559526444,-193.1427,-7.065839,-1.280252,0.1527541,1.059019,-0.257481,11.25945,-35.65098,23.09774,1006.578
33.594822884,-90.45706,-0.2110877,30.36386,0.2226833,0.631399,-0.3412407,11.25945,-35.65098,23.09774,1006.579
33.627598286,40.9905,-20.24351,31.15801,0.1819405,0.5888211,-0.4619017,11.27258,-36.80288,18.82597,1006.579
33.660373211,42.66776,-21.24808,16.67992,0.1169715,0.9499227,-0.494543,11.66838,-38.64292,17.61097,1006.578
33.693148136,-28.52265,-6.829468,13.07567,0.2005695,0.7119558,-0.4967895,11.66838,-38.64292,17.61097,1006.578
33.725923538,-13.36518,-7.065839,3.790137,0.1296165,0.7326495,-0.517351,10.9214,-37.53598,18.46495,1006.578
33.761219979,-33.61655,-5.883986,-4.029257,0.2109855,0.8215287,-0.5109389,10.91318,-37.18343,17.58899,1006.576
33.793995381,-41.87862,-2.811166,-9.099646,0.1345894,0.898171,-0.4636997,10.91318,-37.18343,17.58899,1006.574
33.826770783,-43.9286,-1.038385,-6.289551,0.199025,0.9600886,-0.4620204,11.65341,-37.92594,16.72929,1006.574
33.859545708,-51.01037,3.570844,-2.01332,0.1208344,0.9657811,-0.4599181,11.29329,-38.31243,15.0572,1006.574
33.894842148,-62.00575,8.830092,-0.7915395,0.1555402,1.111102,-0.2652679,11.29329,-38.31243,15.0572,1006.572
33.927617073,-95.67521,11.78473,6.233697,0.08799535,0.9359932,-0.2215212,11.31004,-39.4346,12.96099,1006.572
33.960392475,-103.1918,21.41683,13.4422,0.04665384,0.9724671,-0.1795997,11.31931,-40.1983,10.42394,1006.571
33.993167400,-112.2615,24.43056,17.65734,0.1489646,0.8205538,-0.2263055,11.31931,-40.1983,10.42394,1006.571
34.025943279,-49.33311,20.29407,7.211122,0.3190369,0.7915788,-0.1149893,10.96232,-40.97894,6.582025,1006.569
34.061238766,11.42101,-3.933927,4.767561,0.3386329,0.925771,-0.1017599,10.98386,-42.48169,3.310527,1006.569
34.094014645,30.92693,14.03025,4.645383,0.1866467,0.8941363,-0.2659774,10.98386,-42.48169,3.310527,1006.569
34.126789570,15.45886,11.962,-1.768964,0.2263741,1.174421,-0.06961712,10.24894,-42.11551,3.305737,1006.569
34.159564972,-35.29382,21.12137,13.86982,0.3303071,1.154912,-0.1285604,10.98521,-42.47065,4.118592,1006.569
34.192339897,-22.80754,37.07639,27.67594,0.2748846,0.9791361,-0.1252758,10.98521,-42.47065,4.118592,1006.569
34.227636337,0.1150284,38.6128,38.73306,0.2951035,0.8270636,-0.2362891,11.3547,-42.847,3.315788,1006.569
34.260411263,47.82378,52.61777,42.88711,0.5016705,0.9490983,-0.2350376,9.540345,-43.21302,2.888755,1006.569
34.293186665,41.11474,47.65398,44.71978,0.4147585,0.9615816,-0.1563883,8.100258,-43.91632,4.518224,1006.573
34.325962544,46.89198,56.81335,33.90702,0.1575297,0.906792,-0.1619533,8.100258,-43.91632,4.518224,1006.575
34.361258030,26.57848,52.20412,38.67196,0.3122812,0.9800758,-0.1051487,5.933573,-44.60515,7.081015,1006.573
34.394033909,8.874058,65.79544,28.65337,0.3697079,0.9462178,-0.0002970556,3.387211,-44.58121,8.389638,1006.575
34.426808834,2.351376,43.57659,23.4608,0.3649858,0.8780521,-0.06179742,3.387211,-44.58121,8.389638,1006.575
34.459583759,6.761952,61.71804,2.446178,0.4896474,0.7063485,-0.1797679,2.667167,-44.93287,9.204373,1006.575
34.492359161,16.20431,45.05391,-3.662723,0.3032718,0.9146906,0.02830838,1.581697,-45.29469,9.211513,1006.575
34.527655602,-19.26665,29.03979,-16.49142,0.262893,0.9540713,0.06685373,1.581697,-45.29469,9.211513,1006.575
34.560430527,-36.03926,35.4218,-44.16474,-0.1034721,0.8330064,-0.0230722,0.7868276,-44.92241,9.641912,1006.573
34.593205452,-47.59373,19.46678,-59.49809,-0.2996702,1.295109,0.1986044,0.813146,-46.3861,9.229721,1006.571
34.625981331,-161.2747,1.916249,-61.57511,-0.3696896,1.53393,0.1671221,0.813146,-46.3861,9.229721,1006.571
34.661277771,-309.4328,-7.715858,-62.43036,-0.06745029,1.048372,0.2273072,4.138881,-46.06958,6.298219,1006.573
34.694052696,-190.72,1.148044,-65.30154,-0.4702591,0.6523157,-0.2823466,9.233293,-46.94313,-3.393674,1006.573
34.726828098,-107.2297,-31.82567,-97.8009,-0.2095527,0.7952614,0.3498103,9.233293,-46.94313,-3.393674,1006.571
34.759603024,8.377091,-40.21684,-78.43568,0.2154228,1.172678,0.3934815,15.02738,-42.67145,-9.872388,1006.571
34.792378426,-71.57235,-29.04832,-57.97086,0.3457898,1.447647,0.2064708,21.82315,-36.12817,-9.984456,1006.571
34.827674389,-145.1855,-18.94347,-49.35731,0.6498633,0.4280599,0.4412281,21.82315,-36.12817,-9.984456,1006.576
34.860450268,-32.5605,-26.86189,-10.56578,1.623016,0.3176263,-0.01050546,26.01734,-26.58471,-8.834694,1006.576
34.893225670,-44.48769,-19.71167,66.95618,1.385848,1.540253,0.5769198,24.05061,-18.47312,-6.845961,1006.576
34.926000595,-60.57697,-9.606825,74.1036,1.438609,0.2900102,0.09202223,24.05061,-18.47312,-6.845961,1006.576
34.961297035,-3.239494,-5.943078,33.78484,-0.3810008,0.2491934,0.6124194,20.35647,-15.54295,-6.45199,1006.58
34.994071960,112.5536,-34.0121,27.79812,0.2141658,1.131345,0.6144918,18.1976,-17.00735,-7.296474,1006.58
35.026846886,-16.28486,-12.85692,24.74367,0.441576,0.801931,0.3160046,18.1976,-17.00735,-7.296474,1006.58
35.059622288,26.26788,0.8525805,-6.045195,0.3040302,0.6275226,0.1943278,17.49794,-18.45147,-6.40239,1006.58
35.092397213,-21.37876,23.66236,-17.77429,0.3329863,0.9401717,0.3651527,16.77114,-18.43868,-5.593387,1006.578
35.127693653,-38.77258,19.82133,-31.27496,0.3043936,0.4978365,0.3148628,16.77114,-18.43868,-5.593387,1006.58
35.160469532,27.01332,23.95782,-30.41971,0.1839125,1.240417,0.8574868,17.49191,-18.08109,-5.973009,1006.58
35.193244457,-1.624353,13.14386,-29.56447,0.2745546,0.7679198,0.1783012,18.57197,-17.34379,-5.177814,1006.578
35.226019859,-53.37096,18.10764,-27.54853,0.1592228,0.9681073,0.6692621,18.57197,-17.34379,-5.177814,1006.58
35.261315823,-23.73935,6.289107,-29.07575,0.2400879,0.7925208,0.3256426,19.64392,-16.2531,-5.196413,1006.579
35.294091225,2.165014,30.51711,-35.30684,0.2848048,0.8259282,0.5936046,19.99312,-15.53614,-6.016408,1006.577
35.326866150,-55.23458,12.31656,-36.0399,0.1859777,1.07969,0.2940496,21.06569,-14.44035,-5.662055,1006.577
35.359641552,-168.8535,43.87205,-46.79157,0.02619628,0.3980683,0.9404806,21.06569,-14.44035,-5.662055,1006.577
35.392416954,52.29648,13.55751,-43.06514,0.02762227,1.164822,0.6100702,22.14305,-13.72513,-6.482989,1006.577
35.427713394,-138.4143,21.77139,-60.96422,0.1236336,0.831231,0.7095057,23.20751,-12.27595,-6.94243,1006.577
35.460488796,27.75877,-9.134084,-39.9496,-0.1867471,0.9139208,0.9272115,23.20751,-12.27595,-6.94243,1006.577
35.493263722,78.51145,-22.96177,-72.93767,-0.667398,0.8694448,0.8523633,23.55058,-11.18945,-7.395202,1006.577
35.526038647,263.6313,-72.77689,-44.83672,-1.653866,0.96288,-0.2843396,23.52884,-10.10803,-8.282616,1006.579
35.561335087,134.4823,-91.92293,-39.33871,-1.318345,1.463614,0.1608136,23.52884,-10.10803,-8.282616,1006.579
35.594110012,-9.203089,-93.04568,-123.4583,-0.8842089,1.261255,0.2351813,21.73019,-11.18509,-7.392852,1006.579
35.626885414,61.30399,-85.60001,-199.0254,-0.2462222,1.120347,0.4269065,17.38831,-12.63236,-7.364294,1006.58
35.659661293,54.53283,3.570844,-232.38,0.2130592,0.7932976,-0.3708249,17.38831,-12.63236,-7.364294,1006.579
35.692436218,40.43141,159.9301,-243.8647,0.7582596,0.3670661,-0.6862862,14.15218,-14.81113,-7.325685,1006.579
35.727732659,4.463483,270.7289,-219.307,0.6342664,0.290647,0.6604918,15.65186,-16.97832,-5.614897,1006.581
35.760507584,-163.5732,142.6159,-13.68132,1.10041,3.071616,3.387404,15.65186,-16.97832,-5.614897,1006.58
35.793282986,-75.11324,-14.03878,-19.42369,-0.1213923,-1.631819,-1.03932,19.6827,-18.03453,-2.18414,1006.578
35.826057911,-147.5461,1.679878,-6.35064,-1.455382,2.309895,1.13799,20.03649,-17.69983,-4.303741,1006.578
35.861354351,-25.85146,-44.82607,-16.85795,-0.7622939,1.494703,0.4612617,20.03649,-17.69983,-4.303741,1006.578
35.894129276,-28.39841,-60.6629,-55.28294,-0.3925748,0.743796,0.1726995,19.30085,-17.3396,-4.743642,1006.58
35.926905155,-44.73617,-38.03041,-62.06382,-0.8039209,0.8190825,0.4277207,18.56313,-16.99634,-6.426721,1006.58
35.959680081,-23.67723,-17.64343,-47.52464,-0.5584592,0.5078323,0.4083531,18.56313,-16.99634,-6.426721,1006.58
35.992455482,-0.6925417,-7.656766,-35.30684,-0.4940613,0.5792628,0.3772855,18.90547,-15.91579,-7.314603,1006.58
36.027751923,7.755884,0.6162097,-32.43565,-0.8638692,0.9605722,0.6755509,19.97742,-14.82509,-7.333202,1006.58
36.060526848,31.98299,-2.811166,-44.16474,-0.5679718,0.8169358,0.3255969,19.97742,-14.82509,-7.333202,1006.58
36.093301773,7.445281,-11.37961,-53.69463,-0.7238274,0.6299505,0.4485143,19.96317,-14.10217,-7.779775,1006.581
36.126077175,-12.49549,-1.629312,-34.69595,-0.7851346,0.471405,0.4152033,21.03512,-13.01147,-7.798374,1006.581
36.161373138,6.761952,-0.6247365,-40.31614,-0.564552,0.6041428,0.327835,21.03512,-13.01147,-7.798374,1006.583
