Time (s),Gyroscope X (deg/s),Gyroscope Y (deg/s),Gyroscope Z (deg/s),Accelerometer X (g),Accelerometer Y (g),Accelerometer Z (g),Magnetometer X (uT),Magnetometer Y (uT),Magnetometer Z (uT),Barometer (hPa)
0.005781651,-0.4306727,-0.04810388,0.04051126,0.009520452,-0.9774841,-0.2151445,1.335919,27.25107,14.46284,1008.111
0.040843964,-0.06040885,-0.1072056,0.1623485,0.009081015,-0.9813821,-0.2142368,1.335919,27.25107,14.46284,1008.112
0.073401451,0.000940402,0.1898711,-0.4495388,-0.001101738,-0.9849234,-0.2128309,1.328607,27.6123,14.01415,1008.112
0.105958939,0.4306636,0.2484847,-0.3862959,0.009568716,-0.980426,-0.2093889,1.328607,27.6123,14.01415,1008.112
0.141021729,-0.1852271,-0.0492269,0.1650421,0.01102759,-0.9813545,-0.2147217,1.328607,27.6123,14.01415,1008.11
0.173579216,-0.4912986,-0.1679135,0.4091285,0.01002507,-0.9779856,-0.2103189,0.9621363,27.60965,14.01534,1008.108
0.206132412,-0.1822572,0.01097134,0.1629319,0.008591665,-0.9813841,-0.2152031,0.9678175,27.24584,14.01795,1008.108
0.238690376,0.06395845,-0.1074946,0.1005883,0.006087263,-0.9751055,-0.2136548,0.9678175,27.24584,14.01795,1008.105
0.273752689,-0.05939671,0.0119018,0.3440809,0.004185725,-0.9775934,-0.2064403,1.324557,27.9787,14.45761,1008.105
0.306310654,0.1864923,0.07157661,-0.2072903,0.007148503,-0.9819109,-0.210376,1.700759,27.25113,14.01558,1008.109
0.338867664,0.4318997,0.1899295,-0.4510888,0.0056458,-0.9785243,-0.2112896,1.700759,27.25113,14.01558,1008.107
0.373930454,0.0001995414,0.1299694,-0.2661629,0.006224529,-0.9858198,-0.2085012,1.334288,27.24849,14.01676,1008.107
0.406484127,-0.3681551,0.3080877,-0.3260853,0.01249323,-0.9813442,-0.2127894,1.332657,27.2459,13.57069,1008.105
0.439042091,-0.2434837,0.01021065,-0.2636144,0.01196487,-0.9788969,-0.2180687,1.332657,27.2459,13.57069,1008.105
0.474103927,-0.0581999,0.1289786,-0.2014501,0.01051968,-0.9789446,-0.2117841,1.328607,27.6123,14.01415,1008.104
0.506661415,0.003294567,0.009994756,0.1043122,0.01101948,-0.9794372,-0.2088919,1.33997,26.88468,14.01937,1008.108
0.539219379,0.06459649,-0.1089332,0.164933,0.006173033,-0.9823964,-0.2132827,1.33997,26.88468,14.01937,1008.108
0.574281216,0.002766235,0.01022682,0.0419639,0.004701304,-0.9809687,-0.2108426,1.330238,27.61489,14.46022,1008.106
0.606834888,-0.05896545,-0.04920274,0.1028386,0.003784996,-0.9858427,-0.2104328,0.9637673,27.61224,14.46141,1008.106
0.639392853,-0.181278,0.06992244,-0.01974908,0.004710997,-0.9824133,-0.213765,0.9637673,27.61224,14.46141,1008.106
0.674454689,-0.05738927,-0.04901063,-0.0808232,0.007150152,-0.9828652,-0.2142576,1.700759,27.25113,14.01558,1008.104
0.707012176,0.1268481,0.1290907,-0.3244081,0.008045491,-0.9755749,-0.2117303,0.9734988,26.88203,14.02057,1008.104
0.739570141,0.3102765,0.366115,-0.3834791,0.009012159,-0.975549,-0.2146311,0.9734988,26.88203,14.02057,1008.102
0.772128105,-0.2438861,0.008856585,-0.1377136,0.008046694,-0.9755771,-0.211247,1.713752,26.5261,14.46687,1008.104
0.807185650,-0.2425068,0.06829873,0.1070163,0.007110242,-0.9785118,-0.2098407,1.335919,27.25107,14.46284,1008.104
0.839743614,-0.1801648,-0.1694556,0.1675489,0.006678093,-0.98385,-0.212822,1.335919,27.25107,14.46284,1008.102
0.872301578,-0.05668445,-0.1095638,0.2277582,0.007096181,-0.9780105,-0.2132167,1.335919,27.25107,14.46284,1008.102
0.907363892,0.1892494,-0.2281381,0.04350592,0.00714369,-0.9819022,-0.2123094,1.345651,26.52087,14.02199,1008.101
0.939921856,0.1887096,-0.04949273,-0.01796682,0.00759117,-0.9784945,-0.2122578,1.696709,27.61753,14.45904,1008.101
0.972478867,0.1268376,0.1290956,-0.1398506,0.002749538,-0.9814624,-0.2147153,1.696709,27.61753,14.45904,1008.101
1.007537365,0.003670029,0.06957033,-0.1392368,0.008590773,-0.97948,-0.2064733,0.9621363,27.60965,14.01534,1008.101
1.040095329,0.004523485,0.01019755,-0.07746974,0.008061579,-0.9765555,-0.2098118,1.321295,27.97353,13.56547,1008.105
1.072652817,-0.1175851,-0.1684547,-0.1994951,0.005188693,-0.9819144,-0.2152079,1.321295,27.97353,13.56547,1008.105
1.107714653,0.06743586,-0.1090178,-0.01542432,0.01053583,-0.9813521,-0.2166546,0.9694486,27.24843,14.46403,1008.103
1.140272617,0.06725746,-0.1088158,0.1066533,0.00709295,-0.977529,-0.2122426,1.328607,27.6123,14.01415,1008.103
1.172830582,0.1901155,0.06964166,0.1060265,0.009058018,-0.9784864,-0.2098422,1.328607,27.6123,14.01415,1008.103
1.205384254,0.005259853,0.06976804,0.1667936,0.009126496,-0.9847945,-0.211872,0.9621363,27.60965,14.01534,1008.108
1.240446091,-0.117818,0.01033522,-0.01694173,0.002744657,-0.9800267,-0.2098596,1.341601,26.88726,14.46545,1008.108
1.273003578,-0.2406435,0.06986719,0.1053917,0.007572675,-0.9775095,-0.215143,1.341601,26.88726,14.46545,1008.106
1.305561542,-0.2398168,0.1292126,0.04414663,0.006205656,-0.9853097,-0.2138106,0.9621363,27.60965,14.01534,1008.106
1.340623379,0.006245203,0.1293355,0.04445197,0.009529252,-0.9770246,-0.209337,1.334288,27.24849,14.01676,1008.106
1.373181343,0.1290429,0.1289015,-0.2606705,0.008082927,-0.9784969,-0.2103248,1.334288,27.24849,14.01676,1008.108
1.405735016,-0.05585299,0.1881182,-0.1984279,0.009062453,-0.9789702,-0.210333,0.9661865,27.24326,13.57188,1008.108
1.440797329,-0.2399582,0.009596141,0.1078066,0.01007017,-0.9818729,-0.2103782,1.332657,27.2459,13.57069,1008.108
1.473354816,0.006917447,-0.2280682,0.2907541,0.009069673,-0.9789833,-0.2074329,1.332657,27.2459,13.57069,1008.107
1.505912304,-0.1770371,-0.168497,0.1676116,0.003690357,-0.9775844,-0.2098233,1.33997,26.88468,14.01937,1008.107
1.540975094,0.007762831,-0.1089108,-0.01635754,0.007090544,-0.9775246,-0.2132093,1.328607,27.6123,14.01415,1008.107
1.573532581,0.007518854,-0.1087841,0.1672303,0.007116326,-0.9799497,-0.2142131,1.328607,27.6123,14.01415,1008.105
1.606086731,-0.05394274,-0.04910223,0.04459129,0.004176544,-0.9785279,-0.2146719,1.341601,26.88726,14.46545,1008.103
1.638643742,0.1305893,0.2484094,-0.07750933,0.005672718,-0.9795247,-0.205021,0.9637673,27.61224,14.46141,1008.106
1.673706055,0.1304018,0.0103841,-0.01593138,0.005658279,-0.9794983,-0.2108211,0.9637673,27.61224,14.46141,1008.106
1.706264019,-0.0540172,0.1296207,-0.07708484,0.008611364,-0.9823713,-0.2118346,0.6053972,26.8768,13.57568,1008.106
1.738821983,0.06931554,-0.0486416,0.1066164,0.01296447,-0.9798824,-0.2122842,1.324557,27.9787,14.45761,1008.107
1.773883343,-0.05379295,-0.1083567,0.1067047,0.01054425,-0.9813675,-0.2132713,1.324557,27.9787,14.45761,1008.107
1.806437492,-0.1765322,0.0700243,0.1676035,0.009543759,-0.9784779,-0.2103259,1.335919,27.25107,14.46284,1008.107
1.838994980,-0.1145359,-0.04877537,0.1057977,0.008127204,-0.9819071,-0.2084434,1.335919,27.25107,14.46284,1008.107
1.874056816,-0.1141491,-0.1080985,0.2887588,0.005659103,-0.9799754,-0.2127619,1.335919,27.25107,14.46284,1008.109
1.906614780,-0.05217565,0.01081899,0.2882538,0.005667526,-0.9799908,-0.2093785,0.9751298,26.88461,14.46664,1008.109
1.939172745,0.009525664,-0.04835163,0.1041714,0.004677549,-0.979023,-0.2112963,0.9678175,27.24584,14.01795,1008.107
1.974235058,-0.1741337,-0.2859885,0.2871012,0.008569115,-0.9794405,-0.2151734,0.9678175,27.24584,14.01795,1008.112
2.006788254,0.1957017,-0.0479435,0.1640502,0.007603649,-0.9794685,-0.2117893,0.9694486,27.24843,14.46403,1008.112
2.039346218,0.0723316,0.1897838,-0.3251384,0.00518388,-0.9819056,-0.2171413,0.5956657,27.607,14.01653,1008.112
2.074408531,0.1945482,0.01080644,-0.1399981,0.008503042,-0.9731368,-0.212177,0.5956657,27.607,14.01653,1008.11
2.106966496,-0.2972677,-0.04888616,0.2270393,0.01008588,-0.9833284,-0.2108838,0.9605052,27.60707,13.56927,1008.108
2.139523983,-0.2956892,-0.1083354,0.3485702,0.009543003,-0.9794278,-0.2151742,0.2421887,26.87932,14.46901,1008.106
2.172081471,-0.1717958,-0.1673936,0.04159397,0.006614875,-0.9785028,-0.2132238,0.2421887,26.87932,14.46901,1008.106
2.207139969,0.07431573,0.01154153,0.04098947,0.01000815,-0.9765279,-0.2102966,1.334288,27.24849,14.01676,1008.106
2.239697456,0.1357139,-0.1073181,0.1014842,0.002771196,-0.981502,-0.2060151,1.334288,27.24849,14.01676,1008.105
2.272255421,-0.1098297,0.01202525,0.1006292,0.005670379,-0.9809473,-0.2127768,1.334288,27.24849,14.01676,1008.105
2.307317257,0.0745399,0.1904338,0.03952527,0.004224053,-0.9824196,-0.2137646,1.328607,27.6123,14.01415,1008.103
2.339874744,0.0124579,-0.0478558,0.03946001,0.009098308,-0.982365,-0.2118349,1.33997,26.88468,14.01937,1008.107
2.372432709,-0.2333937,-0.107496,0.03926079,0.008605726,-0.9818854,-0.2118271,1.33997,26.88468,14.01937,1008.107
2.407490730,-0.1709578,0.07110137,-0.08325265,0.006636223,-0.9804443,-0.2137368,1.330238,27.61489,14.46022,1008.105
2.440048218,-0.1703767,0.1305162,0.1003968,0.01050878,-0.9774978,-0.2093452,1.704809,26.88474,13.57211,1008.104
2.472606182,0.0148036,-0.04784324,0.09987217,0.007593576,-0.9784989,-0.2112911,1.704809,26.88474,13.57211,1008.104
2.507668495,-0.1693037,-0.1073753,0.2217558,0.008626249,-0.9833497,-0.2103994,1.326976,27.60972,13.56808,1008.108
2.540226459,-0.04600251,-0.1664558,0.09866406,0.008107128,-0.9813948,-0.2142361,1.332657,27.2459,13.57069,1008.108
2.572784424,0.07704712,0.01238543,0.2202767,0.008525593,-0.9750804,-0.2122066,1.332657,27.2459,13.57069,1008.108
2.605337620,0.1999617,0.01250272,-0.08625342,0.006647877,-0.9809412,-0.2113275,0.9637673,27.61224,14.46141,1008.108
2.640399933,-0.2310289,0.01246648,-0.02542403,0.005673989,-0.9809539,-0.2113267,1.330238,27.61489,14.46022,1008.108
2.672957897,-0.04575589,-0.04669224,0.0354376,0.00464575,-0.9765868,-0.2127092,1.330238,27.61489,14.46022,1008.108
2.705515385,-0.2295536,0.250175,-0.5753183,0.006152888,-0.9804572,-0.2122864,1.335919,27.25107,14.46284,1008.108
2.740577221,0.01621305,0.07054095,-0.4498572,0.01200667,-0.9808757,-0.2103649,1.335919,27.25107,14.46284,1008.106
2.773135185,-0.6594387,-0.1077411,0.6512424,0.01099933,-0.977498,-0.2078955,1.335919,27.25107,14.46284,1008.106
2.805688858,-1.392763,-0.2850914,0.5875227,0.01051132,-0.9803561,-0.2219566,0.5956657,27.607,14.01653,1008.109
2.840750694,-0.282649,-0.2839708,0.462603,0.00669064,-0.986251,-0.2191426,0.2308261,27.60694,14.46379,1008.109
2.873308659,0.8224074,0.01438611,0.216208,0.0008766348,-0.987332,-0.2119028,1.713752,26.5261,14.46687,1008.107
2.905866623,0.5725595,0.1334008,-0.0902476,0.001787682,-0.9814971,-0.2098811,1.713752,26.5261,14.46687,1008.107
2.940928936,-0.4739128,0.4295665,-0.9447229,0.003256559,-0.9819683,-0.208923,1.326976,27.60972,13.56808,1008.105
2.973486900,-0.7175695,0.4276664,-1.246082,0.007059502,-0.9741386,-0.209774,0.9678175,27.24584,14.01795,1008.104
3.006040573,-0.7757666,0.4259419,-0.9352934,0.008063607,-0.9770348,-0.2112693,0.9678175,27.24584,14.01795,1008.104
3.038597584,-0.3428193,0.2460987,-0.9313275,0.008055184,-0.9770194,-0.2146527,1.328607,27.6123,14.01415,1008.102
3.073659897,0.2726857,0.4232377,-0.6827304,0.006637048,-0.9809214,-0.2156776,1.324557,27.9787,14.45761,1008.102
3.106217861,0.9470637,0.1844658,-0.252646,0.007594022,-0.9794509,-0.215656,1.324557,27.9787,14.45761,1008.1
3.138775826,1.495888,0.0650133,0.05390088,0.009025017,-0.9760481,-0.2117385,1.696709,27.61753,14.45904,1008.104
3.173837662,1.918683,0.3020921,-0.06819735,0.006650662,-0.9804707,-0.2079367,1.326976,27.60972,13.56808,1008.104
3.206391334,2.156874,-0.1154127,-0.4960653,0.01691468,-0.9823095,-0.2016907,1.326976,27.60972,13.56808,1008.104
3.238949299,4.675225,0.8956807,0.1155007,0.00510506,-0.9689201,-0.1874571,0.9637673,27.61224,14.46141,1008.104
3.274011135,2.275654,-0.1154952,0.4214977,0.007145069,-0.9771486,-0.1890348,0.6053972,26.8768,13.57568,1008.104
3.306568622,-0.8007191,0.003466659,-0.1904963,0.006675173,-0.9814666,-0.2026347,0.6053972,26.8768,13.57568,1008.104
3.339126587,-0.3084995,0.3603523,-0.7412909,0.008672932,-0.9867642,-0.2075513,1.326976,27.60972,13.56808,1008.107
3.374188900,-0.00086217,0.1224285,-0.5576927,0.01345571,-0.9775057,-0.1991972,0.601347,27.24319,14.01914,1008.107
3.406743049,-1.046829,0.2413904,-0.9860885,0.01254669,-0.9838199,-0.2026763,0.601347,27.24319,14.01914,1008.107
3.439318180,0.6144124,0.598276,-1.047288,0.01306303,-0.9862453,-0.2022304,1.328607,27.6123,14.01415,1008.107
3.474380493,1.229687,-0.1154952,0.788694,0.02028699,-0.9779182,-0.1958265,0.958086,27.97605,14.4588,1008.107
3.506937504,-1.046829,-0.4723809,1.523087,0.01388996,-0.9740739,-0.2044624,0.958086,27.97605,14.4588,1008.105
3.539495468,-1.662103,-0.1749762,0.5438964,-0.001589885,-0.9849276,-0.2133139,0.9605052,27.60707,13.56927,1008.107
3.572053432,-0.5546093,0.2413904,-0.6800915,0.0009092572,-0.9902452,-0.2124306,1.341601,26.88726,14.46545,1008.107
3.607111931,-0.8007191,0.3008713,-0.9860885,0.006174169,-0.9809716,-0.2060103,1.341601,26.88726,14.46545,1008.107
3.639669418,-1.292939,0.3008713,-0.4352939,0.01434713,-0.9721107,-0.2073332,1.691027,27.98134,14.45642,1008.107
3.672227383,-0.7391917,-0.1154952,0.1155007,0.02069641,-0.9753922,-0.2156068,1.328607,27.6123,14.01415,1008.107
3.707289219,2.091071,-0.293938,1.094691,0.01835063,-0.9817693,-0.2094179,1.328607,27.6123,14.01415,1008.113
3.739846706,1.721907,-0.6508237,1.767884,0.007664014,-0.9838593,-0.2079893,1.334288,27.24849,14.01676,1008.113
3.772404671,0.7989948,-0.7697856,1.951483,0.005170063,-0.9780755,-0.2045151,1.334288,27.24849,14.01676,1008.113
3.807462692,-0.4315544,-0.4723809,1.094691,-0.0001140995,-0.9873139,-0.2186688,1.334288,27.24849,14.01676,1008.111
3.840020180,1.291214,-0.1154952,0.05430131,0.003222287,-0.9781009,-0.2045136,1.334288,27.24849,14.01676,1008.111
3.872578144,0.4913574,0.1819095,-0.5576927,0.00130954,-0.981044,-0.2040732,1.341601,26.88726,14.46545,1008.109
3.907640457,-0.5546093,0.003466659,-0.6188921,0.004736266,-0.9824594,-0.2036148,1.341601,26.88726,14.46545,1008.109
3.940198421,-2.215851,0.2413904,-0.7412909,0.009119209,-0.9833543,-0.207983,1.326976,27.60972,13.56808,1008.109
3.972755432,-1.846686,0.2413904,-0.4352939,0.01676583,-0.9725254,-0.2160426,1.326976,27.60972,13.56808,1008.109
4.005309582,-1.231411,0.3603523,-0.3740945,0.01237371,-0.9725649,-0.219906,1.326976,27.60972,13.56808,1008.114
4.040371895,0.42983,0.2413904,0.3602983,0.00666187,-0.9800155,-0.2011625,1.326976,27.60972,13.56808,1008.114
4.072929859,0.6759399,-0.293938,0.8498935,0.004756031,-0.9848736,-0.2070353,0.9605052,27.60707,13.56927,1008.112
4.105487347,1.475797,-0.6508237,1.15589,0.006229857,-0.9882075,-0.2177218,0.9605052,27.60707,13.56927,1008.112
4.140549183,1.106632,-0.293938,0.6050959,0.0007352442,-0.9742321,-0.2073524,0.9694486,27.24843,14.46403,1008.112
4.173107147,0.3067751,0.4793141,-0.9860885,0.002206905,-0.9742329,-0.2030034,1.328607,27.6123,14.01415,1008.112
4.205660820,0.1221927,0.3603523,-0.8024903,0.004858714,-0.9936221,-0.2066855,1.328607,27.6123,14.01415,1008.112
4.240723610,-0.4315544,0.1224285,-0.6188921,0.008631819,-0.9824086,-0.2036178,1.330238,27.61489,14.46022,1008.109
4.273280620,0.6759399,0.1819095,-0.4964933,0.008975033,-0.970725,-0.2068235,1.322926,27.97611,14.01154,1008.109
4.305838108,1.721907,0.3603523,-0.4964933,0.01390928,-0.975536,-0.203518,1.322926,27.97611,14.01154,1008.109
4.340900898,0.42983,0.0629476,0.1155007,0.01394905,-0.9770355,-0.1943568,1.319664,27.97095,13.1194,1008.107
4.373458385,-1.969741,-0.2344571,0.788694,0.005674745,-0.980004,-0.2064785,1.334288,27.24849,14.01676,1008.113
4.406012535,-0.9853015,-0.353419,1.21709,0.003292035,-0.9858381,-0.2128491,1.334288,27.24849,14.01676,1008.111
4.438570022,0.3683026,-0.1154952,0.5438964,-0.001590332,-0.9839755,-0.2089489,0.5940347,27.60442,13.57046,1008.111
4.473631859,-0.00086217,0.4793141,-0.9860885,0.0003911362,-0.9840117,-0.1954169,0.9621363,27.60965,14.01534,1008.109
4.506189823,-0.06238963,0.598276,-1.659282,0.008606415,-0.9795086,-0.2001898,0.9621363,27.60965,14.01534,1008.107
4.538747787,-0.9237741,0.7767189,-2.210076,0.008737287,-0.9906867,-0.1998771,0.9588743,27.60449,13.1232,1008.107
4.573810100,-0.9853015,1.193085,-2.699672,0.01733525,-0.9779014,-0.2079078,0.9734988,26.88203,14.02057,1008.107
4.606363296,0.3067751,1.193085,-1.720481,0.01681183,-0.9783167,-0.2248318,0.9734988,26.88203,14.02057,1008.104
4.638921261,0.5528849,3.334399,-1.108487,0.0213957,-0.9962251,-0.2280097,1.328607,27.6123,14.01415,1008.104
4.673983574,3.013983,3.096475,-0.6188921,0.01406593,-0.9891394,-0.2042091,0.9605052,27.60707,13.56927,1008.104
4.706541538,0.7374673,3.810247,-0.8636897,0.01161182,-0.9862819,-0.1983626,0.9605052,27.60707,13.56927,1008.102
4.739099026,3.690785,2.263742,-0.6800915,0.007635002,-0.9809526,-0.2060115,0.9605052,27.60707,13.56927,1008.105
4.774160862,-4.184729,2.918033,-0.9860885,0.01007921,-0.9780845,-0.1885685,0.954824,27.97088,13.56666,1008.105
4.806715012,-0.3700269,0.657757,-1.659282,0.005252155,-0.9839327,-0.198804,0.9621363,27.60965,14.01534,1008.105
4.839272499,-2.46196,0.598276,-2.271276,0.01100377,-0.9779817,-0.2083863,0.9621363,27.60965,14.01534,1008.103
4.874335289,-4.615421,0.7172379,-2.82207,0.02284138,-0.9895197,-0.2022898,0.9605052,27.60707,13.56927,1008.103
4.906892300,-4.184729,0.5387951,-1.598082,0.02667852,-0.9841305,-0.2007612,0.9621363,27.60965,14.01534,1008.107
4.939450264,-3.569455,0.3008713,-0.8636897,0.02898093,-0.9762473,-0.2175613,0.9621363,27.60965,14.01534,1008.107
4.972007751,-2.338906,0.4793141,-0.8636897,0.02563636,-0.9821161,-0.2190978,0.956455,27.97346,14.01273,1008.107
5.007066250,-2.154323,-0.1749762,0.4214977,0.02998331,-0.9767622,-0.208386,0.6159716,26.52074,14.91651,1008.105
5.039624214,-4.307784,-0.293938,0.9110928,0.0207718,-0.9836153,-0.2239497,0.6159716,26.52074,14.91651,1008.105
5.072181702,-2.031268,0.003466659,0.6050959,0.02704494,-0.9796234,-0.2287286,0.6127095,26.51557,14.02436,1008.104
5.107243538,-0.6161367,-0.4723809,1.523087,0.02554894,-0.973871,-0.2155882,0.9694486,27.24843,14.46403,1008.104
5.139801502,-4.246257,-0.6508237,1.523087,0.01586111,-0.9764693,-0.2064344,0.9694486,27.24843,14.46403,1008.104
5.172359467,-6.276663,-0.8292665,0.788694,0.01788427,-0.984667,-0.2147788,0.9678175,27.24584,14.01795,1008.106
5.207417965,-7.384157,-1.007709,1.278289,0.02036588,-0.9923306,-0.2322997,0.5989277,27.61217,14.90867,1008.106
5.239975452,-9.906783,-1.780962,1.890283,0.009882608,-0.9677376,-0.2198299,0.5989277,27.61217,14.90867,1008.106
5.272532940,-17.22855,-7.966979,4.093462,0.0002832887,-0.9847659,-0.2432826,0.9637673,27.61224,14.46141,1008.104
5.307595253,-16.55175,-9.810887,5.378649,0.005309967,-0.9584109,-0.2530362,1.350544,26.52862,15.3602,1008.104
5.340153217,-7.568739,-35.26873,2.747075,0.02761165,-0.9688793,-0.3445757,1.350544,26.52862,15.3602,1008.104
5.372710705,-32.85653,-22.65877,-0.1292969,0.08298804,-1.019639,-0.2463113,1.711333,26.89507,15.3564,1008.104
5.405264854,-31.19528,-17.42445,1.400688,0.04627117,-1.004538,-0.2523294,1.352175,26.5312,15.80627,1008.109
5.440326691,-41.47037,-19.92265,3.603867,0.01007328,-1.005184,-0.3204604,1.352175,26.5312,15.80627,1008.107
5.472884178,-51.43782,-8.383346,4.21586,-0.009670462,-0.9431778,-0.3320632,1.721674,26.53864,16.6335,1008.107
5.505442142,-53.16059,-17.95978,5.072652,-0.09020197,-0.9353252,-0.365702,2.101139,25.81625,17.08361,1008.107
5.540504455,-64.78928,-21.52864,7.337029,-0.08222942,-0.9118299,-0.3793692,2.101139,25.81625,17.08361,1008.107
5.573062420,-61.40527,-12.24961,13.51817,-0.0557575,-0.8424818,-0.3768866,2.479814,25.46542,18.86932,1008.107
5.605615616,-49.59199,-9.810887,13.02857,-0.0259667,-0.9501066,-0.4573478,2.921755,24.74568,19.70157,1008.107
5.640677929,-56.72918,-6.301513,10.3358,-0.04981217,-0.8972318,-0.3970627,2.921755,24.74568,19.70157,1008.111
5.673235893,-39.80913,-4.160199,9.417809,-0.05617801,-0.9086641,-0.4658705,3.308531,23.66206,20.60036,1008.111
5.705793858,-17.65924,-7.550612,7.643026,-0.06743973,-0.8597643,-0.4568962,4.070722,22.22245,22.39272,1008.11
5.740855217,-15.81342,-6.717879,5.562247,-0.07642254,-0.8774986,-0.4305724,4.070722,22.22245,22.39272,1008.11
5.773413181,-13.84454,-8.978154,5.501048,-0.08809573,-0.8909927,-0.4887722,3.70262,22.21721,21.94783,1008.108
5.805966854,-4.061674,-7.074765,7.949023,-0.06445827,-0.8859941,-0.5578416,4.082084,21.49483,22.39794,1008.108
5.841029644,-4.492366,-7.134246,6.29664,-0.09157654,-0.8472044,-0.5088859,4.082084,21.49483,22.39794,1008.108
5.873587131,-0.3700269,-8.323864,6.908634,-0.103201,-0.8569827,-0.5293257,3.709932,21.85599,22.39651,1008.106
5.906145096,-2.154323,-11.41687,6.663836,-0.114471,-0.8470126,-0.5098277,4.820706,21.13631,22.39817,1008.106
5.938703060,4.244533,-8.561788,8.071422,-0.1129358,-0.8580684,-0.5322332,4.820706,21.13631,22.39817,1008.104
5.973764896,1.537324,-17.06756,5.378649,-0.11924,-0.8857286,-0.4533753,5.188575,21.14117,22.77933,1008.104
6.006318569,0.9220497,-15.4021,3.359069,-0.1127723,-0.9082508,-0.5049631,5.188575,21.14117,22.77933,1008.107
6.038876534,29.7169,-11.47635,6.786235,-0.1105142,-0.869903,-0.5942883,5.188575,21.14117,22.77933,1008.107
6.073938847,28.11719,-11.29791,7.949023,-0.1085265,-0.8124568,-0.5035057,5.560727,20.78,22.78075,1008.107
6.106495857,17.10377,-11.77376,7.826625,-0.1298799,-0.8128681,-0.4744888,5.916856,21.13908,21.50246,1008.105
6.139053822,2.952456,-14.39092,8.377419,-0.1477847,-0.8251981,-0.4862606,5.916856,21.13908,21.50246,1008.107
6.174116135,0.9220497,-17.60289,7.27583,-0.1387384,-0.8455733,-0.4686953,5.911175,21.50289,21.49985,1008.105
6.206670284,1.16816,-15.22365,5.990643,-0.1122713,-0.863618,-0.4859143,6.648167,21.14179,21.05401,1008.105
6.239227772,15.50406,-13.49871,4.950253,-0.1371938,-0.844756,-0.4304975,6.648167,21.14179,21.05401,1008.103
6.274289608,22.45666,-9.632444,5.868244,-0.1096562,-0.8715256,-0.4497842,7.745947,21.14715,20.60437,1008.103
6.306847572,38.69991,-7.312689,5.807045,-0.1670107,-0.876747,-0.4280565,7.747579,21.14973,21.05045,1008.106
6.339405536,37.22325,-6.896322,3.971063,-0.1394638,-0.8949724,-0.4027422,7.747579,21.14973,21.05045,1008.104
6.371963024,23.4411,-6.955803,3.848664,-0.14015,-0.8637002,-0.3350751,7.364852,21.86696,19.7082,1008.104
6.407021522,10.8895,-3.684352,0.2990989,-0.146072,-0.912565,-0.4005874,8.451504,22.60031,19.31706,1008.103
6.439579487,22.57972,-6.479956,-0.06809749,-0.195628,-0.9143692,-0.3599634,8.451504,22.60031,19.31706,1008.103
6.472137451,3.936895,-7.312689,-5.759642,-0.09902552,-0.9889657,-0.2456677,8.073438,23.32491,19.24931,1008.103
6.507198810,-12.98316,-6.598917,1.461887,-0.2268928,-0.9468783,-0.3546287,8.070408,23.32011,18.42089,1008.105
6.539756775,-14.89051,-1.126671,5.31745,-0.166704,-0.8987095,-0.4071234,8.070408,23.32011,18.42089,1008.105
6.572314739,-0.6776642,-4.160199,7.581827,-0.1866663,-0.9350654,-0.3786561,8.439908,23.32756,19.24812,1008.105
6.607373238,-2.031268,-2.792138,6.602637,-0.2101291,-0.8815181,-0.3579981,8.44256,22.95895,18.42231,1008.105
6.639930725,-13.47538,-1.899923,1.890283,-0.2122102,-0.9667992,-0.4202027,8.44256,22.95895,18.42231,1008.107
6.672488213,-15.01356,-5.647223,4.521857,-0.2589765,-0.9136841,-0.3714929,8.435247,23.32018,17.97363,1008.107
6.707550526,-12.49094,-7.848017,8.499818,-0.2826021,-0.897833,-0.3978139,9.177133,22.96683,18.866,1008.107
6.740108490,-24.42726,-8.442826,8.683415,-0.2662289,-0.9319472,-0.4370204,9.549284,22.60566,18.86742,1008.107
6.772665977,-18.02841,-3.922275,15.47655,-0.2618133,-0.8240976,-0.3082511,9.549284,22.60566,18.86742,1008.109
6.805220127,-67.18884,9.282494,11.68219,-0.1183615,-0.8527244,-0.3349287,8.823423,22.23877,19.25476,1008.109
6.840281963,-62.94345,7.438584,19.08731,-0.07619736,-0.8717824,-0.5107259,9.933409,21.89065,20.59202,1008.107
6.872839451,-8.430124,27.00781,21.22929,-0.2197294,-0.8501432,-0.5503775,9.933409,21.89065,20.59202,1008.107
6.905397415,13.78129,15.52799,14.31376,-0.3289952,-0.8754188,-0.5424402,9.592925,20.43793,21.4958,1008.107
6.940459728,-29.53404,4.999866,8.561017,-0.329572,-0.7873837,-0.5584981,9.604288,19.71031,21.50102,1008.106
6.973017693,-9.291509,0.1819095,0.4214977,-0.2923178,-0.8149367,-0.5913407,9.604288,19.71031,21.50102,1008.106
7.005571365,12.98143,2.025819,-6.616433,-0.2373652,-0.8439956,-0.5633179,9.966707,20.07934,21.94329,1008.106
7.040633202,23.93332,1.252566,-5.025249,-0.2371714,-0.8457764,-0.4922889,9.598606,20.07412,21.49841,1008.106
7.073191166,25.84067,-0.353419,-3.372865,-0.2260028,-0.8664449,-0.4046404,9.598606,20.07412,21.49841,1008.106
7.105749130,-16.36716,-0.9482284,-1.659282,-0.2111967,-0.8856403,-0.4160652,9.957766,20.43799,21.04854,1008.109
7.140811443,-19.50506,-7.491131,2.808274,-0.2195768,-0.8898422,-0.4775101,9.946403,21.16561,21.04332,1008.109
7.173369408,-17.04397,-2.256809,4.399458,-0.2375563,-0.8492984,-0.4672066,9.946403,21.16561,21.04332,1008.107
7.205923080,-22.64297,3.453361,7.643026,-0.2747208,-0.8437874,-0.5028566,9.598606,20.07412,21.49841,1008.107
7.240984917,-33.22569,-2.256809,7.826625,-0.2438182,-0.854262,-0.4624425,10.33318,20.08199,21.9421,1008.107
7.273542404,-33.16416,-0.7103046,9.417809,-0.2086251,-0.833652,-0.5114664,10.33318,20.08199,21.9421,1008.107
7.306100368,-27.44211,3.155956,10.397,-0.2252207,-0.8034121,-0.5820455,9.985383,18.9905,22.3972,1008.103
7.338658333,-0.7391917,0.4793141,5.929443,-0.2489136,-0.7722185,-0.562695,9.991064,18.62669,22.39981,1008.106
7.373720646,-21.72005,4.107652,8.438618,-0.301791,-0.669758,-0.5876665,9.991064,18.62669,22.39981,1008.104
7.406274319,-64.05095,-4.160199,4.154661,-0.2776054,-0.7916868,-0.6383712,10.00243,17.89907,22.40503,1008.104
7.438831806,-36.79428,-0.9482284,4.827854,-0.2892824,-0.7495829,-0.6324003,9.646297,17.53999,23.68332,1008.102
7.473894119,-30.45695,8.211837,2.502277,-0.3114522,-0.7189595,-0.5903413,9.646297,17.53999,23.68332,1008.102
7.506452083,-43.25467,17.3719,2.379879,-0.2579232,-0.764752,-0.6268616,10.02413,16.81501,23.68736,1008.102
7.539009571,-29.16488,8.033394,7.337029,-0.2290636,-0.7347063,-0.6317481,10.7717,16.09785,24.58234,1008.105
7.574072361,-38.70163,7.022218,8.377419,-0.2309134,-0.7102342,-0.6743935,10.7717,16.09785,24.58234,1008.105
7.606626034,-29.65709,7.081698,9.356609,-0.230623,-0.6936983,-0.6760751,9.698271,14.63983,25.4885,1008.105
7.639183044,-26.0885,8.39028,11.86578,-0.2361538,-0.6872667,-0.7165753,9.337481,14.27338,25.4923,1008.105
7.674245834,-24.18115,7.557546,14.86455,-0.2514988,-0.6637024,-0.7055667,9.337481,14.27338,25.4923,1008.103
7.706803322,-22.51991,10.41263,16.02734,-0.2545927,-0.6515355,-0.7179458,9.354525,13.18194,25.50013,1008.103
7.739361286,-28.67266,9.817822,15.29295,-0.2650056,-0.6384856,-0.7317547,9.361837,12.82071,25.94881,1008.101
7.771919250,-22.02769,10.29367,14.13016,-0.2666335,-0.6258336,-0.7397774,9.361837,12.82071,25.94881,1008.101
7.806976795,-20.61256,13.20824,14.37496,-0.2565068,-0.5718305,-0.7230119,9.741069,12.09796,26.3352,1008.105
7.839534759,-32.05667,23.14155,10.3358,-0.3065997,-0.5773547,-0.7206309,9.385961,11.36769,26.34161,1008.105
7.872092724,-67.37343,31.4094,9.785005,-0.3091789,-0.5937135,-0.658039,9.385961,11.36769,26.34161,1008.105
7.907155037,-94.93773,52.6441,18.29172,-0.4215585,-0.6500664,-0.8772767,9.398954,10.64265,26.7929,1008.104
7.939713001,-107.4278,17.78827,-7.779222,-0.7267276,-0.6865432,-0.5730112,8.700943,8.828634,28.59262,1008.104
7.972270489,-93.64565,31.112,14.19136,-0.8100864,-0.5023621,-1.124554,8.700943,8.828634,28.59262,1008.102
8.007328510,-60.66693,-60.9645,0.4826971,-0.7182153,-0.7754378,-1.301858,8.368561,6.643122,28.60947,1008.102
8.039885998,17.47294,-28.4879,-11.20639,-0.1844151,-0.420332,-0.593642,7.312967,3.722112,28.18786,1008.1
8.072443962,-23.62741,-45.49945,-23.87466,-0.3766836,-0.9369225,-0.6201895,7.312967,3.722112,28.18786,1008.103
8.107506275,35.06979,-55.13536,-33.48297,-0.5008067,-0.6408086,-0.5773653,8.441574,1.53944,26.86174,1008.103
8.140064240,45.16029,-75.41837,-58.51352,-0.398,-0.754037,-0.4999181,7.367539,-0.2923508,26.04995,1008.103
8.172622204,71.80168,-89.9912,-69.71301,-0.345521,-0.7925689,-0.5329429,7.367539,-0.2923508,26.04995,1008.103
8.205175876,67.31017,-105.0994,-77.30173,-0.3462333,-0.5290073,-0.5656578,7.016481,-1.389013,25.6129,1008.101
8.240237713,29.47079,-111.7612,-85.19646,-0.3372158,-0.5175196,-0.6075451,7.403025,-2.473001,26.44796,1008.101
8.272795677,37.40783,-107.4786,-74.73136,-0.2359634,-0.4477633,-0.6935864,7.403025,-2.473001,26.44796,1008.101
8.305353165,39.25365,-89.15846,-53.55637,-0.181918,-0.3378244,-0.773652,8.883532,-3.18487,27.34057,1008.099
8.340415954,25.59456,-62.68945,-29.32141,-0.1894901,-0.2405163,-0.818081,10.74816,-4.611751,29.95778,1008.102
8.372973442,-7.568739,-43.29865,-9.00321,-0.2567537,-0.1918652,-0.8080896,10.74816,-4.611751,29.95778,1008.102
8.405527592,-45.77729,-54.65952,1.951483,-0.3486581,-0.2497305,-0.4265327,13.31025,-3.852686,32.1746,1008.102
8.440645218,-46.0234,-56.50342,29.00162,-0.2914965,0.0085914,-0.317754,15.52346,-4.55963,33.00111,1008.102
8.473203182,-67.06579,-56.80083,46.01505,-0.4496629,-0.006954662,-0.3449076,15.52346,-4.55963,33.00111,1008.102
8.505760670,-57.83667,-70.0056,74.96236,-0.6056585,0.171841,-0.3516968,17.74422,-5.627433,34.34003,1008.102
8.540823460,-118.3182,-76.9054,80.34792,-0.553499,-0.002386149,-0.3645562,19.99918,-9.312879,33.91336,1008.102
8.573380947,-102.5671,-88.32573,92.46539,-0.7286629,-0.1450595,-0.3796149,19.99918,-9.312879,33.91336,1008.102
8.605935097,-80.66336,-98.73489,107.2144,-0.8306473,-0.2381551,-0.505648,21.90781,-14.39816,33.05183,1008.102
8.640996933,-14.58287,-91.95407,132.551,-1.04285,0.1122399,-0.5740541,23.49868,-22.39141,33.10452,1008.102
8.673554420,-54.26808,-91.89459,144.3013,-1.228852,0.395725,-0.6029026,25.0774,-29.28548,34.4876,1008.108
8.706112385,-126.8705,-97.72372,122.3307,-1.189058,0.07732633,-0.5831464,25.0774,-29.28548,34.4876,1008.11
8.738670349,-108.4122,-96.23669,115.5376,-1.163491,0.04486523,-0.6387712,25.51041,-33.65114,34.07167,1008.11
8.773732662,-112.35,-96.23669,97.11655,-1.104851,0.1663651,-0.5770354,25.93145,-37.66296,31.93257,1008.108
8.806286335,-154.5578,-82.37764,67.98563,-1.120693,0.1567035,-0.5288299,25.93145,-37.66296,31.93257,1008.108
8.838844299,-121.8252,-97.48579,50.605,-1.159883,0.148118,-0.4636672,24.83543,-39.15677,26.65744,1008.11
8.873906136,-84.7857,-94.51175,42.03709,-1.130391,0.2933121,-0.4585803,24.4606,-40.29107,19.72048,1008.11
8.906464100,-46.08493,-104.5045,32.91838,-1.160511,0.4025446,-0.3055878,24.4606,-40.29107,19.72048,1008.111
8.939021587,-23.62741,-100.6383,23.06528,-1.174961,0.3517055,-0.282664,24.07479,-40.32434,14.43254,1008.113
8.974084377,-25.16559,-105.3373,7.092232,-1.100064,0.3257982,-0.2492952,23.32601,-40.35473,10.10164,1008.113
9.006638050,8.059235,-110.9285,15.35415,-1.032895,0.519129,-0.1415177,23.32601,-40.35473,10.10164,1008.113
9.039196014,-32.05667,-87.31456,-0.6188921,-0.9731175,0.4331964,-0.2037919,22.21704,-40.3778,7.4925,1008.115
9.074257374,-55.19099,-74.10979,-6.126838,-1.015444,0.1998578,-0.100968,21.84484,-40.76234,4.373796,1008.115
9.106815338,-24.11962,-65.9609,6.541437,-1.012319,0.1149768,-0.0234756,21.84484,-40.76234,4.373796,1008.115
9.139373302,21.16459,-33.84119,30.654,-0.9532243,0.3471924,-0.04560884,22.20441,-41.14343,0.9340925,1008.115
9.171930790,-3.261817,0.598276,31.44959,-0.9256343,0.5502459,0.0551045,22.21414,-41.87363,0.4932432,1008.115
9.206989288,-40.73204,14.15993,37.14114,-1.020322,0.3789495,0.1516748,22.21414,-41.87363,0.4932432,1008.117
9.239547252,-39.99371,24.15273,44.05667,-0.8989938,0.3015456,0.2064485,20.77014,-43.7136,-1.273234,1008.12
9.272105217,-28.61113,27.78106,48.27942,-0.8690762,0.2454755,0.2244159,20.41037,-44.45125,-2.541314,1008.122
9.307167053,-26.33461,33.84812,53.05298,-0.8489842,0.4079406,0.2520107,20.41037,-44.45125,-2.541314,1008.122
9.339724541,-42.94703,34.56189,49.07502,-0.9754384,0.438775,0.2695214,18.95096,-45.19721,-3.869553,1008.122
9.372282505,-68.78856,24.8665,36.77394,-1.046571,0.370969,0.3338115,17.49988,-46.67559,-6.020989,1008.123
9.407341003,-57.71362,21.05972,28.38962,-1.030609,0.3499719,0.1884626,17.49988,-46.67559,-6.020989,1008.123
9.439898968,-55.68321,16.47968,17.86333,-0.9975681,0.3581431,0.1962894,16.77014,-47.42141,-8.243749,1008.129
9.472456455,-28.73418,16.47968,10.5194,-0.9857364,0.3798532,0.1589058,16.39249,-47.44177,-11.30134,1008.131
9.507519245,3.198566,9.877303,-1.230886,-0.9162524,0.3587351,0.192353,16.39249,-47.44177,-11.30134,1008.131
9.540076733,28.48635,5.416232,-16.34714,-0.8535528,0.4253454,0.2590479,15.286,-47.08812,-11.68273,1008.133
9.572634697,27.87108,9.817822,-28.77061,-0.8397367,0.4793002,0.1907349,16.02197,-47.07803,-10.85669,1008.135
9.605187893,-13.47538,14.15993,-39.05212,-0.8290228,0.3948899,0.1870198,16.02197,-47.07803,-10.85669,1008.135
9.640250206,-19.87423,18.02619,-35.25775,-0.8576269,0.3842981,0.1897861,17.13032,-47.42873,-9.965501,1008.136
9.672808170,-20.55103,20.34595,-36.54294,-0.8207567,0.2701001,0.185108,18.59784,-47.41556,-9.524183,1008.136
9.705366135,-21.35089,20.22698,-40.3985,-0.7825786,0.2027552,0.1415066,18.59784,-47.41556,-9.524183,1008.138
9.740428448,-26.15003,25.99664,-41.07169,-0.7885864,0.2201015,0.1572451,20.04341,-46.31871,-10.42892,1008.138
9.772986412,-38.45552,27.18625,-43.64207,-0.8695989,0.1509986,0.1582025,22.23087,-45.5752,-10.44127,1008.138
9.805540085,-39.37843,33.55072,-41.80609,-0.8585776,0.0712031,0.1028363,22.23087,-45.5752,-10.44127,1008.138
9.840601921,-18.08993,44.8521,-27.79142,-0.9477152,0.19929,0.1097102,24.77446,-44.47263,-11.73192,1008.138
9.873159885,-20.12034,31.4094,-11.57358,-0.9399159,0.4041991,0.4917963,26.93212,-41.91228,-12.13967,1008.14
9.905717373,-6.461245,23.6174,11.80458,-1.087366,0.6139479,0.5425096,26.93212,-41.91228,-12.13967,1008.146
10.005891800,-27.68822,7.676508,-7.840421,-0.8220536,-0.1473619,-0.1427053,28.3696,-40.08264,-12.15749,1008.146
10.040953159,18.9496,9.460937,-20.2027,-0.7935159,-0.06155736,-0.01332889,28.37202,-40.45162,-13.04702,1008.146
10.073511124,51.06693,9.341974,-25.83304,-0.8003574,0.1265185,0.07607152,27.99419,-39.72665,-13.05105,1008.146
10.106069088,40.85337,4.64298,-31.52459,-0.8021613,0.1979366,0.07667947,27.99419,-39.72665,-13.05105,1008.147
10.138626576,35.06979,-4.21968,-26.01664,-0.9582257,0.2562744,0.2657537,28.72182,-38.98414,-11.40181,1008.15
10.173689365,104.1651,16.4202,14.98695,-1.514464,0.981521,-0.4926641,30.17555,-37.87437,-10.07619,1008.152
10.206243038,-250.0484,-116.8766,-19.03991,-0.9343849,-0.2906183,0.04228441,30.17555,-37.87437,-10.07619,1008.152
10.273862839,14.33504,-19.4468,10.091,-0.6981595,0.5587872,0.111087,31.26034,-37.14397,-10.97712,1008.15
10.306420326,-30.88764,-5.766184,-0.6800915,-1.013931,0.1537582,0.09989533,31.26034,-37.14397,-10.97712,1008.15
10.338978290,17.59599,-7.431651,-0.1292969,-1.064349,0.1350906,0.1059431,29.78878,-36.79075,-10.97497,1008.15
10.374040603,12.18157,-5.171375,-4.535654,-0.9712664,0.3532421,0.173954,29.79283,-37.15714,-11.41843,1008.15
10.406594753,-28.18044,2.501666,-8.268817,-0.8932937,0.2144817,0.1311581,29.79283,-37.15714,-11.41843,1008.15
10.439152241,-18.82826,8.092875,-6.677632,-0.9229623,0.1252021,0.1206404,30.52903,-37.14669,-10.52867,1008.15
10.474215031,15.381,14.5763,-4.229657,-0.9941671,0.130185,0.1033836,30.51869,-36.79025,-11.80577,1008.154
10.506772041,24.1179,13.74356,-3.86246,-0.9796998,0.2237421,0.09174583,30.51869,-36.79025,-11.80577,1008.154
10.539330006,8.059235,13.14876,-4.290856,-0.9551442,0.2089349,0.1050308,30.88982,-36.78023,-10.53247,1008.154
10.571887493,9.905058,16.47968,-4.107258,-0.9466043,0.1852597,0.09886082,31.24656,-36.04738,-10.09281,1008.156
10.606945991,5.721191,17.72878,-3.372865,-0.973378,0.1801392,0.07947346,31.62197,-36.40337,-9.199241,1008.16
10.639503956,6.459521,19.98906,-3.189267,-0.9655694,0.1764041,0.06829128,31.62197,-36.40337,-9.199241,1008.16
10.672061920,18.21127,21.47608,-3.86246,-0.975785,0.1695933,0.04064475,31.63497,-37.12841,-8.747946,1008.16
10.707124233,17.22683,22.78466,-6.677632,-0.9703355,0.2060599,0.05279688,31.98905,-36.02695,-7.482477,1008.16
10.739682198,16.05781,24.39065,-8.880811,-0.9756722,0.1945392,0.006222092,31.98905,-36.02695,-7.482477,1008.16
10.772239685,13.41212,23.02259,-10.2884,-0.9838724,0.1862038,-0.001147814,32.00368,-36.74941,-6.585111,1008.16
10.807297707,9.782003,23.9148,-10.71679,-0.9738511,0.1596564,-0.01268017,32.72852,-36.01133,-5.700567,1008.162
10.839855671,9.966585,22.42778,-8.513615,-0.9834242,0.1392508,-0.04150148,32.72852,-36.01133,-5.700567,1008.166
10.872413158,-1.662103,21.05972,-5.820841,-1.088663,0.1831148,-0.04943148,33.46207,-35.63226,-3.984992,1008.168
10.907475948,-11.01428,16.18228,-5.086448,-0.8747895,0.08071104,-0.1092054,33.82854,-35.62962,-3.986181,1008.168
10.940033436,-4.800004,14.81422,-3.250466,-0.9527786,0.2294886,-0.02516967,33.82854,-35.62962,-3.986181,1008.168
10.972591400,-18.70521,11.06692,-5.208847,-1.017013,0.1226236,-0.1147126,33.83017,-35.62703,-3.54011,1008.166
11.005145073,-4.984586,6.308446,-4.352056,-1.002466,0.1685289,-0.121277,33.8399,-36.35723,-3.980958,1008.164
11.040206909,-17.10549,2.977514,-6.677632,-0.9877946,0.1647992,-0.1140974,33.8399,-36.35723,-3.980958,1008.164
11.072764874,-5.292223,2.799071,-3.066868,-0.9852178,0.0320422,-0.09050629,34.92227,-35.25786,-3.992358,1008.164
11.105322361,10.27422,0.7172379,-1.047288,-0.9638652,0.1702158,-0.06134977,34.55416,-35.26309,-4.437242,1008.164
11.140385151,-10.15289,-0.7697856,-2.454874,-0.9847589,0.1612996,-0.08418435,34.55416,-35.26309,-4.437242,1008.167
11.172942638,3.32162,-0.1749762,-5.147647,-0.9857161,0.1565004,-0.1002081,34.18933,-35.26316,-3.989981,1008.165
11.205496788,-3.015707,0.0629476,-4.229657,-0.9685293,0.1075274,-0.0763196,34.92064,-35.26044,-4.43843,1008.165
11.240559101,1.721907,-0.7697856,0.5438964,-0.969578,0.1147857,-0.07234083,34.92064,-35.26044,-4.43843,1008.165
11.273117065,-5.169168,-2.732657,2.869474,-0.9928085,0.0970981,-0.0967571,35.28711,-35.2578,-4.439619,1008.167
11.305674553,6.890213,-3.089542,4.154661,-0.994184,0.1330141,-0.08992393,34.90928,-34.53283,-4.443653,1008.165
11.340736389,4.244533,-3.505909,2.25748,-0.985881,0.1402107,-0.04583485,34.90928,-34.53283,-4.443653,1008.163
11.373294353,4.121478,-0.5318618,-1.108487,-0.9557142,0.1772144,-0.08058593,34.92227,-35.25786,-3.992358,1008.163
11.405848026,4.429115,-0.2344571,-3.005668,-0.9664872,0.1425204,-0.07047055,35.29847,-35.98542,-4.434397,1008.163
11.440910816,1.229687,1.966338,-3.434064,-0.9750734,0.1249573,-0.08039775,35.29847,-35.98542,-4.434397,1008.166
11.473468304,10.2127,1.431009,-1.904079,-0.9680101,0.1041455,-0.07927195,34.56148,-35.62432,-3.988558,1008.168
11.506026268,5.228972,0.1224285,-0.1292969,-0.9813349,0.1233225,-0.05963145,34.55743,-35.25793,-3.545098,1008.168
11.538584232,1.598852,-0.7103046,-0.2516957,-0.9872788,0.1286617,-0.07501231,34.55743,-35.25793,-3.545098,1008.166
11.573646068,2.952456,-0.7103046,-0.06809749,-0.9842435,0.1185045,-0.07710371,34.55743,-35.25793,-3.545098,1008.166
11.606199741,6.336466,-0.6508237,-0.4964933,-0.9923604,0.1451565,-0.08297317,34.56311,-35.62174,-3.542487,1008.166
11.638757706,3.936895,-1.662,1.094691,-0.9750302,0.1201224,-0.0857887,34.56311,-35.62174,-3.542487,1008.166
11.673820019,5.413554,-1.186152,1.706685,-0.9750969,0.130232,-0.0648492,34.9239,-35.25528,-3.546287,1008.164
11.706377983,13.53518,0.3603523,1.094691,-0.9693329,0.09578913,-0.06247998,34.56474,-35.61916,-3.096416,1008.162
11.738935471,25.53303,3.274918,0.7274947,-0.9801923,0.1443741,-0.08976412,34.56474,-35.61916,-3.096416,1008.167
11.773998260,26.51747,2.263742,2.441078,-1.009898,0.1387583,-0.1154401,34.55906,-35.25534,-3.099027,1008.167
11.806551933,17.78057,-0.4128999,4.338259,-1.002801,0.1193119,-0.09399167,34.9375,-35.60654,-1.37704,1008.165
11.839109898,16.05781,-1.06719,5.072652,-0.9443404,0.08155547,-0.06707165,34.9375,-35.60654,-1.37704,1008.163
11.874171257,23.87179,0.0629476,5.378649,-0.9485304,0.1082011,-0.06037719,34.20861,-35.97823,-1.818124,1008.163
11.906729221,22.0875,-0.7103046,4.460658,-0.9569554,0.1610987,-0.06729606,33.47651,-35.60938,-0.03406906,1008.161
11.939287186,10.64339,0.003466659,1.584286,-0.9537115,0.2113279,-0.09505211,33.47651,-35.60938,-0.03406906,1008.161
11.971845150,-4.738476,-1.424076,2.25748,-0.9771608,0.1717416,-0.1140017,33.48788,-36.33701,-0.02884674,1008.161
12.006903172,-17.47466,-2.197328,1.890283,-0.9974614,0.1673942,-0.07151131,33.4822,-35.97319,-0.0314579,1008.161
12.039461136,-17.53619,-3.149023,4.583056,-0.9969984,0.077189,-0.1125249,33.4822,-35.97319,-0.0314579,1008.161
12.072019100,-16.42869,-6.242032,4.766655,-0.9613149,0.03608019,-0.05518125,34.2135,-35.97048,-0.479908,1008.161
12.107081413,17.8421,-7.015284,5.990643,-1.065381,0.1294221,-0.145015,33.47894,-35.97836,-0.9236021,1008.161
12.139639378,11.87394,-11.83324,2.318679,-1.020086,0.2273854,-0.07589136,33.47894,-35.97836,-0.9236021,1008.16
12.172197342,9.905058,-9.810887,-5.94324,-0.8695658,0.2116501,-0.1381489,33.47894,-35.97836,-0.9236021,1008.164
12.207254886,-0.7391917,-9.92985,-5.576043,-0.770676,0.2361707,-0.01074219,33.47488,-35.61197,-0.4801416,1008.166
12.239812851,-31.25681,5.594675,-9.370406,-0.9467541,0.1366007,0.004826871,33.47488,-35.61197,-0.4801416,1008.164
12.272370338,-37.40956,-4.636046,0.6050959,-1.399213,-0.02735034,-0.1862381,33.11246,-35.98101,-0.9224138,1008.164
12.307433128,0.1837202,-13.85559,3.665066,-0.6766272,0.1574791,0.03533741,33.83809,-35.61449,-1.373474,1008.162
12.339990616,-24.67337,-3.030061,15.10935,-1.044837,0.117629,-0.1645498,33.83809,-35.61449,-1.373474,1008.161
12.372548580,-31.25681,-23.25358,9.907404,-1.187662,0.0643134,-0.07241699,33.47404,-35.98611,-2.261818,1008.159
12.405102253,5.475081,-18.97095,8.25502,-0.8648461,0.1920665,-0.09349822,33.46207,-35.63226,-3.984992,1008.159
12.440164089,-1.539049,-10.52466,8.438618,-0.8920143,0.2181615,0.07417449,33.46207,-35.63226,-3.984992,1008.157
12.472722053,-16.85938,-13.08234,14.86455,-1.053473,0.1016408,0.01213055,33.10859,-36.35995,-3.53251,1008.157
12.505280018,-14.52134,-17.54341,14.61976,-1.043752,0.1911043,0.03185437,32.73318,-36.00395,-4.426075,1008.16
12.540342331,10.52033,-12.24961,13.82417,-0.9787388,0.1639067,0.0004405654,32.37481,-36.73938,-5.311809,1008.16
12.572900295,10.2127,-14.56936,13.45697,-0.89987,0.1839893,0.0847784,32.37481,-36.73938,-5.311809,1008.16
12.605453968,3.444675,-7.015284,11.25379,-0.9994745,0.2349695,0.02474683,31.64615,-37.1107,-5.689167,1008.16
12.640516281,18.02668,-0.2344571,14.19136,-1.186364,0.2840852,-0.08888377,30.91056,-36.74739,-4.860982,1008.16
12.673074245,20.3032,-10.76258,17.98573,-1.393945,0.1624277,-0.1156751,30.91056,-36.74739,-4.860982,1008.16
12.705632210,27.62497,-11.05999,18.84252,-1.155724,0.3168385,-0.1493191,30.19629,-37.84153,-4.404699,1008.158
12.740694046,22.02597,-8.145421,16.02734,-0.8495764,0.2807733,0.001132105,29.10582,-38.20811,-3.506377,1008.16
12.773251533,24.97929,-1.364595,11.37619,-0.7065948,0.2369456,0.1086019,29.10582,-38.20811,-3.506377,1008.158
12.805805683,18.88807,-1.305114,3.23667,-0.7086478,0.2575638,0.1640234,28.75235,-38.9358,-3.053895,1008.158
12.840867996,8.674509,-1.06719,-8.146419,-0.798871,0.2761421,0.2016139,28.41326,-40.38631,-1.767771,1008.156
12.873425961,5.044389,-4.457603,-15.79634,-0.8738705,0.1887323,0.1844013,28.41326,-40.38631,-1.767771,1008.156
12.905983448,9.351311,-4.992932,-15.97994,-0.9532395,0.1263936,0.09265199,28.04111,-40.02514,-1.769193,1008.154
12.938541412,9.597421,-7.015284,-8.391216,-1.024423,0.1564895,0.004238515,28.03869,-39.65617,-0.8796597,1008.157
12.973603725,13.22754,-6.12307,-1.84288,-1.013251,0.197533,-0.01158091,28.03869,-39.65617,-0.8796597,1008.157
13.006157875,17.53446,-6.182551,7.643026,-0.9715406,0.2078962,-0.03321502,28.757,-38.92842,-1.779404,1008.155
13.038715363,13.41212,-6.77736,12.78378,-0.9612353,0.2530122,0.01435089,29.51025,-40.00939,-0.8818035,1008.155
13.073777199,-1.846686,-8.383346,13.45697,-0.9036628,0.2972558,0.06862514,29.51025,-40.00939,-0.8818035,1008.155
13.106335163,-14.02912,-9.513483,14.98695,-0.8772023,0.281601,0.06014337,28.033,-39.29236,-0.8822708,1008.153
13.138892651,-13.35232,-3.386947,15.10935,-0.9435806,0.2872015,0.02790663,26.93359,-39.3003,-0.878705,1008.153
13.173955441,-10.21442,1.371528,12.66138,-0.9226582,0.2989188,0.07591951,26.93359,-39.3003,-0.878705,1008.153
13.206509113,-13.5369,6.189485,7.765425,-0.836956,0.309073,0.1190122,26.94169,-40.03308,-1.765627,1008.152
13.239067077,-16.92091,11.36433,3.420268,-0.8294821,0.3420956,0.1460946,26.94169,-40.03308,-1.765627,1008.152
13.274129391,-26.70378,16.71761,-5.270046,-0.9579613,0.2732781,0.05574395,26.94169,-40.03308,-1.765627,1008.15
13.306687355,-18.82826,18.73996,-6.432835,-1.016587,0.2324957,-0.01442792,26.57219,-40.04053,-2.592856,1008.15
13.339244842,-12.36788,24.45013,-6.494034,-1.024108,0.2931433,-0.01301202,26.94435,-40.40169,-2.591434,1008.15
13.371802807,-20.61256,24.45013,-7.595623,-1.065995,0.2104461,-0.00988286,26.94435,-40.40169,-2.591434,1008.15
13.406860828,-6.707355,20.94076,-8.513615,-1.043685,0.1762367,-0.01139306,27.3035,-40.03782,-3.041306,1008.15
13.439418316,12.61227,17.19346,-5.208847,-1.018863,0.1742057,-0.02788282,27.6643,-39.67136,-3.045107,1008.154
13.471976280,18.33432,9.63938,-4.290856,-0.9955947,0.2274392,-0.01790897,27.6643,-39.67136,-3.045107,1008.154
13.507038593,16.61155,6.903256,-3.005668,-0.9626909,0.2429957,-0.03123794,27.66756,-39.66619,-2.152963,1008.154
13.539596558,13.65823,9.282494,-2.210076,-0.9769332,0.2454103,-0.06840736,28.03706,-39.65875,-1.325731,1008.152
13.572154522,9.658948,11.66173,-2.699672,-1.012272,0.2682922,-0.0714078,28.03706,-39.65875,-1.325731,1008.152
13.607213020,-0.1239171,18.621,-9.186809,-1.006312,0.2923556,-0.1087498,28.40516,-39.65352,-0.8808489,1008.152
13.639770508,-13.59843,19.09685,-12.55278,-0.9810402,0.2205938,-0.07361578,27.67143,-39.28725,0.4571333,1008.151
13.672328472,-13.16774,16.06332,-12.67517,-0.9625241,0.2193861,-0.07558559,27.67143,-39.28725,0.4571333,1008.151
13.707390308,-17.84382,12.13758,-10.83919,-0.9351673,0.1806363,-0.02641536,28.39138,-38.55692,0.003461838,1008.149
13.739948273,-8.368597,9.04457,-7.167228,-0.9372913,0.1923474,-0.04266946,28.39869,-38.91815,0.4521446,1008.147
13.772505760,17.59599,1.906857,-2.393674,-0.9058875,0.2207978,-0.01036284,28.39869,-38.91815,0.4521446,1008.147
13.805059910,12.2431,1.312047,-3.128067,-0.9270648,0.2038942,0.01211842,28.38811,-38.56209,-0.8886824,1008.145
13.840122223,-5.169168,0.9551617,-10.2272,-0.9852967,0.1837398,0.002199607,27.65601,-38.19324,0.8953724,1008.145
13.872680187,-17.04397,1.49049,-12.18558,-1.023073,0.1510029,-0.06738627,27.65601,-38.19324,0.8953724,1008.148
13.905237675,-1.477521,1.074124,-13.83796,-1.098567,0.179008,-0.136009,28.02249,-38.19059,0.8941832,1008.148
13.940300465,8.305345,13.50564,-15.73514,-1.122772,0.02592651,-0.2079274,28.76111,-38.54911,0.8944168,1008.146
13.972857952,40.54573,14.45734,-1.108487,-1.240687,0.1874388,-0.2590043,28.76111,-38.54911,0.8944168,1008.144
14.005412102,39.06907,36.82217,5.990643,-1.162937,0.3036802,-0.3742831,28.01252,-37.46076,1.271309,1008.144
14.040474415,38.63838,39.26089,32.12278,-1.239893,0.5136064,-0.3739064,28.37579,-36.71758,3.495257,1008.147
14.073032379,16.4885,35.63255,39.28311,-1.402986,0.465815,-0.3783451,28.37579,-36.71758,3.495257,1008.145
14.105589867,65.89504,-22.12344,40.5683,-1.190358,0.3844011,-0.2492807,28.0286,-37.4353,5.668303,1008.145
14.140651703,56.78898,45.32795,14.55856,-0.8557257,0.5173579,0.006680968,25.47449,-37.43611,8.735405,1008.143
14.173209667,14.08893,52.94151,-20.1415,-1.128174,0.1199438,-0.3766365,25.47449,-37.43611,8.735405,1008.142
14.205763340,51.92831,20.94076,-28.70942,-1.079433,0.1043238,-0.4354104,23.29984,-38.15932,12.25261,1008.142
14.240825653,73.70903,27.18625,-35.86975,-0.9315772,0.3365482,-0.2067566,22.22624,-38.872,16.21232,1008.142
14.273383617,33.47007,49.19421,-45.47805,-0.9945883,0.1788246,-0.4367726,22.22624,-38.872,16.21232,1008.14
14.305941582,90.01381,50.56227,-59.43151,-0.9782597,0.02272602,-0.4773566,22.59579,-38.11885,20.15683,1008.143
14.338499546,97.70474,68.10914,-67.38743,-0.9326531,0.06257119,-0.558,21.4976,-37.37925,23.59631,1008.139
14.373561859,101.4579,100.4668,-80.11691,-0.9110604,0.1603547,-0.623235,21.4976,-37.37925,23.59631,1008.139
14.406115532,145.8192,87.97577,-66.46944,-1.10343,0.128883,-0.7724096,22.57839,-35.53676,26.25611,1008.137
14.438673496,96.84335,60.73351,-95.90635,-0.8106357,0.007522407,-0.7131548,22.90329,-32.24469,28.84413,1008.134
14.473735332,143.9734,72.86761,-65.49025,-0.7427489,0.26501,-0.6039159,22.47656,-27.86906,30.98062,1008.132
14.506292820,157.0787,97.61168,-40.8269,-0.6569112,0.5664985,-0.7125093,22.47656,-27.86906,30.98062,1008.127
14.538850784,104.4728,105.2252,-42.96888,-0.5627474,0.4462741,-0.617759,22.38324,-21.67911,31.82838,1008.127
14.573913097,64.29533,117.4188,-37.64453,-0.5746637,0.07469195,-0.4875877,20.4687,-16.23038,32.62357,1008.124
14.606467247,72.10931,59.66285,-85.68605,-0.5311798,-0.7304819,-0.07937579,20.4687,-16.23038,32.62357,1008.12
14.639024734,94.32073,167.7992,49.50341,-0.1122522,0.5896112,-1.131287,17.84659,-12.6108,32.60578,1008.117
14.674087524,-9.660673,115.456,-10.71679,-0.9217709,0.3608082,-0.0637998,16.68064,-8.250433,33.02409,1008.119
14.706645012,-60.60541,87.02408,-2.760871,-0.4951724,-0.5011073,-0.3959066,16.68064,-8.250433,33.02409,1008.119
14.739202976,50.14402,76.91232,25.26845,-0.5472687,-0.4661281,-0.2227571,12.23761,-5.682263,31.74515,1008.116
14.771760940,74.57041,62.16105,47.30024,-0.4751372,-0.2877033,-0.3481995,9.669056,-5.705956,30.86132,1008.114
14.806819439,53.77414,39.97466,36.34554,-0.521267,-0.2871169,-0.289174,9.669056,-5.705956,30.86132,1008.112
14.839376926,62.81867,19.8701,37.56953,-0.5608653,-0.4493083,-0.32593,8.520933,-2.808577,29.95186,1008.107
14.871934891,65.58741,2.501666,41.24149,-0.5107119,-0.4538272,-0.1515483,8.108402,-0.2745113,28.2142,1008.105
14.906996727,44.91418,-23.78891,38.42632,-0.4989451,-0.5069788,0.02647884,8.108402,-0.2745113,28.2142,1008.105
14.939741135,0.4913574,-61.14294,23.92207,-0.5486788,-0.7173945,0.1968489,8.448887,1.178212,27.31043,1008.108
14.972299099,-147.7898,-55.3138,-105.7595,-0.1313711,-3.216963,-1.37786,9.856503,4.07899,23.77993,1008.104
15.007356644,444.7811,-11.00051,-28.77061,-1.215653,-1.161479,-1.625329,9.856503,4.07899,23.77993,1008.102
15.039914608,123.3002,-55.13536,-31.21859,-1.425428,-0.2035379,0.005900129,10.9764,2.255331,21.62279,1008.101
15.072472572,51.86678,-77.08383,-37.76693,-0.9282074,-0.2604039,-0.2762893,11.96461,9.170509,20.67747,1008.101
15.107534885,34.70062,-48.23557,-48.66042,-0.4537462,-0.6787655,-0.4329767,11.96461,9.170509,20.67747,1008.099
15.140092850,6.274939,-48.83038,-20.3863,-0.2917565,-0.5485252,-0.2875832,13.39011,11.354,18.93648,1008.103
15.172650337,-67.06579,-42.82281,-21.30429,-0.1431895,-0.6374091,-0.3016504,13.00091,12.80659,18.92723,1008.101
15.207708835,-60.17472,-19.92265,-27.85262,-0.3230475,-1.208969,-0.4943633,13.00091,12.80659,18.92723,1008.1
15.240266800,105.9494,-15.52106,-23.07907,-0.6114429,-1.063801,-0.4333816,13.72654,13.17311,18.47617,1008.1
15.272824764,152.4642,-19.26836,-27.60783,-0.7741027,-0.5580651,-0.2142733,14.82837,12.81208,17.58307,1008.1
15.305382252,52.7897,-32.94897,-39.29691,-0.6461844,-0.6344898,-0.2484323,14.82837,12.81208,17.58307,1008.098
15.340445042,9.843531,-34.7334,-39.9701,-0.5018508,-0.8685983,-0.2951638,14.41989,14.97975,15.40195,1008.1
15.373002529,31.25509,-28.01206,-41.50009,-0.4133438,-0.849156,-0.2557991,14.0177,17.15738,14.9414,1008.1
15.405556679,35.3159,-19.32784,-42.35688,-0.3878188,-0.9299412,-0.1598975,14.0177,17.15738,14.9414,1008.1
15.440618515,70.57113,-11.77376,-39.9701,-0.428002,-1.029235,-0.136238,13.64392,17.51596,14.49391,1008.099
15.473176002,69.03294,-5.885146,-41.68369,-0.4110397,-0.9837375,-0.1529618,13.25575,18.59737,13.21277,1008.099
15.505733967,34.33146,-2.673176,-40.4597,-0.3598275,-0.8958208,-0.1018821,13.25575,18.59737,13.21277,1008.097
15.540796280,19.07265,3.929209,-38.86852,-0.2854934,-0.9410964,-0.1920693,12.48951,20.40338,11.86388,1008.101
15.573354244,19.99556,14.93318,-32.01418,-0.2219131,-0.9218087,-0.1899029,12.47246,21.49481,11.85605,1008.101
15.605907917,10.52033,24.45013,-26.07784,-0.2132638,-0.865892,-0.1706898,12.47246,21.49481,11.85605,1008.101
15.640970707,-28.11891,50.26486,-25.22105,-0.192939,-0.949046,-0.4214005,11.36169,22.21449,11.85439,1008.101
15.673528194,-47.43853,58.23531,-24.73145,-0.08032534,-1.070357,-0.3552039,10.98386,22.93947,11.85036,1008.1
15.706086159,-42.94703,69.29876,-25.64944,-0.08439084,-1.099054,-0.3619217,10.98386,22.93947,11.85036,1008.104
15.738644123,-32.11819,74.88996,-30.79019,-0.07169855,-1.083252,-0.2742016,10.59955,24.39982,13.17932,1008.104
15.773706436,-18.33604,77.32868,-41.43889,-0.1181408,-1.135728,-0.1971337,9.49749,24.76048,14.00869,1008.104
15.806260109,5.844246,71.9754,-48.90522,-0.1405049,-1.111353,-0.06477837,9.49749,24.76048,14.00869,1008.1
15.838818073,24.67165,68.34706,-49.94561,-0.1438272,-1.026056,-0.02142005,9.481288,26.22606,15.78253,1008.1
15.873879909,42.08392,58.8896,-46.64084,-0.1708439,-0.9461291,0.06586649,7.26137,27.668,16.22529,1008.099
15.906437874,49.09805,47.23133,-33.36057,-0.2248498,-0.7702101,0.1285412,7.26137,27.668,16.22529,1008.099
15.938995361,31.07051,37.17905,-16.83673,-0.2361354,-0.6305358,0.1616192,5.404661,29.10743,15.77472,1008.099
15.974058151,4.367588,22.13037,4.705455,-0.2946484,-0.545653,0.1383184,5.006522,30.91867,14.87071,1008.101
16.006611824,-26.7653,3.869728,28.87922,-0.2990928,-0.40308,0.1946361,5.006522,30.91867,14.87071,1008.101
16.039169312,-62.14359,-8.145421,54.33817,-0.2172583,-0.3959367,0.03515171,3.527647,31.63312,14.42417,1008.099
16.074232101,-86.56999,-18.79251,75.57436,-0.1179189,-0.4635547,-0.09310389,5.000841,31.28248,14.8681,1008.098
16.106789589,-178.7381,-15.16417,16.51694,-0.02290032,-1.352146,-0.3199215,5.000841,31.28248,14.8681,1008.098
16.139347553,-92.84579,19.69166,-28.95421,0.3595619,-3.90278,-3.047746,7.221601,30.21468,16.20702,1008.096
16.171905518,314.2199,51.98981,-11.87958,-0.4194827,-0.552719,-0.1599124,8.368704,27.68849,18.38836,1008.1
16.206964016,-79.06364,25.40183,-5.88204,-0.5810934,-0.5102198,0.07581311,8.368704,27.68849,18.38836,1008.1
16.239521503,-31.44139,6.130003,-17.69352,-0.3870541,-0.9803261,-0.08671025,7.970744,28.7544,14.4308,1008.098
16.272079468,-27.56516,5.832599,2.991873,-0.2080393,-0.815222,-0.182973,7.599435,29.4897,16.21105,1008.098
16.307141781,-131.1774,9.104051,21.29049,-0.07246196,-0.8096095,-0.2796936,7.599435,29.4897,16.21105,1008.098
16.339699745,-159.6031,-2.494733,3.481468,-0.002767294,-1.365986,-0.3182185,7.235993,29.49185,17.04066,1008.097
16.372257709,-40.54746,26.59145,7.826625,-0.07732084,-1.108519,-0.5037022,7.638004,28.05955,20.55476,1008.097
16.407315254,-13.5369,25.93715,16.14974,-0.276172,-0.7217026,-0.3153759,7.321876,25.15417,21.91506,1008.095
16.439873218,-28.24196,24.8665,16.08854,-0.2347926,-0.7724537,-0.3650112,7.321876,25.15417,21.91506,1008.097
16.472431183,-22.33533,11.06692,10.1522,-0.1742962,-0.8730714,-0.4023745,7.695659,24.79559,22.36255,1008.097
16.507493496,-44.54674,28.37587,16.33334,-0.01508755,-0.8415776,-0.6708052,7.710051,24.07277,23.1962,1008.097
16.540051460,-65.03539,27.30522,3.665066,-0.1271713,-0.7402588,-0.615013,7.710051,24.07277,23.1962,1008.101
16.572608948,-85.09334,13.38668,0.2378995,-0.0806342,-0.7530037,-0.5649812,7.375248,22.25623,24.10258,1008.101
16.605163097,-62.51276,18.68048,-3.617662,-0.04855196,-0.7458237,-0.5557185,6.656931,21.52848,25.00233,1008.101
16.640225410,-54.32961,29.50601,-4.168457,-0.0113819,-0.8288141,-0.6880156,6.656931,21.52848,25.00233,1008.101
16.672783375,-30.45695,31.05252,-8.146419,-0.02984409,-0.7664617,-0.7716374,6.684549,20.08099,26.35099,1008.099
16.705340862,-16.18258,18.20463,-9.676403,-0.04479412,-0.7327353,-0.7498399,5.602181,18.98161,26.36238,1008.099
16.740403652,-13.47538,8.211837,-9.00321,-0.06028244,-0.6984459,-0.7464015,5.602181,18.98161,26.36238,1008.099
16.772961140,-14.76745,2.263742,-13.77676,-0.08853021,-0.6778781,-0.6484184,5.609261,18.62002,26.74734,1008.099
16.805515289,-29.71862,-0.05601428,-15.12315,-0.08718044,-0.7308692,-0.7473537,4.505798,18.97847,27.19437,1008.099
16.840577126,-10.399,5.773118,-19.34591,-0.03380783,-0.6618643,-0.6994648,4.505798,18.97847,27.19437,1008.099
16.873135567,-43.50077,8.687684,-18.18312,-0.1519186,-0.6998941,-0.5848873,5.263096,17.5311,27.64851,1008.097
16.905693054,-57.46751,10.65056,-16.95913,-0.08347043,-0.690108,-0.8289094,4.166946,17.52833,28.54422,1008.102
16.940754890,-1.292939,10.59107,-11.57358,-0.09758613,-0.6831684,-0.7925367,4.166946,17.52833,28.54422,1008.1
16.973312855,24.67165,11.1264,-9.309207,-0.01911012,-0.6946545,-0.8203401,4.18399,16.4369,28.55205,1008.1
17.005866528,55.98912,10.11523,-7.656823,0.01188724,-0.7162411,-0.7941136,3.458361,16.07038,29.00312,1008.1
17.040929317,81.83066,5.95156,-2.699672,0.007903256,-0.7303433,-0.6976495,3.458361,16.07038,29.00312,1008.098
17.073486805,80.66164,5.475713,0.1155007,0.008293411,-0.7457998,-0.6113613,3.073215,17.15658,28.5504,1008.096
17.106044769,75.73943,10.53159,5.868244,0.03025967,-0.7897887,-0.6009359,3.403358,18.96573,26.36952,1008.095
17.138602734,70.01739,6.605851,5.133851,0.01471613,-0.8290072,-0.5715499,3.403358,18.96573,26.36952,1008.095
17.173665047,65.52588,10.35315,10.4582,0.05004188,-0.8428283,-0.5307078,3.005219,20.77697,25.46551,1008.096
17.206218719,57.52731,10.53159,10.1522,0.01438929,-0.8307329,-0.5140541,1.813848,22.21092,23.22847,1008.096
17.238776684,42.14545,4.524018,9.417809,-0.01509113,-0.8519791,-0.5220838,1.813848,22.21092,23.22847,1008.095
17.273838997,24.61012,0.4198332,8.132621,0.007130864,-0.857966,-0.4250379,2.951614,23.67455,23.21426,1008.096
17.306396961,9.843531,-3.743833,10.88659,0.009960878,-0.85348,-0.441407,2.143203,24.39163,22.38319,1008.095
17.338954925,0.6759399,-3.030061,13.15097,-0.02806343,-0.8424827,-0.4039825,2.143203,24.39163,22.38319,1008.095
17.374017238,-12.36788,-0.9482284,14.61976,0.001291996,-0.8675626,-0.4686826,2.92991,24.7586,21.93193,1008.101
17.406570911,-4.000147,3.750766,10.6418,-0.05505995,-0.937927,-0.5465585,2.931541,24.76118,22.37801,1008.099
17.439128876,-6.891937,1.431009,5.562247,-0.03218007,-0.9276289,-0.5014695,2.931541,24.76118,22.37801,1008.101
17.474190712,-5.907498,-1.06719,3.848664,-0.07097039,-0.9009086,-0.5034413,2.931541,24.76118,22.37801,1008.096
17.506748199,-3.323345,-0.293938,1.400688,-0.04286015,-0.8884079,-0.4998941,3.664482,24.76647,22.37563,1008.096
17.539306164,-0.3700269,0.3008713,0.1767001,-0.0260962,-0.8634198,-0.4961454,3.664482,24.76647,22.37563,1008.101
17.571864128,4.79828,-0.4723809,0.8498935,-0.0159196,-0.8570136,-0.4863899,3.664482,24.76647,22.37563,1008.099
17.606922626,8.797564,11.36433,-0.8024903,0.2224084,-0.9003751,-0.4215423,3.666113,24.76906,22.8217,1008.099
17.639480114,11.19713,5.118828,5.133851,-0.0281406,-0.8907986,-0.4665917,3.666113,24.76906,22.8217,1008.099
17.672038078,10.27422,2.263742,3.787465,-0.02726352,-0.8791945,-0.4509475,4.030953,24.76912,22.37444,1008.099
17.707100391,7.136323,0.7767189,2.441078,-0.01950219,-0.8334352,-0.4449397,4.395792,24.76919,21.92718,1008.099
17.739658356,0.7989948,1.371528,0.8498935,-0.051579,-0.8805211,-0.4427269,4.395792,24.76919,21.92718,1008.099
17.772216320,-2.400433,0.598276,-1.047288,-0.004906787,-0.9187204,-0.4588227,4.016328,25.49158,21.47707,1008.101
17.807274818,8.489926,1.014643,-1.414484,-0.07976498,-0.9380111,-0.4923978,4.025271,25.13293,22.37183,1008.099
17.839832306,9.905058,0.7767189,-2.699672,-0.05952302,-0.9135808,-0.463042,4.025271,25.13293,22.37183,1008.099
17.872390270,26.94817,5.23779,-8.391216,0.01727085,-0.8491148,-0.4186287,4.378749,25.86062,21.91935,1008.097
17.907452583,9.535893,1.966338,-4.474454,-0.01129019,-0.7666764,-0.3535377,4.01796,25.49416,21.92315,1008.097
17.940177441,1.721907,1.074124,-2.148877,-0.01695919,-1.068752,-0.5253891,4.01796,25.49416,21.92315,1008.1
17.972734928,9.597421,2.382704,-5.270046,-0.02289238,-1.024487,-0.5503271,3.642545,25.85016,21.02958,1008.1
18.007793427,31.56272,8.568723,-14.32756,-0.02802507,-0.8563455,-0.4544652,3.640914,25.84757,20.58351,1008.1
18.040351391,41.77628,4.880904,-10.77799,-0.01582322,-0.7469586,-0.3208463,3.640914,25.84757,20.58351,1008.1
18.072909355,21.96444,2.323223,-3.311665,-4.632171E-05,-0.8378419,-0.2763272,2.474743,26.203,20.58466,1008.1
18.105466843,16.36544,0.1224285,0.05430131,0.03317051,-1.036661,-0.3857355,2.882219,27.29272,19.74702,1008.1
18.140529633,16.91919,2.085299,-4.780451,-0.004755759,-1.046294,-0.406631,2.882219,27.29272,19.74702,1008.1
18.173087120,23.93332,14.10045,-14.32756,0.01124771,-0.9082031,-0.3745703,2.443308,28.01726,19.74319,1008.102
18.205641269,6.521049,8.39028,-12.30798,0.02198686,-0.8539473,-0.3051134,2.084938,27.28182,18.85745,1008.102
18.240703106,-8.184014,3.750766,-9.064409,0.04327468,-0.9460498,-0.4032145,2.084938,27.28182,18.85745,1008.102
18.273260593,0.9835772,16.36072,-12.91997,0.02764225,-0.9276125,-0.334762,2.066263,28.37068,18.40355,1008.1
18.305819034,23.81026,27.00781,-22.03868,0.08260722,-1.015139,-0.3811044,1.344684,27.63776,18.41115,1008.099
18.340880871,0.6144124,41.75909,-31.46339,0.08854599,-0.9273595,-0.3227325,0.966851,28.36274,18.40711,1008.097
18.373438835,-48.42297,26.413,-20.1415,0.01890616,-0.8931153,-0.3574294,0.966851,28.36274,18.40711,1008.097
18.405992508,14.45809,2.620628,6.174241,-0.02072903,-0.9597523,-0.3526072,-0.4990318,28.35215,18.41187,1008.097
18.441055298,3.260093,-2.31629,21.53529,0.0716906,-0.8647791,-0.3454469,-1.22303,27.98821,19.309,1008.097
18.473612785,7.567015,-3.267985,16.33334,0.06348205,-1.050756,-0.4053148,-1.22303,27.98821,19.309,1008.095
18.506170750,25.65609,-3.56539,10.091,0.06189368,-1.033896,-0.3770202,-0.5030818,28.71854,18.85533,1008.095
18.538728714,35.74659,-4.398123,12.29418,0.06972094,-0.938849,-0.3083883,-0.8598211,27.98569,18.41567,1008.095
18.573791027,28.97857,-2.97058,10.0298,0.0349483,-0.9688434,-0.331531,-0.8598211,27.98569,18.41567,1008.095
18.606344700,28.17871,-1.007709,5.868244,0.03818472,-0.9489843,-0.3075457,-0.5136564,29.0746,17.5145,1008.095
18.638902664,22.7643,-0.05601428,5.501048,0.03459884,-0.9234976,-0.2583324,0.5743933,29.81017,17.50571,1008.101
18.673964977,19.07265,-0.05601428,4.399458,0.03632826,-0.9900236,-0.2661163,0.5743933,29.81017,17.50571,1008.099
18.706522942,17.34988,2.73959,2.19628,0.03479455,-0.9756413,-0.2272252,0.2089441,29.43633,16.23502,1008.099
18.739080906,11.32019,2.620628,1.033492,0.024023,-0.9709175,-0.2281095,0.5640521,30.1666,16.22861,1008.099
18.774143219,5.228972,0.8956807,0.5438964,0.03500315,-0.9499191,-0.2186156,0.5640521,30.1666,16.22861,1008.101
18.806696892,-2.70807,-0.1154952,0.1767001,0.04323256,-0.9473442,-0.2268017,0.559159,30.15885,14.8904,1008.101
18.839254856,-6.891937,-0.05601428,-0.1904963,0.04444319,-0.9753494,-0.2634833,0.1902692,30.52518,15.78112,1008.101
18.874317169,-0.1239171,-0.4128999,1.400688,0.04164043,-0.9879706,-0.2747908,0.1902692,30.52518,15.78112,1008.107
18.906875133,5.967301,-1.424076,4.27706,0.04596274,-0.9787669,-0.2558029,-0.168889,30.1613,16.23099,1008.107
18.939433098,8.182289,1.193085,5.439848,0.06090305,-0.9583113,-0.2226356,0.5705216,29.43123,14.89562,1008.105
18.971990585,13.04296,2.977514,7.214631,0.03946313,-0.9599913,-0.2352084,0.5705216,29.43123,14.89562,1008.105
19.007048607,11.87394,3.274918,6.113041,0.01140091,-0.9787626,-0.2490022,0.9272606,30.16408,15.33528,1008.105
19.039606094,15.44253,7.79547,3.603867,0.0396564,-0.9760395,-0.2325531,0.1886382,30.52259,15.33504,1008.104
19.072164059,19.07265,7.914432,1.400688,-0.006882647,-0.9989064,-0.2536423,0.1886382,30.52259,15.33504,1008.104
19.107226372,3.875368,12.55395,-2.026478,-0.001105483,-0.9820629,-0.2007028,0.912636,30.88653,14.43791,1008.102
19.139784336,-1.169884,11.48329,-3.495264,0.01528568,-0.9710823,-0.2169859,0.5477965,30.88647,14.88517,1008.102
19.172342300,2.767874,5.29727,-2.577273,0.04882341,-0.9524587,-0.1553453,0.5477965,30.88647,14.88517,1008.102
19.207400799,2.091071,3.512842,-1.720481,0.02785744,-0.9944801,-0.1661171,-0.5605588,31.23717,13.99399,1008.102
19.239958286,-4.000147,0.598276,-1.292085,0.02265492,-0.9649229,-0.1613107,0.1683326,31.60886,14.43507,1008.102
19.272516250,-23.56588,0.2413904,-3.923659,0.02682673,-0.9449809,-0.1527931,0.1683326,31.60886,14.43507,1008.102
19.307578564,-33.53333,-0.4128999,-6.065639,0.04765352,-0.9549671,-0.2477074,-0.1908259,31.24499,14.88494,1008.108
19.340136528,-29.53404,-0.9482284,-5.270046,0.05652096,-0.9669302,-0.2633666,-0.1778324,30.51995,15.33624,1008.106
19.372694492,-26.70378,-1.662,-2.82207,0.05822562,-0.9920883,-0.2835705,-0.1778324,30.51995,15.33624,1008.106
19.407752991,-23.56588,-2.197328,0.1155007,0.0524179,-0.9988881,-0.3010702,-0.167258,30.16389,16.67706,1008.106
19.440310478,-14.45982,-2.137847,2.135081,0.04280882,-0.9693442,-0.3059273,0.1992126,30.16653,16.67587,1008.105
19.472868442,-4.615421,-1.424076,2.624676,0.03037303,-0.9461946,-0.3021785,0.1992126,30.16653,16.67587,1008.103
19.505426407,2.091071,-0.293938,1.094691,0.03344292,-0.9597445,-0.3062552,0.211973,29.44113,17.06344,1008.103
19.540488720,10.33575,0.598276,-0.9248891,0.03760954,-0.9839693,-0.3109792,0.2079227,29.80752,17.5069,1008.103
19.573046684,17.90363,1.014643,-0.9860885,0.0375458,-0.9762431,-0.300227,0.2079227,29.80752,17.5069,1008.103
19.605600357,11.19713,0.3603523,-0.6188921,0.03486551,-0.9396798,-0.2261933,0.2048938,29.80272,16.67848,1008.103
19.640662670,-10.09137,0.003466659,-2.148877,0.04827385,-0.9162597,-0.207964,0.5711312,29.805,16.61357,1008.103
19.673220634,-23.38129,-1.186152,-3.128067,0.03793433,-0.9560813,-0.2443314,0.5711312,29.805,16.61357,1008.103
19.705778599,-26.88836,-2.673176,-5.270046,0.04180135,-0.9631125,-0.2898799,-0.1601789,29.80229,17.06202,1008.105
19.740840435,-27.38058,-2.435252,-4.719252,0.04066564,-0.9590248,-0.3367039,-0.1544976,29.43848,17.06463,1008.103
19.773397922,-22.76602,-2.673176,-3.128067,0.06044488,-0.9465354,-0.3544174,-0.1544976,29.43848,17.06463,1008.103
19.805952549,-14.45982,-1.602519,-1.904079,0.04970736,-0.949008,-0.3757134,-0.1512356,29.44364,17.95677,1008.105
19.841014385,-0.9237741,-0.05601428,-0.06809749,0.04790919,-0.9578676,-0.3565117,-0.8752337,29.07971,18.85391,1008.104
19.873572350,8.305345,0.0629476,0.4826971,0.05035753,-0.9573851,-0.3487727,-0.8752337,29.07971,18.85391,1008.102
19.906129837,15.19642,-0.1749762,1.523087,0.0473537,-0.950139,-0.3476925,-0.1422925,29.085,18.85153,1008.102
19.938687801,16.4885,-0.5318618,2.073882,0.04735959,-0.9472961,-0.3316977,-0.136611,28.72119,18.85414,1008.102
19.973750114,16.85766,-0.293938,2.19628,0.0474589,-0.9527093,-0.3167957,-0.136611,28.72119,18.85414,1008.1
20.006304264,15.99628,-0.1154952,1.890283,0.0494678,-0.9561247,-0.308149,-0.1455545,29.07983,17.95938,1008.1
20.038861752,15.25795,0.003466659,1.584286,0.04517689,-0.9592028,-0.2849897,-0.1528666,29.44106,17.5107,1008.1
20.073924541,12.30463,-0.353419,1.584286,0.04765468,-0.9625791,-0.2835934,-0.1528666,29.44106,17.5107,1008.1
20.106482029,12.36616,-0.7697856,2.379879,0.04573217,-0.9626506,-0.2734418,-0.1585479,29.80487,17.50809,1008.1
20.139039993,11.13561,-0.5913427,2.747075,0.04081447,-0.9597723,-0.2791936,0.2062917,29.80494,17.06083,1008.1
20.174102306,10.76644,-0.6508237,2.502277,0.03848882,-0.9680886,-0.2740011,0.2062917,29.80494,17.06083,1008.102
20.206656456,10.76644,-0.1749762,1.829084,0.0394646,-0.9657013,-0.2618812,0.211973,29.44113,17.06344,1008.102
20.239213943,9.474366,-0.1154952,1.339489,0.03414071,-0.9658305,-0.2488269,0.1935313,30.53034,16.67326,1008.102
20.274276733,5.044389,0.003466659,0.2378995,0.03364589,-0.9605908,-0.2269945,0.5624211,30.16401,15.78254,1008.102
20.306834221,0.5528849,0.1819095,-0.4964933,0.03660475,-0.9668036,-0.2415935,0.5624211,30.16401,15.78254,1008.102
20.339392185,-1.662103,0.1224285,-0.3740945,0.04197406,-0.9686598,-0.245494,0.2016318,29.79756,15.78634,1008.1
20.371950149,-3.630982,-0.2344571,-0.006898092,0.04100746,-0.9701126,-0.2493822,0.2016318,29.79756,15.78634,1008.098
20.407008648,-4.369312,-0.353419,0.4826971,0.04148117,-0.970082,-0.2546993,-0.5353599,30.15866,16.23218,1008.103
20.439566135,-3.754037,-0.4128999,0.6662952,0.03713446,-0.972107,-0.2494089,-0.1802516,30.88892,16.22577,1008.103
20.472124100,-2.646543,-0.293938,0.6050959,0.037137,-0.9749653,-0.2620203,-0.168889,30.1613,16.23099,1008.097
20.507186413,-0.8007191,0.3008713,0.1155007,0.03266918,-0.9686837,-0.2667539,-0.168889,30.1613,16.23099,1008.101
20.539744377,-1.046829,0.2413904,-0.3740945,0.03703191,-0.9662123,-0.2633368,0.5697334,29.80279,16.23122,1008.101
20.572302341,-1.723631,0.3008713,-0.3128951,0.03614455,-0.9725661,-0.2581157,-0.168889,30.1613,16.23099,1008.101
20.607360840,-1.846686,0.1224285,-0.2516957,0.03802024,-0.966226,-0.2575375,-0.168889,30.1613,16.23099,1008.101
20.639918327,-0.9237741,0.003466659,-0.06809749,0.04144786,-0.9695456,-0.2658088,-0.168889,30.1613,16.23099,1008.101
20.672476292,0.3067751,-0.1154952,0.2378995,0.04046232,-0.9690615,-0.2682174,-0.1745703,30.52511,16.22838,1008.099
20.707538128,1.16816,0.003466659,0.2378995,0.03558115,-0.9672011,-0.2638339,-0.1745703,30.52511,16.22838,1008.097
20.740095615,1.783434,-0.293938,0.3602983,0.03902923,-0.970558,-0.2638884,0.1975815,30.16395,16.2298,1008.103
20.772654533,1.844962,0.003466659,0.05430131,0.03320116,-0.9711377,-0.2600246,0.1975815,30.16395,16.2298,1008.103
20.805208206,1.721907,-0.05601428,0.4214977,0.03271377,-0.9701919,-0.2556593,0.1975815,30.16395,16.2298,1008.103
20.840270042,1.229687,-0.1749762,0.2378995,0.03757675,-0.9691655,-0.2537148,-0.167258,30.16389,16.67706,1008.102
20.872827530,0.2452476,0.1819095,-0.1292969,0.03414033,-0.9663054,-0.251251,0.1935313,30.53034,16.67326,1008.102
20.905385494,-0.6776642,0.0629476,-0.4352939,0.035598,-0.9672319,-0.2570671,0.1935313,30.53034,16.67326,1008.102
20.940447807,-1.292939,0.1819095,-0.5576927,0.03706454,-0.9691257,-0.2638647,0.5551088,30.52524,15.33386,1008.102
20.973005772,-1.046829,0.1224285,-0.4352939,0.03851327,-0.9676576,-0.2619101,0.2032628,29.80014,16.23241,1008.102
21.005559444,-0.4930818,-0.05601428,-0.3740945,0.03999184,-0.9695735,-0.2638743,0.2032628,29.80014,16.23241,1008.102
21.040622234,-0.3700269,-0.293938,0.2990989,0.03899856,-0.966697,-0.258029,0.2048938,29.80272,16.67848,1008.1
21.073179722,-0.3084995,-0.05601428,0.3602983,0.03708829,-0.9710714,-0.263411,0.1992126,30.16653,16.67587,1008.104
21.105737686,-0.246972,-0.1154952,0.1155007,0.03221764,-0.9711328,-0.2638906,0.1992126,30.16653,16.67587,1008.104
21.140799999,-0.1239171,0.1819095,-0.5576927,0.03706491,-0.9686507,-0.2614405,0.1975815,30.16395,16.2298,1008.104
21.173357964,0.4913574,0.1819095,-0.3740945,0.04480851,-0.9646575,-0.2623538,0.5510585,30.89163,15.77732,1008.102
21.205911636,1.291214,-0.05601428,0.4826971,0.0400026,-0.9681663,-0.2527352,0.5510585,30.89163,15.77732,1008.102
21.240974426,0.06066529,-0.293938,0.6662952,0.03705553,-0.9653043,-0.249305,0.186219,30.89157,16.22458,1008.102
21.273531914,-0.7391917,-0.1154952,0.05430131,0.03323017,-0.9740444,-0.2620025,0.2006104,30.16875,17.05822,1008.1
21.306089878,-0.8622466,0.1819095,-0.6188921,0.03856122,-0.9725014,-0.2653677,0.2006104,30.16875,17.05822,1008.1
21.338647842,-0.1854445,0.7172379,-1.108487,0.03553839,-0.9618912,-0.2560188,0.1919003,30.52776,16.22719,1008.1
21.373710155,-0.06238963,0.4793141,-0.7412909,0.03558274,-0.9667283,-0.2609264,-0.1729393,30.52769,16.67445,1008.099
21.406263828,-0.3084995,0.4198332,-0.9860885,0.03514127,-0.970147,-0.2585612,-0.1729393,30.52769,16.67445,1008.099
21.438821792,-0.7391917,0.3603523,-1.047288,0.04483024,-0.966124,-0.2604427,0.5640521,30.1666,16.22861,1008.1
21.473884106,-1.539049,0.2413904,-1.108487,0.04142036,-0.9647393,-0.2541344,-0.1715415,30.52991,17.0568,1008.107
21.506442070,-2.215851,0.1819095,-0.9860885,0.04186835,-0.9637105,-0.2652368,-0.1715415,30.52991,17.0568,1008.107
21.539000034,-1.046829,0.2413904,-0.4352939,0.04531041,-0.9670565,-0.2677081,0.1935313,30.53034,16.67326,1008.108
21.574062347,0.9220497,-0.293938,0.5438964,0.04541506,-0.9748574,-0.2620267,-0.1615767,29.80007,16.67967,1008.108
21.606616020,2.521764,-0.293938,1.094691,0.04247287,-0.9734311,-0.2634522,-0.1615767,29.80007,16.67967,1008.108
21.639173984,3.690785,-0.5913427,1.584286,0.03848989,-0.965237,-0.2599397,0.5656831,30.16918,16.67468,1008.107
21.674236298,3.81384,-0.4128999,1.767884,0.03758682,-0.970135,-0.254213,-0.5280476,29.79743,16.68086,1008.107
21.706794262,2.398709,0.0629476,0.9110928,0.03228636,-0.974112,-0.2499182,-0.5280476,29.79743,16.68086,1008.108
21.739352226,1.16816,0.1819095,-0.5576927,0.03173342,-0.9692417,-0.2537104,0.1975815,30.16395,16.2298,1008.108
21.771909714,-0.00086217,0.657757,-1.598082,0.03562409,-0.9677551,-0.2488577,0.1975815,30.16395,16.2298,1008.108
21.806968212,-0.9237741,0.4793141,-1.292085,0.04831207,-0.9709694,-0.2537527,0.1975815,30.16395,16.2298,1008.107
21.839526176,-2.215851,-0.05601428,0.1155007,0.04437736,-0.9657169,-0.2444846,0.1959505,30.16137,15.78373,1008.107
21.872084141,-4.430839,-0.293938,0.3602983,0.04140585,-0.9632859,-0.2531455,-0.168889,30.1613,16.23099,1008.107
21.907145977,-4.984586,0.0629476,-0.1904963,0.03947189,-0.9671415,-0.2657702,-0.168889,30.1613,16.23099,1008.107
21.939704418,-3.877092,0.3008713,-1.169687,0.03907484,-0.9768242,-0.2751017,-0.5394101,30.52505,16.67564,1008.105
21.972261906,-2.338906,0.4198332,-1.292085,0.04144793,-0.9709725,-0.2725978,-0.1558955,29.43626,16.68228,1008.103
22.007319927,-0.246972,-0.05601428,-0.3128951,0.04426691,-0.9621859,-0.2729499,-0.1558955,29.43626,16.68228,1008.103
22.039877892,1.045105,-0.1154952,0.4826971,0.04715829,-0.957812,-0.2646686,0.5697334,29.80279,16.23122,1008.103
22.072436333,2.214126,0.0629476,0.6050959,0.04340488,-0.9700127,-0.2643677,-0.1615767,29.80007,16.67967,1008.105
22.107498169,3.137038,-0.353419,1.278289,0.04439448,-0.9714556,-0.264874,-0.1615767,29.80007,16.67967,1008.109
22.140055656,2.398709,-0.4723809,1.645486,0.0389921,-0.9657341,-0.2560807,0.2048938,29.80272,16.67848,1008.107
22.172613621,1.106632,-0.353419,1.461887,0.03794537,-0.960382,-0.2603485,0.1919003,30.52776,16.22719,1008.107
22.207672119,-0.1239171,-0.1749762,0.7274947,0.03312261,-0.96386,-0.2574966,-0.1729393,30.52769,16.67445,1008.107
22.240230083,0.06066529,-0.1749762,0.2990989,0.029289,-0.9678288,-0.2507862,-0.1729393,30.52769,16.67445,1008.106
22.272787571,-0.6161367,-0.1154952,0.05430131,0.03714865,-0.9754622,-0.259611,0.1992126,30.16653,16.67587,1008.106
22.305345535,-2.215851,0.2413904,-0.8024903,0.04432607,-0.9665744,-0.2696333,0.1992126,30.16653,16.67587,1008.107
22.340407848,-3.261817,0.4793141,-0.9248891,0.04570753,-0.9588007,-0.2651656,-0.5353599,30.15866,16.23218,1008.107
22.372965813,-2.400433,-0.2344571,0.5438964,0.03119821,-0.9663061,-0.2594656,0.2048938,29.80272,16.67848,1008.107
22.405519485,-0.4315544,-0.8292665,1.829084,0.02844815,-0.9823529,-0.2655083,0.2048938,29.80272,16.67848,1008.106
22.440582275,3.32162,-0.5318618,1.21709,0.03081199,-0.9760087,-0.264447,-0.167258,30.16389,16.67706,1008.106
22.473139763,3.383148,-0.1154952,-0.3740945,0.03721023,-0.9361544,-0.2464436,0.1935313,30.53034,16.67326,1008.108
22.505697727,-3.384872,0.4198332,-1.108487,0.03987258,-0.966502,-0.2981471,-0.1632078,29.79749,16.2336,1008.106
22.540760040,-1.354466,0.4793141,-1.108487,0.02792745,-0.9808707,-0.2722524,-0.1632078,29.79749,16.2336,1008.106
22.573318005,2.829401,-0.2344571,-0.2516957,0.05709182,-0.9689796,-0.2387462,0.2006104,30.16875,17.05822,1008.106
22.605871677,-0.246972,0.003466659,0.2990989,0.03189406,-0.9386758,-0.2416431,0.1992126,30.16653,16.67587,1008.105
22.640934467,-0.6161367,0.1819095,-0.9248891,0.04857035,-0.9524721,-0.2592713,0.1992126,30.16653,16.67587,1008.106
22.673491955,-0.1854445,0.3008713,-0.8024903,0.05551083,-0.9640231,-0.264288,0.1975815,30.16395,16.2298,1008.106
22.706049919,-2.769598,-0.353419,0.3602983,0.03466371,-0.9734998,-0.2706963,0.1919003,30.52776,16.22719,1008.106
22.738607883,-1.231411,-0.6508237,1.278289,0.03910062,-0.9792494,-0.2761055,0.1919003,30.52776,16.22719,1008.105
22.773670196,1.352742,-0.353419,1.033492,0.03509452,-0.9653055,-0.2546203,0.1975815,30.16395,16.2298,1008.109
22.806223869,0.6759399,-0.4128999,0.7274947,0.03500229,-0.9570516,-0.2530442,0.1959505,30.16137,15.78373,1008.107
22.838781834,-0.6161367,0.003466659,0.2378995,0.03263694,-0.9652956,-0.263802,0.1959505,30.16137,15.78373,1008.107
22.873844147,-0.4315544,0.1224285,-0.4964933,0.03666742,-0.9773815,-0.2664071,0.5697334,29.80279,16.23122,1008.105
22.906402111,-0.3084995,0.4198332,-0.5576927,0.03805895,-0.9705772,-0.2624376,0.1975815,30.16395,16.2298,1008.105
22.938960075,-0.8622466,0.3008713,-0.5576927,0.037539,-0.9681453,-0.2643335,0.1975815,30.16395,16.2298,1008.104
22.974022388,0.1837202,0.2413904,-0.4352939,0.04087958,-0.9627448,-0.2666713,0.5583708,30.53041,16.226,1008.102
23.006576061,-0.3084995,0.003466659,-0.1292969,0.03945016,-0.965675,-0.2676813,0.1992126,30.16653,16.67587,1008.102
23.039134026,-0.8007191,-0.05601428,0.4214977,0.04049164,-0.9700662,-0.2609821,0.1992126,30.16653,16.67587,1008.102
23.074196339,-0.3700269,-0.1154952,0.2378995,0.03754344,-0.968629,-0.2648243,-0.1615767,29.80007,16.67967,1008.102
23.106754303,0.3067751,-0.05601428,0.4214977,0.03701754,-0.9676129,-0.2759259,0.5656831,30.16918,16.67468,1008.1
23.139312267,0.5528849,0.003466659,0.7274947,0.0413802,-0.9637147,-0.2657198,0.5656831,30.16918,16.67468,1008.1
23.171869755,0.7989948,0.0629476,0.2990989,0.03362451,-0.966259,-0.2628509,-0.1705201,30.15872,15.78492,1008.098
23.206928253,0.7374673,0.0629476,-0.5576927,0.03659894,-0.9710734,-0.2643773,0.2048938,29.80272,16.67848,1008.098
23.239486217,0.5528849,-0.05601428,-0.4352939,0.03951211,-0.969593,-0.2609739,0.2048938,29.80272,16.67848,1008.098
23.307106495,-1.108356,0.003466659,-0.1292969,0.04134308,-0.9588908,-0.2579121,0.5583708,30.53041,16.226,1008.097
23.339664459,-0.8622466,-0.05601428,-0.06809749,0.04189971,-0.9651946,-0.259459,0.5583708,30.53041,16.226,1008.097
23.372221947,-0.7391917,0.1224285,0.05430131,0.03803722,-0.9691108,-0.2643487,-0.168889,30.1613,16.23099,1008.097
23.407280445,-0.7391917,0.1819095,-0.3740945,0.03469348,-0.9754567,-0.267826,0.186219,30.89157,16.22458,1008.097
23.439838409,-0.6161367,0.2413904,-0.8024903,0.03803609,-0.9705355,-0.2716211,0.186219,30.89157,16.22458,1008.097
23.472395897,-0.8622466,0.4198332,-1.475684,0.03365035,-0.9701111,-0.2706437,0.2048938,29.80272,16.67848,1008.097
23.507458687,0.1837202,0.2413904,-1.230886,0.04241528,-0.9685699,-0.2638613,0.5713644,29.80537,16.6773,1008.095
23.540016174,0.1837202,0.4793141,-0.4352939,0.04236695,-0.964201,-0.2628279,0.5713644,29.80537,16.6773,1008.093
23.572574139,1.352742,0.3603523,-0.9248891,0.04436103,-0.9680651,-0.2624054,0.5583708,30.53041,16.226,1008.093
23.607632637,3.32162,0.2413904,-1.353285,0.04190984,-0.9675912,-0.2667462,0.1992126,30.16653,16.67587,1008.099
23.640190601,4.121478,0.4198332,-0.8024903,0.04288734,-0.9675851,-0.2652969,0.1992126,30.16653,16.67587,1008.097
23.672748089,3.875368,0.4793141,-0.5576927,0.04293795,-0.9691044,-0.2517856,-0.1745703,30.52511,16.22838,1008.096
23.705306053,4.05995,0.5387951,-0.7412909,0.04194639,-0.9686092,-0.2566108,0.5640521,30.1666,16.22861,1008.096
23.740368366,3.875368,0.3008713,-0.7412909,0.04491233,-0.9719812,-0.2547316,0.5640521,30.1666,16.22861,1008.096
23.772926331,2.029544,0.598276,-1.169687,0.03899355,-0.9624074,-0.2395952,-0.1745703,30.52511,16.22838,1008.096
23.805480003,-0.246972,1.014643,-2.393674,0.0375948,-0.9691985,-0.2464647,0.2016318,29.79756,15.78634,1008.094
23.840542793,-0.9237741,0.8956807,-2.332475,0.04596064,-0.9768606,-0.2475564,0.2016318,29.79756,15.78634,1008.092
23.873100281,-3.138762,0.4793141,-1.781681,0.05268196,-0.9670843,-0.2406465,0.2032628,29.80014,16.23241,1008.092
23.905658245,-7.199574,0.2413904,-1.475684,0.04680112,-0.9628115,-0.2352585,0.1959505,30.16137,15.78373,1008.09
23.940720558,-10.15289,-0.05601428,-2.393674,0.0487258,-0.9660732,-0.2604457,0.1959505,30.16137,15.78373,1008.09
23.973278522,-10.82969,-1.780962,-2.393674,0.06822289,-0.9672812,-0.2595162,-0.1762013,30.52253,15.78231,1008.095
24.005832195,-13.5369,-3.386947,-1.904079,0.02972352,-0.9701048,-0.2832076,-0.1745703,30.52511,16.22838,1008.093
24.040894032,-13.90607,-1.602519,-3.066868,0.05210572,-0.9702569,-0.2924157,-0.1745703,30.52511,16.22838,1008.093
24.073452473,-12.1833,-3.386947,-2.88327,0.06471419,-0.9628624,-0.2792638,-0.5337288,30.16124,16.67825,1008.091
24.106010437,-14.89051,-3.505909,-2.516073,0.04522264,-0.968323,-0.3097811,-0.5264168,29.80001,17.12693,1008.091
24.138568401,-16.18258,-5.171375,-2.944469,0.04282092,-0.9707931,-0.3078829,-0.5264168,29.80001,17.12693,1008.091
24.173630714,-24.61184,-4.338642,-2.88327,0.07426737,-0.9538352,-0.3129717,-0.5193374,29.43841,17.51189,1008.096
24.206184387,-26.5192,-4.21968,-3.005668,0.07807911,-0.945546,-0.3080152,-0.1585479,29.80487,17.50809,1008.096
24.238742351,-28.85724,-3.089542,-1.169687,0.08497289,-0.9612921,-0.3522494,-0.1585479,29.80487,17.50809,1008.096
24.273804188,-35.68679,-17.95978,1.278289,0.05253669,-0.9468988,-0.4037198,-0.5030818,28.71854,18.85533,1008.096
24.306362629,-36.97886,-40.9789,-2.271276,0.09691111,-0.9013074,-0.3629467,-0.13498,28.72377,19.30021,1008.096
24.338920593,-57.09834,-31.9378,-7.167228,0.1069968,-0.8895035,-0.3647099,-0.13498,28.72377,19.30021,1008.094
24.373982429,-71.49577,-14.68832,-3.984859,0.05376128,-0.8941864,-0.4488375,-0.475697,27.27068,20.14027,1008.094
24.406536579,-81.15558,-8.02646,-1.904079,0.007858744,-0.8897902,-0.4782122,0.9893973,27.65283,21.47112,1008.096
24.439094543,-89.52332,-8.08594,2.073882,-0.01942423,-0.8535534,-0.5090525,0.2968345,25.47463,23.20972,1008.096
24.474156380,-88.23124,-9.691926,6.663836,0.01788125,-0.8109204,-0.585295,0.2968345,25.47463,23.20972,1008.096
24.506714344,-90.32317,-9.751407,8.744616,-0.001525267,-0.7899575,-0.6545627,1.059025,24.03501,25.00208,1008.094
24.539272785,-76.29491,-13.26078,9.540207,-0.01786421,-0.8110214,-0.6650192,1.466107,21.86513,26.80084,1008.092
24.571830273,-48.36144,-8.859193,13.51817,-0.01737116,-0.8214896,-0.7125503,1.466107,21.86513,26.80084,1008.09
24.606888294,-7.322629,-9.92985,13.02857,-0.002130848,-0.8267894,-0.6792929,1.858332,20.41733,27.63852,1008.09
24.639446735,7.259378,-5.409298,16.02734,-0.0235284,-0.694115,-0.632294,2.615629,18.96996,28.09266,1008.09
24.672004700,1.106632,-7.015284,14.86455,-0.04620698,-0.7209517,-0.6737686,2.615629,18.96996,28.09266,1008.087
24.707066536,-1.415994,-9.870369,15.41535,-0.05073637,-0.7539779,-0.6916696,2.245108,19.33371,28.5373,1008.087
24.739624977,1.968017,-12.66597,13.08977,-0.04986259,-0.7404652,-0.6682622,3.413699,18.6093,27.64662,1008.087
24.772182465,-9.599146,-9.513483,12.60018,-0.04109712,-0.7503397,-0.7157922,3.413699,18.6093,27.64662,1008.085
24.807240486,0.3683026,-8.383346,12.60018,-0.06982939,-0.6951184,-0.6511163,3.41128,18.97828,28.53615,1008.085
24.839798927,-1.046829,-10.10829,13.64057,-0.08697537,-0.689921,-0.6674553,4.152321,18.25078,27.64685,1008.084
24.872356892,0.7374673,-11.9522,11.68219,-0.07714009,-0.7365245,-0.6512576,4.152321,18.25078,27.64685,1008.086
24.907418728,7.813125,-12.36857,12.04938,-0.08266605,-0.7210651,-0.646666,4.514742,18.61983,28.08913,1008.084
24.939976215,21.96444,-8.204903,12.78378,-0.09603998,-0.7075058,-0.6739987,4.518792,18.25343,27.64566,1008.084
24.972534657,10.15117,-12.30909,11.86578,-0.09750281,-0.6994358,-0.6361707,4.518792,18.25343,27.64566,1008.084
25.007592678,8.920619,-12.9039,7.887824,-0.07377975,-0.7335383,-0.6570158,4.892575,17.89485,28.09316,1008.086
25.040150642,11.25866,-7.729055,7.887824,-0.1086238,-0.7624509,-0.7043109,5.610891,18.6226,27.19342,1008.086
25.072709084,10.2127,-13.49871,6.419038,-0.09256265,-0.7541414,-0.6689131,5.610891,18.6226,27.19342,1008.084
25.105266571,8.489926,-8.145421,4.889054,-0.10501,-0.7770497,-0.6900357,6.33247,19.35551,27.18581,1008.084
25.140328407,11.07408,-13.43923,5.623446,-0.1337486,-0.7237194,-0.6369897,5.975731,18.62266,26.74615,1008.084
25.172886372,19.13418,-6.182551,10.2746,-0.1252636,-0.7045447,-0.6608741,5.975731,18.62266,26.74615,1008.084
25.205440998,18.27279,-9.751407,4.21586,-0.1618821,-0.8150181,-0.6267543,6.331072,19.3533,26.80347,1008.081
25.240502834,29.28621,-10.7031,4.583056,-0.1457137,-0.7736669,-0.5894024,7.423172,19.72247,26.35122,1008.082
25.273060322,22.0875,-9.156597,6.23544,-0.1531567,-0.7649477,-0.604247,7.423172,19.72247,26.35122,1008.087
25.305618763,8.612982,-8.621269,0.2378995,-0.1758903,-0.8168359,-0.5880985,7.414228,20.08111,25.45647,1008.087
25.340680599,18.08821,-7.015284,4.032262,-0.1681323,-0.7677412,-0.5675384,7.408547,20.44493,25.45385,1008.087
25.373238563,-2.585015,-8.02646,1.523087,-0.1324547,-0.810266,-0.5194007,7.408547,20.44493,25.45385,1008.085
25.405793190,15.8117,-2.078366,5.133851,-0.1621168,-0.8221437,-0.5572566,8.131758,21.18042,25.89233,1008.085
25.440855026,12.55074,-3.327466,3.23667,-0.2294433,-0.8536451,-0.5562221,8.122814,21.53907,24.99757,1008.085
25.473412514,5.352026,-6.12307,3.359069,-0.1855185,-0.8608658,-0.5525076,8.122814,21.53907,24.99757,1008.085
25.505970955,-0.3084995,-2.732657,7.520627,-0.1605958,-0.8312712,-0.576249,7.7474,21.89507,24.104,1008.085
25.538528919,-6.276663,-3.743833,5.378649,-0.2000591,-0.8231864,-0.5437013,8.486023,21.53655,24.10424,1008.085
25.573590755,6.459521,-3.208504,7.520627,-0.1643154,-0.7680225,-0.6013829,8.486023,21.53655,24.10424,1008.083
25.606145382,22.45666,3.810247,5.378649,-0.1225221,-0.7654206,-0.6260356,8.109821,22.2641,24.54628,1008.083
25.638702869,66.32574,-1.364595,8.561017,-0.262374,-0.7523183,-0.595248,8.846811,21.903,24.10044,1008.081
25.673764706,80.47705,-12.42805,3.909863,-0.2402084,-0.8227744,-0.4295794,8.846811,21.903,24.10044,1008.081
25.706323147,27.74802,-16.41327,7.031033,-0.2238577,-0.9119077,-0.3410469,9.211651,21.90307,23.65318,1008.081
25.738881111,8.120762,-9.870369,12.23298,-0.1946811,-0.9015211,-0.5096151,9.171272,24.07597,21.91695,1008.087
25.773942947,6.767158,0.1819095,4.827854,-0.2659064,-0.8722446,-0.4191917,9.171272,24.07597,21.91695,1008.087
25.806497574,9.351311,0.1819095,2.135081,-0.3870361,-0.8873609,-0.4347734,9.900164,24.44766,22.35803,1008.087
25.839055061,9.412838,4.345575,-0.2516957,-0.2513171,-0.8672632,-0.404145,9.537744,24.07862,21.91576,1008.087
25.874116898,-0.9237741,15.11163,-0.06809749,-0.2513385,-0.8729314,-0.4400014,9.537744,24.07862,21.91576,1008.087
25.906675339,-20.30492,-6.836841,0.7274947,-0.2142721,-0.8383673,-0.4530444,10.26742,24.07874,21.02124,1008.087
25.939233303,-24.67337,1.312047,-4.229657,-0.2047888,-0.8548402,-0.4373534,9.522331,25.17263,22.354,1008.087
25.971791267,-30.39542,-12.13064,-3.005668,-0.2169312,-0.8612388,-0.4543575,9.522331,25.17263,22.354,1008.089
26.006849766,-43.07008,-6.242032,-5.698442,-0.1461395,-0.8312231,-0.4394666,9.905846,24.08385,22.36064,1008.089
26.039407253,-46.88478,-2.494733,-8.697213,-0.1773359,-0.7902483,-0.4547628,10.278,23.72268,22.36206,1008.087
26.071965218,-69.95758,1.668933,-11.14519,-0.1292799,-0.8040317,-0.3858966,10.278,23.72268,22.36206,1008.087
26.107027531,-111.1195,12.73239,-6.983629,-0.2158443,-0.8058968,-0.5434223,9.921867,23.36361,23.64036,1008.087
26.139585495,-143.7905,5.416232,1.400688,-0.3062833,-0.7152179,-0.6497446,9.951117,21.91869,25.43509,1008.087
26.172143459,-168.6476,6.130003,5.439848,-0.286638,-0.6592586,-0.7146491,9.951117,21.91869,25.43509,1008.087
26.207201958,-197.4425,4.524018,11.80458,-0.2225635,-0.5991311,-0.7142769,9.258554,19.7405,27.17369,1008.086
26.239759445,-195.5966,7.973913,6.602637,-0.2589042,-0.7738437,-0.8730381,9.704384,15.39513,30.26262,1008.086
26.272317409,-78.38684,23.97428,12.47778,-0.2973505,-0.5263939,-0.6787753,9.704384,15.39513,30.26262,1008.086
26.307379722,-208.2098,16.59865,-13.96036,-0.3372683,-0.3498101,-0.8273398,9.416662,10.67069,31.63597,1008.086
26.339937687,-104.413,15.8254,7.27583,-0.1394709,-0.3255886,-0.8837162,9.469424,7.398979,32.10554,1008.086
26.372495651,-132.1618,20.04854,22.63688,-0.1101755,0.02324837,-0.9857322,8.823333,1.939107,32.59315,1008.086
26.407554149,-58.63653,42.88923,41.42509,-0.09443569,0.1466564,-0.9321432,8.823333,1.939107,32.59315,1008.086
26.440111637,-9.168454,39.55829,35.12156,-0.1629755,-0.0849068,-1.185516,8.143942,-1.70946,31.7295,1008.086
26.472669601,-22.08922,8.985089,11.80458,-0.3402201,-0.1978748,-1.113111,7.076199,-3.531288,32.63827,1008.092
26.505227566,0.3067751,-6.836841,17.25133,-0.351826,-0.06992591,-1.067644,7.076199,-3.531288,32.63827,1008.092
26.540289879,15.01184,-26.644,13.88536,-0.4018093,-0.09372337,-1.107596,6.351357,-4.269368,31.75372,1008.092
26.572847843,8.182289,-61.20242,9.723805,-0.3463043,-0.2036386,-1.039237,6.717829,-4.266722,31.75253,1008.092
26.605401516,88.16798,-77.55968,-11.08399,-0.2767368,-0.5137483,-1.152795,6.717829,-4.266722,31.75253,1008.092
26.640463829,40.73031,-31.69987,-6.86123,-0.303326,-0.1795316,-0.8745624,7.812347,-4.266531,30.41075,1008.09
26.673021793,9.105201,-37.64796,-25.28225,-0.4198521,-0.3807369,-0.8891207,8.880323,-2.444334,29.56571,1008.09
26.705579758,43.25294,-36.04198,-41.56129,-0.4553464,-0.4539541,-0.8152801,8.880323,-2.444334,29.56571,1008.09
26.740642071,65.95657,-46.62959,-53.73997,-0.5044212,-0.4961129,-0.7699551,9.243532,-2.446853,28.67238,1008.09
26.773200035,85.27619,-54.89744,-61.3899,-0.4995547,-0.5027027,-0.8029299,9.22751,-1.726611,27.39267,1008.09
26.805753708,86.93743,-63.58166,-64.93945,-0.4687648,-0.4417405,-0.8672855,9.22751,-1.726611,27.39267,1008.09
26.840816021,85.953,-76.01318,-79.56611,-0.4697738,-0.5865288,-0.7737848,10.30499,-0.6349878,26.04305,1008.09
26.873373985,79.00039,-77.08383,-78.40332,-0.4645152,-0.5791461,-0.7789944,8.824478,0.07688046,25.15044,1008.09
26.905931950,57.34273,-91.2403,-81.52449,-0.4437275,-0.6212915,-0.6438286,8.824478,0.07688046,25.15044,1008.09
26.938489437,49.83638,-94.27383,-76.87334,-0.3841985,-0.5765631,-0.5837483,9.542795,0.8046288,24.25069,1008.09
26.973552227,39.8074,-89.03951,-71.1206,-0.3096031,-0.5890783,-0.6101136,9.920628,0.07965469,24.25473,1008.093
27.006105900,28.85552,-88.44469,-62.30788,-0.2963131,-0.5027165,-0.539686,9.920628,0.07965469,24.25473,1008.091
27.038663387,-17.10549,-84.6974,-57.53433,-0.2555507,-0.5275536,-0.5188357,10.30335,-0.6375709,25.59698,1008.091
27.073726177,-36.30206,-78.09501,-55.69835,-0.2781656,-0.6314446,-0.5025139,11.77958,-0.9834146,26.86932,1008.089
27.106283665,-45.40813,-77.44072,-56.79994,-0.2650291,-0.6873198,-0.5749187,11.77958,-0.9834146,26.86932,1008.087
27.138841629,-29.78015,-68.93494,-57.04474,-0.239091,-0.5922648,-0.6687189,13.27876,-2.784132,28.21584,1008.087
27.173903942,2.952456,-74.46667,-46.51844,-0.4132564,-0.4446491,-0.2863645,16.23977,-4.20787,30.00106,1008.087
27.206458092,-4.615421,-40.38409,-43.58087,-0.387518,-0.426223,-0.6283391,16.23977,-4.20787,30.00106,1008.081
27.239015579,16.67308,-64.17647,-15.67394,-0.5879114,-0.2074216,-0.4764108,18.81541,-4.545773,31.26984,1008.081
27.274078369,-20.4895,-53.05353,4.399458,-0.6316208,-0.1916133,-0.5505674,21.73502,-3.425417,32.59072,1008.081
27.306635856,-39.0708,-53.35093,21.10689,-0.5862707,-0.2448287,-0.5813925,21.73502,-3.425417,32.59072,1008.081
27.339193821,-56.42154,-55.07588,36.22314,-0.6837208,-0.2245844,-0.5036492,24.2863,-2.310661,33.40298,1008.083
27.371751785,-69.15772,-59.12058,48.03463,-0.7005948,-0.2802308,-0.4991648,26.86864,-3.383566,33.40249,1008.081
27.406810284,-49.89963,-71.96848,79.36872,-0.8112237,-0.1018883,-0.2778509,26.86864,-3.383566,33.40249,1008.081
27.439367771,-69.95758,-74.88304,88.18143,-0.8499007,0.03337358,-0.3144201,27.9918,-5.20206,32.13749,1008.081
27.471925735,-81.95544,-82.55608,89.52782,-0.8709807,-0.1784865,-0.3838545,29.50245,-8.165176,31.70799,1008.083
27.506988048,-75.98727,-89.51535,91.05781,-0.8546441,-0.2643203,-0.4852389,29.50245,-8.165176,31.70799,1008.083
27.539546013,-54.88335,-91.00237,89.77262,-0.8818567,-0.1959258,-0.5334736,31.03893,-12.88929,30.84504,1008.085
27.572103977,-91.18456,-87.07663,94.97457,-1.005339,0.1140716,-0.7611291,30.71325,-15.80981,29.59262,1008.085
27.607162475,-177.1999,-99.68659,59.96851,-1.184092,-0.1390245,-0.9775038,30.71325,-15.80981,29.59262,1008.086
27.639719963,-127.2396,-95.76085,28.38962,-1.040458,-0.3703714,-1.098632,30.00158,-18.01826,26.10582,1008.086
27.672277927,-26.94989,-68.81599,47.42263,-0.9090843,-0.245876,-0.953297,28.95831,-22.78378,21.30026,1008.088
27.707340240,37.777,-59.18007,52.19619,-0.876143,-0.1771196,-0.6970569,28.95831,-22.78378,21.30026,1008.086
27.739898205,85.46078,-35.74458,67.86324,-1.088456,0.292745,-0.6398957,28.23365,-24.2672,17.36216,1008.086
27.772456169,25.84067,-32.94897,57.58173,-1.095347,-0.03488138,-0.4360687,27.89419,-26.09112,16.99406,1008.086
27.807514667,107.303,-32.59209,53.29778,-0.9728027,-0.06241136,-0.4433742,27.89419,-26.09112,16.99406,1008.089
27.840072155,71.55557,-25.6923,48.46302,-1.104589,0.06480319,-0.1551471,27.54313,-27.18778,16.557,1008.091
27.872630119,76.60082,-13.91507,16.57814,-1.213745,-0.2866112,-0.4605801,26.83189,-28.27712,17.84171,1008.091
27.905188084,64.35686,-27.53621,4.950253,-1.116326,-0.06820779,-0.01070189,26.83189,-28.27712,17.84171,1008.091
27.940250397,77.95442,-29.55856,11.25379,-1.221718,0.125111,0.03295283,26.85788,-29.7272,18.7443,1008.091
27.972808361,6.213411,-38.00485,7.031033,-1.019893,0.1078197,0.03201085,27.58272,-28.98912,19.62884,1008.093
28.005362034,13.65823,-35.26873,22.88168,-0.8864256,0.1199419,0.09973973,27.58272,-28.98912,19.62884,1008.093
28.040424347,-18.39757,-30.80766,34.14236,-0.8844026,0.2318525,-0.1344428,28.29862,-27.89239,19.61863,1008.093
28.072982311,-44.85438,-22.53981,52.56338,-0.8872797,0.3884629,-0.1673372,27.94188,-28.62524,19.17897,1008.094
28.105540276,-66.01982,-22.65877,62.17169,-0.8881992,0.1717491,-0.1807935,27.94188,-28.62524,19.17897,1008.094
28.140602589,-49.28436,-17.78134,64.74207,-0.9514953,0.0526507,-0.1433959,26.84731,-29.37114,17.40347,1008.094
28.173160553,-40.48593,-16.35379,58.31612,-0.9331368,0.1001876,-0.1770081,24.68033,-31.94624,15.26225,1008.099
28.205714226,-40.54746,-11.9522,48.76902,-0.8571288,0.07118849,-0.1021171,24.68033,-31.94624,15.26225,1008.1
28.240776539,-50.14574,-12.13064,25.75805,-0.9248018,0.07646666,-0.06765152,22.87982,-34.51869,13.11983,1008.1
28.273334503,-61.28221,-11.53584,8.316219,-0.9572397,0.1868256,-0.06110276,20.71424,-37.09158,11.36095,1008.1
28.305892467,-100.1676,-16.88912,-12.98117,-0.990123,0.2330059,0.05564396,21.10361,-39.28951,8.316652,1008.102
28.338450909,-120.8408,-21.945,-40.6433,-0.9356174,0.04422862,-0.06329914,21.10361,-39.28951,8.316652,1008.104
28.373512745,-86.44694,-35.68509,-50.374,-0.9175656,0.06865596,0.0666011,21.46071,-40.04733,2.6492,1008.104
28.406066418,-55.74474,-25.3949,-46.09005,-0.8804559,-0.04460789,-0.03522172,23.65645,-40.78194,-1.303633,1008.104
28.438624859,29.16315,-4.636046,-16.65313,-0.9589007,0.3101892,-0.1534776,23.65645,-40.78194,-1.303633,1008.104
28.473686695,0.2452476,-0.05601428,1.767884,-1.114773,0.4659849,-0.01947174,26.1911,-39.32072,-3.489035,1008.105
28.506245136,-25.53476,10.41263,7.581827,-1.029349,0.2287115,-0.07344531,28.00315,-38.22122,-4.394955,1008.107
28.538803100,-30.51848,16.00384,17.06773,-0.9649061,0.1798377,-0.04283365,28.00315,-38.22122,-4.394955,1008.107
28.573864937,-36.85581,11.60225,13.64057,-0.790417,-0.00107582,-0.05156267,28.37772,-38.95136,-5.283065,1008.107
28.606419086,-31.81056,23.20103,2.012682,-0.5829817,-0.1062182,-0.1684107,29.47247,-38.9508,-6.561123,1008.111
28.638977051,24.5486,-1.780962,32.79598,-1.000388,0.4212306,0.7396035,29.47247,-38.9508,-6.561123,1008.111
28.674038887,-84.10889,-3.505909,-11.32879,-1.245004,0.1223803,0.4568551,30.56131,-38.5868,-7.905517,1008.112
28.706597328,-82.20155,-5.349818,-10.90039,-1.536533,-0.7728912,0.05774321,30.91176,-37.86391,-9.186419,1008.114
28.739155292,124.2846,2.799071,4.583056,-1.718033,0.3362455,-0.575302,30.91176,-37.86391,-9.186419,1008.114
28.771712780,39.86893,-37.41004,23.37127,-0.6192244,0.682797,0.3193046,32.37111,-37.86366,-10.97546,1008.116
28.806771278,-63.00498,22.6657,5.25625,-0.9260156,0.04038091,0.06134411,32.37359,-37.48693,-8.747713,1008.116
28.839329243,-15.93647,13.02979,1.584286,-0.9908381,0.3878236,0.1019939,32.37359,-37.48693,-8.747713,1008.116
28.871887207,-61.28221,8.747166,-4.046058,-1.10859,0.1106041,0.0205379,31.65038,-38.22243,-9.186185,1008.122
28.906949520,4.675225,3.274918,-0.9248891,-0.9862692,0.066415,0.041981,31.63817,-37.86895,-10.97308,1008.12
28.939507484,20.91847,11.30485,0.788694,-0.8975654,0.1885393,0.05294272,31.63817,-37.86895,-10.97308,1008.122
28.972064972,20.79542,13.3272,0.2378995,-0.9590975,0.2104165,0.08862238,31.62844,-37.13874,-10.53223,1008.122
29.007123470,-8.922344,13.3272,-3.984859,-1.001945,0.2459423,0.06262001,31.63007,-37.13616,-10.08616,1008.122
29.039681435,-16.79786,14.15993,-4.413255,-0.9687037,0.1411388,0.01265132,31.63007,-37.13616,-10.08616,1008.122
29.072239399,3.936895,14.21941,-1.84288,-0.9746602,0.1142148,0.03786528,32.36791,-37.12312,-8.750324,1008.122
29.107301712,19.31876,14.5763,-0.006898092,-0.9774096,0.174154,-0.004721525,32.36791,-37.12312,-8.750324,1008.122
29.139859676,16.98072,12.49446,-0.2516957,-1.003648,0.1708539,0.004437612,32.36791,-37.12312,-8.750324,1008.122
29.172417164,-0.4315544,13.92201,0.6662952,-0.9854751,0.2002366,0.007768605,32.73904,-37.11309,-7.477022,1008.122
29.204971313,3.506203,14.21941,2.012682,-0.9467326,0.1332323,-0.002475191,33.10551,-37.11045,-7.47821,1008.128
29.240033626,12.73532,16.89605,4.827854,-0.9967897,0.1181306,-0.03117651,33.10551,-37.11045,-7.47821,1008.126
29.272591591,21.04153,17.6693,6.357839,-0.9585267,0.2187752,-0.03692862,32.7423,-37.10793,-6.584877,1008.13
29.305149078,2.337181,16.47968,5.807045,-0.9809552,0.1776889,-0.0438177,32.75124,-37.46657,-5.690123,1008.13
29.340211868,16.67308,12.43498,4.889054,-0.9516952,0.1718081,-0.05602008,32.75124,-37.46657,-5.690123,1008.13
29.372769356,18.02668,17.55034,5.684646,-1.009116,0.2008968,-0.09757466,32.39045,-37.83303,-5.686323,1008.13
29.405323505,19.13418,11.54277,8.867014,-1.030668,0.166659,-0.1116107,32.02296,-37.46449,-4.413254,1008.13
29.440385818,21.53375,0.598276,21.59649,-1.047036,0.04635563,-0.2081722,32.02296,-37.46449,-4.413254,1008.13
29.472943783,40.79184,-14.21248,37.44713,-1.058748,-0.03021148,-0.1841934,32.04327,-38.55075,-3.513276,1008.13
29.505501270,61.46507,-13.67715,49.99301,-1.061343,0.1634006,-0.1241986,31.31927,-38.91469,-2.616144,1008.13
29.540564060,63.18784,-20.45798,70.37241,-1.120314,0.2595844,-0.2817053,31.31927,-38.91469,-2.616144,1008.13
29.573121548,-4.369312,-36.33939,82.79589,-1.132783,0.3873184,-0.1917699,29.14136,-39.64306,0.008917809,1008.13
29.605675697,-37.84025,-37.35056,75.57436,-1.048978,0.2795678,-0.0910188,26.59637,-40.74786,0.9172163,1008.136
29.673295975,0.9835772,-44.84516,58.01013,-0.6842386,0.271981,0.05691009,22.9495,-42.23731,-0.3986673,1008.137
29.705853462,69.09447,-38.89706,63.02848,-0.6675349,0.559284,0.08979641,19.65065,-42.63491,-2.105921,1008.137
29.738411426,41.22253,-33.66274,62.04929,-0.7353633,0.5857173,-0.03831309,19.65065,-42.63491,-2.105921,1008.137
29.773473740,10.2127,-33.96015,67.98563,-0.8751817,0.6737942,-0.03538428,16.72923,-43.01251,-0.8193083,1008.136
29.806027889,-67.74259,-48.53298,71.7188,-0.9479563,0.5773425,0.01783605,14.17856,-43.75349,0.08637905,1008.134
29.838586330,-75.55658,-61.44035,77.89993,-1.077214,0.3338279,-0.02732475,14.17856,-43.75349,0.08637905,1008.134
29.873648167,-22.51991,-83.80518,95.03577,-1.217933,0.2934539,-0.2081044,11.59966,-43.42076,-2.074546,1008.134
29.906205654,21.04153,-92.7868,98.09573,-0.8637746,0.4887703,-0.03531781,8.299973,-44.1925,-5.563476,1008.134
29.938764095,21.84139,-97.48579,106.6025,-0.678178,0.5556324,-0.09828262,8.299973,-44.1925,-5.563476,1008.134
29.973825932,-5.476806,-83.80518,113.6404,-0.5606305,0.5330832,0.0660914,4.258832,-43.49178,-5.173275,1008.134
30.006380558,17.53446,-84.57843,111.5596,-0.2580738,0.5210866,0.2570336,0.9051995,-43.87984,-5.159766,1008.134
30.038938522,-18.70521,-98.02113,123.0651,0.2505089,1.050365,0.6421349,0.9051995,-43.87984,-5.159766,1008.136
30.074000359,-42.14717,-80.77165,120.3111,0.2403095,0.5798826,0.4048795,-4.242199,-42.8251,-5.087233,1008.137
30.106558800,-1.169884,-83.15089,135.2438,-0.07413848,0.8994887,0.4008749,-8.285583,-42.50074,-6.861055,1008.136
30.139116287,-57.59056,-86.83871,154.2156,-0.161891,1.562551,0.3337352,-13.45189,-40.35751,-7.306152,1008.137
30.171674252,-223.8378,-93.50057,113.824,-0.5885453,0.3055819,0.3149702,-13.45189,-40.35751,-7.306152,1008.137
30.206732750,40.36115,-119.8506,102.4409,0.3410042,1.541067,1.150312,-19.72958,-37.86838,-9.470856,1008.14
30.239290714,-15.998,-117.055,67.31244,0.1554303,0.5107319,0.617559,-24.89528,-35.35138,-8.198,1008.141
30.271848202,7.259378,-97.60476,25.20725,0.3567214,0.5496419,0.8659306,-24.89528,-35.35138,-8.198,1008.141
30.306910992,220.6366,-50.85273,7.826625,1.109966,1.298989,0.3768243,-28.22108,-33.182,-6.41868,1008.143
30.339468479,-1.169884,36.28684,-1.84288,0.5439919,1.5545,0.1743835,-29.30949,-32.4269,-0.3027782,1008.145
30.372026443,-119.3026,37.83335,10.3358,-0.1177988,1.577798,0.3136234,-29.30949,-32.4269,-0.3027782,1008.145
30.407084942,-147.9129,17.19346,34.99916,0.3110562,0.3861892,0.1321319,-30.04406,-32.43477,-0.7464724,1008.149
30.439642906,192.8877,21.23816,78.87913,-0.4317258,1.242368,0.3924332,-29.33022,-32.45974,-5.974265,1008.149
30.472200394,9.535893,-4.695528,95.64776,-0.337802,0.7045977,0.3928389,-29.33022,-32.45974,-5.974265,1008.149
30.507263183,79.12344,-32.05676,115.1092,-0.03706636,1.244284,0.6729235,-31.16438,-31.73022,-3.360836,1008.147
30.539820671,54.45094,-36.04198,129.185,0.2017206,1.28785,0.5418792,-33.76152,-29.18953,-1.204157,1008.147
30.572378635,74.20125,-25.87074,134.2646,0.5220281,1.228062,0.3941946,-33.76152,-29.18953,-1.204157,1008.147
30.607437134,64.91061,-7.193727,145.7701,0.7292145,1.309172,0.4653217,-37.46352,-26.29259,1.0172,1008.147
30.639995098,80.41553,1.074124,165.2927,0.3888326,1.257242,0.435372,-40.45149,-22.30188,2.718552,1008.146
30.672552586,57.40425,18.26411,168.9034,0.161048,1.348083,0.3272512,-40.45149,-22.30188,2.718552,1008.146
30.705110550,7.19785,20.58387,146.5657,0.03029982,1.007214,0.2047164,-42.37148,-16.48898,3.574862,1008.146
30.740172863,8.612982,27.48366,140.6293,0.1184643,1.062477,0.2745973,-44.29232,-11.05022,2.649495,1008.144
30.772730827,41.65322,23.43896,151.5228,-0.1036604,1.355222,0.4557105,-44.29232,-11.05022,2.649495,1008.14
30.805284500,6.028829,-20.45798,157.4592,0.09306495,1.559701,0.6205716,-45.48418,-5.550326,0.8928947,1008.139
30.840347290,-107.3047,-30.45078,164.7419,0.6198947,1.116746,0.2522226,-45.18347,-1.550927,-0.02915955,1008.139
30.872904777,-199.7805,-74.82356,174.4726,0.5702724,0.5754895,0.2870334,-45.18347,-1.550927,-0.02915955,1008.139
30.905462742,-296.9323,-164.8182,159.7847,0.898908,-0.5487413,0.07138005,-45.27274,4.272628,0.3751345,1008.136
30.940532684,-111.3656,-160.0597,141.3025,1.017316,-1.346073,-0.9134528,-44.22319,9.048115,6.901253,1008.133
30.973090172,81.89218,-160.5951,105.6233,0.7871069,-0.9987292,-0.7914376,-44.22319,9.048115,6.901253,1008.131
31.005644321,121.4543,-83.4483,59.11172,0.5689095,-0.9934592,-0.9714461,-41.69638,13.10657,13.42784,1008.127
31.040706635,-30.51848,-76.54851,2.318679,0.7499023,-1.385501,-0.9186299,-38.10166,18.24151,15.9921,1008.124
31.073264599,64.97213,-9.632444,-61.63469,0.6996565,-1.414946,-0.8934117,-38.10166,18.24151,15.9921,1008.124
31.105823040,52.54359,37.59542,-111.145,0.3703665,-0.8285075,-0.517264,-36.29282,20.08155,17.31132,1008.122
31.138380528,-4.430839,84.58536,-137.5831,0.2357619,-0.4755176,-0.506915,-37.01199,18.97966,16.42939,1008.12
31.173442364,2.706346,115.7534,-174.1192,0.09338983,-0.7002397,-0.4478504,-37.01199,18.97966,16.42939,1008.119
31.205996990,6.828686,132.0512,-163.8377,0.001770725,-0.5659161,-0.4302446,-39.54301,16.03293,13.39982,1008.115
31.238554954,22.7643,159.8288,-151.4754,-0.1254645,-0.393405,-0.2563745,-42.76642,10.16268,9.0553,1008.115
31.273617267,-9.845256,182.1341,-137.3995,-0.07208979,-0.3186967,-0.1803628,-42.76642,10.16268,9.0553,1008.11
31.306175232,19.6264,206.8782,-133.0544,-0.2348384,-0.1591319,-0.2522114,-44.90077,4.656798,3.430113,1008.108
31.338732719,87.18354,98.68234,-169.0396,2.824195,0.1980421,0.0823651,-46.32169,-0.1290855,-4.433033,1008.111
31.373795509,41.34559,419.6415,-343.5191,-0.08711563,0.03990033,0.9625083,-46.32169,-0.1290855,-4.433033,1008.109
31.406349182,331.263,297.9435,-436.8482,-1.681556,0.2882009,0.5743666,-45.90131,-5.260379,-11.40737,1008.109
31.438907146,400.789,183.9185,-486.4197,-5.396317,0.4399174,-1.209194,-39.55923,-14.79303,-21.36401,1008.107
31.473969459,2015.7,-254.456,565.7203,2.189718,15.76698,-2.652265,-39.55923,-14.79303,-21.36401,1008.104
31.506527424,-1348.929,212.4099,204.0931,-3.62973,0.2850726,-0.6800971,-26.03792,-33.93655,-13.81264,1008.106
31.539084911,675.5706,-410.3555,57.58173,2.012481,-0.08250839,-0.3982246,-27.01966,-41.58709,-14.20031,1008.106
31.571642876,-93.58412,232.0386,-47.31403,0.5175637,1.645132,0.1545231,-27.01966,-41.58709,-14.20031,1008.106
31.606701374,-352.1225,-82.37764,-19.28471,-0.5839353,0.3466888,-0.7947236,-32.99819,-32.49137,-6.854521,1008.106
31.639259338,-241.6807,-18.25718,-47.92603,0.1677031,-0.704939,0.04698407,-32.2606,-34.34277,-13.34375,1008.107
31.671816826,58.38869,-19.38732,-34.03376,0.006735683,-0.4219721,0.09641054,-32.2606,-34.34277,-13.34375,1008.112
31.706879616,80.354,11.18588,-34.46216,0.2390897,0.1817245,0.0009870877,-31.96842,-30.72969,-18.15039,1008.112
31.739437103,136.2825,32.95591,-55.33115,0.183607,0.3224027,-0.3110081,-30.84,-32.16703,-16.42295,1008.112
31.771995068,145.6346,34.56189,-101.9651,0.08665509,0.7593564,0.3628119,-30.84,-32.16703,-16.42295,1008.109
31.807053566,897.8693,-57.812,-55.57595,-0.03042088,6.874259,0.9130073,-29.70589,-33.96818,-14.6929,1008.115
31.839611530,-539.4121,-75.83473,41.66989,-0.3012421,1.096494,-0.919386,-27.76243,-37.50707,0.1750946,1008.117
31.872169018,-37.71719,21.4166,3.359069,0.6832072,-0.1436423,-0.1721372,-27.76243,-37.50707,0.1750946,1008.119
31.907231808,-5.969026,21.95193,-7.044829,0.06413474,0.6617846,-0.1515178,-28.86149,-39.00568,-5.928453,1008.12
31.939789295,-124.717,3.155956,-12.73637,0.0323017,0.4314203,0.07460239,-28.51859,-37.92194,-7.721763,1008.12
31.972347260,-53.96044,7.79547,-7.167228,0.0378499,0.2810128,0.0341156,-28.51859,-37.92194,-7.721763,1008.12
32.007409573,142.6198,12.25654,15.35415,-0.07957402,0.878581,0.06896462,-28.9076,-37.21467,-10.78458,1008.12
32.039963722,157.571,10.41263,18.41412,-0.03872531,1.85062,0.2901569,-28.18197,-36.84815,-11.23564,1008.122
32.072522163,-51.37629,-9.810887,-9.125608,-0.2045968,1.734572,0.2184569,-28.87774,-38.28581,-7.271891,1008.122
32.105079651,-83.43209,-11.89272,-10.472,0.07465222,0.8955845,0.08502661,-28.87774,-38.28581,-7.271891,1008.122
32.140142441,1.660379,-3.030061,-5.270046,0.02821149,0.6882225,0.0224525,-28.88808,-37.92938,-8.548993,1008.124
32.172699928,9.658948,-1.780962,-0.2516957,0.0415157,0.7607654,0.03273056,-28.52021,-37.92452,-8.167835,1008.127
32.205257892,16.98072,-2.851619,3.481468,0.04444401,0.7645963,0.05357138,-28.52021,-37.92452,-8.167835,1008.131
32.240316391,46.94459,4.702461,5.684646,0.03940887,1.036553,0.08576115,-28.51453,-38.28833,-8.165224,1008.131
32.272874355,38.39227,-2.018885,1.645486,-0.02563415,1.269467,0.0884106,-28.87448,-38.28064,-6.379747,1008.131
32.305431843,-0.6776642,-4.21968,-3.434064,0.003864857,1.235563,0.04049397,-28.87448,-38.28064,-6.379747,1008.131
32.340494633,-12.73705,-0.9482284,-2.760871,0.02064096,0.9517699,-0.02669087,-28.1529,-37.54773,-6.387347,1008.131
32.373052120,-7.507212,1.787895,0.2378995,-0.01040806,0.901269,-0.01873058,-28.5007,-38.63923,-5.932253,1008.131
32.405610084,-2.892653,0.8361998,2.012682,0.01237351,0.9212589,0.03230697,-28.5007,-38.63923,-5.932253,1008.131
32.440688610,2.521764,-0.6508237,1.584286,0.01162589,0.9901614,0.05462747,-28.50964,-38.28058,-6.827008,1008.131
32.473246574,8.859091,-1.721481,1.278289,-0.001669249,1.087173,0.05853724,-29.2369,-38.64968,-6.822019,1008.136
32.505804062,-9.353036,-3.089542,-0.1904963,0.002916991,1.061651,0.01995667,-29.2369,-38.64968,-6.822019,1008.136
32.538362026,-14.09065,-0.2344571,0.788694,0.04501524,0.9648795,0.04550875,-28.88585,-37.55302,-6.384969,1008.137
32.573424339,-10.21442,0.7172379,1.645486,0.009381137,0.9322891,0.0561636,-28.50396,-38.64439,-6.824397,1008.137
32.605982304,-7.814849,-0.1154952,0.5438964,0.001081602,0.9369765,0.07026105,-28.50396,-38.64439,-6.824397,1008.137
32.638535976,0.42983,-0.353419,-0.3128951,0.02001471,0.9886401,0.09229957,-28.87938,-38.28839,-7.717963,1008.139
32.673598766,1.906489,-0.6508237,-0.4352939,0.005892707,0.9846523,0.07388403,-29.25153,-37.92723,-7.719385,1008.139
32.706156254,5.105917,-1.126671,0.6662952,0.008300199,0.9837825,0.05840038,-29.25153,-37.92723,-7.719385,1008.139
32.738714695,2.952456,-0.4723809,0.788694,0.01884353,0.9965976,0.04940155,-28.88747,-37.5556,-6.831041,1008.139
32.773776531,-0.4315544,-0.05601428,-0.3740945,0.02275885,0.9942342,0.04597808,-28.87043,-38.64704,-6.823208,1008.141
32.806334972,-2.769598,0.5387951,-0.4352939,0.03185723,1.01033,0.05926605,-28.87043,-38.64704,-6.823208,1008.141
32.838889122,-2.831125,-0.4128999,0.2990989,0.008238184,0.9891275,0.05848198,-28.88343,-37.922,-7.274502,1008.141
32.873950958,-0.9237741,-0.5913427,0.5438964,0.01126576,0.9799355,0.05785545,-28.51127,-38.28316,-7.27308,1008.139
32.906509399,0.2452476,-1.186152,0.4826971,0.02059656,1.018381,0.07341766,-28.51127,-38.28316,-7.27308,1008.139
32.939066887,-1.415994,0.7767189,0.7274947,0.02571572,0.9961104,0.06920594,-28.88506,-37.92458,-7.720574,1008.139
32.974129677,-2.892653,-0.5318618,0.2378995,0.006217495,0.9958938,0.06100405,-28.88343,-37.922,-7.274502,1008.139
33.006687164,-1.662103,-0.7697856,0.4214977,0.007235282,0.9920214,0.06046061,-28.88343,-37.922,-7.274502,1008.145
33.039241314,1.045105,-1.126671,0.9722923,0.01179547,1.018333,0.05892412,-28.51532,-37.91677,-6.829619,1008.147
33.071798801,-1.046829,-1.840443,1.767884,-0.001197773,1.048263,0.06616057,-28.88343,-37.922,-7.274502,1008.148
33.106861591,-4.492366,-1.899923,1.400688,0.01904938,1.029459,0.09098973,-28.88343,-37.922,-7.274502,1008.148
33.139419079,-1.662103,-3.208504,2.379879,0.02321194,1.006193,0.08918063,-28.87611,-38.28323,-6.825819,1008.148
33.171977043,-3.015707,-1.899923,4.032262,0.03127892,0.938309,0.07750289,-28.521,-37.55296,-6.83223,1008.15
33.207039356,2.275654,-1.245633,3.726265,0.04738262,0.9289432,0.04592497,-28.521,-37.55296,-6.83223,1008.155
33.239593506,7.320905,0.3603523,2.502277,0.02191645,0.9431463,0.05583377,-29.24826,-37.92206,-6.827241,1008.155
33.272150993,6.213411,0.3008713,0.3602983,0.02965462,0.9870455,0.04344487,-29.24826,-37.92206,-6.827241,1008.155
33.307213783,0.9835772,1.609452,-0.8024903,0.02355168,1.015029,0.07094678,-29.24826,-37.92206,-6.827241,1008.155
33.339771271,6.397994,1.014643,0.6662952,-0.03602035,1.031202,0.08430219,-29.24663,-37.91948,-6.381169,1008.155
33.372329235,0.6759399,-2.197328,1.339489,-0.005939061,0.9914235,0.04741303,-29.25231,-37.55567,-6.38378,1008.155
33.407391548,8.305345,-0.8887475,2.563477,0.02350228,1.016546,0.0579188,-29.25231,-37.55567,-6.38378,1008.155
33.439945698,-2.277378,-3.862794,2.318679,0.0218082,0.9946547,0.05758646,-29.25394,-37.55825,-6.829853,1008.153
33.472503185,4.30606,-3.922275,3.297869,0.05331117,1.003899,0.0388454,-29.62447,-37.1945,-6.385203,1008.153
33.505061626,-4.184729,-3.267985,2.991873,0.06295452,0.9704881,0.0392931,-29.62447,-37.1945,-6.385203,1008.157
33.540123463,-1.846686,-2.792138,2.318679,0.07085051,0.9661175,0.06097076,-29.25473,-37.18669,-5.494248,1008.155
33.572681427,-0.6776642,0.5387951,1.400688,0.03470852,0.9706013,0.04028885,-29.61552,-37.55315,-5.490448,1008.157
33.605239868,-2.400433,0.2413904,0.6050959,0.04862024,0.9859123,0.02649109,-29.61552,-37.55315,-5.490448,1008.151
33.640297890,-2.277378,0.3008713,1.21709,0.03144144,0.9983039,0.03104711,-29.98931,-37.19457,-5.937943,1008.151
33.672856331,-0.6776642,1.906857,0.8498935,0.06715877,1.026462,0.03337573,-29.61715,-37.55573,-5.93652,1008.151
33.705413818,-8.430124,-0.293938,0.9722923,0.03155983,1.031801,0.03977544,-29.61715,-37.55573,-5.93652,1008.151
33.740476608,-7.568739,1.549971,3.175471,0.02231041,1.037858,0.07032952,-30.34441,-37.92484,-5.931531,1008.151
33.773034096,-8.983871,-0.4128999,5.072652,0.001096246,1.020071,0.07346226,-29.25231,-37.55567,-6.38378,1008.151
33.805592060,-12.67552,-1.186152,8.377419,0.02238535,1.074288,0.07523564,-29.25231,-37.55567,-6.38378,1008.15
33.840650558,-14.6444,-1.543038,10.3358,0.03573667,1.020399,0.1005029,-29.99094,-37.19715,-6.384014,1008.15
33.873208523,-13.5369,-2.97058,12.60018,0.05369664,0.9855978,0.1096222,-29.99825,-36.83592,-6.832697,1008.151
33.905766010,-9.168454,-4.457603,16.08854,0.06883468,0.9804848,0.1017956,-29.99825,-36.83592,-6.832697,1008.151
33.938354015,-9.291509,-3.267985,15.29295,0.09839086,0.9502821,0.09502235,-30.74013,-36.48257,-7.725075,1008.151
33.973416328,-10.02984,-2.137847,13.51817,0.1049942,0.9256096,0.08883904,-30.7515,-35.75495,-7.730297,1008.153
34.005974293,-6.522773,-1.721481,10.5806,0.1025079,0.9304281,0.09084845,-31.12202,-35.3912,-7.285647,1008.153
34.038527966,-8.184014,-2.197328,8.744616,0.08176115,0.9981819,0.09480242,-31.12202,-35.3912,-7.285647,1008.153
34.073590279,-15.01356,-1.364595,6.480238,0.1007282,0.9581016,0.09223913,-31.13664,-34.66875,-8.183014,1008.153
34.106148243,-14.76745,0.598276,7.153431,0.09551722,0.9876741,0.09366208,-31.86795,-34.67146,-7.734564,1008.153
34.138706207,-10.82969,-1.06719,8.316219,0.07375675,1.022251,0.1227298,-31.86795,-34.67146,-7.734564,1008.153
34.173768520,-17.29008,0.0629476,11.74339,0.08043265,1.077713,0.1293701,-32.23177,-35.04271,-8.559183,1008.153
34.206326484,-23.25824,-0.4723809,14.74216,0.1038711,1.075045,0.1418745,-32.61691,-33.95651,-9.0119,1008.153
34.238881111,-19.99728,-1.483557,19.27091,0.0912686,1.032976,0.1654137,-32.61691,-33.95651,-9.0119,1008.153
34.273942470,-15.93647,-2.673176,24.35046,0.1072304,1.048125,0.1926985,-32.62017,-33.96168,-9.904044,1008.151
34.306501388,-28.18044,-4.636046,28.94042,0.1344145,1.01635,0.2042719,-33.00532,-32.87547,-10.35676,1008.151
34.339058876,-30.70306,-5.587741,31.57199,0.1643915,0.9487561,0.1916107,-33.00532,-32.87547,-10.35676,1008.15
34.374121666,-28.98029,-6.12307,32.18398,0.1950876,0.9030434,0.1787993,-34.11042,-32.5196,-10.35581,1008.15
34.406679153,-28.79571,-9.632444,29.06282,0.2201328,0.8041653,0.1912845,-34.86608,-31.06966,-10.36387,1008.151
34.439233303,-4.123202,-23.13462,23.73847,0.1753262,0.6492434,0.2503531,-34.86608,-31.06966,-10.36387,1008.151
34.471790790,26.64053,-18.73303,13.82417,0.3902225,0.5761957,0.1509057,-35.25426,-29.98825,-11.64501,1008.15
34.506853580,67.18712,-0.6508237,0.4214977,0.2900217,0.7195269,0.08744988,-36.36605,-28.89738,-10.37478,1008.15
34.539411068,84.96856,-6.420475,7.031033,0.1515828,0.9954718,0.3547504,-36.36605,-28.89738,-10.37478,1008.15
34.571969032,61.21896,-15.28314,8.805815,0.2512339,1.023667,0.2124882,-36.7246,-28.88748,-8.206961,1008.15
34.607031345,89.58311,-17.78134,10.4582,0.2581291,1.047283,-0.04286447,-36.70205,-29.59739,-5.142959,1008.15
34.639585018,19.50334,-15.46158,33.71397,0.1777855,1.644306,0.2167107,-36.70205,-29.59739,-5.142959,1008.148
34.672142982,-23.13519,-20.16057,41.36389,0.2313939,1.114275,-0.1017554,-37.05874,-29.58454,-2.465339,1008.143
34.707205295,-2.400433,-24.26476,49.56461,0.2345783,1.373715,0.2458806,-38.17682,-28.50363,-2.915678,1008.143
34.739763260,-24.48879,-31.87832,58.37732,0.2363791,1.078567,0.17467,-38.17682,-28.50363,-2.915678,1008.148
34.772321224,-21.47394,-36.22042,66.02725,0.1912405,1.019263,0.1544737,-38.55871,-27.41226,-2.476251,1008.148
34.807383537,-19.25896,-45.14256,65.84366,0.2353681,0.8905568,0.2607439,-40.0467,-25.59383,-0.7639875,1008.148
34.839937210,-16.79786,-51.03118,67.37364,0.3008275,0.9023854,0.198989,-40.0467,-25.59383,-0.7639875,1008.148
34.872495174,-26.7653,-57.63356,66.51685,0.3190315,0.9706559,0.2009797,-40.80316,-23.77232,0.56355,1008.148
34.905053139,-59.43639,-81.60439,56.72494,0.3606774,0.8372483,0.2656102,-41.932,-21.59002,1.82594,1008.148
34.940115452,-80.41725,-91.95407,47.60623,0.4898851,0.8418987,0.1485793,-41.932,-21.59002,1.82594,1008.148
34.972673416,-122.502,-108.7277,22.33088,0.4414138,0.6109374,0.1393019,-41.95793,-19.39424,4.040634,1008.15
35.005231857,-120.7177,-119.9101,10.5194,0.5235748,0.4236565,-0.01541494,-42.33921,-17.92909,6.198013,1008.148
35.040289402,-90.01553,-110.2742,-7.228427,0.6188814,0.4464937,-0.1674222,-42.33921,-17.92909,6.198013,1008.148
35.072848320,-80.23267,-90.76445,-23.32387,0.5987316,0.520656,-0.2875989,-41.94777,-19.00533,8.371292,1008.148
35.105405808,-82.69376,-98.0806,-36.60414,0.614799,0.5759842,-0.2248981,-39.74079,-18.97654,10.59452,1008.148
35.140468597,-61.34374,-66.37727,-48.41562,0.5310045,0.6195617,-0.427654,-39.74079,-18.97654,10.59452,1008.148
35.173026085,-64.60469,-42.40644,-70.9982,0.3928475,0.1296685,-0.5050843,-39.32826,-21.5106,12.33217,1008.148
35.205584049,66.81796,-39.25395,-40.9493,0.6637294,0.5157855,-0.4187311,-36.35915,-23.66713,13.23047,1008.148
35.240642547,89.82922,-12.84442,-16.71433,0.7621235,1.15445,-0.3592945,-36.35915,-23.66713,13.23047,1008.148
35.273200035,-9.476091,14.63578,-34.09496,0.4548128,1.442336,0.2157789,-34.85693,-25.46305,15.40541,1008.148
35.305757999,-64.23553,11.48329,-61.32869,0.3895531,1.022988,0.01174297,-34.48557,-25.45265,16.74244,1008.148
35.338315964,-106.5664,32.77747,-91.49999,0.2349298,1.065685,0.1179198,-34.48557,-25.45265,16.74244,1008.147
35.373378277,-56.91376,1.014643,-52.57718,0.4067509,0.8670928,-0.07089257,-33.74374,-26.55171,14.51753,1008.148
35.405936241,-35.74831,22.54674,-34.21736,0.3538082,0.9996916,0.2212076,-32.60517,-29.46422,12.81429,1008.148
35.438489914,-33.65638,29.44653,-11.14519,0.3397804,1.17842,0.3148228,-32.60517,-29.46422,12.81429,1008.148
35.473552227,-66.08135,32.48006,-17.69352,0.1785712,1.103241,0.3529849,-31.83167,-32.37716,11.49459,1008.154
35.506110191,-20.73561,18.3236,-8.024019,0.3226859,1.128884,0.2580118,-31.83554,-32.7561,8.884491,1008.154
35.538668156,-58.75958,34.44293,-11.51239,0.3126073,0.9964278,0.2859701,-31.83554,-32.7561,8.884491,1008.148
35.573730469,-27.38058,45.09002,0.8498935,0.2947004,0.6710618,0.1770974,-31.83615,-33.12987,7.166538,1008.148
35.606288433,-107.3047,-7.491131,0.2990989,0.3510666,0.6104087,0.634359,-32.20673,-33.51183,4.493908,1008.154
35.638842106,-2.154323,19.57269,-19.7131,0.3689165,0.9563304,0.8179852,-32.20673,-33.51183,4.493908,1008.154
35.673904419,-29.10335,3.810247,-24.11946,0.1310539,0.4585704,0.1580621,-32.20734,-33.8856,2.775955,1008.154
35.706462383,16.79613,16.59865,-11.08399,0.4261056,1.34232,0.7484121,-32.20632,-34.25679,1.504075,1008.153
35.739020824,-4.000147,7.617027,-17.93832,0.1359836,1.025208,0.29093,-32.20632,-34.25679,1.504075,1008.153
35.774082661,-41.22426,18.38308,-6.800031,0.1870416,1.01845,0.4261231,-31.83845,-34.25193,1.885234,1008.153
35.806641102,-20.4895,-2.732657,-4.290856,0.2280076,0.7704566,0.4638706,-31.46364,-34.9817,1.060847,1008.153
35.839195251,-8.676234,6.665332,9.173011,0.2177129,1.023142,0.4440501,-31.46364,-34.9817,1.060847,1008.153
35.871752739,-8.799289,-1.780962,8.132621,0.2954919,0.8667176,0.4372382,-30.7356,-34.98416,-0.2797461,1008.154
35.906815529,-9.106926,40.86687,-3.617662,0.3449627,0.7395328,0.5449766,-31.10369,-34.98939,-0.7246284,1008.153
35.939373016,30.08607,23.67688,-3.189267,0.2507775,0.8873818,0.5734255,-31.47585,-34.62822,-0.7260513,1008.153
35.971930981,29.77843,28.9112,-20.2639,0.1647629,0.8526464,0.4845206,-31.47585,-34.62822,-0.7260513,1008.153
36.006993294,14.82725,-19.50628,-5.576043,0.2206607,0.7423784,0.3126357,-31.09965,-35.35578,-1.168089,1008.153
36.039546967,16.4885,13.20824,-2.638472,0.2831465,1.090133,0.4353414,-30.35777,-35.70913,-0.275712,1008.151
36.072104931,-6.153608,9.520417,1.21709,0.1760157,0.8664326,0.3716099,-30.35777,-35.70913,-0.275712,1008.151
36.107167244,14.33504,-0.293938,-6.126838,0.2110107,0.7102786,0.3962629,-30.72424,-35.71178,-0.2745237,1008.151
36.139725208,26.45595,-0.4128999,0.5438964,0.1868209,0.9414392,0.3674266,-30.36345,-35.34532,-0.2783232,1008.151
