Time (s),Gyroscope X (deg/s),Gyroscope Y (deg/s),Gyroscope Z (deg/s),Accelerometer X (g),Accelerometer Y (g),Accelerometer Z (g),Magnetometer X (uT),Magnetometer Y (uT),Magnetometer Z (uT),Barometer (hPa)
0.019690037,-0.05177979,-0.02327143,0.00468063,-0.8572879,0.2016035,-0.4929114,19.63421,-22.58292,11.46247,1007.429
0.054452896,0.01019387,0.1528369,-0.05626008,-0.8539102,0.2020726,-0.5001676,19.97368,-22.9627,10.59012,1007.433
0.086732388,-0.2377008,0.4463508,-0.1172008,-0.8587447,0.2040174,-0.493378,19.63355,-22.21841,11.45785,1007.433
0.121494770,-0.4236218,0.03543134,-0.05626008,-0.8539105,0.2025598,-0.499198,19.63355,-22.21841,11.45785,1007.435
0.153774261,0.01019387,-0.3754881,0.06562133,-0.8553522,0.2006379,-0.4938879,19.62157,-22.22404,11.02213,1007.435
0.186054230,-0.1757271,0.03543134,0.06562133,-0.8553599,0.2035382,-0.4948384,19.64554,-22.21277,11.89358,1007.435
0.220816612,0.1341412,0.1528369,-0.1172008,-0.8568195,0.2093609,-0.4890009,19.64554,-22.21277,11.89358,1007.435
0.253095627,-0.4236218,-0.2580825,0.06562133,-0.8505219,0.2016082,-0.4972769,19.99765,-22.95143,11.46157,1007.435
0.287858009,-0.2996745,0.2702425,0.00468063,-0.8563303,0.2059649,-0.4919218,19.28475,-23.30233,11.91294,1007.435
0.320137501,-0.1137535,0.03543134,0.00468063,-0.8558517,0.2083892,-0.4909422,19.28475,-23.30233,11.91294,1007.437
0.354899883,0.1341412,0.2702425,0.06562133,-0.8553657,0.2049802,-0.4977307,19.63488,-22.94744,11.46709,1007.441
0.387179851,0.3200622,-0.02327143,-0.05626008,-0.8573079,0.208851,-0.4962542,19.63289,-21.85389,11.45324,1007.441
0.419458866,-0.05177979,-0.140677,-0.05626008,-0.8534229,0.200135,-0.5011466,19.63289,-21.85389,11.45324,1007.441
0.454221248,-0.1137535,0.09413412,0.00468063,-0.8597,0.1981993,-0.4958262,19.99633,-22.22239,11.45234,1007.439
0.486500740,-0.2377008,-0.140677,0.06562133,-0.8519782,0.2045125,-0.495807,19.2721,-22.94345,11.4726,1007.439
0.521263122,-0.3616481,0.09413412,-0.05626008,-0.8553545,0.2025835,-0.4909762,19.2721,-22.94345,11.4726,1007.437
0.553543091,0.1341412,0.3289452,0.00468063,-0.8558351,0.1986845,-0.4987324,19.64554,-22.21277,11.89358,1007.437
0.588305473,0.07216753,0.387648,0.06562133,-0.8558443,0.2025559,-0.4987104,19.2721,-22.94345,11.4726,1007.437
0.620584488,-0.1137535,0.09413412,0.00468063,-0.8563428,0.2083567,-0.5001267,19.2721,-22.94345,11.4726,1007.437
0.652864456,-0.3616481,0.03543134,-0.1781415,-0.8558464,0.2054791,-0.4928924,19.28276,-22.20878,11.8991,1007.436
0.687626839,-0.1137535,-0.08197422,-0.2390822,-0.856812,0.2049941,-0.4924097,18.90932,-22.93946,11.47812,1007.436
0.719905853,0.1341412,-0.140677,0.00468063,-0.8548878,0.2083789,-0.4948118,19.26144,-23.67811,11.04611,1007.434
0.754668713,0.6919041,-0.4341909,-0.1172008,-0.8548622,0.2031097,-0.4788884,19.26144,-23.67811,11.04611,1007.434
0.786947727,-0.2377008,0.2115397,0.06562133,-0.8505241,0.2030648,-0.4958183,19.63421,-22.58292,11.46247,1007.434
0.821710110,-0.1757271,0.2702425,0.06562133,-0.8558503,0.2064404,-0.4948208,19.63355,-22.21841,11.45785,1007.434
0.853990078,0.07216753,0.03543134,-0.2390822,-0.8543925,0.2030538,-0.4958101,19.63355,-22.21841,11.45785,1007.432
0.886269093,0.3200622,0.03543134,-0.05626008,-0.8568081,0.2040328,-0.4904815,19.63421,-22.58292,11.46247,1007.432
0.921031952,0.01019387,-0.140677,0.00468063,-0.8597118,0.2040146,-0.4933759,19.63421,-22.58292,11.46247,1007.43
0.953310966,-0.05177979,0.03543134,-0.05626008,-0.8563296,0.2059682,-0.4909549,19.63421,-22.58292,11.46247,1007.43
0.988073349,0.01019387,0.1528369,0.00468063,-0.8534315,0.2049857,-0.4977349,19.28342,-22.5733,11.90371,1007.432
1.020353317,0.01019387,0.2115397,0.06562133,-0.8543889,0.2030685,-0.491459,19.27078,-22.21442,11.46337,1007.432
1.055115700,0.2580885,0.03543134,-0.2390822,-0.8548816,0.2059609,-0.4943421,19.27078,-22.21442,11.46337,1007.432
1.087394714,0.1341412,0.09413412,-0.05626008,-0.8524657,0.2040059,-0.5020935,19.25945,-22.58457,11.03226,1007.43
1.119674683,-0.1137535,0.09413412,0.06562133,-0.8534212,0.201608,-0.4948535,19.98501,-22.59254,11.02123,1007.43
1.154437065,0.1341412,0.2115397,-0.1172008,-0.8524526,0.2045488,-0.4846867,19.98501,-22.59254,11.02123,1007.432
1.186716556,0.1341412,0.2115397,-0.05626008,-0.8553632,0.2015698,-0.5045183,19.27011,-21.8499,11.45875,1007.432
1.221478939,-0.1137535,0.03543134,-0.1781415,-0.8515032,0.2059444,-0.5020846,19.6462,-22.57729,11.8982,1007.432
1.253757953,-0.2377008,0.03543134,-0.2390822,-0.8553778,0.2117716,-0.4928577,19.6462,-22.57729,11.8982,1007.432
1.286037922,0.1961149,0.03543134,-0.05626008,-0.8515019,0.2074158,-0.4962749,18.92065,-22.56931,11.90923,1007.432
1.320800304,0.1341412,-0.140677,0.00468063,-0.856325,0.2040325,-0.4909659,19.64554,-22.21277,11.89358,1007.43
1.353079796,0.01019387,-0.02327143,-0.1172008,-0.8553455,0.1962678,-0.4982638,19.64554,-22.21277,11.89358,1007.43
1.387842178,0.01019387,0.09413412,0.1875027,-0.8529453,0.2040209,-0.497258,19.28342,-22.5733,11.90371,1007.43
1.420122146,0.3200622,-0.3167853,-0.1172008,-0.8524692,0.2098556,-0.4894908,19.63488,-22.94744,11.46709,1007.429
1.454884529,-0.05177979,-0.02327143,-0.3000229,-0.8534169,0.2011372,-0.4909886,19.63488,-22.94744,11.46709,1007.429
1.487163544,0.3820359,0.03543134,0.06562133,-0.8544012,0.2069269,-0.4953046,18.91999,-22.20479,11.90461,1007.429
1.519442558,0.1341412,0.09413412,-0.05626008,-0.8534215,0.2020952,-0.4938838,19.28276,-22.20878,11.8991,1007.429
1.554205418,0.1341412,0.09413412,0.00468063,-0.8514848,0.2001569,-0.4963162,19.28276,-22.20878,11.8991,1007.429
1.586484909,0.01019387,0.09413412,0.00468063,-0.8505193,0.1996643,-0.4997052,19.63355,-22.21841,11.45785,1007.43
1.621247768,-0.1137535,-0.02327143,0.00468063,-0.8548909,0.2093435,-0.4957732,19.27078,-22.21442,11.46337,1007.429
1.653526783,0.01019387,-0.1993798,0.00468063,-0.8563147,0.1986994,-0.4938969,19.27144,-22.57893,11.46799,1007.429
1.688289165,0.3200622,0.2702425,0.00468063,-0.8602007,0.2054568,-0.4957839,19.27144,-22.57893,11.46799,1007.429
1.720569134,0.07216753,0.09413412,0.00468063,-0.856335,0.206923,-0.494817,19.63289,-21.85389,11.45324,1007.429
1.752848148,0.1341412,0.09413412,0.00468063,-0.8577896,0.2073913,-0.4981953,19.64686,-22.9418,11.90281,1007.43
1.787611008,0.1341412,0.09413412,0.06562133,-0.8563302,0.2035224,-0.4987038,19.64686,-22.9418,11.90281,1007.429
1.819890022,0.07216753,0.03543134,0.00468063,-0.8558483,0.2059598,-0.4938566,19.65581,-22.20794,12.26706,1007.429
1.854652405,-0.1757271,-0.08197422,0.00468063,-0.8534151,0.1982124,-0.49729,19.27144,-22.57893,11.46799,1007.43
1.886932373,-0.2377008,0.09413412,-0.1172008,-0.8534231,0.2020887,-0.4958177,19.27144,-22.57893,11.46799,1007.43
1.921694756,0.07216753,0.09413412,-0.05626008,-0.8539073,0.2025729,-0.4953304,19.98567,-22.95706,11.02584,1007.43
1.953973770,-0.1137535,0.2702425,0.00468063,-0.8514854,0.2011313,-0.4943769,19.62223,-22.58856,11.02674,1007.435
1.986253262,0.1341412,-0.08197422,0.00468063,-0.8611739,0.2083609,-0.4947984,19.62223,-22.58856,11.02674,1007.435
2.021015644,0.01019387,0.03543134,0.00468063,-0.8553623,0.2040172,-0.4962859,19.28342,-22.5733,11.90371,1007.433
2.053295612,-0.1137535,0.2115397,0.06562133,-0.8582761,0.209821,-0.4947963,19.6462,-22.57729,11.8982,1007.433
2.088057995,-0.2377008,0.2115397,-0.1781415,-0.8597305,0.2107782,-0.4967215,19.6462,-22.57729,11.8982,1007.431
2.120337009,0.01019387,0.1528369,0.06562133,-0.8510059,0.2001386,-0.5021186,19.63289,-21.85389,11.45324,1007.43
2.155099869,-0.1757271,-0.1993798,0.00468063,-0.8524501,0.1977181,-0.5011624,19.2721,-22.94345,11.4726,1007.43
2.187379360,-0.05177979,0.09413412,-0.1172008,-0.8587459,0.2030348,-0.4977345,19.2721,-22.94345,11.4726,1007.428
2.219658851,-0.05177979,0.09413412,-0.1781415,-0.8539101,0.2030503,-0.4972614,19.27078,-22.21442,11.46337,1007.426
2.254421234,0.1961149,0.03543134,0.00468063,-0.8534444,0.2117738,-0.4938287,19.63488,-22.94744,11.46709,1007.424
2.286700249,0.1341412,0.2702425,0.126562,-0.8573033,0.2069153,-0.4962653,19.63488,-22.94744,11.46709,1007.423
2.321462631,-0.4236218,-0.02327143,0.06562133,-0.8529462,0.2030399,-0.5011311,19.27144,-22.57893,11.46799,1007.421
2.353742599,-0.2996745,-0.02327143,-0.1172008,-0.8543971,0.2045007,-0.4972521,18.90866,-22.57494,11.4735,1007.421
2.386022091,-0.1137535,-0.08197422,0.00468063,-0.852454,0.2025885,-0.4919494,18.90866,-22.57494,11.4735,1007.419
2.420784473,0.1961149,-0.02327143,0.00468063,-0.8558506,0.2069276,-0.4938511,19.64686,-22.9418,11.90281,1007.419
2.453063965,0.4440095,-0.02327143,0.06562133,-0.8577844,0.2079014,-0.4904574,19.65581,-22.20794,12.26706,1007.418
2.487826824,-0.2377008,0.09413412,0.1875027,-0.8572865,0.2001436,-0.4953369,19.65581,-22.20794,12.26706,1007.418
2.520105839,-0.2377008,0.03543134,0.1875027,-0.8524699,0.2064321,-0.500146,18.54588,-22.57096,11.47902,1007.418
2.554868221,-0.2377008,-0.08197422,0.00468063,-0.8505321,0.2069412,-0.494346,19.27078,-22.21442,11.46337,1007.416
2.587147713,0.1344878,0.1527845,0.004585147,-0.8577694,0.1991678,-0.4972752,19.6462,-22.57729,11.8982,1007.416
2.619427204,0.3815228,0.0936427,0.1267917,-0.8577857,0.2059411,-0.4977201,19.6462,-22.57729,11.8982,1007.416
2.654190063,0.3181468,-0.2587636,0.004831608,-0.8524718,0.2074016,-0.499657,19.64554,-22.21277,11.89358,1007.414
2.686469078,-0.3015643,0.03499509,0.0657527,-0.8548653,0.1991875,-0.4938972,18.92131,-22.93383,11.91384,1007.414
2.721231461,-0.3004156,0.1523387,0.004752558,-0.8529272,0.1982318,-0.4919731,18.92131,-22.93383,11.91384,1007.414
2.753511429,0.009938791,0.03457009,-0.1172056,-0.8563396,0.2088587,-0.494806,18.90932,-22.93946,11.47812,1007.414
2.788273811,0.2575173,-0.08258189,-0.1170732,-0.8577762,0.2020713,-0.4972586,19.62289,-22.95307,11.03136,1007.416
2.820552826,0.3807063,0.1518111,-0.1167678,-0.854879,0.2045058,-0.4953173,19.62289,-22.95307,11.03136,1007.418
2.852832317,0.008051176,0.2101348,0.005513135,-0.8548731,0.1996436,-0.5021131,19.63421,-22.58292,11.46247,1007.418
2.887594700,-0.1155619,-0.1422864,0.005527254,-0.8577712,0.2001373,-0.4967862,19.63488,-22.94744,11.46709,1007.418
2.919874668,-0.1150716,0.2097923,-0.116243,-0.8529575,0.2093457,-0.4967442,19.63488,-22.94744,11.46709,1007.418
2.954637051,0.008875471,-0.08377706,0.06665,-0.8519785,0.2054885,-0.4933842,19.28276,-22.20878,11.8991,1007.418
2.986916065,-0.1775868,-0.08314116,0.005972791,-0.8515003,0.2074223,-0.4943411,19.63421,-22.58292,11.46247,1007.418
3.021678925,0.1318755,-0.02446028,0.1889979,-0.8572941,0.2030438,-0.4962873,19.63421,-22.58292,11.46247,1007.418
3.053958416,-0.3017388,0.2100454,0.006112617,-0.8577757,0.2030507,-0.493869,19.65686,-21.84262,12.32469,1007.42
3.086237907,-0.1149962,0.1510388,-0.1158702,-0.8500456,0.2050003,-0.4962918,19.63488,-22.94744,11.46709,1007.42
3.121000290,0.1949681,0.091986,0.006386247,-0.8548886,0.2083756,-0.4957787,19.63488,-22.94744,11.46709,1007.424
3.153279304,0.3180621,-0.2015714,-0.05429362,-0.849562,0.2045128,-0.4977459,19.27144,-22.57893,11.46799,1007.42
3.188041687,0.1312699,-0.02540653,0.1287477,-0.8572858,0.1991692,-0.4972762,19.6462,-22.57729,11.8982,1007.42
3.220321655,0.06876147,-0.08422683,-0.1150049,-0.8558521,0.2044785,-0.5025669,19.6462,-22.57729,11.8982,1007.424
3.255084038,-0.05492364,-0.3187049,0.1897066,-0.8543865,0.2030784,-0.4885584,19.2721,-22.94345,11.4726,1007.424
3.287363529,-0.05427216,0.09255609,0.06772079,-0.8563232,0.2015965,-0.4958142,18.908,-22.21043,11.46889,1007.424
3.319643497,0.06952687,-0.08389252,-0.05422651,-0.850044,0.2050069,-0.494358,18.908,-22.21043,11.46889,1007.424
3.354405880,0.1309036,-0.2010035,0.06804597,-0.8548787,0.2045075,-0.4948339,20.00898,-22.58128,11.89268,1007.42
3.386684894,0.4400825,-0.02497835,0.06824645,-0.8529363,0.2030809,-0.4890449,19.28342,-22.5733,11.90371,1007.42
3.421447277,-0.1182124,0.09200305,0.06829096,-0.8577811,0.2054719,-0.4933718,19.28342,-22.5733,11.90371,1007.42
3.453726768,-0.05567902,-0.02599847,0.06831827,-0.8543955,0.2045072,-0.4953183,18.54522,-22.20644,11.4744,1007.422
3.486006260,0.06861187,-0.02578186,0.007175595,-0.8597142,0.203516,-0.4977297,19.28276,-22.20878,11.8991,1007.426
3.520769119,0.06840765,-0.08453709,-0.1148138,-0.8548728,0.2030655,-0.4919415,19.27078,-22.21442,11.46337,1007.426
3.553048134,0.00646643,0.03289995,-0.1145941,-0.8524691,0.2059465,-0.5006321,19.27078,-22.21442,11.46337,1007.426
3.587810516,0.0681981,-0.02508216,0.007446032,-0.8515042,0.2088725,-0.4948163,19.63421,-22.58292,11.46247,1007.424
3.620090485,-0.1794688,0.03388853,0.007396802,-0.8577819,0.204491,-0.4972449,20.35911,-22.22638,11.44682,1007.424
3.654852867,-0.2406547,-0.08377647,-0.1144596,-0.8519737,0.2020879,-0.4972711,20.35911,-22.22638,11.44682,1007.422
3.687132358,0.06982499,0.1509713,-0.0532054,-0.8543996,0.2074223,-0.4919177,18.92131,-22.93383,11.91384,1007.424
3.719411373,0.3165794,0.1510554,-0.05287367,-0.8548664,0.1991826,-0.4953476,19.99699,-22.58691,11.45695,1007.424
3.754173756,0.1295217,0.03350218,-0.113869,-0.8539097,0.2025631,-0.4982311,19.99699,-22.58691,11.45695,1007.424
3.786453724,-0.3659595,0.0918289,0.06878659,-0.8548807,0.2040104,-0.4987042,19.6462,-22.57729,11.8982,1007.422
3.821216106,-0.1788597,-0.2603857,0.1904615,-0.853433,0.2069345,-0.4938563,19.64752,-23.30632,11.90743,1007.422
3.853495121,0.007789835,-0.1424892,0.007436492,-0.8529463,0.2054825,-0.494349,19.64752,-23.30632,11.90743,1007.422
3.888257980,0.007075202,0.209782,-0.05323096,-0.8519824,0.205961,-0.4967656,19.27144,-22.57893,11.46799,1007.422
3.920537472,0.005842481,0.09218368,-0.1140122,-0.851966,0.1982099,-0.4992269,19.27011,-21.8499,11.45875,1007.422
3.952816963,0.06763703,0.03374948,0.008104697,-0.8529443,0.2069572,-0.4875725,19.27011,-21.8499,11.45875,1007.422
3.987579346,-0.1183279,-0.02508311,0.008412722,-0.8510019,0.2011327,-0.494378,19.62223,-22.58856,11.02674,1007.422
4.019859314,0.1293103,-0.2009049,0.008340232,-0.8539197,0.2054535,-0.5020821,18.92065,-22.56931,11.90923,1007.42
4.054621696,0.005164687,-0.2587628,0.130319,-0.8572918,0.2025649,-0.4948397,18.92065,-22.56931,11.90923,1007.42
4.086900711,0.3150699,0.03436965,-0.05232707,-0.855845,0.2040191,-0.495318,18.89668,-22.58058,11.03777,1007.419
4.121663094,-0.05726094,-0.08331537,-0.2349767,-0.8544058,0.2083737,-0.4967466,19.2721,-22.94345,11.4726,1007.423
4.153942585,-0.366546,-0.2001788,-0.1739573,-0.8592352,0.2059419,-0.4962666,19.2721,-22.94345,11.4726,1007.421
4.186222553,0.00539048,0.03465658,-0.05215036,-0.8577837,0.2064382,-0.4938497,19.6462,-22.57729,11.8982,1007.423
4.220984936,0.2530671,0.09294923,-0.05218891,-0.8539105,0.2025598,-0.499198,19.27078,-22.21442,11.46337,1007.423
4.253263950,0.06704748,-0.02474329,-0.1738573,-0.8529249,0.1972639,-0.4919786,19.27078,-22.21442,11.46337,1007.423
4.288026333,0.1903701,0.03346083,-0.051939,-0.8558434,0.2035368,-0.4948373,20.02096,-22.57564,12.32841,1007.423
4.320306301,0.1278731,0.03314049,-0.1735894,-0.8548856,0.2054557,-0.5006297,18.55787,-22.56532,11.91474,1007.421
4.355068683,0.003228854,-0.02511821,0.1312836,-0.8592252,0.2020737,-0.4953218,18.55787,-22.56532,11.91474,1007.421
4.387348175,0.1271238,-0.08379224,-0.0515196,-0.8539147,0.204986,-0.4972504,19.27078,-22.21442,11.46337,1007.419
4.419627190,-0.3067825,0.03345793,-0.05163444,-0.8529402,0.2035533,-0.4924262,19.28276,-22.20878,11.8991,1007.419
4.454389572,-0.05853203,-0.0839471,0.009265602,-0.8524621,0.2049983,-0.4948363,19.27144,-22.57893,11.46799,1007.418
4.486669540,-0.1200922,-0.02501274,-0.05165544,-0.8568068,0.2015951,-0.4958132,19.27144,-22.57893,11.46799,1007.418
4.521431923,0.1276298,-0.1427319,-0.1124268,-0.8548675,0.2016219,-0.4895325,19.63421,-22.58292,11.46247,1007.418
4.553711414,-0.05902478,0.03357161,0.009664457,-0.8529327,0.1991865,-0.4958352,19.27144,-22.57893,11.46799,1007.418
4.585990906,-0.1208745,-0.02515713,-0.05118207,-0.8572953,0.2035278,-0.4962845,19.27144,-22.57893,11.46799,1007.418
4.620753765,0.003409069,0.1506752,-0.1729724,-0.8510058,0.202094,-0.4963062,19.64686,-22.9418,11.90281,1007.418
4.653032780,-0.05820926,-0.3192298,-0.1119764,-0.8524557,0.2016043,-0.4967893,19.63355,-22.21841,11.45785,1007.418
4.687795162,0.06558511,-0.1423645,0.01028211,-0.8558446,0.2030431,-0.4977407,19.63355,-22.21841,11.45785,1007.422
4.720075130,0.1270001,0.3274328,0.01058413,-0.8572956,0.2049927,-0.4924087,19.63488,-22.94744,11.46709,1007.422
4.754837513,-0.05920592,0.03342052,0.01070952,-0.8534272,0.2045149,-0.49387,19.63289,-21.85389,11.45324,1007.422
4.787116528,-0.1824456,-0.0838269,-0.05044706,-0.8539041,0.2035637,-0.4885567,19.63289,-21.85389,11.45324,1007.422
4.819396019,0.003441382,0.09179442,0.01033621,-0.8510038,0.2016133,-0.4953421,19.62223,-22.58856,11.02674,1007.422
4.854158401,0.00342663,-0.2016988,-0.05057327,-0.8524635,0.2059695,-0.4938639,19.2721,-22.94345,11.4726,1007.422
4.886438370,-0.1205347,-0.08385774,-0.1721913,-0.8568039,0.2025843,-0.4895228,19.2721,-22.94345,11.4726,1007.42
4.921200752,0.1887937,-0.2602974,-0.1108773,-0.8534296,0.2049939,-0.4953176,19.64554,-22.21277,11.89358,1007.42
4.953479767,0.002064701,-0.1424751,-0.1108269,-0.8543994,0.2054685,-0.4972466,19.28342,-22.5733,11.90371,1007.42
4.988242626,0.4980392,-0.1421811,-0.1716636,-0.8543911,0.2006161,-0.5011418,19.28342,-22.5733,11.90371,1007.422
5.020522118,0.001639329,-0.2591732,-0.110444,-0.8543934,0.2054931,-0.4899949,19.2821,-21.84426,11.89448,1007.422
5.052801609,0.001321826,-0.08309473,0.01158164,-0.8524758,0.2108054,-0.4948032,20.37175,-22.58526,11.88717,1007.42
5.087563992,-0.1229224,-0.02454255,-0.1100259,-0.8529451,0.2020671,-0.5025869,20.37175,-22.58526,11.88717,1007.418
5.119843960,0.00102089,-0.141664,-0.1706518,-0.8539173,0.2059522,-0.4977283,19.25945,-22.58457,11.03226,1007.418
5.154606342,0.0006859191,-0.2592763,0.01223134,-0.8553469,0.1987055,-0.4929321,19.63355,-22.21841,11.45785,1007.417
5.186885357,0.18641,0.2103718,0.01223886,-0.8510173,0.2054667,-0.5006379,19.63355,-22.21841,11.45785,1007.418
5.221647739,-0.1853952,0.09237437,0.07310686,-0.852446,0.1996899,-0.4905156,19.27144,-22.57893,11.46799,1007.418
5.253927231,0.0005431063,-0.08394451,0.01192551,-0.8563316,0.2049823,-0.4962783,19.63421,-22.58292,11.46247,1007.417
5.286206722,-0.1850303,-0.08343679,-0.1099852,-0.8495604,0.2045194,-0.4958121,19.63421,-22.58292,11.46247,1007.417
5.320969581,0.1870987,0.3274069,0.01207332,-0.856806,0.2015984,-0.4948463,19.27078,-22.21442,11.46337,1007.417
5.353248596,0.0005899817,-0.08394496,0.01213868,-0.852464,0.205479,-0.4958004,19.6462,-22.57729,11.8982,1007.422
5.388010979,-0.1233792,0.09234776,0.073007,-0.8553553,0.2020914,-0.4933963,19.64488,-21.84826,11.88897,1007.422
5.420290947,-0.1231094,0.03361845,0.07309148,-0.8519754,0.2040351,-0.4938759,19.64488,-21.84826,11.88897,1007.421
5.455053329,0.1248008,0.03315816,0.0119256,-0.8543993,0.2064462,-0.4943404,19.63355,-22.21841,11.45785,1007.421
5.487332821,0.1247391,-0.1431775,0.01189624,-0.8534263,0.2015868,-0.5011383,19.64554,-22.21277,11.89358,1007.422
5.519612312,0.3720472,-0.1427413,-0.1705155,-0.8568243,0.2083635,-0.4977084,19.64554,-22.21277,11.89358,1007.422
5.554375172,0.1232,-0.1423914,-0.2919542,-0.8582541,0.1981838,-0.5016307,19.65819,-22.57165,12.33392,1007.421
5.586654186,-0.1252355,0.1514267,0.01292631,-0.8543883,0.2011164,-0.4963045,19.63488,-22.94744,11.46709,1007.424
5.621416569,-0.1868149,-0.02455482,0.01267823,-0.8543928,0.203541,-0.4948404,19.63488,-22.94744,11.46709,1007.424
5.653695583,-0.1860338,0.03400883,0.0123783,-0.8519748,0.202083,-0.4987214,19.99633,-22.22239,11.45234,1007.424
5.685975552,0.06240519,0.03414616,-0.3530679,-0.8534304,0.2045018,-0.4977376,19.63355,-22.21841,11.45785,1007.426
5.720737934,0.4950138,0.03388586,-0.1700339,-0.8519782,0.2040236,-0.49726,19.63355,-22.21841,11.45785,1007.426
5.753017425,-0.001976725,-0.1420476,0.1955198,-0.8505245,0.2025744,-0.4977548,19.28276,-22.20878,11.8991,1007.428
5.787779808,-0.3728767,0.1515928,0.0736019,-0.8524571,0.2030642,-0.4943638,19.63421,-22.58292,11.46247,1007.428
5.820059776,-0.1861745,0.03390031,-0.1093672,-0.8553714,0.2083775,-0.4948108,19.63421,-22.58292,11.46247,1007.428
5.854822159,-0.0002530627,-0.1425589,-0.4138579,-0.8548815,0.2035183,-0.5011242,19.27144,-22.57893,11.46799,1007.428
5.887101173,0.2491769,-0.2596959,-0.1086907,-0.8534273,0.204026,-0.4953232,19.6462,-22.57729,11.8982,1007.43
5.919381142,0.001296926,-0.02476534,-0.1693985,-0.8510019,0.2011327,-0.494378,19.6462,-22.57729,11.8982,1007.43
5.954143524,-0.1838521,-0.08358052,0.2570699,-0.8519788,0.2054869,-0.4938676,19.63355,-22.21841,11.45785,1007.431
5.986423016,-0.1827918,0.03359491,0.134714,-0.8529392,0.2006252,-0.4996945,19.28408,-22.93781,11.90833,1007.431
6.021185398,0.1271788,0.3263722,-0.1088376,-0.8529585,0.2108073,-0.4938353,19.28408,-22.93781,11.90833,1007.431
6.053464413,0.311862,0.1499094,0.07460022,-0.8519611,0.1967647,-0.4973013,19.27078,-22.21442,11.46337,1007.431
6.088226795,0.0008000657,0.09095352,0.01392434,-0.8548658,0.1977194,-0.49874,19.63488,-22.94744,11.46709,1007.433
6.120506763,-0.1847742,-0.08524927,-0.04695804,-0.8539154,0.2054715,-0.4967642,19.63488,-22.94744,11.46709,1007.429
6.152785778,-0.06009333,0.03226439,0.135654,-0.8510031,0.2016166,-0.4943752,19.64686,-22.9418,11.90281,1007.429
6.187548637,0.06368989,-0.0850988,0.0134256,-0.8534289,0.2035307,-0.49871,19.27078,-22.21442,11.46337,1007.431
6.219828129,0.1254428,0.09113522,-0.04772251,-0.8558445,0.2049985,-0.4919284,19.27078,-22.21442,11.46337,1007.429
6.254590988,0.00109997,-0.2608551,-0.04776132,-0.8582752,0.2103131,-0.4923763,19.28276,-22.20878,11.8991,1007.429
6.286870003,0.0006286204,0.03269055,0.01346963,-0.8553497,0.1977163,-0.4992224,18.56985,-22.55969,12.35047,1007.429
6.321632385,-0.06152236,0.09113973,-0.1691823,-0.8529462,0.2030399,-0.5011311,19.25813,-21.85554,11.02303,1007.429
6.353912353,-0.06123275,0.2086156,0.01390908,-0.8553548,0.2025819,-0.4914597,19.25813,-21.85554,11.02303,1007.429
6.386191368,0.1244711,0.266818,0.01373768,-0.8568149,0.2035161,-0.5001532,19.63421,-22.58292,11.46247,1007.429
6.420954227,0.186248,-0.1444995,-0.04716742,-0.8514906,0.2015988,-0.4992087,19.28276,-22.20878,11.8991,1007.427
6.453233719,0.06216375,0.03179269,-0.1078777,-0.858752,0.2059417,-0.4967511,19.28276,-22.20878,11.8991,1007.429
6.487996578,0.1859742,-0.08494247,-0.1074236,-0.8573008,0.2044825,-0.5001466,19.27144,-22.57893,11.46799,1007.429
6.520275593,-0.1863146,-0.02574627,0.01460908,-0.857285,0.1991724,-0.4963093,19.63488,-22.94744,11.46709,1007.427
6.555037975,-0.1241839,-0.02579915,0.07512259,-0.855355,0.2011153,-0.495819,19.63488,-22.94744,11.46709,1007.427
6.587316990,-0.123969,0.1500831,0.07491212,-0.8543958,0.2054833,-0.4928955,18.92065,-22.56931,11.90923,1007.429
6.619596958,7.54483E-05,0.03245261,-0.1076994,-0.8500441,0.2040292,-0.4972642,19.99567,-21.85788,11.44772,1007.429
6.654359341,0.1852768,0.0909945,-0.04645782,-0.8495556,0.2016076,-0.4982459,19.99567,-21.85788,11.44772,1007.429
6.686638832,0.1840553,-0.1441137,-0.107018,-0.8553566,0.2001311,-0.5006589,18.54588,-22.57096,11.47902,1007.427
6.721401215,0.2453768,-0.1440888,0.07566237,-0.8592259,0.203537,-0.4919294,19.28342,-22.5733,11.90371,1007.427
6.753681183,-0.1880394,0.03242272,0.01462342,-0.8534242,0.2030615,-0.4943618,19.28342,-22.5733,11.90371,1007.426
6.788443565,-0.1868835,-0.02610961,0.01440625,-0.8548698,0.2021009,-0.49098,20.00832,-22.21676,11.88807,1007.426
6.820722580,-0.06221357,0.0322945,0.07532649,-0.8548801,0.2054786,-0.4938614,19.25945,-22.58457,11.03226,1007.427
6.853002548,-0.06116451,0.0908474,-0.04653716,-0.8500471,0.2049938,-0.4982256,19.25945,-22.58457,11.03226,1007.427
6.887764931,-0.06114821,-0.1436815,-0.1682142,-0.8524682,0.2074163,-0.495306,19.64554,-22.21277,11.89358,1007.426
6.920044422,-0.2469754,0.09132873,0.01485401,-0.8524605,0.2050049,-0.4929025,19.63421,-22.58292,11.46247,1007.43
6.954806805,0.001167722,0.1499985,0.1365172,-0.8548734,0.2011085,-0.4982373,19.63421,-22.58292,11.46247,1007.43
6.987086773,-0.0604801,-0.08487181,-0.04636458,-0.8509961,0.198713,-0.4943917,19.64686,-22.9418,11.90281,1007.428
7.019365788,-0.05998109,-0.2605233,-0.2291696,-0.8510076,0.2030635,-0.4958173,19.63421,-22.58292,11.46247,1007.428
7.054128170,0.1264557,-0.08395278,0.01491145,-0.8563247,0.2030564,-0.4933887,19.63421,-22.58292,11.46247,1007.426
7.086408138,0.2497124,-0.0250182,-0.04589905,-0.8490669,0.2006526,-0.4948683,19.62223,-22.58856,11.02674,1007.426
7.121170521,0.2488885,-0.02474279,0.07610716,-0.8563202,0.200143,-0.4963059,19.63421,-22.58292,11.46247,1007.425
7.153449535,-0.1229764,0.03435528,0.07610265,-0.8539059,0.2016017,-0.4963028,19.63421,-22.58292,11.46247,1007.425
7.188212395,-0.1840217,0.03424137,0.07597885,-0.8490825,0.2079181,-0.4928932,18.92131,-22.93383,11.91384,1007.425
7.220491409,0.002241168,-0.2008569,-0.04605925,-0.8500478,0.2054793,-0.4977394,18.92197,-23.29834,11.91846,1007.425
7.252771377,0.3733739,0.0338708,-0.1676192,-0.8539135,0.2049909,-0.4958001,18.92197,-23.29834,11.91846,1007.425
7.287533760,0.0003594942,0.03381417,-0.04525032,-0.8553542,0.2011186,-0.4948521,19.27078,-22.21442,11.46337,1007.425
7.319812774,-0.1239,-0.1419165,-0.04504663,-0.8534341,0.2069296,-0.4953066,19.64686,-22.9418,11.90281,1007.423
7.354575634,-0.2471479,-0.02394347,0.1378396,-0.8543952,0.2035312,-0.4977411,19.62223,-22.58856,11.02674,1007.423
7.386855125,0.001093168,-0.0237171,-0.0450093,-0.8548762,0.201097,-0.5016214,19.62223,-22.58856,11.02674,1007.423
7.421617985,0.186795,0.2697718,0.07693584,-0.8563167,0.1986912,-0.4963141,19.64554,-22.21277,11.89358,1007.427
7.453896999,0.1860727,0.1520947,0.01596821,-0.8577792,0.2040136,-0.4953139,19.27144,-22.57893,11.46799,1007.425
7.486176968,0.06195007,-0.02430226,-0.1668237,-0.8485842,0.2006507,-0.4958363,19.27144,-22.57893,11.46799,1007.427
7.520939350,-0.06174438,-0.08321114,0.1377713,-0.8553566,0.2015976,-0.4962997,19.98501,-22.59254,11.02123,1007.425
7.553218365,-0.2469667,-0.08314785,0.01586334,-0.8495641,0.2074361,-0.491928,19.64488,-21.84826,11.88897,1007.425
7.587980747,0.1867664,-0.1419093,-0.1058203,-0.8500429,0.2040341,-0.4958139,19.64488,-21.84826,11.88897,1007.424
7.620260715,0.06221319,0.03444595,-0.0447732,-0.857293,0.2025599,-0.4962901,19.6462,-22.57729,11.8982,1007.424
7.655023098,0.0001026951,0.1517002,-0.1055744,-0.8582548,0.199647,-0.4982383,19.98567,-22.95706,11.02584,1007.424
7.687302589,-0.0001894608,-0.1418982,0.01637429,-0.8485946,0.2035396,-0.5001708,19.98567,-22.95706,11.02584,1007.424
7.719582081,-0.0617541,-0.3176306,-0.1055548,-0.8543909,0.2030603,-0.4938762,20.00898,-22.58128,11.89268,1007.424
7.754344940,0.0002765693,0.03546436,-0.0443799,-0.8539197,0.2064312,-0.4991759,19.63421,-22.58292,11.46247,1007.422
7.786623955,0.1854579,0.03565127,-0.04429428,-0.8558396,0.2025755,-0.492909,19.63421,-22.58292,11.46247,1007.42
7.821386337,0.1847603,-0.02322609,0.01708903,-0.8577738,0.20257,-0.4929048,19.2821,-21.84426,11.89448,1007.424
7.853666306,0.0607013,-0.08203673,0.07809379,-0.8568063,0.2011079,-0.4967828,19.63488,-22.94744,11.46709,1007.422
7.888428688,-0.1252337,0.03504778,0.01717369,-0.85247,0.2044767,-0.5059583,19.63488,-22.94744,11.46709,1007.422
7.920708179,0.122627,-0.08227968,0.07825461,-0.8573028,0.2074058,-0.4943287,19.64422,-21.48374,11.88435,1007.422
7.952987194,0.06034783,0.03546145,-0.0434299,-0.8510147,0.2040117,-0.5016131,19.29409,-21.83863,12.33021,1007.422
7.987749577,-0.1875199,-0.08143713,-0.1654647,-0.8577775,0.2015776,-0.5001621,19.29409,-21.83863,12.33021,1007.421
8.020029545,0.06078918,0.03604256,0.01730558,-0.8534293,0.2040179,-0.4977404,19.27078,-22.21442,11.46337,1007.419
8.054791927,0.06060012,-0.1401688,0.01724873,-0.8524644,0.2049885,-0.497737,18.54655,-22.93547,11.48363,1007.419
8.087070942,-0.001348458,-0.1987423,-0.1046647,-0.8510027,0.2006406,-0.4967979,18.54655,-22.93547,11.48363,1007.419
8.119350910,0.0606503,0.2120481,0.07825925,-0.8563305,0.2040096,-0.4977342,19.29541,-22.56766,12.33944,1007.421
8.154113292,-0.001298022,0.03594787,-0.0436982,-0.8572979,0.2049828,-0.4953094,19.64686,-22.9418,11.90281,1007.419
8.186392784,0.06083621,0.03583819,0.01713388,-0.8548775,0.2045124,-0.4933835,19.64686,-22.9418,11.90281,1007.419
8.221155166,-0.06297006,0.03573608,0.1387874,-0.8568109,0.2035324,-0.4953187,19.99898,-23.68046,11.4708,1007.419
8.253435135,0.1232657,-0.08186993,-0.04396971,-0.8534274,0.2030484,-0.4982294,19.98435,-22.22803,11.01661,1007.417
8.288197517,0.06125622,-0.2574165,-0.1050804,-0.8563263,0.2025611,-0.4967755,19.25945,-22.58457,11.03226,1007.417
8.320476532,0.1230578,0.03642862,0.1388816,-0.850538,0.2074055,-0.5001446,19.25945,-22.58457,11.03226,1007.417
8.352756500,-0.1250662,0.03650089,0.01673981,-0.8515054,0.2078899,-0.4991729,19.28408,-22.93781,11.90833,1007.419
8.387518883,-0.1250421,0.2123201,0.138433,-0.8597061,0.201595,-0.4933897,19.64686,-22.9418,11.90281,1007.419
8.419798374,-0.000954546,-0.1399516,0.01627397,-0.8539165,0.2059555,-0.4967614,19.64686,-22.9418,11.90281,1007.419
8.454560757,0.122783,0.03597961,-0.04489095,-0.8524549,0.2011187,-0.4972755,19.64554,-22.21277,11.89358,1007.421
8.486840725,-0.06352175,-0.08157249,0.01596495,-0.8587472,0.2025411,-0.5006379,18.89668,-22.58058,11.03777,1007.421
8.521603107,-0.1256828,0.03597016,-0.1060058,-0.8524533,0.2016141,-0.4938886,18.89668,-22.58058,11.03777,1007.421
8.553882122,-0.1873771,0.03613658,-0.2886826,-0.8558522,0.2074099,-0.4943318,19.63355,-22.21841,11.45785,1007.421
8.586162090,0.1226911,-0.08115812,0.01614656,-0.8577673,0.1996648,-0.4934048,19.28408,-22.93781,11.90833,1007.421
8.620924473,-0.06361289,-0.1396888,0.1380334,-0.8587421,0.2025623,-0.4943531,19.28408,-22.93781,11.90833,1007.423
8.653203487,0.06043822,-0.198577,0.0770652,-0.8539039,0.2011211,-0.4953386,19.64488,-21.84826,11.88897,1007.423
8.687966347,0.123157,0.09518245,0.07682261,-0.8553532,0.1991681,-0.4992141,19.63488,-22.94744,11.46709,1007.423
8.720245838,0.06138103,-0.08103769,-0.1060066,-0.8553611,0.2035333,-0.4962887,19.63488,-22.94744,11.46709,1007.421
8.755008697,0.06113121,-0.1395135,0.01580513,-0.8534369,0.207407,-0.4972377,19.27078,-22.21442,11.46337,1007.421
8.787287712,-0.001052674,-0.08068392,-0.1669858,-0.8543901,0.2025748,-0.4943625,19.2721,-22.94345,11.4726,1007.423
8.819567680,0.1226656,0.03670066,-0.1060143,-0.8553538,0.2011202,-0.4943687,19.2721,-22.94345,11.4726,1007.421
8.854330063,-0.1870801,-0.02210778,0.0766425,-0.8514956,0.2025552,-0.5025873,19.99567,-21.85788,11.44772,1007.421
8.886609077,0.1233172,-0.1977579,-0.2278956,-0.8553666,0.2044881,-0.5001507,19.63355,-22.21841,11.45785,1007.421
8.921371937,0.1228923,0.03731374,-0.16649,-0.8553573,0.2011055,-0.4987197,19.63355,-22.21841,11.45785,1007.421
8.953651428,0.2457944,0.1544196,0.01622714,-0.8563213,0.2011158,-0.49485,19.63355,-22.21841,11.45785,1007.419
8.988414288,-0.311473,0.3303285,0.01606026,-0.8510124,0.202555,-0.5030717,18.908,-22.21043,11.46889,1007.419
9.020693302,-0.1864308,-0.491052,-0.04507923,-0.857286,0.2016117,-0.4904942,18.908,-22.21043,11.46889,1007.418
9.052972317,0.4329762,-0.07986175,0.07685214,-0.8495584,0.2050164,-0.4919418,19.63421,-22.58292,11.46247,1007.419
9.087735653,0.2456995,0.3895949,-0.1056956,-0.8577788,0.2040152,-0.4948304,19.64554,-22.21277,11.89358,1007.419
9.120014668,0.1830159,-0.1979164,0.1380774,-0.8553718,0.2073982,-0.4982004,19.64554,-22.21277,11.89358,1007.424
9.154777050,-0.1885018,-0.1977103,0.01578106,-0.8515093,0.2093401,-0.499648,19.25813,-21.85554,11.02303,1007.422
9.187056541,0.1221152,-0.1971803,0.01558283,-0.8558549,0.2073984,-0.497716,19.28276,-22.20878,11.8991,1007.422
9.219336033,-0.001300037,0.03806621,-0.1671308,-0.8572857,0.2001468,-0.49437,19.28276,-22.20878,11.8991,1007.42
9.254098892,0.1841798,0.2727836,-0.04503181,-0.8534258,0.2030549,-0.4962956,19.63421,-22.58292,11.46247,1007.42
9.286377907,0.2453252,-0.0213262,0.01595861,-0.850036,0.2016194,-0.4943773,19.63289,-21.85389,11.45324,1007.42
9.321140289,-0.06424011,-0.02123243,-0.1665513,-0.8548751,0.2040334,-0.4919359,19.25945,-22.58457,11.03226,1007.42
9.353420257,-0.002277024,0.09602022,-0.04466012,-0.8567971,0.198703,-0.4924455,19.25945,-22.58457,11.03226,1007.418
9.388182640,0.4311791,0.09552544,-0.04471245,-0.8553559,0.2001344,-0.4996921,19.26078,-23.3136,11.04149,1007.417
9.420462131,-0.1266503,-0.02210381,-0.1057194,-0.8553581,0.2011022,-0.4996866,19.6462,-22.57729,11.8982,1007.417
9.452741623,-0.00232254,0.2712975,-0.04474906,-0.8577899,0.2078785,-0.4972256,19.6462,-22.57729,11.8982,1007.417
9.487504482,0.05921399,-0.02213662,-0.1054169,-0.8553585,0.2020783,-0.4972638,19.28408,-22.93781,11.90833,1007.417
9.519783497,0.0586425,-0.08028881,0.138489,-0.8568109,0.2035324,-0.4953187,19.62091,-21.85952,11.01751,1007.417
9.554545879,-0.1272249,0.1547088,0.07755205,-0.8534163,0.1986963,-0.4972872,19.62091,-21.85952,11.01751,1007.421
9.586825848,-0.06482985,0.0367648,-0.04458825,-0.8529518,0.2069261,-0.496758,18.92065,-22.56931,11.90923,1007.421
9.621588230,-0.0644678,0.09517729,-0.04481272,-0.8529394,0.1996475,-0.5026007,19.63355,-22.21841,11.45785,1007.421
9.653867245,0.1828341,-0.08089547,-0.2274138,-0.8495655,0.2049869,-0.5006438,19.63355,-22.21841,11.45785,1007.421
9.686147213,0.1822832,-0.1389368,0.01672193,-0.8524691,0.2064354,-0.499179,19.63355,-22.21841,11.45785,1007.421
9.720909595,0.3668987,0.09618944,-0.1046788,-0.8548653,0.1986987,-0.4953503,18.92065,-22.56931,11.90923,1007.419
9.753189087,0.1185581,-0.08031108,-0.0437513,-0.8534247,0.202571,-0.4962983,18.92065,-22.56931,11.90923,1007.419
9.787951469,-0.3762743,0.03730005,0.1996684,-0.8510101,0.2025648,-0.5001711,19.99501,-21.49336,11.44311,1007.419
9.820231438,-0.1275847,-0.07998119,-0.04450694,-0.8568044,0.2011161,-0.4943656,19.64554,-22.21277,11.89358,1007.419
9.854993820,0.1198982,-0.1970358,0.01653335,-0.856806,0.2011095,-0.4962993,19.64554,-22.21277,11.89358,1007.419
9.887272835,0.1189625,-0.2551194,0.199307,-0.8524565,0.2011121,-0.4992093,18.89668,-22.58058,11.03777,1007.419
9.919552803,-0.0051778,0.03866127,-0.04442739,-0.8553599,0.2040271,-0.4933852,19.27144,-22.57893,11.46799,1007.419
9.954315186,-0.0671289,-0.07909824,0.07715185,-0.857291,0.2025681,-0.4938728,19.27144,-22.57893,11.46799,1007.419
9.986594677,0.05716991,0.2135967,0.07677995,-0.8495644,0.204503,-0.5006466,19.27078,-22.21442,11.46337,1007.419
10.021357059,-0.1902761,-0.1384158,-0.1061307,-0.8519809,0.204501,-0.4991911,19.27144,-22.57893,11.46799,1007.417
10.053637028,0.05810234,-0.1378884,-0.1057551,-0.8543929,0.2020745,-0.4991997,19.27144,-22.57893,11.46799,1007.422
10.088399410,0.367132,0.2731024,0.01639918,-0.8539042,0.2020971,-0.4929159,19.25813,-21.85554,11.02303,1007.422
10.120678425,0.242213,0.03830127,0.07744493,-0.8524593,0.2011007,-0.5025935,19.27144,-22.57893,11.46799,1007.422
10.152958393,-0.1295082,-0.07896595,0.07724369,-0.8563198,0.2001447,-0.4958225,19.27144,-22.57893,11.46799,1007.422
10.187720775,-0.2522072,0.096495,0.1376924,-0.8553565,0.2011088,-0.4977528,18.93396,-23.29271,12.35419,1007.422
10.219999790,-0.003634226,0.03763831,-0.04553799,-0.8524582,0.204037,-0.4929079,19.99633,-22.22239,11.45234,1007.422
10.254762649,0.3056083,0.03776751,-0.04526141,-0.8524628,0.2054839,-0.4943501,18.91932,-21.84028,11.9,1007.422
10.287042141,0.3043043,-0.1967369,0.01586356,-0.8514937,0.2025634,-0.5001701,18.91932,-21.84028,11.9,1007.423
10.319321632,-0.1300515,0.0383239,-0.0449699,-0.8524657,0.203517,-0.5035465,19.27144,-22.57893,11.46799,1007.423
10.354084015,-0.2531168,0.03804555,-0.04498287,-0.8519786,0.204022,-0.4977435,19.27078,-22.21442,11.46337,1007.422
10.386363983,-0.3149905,0.09699828,-0.04458988,-0.8587456,0.2030364,-0.4972511,19.27078,-22.21442,11.46337,1007.422
10.421126366,0.1807819,0.03842166,0.07746795,-0.8553665,0.2049769,-0.4986976,19.63355,-22.21841,11.45785,1007.422
10.453405380,0.3661408,0.1554864,-0.04442312,-0.8534432,0.2073808,-0.5049729,19.62157,-22.22404,11.02213,1007.422
10.488168239,-0.00616134,-0.1964553,-0.1049969,-0.8543915,0.2015922,-0.498719,19.62157,-22.22404,11.02213,1007.422
10.520447731,-0.1296557,0.156304,0.01694934,-0.8572892,0.2006209,-0.4972679,19.63421,-22.58292,11.46247,1007.42
10.552727222,-0.06734785,-0.07884979,0.0778783,-0.8539119,0.2045086,-0.4953194,19.27078,-22.21442,11.46337,1007.42
10.587489605,-0.005369786,-0.01991106,0.1998001,-0.8539104,0.2030486,-0.4977449,19.27078,-22.21442,11.46337,1007.42
10.619769573,-0.06769094,-0.1958645,0.1388283,-0.8529445,0.204513,-0.494838,19.63289,-21.85389,11.45324,1007.418
10.654531956,-0.06762726,-0.07807815,0.01681525,-0.8553573,0.2020832,-0.4958135,19.29541,-22.56766,12.33944,1007.418
10.686810970,-0.06762369,-0.07783334,-0.1661325,-0.8587449,0.202062,-0.4991904,19.29541,-22.56766,12.33944,1007.416
10.721574306,0.1802757,-0.07767621,0.01676917,-0.8543836,0.2006473,-0.4919562,18.89668,-22.58058,11.03777,1007.418
10.753853321,0.3036632,-0.01856463,0.07754593,-0.8582605,0.2025555,-0.4967714,19.28408,-22.93781,11.90833,1007.416
10.786132336,-0.1307098,-0.07698911,-0.1054397,-0.8529238,0.1962911,-0.4934345,19.28408,-22.93781,11.90833,1007.416
10.820895672,0.05607647,-0.1935597,-0.1054356,-0.8558378,0.2006284,-0.4963042,19.64554,-22.21277,11.89358,1007.416
10.853174686,-0.06749704,-0.1934706,-0.1053881,-0.8553577,0.2020815,-0.4962969,19.63421,-22.58292,11.46247,1007.416
10.887937546,0.2418898,-0.07639404,-0.1047344,-0.8514962,0.2049962,-0.4962887,19.63421,-22.58292,11.46247,1007.416
10.920217037,0.3026829,0.04053101,0.07818951,-0.8514764,0.196771,-0.4958521,18.92131,-22.93383,11.91384,1007.42
10.954979897,-0.1932875,-0.01822076,0.07790375,-0.8539104,0.2030486,-0.4977449,19.64686,-22.9418,11.90281,1007.42
10.987258911,-0.1922082,-0.0763523,0.07777718,-0.8553483,0.2006543,-0.4890535,19.64686,-22.9418,11.90281,1007.42
11.019538879,0.1181712,0.2754757,0.0167104,-0.8573024,0.2078963,-0.4923922,19.64554,-22.21277,11.89358,1007.42
11.054301262,0.2413471,-0.1358978,-0.1050916,-0.8510131,0.2035294,-0.5011325,19.63355,-22.21841,11.45785,1007.42
11.086580277,0.1167658,-0.1355647,0.1996771,-0.8577724,0.2001324,-0.4982366,19.63355,-22.21841,11.45785,1007.419
11.121343136,-0.1308441,0.1582129,0.07747343,-0.8529453,0.2045097,-0.4958049,19.27144,-22.57893,11.46799,1007.417
11.153622627,-0.3781469,0.04082525,-0.04474314,-0.854387,0.2025879,-0.4904949,19.62223,-22.58856,11.02674,1007.421
11.188385010,-0.005345158,0.09958826,0.07697141,-0.8558446,0.2045096,-0.4933814,20.00898,-22.58128,11.89268,1007.421
11.220664501,0.2417936,0.09936631,-0.04495611,-0.8592176,0.1991735,-0.4943714,20.00898,-22.58128,11.89268,1007.421
11.252944469,0.2407691,0.21679,0.01618693,-0.851961,0.1972535,-0.4958483,19.99765,-22.95143,11.46157,1007.421
11.287706852,-0.06910609,0.09913227,0.1382649,-0.8563108,0.198227,-0.4905156,19.27144,-22.57893,11.46799,1007.421
11.319985866,0.117388,0.04031985,0.01625913,-0.8510072,0.2035539,-0.4938807,19.27144,-22.57893,11.46799,1007.419
11.354748249,-0.06819345,0.04029004,-0.04477226,-0.8582619,0.2040155,-0.4943459,20.00832,-22.21676,11.88807,1007.419
11.387028217,0.241214,-0.07720613,0.0161981,-0.8563336,0.205463,-0.4972425,18.88535,-22.95073,10.60666,1007.419
11.419307232,0.1170805,-0.01828069,0.01613219,-0.8543838,0.1991807,-0.4963155,18.88535,-22.95073,10.60666,1007.419
11.454070091,-0.00701151,0.04009705,0.01623353,-0.8514962,0.205485,-0.4948356,19.27078,-22.21442,11.46337,1007.419
11.486349583,-0.007177155,0.09858134,0.07710795,-0.8519664,0.199186,-0.4968041,19.64554,-22.21277,11.89358,1007.418
11.521112442,-0.007223178,-0.01818923,0.0162877,-0.8577639,0.198213,-0.4934131,19.64554,-22.21277,11.89358,1007.418
11.553391457,0.1163841,0.04042197,0.07739116,-0.8529357,0.2016176,-0.4924373,19.27078,-22.21442,11.46337,1007.416
11.588153839,-0.06973673,-0.07723451,-0.04469611,-0.8509996,0.2001648,-0.4943835,19.6462,-22.57729,11.8982,1007.416
11.620433807,0.2402208,-0.07668032,-0.166395,-0.8534192,0.2006385,-0.4953424,19.6462,-22.57729,11.8982,1007.418
11.652712822,0.05363163,-0.01744417,-0.2269251,-0.8553538,0.2011202,-0.4943687,19.6462,-22.57729,11.8982,1007.418
11.687475681,-0.1330107,-0.01714669,-0.04389062,-0.8534138,0.2001726,-0.4900273,18.908,-22.21043,11.46889,1007.418
11.719755173,-0.008773867,-0.01735287,0.01690419,-0.851974,0.2025751,-0.4963014,18.908,-22.21043,11.46889,1007.417
11.754518032,0.05343269,-0.2519774,0.01684908,-0.857772,0.2006228,-0.4963,19.63421,-22.58292,11.46247,1007.417
11.786797047,-0.008292284,0.1586618,0.07758737,-0.8553522,0.2006379,-0.4938879,19.99699,-22.58691,11.45695,1007.417
11.821559429,-0.008100759,0.158297,-0.04455823,-0.8534244,0.2015949,-0.4987211,19.99699,-22.58691,11.45695,1007.418
11.853839397,0.1158599,-0.01794083,0.07758118,-0.856799,0.1996725,-0.4919566,18.90866,-22.57494,11.4735,1007.418
11.886118412,-0.07045553,-0.01803383,0.01653454,-0.8543917,0.2030571,-0.4948432,19.27144,-22.57893,11.46799,1007.418
11.920881748,-0.00861967,0.04036144,0.07753654,-0.8534221,0.2001382,-0.5001797,19.27144,-22.57893,11.46799,1007.418
11.953160763,-0.008701053,-0.01867154,0.07764085,-0.8553648,0.2059612,-0.4938576,19.99699,-22.58691,11.45695,1007.417
11.987923145,-0.008973662,0.09842944,-0.04450491,-0.8509977,0.1987065,-0.4963255,19.28342,-22.5733,11.90371,1007.417
12.020203114,-0.00848997,-0.07789597,-0.1056654,-0.8505296,0.2035308,-0.5011335,19.28342,-22.5733,11.90371,1007.417
12.054965496,-0.1319723,0.03935463,-0.1666771,-0.8582659,0.2039991,-0.4991804,19.63488,-22.94744,11.46709,1007.417
12.087244988,0.2395909,0.03889963,0.1990349,-0.8568224,0.207394,-0.4981973,20.00832,-22.21676,11.88807,1007.421
12.119524479,0.05306292,0.03907267,-0.1055818,-0.8543956,0.2030407,-0.4996776,20.00832,-22.21676,11.88807,1007.421
12.154287338,-0.008813109,0.03926908,0.0164573,-0.8529273,0.1972541,-0.4948793,19.62223,-22.58856,11.02674,1007.422
12.186566353,0.1150729,0.09790362,0.01642835,-0.860684,0.2039906,-0.4996587,19.2721,-22.94345,11.4726,1007.421
12.221328735,-0.009049024,-0.07870814,0.01624167,-0.8563305,0.2040096,-0.4977342,20.00898,-22.58128,11.89268,1007.421
12.253608703,-0.1329011,-0.02007119,0.1989593,-0.8529403,0.2020868,-0.4967855,20.00898,-22.58128,11.89268,1007.419
12.288371086,0.05301982,0.03824119,0.198965,-0.8553668,0.205953,-0.4962749,19.2721,-22.94345,11.4726,1007.419
12.320650577,0.1143691,-0.1378022,-0.1666111,-0.8490532,0.1948455,-0.4949014,19.99699,-22.58691,11.45695,1007.421
12.352930069,0.1759542,0.2730715,0.1384468,-0.8563259,0.2025627,-0.4962921,19.99699,-22.58691,11.45695,1007.419
12.387692451,0.2374472,0.2726642,-0.04421868,-0.8514821,0.1991906,-0.4958383,19.63488,-22.94744,11.46709,1007.419
12.419971943,-0.1344099,0.09629109,-0.2270325,-0.8568014,0.198685,-0.4977635,19.63289,-21.85389,11.45324,1007.419
12.454734325,-0.195502,0.2134027,0.07767386,-0.8519782,0.2035348,-0.4987131,19.63289,-21.85389,11.45324,1007.419
12.487014294,-0.1330426,-0.314614,0.01653138,-0.8544027,0.2088757,-0.491426,19.28475,-23.30233,11.91294,1007.417
12.519293308,0.2385446,-0.1969202,0.01684619,-0.8563274,0.2045115,-0.4924135,19.2821,-21.84426,11.89448,1007.423
12.554055691,0.1138421,0.2139985,0.07744531,-0.855837,0.199654,-0.4982435,19.2821,-21.84426,11.89448,1007.423
12.586335659,-0.3196601,0.0963468,-0.04459883,-0.8543941,0.2025584,-0.4991969,19.62157,-22.22404,11.02213,1007.423
12.621098041,-0.1327249,0.1548291,-0.1055539,-0.8563282,0.2035305,-0.4962866,19.63421,-22.58292,11.46247,1007.421
12.653378010,0.3010288,-0.08026318,-0.04446955,-0.8539177,0.2059506,-0.4982118,19.63421,-22.58292,11.46247,1007.421
12.688140392,0.4236157,-0.02170511,-0.1051577,-0.8582465,0.1947946,-0.5021334,20.00898,-22.58128,11.89268,1007.423
12.720419884,0.05049453,-0.02152433,0.1388426,-0.8543975,0.2035213,-0.5006417,19.2721,-22.94345,11.4726,1007.421
12.752699375,-0.3207948,-0.07995534,-0.04410603,-0.8534234,0.2035536,-0.4919418,19.2721,-22.94345,11.4726,1007.421
12.787462234,-0.3196199,0.03728579,0.01660776,-0.8553584,0.2025671,-0.4958107,19.6462,-22.57729,11.8982,1007.421
12.819741249,0.1144293,-0.08047418,0.1384979,-0.8534308,0.2045001,-0.4982211,19.29541,-22.56766,12.33944,1007.421
12.854503632,0.1756869,0.1541565,-0.04426339,-0.8597077,0.2015884,-0.4953235,19.29541,-22.56766,12.33944,1007.421
12.886783600,0.05119821,0.09502801,0.1386435,-0.856806,0.2015984,-0.4948463,19.63421,-22.58292,11.46247,1007.421
12.921545982,-0.1346559,-0.2570716,0.01680307,-0.8539087,0.2011014,-0.5011401,18.90998,-23.30398,11.48273,1007.421
12.953824997,-0.1341653,0.1542326,0.1386924,-0.8553526,0.2006363,-0.4943714,18.90998,-23.30398,11.48273,1007.423
12.986104965,0.0519716,0.153751,-0.1052918,-0.8558527,0.2054529,-0.5006276,18.92197,-23.29834,11.91846,1007.423
13.020867348,-0.07218416,0.03618637,-0.04427123,-0.8563258,0.2035404,-0.4933859,18.55787,-22.56532,11.91474,1007.427
13.053146839,-0.07188983,-0.3742726,-0.2268554,-0.8558369,0.2016093,-0.492431,18.55787,-22.56532,11.91474,1007.427
13.087909699,0.5472674,-0.1973689,-0.04317145,-0.8558341,0.1972228,-0.5016413,19.6462,-22.57729,11.8982,1007.427
13.120189190,0.111455,-0.02102642,-0.0431484,-0.8529465,0.2045048,-0.4972552,19.99699,-22.58691,11.45695,1007.425
13.154951572,-0.2598263,-0.07934237,0.1395572,-0.8572953,0.2040166,-0.4948314,19.28408,-22.93781,11.90833,1007.424
13.187231540,-0.2585536,0.09638979,0.2608503,-0.8548787,0.2040186,-0.496287,19.28408,-22.93781,11.90833,1007.422
13.219510555,0.05201866,-0.02111395,-0.04403728,-0.8572941,0.2030438,-0.4962873,20.00898,-22.58128,11.89268,1007.422
13.254272938,0.547482,0.09599765,-0.2266661,-0.8592231,0.2030596,-0.4899984,18.90866,-22.57494,11.4735,1007.422
13.286552906,0.2977445,0.1540512,-0.1653556,-0.853414,0.1977284,-0.4972927,18.90866,-22.57494,11.4735,1007.42
13.321315288,-0.1987096,-0.1392548,-0.165337,-0.8534229,0.200135,-0.5011466,19.65686,-21.84262,12.32469,1007.418
13.353594780,-0.3833929,-0.08015024,0.07829684,-0.854387,0.202099,-0.491948,19.63421,-22.58292,11.46247,1007.418
13.388357162,0.05132773,0.09562865,0.07795326,-0.8563285,0.2035289,-0.49677,19.63421,-22.58292,11.46247,1007.417
13.420637131,0.05113769,-0.0806668,0.07780771,-0.8568175,0.2049711,-0.499178,19.26011,-22.94908,11.03687,1007.417
13.452916145,0.112728,-0.02226117,-0.0441234,-0.8529439,0.2020721,-0.5011366,18.54787,-23.6645,11.49286,1007.417
13.487678528,-0.01124774,-0.02201638,-0.1660407,-0.8500382,0.203076,-0.4929186,18.54787,-23.6645,11.49286,1007.417
13.519958496,0.05073269,0.03640766,0.07774901,-0.8519728,0.2030689,-0.493398,19.64488,-21.84826,11.88897,1007.419
13.554720878,-0.1342834,-0.1985811,-0.04393815,-0.8587513,0.2005693,-0.5112848,19.2721,-22.94345,11.4726,1007.419
13.587000847,-0.813035,-0.3148829,-0.7128638,-0.8548914,0.2122733,-0.4880216,19.2721,-22.94345,11.4726,1007.417
13.619279861,0.8617003,0.4480264,-0.6490172,-0.8553529,0.20259,-0.4890425,20.00832,-22.21676,11.88807,1007.417
13.654042244,0.9811458,0.211562,-0.4039728,-0.8534263,0.2010979,-0.5025914,20.00898,-22.58128,11.89268,1007.417
13.686322212,-0.1981365,-0.1999434,-0.220001,-0.8539095,0.2006093,-0.5035599,20.00898,-22.58128,11.89268,1007.417
13.721084595,-0.5684477,-0.08151288,-0.03669107,-0.8539111,0.2050007,-0.4928993,19.64554,-22.21277,11.89358,1007.416
13.753364086,0.5469841,-0.0221647,0.08514872,-0.853912,0.2035309,-0.4982256,19.28276,-22.20878,11.8991,1007.416
13.788126469,0.04951368,-0.1979733,0.02391078,-0.8568159,0.2049777,-0.4972442,19.28276,-22.20878,11.8991,1007.416
13.820406437,-0.1362784,-0.08027629,-0.2196818,-0.8577754,0.2025635,-0.4948387,19.2721,-22.94345,11.4726,1007.419
13.852685451,-0.01214495,-0.139094,-0.2189201,-0.8558341,0.1977117,-0.5001883,19.27144,-22.57893,11.46799,1007.419
13.887447834,0.1110978,-0.1978116,-0.3397452,-0.852961,0.2098198,-0.4996422,19.27144,-22.57893,11.46799,1007.418
13.919727802,0.2961577,-0.13845,-0.3990905,-0.8558347,0.1991749,-0.4967959,19.27144,-22.57893,11.46799,1007.416
13.954490185,0.4797871,0.03758473,-0.3361685,-0.8490632,0.197736,-0.4987524,18.55919,-23.29435,11.92398,1007.416
13.986769676,0.1067669,-0.0209214,-0.1526453,-0.853408,0.1943327,-0.4997293,18.55919,-23.29435,11.92398,1007.416
14.021532536,-0.4505896,-0.02051679,-0.03097318,-0.8529342,0.2001576,-0.4948628,19.64554,-22.21277,11.89358,1007.414
14.053812027,-0.2011884,0.1560065,0.3335164,-0.8534281,0.2035339,-0.4977431,19.63355,-22.21841,11.45785,1007.413
14.086091518,-0.4474466,-0.01983567,0.3928489,-0.8543878,0.2020958,-0.4929148,20.00964,-22.94579,11.8973,1007.411
14.120854378,-0.2602616,-0.01984019,0.4520078,-0.8553531,0.2006347,-0.4948549,20.00964,-22.94579,11.8973,1007.411
14.153133392,0.3589805,-0.3713866,0.7544673,-0.8519669,0.1982067,-0.5001938,19.25879,-22.22005,11.02764,1007.411
14.187895775,-0.3848208,-0.428257,0.8731516,-0.8534109,0.1972527,-0.4948783,19.63355,-22.21841,11.45785,1007.415
14.220175743,-1.187295,0.3938727,0.6874395,-0.8558381,0.2016044,-0.4938814,19.63355,-22.21841,11.45785,1007.415
14.254938125,-0.6865478,0.9774954,-0.04520303,-0.8524711,0.2103363,-0.490455,19.63223,-21.48938,11.44862,1007.415
14.287217140,1.049043,0.505049,-0.7747011,-0.852483,0.2102871,-0.5049584,20.00898,-22.58128,11.89268,1007.415
14.319497108,1.910279,-0.3754887,-0.7106211,-0.8539163,0.2035129,-0.5035434,20.00898,-22.58128,11.89268,1007.415
14.354259491,1.158755,-0.6664708,-0.4032959,-0.8514754,0.1948206,-0.5002141,19.64752,-23.30632,11.90743,1007.413
14.386539459,-0.454619,-0.3118505,0.0850134,-0.8606426,0.1885245,-0.4939454,20.34778,-22.59653,11.01571,1007.413
14.421301842,-1.256415,0.6845374,0.0240246,-0.8601956,0.2005914,-0.5035465,20.34778,-22.59653,11.01571,1007.412
14.453581333,-1.558712,-0.7248538,-0.2798018,-0.8495856,0.210279,-0.509799,19.2721,-22.94345,11.4726,1007.412
14.488343716,0.6120541,-0.1927769,0.5726843,-0.8601738,0.202148,-0.4725977,19.27078,-22.21442,11.46337,1007.412
14.520623684,1.906825,0.5693213,1.178743,-0.8611305,0.1885051,-0.4992623,19.27078,-22.21442,11.46337,1007.41
14.552902698,-1.99889,0.5661902,0.504222,-0.8476313,0.2015722,-0.5103362,19.28276,-22.20878,11.8991,1007.414
14.587665081,-2.615591,-0.1977493,-0.7758024,-0.8587655,0.2102839,-0.5005938,19.6462,-22.57729,11.8982,1007.414
14.619945049,0.6690136,-0.4912632,-1.019565,-0.8544145,0.2132245,-0.493335,19.6462,-22.57729,11.8982,1007.414
14.654707432,2.838092,0.2131702,-0.7148618,-0.8558341,0.2011319,-0.4905001,19.63421,-22.58292,11.46247,1007.414
14.686986923,1.908487,0.5066841,0.1992488,-0.8591929,0.18657,-0.5007278,19.27144,-22.57893,11.46799,1007.414
14.719266415,-1.314143,0.4479813,0.3211302,-0.8553352,0.1924013,-0.4968354,19.27144,-22.57893,11.46799,1007.412
14.754029274,-2.677564,-0.02164094,0.0773674,-0.8548753,0.202078,-0.4977483,19.63488,-22.94744,11.46709,1007.415
14.786308765,-0.5704596,-0.3738576,0.2601895,-0.8573096,0.2117759,-0.489953,19.29541,-22.56766,12.33944,1007.415
14.821071148,0.4830927,-0.1977493,0.0773674,-0.8577613,0.1957803,-0.4972945,19.29541,-22.56766,12.33944,1007.415
14.853350639,0.1732244,-0.1977493,0.1383081,-0.8529308,0.198217,-0.4963242,19.27078,-22.21442,11.46337,1007.417
14.888113022,-0.5084859,-0.1390465,0.01642669,-0.8519782,0.2040236,-0.49726,19.25945,-22.58457,11.03226,1007.417
14.920392990,-0.1366439,-0.4325604,-0.04451402,-0.8529419,0.2020802,-0.4987193,19.25945,-22.58457,11.03226,1007.415
14.952672005,-0.3225649,-0.1977493,0.1383081,-0.856325,0.2030548,-0.4938721,19.28276,-22.20878,11.8991,1007.415
14.987435341,-0.1986176,0.03706183,-0.2273361,-0.8553581,0.2020799,-0.4967804,18.91999,-22.20479,11.90461,1007.415
15.019714355,0.1732244,0.3305757,-0.04451402,-0.8553594,0.2045175,-0.4914487,20.00766,-21.85224,11.88345,1007.413
15.054476738,0.2971717,-0.02164094,0.0773674,-0.8544045,0.2054472,-0.5035314,20.00766,-21.85224,11.88345,1007.413
15.086756706,-0.2605913,0.2718729,-0.1054547,-0.8500245,0.1962912,-0.4958579,18.92131,-22.93383,11.91384,1007.413
15.121519089,-0.07467029,-0.1390465,-0.1663954,-0.8626128,0.2025415,-0.4972456,19.64554,-22.21277,11.89358,1007.411
15.153798580,0.2971717,0.03706183,-0.4101582,-0.8510121,0.2020678,-0.5040414,19.64554,-22.21277,11.89358,1007.411
15.186078071,0.3591453,-0.08034372,-0.1054547,-0.8548812,0.2025423,-0.5035469,19.64554,-22.21277,11.89358,1007.415
15.220840931,-0.1986176,-0.2564521,0.0773674,-0.851488,0.203564,-0.4904956,19.6462,-22.57729,11.8982,1007.415
15.253119945,-0.9423016,0.1544674,0.01642669,-0.854872,0.2030688,-0.4909745,19.6462,-22.57729,11.8982,1007.414
15.287883282,-0.1366439,0.1544674,-0.1663954,-0.8553708,0.2054477,-0.5025625,19.64554,-22.21277,11.89358,1007.414
15.320162296,0.421119,-0.2564521,-0.1054547,-0.8558412,0.2011025,-0.4992021,19.2721,-22.94345,11.4726,1007.414
15.354924679,0.5450663,-0.1390465,-0.2882769,-0.8582604,0.2030444,-0.4953183,19.2721,-22.94345,11.4726,1007.414
15.387204647,0.3591453,-0.1390465,-0.3492176,-0.8539007,0.2011342,-0.4914711,19.63421,-22.58292,11.46247,1007.41
15.419483662,-0.01269663,0.1544674,-0.04451402,-0.8539002,0.1991821,-0.4963166,19.27276,-23.30796,11.47722,1007.409
15.454246044,-0.3845386,0.1544674,0.2601895,-0.856797,0.1996807,-0.4895394,19.27276,-23.30796,11.47722,1007.413
15.486526012,-0.07467029,0.1544674,0.01642669,-0.8505208,0.2006354,-0.4987328,20.00964,-22.94579,11.8973,1007.411
15.521288395,0.1112507,-0.4325604,0.01642669,-0.8495641,0.2040158,-0.5016162,19.28342,-22.5733,11.90371,1007.411
15.553567886,0.4830927,-0.4912632,-0.1663954,-0.8606747,0.2015857,-0.4953214,19.28342,-22.5733,11.90371,1007.411
15.588330746,0.2971717,-0.1977493,0.0773674,-0.8529279,0.199695,-0.4885808,19.28276,-22.20878,11.8991,1007.409
15.620610237,-0.6944069,-0.02164094,0.01642669,-0.853905,0.2025827,-0.4924297,19.26078,-23.3136,11.04149,1007.409
15.652889728,0.1112507,0.2718729,0.01642669,-0.8539109,0.2025581,-0.4996814,19.26078,-23.3136,11.04149,1007.409
15.687652588,0.04927703,0.03706183,-0.1054547,-0.8568135,0.2049875,-0.4943435,19.6462,-22.57729,11.8982,1007.409
15.719931602,0.5450663,-0.2564521,-0.1663954,-0.8548802,0.2049898,-0.4953145,19.28342,-22.5733,11.90371,1007.409
15.754693985,0.4830927,-0.4912632,0.1383081,-0.8592123,0.1952856,-0.4992279,19.28342,-22.5733,11.90371,1007.409
15.786973953,-0.01269663,-0.1390465,0.5039523,-0.8577543,0.1938544,-0.4944048,20.00898,-22.58128,11.89268,1007.409
15.819252968,-1.624012,0.2131702,0.7477152,-0.8582412,0.1962825,-0.4914893,19.99567,-21.85788,11.44772,1007.409
15.854016304,-1.438091,0.2131702,0.4430116,-0.8548819,0.2079146,-0.4890133,19.99567,-21.85788,11.44772,1007.409
15.886295319,0.04927703,0.4479813,-0.2273361,-0.8572939,0.2054881,-0.4890218,19.28342,-22.5733,11.90371,1007.409
15.921058178,1.28875,0.3305757,-0.6539211,-0.8597195,0.2059373,-0.4972325,19.2721,-22.94345,11.4726,1007.409
15.953337669,1.102829,1.093712,-1.202387,-0.8611438,0.1992007,-0.4846984,18.92065,-22.56931,11.90923,1007.407
15.988100529,2.528224,0.5653868,-1.263328,-0.8587396,0.203061,-0.4899994,18.92065,-22.56931,11.90923,1007.407
16.020379543,1.040856,-0.6673715,-1.750854,-0.9033334,0.2533099,-0.4755978,18.908,-22.21043,11.46889,1007.407
16.052659512,-0.3845386,-4.072133,-1.38521,-0.9036673,0.1908899,-0.4735349,19.27078,-22.21442,11.46337,1007.407
16.087421894,-3.731116,-13.34717,-1.44615,-0.9385464,0.2310859,-0.4350395,19.27078,-22.21442,11.46337,1007.413
16.119701862,1.908487,-14.34512,-0.6539211,-0.8727362,0.1918906,-0.4900328,20.00766,-21.85224,11.88345,1007.413
16.154464245,6.680459,-21.44816,-1.324269,-0.9771416,0.1932256,-0.4361385,19.2721,-22.94345,11.4726,1007.417
16.186743259,0.1732244,-15.51918,1.661826,-0.9025881,0.2074831,-0.2902196,19.2721,-22.94345,11.4726,1007.418
16.221505642,-1.438091,-18.74783,4.586979,-0.9647341,0.2629472,-0.4357688,19.60958,-22.22968,10.5864,1007.418
16.253785610,-4.908616,-25.32254,4.160395,-0.9395485,0.2514622,-0.418968,19.61091,-22.95871,10.59563,1007.422
16.286064625,-2.553617,-27.84676,5.074505,-0.9192427,0.2510183,-0.4243321,19.61091,-22.95871,10.59563,1007.425
16.320827961,-0.7563806,-29.96006,5.50109,-0.8902171,0.2452908,-0.4253941,20.31117,-22.24892,9.703916,1007.43
16.353106975,0.04927703,-28.55119,6.598023,-0.8447365,0.2411358,-0.4047279,20.28852,-22.98922,8.841694,1007.435
16.387869835,-0.3225649,-24.03108,8.426245,-0.8297571,0.2474878,-0.3994062,20.28852,-22.98922,8.841694,1007.435
16.420149326,-4.97059,-19.45226,9.462236,-0.824435,0.2470272,-0.3970031,19.54071,-22.99171,8.043518,1007.441
16.454912186,-9.680588,-19.21745,10.55917,-0.8645311,0.2363201,-0.3810241,20.62838,-22.63916,8.022356,1007.444
16.487191200,-11.91164,-19.15875,12.08269,-0.8910828,0.2198085,-0.3757429,20.62838,-22.63916,8.022356,1007.449
16.519471168,-5.962168,-18.92394,13.36244,-0.9312353,0.2279255,-0.3741599,19.89084,-22.63682,7.59766,1007.451
16.554233551,-4.536774,-20.2741,13.6062,-0.9375275,0.2405879,-0.345068,20.2303,-23.01659,6.725307,1007.451
16.586513519,-5.838221,-20.03929,15.86101,-0.930788,0.2629614,-0.3173993,20.2303,-23.01659,6.725307,1007.456
16.621275902,-12.65532,-21.97648,17.38453,-0.9254767,0.2741839,-0.2946254,19.4688,-23.02552,5.429157,1007.459
16.653554916,-16.86953,-23.62016,18.72522,-0.892086,0.2587494,-0.3078379,19.83157,-23.0295,5.423642,1007.469
16.688317776,-15.19624,-23.62016,20.06592,-0.9081054,0.2877657,-0.2999034,19.83157,-23.0295,5.423642,1007.474
16.720597267,-12.90322,-25.20513,20.30968,-0.8911709,0.2800384,-0.3096526,19.08403,-24.12634,4.577066,1007.474
16.752876759,-5.528353,-25.32254,19.51745,-0.8887742,0.2892433,-0.3086386,18.33688,-24.49335,3.783507,1007.479
16.787639618,-1.871906,-24.26589,18.29864,-0.8858902,0.3175225,-0.2485376,18.33688,-24.49335,3.783507,1007.484
16.819919109,1.28875,-21.68297,16.04383,-0.9217608,0.3488183,-0.2652027,18.31357,-24.86913,2.916669,1007.486
16.854681492,2.094408,-22.97443,12.87492,-0.9303313,0.2995015,-0.2451602,17.95146,-25.22966,2.9268,1007.487
16.886961460,2.342302,-18.92394,7.512134,-0.9273539,0.2563336,-0.2768356,17.57669,-25.23131,2.496589,1007.487
16.921723843,0.6690136,-12.87755,3.185343,-0.9525315,0.2834895,-0.2389187,17.57669,-25.23131,2.496589,1007.489
16.954002857,-3.235327,-4.776566,-0.5929803,-0.9198095,0.3557364,-0.2245587,17.57669,-25.23131,2.496589,1007.489
16.986282825,-18.10901,-0.8434799,-4.797889,-0.9067041,0.340342,-0.208721,17.21524,-25.95635,2.511336,1007.486
17.021045208,-26.3515,-1.606616,-11.31854,-0.8157157,0.3121091,-0.1916738,17.21524,-25.95635,2.511336,1007.486
17.053325176,-28.9544,-9.179275,-24.11609,-0.6273494,0.1813237,-0.2455183,17.56537,-25.60146,2.065478,1007.486
17.088087559,52.2311,-21.68297,22.1379,-0.3443583,1.045371,-0.5554504,17.54206,-25.97724,1.19864,1007.481
17.120366573,-95.57609,-1.371805,-8.941856,-1.410663,0.2774332,0.07530253,17.54206,-25.97724,1.19864,1007.473
17.152646541,-60.68491,6.494367,-40.87479,-0.7452639,-0.008277614,-0.1172641,17.90352,-25.2522,1.183893,1007.462
17.187408924,35.87006,-21.56556,-6.260466,-1.081737,0.15326,-0.1455936,18.59416,-24.91176,-0.07668757,1007.454
17.219688892,-1.128222,3.441823,-13.81711,-0.9346381,0.4501387,-0.3438828,18.59416,-24.91176,-0.07668757,1007.445
17.254451275,3.457828,-2.898077,-9.24656,-0.9576899,0.2802303,-0.05376908,18.5935,-24.54724,-0.08130336,1007.445
17.286730766,9.841115,0.6240896,-7.844924,-0.9380059,0.2909406,-0.1944313,18.60615,-24.90612,0.3590393,1007.439
17.321493149,1.102829,-2.193644,-6.869873,-0.9521509,0.3544098,-0.1601992,18.60615,-24.90612,0.3590393,1007.429
17.353773117,-3.917037,-2.545861,-7.601161,-0.9428164,0.2861432,-0.1780113,19.31906,-24.55522,-0.09233451,1007.42
17.386052132,-3.297301,-4.541755,-7.052695,-0.9274203,0.3215404,-0.1701082,19.32933,-24.55039,0.2811456,1007.41
17.420815468,-3.79309,-2.663266,-9.063738,-0.9505799,0.2972498,-0.1784148,19.32933,-24.55039,0.2811456,1007.41
17.453094482,-1.93388,-3.719916,-9.551264,-0.9621664,0.2977825,-0.1542149,19.3184,-24.1907,-0.09695029,1007.403
17.487856865,1.78454,-2.780672,-9.490323,-0.9519824,0.2818074,-0.1644799,20.04329,-23.83417,-0.1125972,1007.394
17.520136833,4.387433,0.6827924,-8.393391,-0.9495296,0.2712089,-0.1524595,20.04329,-23.83417,-0.1125972,1007.39
17.554899216,4.015591,1.739442,-6.016703,-0.9630018,0.2387076,-0.1642178,20.03196,-24.20432,-0.5437083,1007.385
17.587179184,0.9788819,2.73739,-4.85883,-0.9557863,0.2595848,-0.1500949,20.77845,-23.4728,0.2452359,1007.385
17.619458198,-2.677564,2.854795,-4.85883,-0.9707803,0.2717417,-0.1200202,20.77845,-23.4728,0.2452359,1007.376
17.654220581,-1.995854,1.035009,-2.725905,-0.9311848,0.2779791,-0.1693809,20.04263,-23.46965,-0.117213,1007.37
17.686500549,-3.173353,1.328523,-1.44615,-0.9601729,0.2618724,-0.1853634,20.4054,-23.47364,-0.1227286,1007.367
17.721262932,-7.325589,-2.95678,-2.604024,-0.9288265,0.2767626,-0.2448093,20.4054,-23.47364,-0.1227286,1007.358
17.753542423,-8.87493,-11.23387,-2.421201,-0.9395261,0.3145933,-0.2107304,21.15189,-22.74212,0.6662154,1007.358
17.788305283,-14.8244,-15.28436,-8.759034,-0.9332308,0.3249113,-0.1700765,20.02866,-22.38174,-0.5667875,1007.356
17.820584774,-3.979011,-18.33691,-11.50137,-0.9746702,0.2740848,-0.1393361,20.74421,-23.48889,-0.9996977,1007.352
17.852864265,-1.747959,-18.1021,-14.97499,-0.9916428,0.2997354,-0.124167,20.74421,-23.48889,-0.9996977,1007.347
17.887627125,-9.060851,-21.97648,-13.75617,-1.021504,0.245412,-0.1355307,20.71958,-23.13565,-1.875767,1007.344
17.919906139,-23.19085,-31.48633,-18.75331,-1.032633,0.2854195,-0.02988956,20.71891,-22.77113,-1.880383,1007.344
17.954669476,-53.80583,-46.10332,-28.62571,-0.9444612,0.2008427,-0.07213622,20.71891,-22.77113,-1.880383,1007.34
17.986948490,-33.72636,-28.60989,-23.44575,-0.8994836,0.1907416,-0.09211157,21.40785,-22.4315,-3.20321,1007.337
18.019228458,-34.65597,-16.1062,-19.24084,-0.9539599,0.1575481,0.01223986,22.38922,-21.37018,-4.851099,1007.333
18.053990841,-15.13427,-9.061869,-11.86701,-0.9742491,0.1473096,0.006907545,22.38922,-21.37018,-4.851099,1007.336
18.086269856,-9.494667,-4.01343,-6.930814,-0.978626,0.1506142,-0.0138521,22.37657,-21.0113,-5.291442,1007.332
18.121032715,-7.139668,0.2718729,-8.515271,-0.9555206,0.2103528,0.0304307,22.7267,-20.6564,-5.7373,1007.332
18.153312206,-3.669143,4.733284,-8.941856,-0.9965606,0.178237,0.01293275,22.7267,-20.6564,-5.7373,1007.33
18.188075065,-4.660721,5.90734,-9.673145,-1.002374,0.1752432,-0.008826487,23.4649,-21.02326,-5.307988,1007.329
18.220354557,-4.908616,6.846584,-9.916908,-0.9927182,0.1761863,-0.02431198,22.71538,-21.02655,-6.168411,1007.327
18.252634048,-4.288879,7.374909,-10.77008,-0.9956129,0.1747393,-0.02044646,22.71538,-21.02655,-6.168411,1007.327
18.287396431,-3.731116,8.372856,-11.56231,-0.9970462,0.1650336,-0.02726669,23.07683,-20.30151,-6.183158,1007.327
18.319676399,-2.615591,8.372856,-11.98889,-1.007164,0.1446337,-0.04089716,24.51662,-20.68762,-6.636332,1007.325
18.354438782,-1.376117,9.664317,-12.04983,-0.9955559,0.1476098,-0.02930273,24.51662,-20.68762,-6.636332,1007.324
18.386718750,-1.438091,10.42745,-12.84206,-0.9980239,0.1600998,-0.0543652,23.8004,-19.21594,-6.208037,1007.322
18.421481132,-1.004275,11.01448,-12.903,-1.009037,0.1096953,-0.06768092,24.17583,-19.57881,-5.77321,1007.322
18.453760147,0.421119,10.31005,-12.47642,-1.005148,0.1063729,-0.05175471,24.17583,-19.57881,-5.77321,1007.322
18.486040115,0.04927703,9.546912,-12.2936,-1.006639,0.117929,-0.06763927,24.18715,-19.20866,-5.342099,1007.326
18.520802498,0.3591453,8.783776,-11.68419,-1.029794,0.08828235,-0.08564517,24.56125,-18.8425,-4.916503,1007.326
18.553082466,-0.9423016,6.846584,-12.53736,-1.049124,0.07068114,-0.1224449,24.56125,-18.8425,-4.916503,1007.324
18.587844849,5.502959,0.1544674,-12.41548,-1.060616,0.004169565,-0.1759766,24.92336,-18.48197,-4.926635,1007.326
18.620123863,15.85256,-3.60251,-14.97499,-1.033919,-0.04126662,-0.1830606,24.92336,-18.48197,-4.926635,1007.326
18.654887199,38.47295,0.5066841,-12.47642,-1.02489,-0.1581526,-0.1247652,24.92336,-18.48197,-4.926635,1007.328
18.687166214,77.02056,-1.078291,-4.371304,-1.033642,-0.08751972,0.01972005,25.28614,-18.48596,-4.93215,1007.335
18.719446182,84.51937,-1.019588,-12.2936,-0.939511,0.2003539,0.06514692,26.04357,-18.11413,-3.76511,1007.338
18.754208565,8.72559,-8.650949,-18.26579,-0.8599158,0.5134747,0.14749,25.70542,-18.46339,-2.883525,1007.34
18.786488056,-71.15846,0.2718729,-11.86701,-0.7537751,0.1346511,-0.05938726,25.70542,-18.46339,-2.883525,1007.34
18.821250915,-49.52965,-3.308997,-5.102592,-0.7884215,0.03458545,-0.1415827,25.69211,-17.73999,-3.328484,1007.342
18.853530407,3.209934,14.12573,2.636877,-1.137992,0.1920063,-0.2313041,26.04092,-16.65606,-3.783573,1007.344
18.888292789,-28.45861,13.48,-1.080506,-1.297552,-0.3140412,0.08668227,26.04092,-16.65606,-3.783573,1007.349
18.920572758,8.663615,-4.952674,14.52032,-1.035724,-0.1409132,-0.312218,27.11964,-17.03738,-4.168984,1007.35
18.952851772,-0.3845386,-0.1977493,11.59516,-1.015461,0.1750781,-0.04650744,26.03131,-17.02541,-4.152438,1007.356
18.987614155,-2.553617,-0.7260743,6.719904,-0.9622763,0.2108796,0.04881892,26.03131,-17.02541,-4.152438,1007.356
19.019894123,-0.1986176,0.7414952,3.429106,-1.018077,0.03502278,-0.1038605,26.03131,-17.02541,-4.152438,1007.359
19.054656506,1.28875,1.152415,8.670008,-0.9990627,-0.02926778,-0.09894918,26.03263,-17.75444,-4.143206,1007.359
19.086936474,4.201512,1.622037,11.16858,-0.9963927,0.07582344,-0.07756954,26.03263,-17.75444,-4.143206,1007.367
19.121698856,4.635328,1.563334,7.877778,-1.026503,0.1372589,-0.05878465,25.67946,-17.38111,-3.768826,1007.368
19.153978824,2.962039,0.2718729,4.282276,-0.9964423,0.08343689,-0.1157178,25.31735,-17.74164,-3.758695,1007.368
19.186257839,2.900065,-0.9608853,6.476141,-1.009912,0.06169675,-0.0935742,25.31735,-17.74164,-3.758695,1007.37
19.221020222,2.46625,-1.136994,7.877778,-1.01236,0.07671292,-0.08719883,25.33,-18.10052,-3.318352,1007.37
19.253300190,3.705723,-2.369752,6.719904,-1.002797,0.1232059,-0.0845379,24.94562,-18.47151,-4.117428,1007.37
19.288062572,2.590197,-2.604563,5.135446,-1.002251,0.1009875,-0.07257944,24.94562,-18.47151,-4.117428,1007.37
19.320342064,3.82967,-3.074185,4.708861,-1.029327,0.09554431,-0.08512145,24.94629,-18.83603,-4.112812,1007.37
19.352621555,3.333881,-4.248241,4.343217,-1.004708,0.1213416,-0.06182276,24.58285,-18.46752,-4.111912,1007.376
19.387384415,2.900065,-4.600458,3.550987,-0.9955022,0.1102048,-0.0715747,24.58285,-18.46752,-4.111912,1007.378
19.419663906,2.714144,-2.780672,1.661826,-1.003692,0.1039557,-0.05225503,24.94562,-18.47151,-4.117428,1007.379
19.454426765,1.78454,-1.958833,2.149351,-0.9872849,0.1121706,-0.06964748,25.30906,-18.84001,-4.118327,1007.379
19.486706257,0.9169083,-0.08034372,2.149351,-0.9993123,0.09284274,-0.05087734,25.30906,-18.84001,-4.118327,1007.379
19.521469116,0.421119,0.9176035,2.636877,-1.001284,0.1024552,-0.06870567,24.58351,-18.83204,-4.107296,1007.381
19.553748131,-0.07467029,0.9176035,2.514996,-0.9969634,0.115532,-0.06912407,24.59444,-19.19172,-3.7292,1007.381
19.586028099,0.3591453,1.563334,2.454055,-1.004688,0.113607,-0.05944959,24.59444,-19.19172,-3.7292,1007.381
19.620790481,0.04927703,1.035009,2.271233,-1.007605,0.1140204,-0.07781162,24.94695,-19.20054,-4.108196,1007.383
19.653070450,-0.3225649,1.035009,1.966529,-1.003729,0.112596,-0.07299369,23.85795,-18.82406,-4.096265,1007.383
19.687832832,-0.2605913,0.1544674,1.479004,-0.9989125,0.116442,-0.08458474,24.22139,-19.19256,-4.097165,1007.383
19.720111847,-0.8803279,-0.4912632,1.235241,-0.9979392,0.1198912,-0.06716342,24.22139,-19.19256,-4.097165,1007.385
19.754874229,-0.6944069,-0.02164094,0.8695966,-0.9969807,0.1213244,-0.07344204,24.22073,-18.82805,-4.101781,1007.386
19.787154198,-0.8803279,0.5653868,0.4430116,-1.008555,0.1116455,-0.06380336,24.22205,-19.55708,-4.092549,1007.389
19.819434166,0.421119,-0.3738576,0.0773674,-0.9979455,0.115467,-0.08749299,24.22205,-19.55708,-4.092549,1007.39
19.854196548,-0.6324332,-1.078291,0.6867745,-1.006624,0.1052862,-0.08559842,24.59378,-18.82721,-3.733816,1007.39
19.886476040,-0.5084859,-1.665319,0.6867745,-1.002284,0.1140454,-0.07492232,24.93667,-19.20537,-4.481676,1007.39
19.921238899,-0.4465123,-1.841427,0.2601895,-0.9964809,0.1130859,-0.07735747,24.93667,-19.20537,-4.481676,1007.392
19.953517914,-0.8803279,-2.134941,0.8086559,-1.002742,0.1073067,-0.06384055,24.21046,-18.83288,-4.475261,1007.392
19.988280773,0.1112507,-2.428455,0.6867745,-0.9931126,0.1223116,-0.07102757,24.94695,-19.20054,-4.108196,1007.394
20.020560265,0.1732244,-3.367699,0.3211302,-1.002281,0.1169866,-0.06378651,24.94695,-19.20054,-4.108196,1007.394
20.052839756,0.6690136,-3.074185,1.722766,-1.001774,0.1073127,-0.06287573,24.58417,-19.19655,-4.102681,1007.396
20.087602615,2.714144,-2.663266,1.966529,-1.011463,0.1111205,-0.07346885,23.85861,-19.18858,-4.09165,1007.394
20.119882107,1.722566,-2.663266,3.002521,-1.011954,0.1213504,-0.05310519,23.85861,-19.18858,-4.09165,1007.396
20.154644489,2.590197,-3.485105,1.966529,-0.9989223,0.1276411,-0.06421661,24.22073,-18.82805,-4.101781,1007.396
20.186924457,1.164803,-3.426402,2.575936,-1.001293,0.1121927,-0.05124649,23.84834,-19.19341,-4.46513,1007.396
20.221686840,2.032434,-4.659161,2.393114,-0.9984853,0.1469964,-0.06507438,23.84834,-19.19341,-4.46513,1007.398
20.253966808,-1.128222,-3.60251,2.332173,-1.001777,0.1165844,-0.04010138,23.849,-19.55792,-4.460514,1007.4
20.286245823,0.4830927,-3.543808,2.697818,-0.9989359,0.1398016,-0.04577676,24.21244,-19.92642,-4.461413,1007.4
20.321008205,-0.1986176,-1.547913,2.149351,-1.006598,0.1161439,-0.02317314,24.21244,-19.92642,-4.461413,1007.398
20.353288174,0.2971717,-0.8434799,2.758758,-0.9868423,0.1374132,-0.04678328,23.48689,-19.91845,-4.450382,1007.398
20.388050556,-0.2605913,0.7414952,2.88064,-1.000811,0.1190297,-0.03332142,23.48623,-19.55393,-4.454998,1007.398
20.420330524,-0.8803279,0.7414952,3.246284,-1.000854,0.1286215,-0.05888904,23.48623,-19.55393,-4.454998,1007.402
20.452609539,-2.429669,-0.6086687,3.246284,-1.013427,0.13445,-0.04190845,23.48623,-19.55393,-4.454998,1007.402
20.487372875,-0.3845386,-2.428455,2.271233,-1.005255,0.1499084,-0.05682477,23.85928,-19.55309,-4.087034,1007.404
20.519651890,0.5450663,-4.893972,0.5648931,-0.9980267,0.1459169,-0.09843877,23.85928,-19.55309,-4.087034,1007.405
20.554414749,-1.128222,-8.944463,-0.2273361,-1.00036,0.1296464,-0.04244736,23.48623,-19.55393,-4.454998,1007.405
20.586694240,-2.243748,-11.52739,0.991478,-0.9955316,0.1359824,-0.0332364,24.21244,-19.92642,-4.461413,1007.407
20.621457100,-3.917037,-10.76425,1.722766,-1.011408,0.1040172,-0.02758268,23.83702,-19.56355,-4.896241,1007.409
20.653736591,-1.685985,-12.11441,1.296181,-1.017367,0.1732335,-0.01799094,23.83702,-19.56355,-4.896241,1007.416
20.686016083,-2.119801,-11.40998,0.1383081,-0.9911679,0.1399531,-0.007600981,24.19913,-19.20303,-4.906372,1007.418
20.720778465,-1.500064,-9.061869,2.454055,-1.007492,0.09982847,0.01831175,23.81305,-19.57482,-5.767694,1007.418
20.753058433,0.60704,-6.713758,3.002521,-1.004307,0.1752425,-0.00737201,23.81305,-19.57482,-5.767694,1007.423
20.787820816,2.652171,-6.420244,1.600885,-0.980028,0.1371288,0.006378674,23.81371,-19.93934,-5.763078,1007.422
20.820100784,5.317038,-3.954727,1.783707,-0.9823796,0.1105189,0.01009995,24.18781,-19.57318,-5.337483,1007.43
20.854863167,5.19309,-1.958833,2.271233,-0.9752025,0.1444311,0.01511169,24.18781,-19.57318,-5.337483,1007.433
20.887142658,3.519802,-1.430508,4.343217,-0.9940315,0.1220198,-0.01349804,23.4516,-20.29987,-5.752947,1007.433
20.919422150,1.474671,-1.724021,5.927675,-0.9926111,0.1385135,-0.002771668,23.43895,-19.94098,-6.19329,1007.438
20.954184532,0.2971717,-1.313102,5.318268,-0.996473,0.144882,0.02337855,23.43895,-19.94098,-6.19329,1007.444
20.986464500,-0.5084859,-1.078291,4.830742,-0.9931794,0.1689472,-0.01806744,24.17781,-20.67236,-5.759362,1007.449
21.021226883,-2.863485,-2.428455,4.526039,-1.014851,0.1413961,0.00986206,23.4516,-20.29987,-5.752947,1007.455
21.053506851,-3.297301,-0.2564521,6.415201,-1.012962,0.1734654,0.04678167,23.4516,-20.29987,-5.752947,1007.455
21.088269234,-0.1366439,2.854795,5.50109,-0.99124,0.1841233,0.03180886,23.06617,-21.03618,-6.609653,1007.461
21.120548248,1.598619,4.146256,5.440149,-0.9864355,0.1874296,0.003777858,22.71472,-20.66204,-6.173027,1007.464
21.152828216,-0.1986176,5.90734,5.866735,-1.005699,0.1471394,-0.01671414,22.71472,-20.66204,-6.173027,1007.472
21.187590599,4.201512,7.903234,8.670008,-0.9811022,0.1787079,-0.004018247,23.07815,-21.03054,-6.173926,1007.475
21.219870567,4.883222,9.664317,8.97471,-1.001913,0.1878578,0.0004295791,22.72736,-21.02092,-5.732684,1007.475
21.254632950,9.903089,12.07113,8.852829,-0.9743724,0.1932221,-0.01071837,22.72736,-21.02092,-5.732684,1007.478
21.286912918,12.01019,15.24108,8.852829,-0.9797003,0.1902379,-0.0300614,22.75133,-21.00965,-4.861231,1007.484
21.321675300,13.55954,17.29568,9.827881,-0.9694349,0.1394167,-0.04149158,22.38922,-21.37018,-4.851099,1007.484
21.353954792,13.74546,20.11341,11.59516,-0.9893932,0.2028251,-0.02030016,22.38922,-21.37018,-4.851099,1007.484
21.386234283,10.64677,22.75504,11.77798,-1.011167,0.2119887,-0.0110158,22.04936,-21.72024,-4.031761,1007.482
21.420997143,12.07217,20.17211,10.98575,-0.9793548,0.2312044,-0.0796234,21.74639,-21.3524,-4.031781,1007.482
21.453276634,9.283352,20.93525,8.487185,-1.005944,0.2301753,-0.075221,21.74639,-21.3524,-4.031781,1007.481
21.488039493,8.167827,17.06087,6.476141,-0.9841946,0.2267747,-0.09752539,21.40653,-21.70247,-3.212442,1007.481
21.520318985,6.990327,15.06497,6.35426,-0.9886059,0.2480174,-0.1085142,21.80592,-22.05407,-1.906161,1007.478
21.552598476,6.432564,15.76941,6.537082,-0.9518816,0.2411771,-0.1589099,21.80592,-22.05407,-1.906161,1007.476
21.587360859,0.235198,14.12573,6.841785,-0.937853,0.2348885,-0.1700949,21.80725,-22.7831,-1.89693,1007.476
21.619640827,-6.272037,17.17827,8.609067,-1.00018,0.2310107,-0.1192216,21.8299,-22.0428,-1.034708,1007.476
21.654403210,-12.7173,17.7653,7.999659,-0.9788888,0.2208713,-0.1304442,21.84254,-22.40168,-0.5943651,1007.476
21.686683178,-13.21309,18.88065,10.13258,-0.976084,0.2566412,-0.14475,21.84254,-22.40168,-0.5943651,1007.478
21.721445560,-7.883352,19.52638,9.401296,-0.960089,0.2397411,-0.1472978,20.74289,-22.75986,-1.008929,1007.482
21.753725529,-5.528353,16.35643,9.035651,-0.9447037,0.2535916,-0.2144502,21.11699,-22.3937,-0.5833342,1007.482
21.786004543,-10.1144,11.89502,7.329311,-0.9501908,0.3149403,-0.242129,21.11699,-22.3937,-0.5833342,1007.489
21.820766926,-14.94835,13.94962,5.074505,-0.981913,0.2526057,-0.1882699,20.75553,-23.11874,-0.5685868,1007.496
21.853046894,-5.218484,7.081395,5.440149,-0.953047,0.3029026,-0.2218869,20.76818,-23.47762,-0.1282442,1007.504
21.887809277,-0.5084859,2.385173,2.02747,-0.9457593,0.2903608,-0.2161726,20.76818,-23.47762,-0.1282442,1007.515
21.920089245,6.246643,1.563334,2.758758,-0.909036,0.2942669,-0.2370174,20.04196,-23.10513,-0.121829,1007.515
21.954851627,2.528224,5.789934,2.149351,-0.9907013,0.3001205,-0.1541401,20.40474,-23.10912,-0.1273444,1007.525
21.987131596,-0.1366439,1.622037,2.454055,-0.9668986,0.257637,-0.1442807,20.40474,-23.10912,-0.1273444,1007.536
22.019410610,-2.243748,2.854795,4.526039,-0.9317247,0.2840968,-0.220106,19.67919,-23.10114,-0.1163135,1007.548
22.054172993,-6.643878,8.372856,3.855691,-0.9755861,0.2537701,-0.1355821,20.0313,-23.8398,-0.5483241,1007.56
22.086452961,-3.049406,3.676634,3.124403,-0.9255617,0.3241645,-0.2542156,20.0313,-23.8398,-0.5483241,1007.56
22.121215344,4.387433,3.441823,5.074505,-0.9669515,0.2671911,-0.1809676,20.40474,-23.10912,-0.1273444,1007.579
22.153495312,3.705723,3.030903,5.196387,-0.9728058,0.2816202,-0.2021443,20.05461,-23.46401,0.3185139,1007.591
22.188257694,-10.48625,2.032956,5.074505,-0.9821641,0.3439241,-0.2302927,20.05461,-23.46401,0.3185139,1007.605
22.220537185,-25.60782,7.903234,-2.908727,-0.9153767,0.2793625,-0.3458622,19.70211,-23.4552,0.6975093,1007.615
22.252816677,-13.15111,25.80758,-3.030609,-0.8675614,0.2387092,-0.5303865,20.05461,-23.46401,0.3185139,1007.622
22.287579536,22.60769,48.11464,1.600885,-0.8512689,0.2821231,-0.5852867,20.05461,-23.46401,0.3185139,1007.622
22.319859028,28.43321,56.09821,1.966529,-1.148817,0.4007894,-0.4452239,19.32972,-23.82055,0.3341608,1007.62
22.354621887,-1.562038,51.04977,1.235241,-1.11819,0.3649062,-0.3497731,20.11415,-24.16568,2.444133,1007.613
22.386901378,-16.18782,48.17334,4.221335,-0.9554045,0.2533007,-0.2912956,20.11415,-24.16568,2.444133,1007.6
22.421664238,-7.015721,45.35561,6.598023,-0.8787795,0.1557394,-0.2997504,20.13878,-24.51892,3.320202,1007.587
22.453943729,11.57638,43.77063,6.537082,-0.8004748,0.1734323,-0.2857988,19.8229,-24.85772,5.010994,1007.587
22.486223221,19.63295,40.30717,1.722766,-0.8093233,0.2431766,-0.2607279,19.8229,-24.85772,5.010994,1007.57
22.520985603,21.74006,35.78705,-2.238379,-0.7368625,0.2572607,-0.3072141,19.4974,-25.56586,6.332922,1007.553
22.553265571,18.33151,32.6758,-3.944719,-0.6789371,0.2931734,-0.3259888,19.54534,-25.54332,8.07583,1007.537
22.588027954,5.069143,29.56456,-5.041652,-0.7849663,0.354382,-0.3099422,19.19587,-26.26273,8.526303,1007.523
22.620307922,-6.8298,25.63147,-6.138585,-0.8221211,0.3316324,-0.2800183,19.19587,-26.26273,8.526303,1007.523
22.652586937,-5.838221,17.00216,-5.77294,-0.8631344,0.2737276,-0.3392387,19.57958,-25.52722,9.320764,1007.511
22.687350273,11.7623,7.257503,-3.822838,-0.8891984,0.251371,-0.3455943,19.22879,-25.5176,9.762005,1007.499
22.719629288,24.28098,-3.015483,-4.371304,-0.8611338,0.2564166,-0.3084013,19.22879,-25.5176,9.762005,1007.491
22.754391670,28.55716,-10.94036,-3.335312,-0.8230825,0.3189476,-0.3095781,19.60289,-25.15144,10.1876,1007.481
22.786671638,18.20756,-24.08978,-0.9586246,-0.8651687,0.3109355,-0.3535259,19.61554,-25.51032,10.62794,1007.481
22.821434021,14.24125,-25.73346,1.722766,-0.9009566,0.3015255,-0.3868595,19.61554,-25.51032,10.62794,1007.476
22.853713989,20.99637,-22.3287,4.343217,-0.8937411,0.2642517,-0.5393702,19.23879,-24.41842,10.18388,1007.469
22.885993004,187.9534,79.46193,29.63361,-1.060822,0.1874063,-1.655224,19.96435,-24.42639,10.17285,1007.462
22.920756340,85.387,-29.72525,8.426245,-0.7373462,0.09990767,-0.7586726,19.96435,-24.42639,10.17285,1007.459
22.953035355,45.84782,7.374909,10.19353,-0.7991102,0.4041735,-0.3134961,18.55853,-22.92984,11.91936,1007.459
22.987797737,2.342302,3.735337,5.562031,-0.8485569,0.2510965,-0.3181275,19.70243,-21.45637,14.00074,1007.461
23.020077705,-18.04703,1.035009,-7.601161,-0.9052414,0.06141267,-0.4090034,19.70243,-21.45637,14.00074,1007.458
23.054840088,-10.67217,-2.134941,-2.786846,-0.8884785,0.05883901,-0.611615,19.36296,-21.0766,14.87309,1007.453
23.087120056,-4.164932,-2.487158,3.79475,-0.8370007,0.1751838,-0.5951109,18.61542,-22.17344,14.02651,1007.453
23.119400024,-19.22453,4.43977,1.052419,-0.8076604,0.2645371,-0.5279516,18.61542,-22.17344,14.02651,1007.453
23.154162407,-29.32624,4.028851,-3.700956,-0.8263452,0.1899467,-0.5317194,18.96489,-21.45403,13.57604,1007.453
23.186441421,-29.69808,1.68074,-0.5320397,-0.84082,0.1797738,-0.5225608,18.60278,-21.81456,13.58617,1007.451
23.221204758,-22.57111,1.504631,0.6867745,-0.8733042,0.2296553,-0.4840155,18.60278,-21.81456,13.58617,1007.446
23.253483772,-19.90624,6.435664,-0.7148618,-0.8970656,0.2654687,-0.4629728,18.58184,-22.55405,12.7862,1007.444
23.288246631,-16.37374,8.079343,-0.7148618,-0.8698418,0.1992004,-0.477428,19.30806,-22.92654,12.77978,1007.441
23.320526123,-10.23835,-0.1977493,1.661826,-0.8689494,0.2169742,-0.5169708,19.30806,-22.92654,12.77978,1007.441
23.352806091,-6.148089,-3.719916,0.8086559,-0.814846,0.2408513,-0.514051,19.30739,-22.56203,12.77517,1007.441
23.387568474,-4.350853,-0.3151549,2.149351,-0.8612702,0.2411911,-0.5173331,18.93263,-22.56367,12.34495,1007.445
23.419847965,-1.809933,-0.6086687,0.9305373,-0.8331363,0.2108509,-0.4977453,18.93263,-22.56367,12.34495,1007.446
23.454610824,2.032434,-0.02164094,1.783707,-0.8022021,0.2055113,-0.5287824,18.19576,-22.92585,11.92488,1007.446
23.486890316,1.412698,0.2718729,2.332173,-0.8215982,0.232597,-0.5165006,18.93396,-23.29271,12.35419,1007.446
23.521652698,-3.421248,1.328523,0.5648931,-0.8902495,0.2402697,-0.4790843,18.55919,-23.29435,11.92398,1007.446
23.553932667,-6.519931,-1.195696,0.2601895,-0.8520194,0.2268207,-0.4816604,18.55919,-23.29435,11.92398,1007.446
23.586212158,-5.094537,-0.784777,0.6867745,-0.8337176,0.247095,-0.5120411,18.94594,-23.28707,12.78991,1007.446
23.620975017,-1.93388,0.6827924,0.6867745,-0.834705,0.2538492,-0.5173184,19.28607,-24.03136,11.92218,1007.445
23.653254509,-0.8803279,0.9176035,0.01642669,-0.8583388,0.2388813,-0.4873794,19.28607,-24.03136,11.92218,1007.445
23.688016891,-1.624012,-0.6086687,-0.1663954,-0.8593,0.2340163,-0.4941731,18.55985,-23.65887,11.92859,1007.445
23.720296383,-3.297301,-0.9608853,-0.6539211,-0.8336693,0.2292143,-0.5048913,19.27276,-23.30796,11.47722,1007.443
23.752576351,-2.863485,-1.48921,-0.7148618,-0.8288271,0.2253468,-0.5078244,19.27276,-23.30796,11.47722,1007.443
23.787338734,-1.685985,-0.1977493,-0.2882769,-0.8365758,0.2335826,-0.4985755,18.54853,-24.02902,11.49748,1007.441
23.819618702,-1.562038,0.03706183,0.1383081,-0.8477091,0.2393661,-0.4961014,18.91131,-24.03301,11.49196,1007.441
23.854381084,-2.367696,-0.1390465,-0.1663954,-0.8428713,0.2389009,-0.4946642,18.91131,-24.03301,11.49196,1007.441
23.886660576,-2.119801,0.2131702,-0.2882769,-0.8390039,0.2408625,-0.4903104,19.27342,-23.67248,11.48183,1007.441
23.921423435,-1.747959,-0.02164094,-0.2273361,-0.8394915,0.239867,-0.49805,18.54787,-23.6645,11.49286,1007.441
23.953702927,-1.25217,-0.1390465,-0.2273361,-0.8428852,0.2427527,-0.5004435,18.54787,-23.6645,11.49286,1007.445
23.985982418,-0.01269663,-0.08034372,0.1383081,-0.8269242,0.2379279,-0.5096906,18.92396,-24.39189,11.93231,1007.444
24.020744801,-0.07467029,-1.195696,0.01642669,-0.8399878,0.2432335,-0.5038311,18.92329,-24.02737,11.92769,1007.444
24.053024769,-0.07467029,-1.195696,-0.1663954,-0.8481881,0.2408493,-0.4864232,18.92329,-24.02737,11.92769,1007.442
24.087787151,-0.01269663,-1.254399,-0.2273361,-0.8419071,0.2413348,-0.4912684,18.19708,-23.65488,11.93411,1007.44
24.120067120,0.5450663,-1.724021,-0.3492176,-0.838534,0.2437396,-0.4985135,18.898,-23.30961,11.04701,1007.438
24.154829502,0.04927703,-2.252347,-0.7148618,-0.8448207,0.2451849,-0.4951077,18.898,-23.30961,11.04701,1007.437
24.187109470,-0.01269663,-1.958833,-0.6539211,-0.8510997,0.2456852,-0.4849391,19.28475,-23.30233,11.91294,1007.437
24.219388485,-0.07467029,-0.784777,-0.2273361,-0.8684834,0.2344953,-0.4878659,18.92197,-23.29834,11.91846,1007.435
24.254150867,0.8549346,0.09576461,0.1383081,-0.8472021,0.2355551,-0.4787204,18.92197,-23.29834,11.91846,1007.436
24.286430836,-0.4465123,0.3305757,0.1383081,-0.8370619,0.2345474,-0.4990524,19.64819,-23.67083,11.91204,1007.436
24.321193218,-0.5084859,-0.4912632,-0.04451402,-0.8443213,0.2413426,-0.4869122,18.54853,-24.02902,11.49748,1007.434
24.353473186,-0.4465123,0.09576461,0.01642669,-0.8549554,0.2398621,-0.4864142,18.54853,-24.02902,11.49748,1007.434
24.388235569,0.1732244,-0.1977493,0.2601895,-0.8414307,0.2417956,-0.4985183,18.92329,-24.02737,11.92769,1007.434
24.420515537,-0.01269663,0.03706183,-0.2882769,-0.8477124,0.2417956,-0.493187,18.898,-23.30961,11.04701,1007.438
24.452794552,0.04927703,-0.02164094,0.0773674,-0.8515735,0.2393715,-0.4912587,18.898,-23.30961,11.04701,1007.436
24.487557888,0.2971717,0.2131702,0.0773674,-0.8496424,0.2403416,-0.4922242,19.26144,-23.67811,11.04611,1007.434
24.519836903,0.3591453,-0.2564521,0.1383081,-0.8448001,0.2379407,-0.490798,19.63686,-24.04098,11.48093,1007.434
24.554600239,0.1732244,-0.08034372,0.01642669,-0.8462595,0.2408319,-0.4931956,18.92329,-24.02737,11.92769,1007.434
24.586879253,-0.4465123,0.2718729,0.01642669,-0.8462473,0.2359959,-0.4922562,18.92329,-24.02737,11.92769,1007.434
24.621641636,-0.2605913,-0.1977493,0.1992488,-0.8472241,0.2418167,-0.4873866,18.92263,-23.66286,11.92308,1007.434
24.653921604,0.235198,-0.3151549,0.1992488,-0.8486497,0.2292107,-0.4932565,19.27276,-23.30796,11.47722,1007.437
24.686201572,-0.1366439,0.4479813,0.1383081,-0.8564138,0.2422694,-0.4888146,19.27276,-23.30796,11.47722,1007.437
24.720963955,-0.3225649,0.03706183,-0.1054547,-0.8491581,0.2388797,-0.4956177,19.27475,-24.40151,11.49107,1007.438
24.753243446,-0.07467029,0.09576461,0.0773674,-0.8564175,0.2451861,-0.4849305,18.91197,-24.39752,11.49658,1007.438
24.788006306,0.2971717,0.09576461,0.01642669,-0.8481873,0.2413414,-0.4840032,18.91197,-24.39752,11.49658,1007.44
24.820285320,-0.01269663,0.3305757,-0.04451402,-0.8477173,0.2447074,-0.4907532,19.28607,-24.03136,11.92218,1007.44
24.852565289,0.1112507,-0.4912632,-0.04451402,-0.8486687,0.2384168,-0.4898201,19.62355,-23.31759,11.03597,1007.438
24.887327671,-0.1986176,-0.1977493,0.3211302,-0.8477187,0.247145,-0.4854216,19.62355,-23.31759,11.03597,1007.438
24.919607639,-0.01269663,-0.08034372,-0.1054547,-0.8510854,0.2369483,-0.4927238,18.89866,-23.67413,11.05162,1007.438
24.954370022,-0.07467029,-0.02164094,-0.4101582,-0.8457744,0.2398621,-0.494169,19.27342,-23.67248,11.48183,1007.437
24.986649990,0.2971717,-0.02164094,-0.2273361,-0.8506076,0.2393693,-0.492711,19.27342,-23.67248,11.48183,1007.437
25.021412373,0.3591453,0.03706183,0.1383081,-0.8472292,0.2413065,-0.4951245,18.53522,-23.30562,11.05252,1007.435
25.053692341,-0.1366439,-0.1390465,0.01642669,-0.8452798,0.2360003,-0.4917749,18.91131,-24.03301,11.49196,1007.435
25.085971355,-0.5084859,0.1544674,-0.1054547,-0.8467254,0.2340621,-0.4912993,18.91131,-24.03301,11.49196,1007.433
25.120734215,-0.01269663,-0.1977493,-0.04451402,-0.8443292,0.2413099,-0.4965811,18.54787,-23.6645,11.49286,1007.433
25.153013706,0.1112507,-0.1977493,0.0773674,-0.8486633,0.2369732,-0.4874111,18.91065,-23.66849,11.48735,1007.437
25.187776565,-0.1366439,-0.08034372,0.1383081,-0.852067,0.2427494,-0.4936556,18.91065,-23.66849,11.48735,1007.434
25.220056057,-0.01269663,0.03706183,-0.04451402,-0.8448043,0.2384115,-0.4946628,19.2621,-24.04263,11.05072,1007.434
25.254818916,0.1112507,-0.02164094,-0.1663954,-0.851576,0.2427819,-0.4844712,18.91065,-23.66849,11.48735,1007.434
25.287098408,-0.07467029,0.09576461,-0.1054547,-0.8481836,0.2374471,-0.4907935,18.91065,-23.66849,11.48735,1007.432
25.319377899,0.04927703,-0.02164094,0.1383081,-0.8438341,0.2374497,-0.4937035,18.89932,-24.03864,11.05624,1007.43
25.354140758,0.1732244,-0.02164094,-0.1054547,-0.8501171,0.236956,-0.4912756,19.2621,-24.04263,11.05072,1007.429
25.386420250,-0.01269663,0.09576461,0.01642669,-0.8486614,0.2360037,-0.4879,19.2621,-24.04263,11.05072,1007.429
25.421182632,-0.1366439,-0.1390465,0.0773674,-0.8472127,0.2364885,-0.4888673,19.64819,-23.67083,11.91204,1007.429
25.453462601,-0.1366439,0.09576461,-0.1054547,-0.8491588,0.2408318,-0.4907721,18.91131,-24.03301,11.49196,1007.427
25.488224983,-0.01269663,-0.2564521,-0.1663954,-0.8419033,0.2403735,-0.4893401,18.54853,-24.02902,11.49748,1007.427
25.520504951,0.04927703,0.03706183,-0.04451402,-0.8539985,0.2412888,-0.4946266,18.54853,-24.02902,11.49748,1007.427
25.552784443,0.1732244,-0.02164094,0.1383081,-0.8481773,0.2374733,-0.4830584,18.91131,-24.03301,11.49196,1007.427
25.587547302,-0.2605913,0.2131702,-0.1054547,-0.8477127,0.2432605,-0.4893111,19.27342,-23.67248,11.48183,1007.429
25.619826794,-0.07467029,-0.1390465,0.01642669,-0.8501293,0.2422808,-0.4907618,19.27342,-23.67248,11.48183,1007.428
25.654589653,0.04927703,-0.1977493,-0.1054547,-0.8472226,0.2408455,-0.4883591,18.52588,-24.76932,10.63526,1007.428
25.686868668,0.1732244,-0.08034372,-0.04451402,-0.8491564,0.2398639,-0.4907776,19.28541,-23.66685,11.91756,1007.428
25.721632004,0.04927703,0.03706183,-0.1054547,-0.8530195,0.2379204,-0.4898135,19.28541,-23.66685,11.91756,1007.428
25.753911018,0.1112507,-0.1977493,-0.2273361,-0.8477104,0.2422926,-0.4893166,18.92329,-24.02737,11.92769,1007.428
25.786190987,0.1112507,-0.2564521,0.01642669,-0.8491514,0.2384187,-0.4888521,19.64819,-23.67083,11.91204,1007.429
25.820953369,-0.01269663,-0.08034372,0.01642669,-0.8564194,0.2461556,-0.4844415,19.64819,-23.67083,11.91204,1007.429
25.853233337,-0.01269663,0.3305757,0.1383081,-0.8409272,0.2384586,-0.4840352,19.27408,-24.03699,11.48645,1007.429
25.887995720,-0.1366439,0.2718729,-0.1054547,-0.8462598,0.2413191,-0.4922259,18.54853,-24.02902,11.49748,1007.429
25.920275688,0.2971717,-0.02164094,0.1992488,-0.8472128,0.235022,-0.4932266,18.54853,-24.02902,11.49748,1007.429
25.952554703,0.1732244,-0.08034372,-0.2273361,-0.854468,0.2354819,-0.4941752,18.54787,-23.6645,11.49286,1007.429
25.987318039,0.1732244,-0.02164094,0.1383081,-0.8491595,0.2408285,-0.491739,19.64885,-24.03535,11.91666,1007.431
26.019597054,-0.01269663,-0.02164094,0.01642669,-0.8496319,0.2374527,-0.4878897,19.64885,-24.03535,11.91666,1007.431
26.054359436,-0.07467029,0.03706183,0.01642669,-0.8510799,0.2364824,-0.4874087,19.28607,-24.03136,11.92218,1007.435
26.086639404,-0.1986176,0.1544674,-0.1054547,-0.851113,0.2475849,-0.495564,19.27342,-23.67248,11.48183,1007.435
26.121401787,-0.01269663,-0.02164094,-0.1054547,-0.8520619,0.2422818,-0.4888239,19.27342,-23.67248,11.48183,1007.433
26.153681755,0.04927703,0.03706183,0.01642669,-0.851097,0.2442302,-0.4859143,19.27408,-24.03699,11.48645,1007.435
26.185961723,0.1112507,0.09576461,0.01642669,-0.851586,0.2451835,-0.4897753,18.89999,-24.40316,11.06085,1007.433
26.220724106,0.04927703,-0.02164094,0.0773674,-0.8481861,0.2364596,-0.4966003,18.89999,-24.40316,11.06085,1007.432
26.253004074,-0.1986176,-0.1390465,0.0773674,-0.8486626,0.2364877,-0.4878973,19.27475,-24.40151,11.49107,1007.432
26.287766456,-0.2605913,0.03706183,0.01642669,-0.8472251,0.2432783,-0.4844777,19.27276,-23.30796,11.47722,1007.432
26.320045471,-0.6324332,-0.3151549,0.01642669,-0.8457703,0.2379248,-0.4946635,19.27276,-23.30796,11.47722,1007.432
26.354808807,-0.4465123,-0.3151549,0.1383081,-0.8491699,0.2442062,-0.4946204,19.6362,-23.67647,11.47632,1007.43
26.387087822,-0.7563806,0.3305757,-0.2273361,-0.8539979,0.2432458,-0.4883308,19.6615,-24.39423,12.357,1007.43
26.419367790,-0.01269663,-0.02164094,-0.1663954,-0.8433492,0.2399002,-0.4849887,19.6615,-24.39423,12.357,1007.43
26.454130173,0.2971717,-0.08034372,0.01642669,-0.8443352,0.2447056,-0.4941446,18.89999,-24.40316,11.06085,1007.43
26.486410141,0.3591453,0.03706183,0.01642669,-0.8496346,0.2379301,-0.4898208,18.56118,-24.3879,11.93782,1007.43
26.521172523,-0.3225649,0.2131702,-0.1663954,-0.8472204,0.2384111,-0.4927238,19.27342,-23.67248,11.48183,1007.428
26.553452492,-0.1366439,-0.1977493,0.0773674,-0.8477159,0.2422697,-0.4960849,19.27342,-23.67248,11.48183,1007.431
26.588214874,-0.07467029,-0.4912632,0.1992488,-0.850127,0.2418018,-0.4893142,19.26276,-24.40714,11.05534,1007.431
26.620494842,-0.3845386,-0.3738576,-0.04451402,-0.8496544,0.247133,-0.4873512,18.56184,-24.75242,11.94244,1007.431
26.652773857,-0.3225649,-0.08034372,-0.1663954,-0.8482065,0.2476145,-0.4892853,18.56184,-24.75242,11.94244,1007.429
26.687536240,-0.3845386,-0.1977493,0.1383081,-0.8433563,0.2398707,-0.4936907,19.2621,-24.04263,11.05072,1007.427
26.719816208,-1.438091,0.4479813,0.0773674,-0.8472151,0.2403878,-0.4806267,18.92197,-23.29834,11.91846,1007.427
26.754578590,-1.314143,1.26982,0.01642669,-0.8501328,0.2471529,-0.4810653,18.92197,-23.29834,11.91846,1007.427
26.786858559,-0.3845386,0.4479813,0.1992488,-0.8448243,0.2446813,-0.5009118,19.27475,-24.40151,11.49107,1007.427
26.821620941,0.3591453,-0.4325604,0.4430116,-0.8443208,0.2374352,-0.49757,18.91131,-24.03301,11.49196,1007.424
26.853900909,0.04927703,-0.2564521,0.3820709,-0.8486736,0.2413286,-0.4873863,18.91131,-24.03301,11.49196,1007.425
26.886180878,-0.3225649,0.1544674,0.1992488,-0.847228,0.242778,-0.4893149,18.91131,-24.03301,11.49196,1007.428
26.920943260,-0.07467029,0.2131702,0.3820709,-0.8506243,0.2476076,-0.4892801,19.27541,-24.76603,11.49568,1007.428
26.953222275,-0.01269663,0.09576461,0.1383081,-0.8496472,0.2437422,-0.4883374,19.27541,-24.76603,11.49568,1007.428
26.987985611,0.1732244,-0.1390465,0.1383081,-0.8472341,0.245196,-0.4897846,19.27408,-24.03699,11.48645,1007.428
27.020264626,0.2971717,-0.02164094,0.01642669,-0.8481878,0.2393844,-0.490299,19.27408,-24.03699,11.48645,1007.426
27.052544594,0.1112507,0.03706183,0.0773674,-0.8448065,0.2408459,-0.490298,19.27408,-24.03699,11.48645,1007.426
27.087306976,-0.4465123,0.03706183,0.0773674,-0.8457717,0.2398736,-0.4907849,19.2621,-24.04263,11.05072,1007.43
27.119586945,-0.3225649,-0.02164094,0.01642669,-0.8491679,0.2442144,-0.4922032,18.93594,-24.38625,12.36803,1007.43
27.154349327,0.3591453,0.03706183,-0.04451402,-0.8515825,0.2442206,-0.4883305,18.93594,-24.38625,12.36803,1007.429
27.186629295,0.2971717,0.2131702,0.1383081,-0.8438464,0.2422857,-0.4946429,18.91065,-23.66849,11.48735,1007.429
27.221391678,0.3591453,-0.1977493,-0.04451402,-0.8457837,0.2432447,-0.4956001,19.27475,-24.40151,11.49107,1007.429
27.253671646,0.1112507,-0.08034372,0.1992488,-0.8511003,0.2432394,-0.492688,19.27475,-24.40151,11.49107,1007.429
27.285950661,-0.3225649,0.5066841,0.1383081,-0.8549754,0.2466207,-0.4912102,18.91131,-24.03301,11.49196,1007.429
27.320713997,-0.01269663,0.3305757,0.0773674,-0.846262,0.2432646,-0.4893142,19.62488,-24.04662,11.04521,1007.429
27.352993011,0.421119,0.2718729,0.1383081,-0.8481954,0.2437513,-0.4868901,19.62488,-24.04662,11.04521,1007.429
27.387756348,0.8549346,0.03706183,0.5039523,-0.8423854,0.2379345,-0.4946707,19.27342,-23.67248,11.48183,1007.429
27.420035362,-0.01269663,0.03706183,0.6867745,-0.85012,0.2403648,-0.4849715,18.91197,-24.39752,11.49658,1007.43
27.454797745,-1.004275,1.035009,0.3820709,-0.8491798,0.2485632,-0.4941122,18.91197,-24.39752,11.49658,1007.432
27.487077713,-1.438091,0.09576461,-0.1663954,-0.8419364,0.2500095,-0.5018546,18.91197,-24.39752,11.49658,1007.432
27.519357681,0.04927703,-0.4325604,-0.471099,-0.8428838,0.2452019,-0.4917277,18.91131,-24.03301,11.49196,1007.432
27.554120064,1.78454,-0.6086687,-0.4101582,-0.8506216,0.2461525,-0.4902553,19.28607,-24.03136,11.92218,1007.432
27.586400032,1.474671,-0.6086687,-0.3492176,-0.8428828,0.2437402,-0.4946367,19.28607,-24.03136,11.92218,1007.43
27.621162414,-0.3845386,0.2131702,-0.2273361,-0.8496403,0.2418163,-0.4854477,19.27276,-23.30796,11.47722,1007.434
27.653442383,-0.8183542,-0.2564521,-0.04451402,-0.8443277,0.2393611,-0.5004597,18.89866,-23.67413,11.05162,1007.434
27.688204765,-0.8803279,-0.3151549,0.5039523,-0.8448026,0.2403734,-0.4869167,18.89866,-23.67413,11.05162,1007.434
27.720484734,-0.1986176,0.3892785,0.8695966,-0.8520538,0.2452477,-0.4704364,19.28541,-23.66685,11.91756,1007.433
27.752763748,-0.3845386,0.5653868,0.6258337,-0.8414391,0.2442037,-0.5018887,18.91065,-23.66849,11.48735,1007.431
27.787526131,-1.066249,0.1544674,-0.1663954,-0.8453289,0.253389,-0.5013446,18.91065,-23.66849,11.48735,1007.435
27.819806099,-0.7563806,-0.2564521,-0.6539211,-0.8530432,0.2471069,-0.4921784,18.54853,-24.02902,11.49748,1007.435
27.854568481,1.28875,-0.6086687,-0.3492176,-0.8467596,0.2495576,-0.4883105,18.91131,-24.03301,11.49196,1007.433
27.886848450,1.970461,-0.2564521,-0.1663954,-0.8418938,0.2394352,-0.4806436,18.91131,-24.03301,11.49196,1007.432
27.921610832,0.5450663,0.4479813,0.1992488,-0.8515586,0.2330804,-0.4912945,19.27408,-24.03699,11.48645,1007.428
27.953890800,-1.500064,-0.02164094,-0.04451402,-0.8486814,0.2427624,-0.4926959,19.2621,-24.04263,11.05072,1007.426
27.986170769,-2.181775,0.09576461,-0.2882769,-0.847716,0.24569,-0.4863967,19.2621,-24.04263,11.05072,1007.426
28.020933151,-0.07467029,0.1544674,-0.1663954,-0.845786,0.2476329,-0.4859064,18.91197,-24.39752,11.49658,1007.425
28.053213120,0.9788819,-0.02164094,0.1383081,-0.8472281,0.2408226,-0.4951273,19.6362,-23.67647,11.47632,1007.425
28.087975502,0.7929609,0.03706183,-0.1054547,-0.8438419,0.24035,-0.4946539,19.6362,-23.67647,11.47632,1007.423
28.120255470,-0.2605913,0.09576461,-0.3492176,-0.8467525,0.2461668,-0.4892967,18.92263,-23.66286,11.92308,1007.425
28.152534485,-0.1986176,-0.08034372,-0.04451402,-0.8448072,0.2413314,-0.4898118,18.53588,-23.67014,11.05714,1007.425
28.187296867,-0.2605913,-0.6086687,0.1992488,-0.848679,0.2427722,-0.4897953,18.53588,-23.67014,11.05714,1007.424
28.219576835,-0.3845386,-0.2564521,0.0773674,-0.8462702,0.2490947,-0.4825129,18.89866,-23.67413,11.05162,1007.424
28.254339218,-0.3845386,0.09576461,-0.4101582,-0.8486915,0.2490731,-0.4868588,18.91065,-23.66849,11.48735,1007.422
28.286619186,0.421119,0.03706183,-0.2882769,-0.8428782,0.2462025,-0.4820533,18.91065,-23.66849,11.48735,1007.42
28.321381569,0.6690136,0.09576461,-0.1663954,-0.8539965,0.2427635,-0.4878501,18.89866,-23.67413,11.05162,1007.42
28.353661537,0.04927703,-0.08034372,-0.04451402,-0.8506156,0.242268,-0.4941449,18.91197,-24.39752,11.49658,1007.42
28.385941505,-1.066249,0.2718729,-0.2273361,-0.8467434,0.2413177,-0.4922249,18.91131,-24.03301,11.49196,1007.42
28.420703888,-0.4465123,0.09576461,-0.2273361,-0.846744,0.2432698,-0.4873794,18.91131,-24.03301,11.49196,1007.42
28.452983856,-0.1986176,0.09576461,-0.2882769,-0.8457762,0.2422982,-0.4893208,18.56052,-24.02338,11.93321,1007.422
28.487746239,0.7929609,-0.3151549,-0.1663954,-0.8453006,0.2466647,-0.4863963,18.55985,-23.65887,11.92859,1007.421
28.520026207,0.7929609,-0.549966,-0.2273361,-0.8472049,0.2306568,-0.496152,18.55985,-23.65887,11.92859,1007.421
28.554788589,0.235198,-0.3738576,-0.2273361,-0.848193,0.2422945,-0.4883488,19.27276,-23.30796,11.47722,1007.419
28.587067604,-0.2605913,0.03706183,-0.04451402,-0.846246,0.2364897,-0.4893528,19.27342,-23.67248,11.48183,1007.419
28.619347572,-0.2605913,-0.1977493,0.1383081,-0.8530201,0.2393837,-0.4864211,19.27342,-23.67248,11.48183,1007.417
28.654109955,-0.5084859,-0.08034372,0.01642669,-0.847721,0.2466464,-0.4897753,18.89866,-23.67413,11.05162,1007.417
28.686389923,-0.3845386,-0.3151549,-0.1663954,-0.8515761,0.2413153,-0.4888304,19.63752,-24.4055,11.48555,1007.417
28.721152306,0.1118072,-0.3143674,-0.4088298,-0.8496421,0.2432746,-0.4835056,19.63752,-24.4055,11.48555,1007.419
28.753432274,1.225341,0.03813647,-0.4067621,-0.8646248,0.239841,-0.4844598,19.62554,-24.41113,11.04982,1007.417
28.788194656,3.759368,-0.2557302,-0.4661082,-0.8728288,0.2364644,-0.4743091,18.92263,-23.66286,11.92308,1007.417
28.820474625,5.618578,-2.486436,-0.100464,-0.8907211,0.2329881,-0.4854094,18.92263,-23.66286,11.92308,1007.419
28.852754593,3.511474,-6.771739,-2.538092,-0.8926441,0.2242325,-0.4970575,19.28541,-23.66685,11.91756,1007.419
28.887516975,6.548182,-16.92732,-1.806804,-1.002486,0.2578068,-0.4927624,18.53588,-23.67014,11.05714,1007.419
28.919796944,3.945289,-27.84604,-2.903736,-0.9535396,0.2618155,-0.3507141,18.53588,-23.67014,11.05714,1007.422
28.954559326,1.776211,-30.31155,-3.635025,-0.941871,0.2401211,-0.3363594,18.90998,-23.30398,11.48273,1007.428
28.986838341,0.4127905,-35.06648,-2.964677,-0.9288377,0.2420204,-0.3581315,19.26144,-23.67811,11.04611,1007.435
29.021601677,-3.739445,-39.52789,-0.9536339,-0.9018004,0.2648948,-0.3425896,19.26144,-23.67811,11.04611,1007.44
29.053880692,-9.626943,-40.64324,0.08235811,-0.9052092,0.2750477,-0.3425246,19.58892,-24.06352,9.738026,1007.44
29.086160660,-14.39891,-39.29308,1.179291,-0.9022796,0.2595358,-0.3527713,20.26758,-23.72872,8.041719,1007.445
29.120923042,-11.98194,-38.76476,2.702808,-0.8911632,0.2502616,-0.3857218,20.26758,-23.72872,8.041719,1007.452
29.153203010,-8.263522,-38.06032,4.165385,-0.8819804,0.2522236,-0.3857304,20.24295,-23.37547,7.165649,1007.457
29.187965393,-3.925366,-35.4187,5.688903,-0.8582836,0.2513268,-0.3848197,20.19501,-23.39801,5.422742,1007.464
29.220245361,-1.012604,-32.48356,6.785836,-0.8607051,0.2581456,-0.3697892,20.19501,-23.39801,5.422742,1007.464
29.255007744,2.891737,-27.0829,8.735939,-0.8645692,0.2664596,-0.3407272,20.5458,-23.40763,4.9815,1007.468
29.287287712,-0.5787881,-19.15802,11.05169,-0.8969946,0.2823776,-0.3284809,20.16077,-23.41411,4.177808,1007.475
29.319567203,-7.767733,-16.4577,12.02674,-0.9521316,0.2899858,-0.3215506,19.78733,-24.14478,3.756829,1007.477
29.354330063,-11.91997,-13.99218,12.08768,-0.9385096,0.2639792,-0.2961056,19.78733,-24.14478,3.756829,1007.48
29.386609554,-9.255101,-11.23315,13.12367,-0.9375041,0.250947,-0.2869965,19.42323,-23.41177,3.753113,1007.48
29.421372414,-5.412734,-10.2352,13.73308,-0.9273285,0.2525294,-0.2570363,19.02648,-24.51823,2.465295,1007.482
29.453651905,-5.040892,-7.534874,14.89095,-0.9172219,0.2841235,-0.224488,19.02648,-24.51823,2.465295,1007.482
29.485931396,-9.626943,-10.2352,13.48931,-0.956415,0.2917233,-0.2335457,19.38926,-24.52221,2.45978,1007.482
29.520694256,-9.317075,-15.63586,12.69708,-0.9317182,0.2860784,-0.2065585,19.02648,-24.51823,2.465295,1007.482
29.552973747,-5.412734,-17.04472,12.2705,-0.9419007,0.3049913,-0.1861245,19.02648,-24.51823,2.465295,1007.482
29.587736130,-2.499972,-13.63996,11.47827,-0.9158563,0.3301992,-0.1952227,18.65039,-23.79084,2.025852,1007.48
29.620016098,0.2888432,-10.2352,7.821827,-0.9632753,0.3167388,-0.2715803,18.65106,-24.15536,2.030468,1007.479
29.654778480,2.705816,-8.298011,2.763749,-0.9153268,0.2996049,-0.2273047,18.65106,-24.15536,2.030468,1007.481
29.687058449,3.573447,-5.362872,-0.8926932,-0.8423241,0.330058,-0.1562234,18.25364,-24.89731,0.7380347,1007.477
29.719337940,1.404369,0.5661087,-5.82889,-0.7993468,0.3338493,-0.2162409,17.90352,-25.2522,1.183893,1007.477
29.754100800,0.9705534,2.91422,-4.549136,-0.9875118,0.5206416,-0.3433679,17.90352,-25.2522,1.183893,1007.474
29.786380291,-18.61312,8.373578,-6.925823,-0.9687387,0.3752544,-0.2784874,18.60549,-24.54161,0.3544235,1007.467
29.821143150,-26.35983,9.078012,-14.84811,-0.9454779,0.3945887,-0.1619189,18.6151,-24.17226,0.7232876,1007.457
29.853422642,-53.19443,16.53326,-28.37695,-1.086755,0.3127725,0.09075885,18.6151,-24.17226,0.7232876,1007.45
29.888185501,-13.09747,7.023414,-14.84811,-0.9100053,0.09394748,-0.228969,19.33104,-24.54958,0.3433924,1007.441
29.920464993,31.39962,1.329245,-11.43544,-1.00443,0.3452304,-0.2544093,19.68051,-23.83018,-0.1070817,1007.441
29.952744484,15.03857,2.327192,-7.839934,-0.9480195,0.2323661,-0.1918421,19.68051,-23.83018,-0.1070817,1007.433
29.987507343,-9.06918,4.910114,-3.635025,-0.980567,0.2907813,-0.2054595,18.97721,-23.81174,0.7131562,1007.424
30.019786835,-1.074577,2.5033,-4.488195,-0.9423976,0.3068896,-0.1967483,19.71409,-23.44956,1.133236,1007.416
30.054549694,12.93147,1.153136,-5.889831,-0.9539981,0.3049207,-0.1967345,19.71409,-23.44956,1.133236,1007.407
30.086829186,7.539761,-0.314433,-5.707009,-0.9534875,0.2801124,-0.2350683,20.05329,-22.73498,0.3092823,1007.407
30.121592045,-3.615498,1.387948,-8.327459,-0.9795846,0.3030641,-0.1517301,19.33867,-23.08669,0.6984086,1007.401
30.153871536,6.238315,1.681461,-7.413349,-0.9712892,0.2667487,-0.1650073,19.33867,-23.08669,0.6984086,1007.389
30.186151027,13.30331,2.268489,-7.169586,-0.9413583,0.2729847,-0.2066121,19.71343,-23.08504,1.12862,1007.382
30.220913887,9.089103,3.912167,-5.036661,-0.9553127,0.2404869,-0.216919,20.08819,-23.0834,1.558832,1007.375
30.253193378,4.255157,3.618653,-2.050566,-0.9567922,0.2506256,-0.2226595,20.08819,-23.0834,1.558832,1007.375
30.287956238,4.626999,3.97087,0.8136466,-0.9635068,0.2288442,-0.2184179,19.71343,-23.08504,1.12862,1007.37
30.320235729,5.804499,-0.3731357,2.154342,-0.9437655,0.2534748,-0.2497439,20.46163,-22.35272,1.979811,1007.363
30.352515697,-2.561945,-1.194975,4.165385,-0.9621896,0.2908453,-0.2021147,19.38727,-23.42867,2.445932,1007.358
30.387278080,-6.838128,-6.536928,1.423054,-0.9303259,0.2833975,-0.2848938,19.38727,-23.42867,2.445932,1007.353
30.419558048,-8.697338,-10.47001,0.6917652,-0.9892565,0.296191,-0.1725362,19.73674,-22.70926,1.995458,1007.353
30.454320431,-9.007206,-14.4031,-4.488195,-0.9226346,0.3032673,-0.2828636,19.36198,-22.71091,1.565247,1007.346
30.486600399,-7.829707,-18.45359,-6.560179,-0.978601,0.2884753,-0.1735699,19.36198,-22.71091,1.565247,1007.343
30.521362781,-3.49155,-21.44743,-10.88697,-0.9810015,0.2733912,-0.1958887,19.34999,-22.71654,1.12952,1007.345
30.553642750,3.387526,-19.68635,-12.83707,-0.9722413,0.2668082,-0.1466343,20.05197,-22.00595,0.3000503,1007.347
30.585921764,0.9705534,-19.45154,-14.78717,-0.9750915,0.2499083,-0.1331879,20.05197,-22.00595,0.3000503,1007.347
30.620685100,-4.297208,-18.16008,-12.83707,-0.9773354,0.178298,-0.1282724,20.40342,-22.38009,-0.1365762,1007.345
30.652964115,-6.590233,-16.69251,-11.25261,-0.9644387,0.259284,-0.08868122,20.41541,-22.37445,0.2991505,1007.347
30.687727451,-1.198525,-13.17034,-13.38554,-0.9658726,0.2525082,-0.08774979,20.41541,-22.37445,0.2991505,1007.345
30.720006466,-0.3928671,-8.826336,-15.51846,-0.9991297,0.2157194,-0.06274848,20.7409,-21.66632,-1.022777,1007.345
30.754769802,2.519895,-7.65228,-15.64034,-0.9860627,0.1952794,-0.1078527,20.74156,-22.03083,-1.018161,1007.343
30.787048817,0.2888432,-5.421575,-14.54341,-0.9932644,0.1832554,-0.07986606,20.74156,-22.03083,-1.018161,1007.343
30.819328785,-4.235234,-8.767632,-16.6154,-0.988025,0.213727,-0.08888942,20.72892,-21.67195,-1.458504,1007.342
30.854091167,-6.466286,-15.69456,-21.42971,-1.014668,0.2193156,-0.1308594,21.81592,-20.95488,-1.484282,1007.34
30.886371136,-12.47773,-24.14776,-23.74546,-1.050923,0.2261,-0.09738541,21.81592,-20.95488,-1.484282,1007.338
30.921133518,-19.54273,-30.48766,-26.18309,-0.9865504,0.157145,-0.22216,21.8046,-21.32504,-1.915393,1007.335
30.953413486,-17.99339,-34.42075,-25.26898,-1.11274,0.1719973,-0.15944,22.14142,-20.24675,-2.80621,1007.335
30.988175869,-11.6101,-43.16746,-27.95037,-1.18323,0.1258189,-0.1605175,22.14142,-20.24675,-2.80621,1007.335
31.020455837,3.573447,-55.84726,-35.01949,-1.354136,0.2026301,-0.1979041,22.77095,-19.54112,-4.070487,1007.335
31.052735806,3.573447,-75.10177,-43.00272,-1.297646,0.2322476,-0.2167115,24.18715,-19.20866,-5.342099,1007.339
31.087498188,-2.437998,-83.37886,-40.56509,-1.050686,0.1371652,-0.06598464,24.18715,-19.20866,-5.342099,1007.341
31.119777679,24.27265,-80.61983,-26.73155,-0.9263437,0.05376389,-0.2204604,24.5,-18.14164,-7.104369,1007.341
31.154540539,67.84013,-69.05538,-9.850977,-0.6445403,0.03508237,-0.4024634,24.81456,-17.07382,-8.804393,1007.343
31.186819553,99.50867,-43.46098,12.39238,-0.475522,0.1572993,-0.3233323,24.81456,-17.07382,-8.804393,1007.344
31.221582889,100.6242,-0.1970274,26.28686,-0.422881,0.1874765,-0.316506,25.5035,-16.73418,-10.12722,1007.348
31.253861904,76.57842,57.3904,29.39484,-0.4549131,0.3080859,-0.1131904,26.25434,-17.45992,-9.257566,1007.349
31.286141872,31.27567,94.90147,32.01529,-0.6583532,0.4477659,-0.1351628,25.60296,-19.60604,-6.666725,1007.349
31.320904255,-21.83575,133.2931,33.84351,-1.156576,0.2727394,0.3319176,25.60296,-19.60604,-6.666725,1007.351
31.353184223,3.511474,-43.34357,-35.68984,-5.737864,0.6594937,11.81454,25.31303,-21.02711,-4.090632,1007.351
31.387946606,-52.0789,-205.1284,-20.45466,-0.7956499,-0.5834054,-0.7136049,24.96317,-22.47635,-3.693173,1007.356
31.420226574,90.46052,-71.4622,8.370295,-2.057568,0.7702103,-1.335526,24.96317,-22.47635,-3.693173,1007.346
31.452506065,-29.76838,-63.30251,-5.097602,-0.8065245,-0.2784614,0.4604913,26.30851,-21.81238,-7.521515,1007.346
31.487268925,56.00317,-65.00489,-3.756906,-1.254405,0.176538,-0.1276853,24.8225,-21.44801,-8.749002,1007.354
31.519548416,34.12646,-91.83206,-8.814984,-1.246899,0.1473054,0.09354723,24.8225,-21.44801,-8.749002,1007.354
31.554311275,53.15238,-143.7253,-30.02235,-1.812531,0.1671383,-0.2875209,24.06231,-22.18596,-10.03592,1007.352
31.586590767,30.65594,-214.7557,-38.61499,-2.007831,0.5219653,-0.3750021,23.98013,-22.2246,-13.02376,1007.355
31.621353626,-3.925366,-296.5873,-49.58432,-1.797608,0.1092405,-0.5349195,23.98013,-22.2246,-13.02376,1007.362
31.653633118,-8.263522,-325.88,-84.25957,-0.9804934,-0.7593643,-0.7872062,23.4759,-22.65194,-18.18011,1007.362
31.685913086,153.1159,-238.6477,-145.6878,1.645649,-0.2158578,-0.4194618,21.51846,-21.63409,-25.5124,1007.369
31.720675468,830.488,-163.0385,9.771931,1.096135,1.262058,-0.5210651,21.51846,-21.63409,-25.5124,1007.374
31.752955437,17.14568,-204.6588,-6.986764,0.8039676,0.8809762,2.944137,19.32783,-20.52225,-25.92888,1007.387
31.787717819,-72.03442,-162.745,122.8169,0.7583429,2.496136,0.9307113,14.88116,-32.01819,-16.6837,1007.411
31.819997787,-383.7,-256.552,109.7756,0.05201119,1.424793,2.118302,14.88116,-32.01819,-16.6837,1007.411
31.854760170,-292.7846,-235.83,96.79526,0.6821674,-0.4051881,1.076331,10.4162,-35.61028,-20.86715,1007.423
31.887040138,-111.7595,-196.0295,36.8296,0.0122311,-0.1505081,1.540907,3.959981,-32.09087,-31.08948,1007.431
31.919319153,-123.5345,30.56323,1.788698,1.676075,-0.09552581,2.221699,3.959981,-32.09087,-31.08948,1007.45
31.954082489,-197.0353,23.16668,25.73839,0.521172,-0.5960769,1.146658,-3.65838,-25.10452,-32.80518,1007.452
31.986361504,-186.7477,62.38013,87.65415,0.5159433,-0.3944806,0.6634097,-4.133928,-21.50528,-36.70512,1007.452
32.021124840,-12.16786,60.26683,27.44473,0.2337003,-0.3960953,1.425908,-4.133928,-21.50528,-36.70512,1007.445
32.053403854,72.11632,3.677356,32.56375,-0.4471139,-0.4556768,0.6984947,-3.15723,-13.14962,-38.13409,1007.435
32.088167191,81.84618,15.88753,70.77357,-0.3909824,-0.2653515,0.1217466,-2.772467,-12.0488,-37.282,1007.425
32.120446205,192.5931,48.87849,110.8726,-0.7795151,0.4175414,0.6166737,-2.772467,-12.0488,-37.282,1007.413
32.152726173,75.83474,54.86618,107.0333,-0.9252683,0.7348377,0.693725,-2.405722,-14.23988,-37.25982,1007.413
32.187488556,-117.4611,58.91667,71.20016,-0.8022524,0.382784,1.089812,-2.31626,-18.21092,-34.22121,1007.406
32.219768524,-148.0761,28.97825,48.04269,0.0468332,-0.5093923,1.423733,-2.70865,-20.77464,-35.42831,1007.398
32.254530907,-58.64811,17.00289,20.8022,-0.141284,-0.3594942,1.83398,-2.70865,-20.77464,-35.42831,1007.399
32.286810875,-118.6386,-3.014761,6.663954,0.1340804,-0.3925103,1.42566,-2.414399,-16.06809,-37.67247,1007.399
32.321573257,-110.8919,-6.126008,-4.427254,0.1477756,-0.5892947,0.4644022,-1.376928,-13.55018,-39.40199,1007.394
32.353853226,-0.02102512,-25.73273,-5.646069,0.5033077,-0.6176123,-0.05332103,-1.376928,-13.55018,-39.40199,1007.394
32.386133194,171.708,5.144925,3.738801,0.6865014,-0.30761,0.1636604,-1.408837,-9.187262,-40.32883,1007.393
32.420895576,132.0448,43.12562,5.262318,0.2485784,-0.2050516,0.6674803,-2.835974,-9.160038,-39.43532,1007.391
32.453175545,200.4638,42.89081,-4.06161,-0.177374,-0.1273808,0.9569694,-2.835974,-9.160038,-39.43532,1007.393
32.487937927,127.3968,-9.824283,-7.230527,-0.1871404,0.1697955,1.69399,-1.680168,-14.24786,-37.27085,1007.395
32.520217895,55.87922,-23.67814,-4.366313,-0.03693888,0.4982553,1.244486,-1.248592,-20.05673,-35.08613,1007.395
32.552497387,38.46462,-9.824283,-8.44934,0.02398177,0.47788,1.178008,-1.248592,-20.05673,-35.08613,1007.396
32.587260246,-15.32852,-7.41747,-3.878788,-0.1184215,0.2878965,0.9282635,-1.570122,-22.95196,-33.7365,1007.4
32.619539738,-44.82798,-8.591524,2.459046,-0.1551677,0.06013232,0.864684,-1.917606,-24.76492,-33.27219,1007.402
32.654302597,-32.86707,-9.413363,5.932666,-0.1673047,-0.102294,0.9256667,-1.917606,-24.76492,-33.27219,1007.402
32.686582088,1.776211,6.377684,2.580927,-0.191971,-0.05987282,1.041019,-1.945545,-22.58909,-34.17133,1007.402
32.721344471,25.07831,2.268489,-3.086559,-0.166665,0.07716043,1.044161,-1.946868,-21.86006,-34.18056,1007.403
32.753624439,8.283445,-2.77995,0.4480024,-0.1020878,0.1360606,0.9486362,-1.946868,-21.86006,-34.18056,1007.407
32.785903931,1.032527,-3.484383,5.44514,-0.05282386,0.1682146,0.9704677,-2.296337,-22.57947,-33.73009,1007.409
32.820666790,-9.874838,-2.36903,3.738801,-0.0947248,0.09353331,0.9594977,-1.558798,-22.58181,-33.3054,1007.409
32.852946281,-3.429576,-1.605894,2.459046,-0.06941734,0.04541382,1.018632,-1.558798,-22.58181,-33.3054,1007.409
32.887709141,-1.508393,1.329245,2.154342,-0.08393683,0.0492274,1.013851,-2.658452,-22.94,-33.71996,1007.409
32.919988632,0.1029222,-0.6079469,2.702808,-0.08981255,0.0669884,0.9762565,-2.671761,-22.2166,-34.16492,1007.409
32.954751492,1.404369,-2.427733,0.9964687,-0.08599234,0.08634677,0.9734578,-2.671761,-22.2166,-34.16492,1007.411
32.987030506,1.714237,0.8596226,-0.100464,-0.09185798,0.1158777,0.9818566,-2.659114,-22.57548,-33.72458,1007.412
33.019310474,-3.119708,-0.1970274,-0.2223454,-0.08990513,0.1169379,1.007481,-2.671099,-22.58112,-34.1603,1007.412
33.054072857,-6.342339,-0.6079469,-0.100464,-0.08116242,0.09562241,0.9933209,-2.671099,-22.58112,-34.1603,1007.416
33.086352825,-6.714181,-0.4905413,0.4480024,-0.08305266,0.07771806,0.995157,-3.009905,-22.56586,-33.28333,1007.42
33.121115208,-6.590233,-0.1970274,0.2042395,-0.09656234,0.0587439,0.9767076,-2.285674,-21.8448,-33.3036,1007.418
33.153395176,-5.970497,0.8009198,0.508943,-0.09753449,0.06898226,0.999973,-2.671099,-22.58112,-34.1603,1007.42
33.188157558,-5.102866,-0.3731357,0.935528,-0.09020232,0.03121398,0.987173,-2.671099,-22.58112,-34.1603,1007.42
33.220437527,-1.63234,0.5661087,2.093401,-0.09169484,0.06377719,1.029904,-1.959515,-21.50118,-34.62091,1007.418
33.252717495,-4.607076,0.6248115,2.398105,-0.09511808,0.058233,0.9675162,-3.047846,-21.48922,-34.60436,1007.418
33.287479877,0.5987115,2.327192,2.032461,-0.07770809,0.06708848,0.9955684,-3.047846,-21.48922,-34.60436,1007.42
33.319759846,-1.63234,0.1551892,1.727757,-0.06272274,0.07395384,1.009595,-2.673083,-21.48757,-34.17415,1007.424
33.354522228,-9.255101,0.2725948,2.641868,-0.07247209,0.0995007,0.9880065,-3.397976,-21.84411,-34.1585,1007.424
33.386802196,-12.53971,-0.2557302,2.459046,-0.08985205,0.0858829,0.9826487,-3.397976,-21.84411,-34.1585,1007.424
33.421564579,-18.11733,-2.486436,3.251275,-0.0834967,0.06370896,1.002813,-2.310307,-21.49156,-34.17966,1007.424
33.453844547,-20.03852,-0.9601635,4.104445,-0.07132674,0.02547549,0.9914506,-2.322953,-21.13268,-34.62001,1007.422
33.486124515,-17.12576,-1.018866,3.068453,-0.09209359,0.0152601,0.9933711,-2.322953,-21.13268,-34.62001,1007.422
33.520886898,-17.00181,-4.306222,3.068453,-0.0862394,-0.009431509,0.9849997,-2.675068,-20.39402,-34.188,1007.42
33.553166389,-13.65523,-3.719194,2.519986,-0.0823823,-0.007023741,0.9782369,-3.061426,-19.67147,-35.00092,1007.42
33.587929249,-11.73405,-1.429786,1.666816,-0.06407258,0.02305693,0.98562,-3.061426,-19.67147,-35.00092,1007.422
33.620208740,-14.58484,2.444597,2.032461,-0.03077758,0.06831001,1.030765,-3.726517,-19.66415,-34.99081,1007.422
33.652488708,-27.47536,2.5033,1.97152,-0.08343831,0.0439154,1.01672,-3.074734,-18.94807,-35.44588,1007.426
33.687251091,-36.21364,-1.664597,0.3261209,-0.1306448,-0.03463452,1.011058,-3.074734,-18.94807,-35.44588,1007.424
33.719531059,-36.52351,-4.89325,-1.867744,-0.1141571,-0.08961216,0.9101543,-2.748575,-18.60445,-36.76319,1007.424
33.754293442,-23.63299,-7.710983,-0.4051675,-0.03868625,-0.1102529,0.8958546,-3.476113,-17.50292,-36.76601,1007.423
33.786573410,-14.64681,-4.188817,-0.0395233,-0.0603315,-0.1464919,0.9305028,-3.476113,-17.50292,-36.76601,1007.423
33.821335792,-8.449443,-3.601789,-0.4661082,-0.08536644,-0.1842266,0.9549976,-3.115983,-16.04885,-36.78999,1007.423
33.853615761,1.032527,-3.8366,-0.100464,-0.09346463,-0.2169738,1.008974,-2.778499,-15.33507,-37.67619,1007.423
33.885894775,11.38213,-4.48233,0.4480024,-0.08096199,-0.1937699,0.9911916,-2.778499,-15.33507,-37.67619,1007.423
33.920658112,22.10357,0.8009198,-0.4051675,-0.0564728,-0.1162233,1.005599,-3.480744,-14.95131,-36.79832,1007.424
33.952937126,20.92607,-0.4905413,-0.4051675,-0.09003896,-0.0414097,0.9766076,-3.479421,-15.68034,-36.78909,1007.424
33.987700462,15.41042,0.7422171,-1.136456,-0.04901516,0.008230682,1.024662,-3.479421,-15.68034,-36.78909,1007.429
34.019980431,5.370683,-0.9014608,-0.6489304,-0.06025806,0.04972174,0.9968824,-4.155174,-16.4077,-37.20547,1007.43
34.054742813,-8.201549,-0.07962187,1.910579,-0.06206145,0.007743827,1.034839,-3.103336,-16.40773,-36.34964,1007.43
34.087022781,-15.45247,-4.48233,2.337164,-0.07600112,-0.04130737,0.9949484,-4.141204,-17.49561,-36.75589,1007.43
34.119301796,-16.13418,-6.947847,1.240232,-0.05361785,-0.1124976,0.9601714,-4.141204,-17.49561,-36.75589,1007.429
34.154065132,-9.441022,-5.773792,0.7527059,-0.06178901,-0.1343077,0.9571643,-3.478098,-16.40937,-36.77985,1007.429
34.186344147,-2.561945,-6.008603,0.7527059,-0.05402238,-0.1361164,0.9880773,-3.781073,-16.04153,-36.77987,1007.427
34.221107483,2.395948,-7.476171,0.8745873,-0.07440615,-0.1008117,0.9989577,-3.781073,-16.04153,-36.77987,1007.431
34.253386497,3.015684,-11.40926,-1.258337,-0.06619333,-0.1047284,0.9786132,-4.143189,-16.40206,-36.76974,1007.431
34.288149834,4.626999,-14.87272,-0.2223454,-0.0483414,-0.09702122,0.9529964,-4.495965,-15.29889,-36.34235,1007.431
34.320428848,9.89476,-11.29185,-1.258337,-0.05949717,-0.06738595,0.9966983,-4.495965,-15.29889,-36.34235,1007.429
34.352708816,6.052393,-16.80991,-5.585128,-0.09589053,-0.0137752,0.9965982,-4.869404,-16.02957,-36.76333,1007.427
34.387471676,-2.252077,-22.26927,-5.280424,-0.0367502,-0.0745668,1.000476,-5.945749,-16.01197,-36.31105,1007.429
34.419751167,2.643842,-17.57305,-3.574084,0.02469136,-0.08794451,0.9993006,-5.945749,-16.01197,-36.31105,1007.429
34.454514027,3.4495,-14.22699,-5.219483,-0.01594513,-0.09351325,0.961165,-5.933764,-16.00633,-35.87533,1007.429
34.486793518,10.82437,-14.4618,-6.438298,0.02803232,-0.07394513,0.9863203,-6.658656,-16.36287,-35.85968,1007.433
34.521556377,7.291867,-10.58742,-5.585128,0.08449343,-0.01708021,1.011177,-6.658656,-16.36287,-35.85968,1007.431
34.553835869,2.457921,-5.9499,-4.122551,0.05496358,-0.007530191,0.9982423,-7.009448,-16.35325,-35.41844,1007.428
34.586115360,-3.615498,-8.239307,-4.853839,-0.002491741,-0.0532708,0.9724839,-6.645348,-17.08627,-35.41473,1007.428
34.620878220,0.9705534,-8.591524,-3.513144,0.01250205,-0.05418925,0.97438,-6.645348,-17.08627,-35.41473,1007.426
34.653157711,-1.880235,-8.180605,-3.635025,0.01833933,-0.05940414,1.00141,-6.634024,-16.71612,-34.98361,1007.423
34.687921047,-0.2069461,-10.58742,-4.183491,0.04008765,-0.05205844,1.008657,-7.733678,-17.0743,-35.39818,1007.421
34.720200062,-2.561945,-8.591524,-2.842796,0.09034194,-0.03886333,1.004273,-7.733678,-17.0743,-35.39818,1007.421
34.754963398,-4.235234,-5.773792,-2.781855,0.07782457,-0.07727705,0.9605718,-8.084471,-17.06468,-34.95693,1007.421
34.787242413,0.2268695,-3.366978,-3.147499,0.1024875,-0.07573183,0.9672956,-7.73434,-16.70979,-35.40279,1007.424
34.819522381,0.8466061,-1.371083,-2.477151,0.06133222,-0.04528649,0.9897955,-7.73434,-16.70979,-35.40279,1007.422
34.854284763,-0.2069461,-2.134219,-2.35527,0.07827069,-0.04811056,0.9989283,-7.723405,-17.06948,-35.0247,1007.422
34.886564732,-1.074577,-2.545139,-2.35527,0.05603057,-0.0550032,0.9829836,-8.097117,-16.7058,-35.39728,1007.419
34.921327114,-2.190103,-3.484383,-3.147499,0.05068576,-0.04241988,0.9879009,-8.097117,-16.7058,-35.39728,1007.419
34.953607082,-4.359182,-3.601789,-1.806804,0.09808339,-0.04370835,0.9960099,-8.109102,-16.71144,-35.833,1007.415
34.985887051,-5.722602,-3.660491,-2.416211,0.03816362,-0.06277264,0.9902294,-8.47188,-16.70745,-35.82749,1007.417
35.020649433,-3.615498,-5.773792,-2.233389,0.07208514,-0.09266961,0.9928869,-8.449621,-16.69698,-35.01828,1007.417
35.052929401,-2.561945,-5.773792,-2.050566,0.07787108,-0.08343708,0.9992116,-8.449621,-16.69698,-35.01828,1007.417
35.087691784,0.1648959,-5.715089,-1.928685,0.09188902,-0.08976996,0.9749736,-8.835318,-16.33894,-35.82659,1007.416
35.119971752,0.9085798,-3.484383,-1.441159,0.09814667,-0.07569841,0.9808414,-8.461217,-15.97278,-35.40099,1007.416
35.154734134,1.59029,-4.306222,-1.258337,0.08121582,-0.07137669,0.9852534,-8.461217,-15.97278,-35.40099,1007.414
35.187014103,2.333974,-4.012708,-0.8317525,0.07495273,-0.07520876,1.002165,-8.822671,-16.69782,-35.38625,1007.414
35.219293594,1.280422,-4.012708,-0.2223454,0.09475694,-0.06839838,0.9958767,-8.811347,-16.32767,-34.95513,1007.412
35.254056454,2.519895,-4.775844,-0.4661082,0.1073025,-0.06505192,0.9731472,-8.811347,-16.32767,-34.95513,1007.415
35.286335945,3.511474,-3.073464,0.02141741,0.09568316,-0.05634818,0.9809567,-8.462268,-16.3381,-35.45863,1007.415
35.321098804,1.962132,-3.777897,-0.5879896,0.08263869,-0.05878222,0.987739,-9.173463,-16.6882,-34.945,1007.415
35.353378296,3.201605,-4.423628,-0.2832861,0.101483,-0.05047859,0.9945138,-9.173463,-16.6882,-34.945,1007.415
35.388141155,0.8466061,-5.245467,-0.4051675,0.09471444,-0.05684634,0.9775718,-9.172801,-17.05272,-34.94039,1007.415
35.420420647,2.643842,-5.245467,-0.9536339,0.1107003,-0.07036383,0.9735931,-9.513981,-16.67375,-34.13028,1007.418
35.452700615,2.395948,-5.656386,-1.075515,0.09763131,-0.06410353,0.9755905,-9.513981,-16.67375,-34.13028,1007.418
35.487462997,6.424235,-6.419522,-1.380219,0.09138464,-0.0791069,0.9803531,-9.174513,-17.05352,-35.00263,1007.418
