Time (s),Gyroscope X (deg/s),Gyroscope Y (deg/s),Gyroscope Z (deg/s),Accelerometer X (g),Accelerometer Y (g),Accelerometer Z (g),Magnetometer X (uT),Magnetometer Y (uT),Magnetometer Z (uT),Barometer (hPa)
0.003697395,1.331286,3.773935,2.526679,0.04923943,-0.8070862,0.4088263,-0.1799507,50.106,-18.23631,1008.134
0.035869598,17.24176,2.41268,1.362226,0.0413668,-0.8569886,0.5415201,0.5646315,50.46503,-19.1346,1008.134
0.070512772,-4.566034,-2.913971,-3.602023,0.06738435,-0.8631515,0.3884327,0.1924686,50.47608,-18.68639,1008.134
0.102684975,2.129881,-2.854786,-1.456978,0.05150184,-0.9464903,0.3970519,0.1924686,50.47608,-18.68639,1008.136
0.134857655,3.235628,-2.026196,-0.9666814,0.06104913,-0.9042154,0.4093613,0.5701532,50.08958,-18.68646,1008.136
0.169504643,1.024133,-2.440491,-1.456978,0.07688195,-0.8828186,0.424814,0.1861773,49.70813,-19.12894,1008.138
0.201677322,1.085564,-2.322121,-0.8441073,0.07365271,-0.9140638,0.4621825,0.1861773,49.70813,-19.12894,1008.138
0.236324787,-3.767439,2.17594,1.913809,0.06927356,-0.8787298,0.4466086,0.1866913,50.47039,-19.13267,1008.132
0.268493176,0.1641077,0.9330544,1.117077,0.08178377,-0.9215084,0.4461392,-0.1854715,50.48145,-18.68445,1008.132
0.303140163,-1.371653,2.41268,1.546087,0.05230432,-0.8997841,0.4118894,-0.1854715,50.48145,-18.68445,1008.132
0.335312843,1.577007,1.9392,0.5654942,0.04448178,-0.9191014,0.4195152,0.1866913,50.47039,-19.13267,1008.13
0.369960308,0.655551,-0.842496,-0.9666814,0.05940694,-0.8811963,0.4351124,0.5641165,49.70276,-19.13088,1008.132
0.402132034,-1.678805,-1.552716,-0.7215333,0.05981217,-0.892396,0.4306782,0.5641165,49.70276,-19.13088,1008.132
0.436779022,-0.2044748,-1.730271,-0.2312371,0.05034893,-0.909449,0.416166,0.5701532,50.08958,-18.68646,1008.132
0.468947888,2.00702,-1.138421,-0.6602463,0.07384042,-0.9220764,0.4303027,0.1922112,50.09494,-18.68452,1008.132
0.503594875,4.648528,0.04527921,-0.1699501,0.06022182,-0.9103618,0.4300443,0.1922112,50.09494,-18.68452,1008.132
0.535767555,2.682755,-0.4282009,-0.4150982,0.05938305,-0.8908893,0.4369607,0.1924686,50.47608,-18.68639,1008.132
0.570414543,0.4712598,-1.197606,-0.3538111,0.05841478,-0.8812061,0.4331935,-0.1917629,49.71349,-19.12701,1008.132
0.602587223,-1.740235,-2.203751,-0.5989593,0.06760951,-0.8967965,0.4315332,-0.1917629,49.71349,-19.12701,1008.132
0.637234688,-2.354539,-2.440491,-0.04737603,0.06019152,-0.9137743,0.4280885,0.9370489,50.83511,-19.58467,1008.132
0.669403076,0.5941206,-1.552716,0.5042072,0.07044493,-0.9191394,0.4313226,0.1866913,50.47039,-19.13267,1008.134
0.701575756,3.358489,-0.0139058,0.4429201,0.0670895,-0.9055275,0.4319481,0.1866913,50.47039,-19.13267,1008.135
0.736317635,-0.9416397,-0.07309081,-0.3538111,0.06147437,-0.877716,0.4471717,0.1927261,50.85721,-18.68825,1008.135
0.768489361,-6.286086,0.04527921,0.1977721,0.07069675,-0.8778071,0.441301,0.1866913,50.47039,-19.13267,1008.135
0.803136349,-10.09477,0.2820193,0.9945034,0.06514379,-0.9059957,0.4329264,0.1866913,50.47039,-19.13267,1008.135
0.835309029,-7.453263,0.6963143,1.423512,0.07033113,-0.9182758,0.4173528,-0.1917629,49.71349,-19.12701,1008.135
0.869952202,-2.600261,0.8738694,1.4848,0.0561501,-0.9206499,0.4150555,0.5701532,50.08958,-18.68646,1008.139
0.902124882,-1.617374,0.04527921,0.5654942,0.05828175,-0.901637,0.4272423,0.5701532,50.08958,-18.68646,1008.135
0.936771870,-2.968843,-0.5465709,0.2590591,0.06455996,-0.8978598,0.4175749,-0.1746864,49.34941,-17.78631,1008.135
0.968944550,-5.303199,-1.020051,0.1977721,0.05774132,-0.9084523,0.4242992,0.198247,50.48176,-18.2401,1008.135
1.003592014,-4.996047,-0.6057559,0.2590591,0.06539857,-0.9144307,0.4092365,0.1979895,50.10063,-18.23825,1008.135
1.035764217,-2.53883,-0.0139058,0.4429201,0.06433397,-0.9280465,0.4052782,0.1979895,50.10063,-18.23825,1008.139
1.070407391,-0.5730572,0.6371294,0.2590591,0.05611936,-0.9153585,0.4088334,0.581708,50.10095,-17.7939,1008.135
1.102580071,-0.6959181,0.1044642,0.1977721,0.06113845,-0.9031671,0.4194911,0.1979895,50.10063,-18.23825,1008.134
1.137227535,-2.170248,0.3412043,0.4429201,0.07322615,-0.9144517,0.4115733,0.1979895,50.10063,-18.23825,1008.134
1.169399262,-1.801666,2.05757,0.9945034,0.05177623,-0.9094896,0.4118144,0.2037678,50.10632,-17.79196,1008.134
1.201571941,-1.740235,0.9922394,0.3816331,0.05758528,-0.9158476,0.4092977,-0.1746864,49.34941,-17.78631,1008.134
1.236218929,-0.6959181,0.4595743,0.3203461,0.05466754,-0.9124388,0.4088711,-0.1746864,49.34941,-17.78631,1008.134
1.268387318,0.7169814,-0.3690159,-0.1699501,0.05656253,-0.9134674,0.4025789,0.198247,50.48176,-18.2401,1008.134
1.303034782,1.392716,-0.7833109,-0.2312371,0.06247476,-0.9115111,0.4083238,0.2037678,50.10632,-17.79196,1008.134
1.335207462,0.2255381,-0.6057559,-0.2312371,0.06054517,-0.9090632,0.409808,0.2037678,50.10632,-17.79196,1008.134
1.369854450,-0.7573485,-0.1914608,0.136485,0.05858356,-0.9163158,0.4121765,0.2037678,50.10632,-17.79196,1008.134
1.402027130,-0.2044748,0.2820193,0.3816331,0.05912789,-0.9065956,0.4141796,0.581708,50.10095,-17.7939,1008.134
1.436674118,-0.5730572,-0.07309081,0.136485,0.05953303,-0.9158611,0.4087974,0.581708,50.10095,-17.7939,1008.134
1.468842983,-0.4501964,0.4595743,0.3203461,0.05663164,-0.9143717,0.4112468,-0.1689625,50.49769,-17.40936,1008.134
1.503489971,0.4712598,0.4003893,0.136485,0.06150904,-0.9119805,0.409775,-0.1739149,50.49282,-17.79189,1008.135
1.535661698,-0.1430444,0.1044642,0.3203461,0.05416931,-0.9100279,0.4064856,-0.1739149,50.49282,-17.79189,1008.135
1.570309162,-0.3273356,-0.1914608,0.07519802,0.05798621,-0.9222156,0.4020115,0.581708,50.10095,-17.7939,1008.135
1.602481842,0.655551,0.1636492,0.136485,0.06535593,-0.9149531,0.4044126,-0.168705,50.87882,-17.41122,1008.134
1.637128830,0.655551,0.04527921,0.07519802,0.05520014,-0.9114336,0.4136944,-0.168705,50.87882,-17.41122,1008.134
1.669297218,-0.2044748,-0.07309081,-0.2312371,0.06350138,-0.9100192,0.4136285,0.581708,50.10095,-17.7939,1008.134
1.703944683,-0.7573485,0.6371294,0.3816331,0.05667819,-0.9109445,0.4151306,0.2136726,50.11606,-17.02691,1008.134
1.736117363,-0.6959181,0.1636492,0.136485,0.06580126,-0.915478,0.3995841,0.2136726,50.11606,-17.02691,1008.135
1.768289566,-0.3273356,0.5779443,0.3203461,0.05604428,-0.9168775,0.4006276,0.5869188,50.48695,-17.41323,1008.135
1.802937031,0.5326902,-0.1914608,-0.2925241,0.05415335,-0.9158452,0.4074017,0.1977329,49.71949,-18.23638,1008.135
1.835109234,1.331286,-0.2506458,-0.3538111,0.05811787,-0.9148424,0.414121,0.1977329,49.71949,-18.23638,1008.135
1.869752407,1.024133,-0.1322758,-0.1699501,0.06054717,-0.9085779,0.409812,0.581708,50.10095,-17.7939,1008.135
1.901924610,0.2255381,-0.664941,-0.1699501,0.05520792,-0.9046565,0.4113401,0.582221,50.86322,-17.79762,1008.135
1.936571598,-0.1430444,-0.3690159,0.01391099,0.06005095,-0.9056814,0.4074305,0.582221,50.86322,-17.79762,1008.135
1.968744278,0.4098293,-0.4873859,-0.108663,0.06537224,-0.9159054,0.4068146,-0.1741724,50.11168,-17.79003,1008.137
2.003391266,0.04124688,-0.4873859,0.07519802,0.05612925,-0.9100303,0.4074312,0.581708,50.10095,-17.7939,1008.139
2.035563946,0.04124688,0.04527921,0.1977721,0.06148075,-0.9149076,0.4078231,0.581708,50.10095,-17.7939,1008.137
2.070207119,-0.08161395,0.4003893,0.3816331,0.054651,-0.906651,0.4040989,0.5869188,50.48695,-17.41323,1008.137
2.102379799,-0.7573485,-0.1322758,0.01391099,0.05461483,-0.914421,0.4035532,-0.1741724,50.11168,-17.79003,1008.139
2.137026787,-0.02018354,0.1636492,0.3203461,0.0565525,-0.9158944,0.402559,0.2042828,50.86858,-17.79568,1008.141
2.169199467,0.1641077,0.2820193,0.1977721,0.05896574,-0.913513,0.3982181,0.2042828,50.86858,-17.79568,1008.141
2.203846932,-0.2044748,-0.07309081,0.01391099,0.05957904,-0.9017959,0.4074669,0.5819654,50.48208,-17.79576,1008.141
2.236019135,-1.125931,-0.1322758,-0.04737603,0.06638858,-0.9120051,0.4097293,0.5814505,49.71981,-17.79204,1008.141
2.268187046,-0.7573485,0.8738694,0.6267812,0.05713149,-0.9085606,0.409844,0.5814505,49.71981,-17.79204,1008.141
2.302834511,-1.863096,0.5187593,0.1977721,0.05853907,-0.9202247,0.4087707,0.5866613,50.10582,-17.41137,1008.141
2.335006714,-0.8802093,0.6371294,0.4429201,0.05363476,-0.9124856,0.4021323,0.5869188,50.48695,-17.41323,1008.139
2.369654179,0.348399,-0.07309081,0.07519802,0.05752463,-0.9217056,0.404912,0.5869188,50.48695,-17.41323,1008.137
2.401826859,0.9627031,-0.3690159,-0.108663,0.05948619,-0.9134859,0.4020695,0.5918722,50.49183,-17.03071,1008.135
2.436473847,0.348399,-1.079236,-0.4150982,0.05709909,-0.9105244,0.4069361,0.582221,50.86322,-17.79762,1008.135
2.468642235,0.04124688,-0.842496,-0.04737603,0.05951463,-0.91346,0.4054434,0.582221,50.86322,-17.79762,1008.135
2.503289700,0.348399,-1.079236,-0.1699501,0.05853686,-0.9168417,0.4068706,0.2084637,49.73005,-17.40758,1008.134
2.535462380,0.655551,-0.724126,-0.1699501,0.0600694,-0.9090496,0.4112586,0.198247,50.48176,-18.2401,1008.132
2.570109368,-0.8802093,-0.2506458,-0.108663,0.0633937,-0.9096336,0.4006188,0.198247,50.48176,-18.2401,1008.132
2.602282047,-1.187361,-0.2506458,0.2590591,0.05654437,-0.9159018,0.401595,0.2092352,50.87346,-17.41316,1008.132
2.636929035,-1.064501,-0.6057559,-0.1699501,0.05605833,-0.9134797,0.4006555,0.5869188,50.48695,-17.41323,1008.132
2.669096947,-0.2659052,-0.2506458,0.01391099,0.05560909,-0.9158599,0.4064241,0.5869188,50.48695,-17.41323,1008.132
2.703744411,-0.02018354,-0.3690159,0.2590591,0.05807911,-0.9114926,0.407883,0.582221,50.86322,-17.79762,1008.132
2.735986233,-0.9416397,-0.4282009,0.136485,0.05666204,-0.9128934,0.4141507,0.9596472,50.09558,-17.79583,1008.132
2.770633221,-1.863096,0.1636492,0.136485,0.05797563,-0.9140046,0.3967773,0.9596472,50.09558,-17.79583,1008.13
2.802805901,0.04124688,0.6963143,0.4429201,0.05899256,-0.9217093,0.4053803,0.5866613,50.10582,-17.41137,1008.13
2.834978580,-0.5730572,-0.3690159,-0.108663,0.05708661,-0.9047329,0.402646,0.5819654,50.48208,-17.79576,1008.13
2.869621754,-1.371653,-0.0139058,0.2590591,0.0598973,-0.9203282,0.3962252,0.5819654,50.48208,-17.79576,1008.13
2.901793957,0.2869685,0.4003893,0.136485,0.0560342,-0.9183374,0.4001337,0.9538698,50.08989,-18.24211,1008.13
2.936441421,1.024133,0.3412043,-0.04737603,0.06092162,-0.9135191,0.3986818,0.2134161,49.73492,-17.02505,1008.128
2.968613148,0.348399,0.2228343,0.136485,0.0590207,-0.9158809,0.40591,0.2134161,49.73492,-17.02505,1008.128
3.003260612,0.1026773,-0.3690159,-0.04737603,0.05656052,-0.9139528,0.4025749,0.5916147,50.11069,-17.02884,1008.128
3.035432816,0.2255381,0.1636492,0.2590591,0.05899839,-0.9163848,0.4034961,-0.1799507,50.106,-18.23631,1008.13
3.070076466,1.331286,-0.0139058,0.07519802,0.06045016,-0.9183374,0.4029844,-0.1799507,50.106,-18.23631,1008.128
3.102248669,-0.1430444,0.04527921,-0.04737603,0.05615558,-0.9085557,0.4098532,0.2089777,50.49232,-17.4113,1008.127
3.136896133,-1.985957,0.5779443,0.2590591,0.05511091,-0.9144161,0.4045126,0.5814505,49.71981,-17.79204,1008.128
3.169068337,-0.5730572,0.5187593,0.07519802,0.0584677,-0.9149704,0.3977287,0.5814505,49.71981,-17.79204,1008.128
3.203715801,0.655551,0.2820193,0.01391099,0.05705861,-0.9134625,0.4035383,0.2037678,50.10632,-17.79196,1008.13
3.235888481,0.348399,0.04527921,0.01391099,0.05710496,-0.9061669,0.405526,0.5814505,49.71981,-17.79204,1008.128
3.270531654,-1.064501,-0.07309081,0.07519802,0.0599742,-0.9144554,0.4025389,0.1977329,49.71949,-18.23638,1008.13
3.302703857,-2.047387,-0.5465709,0.136485,0.05907489,-0.9027753,0.4060176,0.1977329,49.71949,-18.23638,1008.13
3.337351322,-3.030274,-0.3690159,0.5042072,0.06190575,-0.9154509,0.4005847,0.2037678,50.10632,-17.79196,1008.13
3.369523048,-6.286086,0.8738694,0.9945034,0.05412095,-0.9178089,0.4044939,0.9538698,50.08989,-18.24211,1008.13
3.401695728,-5.794642,0.3412043,0.9332163,0.06230874,-0.9223006,0.3937764,0.9538698,50.08989,-18.24211,1008.128
3.436342716,-4.504603,0.5779443,0.9332163,0.04567591,-0.9275748,0.3914782,0.5864038,49.72469,-17.40951,1008.124
3.468511582,-2.723122,0.2820193,0.6880682,0.05586435,-0.9339661,0.3874744,-0.16922,50.11655,-17.4075,1008.127
3.503158569,-0.5116268,0.3412043,0.2590591,0.05691902,-0.9247116,0.3923609,-0.16922,50.11655,-17.4075,1008.127
3.535331249,0.1641077,0.4595743,0.136485,0.05645088,-0.9150197,0.3900351,0.970067,50.86759,-17.0345,1008.127
3.569978237,-0.2044748,-0.1914608,0.01391099,0.0545397,-0.9149729,0.3948734,0.9753313,50.11101,-16.5845,1008.127
3.602150917,-1.187361,-0.1322758,0.3203461,0.05008756,-0.922743,0.3914769,0.9753313,50.11101,-16.5845,1008.127
3.636798382,-1.064501,-0.2506458,0.07519802,0.05594492,-0.9203529,0.3904779,0.970067,50.86759,-17.0345,1008.127
3.668966770,-1.433083,-0.0139058,0.07519802,0.05793501,-0.9140415,0.3919573,0.9698114,50.48645,-17.03264,1008.127
3.703613758,-1.248792,0.1636492,0.3203461,0.04957704,-0.9184089,0.3866974,0.9698114,50.48645,-17.03264,1008.127
3.735785961,-1.187361,0.1636492,0.1977721,0.05786639,-0.9228082,0.3880298,0.9695539,50.10532,-17.03078,1008.125
3.770432949,-1.310222,-0.0139058,0.1977721,0.05296644,-0.9208679,0.3847175,0.2139301,50.49719,-17.02877,1008.125
3.802605629,-1.064501,-0.2506458,0.01391099,0.05638261,-0.930556,0.3894257,0.2139301,50.49719,-17.02877,1008.123
3.837252617,-0.5116268,-0.1322758,0.01391099,0.05152509,-0.924225,0.3890412,0.5866613,50.10582,-17.41137,1008.123
3.869421482,-1.125931,-0.07309081,0.2590591,0.05686806,-0.921373,0.3846769,0.9698114,50.48645,-17.03264,1008.123
3.901593685,-0.7573485,0.6371294,0.5042072,0.05788675,-0.9237568,0.3909137,0.9698114,50.48645,-17.03264,1008.123
3.936241150,-1.801666,1.288164,0.4429201,0.0494977,-0.9160631,0.3761134,0.9755888,50.49214,-16.58636,1008.125
3.968413830,-1.617374,0.6963143,0.3816331,0.05634374,-0.925272,0.3822396,0.5971346,49.73524,-16.5807,1008.125
4.003060818,-1.494514,0.2820193,0.136485,0.04803819,-0.9218547,0.3794533,0.5971346,49.73524,-16.5807,1008.125
4.035233498,0.1026773,-0.1914608,-0.1699501,0.05046186,-0.924783,0.3789245,0.5973921,50.11638,-16.58257,1008.125
4.069876671,1.208425,-0.724126,-0.2312371,0.05048212,-0.9237974,0.3808605,0.5973921,50.11638,-16.58257,1008.127
4.102048397,0.9627031,-0.664941,-0.2925241,0.05199053,-0.920863,0.3847266,0.5973921,50.11638,-16.58257,1008.127
4.136695862,0.5326902,-0.07309081,0.136485,0.05541028,-0.9208765,0.3851766,0.5916147,50.11069,-17.02884,1008.127
4.168868065,-0.5116268,0.04527921,-0.108663,0.0480707,-0.9218251,0.3833092,0.5976496,50.49751,-16.58442,1008.127
4.203515530,-0.2659052,-0.07309081,0.01391099,0.05586195,-0.9267148,0.3836782,0.9755888,50.49214,-16.58636,1008.128
4.235687733,-0.3273356,0.1636492,0.07519802,0.05000445,-0.9262035,0.3832551,0.9755888,50.49214,-16.58636,1008.128
4.270331383,-0.3273356,0.04527921,0.07519802,0.05540034,-0.9252377,0.3861047,0.6034269,50.5032,-16.13815,1008.132
4.302503586,-0.3273356,-0.0139058,-0.108663,0.0509902,-0.9199131,0.3813698,0.2191944,49.74061,-16.57877,1008.132
4.337151051,-0.02018354,0.04527921,-0.2925241,0.05194805,-0.9242865,0.3813248,0.2191944,49.74061,-16.57877,1008.127
4.369323254,0.1026773,-0.07309081,0.07519802,0.05095594,-0.9252635,0.37988,0.9753313,50.11101,-16.5845,1008.128
4.403970718,-0.02018354,0.04527921,0.136485,0.05490822,-0.9233047,0.3846793,0.9692965,49.72419,-17.02892,1008.128
4.436143398,0.4712598,-0.1322758,0.07519802,0.05301529,-0.9227577,0.3914494,0.9692965,49.72419,-17.02892,1008.128
4.468311310,-0.6344877,-0.5465709,-0.108663,0.05292797,-0.9233207,0.3813236,0.9755888,50.49214,-16.58636,1008.128
4.502958298,-1.248792,0.7554994,0.3816331,0.05735401,-0.9218608,0.3846683,0.5864038,49.72469,-17.40951,1008.128
4.535130978,-1.310222,0.2228343,-0.04737603,0.05292596,-0.923806,0.3813196,0.5864038,49.72469,-17.40951,1008.128
4.569777966,-1.187361,0.8738694,0.6267812,0.04745318,-0.9306447,0.3721563,0.9753313,50.11101,-16.5845,1008.128
4.601950646,-0.1430444,-0.1322758,-0.108663,0.0495002,-0.9252487,0.3808577,0.5973921,50.11638,-16.58257,1008.128
4.636597633,0.348399,-0.4282009,-0.3538111,0.05340188,-0.9267209,0.3812912,0.5973921,50.11638,-16.58257,1008.128
4.668766498,0.4712598,-0.6057559,-0.2312371,0.05338161,-0.9277065,0.3793552,0.5973921,50.11638,-16.58257,1008.127
4.703413486,-0.388766,-0.4873859,-0.04737603,0.05244422,-0.9262158,0.3832322,0.2252293,50.12743,-16.13435,1008.127
4.735586166,-0.8802093,-0.07309081,0.1977721,0.0553209,-0.9209577,0.3745728,0.2252293,50.12743,-16.13435,1008.127
4.770233154,-0.6344877,0.1636492,0.1977721,0.05095207,-0.9291356,0.3812941,0.5918722,50.49183,-17.03071,1008.127
4.802405834,-0.6959181,0.1044642,0.136485,0.048998,-0.9247756,0.3789383,1.353528,50.48677,-16.58829,1008.127
4.837053299,-1.187361,0.04527921,0.136485,0.05436755,-0.9252844,0.379366,1.353528,50.48677,-16.58829,1008.127
4.869221210,-0.8802093,-0.0139058,0.07519802,0.04846545,-0.926748,0.374589,1.347236,49.71882,-17.03085,1008.127
4.903868198,-0.08161395,-0.0139058,0.136485,0.05237726,-0.9277274,0.3759904,0.6031694,50.12206,-16.13628,1008.128
4.936040878,0.1641077,-0.3690159,-0.2925241,0.05092354,-0.9272272,0.3769721,0.6031694,50.12206,-16.13628,1008.128
4.968213081,-0.7573485,-0.5465709,-0.04737603,0.05433911,-0.9253103,0.375992,0.9648581,50.48158,-17.41516,1008.128
5.002860546,-0.9416397,-0.3098308,0.07519802,0.05625461,-0.9301888,0.3740059,0.970067,50.86759,-17.0345,1008.13
5.035033226,-0.388766,-0.3690159,-0.04737603,0.05485952,-0.9243161,0.3793694,0.970067,50.86759,-17.0345,1008.13
5.069676399,-0.2659052,-0.07309081,0.1977721,0.05725675,-0.9267849,0.3754707,0.219451,50.12175,-16.58063,1008.13
5.101848602,-0.9416397,-0.0139058,0.1977721,0.0484817,-0.9267333,0.376517,0.6034269,50.5032,-16.13815,1008.13
5.136496067,-1.125931,-0.4282009,-0.1699501,0.05779943,-0.9243197,0.3807879,0.6034269,50.5032,-16.13815,1008.13
5.168668747,-0.7573485,-0.1322758,0.1977721,0.0518225,-0.9321378,0.3701752,0.9753313,50.11101,-16.5845,1008.13
5.203315735,0.2869685,-0.3690159,-0.1699501,0.05334706,-0.9272543,0.3750212,0.6034269,50.5032,-16.13815,1008.13
5.235487461,0.4098293,-0.2506458,-0.108663,0.05140327,-0.9253029,0.3750555,0.6034269,50.5032,-16.13815,1008.132
5.270131588,-0.2659052,-0.4282009,-0.04737603,0.05330854,-0.9287401,0.3711534,0.6031694,50.12206,-16.13628,1008.134
5.302303314,-0.8187789,-0.3690159,0.3816331,0.05339184,-0.9291479,0.3812712,0.9813662,50.49783,-16.14008,1008.134
5.336950779,-1.248792,-0.6057559,0.136485,0.05825508,-0.9282201,0.3788235,0.9813662,50.49783,-16.14008,1008.134
5.369122982,-0.6344877,-0.3098308,0.01391099,0.05870643,-0.9272888,0.374007,0.9813662,50.49783,-16.14008,1008.135
5.403770447,-0.2659052,0.4595743,0.3816331,0.05479276,-0.9296961,0.3740236,0.9753313,50.11101,-16.5845,1008.135
5.435943127,-0.4501964,0.8738694,0.4429201,0.0572384,-0.9253509,0.3725907,0.9755888,50.49214,-16.58636,1008.134
5.470586300,0.04124688,0.04527921,0.01391099,0.04936408,-0.9248889,0.3644739,0.9755888,50.49214,-16.58636,1008.134
5.502758503,0.1641077,-0.2506458,-0.1699501,0.05233072,-0.9311547,0.3721066,0.9811087,50.11669,-16.13822,1008.134
5.534931183,0.4098293,-0.07309081,0.07519802,0.05724437,-0.9229276,0.3721286,0.9698114,50.48645,-17.03264,1008.132
5.569578171,0.5326902,-0.1914608,-0.04737603,0.05916198,-0.929255,0.3710945,0.9698114,50.48645,-17.03264,1008.13
5.601750851,0.4098293,-0.07309081,0.01391099,0.05824235,-0.9175932,0.3721632,0.9755888,50.49214,-16.58636,1008.128
5.636398315,0.2869685,0.2228343,0.136485,0.05482756,-0.9349837,0.3807277,0.5976496,50.49751,-16.58442,1008.128
5.668566227,-0.4501964,0.4595743,0.3203461,0.04501311,-0.9248298,0.369335,0.5976496,50.49751,-16.58442,1008.128
5.703213215,-0.1430444,0.1044642,-0.108663,0.05627076,-0.9282398,0.3749858,0.2136726,50.11606,-17.02691,1008.128
5.735385895,-0.2659052,0.04527921,0.07519802,0.05278005,-0.9307087,0.3672861,0.5973921,50.11638,-16.58257,1008.128
5.770032883,0.4098293,-0.1322758,-0.108663,0.04896981,-0.929637,0.3779345,0.5973921,50.11638,-16.58257,1008.127
5.802205563,0.8398423,0.04527921,-0.04737603,0.04939663,-0.9258265,0.3688039,0.5976496,50.49751,-16.58442,1008.131
5.836852550,0.9627031,-0.1914608,-0.04737603,0.054807,-0.9301667,0.3759476,0.2136726,50.11606,-17.02691,1008.132
5.869021416,0.1641077,-0.3098308,0.01391099,0.05827911,-0.9214283,0.3783973,0.2136726,50.11606,-17.02691,1008.132
5.903668404,-0.388766,-0.0139058,0.136485,0.05333296,-0.929685,0.3745194,0.6031694,50.12206,-16.13628,1008.132
5.935841084,0.1026773,0.4595743,0.01391099,0.05097209,-0.9233145,0.3808599,1.353271,50.10564,-16.58643,1008.128
5.970488071,-0.2044748,0.1636492,0.01391099,0.0503786,-0.9253423,0.3692807,1.353271,50.10564,-16.58643,1008.132
6.002660751,-0.1430444,0.4595743,0.2590591,0.05280452,-0.9326208,0.3711261,0.9813662,50.49783,-16.14008,1008.132
6.037308216,0.1026773,-0.0139058,-0.108663,0.05483514,-0.9243383,0.3764775,0.5973921,50.11638,-16.58257,1008.132
6.069476128,0.2255381,-0.1914608,-0.108663,0.05483544,-0.9301409,0.3793216,0.5973921,50.11638,-16.58257,1008.132
6.101648331,0.4712598,-0.2506458,-0.108663,0.05242176,-0.9238183,0.3793962,0.5973921,50.11638,-16.58257,1008.132
6.136295795,0.1026773,0.5779443,0.136485,0.05188921,-0.9257908,0.3750469,0.9750738,49.72987,-16.58264,1008.131
6.168467999,0.1641077,0.1044642,0.07519802,0.05240168,-0.9286723,0.3793564,0.9750738,49.72987,-16.58264,1008.127
6.203115463,0.04124688,-0.1914608,-0.2312371,0.06165446,-0.927285,0.3763895,0.9811087,50.11669,-16.13822,1008.127
6.235288143,-0.4501964,0.8146844,0.3816331,0.04749547,-0.9233527,0.3736621,0.9758444,50.87328,-16.58822,1008.127
6.269931316,-0.3273356,-0.1322758,-0.2312371,0.05824901,-0.9287092,0.3783376,0.9758444,50.87328,-16.58822,1008.127
6.302103520,-0.02018354,0.3412043,0.07519802,0.04642246,-0.9311733,0.3658956,0.6031694,50.12206,-16.13628,1008.127
6.336750984,0.5326902,-0.2506458,-0.1699501,0.05139534,-0.9291787,0.3759876,0.9811087,50.11669,-16.13822,1008.125
6.368923664,0.7784118,-0.3098308,-0.1699501,0.05386541,-0.9257784,0.3779206,0.9811087,50.11669,-16.13822,1008.125
6.403570652,0.5326902,-0.1322758,-0.108663,0.05093773,-0.9267308,0.3784221,0.5976496,50.49751,-16.58442,1008.125
6.435742378,0.2255381,-0.07309081,-0.108663,0.05678099,-0.9267714,0.3769212,0.219451,50.12175,-16.58063,1008.127
6.470386505,-0.1430444,0.2228343,0.2590591,0.0524034,-0.9223844,0.3765162,0.5979052,50.87865,-16.58629,1008.125
6.502558231,0.348399,-0.07309081,-0.108663,0.05431684,-0.9267812,0.3740521,0.5979052,50.87865,-16.58629,1008.125
6.537205696,0.4098293,0.04527921,0.01391099,0.0548675,-0.9214074,0.3789113,1.347751,50.48109,-17.03457,1008.125
6.569377899,-0.5116268,0.2228343,-0.04737603,0.04940294,-0.9301729,0.37166,0.9698114,50.48645,-17.03264,1008.125
6.601550579,0.04124688,0.04527921,0.01391099,0.04650747,-0.9252931,0.3731733,0.9698114,50.48645,-17.03264,1008.125
6.636198044,0.2255381,-0.2506458,-0.04737603,0.0513993,-0.9272408,0.3755216,0.5973921,50.11638,-16.58257,1008.125
6.668366432,0.2255381,-0.07309081,-0.108663,0.05436138,-0.9238393,0.377932,0.5973921,50.11638,-16.58257,1008.131
6.703013420,0.2255381,-0.0139058,0.01391099,0.04957925,-0.9217919,0.3885975,0.5973921,50.11638,-16.58257,1008.127
6.735186100,-0.6959181,0.2820193,0.2590591,0.04751583,-0.9243013,0.376546,0.9750738,49.72987,-16.58264,1008.127
6.769833565,-0.5730572,-0.1322758,-0.108663,0.05141144,-0.9262626,0.3764935,1.353528,50.48677,-16.58829,1008.127
6.802005768,0.5941206,0.1044642,-0.1699501,0.0573034,-0.9252918,0.3803025,1.353528,50.48677,-16.58829,1008.127
6.836653233,-0.6344877,0.5187593,0.3203461,0.04608026,-0.9213668,0.3785116,0.9811087,50.11669,-16.13822,1008.128
6.868821144,-1.064501,0.1044642,-0.04737603,0.05290785,-0.9272075,0.3808097,0.9816217,50.87896,-16.14194,1008.13
6.903468132,-0.2044748,0.1636492,0.01391099,0.05231432,-0.9282682,0.3687566,0.9816217,50.87896,-16.14194,1008.13
6.935640812,1.146994,-0.3098308,-0.2312371,0.04649137,-0.9282091,0.3726674,0.5976496,50.49751,-16.58442,1008.13
6.970287800,0.7784118,-0.1322758,-0.2925241,0.05190918,-0.9190027,0.3741387,0.219451,50.12175,-16.58063,1008.13
7.002460480,0.348399,0.04527921,0.01391099,0.05339561,-0.9233416,0.3789091,0.219451,50.12175,-16.58063,1008.13
7.037107468,-1.00307,-0.960866,-0.9053944,0.04316771,-0.9401975,0.3894695,1.353784,50.86791,-16.59015,1008.128
7.069276333,2.129881,0.5779443,0.3816331,0.07319815,-0.9149233,0.3503557,0.9750738,49.72987,-16.58264,1008.128
7.103923321,1.454146,0.1044642,-0.04737603,0.05005104,-0.9237433,0.387613,0.9750738,49.72987,-16.58264,1008.127
7.136096001,-1.248792,0.04527921,0.01391099,0.04707026,-0.9189411,0.3790044,0.9811087,50.11669,-16.13822,1008.127
7.168268681,1.577007,-0.0139058,-0.2312371,0.0533452,-0.930641,0.3764394,0.5916147,50.11069,-17.02884,1008.127
7.202915669,2.00702,-0.1322758,-0.4763852,0.04942928,-0.9286982,0.3740819,0.5916147,50.11069,-17.02884,1008.131
7.235087872,4.095654,0.1636492,-0.9053944,0.04995394,-0.9315687,0.3798373,0.2197084,50.50288,-16.58249,1008.131
7.269731522,5.262832,0.5779443,-0.7828203,0.0554347,-0.9218214,0.3885426,0.5971346,49.73524,-16.5807,1008.131
7.301903248,5.139971,0.4595743,-0.8441073,0.05305938,-0.911112,0.391063,0.5971346,49.73524,-16.5807,1008.131
7.336550713,2.744185,0.04527921,-1.089255,0.0520639,-0.9256319,0.3957726,0.5973921,50.11638,-16.58257,1008.129
7.368722916,4.157084,-0.7833109,-2.008561,0.06017601,-0.9601737,0.3905921,0.2197084,50.50288,-16.58249,1008.129
7.403370380,18.5318,1.998385,-0.108663,0.07076398,-0.9448873,0.3655554,0.5866613,50.10582,-17.41137,1008.129
7.435543060,21.05045,2.41268,-3.05044,0.06097258,-0.9168578,0.4063658,0.5866613,50.10582,-17.41137,1008.129
7.470186234,27.37778,0.2820193,-2.866579,0.05242174,-0.8919402,0.422075,0.5866613,50.10582,-17.41137,1008.129
7.502358437,14.90741,1.22898,-3.479449,0.05133648,-0.8669266,0.4550673,0.2037678,50.10632,-17.79196,1008.129
7.537005901,6.245719,-0.960866,-1.885987,0.04556482,-0.8368396,0.4505492,0.2037678,50.10632,-17.79196,1008.127
7.569178581,-2.170248,-2.913971,-3.295588,0.0631026,-0.9060671,0.4223408,0.1924686,50.47608,-18.68639,1008.129
7.603825569,-0.08161395,-1.789456,-2.805292,0.07180344,-0.9250454,0.4216212,-0.1859856,49.71918,-18.68073,1008.129
7.635998249,6.614301,-1.315976,-2.192422,0.07294054,-0.898791,0.428093,-0.1859856,49.71918,-18.68073,1008.129
7.668166161,3.972794,0.6371294,-2.253709,0.0485906,-0.9194181,0.4440562,0.1866913,50.47039,-19.13267,1008.129
7.702813148,11.59017,1.70246,-2.253709,0.07060248,-0.9015877,0.4415878,-0.1915064,50.09463,-19.12887,1008.127
7.735017300,15.27599,-1.020051,-4.827764,0.09204911,-0.9220271,0.4484492,-0.1915064,50.09463,-19.12887,1008.127
7.769664288,16.32031,-0.664941,-5.808356,0.08304072,-0.8956287,0.4670668,-0.5752239,50.09431,-19.57322,1008.125
7.801836967,23.87625,-6.228333,-7.892115,0.04442386,-0.9153603,0.5270324,-0.5867805,50.08294,-20.46578,1008.125
7.836483955,41.26105,-9.838618,-8.933994,0.08394469,-0.9189103,0.4697584,-0.5867805,50.08294,-20.46578,1008.129
7.868652821,38.86526,-5.873222,-7.095384,0.1039885,-0.8701738,0.5085332,-0.2206535,49.68507,-21.35841,1008.129
7.903299808,-22.13513,-1.375161,-25.05248,0.04525796,-0.9314892,0.5760556,-0.9941235,49.29762,-22.69153,1008.131
7.935471535,7.597188,-6.760998,-44.60304,0.08511698,-1.313179,0.4515551,-0.9941235,49.29762,-22.69153,1008.131
7.970118999,17.18033,-14.33668,-75.18527,0.09347281,-0.8783651,0.8874153,-1.348951,49.32573,-20.90447,1008.129
8.002291679,-112.2535,-34.99225,-104.603,0.08981471,-0.8078925,0.7082447,-3.610554,49.74475,-20.44845,1008.129
8.036938667,-172.7011,-12.85705,-136.7787,0.2656673,-1.222539,0.17395,-3.610554,49.74475,-20.44845,1008.129
8.069107056,-136.58,21.707,-163.2547,0.3795815,-1.219861,-0.03483266,-6.927248,49.49559,-13.86248,1008.128
8.103754520,-142.9688,56.15267,-185.5632,0.4333096,-1.081857,0.02026965,-12.09897,49.30737,-4.589163,1008.126
8.135927200,-128.4097,66.92435,-182.6214,0.3765907,-0.8850888,0.2605288,-12.09897,49.30737,-4.589163,1008.126
8.170574188,-99.66032,71.24485,-174.838,0.3249653,-0.6714106,0.05310233,-19.25325,46.45135,2.539524,1008.126
8.202746868,-52.3589,76.74905,-158.9033,0.1902649,-0.4657584,0.01026469,-26.00208,42.34803,6.994165,1008.126
8.234919071,-50.57742,62.24873,-148.791,0.4192474,-0.4426885,0.1283361,-26.00208,42.34803,6.994165,1008.122
8.269562721,-16.11495,53.19342,-117.2895,0.4032429,-0.4769637,0.3311246,-31.66977,35.95497,7.501085,1008.122
8.301734924,-17.58928,18.09671,-93.38752,0.6309467,-0.3889571,0.4979433,-35.09242,30.26922,6.20756,1008.122
8.336382389,-24.65378,-8.418178,-73.6531,1.002751,-0.4970833,0.3113868,-35.09242,30.26922,6.20756,1008.122
8.368554115,-7.576124,-5.518112,-42.51928,1.167584,-0.2967615,0.08496044,-37.36288,26.10897,6.239632,1008.122
8.403201580,-130.867,61.36095,-15.73685,0.9969161,-0.3304254,-0.1735223,-38.86515,23.09274,7.154814,1008.122
8.435373783,-169.3224,129.0094,-7.524393,0.9383041,-0.5171368,-0.3798465,-38.86515,23.09274,7.154814,1008.122
8.470016956,-100.0289,210.3888,29.00267,0.7097006,-0.2811921,0.2354072,-38.49928,22.31374,6.264042,1008.126
8.502189636,54.71431,-328.5499,-56.55401,0.5391577,-1.510786,-2.160482,-39.29632,19.99869,3.218863,1008.126
8.536836624,157.3645,60.23644,-17.26903,2.887438,-0.9280675,0.5225714,-39.25118,19.66223,6.727213,1008.126
8.569009304,108.8959,76.80824,72.7616,-1.208603,-0.3233667,0.2018673,-39.25118,19.66223,6.727213,1008.126
8.603656769,-29.07677,-83.05048,26.18347,1.156064,-0.5076646,0.6747426,-38.17983,19.96553,1.87422,1008.126
8.635828972,83.46375,-5.399742,61.17836,0.8475934,-0.9295303,0.4659193,-38.17251,22.25802,2.309336,1008.128
8.670472145,216.7063,-82.10352,57.80758,0.7438879,-0.8437273,0.5109742,-38.17251,22.25802,2.309336,1008.128
8.702644825,369.9752,-71.74614,89.79939,0.930956,-0.6812801,0.04495645,-37.42716,23.76044,1.405464,1008.126
8.734842300,397.496,-25.40427,93.66048,0.7586659,-0.4480403,0.2195968,-36.34272,26.36192,-2.566134,1008.126
8.769489288,341.6558,-6.938553,118.6043,0.4832576,-0.1420408,0.5736569,-36.34272,26.36192,-2.566134,1008.125
8.801661968,219.2864,14.13131,138.4,0.4641471,0.1082467,0.7918344,-34.56069,28.13355,-11.00068,1008.123
8.836308956,0.9012727,20.04982,158.8699,0.4199299,0.267884,0.5048454,-31.99384,28.78027,-17.13836,1008.123
8.868477821,-133.017,16.1436,153.354,0.2470022,-0.3665303,0.326263,-31.99384,28.78027,-17.13836,1008.123
8.903124809,-52.3589,25.31728,135.3357,0.3547175,-1.231433,0.1479817,-28.61313,30.99683,-18.8883,1008.123
8.935296535,126.3422,67.45701,141.4031,0.2537988,-0.8263958,0.4284483,-24.42913,37.43897,-17.21984,1008.123
8.969944477,73.38916,68.16723,103.0374,0.170209,-0.6904525,0.6944847,-24.42913,37.43897,-17.21984,1008.123
9.002116680,4.341376,65.08961,102.731,0.138467,-0.4935775,0.7127919,-19.58212,40.73198,-22.55334,1008.123
9.036763668,-94.31586,42.30338,84.34485,0.03461798,-0.6185544,0.5522248,-14.65576,42.58013,-26.54119,1008.123
9.068932056,-68.45367,86.21866,76.50011,0.6055638,-1.171587,0.643558,-14.65576,42.58013,-26.54119,1008.121
9.103579521,14.72312,40.6462,-14.87884,0.09939107,-1.162043,0.7997075,-8.990898,44.78072,-27.02764,1008.121
9.135752201,397.2503,76.27557,8.348946,0.1809375,-2.097173,-0.1944516,-2.608752,48.45612,-30.58561,1008.121
9.170399189,226.1052,5.786225,-42.887,0.1503985,0.7914796,0.7560506,-2.608752,48.45612,-30.58561,1008.121
9.202571869,29.89643,4.957635,-2.866579,-0.04144305,-0.2481133,1.020154,-2.332448,50.63604,-38.56801,1008.125
9.237218857,79.77792,0.8146844,1.852522,-0.003755502,-0.314447,1.065527,-1.267837,40.96635,-43.37231,1008.125
9.269387722,-13.90346,-3.505822,0.07519802,0.07401886,-0.2319007,0.9310043,-1.267837,40.96635,-43.37231,1008.125
9.301559925,-22.13513,-11.55498,-0.4763852,0.08088804,-0.2971826,0.967034,-2.0476,39.81095,-45.14798,1008.125
9.336207390,-49.47167,-8.950843,0.8106423,0.1232851,-0.3979543,0.8925437,-2.048114,39.04868,-45.14426,1008.125
9.368379116,-19.61649,-0.664941,1.791235,0.1263706,-0.5283145,0.8581823,-2.048114,39.04868,-45.14426,1008.125
9.403027058,0.5326902,1.169795,1.117077,0.1050095,-0.4415856,0.8875345,-1.652069,40.20377,-43.81294,1008.127
9.435198784,7.597188,1.998385,1.239651,0.09597236,-0.4084434,0.8994601,-2.02423,40.21482,-43.36472,1008.127
9.469841957,-0.08161395,0.8738694,0.6267812,0.1073573,-0.3977142,0.9134203,-2.02423,40.21482,-43.36472,1008.127
9.502014637,-0.9416397,0.2820193,0.7493553,0.08983541,-0.3937166,0.9169907,-2.023716,40.97709,-43.36845,1008.127
9.536661625,-4.443173,-1.020051,0.07519802,0.09993929,-0.414692,0.9099755,-2.023973,40.59595,-43.36658,1008.127
9.568834305,-1.801666,-1.730271,-0.4150982,0.09941031,-0.4069897,0.901368,-2.023973,40.59595,-43.36658,1008.125
9.603481770,-2.4774,-1.730271,-0.04737603,0.104288,-0.4094339,0.9022663,-2.023973,40.59595,-43.36658,1008.131
9.635653973,-3.153135,-0.842496,-0.5989593,0.1158692,-0.4173479,0.890525,-2.02423,40.21482,-43.36472,1008.133
9.670297146,-1.555944,0.6963143,-0.108663,0.09744679,-0.4166619,0.9046806,-2.017938,40.98278,-42.92216,1008.133
9.702469826,-2.723122,-0.842496,-1.211829,0.0944134,-0.4157761,0.8917022,-2.017938,40.98278,-42.92216,1008.133
9.737117290,-1.740235,-1.315976,-1.456978,0.1039233,-0.3972301,0.9110463,-2.029494,40.97141,-43.81473,1008.133
9.769289494,-10.27906,-0.842496,-1.640839,0.1115628,-0.4133798,0.8987919,-2.401913,40.60132,-43.36465,1008.134
9.803936958,-6.90039,-0.5465709,-1.211829,0.1007851,-0.4128809,0.8935946,-2.401913,40.60132,-43.36465,1008.134
9.836109638,-10.1562,0.04527921,-0.8441073,0.1036285,-0.4323151,0.8929258,-2.401399,41.36359,-43.36837,1008.134
9.868277073,-7.084681,0.2228343,-0.9666814,0.1141571,-0.4480311,0.875828,-2.39562,41.36928,-42.92209,1008.134
9.902924538,-0.6959181,1.761645,-0.04737603,0.1029583,-0.444084,0.8769291,-2.39562,41.36928,-42.92209,1008.138
9.935097218,1.577007,-0.3098308,0.5654942,0.09327216,-0.4401,0.8838003,-2.389542,41.81962,-42.47798,1008.137
9.969744205,4.341376,5.4903,7.061919,0.02310245,-0.4357527,0.8358089,-2.400841,42.18938,-43.3724,1008.137
10.001916885,3.727072,-6.760998,4.794299,0.1196437,-0.4339264,0.8831232,-2.400841,42.18938,-43.3724,1008.137
10.036563873,-2.231678,-4.748707,11.96488,0.123119,-0.4479129,0.8969534,-1.639441,41.8032,-42.92813,1008.138
10.068732739,2.314172,0.3412043,14.84537,0.1365535,-0.5056967,0.8394758,-2.389799,41.43848,-42.47612,1008.137
10.103379726,30.87931,9.278141,18.76774,0.1130503,-0.5747656,0.8053856,-2.389799,41.43848,-42.47612,1008.137
10.135552406,38.68097,21.707,21.15793,0.1152326,-0.4184851,0.9314915,-1.628185,41.36991,-42.03339,1008.137
10.170199394,35.11801,36.79917,20.23863,0.04648374,-0.3431745,0.9602279,-0.5116577,41.40027,-43.37835,1008.137
10.202372074,-10.34049,47.92595,16.80655,0.02534712,-0.1325227,1.072539,-0.5116577,41.40027,-43.37835,1008.137
10.237019062,-79.57257,54.96897,14.60022,0.05581568,-0.237339,1.032349,0.6155691,40.17155,-43.82454,1008.137
10.269187927,-79.08112,61.30177,13.86478,0.06510866,-0.5461798,0.8937926,2.911841,39.78664,-41.60288,1008.135
10.303834915,-21.02938,83.3186,23.6707,-0.0324869,-0.6360446,0.8216624,2.911841,39.78664,-41.60288,1008.137
10.336007595,25.04343,100.6006,23.30298,-0.0761261,-0.5321252,0.8629324,5.220941,42.52487,-38.56761,1008.137
10.368179321,29.77357,113.5621,23.54813,-0.1047023,-0.3853395,0.933817,7.860742,42.4816,-39.02743,1008.137
10.402827263,-14.3949,123.3869,27.53178,-0.187776,-0.3526327,0.9044958,7.860742,42.4816,-39.02743,1008.137
10.434999466,-37.43131,128.8319,33.10891,-0.2559139,-0.4342605,0.8495108,11.65036,40.4701,-38.14459,1008.138
10.469642639,-40.56426,134.4544,40.76978,-0.3256785,-0.4391788,0.7961372,15.45839,40.0637,-35.93066,1008.138
10.501814842,-59.54626,134.7504,51.61758,-0.4202857,-0.4100828,0.731708,15.45839,40.0637,-35.93066,1008.138
10.536462307,-77.6068,128.8319,63.8137,-0.4932764,-0.5235024,0.5791422,19.66113,40.04931,-32.44545,1008.137
10.568634510,-67.40935,122.2032,77.11298,-0.5788282,-0.5662175,0.5236763,24.69429,40.03467,-28.07186,1008.137
10.603281975,-45.11011,118.0602,88.75751,-0.6355676,-0.5785546,0.3978202,24.69429,40.03467,-28.07186,1008.137
10.635454655,-20.6608,112.6152,103.3438,-0.6565447,-0.5948856,0.4065573,29.29833,40.41879,-22.80531,1008.137
10.670097828,-15.0092,113.0295,112.353,-0.7687783,-0.329886,0.3953293,33.49534,39.25613,-19.69704,1008.137
10.702270031,-31.1654,106.6375,109.35,-0.9031065,-0.1722523,0.4200542,38.46315,36.95476,-15.37572,1008.141
10.736922264,-59.54626,92.19634,97.64413,-0.8256276,-0.3858815,0.3356302,38.46315,36.95476,-15.37572,1008.141
10.769094467,-15.50065,92.31471,94.76364,-0.8834122,-0.3596285,0.2409499,43.04728,33.51049,-11.42941,1008.137
10.803741932,-15.56208,84.56148,75.76466,-0.9772562,-0.08760765,0.2079182,46.50498,31.23222,-6.97284,1008.137
10.835913658,-14.94777,79.82668,67.18448,-0.9602758,-0.189295,0.1871594,46.50498,31.23222,-6.97284,1008.137
10.870556831,1.146994,76.92661,53.76263,-0.9300886,-0.09182654,0.1317693,48.8157,27.81447,-3.461206,1008.137
10.902729511,5.201402,78.16949,47.63393,-0.9731529,-0.1453246,0.02713624,50.74951,25.92663,0.04491806,1008.137
10.934902191,10.17727,70.53463,33.78306,-0.9600023,-0.07823425,0.0497386,50.74951,25.92663,0.04491806,1008.137
10.969549179,16.93461,60.11807,27.89951,-0.9826878,-0.04013702,0.00302841,52.28862,23.64678,2.279751,1008.137
11.001721859,26.51776,55.2649,24.09971,-0.9891849,-0.07837195,-0.1129061,51.92698,22.14466,3.62797,1008.137
11.036368847,32.4765,48.10351,20.60635,-1.000964,-0.02957155,-0.08636586,51.92698,22.14466,3.62797,1008.142
11.068537712,26.51776,42.24419,22.32239,-0.9909629,-0.08151443,-0.2069053,52.7052,21.01327,5.414806,1008.142
11.103184700,19.76041,32.65622,23.85456,-0.9856922,-0.002436203,-0.08242865,51.97084,19.90253,7.145622,1008.142
11.135357380,-5.241768,16.26197,38.44088,-1.001762,-0.09505871,-0.2078802,51.97084,19.90253,7.145622,1008.142
11.170004368,-10.64764,14.54561,51.49501,-0.9371887,-0.08656775,-0.1351488,52.73879,20.66543,8.030598,1008.142
11.202177048,-11.20052,20.8784,61.36222,-0.9995731,-0.05765523,-0.1396303,53.12147,19.14121,8.482386,1008.142
11.236824513,7.84291,39.93598,65.40716,-0.9870142,-0.004755003,-0.006279517,53.12147,19.14121,8.482386,1008.141
11.268992901,3.051337,58.28333,76.37753,-0.9613732,0.138534,-0.1022194,54.26557,17.23081,9.378448,1008.141
11.303639889,22.40192,77.51846,85.38673,-1.207844,0.2799247,-0.1161059,54.28713,14.96675,11.17474,1008.141
11.335812092,-10.34049,86.81051,81.03535,-1.155499,0.1314404,-0.2031324,54.28713,14.96675,11.17474,1008.142
11.370459080,-14.76348,80.59608,77.35813,-1.31999,0.2066555,-0.1855534,54.70237,11.57016,14.24976,1008.142
11.402631760,-32.70117,56.4486,82.26109,-1.456008,0.2557715,-0.1351974,52.84529,8.582045,16.952,1008.141
11.434804440,-46.093,-1.079236,36.78613,-1.392457,0.2863944,0.0374999,52.84529,8.582045,16.952,1008.141
11.469447613,-161.275,-90.62616,-38.6582,-0.8266564,0.09035334,0.1568881,50.21968,5.21135,18.70365,1008.141
11.501619816,-1.863096,-105.304,-43.56116,-0.8903978,-0.04671574,-0.1612848,46.04321,2.585415,17.39911,1008.139
11.536267281,161.5418,-47.30273,-63.90845,-0.9741929,0.001033542,-0.6324688,46.04321,2.585415,17.39911,1008.139
11.568439961,193.9156,-40.43727,-40.49681,-1.228459,0.5238982,-0.6551876,44.86374,2.17572,13.90028,1008.137
11.603086949,35.3023,-74.88295,-39.88394,-1.072641,0.6778526,-0.4799245,44.07684,6.345628,11.26975,1008.137
11.635259628,-129.024,-70.38489,-48.95442,-0.9089065,0.5166914,-0.3135992,44.07684,6.345628,11.26975,1008.137
11.669902801,-217.0538,-63.34187,-69.30172,-0.8917275,0.3025132,-0.2562392,44.80037,9.730984,8.571449,1008.135
11.702075481,-216.931,-59.02136,-77.94319,-0.8446986,0.172849,-0.1719511,43.65577,10.87912,7.679108,1008.134
11.736722469,-177.6155,-52.80694,-83.94932,-0.7455807,0.07029928,0.000280404,43.66784,11.65276,8.567947,1008.134
11.768895149,-120.9152,-51.97835,-78.61735,-0.7206755,0.004426236,0.03420891,43.66784,11.65276,8.567947,1008.132
11.803542137,-76.07104,-56.83152,-69.66944,-0.7354766,0.07636667,0.0383141,42.91299,13.18803,8.564371,1008.13
11.835713863,-68.20794,-55.29271,-64.03104,-0.7691593,0.03835921,-0.002654897,42.14735,15.85533,7.662653,1008.13
11.870357990,-55.55328,-49.84769,-56.98302,-0.7999049,0.009012315,0.01136804,42.14735,15.85533,7.662653,1008.128
11.902529716,-41.23999,-43.75163,-56.86044,-0.8522748,-0.06437131,0.0286037,42.14235,16.99304,7.210791,1008.132
11.937177181,-25.32951,-36.47187,-57.71846,-0.8754633,-0.09982509,0.07383575,40.99248,18.89776,5.868446,1008.132
11.969349384,-19.00218,-28.77782,-57.77975,-0.8668775,-0.1421567,0.1288366,40.99248,18.89776,5.868446,1008.131
12.001522064,-23.85518,-11.14069,-56.43143,-0.7778805,-0.1815641,0.1112933,40.61583,20.8088,5.861078,1008.131
12.036169529,-12.79771,11.11288,-41.41611,-0.7109496,-0.2920437,0.115542,39.10014,22.34993,5.478844,1008.129
12.068337917,27.74636,28.27653,-20.33338,-0.7661029,-0.4068683,0.1700579,39.10014,22.34993,5.478844,1008.127
12.102984905,130.1509,26.56017,-16.90131,-1.167019,-0.6338919,0.3064051,38.73422,24.27153,6.30028,1008.125
12.135157585,255.2846,9.574066,-26.52337,-1.252181,-0.4185846,0.2887308,37.96235,25.02829,5.025339,1008.125
12.169805050,304.3061,-11.14069,-36.20672,-1.004778,-0.1258134,0.1452001,37.96235,25.02829,5.025339,1008.124
12.201977253,298.5316,-20.19599,-43.00958,-1.000916,0.004655437,0.1351536,36.75527,26.49584,-0.7141953,1008.124
12.236694813,179.9709,-33.51262,-45.89007,-0.9896354,0.1994177,0.2219679,35.90879,27.94096,-7.794507,1008.124
12.268863201,56.12721,-45.76392,-46.31908,-0.9299219,0.1195327,0.2236441,35.90879,27.94096,-7.794507,1008.122
12.303510189,-7.207542,-29.19212,-29.15871,-0.8558363,0.01321846,0.2061704,34.70646,27.88966,-13.08032,1008.122
12.335682869,-65.01356,-15.52038,-8.995282,-0.8501784,0.0139391,0.2403455,32.79366,27.89376,-14.85577,1008.12
12.370330334,-132.2184,-6.524258,14.17121,-0.876165,-0.08469226,0.2735148,32.79366,27.89376,-14.85577,1008.12
12.402502537,-174.9126,-6.405888,27.04149,-0.9145496,-0.2506221,0.2575631,32.43408,29.44072,-13.52244,1008.118
12.437150002,-152.429,-8.714103,35.9894,-0.9126091,-0.4140137,0.219084,32.85793,30.24229,-10.0216,1008.118
12.469318390,-77.91395,-7.056922,37.64415,-0.908654,-0.456987,0.1878449,32.85793,30.24229,-10.0216,1008.117
12.501490116,-7.391833,-0.842496,37.15385,-0.9458218,-0.3853448,0.2017963,33.66003,30.27703,-6.455226,1008.118
12.536137581,27.25492,3.83312,32.98633,-0.9407162,-0.2469004,0.21976,34.06001,29.91245,-4.733931,1008.117
12.568310261,33.76654,6.91074,25.26416,-0.9628966,-0.1943204,0.2261844,34.06001,29.91245,-4.733931,1008.117
12.602957249,37.32951,10.99451,15.6421,-0.9598044,-0.1937019,0.2454406,35.18727,28.74726,-5.18043,1008.117
12.635129929,34.44228,17.09056,9.329538,-0.9572319,-0.1665137,0.2480507,35.92613,27.95802,-6.455665,1008.115
12.669773102,20.06756,19.57634,3.813707,-0.9547173,-0.1582374,0.2529155,35.92613,27.95802,-6.455665,1008.117
12.701945782,6.368579,26.26424,-1.089255,-0.9305106,-0.2305484,0.2067856,35.9201,27.5712,-6.900084,1008.115
12.736592770,-3.644578,15.84768,-7.279244,-0.9418878,-0.1544151,0.4422531,36.30882,26.4338,-6.003875,1008.115
12.768765449,-26.12811,11.58636,-11.38548,-0.8812929,-0.2276959,0.5456774,36.30882,26.4338,-6.003875,1008.113
12.803412437,-18.14215,14.78235,7.674789,-0.9722064,-0.1045145,0.4106534,35.93609,26.82517,-5.621275,1008.115
12.835585117,-58.07193,-3.801747,14.04864,-0.9645438,-0.167512,0.3657186,36.32584,27.21231,-4.732509,1008.113
12.870228291,-19.2479,3.35964,11.78102,-0.8998554,-0.3376504,0.2480325,37.09276,26.45067,-3.840095,1008.113
12.902400970,10.11584,5.904595,12.39389,-0.9306412,-0.2973998,0.2235876,37.09276,26.45067,-3.840095,1008.113
12.937047958,26.02631,6.55563,10.12627,-0.9437859,-0.2499162,0.2043398,36.71534,27.21831,-3.841882,1008.117
12.969220638,7.597188,8.567921,5.100734,-0.8727043,-0.1841718,0.1526446,36.71508,26.83718,-3.840021,1008.115
13.003867626,14.35453,17.20893,-0.04737603,-1.006289,-0.2530645,0.259363,36.71508,26.83718,-3.840021,1008.115
13.036040306,56.98724,24.78462,-10.71132,-0.9682509,-0.3155825,0.1702867,37.47044,26.06417,-3.840167,1008.115
13.068208694,72.34484,23.83766,-10.3436,-0.9643627,-0.1571176,0.2660288,37.83657,25.6663,-4.732801,1008.115
13.102855682,15.95173,16.08442,-14.87884,-0.9422396,-0.01688052,0.2756544,37.83657,25.6663,-4.732801,1008.115
13.135027885,-35.21981,18.80693,-20.33338,-0.8652329,-0.07485852,0.2339699,37.45889,26.0528,-4.732728,1008.114
13.169675350,-76.68534,22.23966,-22.72358,-0.8741431,-0.1894235,0.1000767,37.08749,27.20726,-4.290096,1008.114
13.201847553,-60.22199,24.0744,-27.62654,-0.8202578,-0.3480013,0.02693069,37.08749,27.20726,-4.290096,1008.114
13.236511707,-13.65773,32.83377,-31.48762,-0.7598422,-0.2512288,0.02668275,36.73871,27.62218,-2.058619,1008.114
13.268680096,13.86309,29.93371,-41.35483,-0.7765263,-0.1743803,0.03662996,35.63899,28.05272,0.5592518,1008.114
13.303327560,47.71124,15.13746,-40.74196,-0.8484743,-0.1240011,0.1032686,35.63899,28.05272,0.5592518,1008.114
13.335499764,56.37293,-14.81016,-39.02592,-0.8620752,-0.04661699,0.2476693,34.87836,29.58231,0.1093941,1008.114
13.370147228,7.658618,-47.77621,-38.29048,-0.947467,-0.06560382,0.3741114,33.35638,30.35549,-0.7153969,1008.112
13.402319908,-51.25315,-59.43566,-36.88087,-0.8876753,-0.1226901,0.3740469,33.35638,30.35549,-0.7153969,1008.114
13.436966896,-92.41152,-69.91141,-37.92276,-0.7471256,-0.2074851,0.3575764,32.95662,32.24379,-2.507891,1008.112
13.469135285,-82.02979,-66.24194,-40.74196,-0.6884852,-0.3633367,0.3263423,31.82306,32.64103,-2.503949,1008.112
13.503782749,-64.70641,-57.42337,-45.52235,-0.6566303,-0.4286157,0.315867,31.82306,32.64103,-2.503949,1008.112
13.535955429,-45.17154,-49.37421,-47.78997,-0.6194454,-0.5093927,0.2502661,30.70734,33.81759,-1.164888,1008.11
13.570602417,-7.268972,-32.92077,-46.62551,-0.4489152,-0.6559642,0.1727566,29.20188,34.60701,-0.7145939,1008.11
13.602774143,37.75952,-30.73093,-51.52847,-0.7101818,-0.5876611,0.1757576,29.20188,34.60701,-0.7145939,1008.11
13.634946823,32.59936,-26.8839,-62.43756,-0.5758349,-0.6259857,0.3279459,26.92397,36.53352,-1.604856,1008.11
13.669589996,-2.293109,-22.62258,-63.35687,-0.6514833,-0.5352659,0.3992896,25.38358,36.9077,-3.830384,1008.104
13.701762676,-23.60946,-32.86159,-65.44064,-0.7871661,-0.6269349,0.383412,25.38358,36.9077,-3.830384,1008.11
13.736502647,-25.75953,-16.82245,-70.83389,-0.7907219,-0.7531071,0.1953892,22.67579,38.08958,-3.822107,1008.112
13.768674850,-27.84816,16.85382,-69.66944,-0.9153526,-0.8309273,0.09420867,20.40866,38.88406,-3.814225,1008.114
13.803322315,-27.41815,48.28106,-50.79303,-1.005988,-0.795094,0.1507797,20.40866,38.88406,-3.814225,1008.115
13.835494995,-31.10397,60.05888,-45.64492,-0.9839417,-0.7589311,0.259804,17.40377,40.84973,-2.469215,1008.115
13.870138168,-39.6428,61.36095,-49.62857,-1.010566,-0.8547199,0.1575609,15.53718,40.89931,-0.6744232,1008.115
13.902310371,32.96795,-11.37743,-45.64492,-1.050625,-1.225495,0.3900937,15.53718,40.89931,-0.6744232,1008.117
13.936957836,139.304,-28.54108,-38.6582,-0.8584365,-0.8137434,0.4712248,14.04274,42.14395,0.6025066,1008.119
13.969130039,57.90869,-65.41335,-26.70723,-0.8855155,-0.5556765,0.4340811,11.74704,42.14855,-1.553539,1008.121
14.003777504,-49.90168,-83.81989,-20.82368,-0.7351517,-0.6964526,0.2767956,10.18906,42.12454,-5.116049,1008.121
14.035950184,-43.39006,-79.38101,-20.39467,-0.6881477,-0.830863,0.186079,10.18906,42.12454,-5.116049,1008.124
14.070593357,-10.7705,-71.62777,-26.95238,-0.7051061,-0.8321186,0.2011689,9.811374,42.51104,-5.115975,1008.124
14.102765560,6.921453,-73.34414,-38.29048,-0.6772494,-0.8946371,0.2943835,7.927711,42.92471,-4.661886,1008.124
14.134937763,52.50282,-65.88683,-46.74809,-0.6128162,-0.8335274,0.2668121,7.927711,42.92471,-4.661886,1008.126
14.169584751,72.77486,-62.86839,-52.14135,-0.578306,-0.647279,0.3345414,6.771865,43.30002,-6.379313,1008.126
14.201757431,64.23603,-81.27493,-56.86044,-0.4849547,-0.8183853,0.5506055,3.335738,43.31422,-9.039592,1008.126
14.236404419,138.5054,-57.7193,-20.88496,-0.3241295,-1.127709,0.3841209,3.335738,43.31422,-9.039592,1008.128
14.268573284,279.9796,-45.52718,23.60942,-0.3312092,-0.6573524,0.8242742,0.6389856,43.30145,-12.97883,1008.128
14.303220272,130.2737,-63.93372,60.0752,-0.3425972,-0.1144002,1.29736,-1.736785,43.22728,-21.31905,1008.128
14.335392952,-35.95698,-85.89136,76.86783,-0.2531869,-0.2740624,0.9804638,-1.736785,43.22728,-21.31905,1008.128
14.370039940,-55.92186,-98.02428,69.14567,-0.1949035,-0.4017079,0.8930718,-0.6785851,41.16889,-27.05313,1008.128
14.402212620,-49.22595,-113.1757,54.25293,-0.1701062,-0.4757878,0.7437739,0.8282099,42.34865,-27.51303,1008.129
14.436860085,0.9627031,-117.3186,38.44088,-0.1029097,-0.5418717,0.5257023,0.8282099,42.34865,-27.51303,1008.131
14.469028473,67.67613,-109.9205,26.73505,-0.01925167,-0.5676113,0.3887856,3.09187,44.97869,-27.98394,1008.131
14.503675461,83.03374,-91.45475,18.89031,0.1106911,-0.4560935,0.5832202,4.952991,44.16197,-30.15754,1008.131
14.535848141,46.6055,-62.63165,2.404105,0.1693754,-0.5645527,0.5923825,4.952991,44.16197,-30.15754,1008.131
14.570495606,42.73538,-42.33119,15.33567,0.3528553,-0.4974358,0.7912535,5.654763,40.98748,-34.16274,1008.131
14.602667809,-24.46949,-31.6187,20.17734,0.2333431,-0.4257525,0.8204337,5.636197,37.92216,-35.42294,1008.129
14.637315273,-141.9244,-9.010028,8.165085,0.17565,-0.2989086,0.8041837,5.636197,37.92216,-35.42294,1008.131
14.669483662,-212.9994,-15.87549,-9.485578,0.2059357,-0.8011981,0.6440744,6.774508,36.00608,-34.97316,1008.135
14.701656341,-136.4571,11.17206,-35.40999,0.2871851,-1.054062,0.4465038,8.349772,37.18973,-30.14114,1008.135
14.736303329,-18.87932,41.06049,-42.33542,0.3152847,-0.8107073,0.3624519,8.349772,37.18973,-30.14114,1008.137
14.768475532,8.518644,47.92595,-34.91969,0.1181014,-0.5044793,0.733618,8.421412,41.89426,-24.87217,1008.137
14.803122520,-74.16669,18.09671,-53.42837,0.01946319,-0.8086584,0.8154167,8.416408,43.03197,-25.32403,1008.135
14.835295200,-24.77664,14.13131,-38.04533,0.004286085,-0.9086148,0.6836303,8.416408,43.03197,-25.32403,1008.135
14.869938374,-9.726189,4.06986,-32.59078,0.01165726,-0.737942,0.6652067,8.4227,43.79992,-24.88147,1008.137
14.902111053,-21.70512,-29.13293,-52.08006,0.1438816,-1.118221,0.8464076,6.912227,45.72707,-24.88304,1008.137
14.936758041,88.43961,16.1436,-17.45289,0.1485033,-0.8718222,0.6382441,6.523248,46.48333,-25.77739,1008.137
14.968930721,52.93283,-14.39586,-37.43246,0.132374,-0.4499086,0.8958866,6.523248,46.48333,-25.77739,1008.137
15.003577709,3.727072,9.159771,-13.83696,-0.08556632,-0.5858337,0.7526817,4.982341,46.09525,-27.9992,1008.137
15.035750389,-39.15136,14.42724,-8.750134,0.2222414,-0.5468495,0.719283,4.208922,44.56521,-29.26297,1008.137
15.070393562,-47.81305,0.5779443,-7.463106,0.03768027,-1.130285,0.4091616,4.208922,44.56521,-29.26297,1008.137
15.102566242,73.32773,6.91074,-5.379347,0.07878605,-0.8167723,0.6195865,3.481622,45.36583,-27.09518,1008.137
15.137213230,71.36195,2.708605,-2.989153,0.08136898,-0.6291792,0.7782407,3.83645,45.33772,-28.88223,1008.137
15.169385910,42.12108,-1.789456,-1.640839,0.1835931,-0.5579426,0.8294481,3.83645,45.33772,-28.88223,1008.137
15.201558590,16.99604,4.3066,2.587966,0.08491436,-0.5512612,0.814036,3.057256,43.80199,-30.59229,1008.137
15.236205578,1.024133,0.4595743,-2.498857,0.1353115,-0.5866897,0.8470136,3.411826,43.39275,-32.37749,1008.135
15.268373966,19.51469,15.84768,-15.24656,0.122225,-0.8740424,0.6481109,3.411826,43.39275,-32.37749,1008.135
15.303021431,64.42032,15.67012,-12.05963,0.07730018,-0.5534641,0.8381888,3.417603,43.39843,-31.93121,1008.135
15.335194111,0.2255381,5.076005,-2.866579,0.09365921,-0.1666435,0.971847,3.400012,43.00024,-33.26819,1008.135
15.369841099,-84.54843,3.95149,2.036383,0.1040388,-0.5275765,0.8135708,3.400012,43.00024,-33.26819,1008.135
15.402013779,-94.68445,4.957635,3.93628,0.08836537,-0.7020077,0.7168431,3.01578,42.23766,-33.70881,1008.137
15.436660767,-60.95916,2.590235,1.607374,0.06312535,-0.7959795,0.6623199,3.440717,43.42117,-30.14608,1008.137
15.468828678,-28.5239,-0.6057559,0.3816331,0.09179658,-0.7913963,0.6457022,3.440717,43.42117,-30.14608,1008.137
15.503476620,-8.927593,2.88616,1.05579,0.09157774,-0.7703557,0.6675677,3.46981,44.97332,-27.98588,1008.137
15.535648346,-3.398856,6.200521,1.300938,0.08768903,-0.7843459,0.6761647,3.470325,45.73559,-27.9896,1008.137
15.570295811,10.853,2.471865,0.01391099,0.0898003,-0.69237,0.7087151,3.470325,45.73559,-27.9896,1008.137
15.602468491,4.341376,1.761645,0.5654942,0.07875919,-0.6728053,0.7210295,3.86534,45.36614,-26.65083,1008.137
15.637115478,-9.849049,-0.724126,0.4429201,0.0816016,-0.6728976,0.7108802,4.226205,45.72485,-27.99347,1008.137
15.669283867,-13.7806,-0.664941,0.5042072,0.08601876,-0.727986,0.6824288,4.226205,45.72485,-27.99347,1008.132
15.703931332,-7.453263,-0.842496,0.4429201,0.0809514,-0.7498928,0.6707276,3.848006,45.34909,-27.98967,1008.137
15.736104011,-0.8187789,-1.079236,0.07519802,0.08256265,-0.7318741,0.6795371,4.238017,46.11735,-27.10277,1008.137
15.768276215,-1.00307,-0.7833109,-0.2312371,0.07878622,-0.7167481,0.687409,4.238017,46.11735,-27.10277,1008.137
15.802923679,-4.688895,-1.907826,-0.2925241,0.08657108,-0.7153572,0.6839738,3.859818,45.74159,-27.09897,1008.137
15.835095882,-5.610351,-2.262936,0.136485,0.08602067,-0.7255664,0.6814848,4.243796,46.12304,-26.65649,1008.137
15.869739532,-5.671782,-1.315976,0.2590591,0.09373904,-0.7353581,0.675548,4.243796,46.12304,-26.65649,1008.133
15.901911736,-3.521717,-0.3690159,0.2590591,0.09270631,-0.7363719,0.6692833,4.23776,45.73622,-27.10091,1008.133
15.936559200,-2.170248,0.2228343,0.3203461,0.08835524,-0.7343787,0.6731964,4.23224,46.11167,-27.54905,1008.137
15.968731403,-0.9416397,0.1044642,0.07519802,0.08399611,-0.7333599,0.6766195,4.23224,46.11167,-27.54905,1008.137
16.003378868,-1.985957,-0.2506458,-0.04737603,0.08980089,-0.7358533,0.6717247,3.488431,46.89604,-26.65634,1008.137
16.035551548,-1.740235,0.1636492,-0.04737603,0.08250783,-0.7324076,0.6732672,4.238017,46.11735,-27.10277,1008.132
16.070194721,-1.985957,-0.1914608,-0.2312371,0.08688316,-0.7324445,0.671298,3.493693,46.13946,-26.20634,1008.136
16.102366924,-1.924526,-0.0139058,-0.04737603,0.08439464,-0.7324765,0.665537,3.493693,46.13946,-26.20634,1008.136
16.137014389,-1.740235,-0.2506458,0.136485,0.08827424,-0.7392881,0.6659266,3.487659,45.75264,-26.65076,1008.136
16.169187069,0.2869685,0.2820193,0.07519802,0.08337077,-0.7479895,0.6673467,3.865598,45.74728,-26.65269,1008.136
16.203834057,0.9012727,0.1636492,0.136485,0.0883227,-0.7334412,0.6688664,3.865598,45.74728,-26.65269,1008.136
16.236005783,-0.9416397,0.04527921,0.07519802,0.08634655,-0.7344206,0.6664668,3.871633,46.13409,-26.20827,1008.134
16.270649910,-1.494514,0.04527921,0.136485,0.08736108,-0.7348739,0.6712735,3.871633,46.13409,-26.20827,1008.136
16.302821636,-0.6959181,-0.2506458,0.136485,0.08684709,-0.7421487,0.6717004,3.871633,46.13409,-26.20827,1008.136
16.334994316,-0.388766,-0.07309081,-0.1699501,0.08682453,-0.7378171,0.6669163,3.865855,46.12841,-26.65455,1008.136
16.369641304,-0.9416397,-0.1322758,-0.04737603,0.08641973,-0.7353212,0.6756166,3.487916,46.13377,-26.65262,1008.136
16.401813984,-1.064501,0.04527921,-0.04737603,0.08244713,-0.7372984,0.6684074,3.487916,46.13377,-26.65262,1008.136
16.436461449,-0.5116268,-0.1322758,0.01391099,0.08776838,-0.7465554,0.6673175,3.877412,46.13978,-25.76199,1008.136
16.468629837,-0.08161395,0.04527921,-0.04737603,0.08973785,-0.7344599,0.6635428,3.865598,45.74728,-26.65269,1008.134
16.503276825,0.1641077,-0.07309081,0.07519802,0.08388863,-0.7368426,0.6655057,3.865598,45.74728,-26.65269,1008.136
16.535449505,-1.310222,0.04527921,0.07519802,0.08483639,-0.742676,0.6649668,3.87189,46.51523,-26.21013,1008.136
16.570096970,0.4098293,0.1044642,0.1977721,0.08876405,-0.7359039,0.6645039,3.115497,45.7637,-26.20254,1008.136
16.602269173,-0.7573485,-0.07309081,-0.108663,0.08584636,-0.7334621,0.6645513,3.115497,45.7637,-26.20254,1008.136
16.636916637,-0.7573485,-0.3098308,-0.1699501,0.09115939,-0.7407922,0.6615494,3.871633,46.13409,-26.20827,1008.136
16.669085026,-0.388766,-0.1914608,-0.04737603,0.08382827,-0.7485031,0.6639642,3.488173,46.51491,-26.65448,1008.137
16.703732014,1.331286,-0.0139058,-0.04737603,0.08482827,-0.7426834,0.6640028,3.488173,46.51491,-26.65448,1008.137
16.735904694,0.655551,-0.1914608,0.07519802,0.0863607,-0.732957,0.6674427,3.865855,46.12841,-26.65455,1008.136
16.770552158,-0.8802093,-0.0139058,0.01391099,0.08682648,-0.7363646,0.6664463,3.877669,46.52091,-25.76385,1008.134
16.802724361,-1.555944,-0.0139058,-0.108663,0.08533624,-0.7368648,0.6635641,3.877669,46.52091,-25.76385,1008.134
16.834897041,-0.1430444,-0.2506458,-0.2312371,0.08484226,-0.7383185,0.6635567,4.249831,46.50986,-26.21207,1008.134
16.869540215,-0.4501964,0.2820193,0.07519802,0.08729637,-0.7407356,0.6664058,3.487916,46.13377,-26.65262,1008.134
16.901712894,-0.2659052,-0.07309081,-0.04737603,0.0881972,-0.7422595,0.6581909,3.487916,46.13377,-26.65262,1008.134
16.936359882,0.4712598,0.04527921,-0.04737603,0.08433439,-0.7460713,0.6649435,3.493436,45.75833,-26.20448,1008.134
16.968532085,0.655551,-0.1322758,-0.04737603,0.0912099,-0.735427,0.6649671,4.627513,46.12336,-26.21214,1008.134
17.003180027,-0.3273356,-0.07309081,0.07519802,0.08431594,-0.742703,0.6611155,4.627513,46.12336,-26.21214,1008.132
17.035351753,0.348399,-0.1322758,-0.108663,0.08731473,-0.7421696,0.6692858,3.487916,46.13377,-26.65262,1008.132
17.069994926,-0.8802093,-0.0139058,-0.108663,0.08732095,-0.7445818,0.6711939,3.488173,46.51491,-26.65448,1008.132
17.102167606,0.2255381,0.3412043,-0.04737603,0.08977868,-0.7382913,0.6702589,3.488173,46.51491,-26.65448,1008.132
17.136814594,-0.7573485,0.04527921,-0.04737603,0.08779852,-0.7402416,0.6678513,3.487916,46.13377,-26.65262,1008.136
17.168987274,-0.7573485,0.04527921,0.01391099,0.08630231,-0.7431651,0.6654311,3.493436,45.75833,-26.20448,1008.134
17.203634262,0.5326902,-0.3098308,-0.04737603,0.08771169,-0.7504755,0.6624656,3.871633,46.13409,-26.20827,1008.134
17.235806942,2.252742,-0.07309081,-0.04737603,0.08728208,-0.7392979,0.6640078,3.871633,46.13409,-26.20827,1008.134
17.270450115,0.7784118,0.1044642,0.01391099,0.08100548,-0.734853,0.669887,3.493693,46.13946,-26.20634,1008.134
17.302622795,-0.6344877,-0.3098308,-0.2925241,0.08245149,-0.7430973,0.6717336,3.487916,46.13377,-26.65262,1008.134
17.337269783,-0.4501964,0.5187593,-0.1699501,0.07714831,-0.7294718,0.6728594,3.487916,46.13377,-26.65262,1008.134
17.369442463,1.024133,0.9922394,0.5654942,0.09475808,-0.7043753,0.6656719,3.493693,46.13946,-26.20634,1008.134
17.401615143,-14.08775,-0.3098308,1.362226,0.06778373,-0.6976319,0.7045392,3.115754,46.14483,-26.2044,1008.134
17.436262131,-5.733212,-0.2506458,-0.2925241,0.09244231,-0.8095936,0.6151802,3.115754,46.14483,-26.2044,1008.134
17.468430996,7.105744,0.2228343,0.1977721,0.0804262,-0.7363843,0.6597579,3.505507,46.53196,-25.31564,1008.134
17.503077984,2.129881,-0.3690159,-0.2925241,0.07991808,-0.7393016,0.6587745,3.493436,45.75833,-26.20448,1008.133
17.535250664,-2.600261,-0.07309081,0.07519802,0.0887134,-0.7383677,0.6596642,3.493436,45.75833,-26.20448,1008.133
17.569897652,-0.388766,0.1044642,0.1977721,0.08624367,-0.7485376,0.6610494,3.493693,46.13946,-26.20634,1008.131
17.602070332,-1.125931,-0.1914608,0.2590591,0.08571696,-0.7451854,0.6548159,3.499473,46.14515,-25.76006,1008.131
17.636717319,-1.371653,0.1044642,-0.04737603,0.08392318,-0.7372947,0.6698396,3.499473,46.14515,-25.76006,1008.131
17.668886185,-3.95173,0.1044642,0.3816331,0.08769716,-0.7442023,0.6576976,3.50525,46.15083,-25.31378,1008.129
17.703533173,-3.767439,-0.724126,0.01391099,0.08664049,-0.7539422,0.6528071,3.883189,46.14546,-25.31571,1008.129
17.735705852,-0.388766,-0.4873859,0.3203461,0.08162151,-0.7680679,0.6430975,3.883189,46.14546,-25.31571,1008.131
17.770352840,3.174198,-1.197606,-0.3538111,0.08363622,-0.7665698,0.649839,3.127311,46.1562,-25.31184,1008.131
17.802525043,8.825796,-1.079236,-0.7215333,0.08365878,-0.7709014,0.6546232,3.877412,46.13978,-25.76199,1008.131
17.837172985,21.17331,-3.801747,-3.602023,0.0741532,-0.8344154,0.6575622,3.877412,46.13978,-25.76199,1008.133
17.869340420,37.14521,4.06986,-10.58874,0.1276309,-0.950922,0.6898426,3.499988,46.90741,-25.76378,1008.133
17.901513100,81.49798,-16.76326,-50.67046,0.1853617,-1.228642,0.8417363,3.488431,46.89604,-26.65634,1008.131
17.936161041,169.0977,-15.93467,-44.23532,0.01148163,-0.8566509,0.8179875,3.488431,46.89604,-26.65634,1008.13
17.968332767,138.8125,-29.36967,-62.37628,0.1556047,-0.7426476,0.8402365,1.941798,45.35969,-29.25509,1008.13
18.002980232,-3.398856,-56.53559,-86.09436,0.2470582,-0.285354,1.223451,-0.3680849,42.68417,-32.35443,1008.128
18.035152912,-185.54,-76.71768,-113.1832,0.3688382,-0.5524933,1.15215,-0.3680849,42.68417,-32.35443,1008.13
18.069796085,-280.5114,-79.55856,-157.8002,0.5885367,-0.9047105,0.8112428,-4.13199,40.02346,-30.98291,1008.13
18.101968288,-266.8124,-85.47707,-196.2271,0.5067519,-0.8323679,0.5094246,-9.285608,40.99569,-20.37633,1008.13
18.136615753,-216.8081,-79.08508,-218.3517,0.7283038,-0.8534771,0.0545858,-9.285608,40.99569,-20.37633,1008.128
18.168788433,-124.7239,-46.05984,-213.1423,0.6893598,-0.776234,-0.08756786,-17.88686,42.47804,-8.47911,1008.128
18.203435421,-29.19963,-28.83701,-191.6919,0.6160871,-0.471401,-0.06942911,-25.71281,38.06573,0.3822441,1008.128
18.235608101,-19.12504,-21.79399,-168.3415,0.7285383,-0.1856043,-0.00835433,-32.1012,32.47978,3.566996,1008.128
18.270251274,-73.30666,15.67012,-140.2721,0.7248596,-0.3090617,-0.09609769,-32.1012,32.47978,3.566996,1008.126
18.302423954,-95.48305,54.79142,-110.1189,0.6750767,-0.3841833,-0.1767464,-36.64136,25.30267,3.625557,1008.124
18.337070942,-169.1381,118.5929,-84.74605,0.6514982,-0.4170905,-0.1792077,-38.9013,19.62925,4.557631,1008.124
18.369243622,-193.096,188.9638,-45.82878,0.6246146,-0.3972082,-0.135895,-38.9013,19.62925,4.557631,1008.123
18.403890610,-149.1118,252.1142,0.3816331,0.3207801,-0.5126648,0.11711,-42.35233,14.67735,1.028982,1008.121
18.436063290,-113.4207,251.404,35.80553,-1.168109,-0.5768307,4.623673,-42.08432,11.89766,-7.31175,1008.119
18.468231678,556.908,-375.0693,-64.64391,1.160235,-0.8217606,0.858648,-42.08432,11.89766,-7.31175,1008.121
18.502879143,176.4694,77.99194,-22.96872,2.031099,-0.3146954,0.6450325,-40.61224,12.97979,-10.44903,1008.119
18.535051346,143.297,28.92757,100.8311,-0.8926023,0.3193459,0.7937025,-41.0185,12.57641,-12.61289,1008.119
18.569698811,-72.87666,-53.51716,66.44904,0.5790824,-0.1808175,1.020221,-41.0185,12.57641,-12.61289,1008.119
18.601870537,0.04124688,-43.04141,117.3786,0.6520496,-0.9748892,0.5632879,-38.40733,12.88586,-15.30597,1008.119
18.636518478,329.0011,-54.64167,139.5645,0.5451022,-0.7789167,0.2270557,-38.36483,15.97472,-12.19689,1008.117
18.668686390,420.041,-57.54174,180.0752,0.5997188,-0.09917816,0.4162737,-38.36483,15.97472,-12.19689,1008.117
18.703333378,366.1665,-9.010028,209.493,0.6146865,0.228274,0.5292115,-37.64156,18.97894,-14.89333,1008.117
18.735506058,89.11535,26.67854,218.4409,0.4117714,0.32392,0.842783,-35.0742,20.38793,-21.03473,1008.116
18.770153522,-177.4926,-7.175292,237.5624,0.4645645,-0.09227683,0.5318256,-35.0742,20.38793,-21.03473,1008.118
18.802325726,-169.8138,-27.29819,243.8137,0.4611024,-0.9423766,0.1243081,-31.32132,22.59343,-23.23288,1008.114
18.836973190,3.051337,-3.742562,199.8709,0.4244516,-1.562511,0.1860536,-25.97782,32.85355,-19.8037,1008.118
18.869141579,136.6011,39.99516,181.4848,0.5977375,-0.8230232,0.6469865,-25.97782,32.85355,-19.8037,1008.118
18.903789043,69.27332,66.80598,124.5491,0.3528043,-0.8595259,0.728019,-19.1871,40.36253,-21.21457,1008.118
18.935961246,54.83717,80.65527,92.74117,0.09130242,-0.7889817,0.6437988,-12.027,43.28776,-27.89729,1008.118
18.968133926,-14.02632,75.50617,76.86783,0.1771311,-0.5415773,0.8074713,-12.027,43.28776,-27.89729,1008.118
19.002780914,-166.9881,1.288164,67.79736,0.08365158,-1.139843,3.796146,-5.659239,42.75933,-32.32735,1008.116
19.034953594,-249.9191,-32.44729,33.5992,0.08487185,-0.7397775,-0.02957088,0.7431364,43.40759,-34.14907,1008.118
19.069596767,-33.06975,25.55402,-23.94932,-0.1545101,-1.150572,0.4869436,0.7431364,43.40759,-34.14907,1008.118
19.101769447,28.97497,-8.714103,-5.501921,0.07292137,-1.121734,0.5337411,2.7391,48.05587,-26.21177,1008.119
19.136416435,84.26234,20.28655,-7.340532,0.006936801,-0.7019514,0.6086715,1.605796,48.83424,-26.20969,1008.121
19.168589115,49.49273,4.010675,-9.914587,0.1615078,-0.6410843,0.7966748,1.605796,48.83424,-26.20969,1008.121
19.203236580,4.709959,2.64942,-3.173014,0.1316592,-0.5274087,0.7901784,1.58217,48.04924,-27.9911,1008.121
19.235408783,-42.65289,0.3412043,4.671725,0.08756441,-0.6984214,0.6778381,1.553847,47.64049,-30.15688,1008.121
19.270051956,-26.00525,0.5187593,5.100734,0.09417461,-0.8470379,0.6071434,1.954072,47.65704,-28.43745,1008.121
19.302224636,-5.364629,2.05757,2.465392,0.07226821,-0.8217347,0.6012904,1.954072,47.65704,-28.43745,1008.125
19.336872101,9.25581,1.22898,0.6880682,0.07877219,-0.752024,0.6447024,1.954072,47.65704,-28.43745,1008.119
19.369044304,0.7169814,-0.2506458,-0.04737603,0.07437795,-0.708037,0.6812559,1.954329,48.03818,-28.43931,1008.119
19.403691769,-9.296175,-3.032341,-1.150542,0.08570907,-0.7500283,0.656222,1.954329,48.03818,-28.43931,1008.125
19.435864449,-3.95173,-1.967011,-2.192422,0.09404968,-0.7954469,0.6254038,1.965629,47.66842,-27.54489,1008.125
19.470507622,5.815706,1.169795,-1.273116,0.0884367,-0.7700513,0.6420535,1.966144,48.43068,-27.54861,1008.125
19.502679825,5.815706,0.4003893,-1.640839,0.07736931,-0.7529284,0.6524199,1.966144,48.43068,-27.54861,1008.125
19.534852028,8.948657,-1.138421,-2.989153,0.08852535,-0.7554636,0.645547,1.960109,48.04387,-27.99303,1008.125
19.569499016,7.474327,-1.730271,-2.927866,0.08877805,-0.731539,0.6640579,2.33805,48.0385,-27.99496,1008.125
19.601671696,6.921453,-3.446637,-4.398755,0.08280049,-0.766921,0.666714,2.33805,48.0385,-27.99496,1008.125
19.636318684,13.00307,-1.789456,-7.034097,0.1018012,-0.7467338,0.6532071,1.953816,47.27591,-28.43559,1008.127
19.668487549,9.25581,-1.138421,-7.095384,0.06928632,-0.7319001,0.6676107,1.954072,47.65704,-28.43745,1008.127
19.703134537,17.54892,-1.434346,-11.07904,0.06870838,-0.8315573,0.6470326,1.954072,47.65704,-28.43745,1008.129
19.735307217,39.97101,3.24127,-8.872707,0.1125853,-0.7525462,0.6617345,1.187207,47.27609,-29.26053,1008.129
19.769954205,30.94074,1.761645,-0.9666814,0.1908787,-0.5647429,0.7705201,0.8034906,47.27578,-29.70487,1008.13
19.802126884,-16.79069,3.773935,0.9332163,0.09564861,-0.6716126,0.6977457,0.8034906,47.27578,-29.70487,1008.13
19.836773872,2.375603,5.549485,-0.3538111,0.1022455,-0.7259827,0.63795,0.4077024,46.50182,-31.03806,1008.13
19.868942738,1.269855,5.01682,0.136485,0.1043901,-0.6905539,0.7018459,0.7969408,46.12669,-30.14557,1008.13
19.903589725,3.788502,4.602525,2.281531,0.1128776,-0.7092427,0.6755847,0.7969408,46.12669,-30.14557,1008.132
19.935762405,-10.03334,6.08215,4.549151,0.1176056,-0.7243958,0.6648117,1.163323,46.10995,-31.04007,1008.134
19.970409393,-6.408947,8.804661,10.0037,0.1154204,-0.7690865,0.6586797,1.54704,46.11027,-30.59572,1008.134
20.002582073,25.04343,11.46799,14.04864,0.1001206,-0.8373511,0.6712737,1.54704,46.11027,-30.59572,1008.134
20.037229538,35.11801,18.21508,22.62882,0.1132513,-0.6441794,0.8048115,1.553334,46.87822,-30.15316,1008.134
20.069397926,-10.52478,30.05208,27.71564,0.07824633,-0.5675195,0.8414381,2.292136,47.23156,-31.49773,1008.136
20.101570606,-59.79198,35.61547,33.47663,0.03511118,-0.6356264,0.7935612,2.292136,47.23156,-31.49773,1008.136
20.136217594,-66.73361,48.04432,40.95364,0.06155228,-0.7738646,0.6967389,3.438024,47.98909,-30.61469,1008.136
20.168390274,-33.06975,58.75681,49.53383,-0.004787453,-0.839238,0.673683,5.745025,47.61473,-27.56423,1008.137
20.203037262,-17.28213,59.40785,51.86274,-0.05189062,-0.8078059,0.6281097,5.745025,47.61473,-27.56423,1008.136
20.235353947,3.112768,63.96509,57.685,-0.08153619,-0.8752093,0.6172267,9.181664,48.36279,-24.90767,1008.141
20.269997120,29.15926,71.71833,67.24577,-0.1347725,-0.792333,0.6299747,11.46689,48.72876,-23.58229,1008.139
20.302169800,38.37382,78.99809,71.16814,-0.1804599,-0.7416467,0.6274449,11.46689,48.72876,-23.58229,1008.139
20.336816788,35.24087,85.86355,76.50011,-0.240044,-0.6611976,0.6990359,14.48964,47.54242,-23.59218,1008.139
20.368989468,30.57216,93.26167,86.06088,-0.3372054,-0.6298127,0.6780293,17.89476,45.59331,-23.21775,1008.137
20.403636456,23.32337,96.93114,95.31522,-0.3849703,-0.5830994,0.6624721,21.67865,43.63964,-22.78151,1008.137
20.435809136,17.48748,99.4761,102.731,-0.4513358,-0.6523274,0.5800988,21.67865,43.63964,-22.78151,1008.136
20.470452309,24.61341,106.4007,112.5982,-0.5128033,-0.5519425,0.592104,27.05462,41.68066,-21.01448,1008.136
20.502624989,8.150062,127.5298,118.3591,-0.5707439,-0.5834135,0.5649111,31.98911,38.90215,-19.24116,1008.136
20.537271977,37.57523,150.9671,130.8004,-0.6547658,-0.5371365,0.5323367,31.98911,38.90215,-19.24116,1008.136
20.569444657,85.55238,156.057,113.4562,-0.5706662,-0.3521968,0.4622227,36.5493,35.43433,-17.14373,1008.136
20.601617336,73.2663,167.7756,95.92809,-0.8003858,-0.1723171,0.1000115,40.3721,31.23365,-13.57235,1008.136
20.636264324,6.798593,150.9671,89.18652,-0.991738,-0.1584012,0.1448097,40.3721,31.23365,-13.57235,1008.138
20.668433189,1.392716,134.0993,81.7095,-0.9632919,-0.1931544,0.06231787,44.56622,27.02111,-10.51295,1008.138
20.703080177,-42.34574,99.41692,71.71972,-1.039371,-0.1758077,0.05979678,48.03965,23.61568,-4.775712,1008.138
20.735252857,-20.29222,73.84899,72.08744,-1.010094,-0.1696314,-0.001639423,48.03965,23.61568,-4.775712,1008.138
20.769899845,-28.46246,55.02816,63.3234,-0.989785,0.0151915,0.0609087,49.22367,20.98281,-0.7519627,1008.138
20.802072525,-11.44624,53.19342,62.58796,-1.011614,-0.07835542,0.06371517,51.14515,17.94019,1.867182,1008.134
20.836719990,8.641505,48.81373,57.74629,-1.008603,0.04646616,0.01314218,51.14515,17.94019,1.867182,1008.138
20.868888378,9.870113,49.93824,53.76263,-0.9786636,0.03445993,-0.07688806,52.68452,16.04148,4.100153,1008.138
20.903535366,7.535758,47.80758,44.75344,-0.9827267,0.08555558,-0.06245093,53.45593,13.37986,5.448154,1008.138
20.935708046,-7.760416,40.88294,47.63393,-0.9963806,0.05040659,-0.1604592,53.45593,13.37986,5.448154,1008.138
20.970355034,-4.934617,33.72155,50.02412,-0.9591575,0.1508907,-0.1349141,53.099,11.50149,7.180758,1008.134
21.002527714,-17.2207,33.1297,55.41738,-1.000691,-0.08184554,-0.3191231,53.10952,9.988325,8.080765,1008.132
21.037175179,0.04124688,25.73158,64.18142,-0.9378427,0.1834119,0.004934912,53.10952,9.988325,8.080765,1008.132
21.069343567,-38.78278,63.66917,51.61758,-1.101784,-0.289537,0.06281556,53.88697,7.713527,9.873182,1008.132
21.103990555,45.43832,48.57699,86.67376,-1.112191,0.3040804,-0.06908136,53.51796,5.061518,10.71695,1008.136
21.136163235,51.64279,36.44406,90.41226,-1.023668,0.1626923,-0.09372696,53.51796,5.061518,10.71695,1008.134
21.168335438,105.2715,39.99516,99.29888,-0.9697909,0.3434603,-0.1578093,53.90564,2.399585,11.6206,1008.134
21.202982903,119.3391,53.6669,95.74423,-1.164023,0.2317813,-0.1627016,53.15897,-1.072032,12.53409,1008.134
21.235155106,199.1987,40.11353,90.47355,-1.251297,0.3754216,-0.222881,53.15897,-1.072032,12.53409,1008.134
21.269798756,171.125,1.761645,53.27234,-1.390015,0.3928812,-0.1881848,51.3087,-2.529929,15.67516,1008.134
21.301970482,22.70907,-80.50552,-33.14237,-1.17865,-0.1364639,-0.215247,49.05236,-2.867482,16.58119,1008.134
21.336618424,70.4405,-91.33638,-82.96873,-0.8522372,-0.05987288,-0.1434334,49.05236,-2.867482,16.58119,1008.134
21.368790627,100.6643,-96.84058,-62.37628,-0.9273718,0.1760136,-0.2555035,47.50773,-0.2121825,13.89821,1008.134
21.403437615,74.55634,-87.60773,-25.29763,-0.9855703,0.3919328,-0.4912882,45.94792,4.396064,9.93054,1008.134
21.435610294,21.11188,-88.67306,-20.76239,-1.071395,0.3788386,-0.4192593,45.94792,4.396064,9.93054,1008.133
21.470253468,-45.97013,-79.91367,-31.1199,-1.060337,0.426989,-0.4623455,44.76493,8.553474,5.899349,1008.133
21.502426148,-110.0421,-85.71381,-44.17403,-0.9934576,0.4232193,-0.3415368,44.3484,10.04439,2.833628,1008.131
21.537073136,-173.6225,-75.17887,-59.55708,-0.9508001,0.4086477,-0.252403,44.69822,11.154,0.5947113,1008.131
21.569245815,-227.067,-74.58702,-68.4437,-0.8820895,0.2621055,-0.07687647,44.69822,11.154,0.5947113,1008.129
21.603892803,-233.3329,-68.78689,-65.07291,-0.8656079,0.00466415,0.03459924,43.93733,12.30246,0.1467152,1008.129
21.636065483,-198.4404,-61.86224,-58.33133,-0.8932106,0.05577075,0.03527813,43.20663,15.385,1.920818,1008.129
21.668233871,-179.0284,-62.63165,-60.53767,-0.8636774,0.0539217,0.06631728,43.20663,15.385,1.920818,1008.127
21.702881336,-158.8178,-46.77007,-50.54788,-0.8137666,0.1089244,0.05570102,42.0859,17.69927,2.808016,1008.126
21.735054016,-149.1118,-35.40654,-47.85125,-0.8345692,0.09468632,0.08421572,40.58096,19.25097,3.254591,1008.126
21.769701004,-114.6493,-29.96152,-44.60304,-0.8544644,-0.07138501,0.06182428,40.58096,19.25097,3.254591,1008.126
21.801873684,-57.15047,-19.3674,-35.77771,-0.8578953,-0.1327948,0.089788,40.60458,20.03597,5.035992,1008.124
21.836520672,-9.296175,-13.15298,-30.81346,-0.9222088,-0.1493074,0.110014,39.8602,21.20067,5.863085,1008.122
21.868689537,20.31328,-11.67335,-24.25575,-0.9240444,-0.1603138,0.1292203,39.8602,21.20067,5.863085,1008.12
21.903336525,36.03947,-8.122252,-15.18527,-0.940735,-0.1564901,0.1737515,39.86155,21.96375,5.923117,1008.124
21.935509205,36.22376,-8.299808,-10.22102,-0.8943774,-0.1224261,0.2150518,39.08884,22.7197,4.584421,1008.124
21.970156193,28.48353,-3.565007,-7.892115,-0.8023553,-0.1269801,0.2503055,39.08884,22.7197,4.584421,1008.123
22.002328873,23.32337,3.418825,-6.237365,-0.7379873,-0.1442677,0.2529364,39.07832,24.23286,3.684418,1008.123
22.036975861,31.18647,13.42109,-1.150542,-0.7169078,-0.2143651,0.2401118,38.69434,23.85141,3.241932,1008.123
22.069144726,65.28035,20.76003,10.55528,-0.8005018,-0.3059624,0.2671287,38.69434,23.85141,3.241932,1008.123
22.103791714,110.0017,24.48869,24.95773,-0.93417,-0.3192834,0.2788701,38.32244,24.2436,3.688286,1008.123
22.135964394,124.745,26.67854,34.45722,-0.9603272,-0.2266139,0.2572241,39.06098,24.21581,2.345575,1008.123
22.170611382,116.1447,22.41722,36.47969,-0.9200572,-0.2222291,0.2853225,39.06098,24.21581,2.345575,1008.123
22.202784061,103.1215,29.87453,34.51851,-0.9026077,-0.128649,0.2840032,39.42159,24.19338,1.004799,1008.123
22.234956741,73.02058,32.41948,30.90257,-0.8555875,-0.08810468,0.2848627,40.16514,23.02788,0.1139526,1008.121
22.269599915,58.46157,30.05208,28.51238,-0.8140857,-0.1535723,0.3191217,40.16514,23.02788,0.1139526,1008.121
22.301772595,77.68929,26.20506,26.91891,-0.8439438,-0.2743617,0.3087645,39.77544,21.49815,-0.7054768,1008.121
22.336419582,104.1658,9.159771,35.92811,-0.9473689,-0.1883038,0.3870769,41.28643,20.33328,-0.7076302,1008.121
22.368591309,54.46859,-1.375161,36.66355,-0.9210326,-0.03850497,0.2545523,41.28643,20.33328,-0.7076302,1008.119
22.403239250,-29.07677,-20.61029,37.58286,-0.8775356,-0.07247349,0.2206084,41.64678,19.92972,-2.046545,1008.119
22.435411453,-73.30666,-34.87388,20.23863,-0.8098989,-0.07250371,0.1973231,42.40137,18.01332,-2.041109,1008.117
22.470055103,-94.3773,-49.7885,-11.63062,-0.7931306,-0.04675908,0.1477329,41.64498,17.26179,-2.03352,1008.117
22.502226830,-103.7762,-58.01522,-40.12909,-0.8146607,0.01712562,0.1099005,41.64498,17.26179,-2.03352,1008.117
22.536874294,-133.8156,-65.47253,-70.09845,-0.7901183,0.0480826,0.1118547,43.15096,17.23463,-2.487535,1008.117
22.569046974,-168.831,-70.85837,-81.49783,-0.6402014,0.2093526,0.1619133,41.63445,18.77495,-2.933525,1008.116
22.603693962,-300.2306,-85.77299,-112.7542,-0.5850694,0.1654725,0.297925,41.63445,18.77495,-2.933525,1008.117
22.635866642,-357.1152,-100.2141,-130.8952,-0.3458434,-0.587788,0.2682748,40.1476,21.4871,-1.153691,1008.117
22.670509815,-279.0371,-49.49258,-129.1791,0.1876419,-1.054269,0.7963986,37.56707,25.0166,3.688433,1008.117
22.702682018,-139.7744,-60.8561,-116.3702,0.6853284,-1.535386,0.7877883,37.56707,25.0166,3.688433,1008.115
22.734854698,-4.750325,-56.53559,-104.603,0.4070299,-1.14248,0.6393844,34.98026,27.77815,8.087996,1008.115
22.769502163,17.85607,-66.7746,-122.9892,-0.05584622,-1.366578,0.4856882,33.08054,30.08043,7.193937,1008.117
22.801674366,96.67129,-80.32797,-120.4764,-0.5795146,-1.657437,0.4472068,33.08054,30.08043,7.193937,1008.117
22.836321831,200.3658,-67.30727,-80.88496,-0.8362046,-1.221922,0.2362926,30.40896,33.13946,5.02494,1008.12
22.868490219,225.9209,22.59477,15.33567,-1.487791,-0.8243473,0.2639662,26.92371,36.15239,-1.602995,1008.12
22.903137684,189.7384,-4.985447,66.87804,-1.119471,0.3096944,0.3397684,26.92371,36.15239,-1.602995,1008.122
22.935309887,122.5949,25.73158,25.32545,-1.318756,-0.03181275,0.4255725,26.46019,36.45443,-8.233377,1008.12
22.969957352,219.3478,53.48935,34.94752,-1.420457,0.3946469,0.02130162,27.93021,34.4875,-11.35577,1008.123
23.002130032,189.3083,56.33023,7.736076,-0.8342134,0.6291316,-0.5389449,27.93021,34.4875,-11.35577,1008.127
23.036777020,223.2794,148.9548,20.8515,-0.4443093,0.5000528,-1.291229,27.50507,31.78026,-14.8473,1008.127
23.068945408,451.3091,268.3901,98.13443,0.3505011,0.4291087,-3.308203,27.09175,29.46553,-17.44814,1008.126
23.103592873,-873.5607,37.03591,-130.65,-1.943274,-0.2308461,-0.7998217,27.09175,29.46553,-17.44814,1008.133
23.135765553,542.5947,52.66076,-50.18016,-2.847193,-1.592095,-0.1572121,25.16486,24.50434,-20.02821,1008.14
23.170412540,-216.8695,60.29562,60.9945,-1.227101,-1.378897,-0.734511,22.5785,29.61449,-10.85791,1008.144
23.202585220,-85.22417,60.23644,138.4,-1.216259,-0.4259686,0.6763443,22.5785,29.61449,-10.85791,1008.149
23.237232208,-115.1408,84.62067,209.7381,-1.039089,-0.4363447,0.4519219,21.83495,30.78,-9.967059,1008.149
23.269401074,-1.371653,91.36775,290.637,-0.5109537,-0.4098387,0.4529963,25.33201,27.71583,-7.292217,1008.151
23.301573277,128.9837,149.8425,315.3356,-1.512711,0.94665,0.04213718,25.33201,27.71583,-7.292217,1008.148
23.336220741,-77.17678,238.4425,308.4715,-1.271956,1.609775,0.1480234,29.90882,21.97907,-3.781021,1008.152
23.368392468,81.43655,253.0612,276.8474,-0.3440039,1.079147,-0.0872116,32.61173,13.99941,1.089849,1008.154
23.403040409,60.36591,301.3562,263.8545,0.1536143,2.306377,-0.1174055,32.61173,13.99941,1.089849,1008.154
23.435212135,27.19349,278.8067,366.449,-0.2357737,1.431779,0.07808344,34.2481,3.055008,11.33678,1008.155
23.469855309,6.49144,87.04725,357.1947,-1.441791,-0.2513182,0.5830067,31.73384,-5.221059,21.97478,1008.157
23.502027989,-34.1755,-41.79853,226.7759,-0.03715874,-1.641351,-0.6427022,31.73384,-5.221059,21.97478,1008.155
23.536674976,920.1459,45.26263,278.257,0.4905125,-0.4514996,-2.480501,23.43482,-15.68933,28.70021,1008.157
23.568847656,534.6701,24.37032,135.7034,-1.073049,0.6970838,-0.1891165,19.70249,-21.68343,32.70209,1008.157
23.603495121,135.4339,-150.1071,-35.47128,0.1675696,-0.2547744,-0.5281056,15.60919,-2.517354,36.5831,1008.157
23.635667324,218.6107,-59.49484,-30.81346,0.2321953,-0.4857873,-0.7981228,15.60919,-2.517354,36.5831,1008.159
23.670310497,54.96003,-118.8574,-57.71846,-0.3352983,0.5074185,-0.5171297,20.47244,7.710947,32.10835,1008.16
23.702483177,-214.9652,-220.7148,-25.54278,-0.1671949,1.428295,-1.400396,25.41103,11.79294,28.93846,1008.162
23.737130642,-135.6585,24.60706,-112.2026,-0.4232287,0.706336,-1.844506,25.41103,11.79294,28.93846,1008.162
23.769302845,-246.479,-22.9185,58.54302,-0.003381277,0.4741898,-0.8988703,31.07311,8.658467,28.54181,1008.162
23.801475525,-404.1709,-6.050777,66.02003,-0.2201042,0.4672561,-0.5527576,31.46447,4.095739,29.83729,1008.162
23.836122990,-404.7237,3.182085,37.58286,-0.1374652,0.6090938,-0.4853615,31.46447,4.095739,29.83729,1008.163
23.868291378,-294.3947,28.3949,28.45109,-0.1343235,0.8689128,-0.5275928,30.30767,-5.496257,28.61484,1008.163
23.902938366,-37.49274,6.79237,54.62065,-0.06324536,0.5207191,-0.3792968,29.86423,-16.98174,24.20979,1008.167
23.935111046,30.26501,6.733185,20.23863,-0.02139605,1.075912,-0.4878981,29.86423,-16.98174,24.20979,1008.167
23.969758034,13.12593,-1.907826,-4.276181,-0.02245976,0.9244798,-0.4250306,28.72104,-22.30719,23.79536,1008.169
24.001930714,43.47255,-2.854786,-8.688847,-0.04307854,0.8200188,-0.3890675,27.97093,-22.29077,24.24551,1008.17
24.036578178,71.66911,0.8146844,-3.540736,-0.04549407,0.8312126,-0.4496846,27.97093,-22.29077,24.24551,1008.168
24.068746567,65.52607,1.58409,3.016975,-0.04953754,0.873213,-0.5447365,27.97145,-21.5285,24.24178,1008.172
24.103393555,18.5318,2.826975,5.774891,-0.03816838,0.8825145,-0.5900739,28.36749,-20.37342,25.57311,1008.173
24.135566235,-15.74637,1.643275,3.078262,-0.02925378,0.8545428,-0.5609857,28.36749,-20.37342,25.57311,1008.173
24.170213699,-19.86221,-0.2506458,-0.4763852,-0.03138426,0.8441979,-0.5191171,28.37982,-19.21865,26.46009,1008.175
24.202385902,-10.27906,-1.434346,-2.43757,-0.03325463,0.8404132,-0.5075629,28.75802,-18.84288,26.4563,1008.173
24.237033367,-4.750325,-1.434346,-2.253709,-0.03817309,0.8466887,-0.5151772,28.75802,-18.84288,26.4563,1008.174
24.269201279,-3.214565,-1.138421,-1.702126,-0.04001159,0.8555059,-0.5059294,27.99585,-19.6001,26.0176,1008.176
24.303849220,-0.2044748,-0.5465709,-0.5989593,-0.04195303,0.8511731,-0.502573,28.74569,-19.99765,25.56931,1008.176
24.336020947,1.208425,-0.07309081,-0.04737603,-0.04441111,0.8516523,-0.5049562,28.74569,-19.99765,25.56931,1008.174
24.368193626,1.884159,0.2820193,0.4429201,-0.04000346,0.8555133,-0.5049655,29.12389,-19.62189,25.56552,1008.177
24.402840614,0.9627031,0.5187593,0.7493553,-0.04108867,0.8476818,-0.5141779,28.36775,-19.99228,25.57125,1008.177
24.435013294,0.5326902,0.4595743,0.6880682,-0.04254886,0.8554296,-0.5174743,28.36775,-19.99228,25.57125,1008.179
24.469660282,-0.7573485,0.1636492,0.07519802,-0.04001747,0.8511485,-0.5045193,28.75173,-19.61083,26.01374,1008.181
24.501829147,-1.125931,-0.07309081,-0.1699501,-0.04103204,0.8525689,-0.5098001,29.12992,-19.23507,26.00994,1008.181
24.536476135,-1.00307,-0.07309081,-0.2312371,-0.04495393,0.8520885,-0.5116955,29.12992,-19.23507,26.00994,1008.181
24.568648815,-1.248792,-0.07309081,0.1977721,-0.03760031,0.8564349,-0.5098003,28.36801,-19.61115,25.56939,1008.183
24.603295803,-1.064501,0.1636492,0.2590591,-0.03860049,0.8544834,-0.511735,28.75147,-19.99196,26.01559,1008.185
24.635468483,-0.8802093,0.1636492,0.01391099,-0.03956397,0.849664,-0.5079098,28.75147,-19.99196,26.01559,1008.186
24.670115471,0.4098293,-0.3098308,-0.5376722,-0.03905394,0.8550009,-0.5078705,28.37353,-19.9866,26.01753,1008.186
24.702284336,0.4712598,-0.3690159,-0.9053944,-0.03758999,0.8530593,-0.5069362,28.36826,-19.23002,25.56753,1008.186
24.737037659,-0.02018354,-0.3690159,-0.5989593,-0.04490332,0.8555195,-0.5073297,28.37379,-19.60546,26.01567,1008.182
24.769209862,-0.6959181,0.1636492,0.3203461,-0.03905179,0.852585,-0.5064445,28.37379,-19.60546,26.01567,1008.184
24.803857326,-10.58621,1.22898,1.423512,-0.04940332,0.8704336,-0.5274087,28.36775,-19.99228,25.57125,1008.184
24.836029530,-35.52697,1.643275,2.158957,-0.05068355,0.9344391,-0.5365091,28.74595,-19.61652,25.56746,1008.184
24.870676994,-80.92403,-9.010028,0.01391099,-0.1528559,1.116119,-0.6458818,28.74595,-19.61652,25.56746,1008.186
24.902845383,-23.97804,-60.20506,-0.04737603,-0.1746912,1.357233,-0.863964,28.36198,-19.99797,25.12497,1008.186
24.935018063,-213.798,19.28041,-68.4437,-0.1797734,1.323595,-0.6974221,28.70478,-21.9423,22.51841,1008.186
24.969665050,-256.4307,15.55175,-88.17812,-0.5210599,1.243589,-0.2143437,28.70478,-21.9423,22.51841,1008.186
25.001837730,-440.0462,-23.68791,-128.6275,-0.3779155,1.155388,0.02170124,27.90768,-23.11476,19.40389,1008.186
25.036485195,-599.9496,-28.36353,-187.5857,-0.2607381,0.7023137,0.1315885,27.43607,-26.2486,12.34398,1008.186
25.068657398,-467.6899,-0.07309081,-195.4917,-0.2116479,-0.3476399,0.1513946,27.43607,-26.2486,12.34398,1008.184
25.103300571,-150.709,29.93371,-172.2639,-0.3052765,0.2210399,0.6977599,29.52577,-28.36028,-1.301755,1008.182
25.135473251,-115.3251,16.26197,-142.0494,-0.2080617,0.4960995,0.8673382,32.85603,-23.90808,-7.079383,1008.18
25.170120716,-119.7481,10.46184,-129.3017,-0.3630598,0.6924369,0.7364073,32.85603,-23.90808,-7.079383,1008.185
25.202292919,-228.5413,3.24127,-142.7849,-0.3700711,0.3162779,0.6066057,35.11545,-18.99693,-8.007737,1008.185
25.236940384,-201.6962,24.96217,-155.2261,-0.5562113,-0.1652592,0.2915551,35.85683,-14.83225,-9.370914,1008.183
25.269113064,-58.80909,52.60157,-155.9616,-0.6519886,-0.2760861,0.2717732,35.85683,-14.83225,-9.370914,1008.181
25.303756237,116.5133,61.65688,-147.8104,-0.6730438,-0.4018122,0.382275,37.36692,-8.761274,-9.854703,1008.175
25.335927963,243.7357,89.23709,-165.5223,-0.5199213,-0.4953671,0.1819732,37.40545,-3.010161,-7.204931,1008.173
25.370575905,243.2442,73.61225,-167.3609,-1.167499,0.259602,0.8627731,37.40545,-3.010161,-7.204931,1008.176
25.402747631,169.8963,6.79237,-129.0566,-0.8185169,1.058754,1.180368,36.69151,0.469759,-4.157599,1008.176
25.434920311,73.88061,-20.37355,-87.32011,-1.111394,0.3633516,0.694405,33.69976,4.797122,-1.931503,1008.177
25.469567299,167.6848,-6.050777,-70.22102,-0.7500899,-0.00700941,0.5467546,33.69976,4.797122,-1.931503,1008.177
25.501736164,100.05,13.42109,-72.67251,-0.7342486,0.1034466,0.4038815,31.81108,6.348498,-1.929277,1008.177
25.536383152,81.43655,27.27039,-65.07291,-0.7900433,0.113171,0.4960622,31.41106,7.855662,-3.71991,1008.176
25.568555832,90.89683,16.91301,-60.8441,-0.7854714,0.2346513,0.516783,31.41106,7.855662,-3.71991,1008.176
25.603202820,110.9846,23.6601,-56.30886,-0.7244958,0.1211717,0.5687805,29.90483,7.501687,-3.264032,1008.176
25.635375500,126.2807,29.69697,-56.06371,-0.5993387,0.3527619,0.6582098,29.14997,9.036958,-3.267608,1008.176
25.670022488,100.6028,37.03591,-53.67352,-0.473101,0.4772395,0.5794921,29.14997,9.036958,-3.267608,1008.176
25.702191353,104.0429,64.14265,-64.2149,-0.650693,0.9151905,0.5466818,28.766,8.655508,-3.710093,1008.176
25.736838341,-58.25622,49.40558,-97.12603,-0.7037291,0.112612,0.6051481,28.01564,8.290796,-3.258084,1008.177
25.769011021,-20.59937,80.18179,-87.07495,-0.8953295,-0.001731414,0.5081474,26.53984,10.25205,-0.5819683,1008.177
25.803658009,-11.01623,85.50844,-77.26903,-1.031898,-0.1092335,0.4526235,26.53984,10.25205,-0.5819683,1008.182
25.835830688,-19.86221,73.07958,-71.20161,-0.991281,-0.01540737,0.2462402,23.86666,12.61062,2.034655,1008.182
25.870478153,-20.35365,50.76683,-69.66944,-0.7526082,0.1138986,0.3626871,21.26885,14.98048,5.607273,1008.177
25.902646542,-36.44842,36.14814,-65.80836,-1.022082,-0.4475056,0.2742953,21.26885,14.98048,5.607273,1008.182
25.937293529,-3.030274,15.25583,-55.26698,-1.01036,-0.131896,0.2970318,18.26287,16.5642,6.890388,1008.182
25.969466209,-3.8903,2.76779,-44.23532,-0.9653685,-0.2103324,0.2882534,15.26298,17.39216,8.68726,1008.182
26.001638889,-16.72926,-14.39586,-33.75524,-0.9572125,-0.2994402,0.2565947,15.26298,17.39216,8.68726,1008.182
26.036285877,-10.64764,-15.10608,-24.43961,-0.9327266,-0.2536187,0.3608558,12.99008,18.18095,8.248861,1008.183
26.068458557,-11.13909,-15.34282,-15.79814,-0.9161007,-0.3034403,0.330888,11.47883,18.96469,8.252876,1008.182
26.103101730,-13.28915,-13.27135,-9.301717,-0.9425261,-0.2966439,0.3769806,11.47883,18.96469,8.252876,1008.182
26.135273457,-1.310222,-9.305953,-5.685782,-0.8764639,-0.2165696,0.4179943,10.72295,18.97543,8.256744,1008.182
26.169921398,5.938567,-0.1914608,-1.702126,-0.8911412,-0.2870946,0.3895938,10.35079,18.98648,8.704958,1008.183
26.202093601,8.272923,4.010675,5.468456,-0.8456315,-0.277013,0.3415343,10.35079,18.98648,8.704958,1008.183
26.236740589,2.375603,2.53105,8.900529,-0.9013565,-0.3034181,0.3432826,9.606469,19.00859,9.601385,1008.183
26.268913269,-2.907413,7.620961,15.1518,-0.883149,-0.2782243,0.3491044,8.844811,19.01364,9.158974,1008.183
26.303556442,2.559894,8.923031,21.83209,-0.9541826,-0.2099764,0.3416539,8.844811,19.01364,9.158974,1008.183
26.335729122,6.675732,9.869991,28.02208,-0.8848963,-0.2567141,0.3049541,8.844811,19.01364,9.158974,1008.183
26.370376110,12.38876,7.14748,33.17019,-0.9116504,-0.1559953,0.382672,8.855596,17.88161,10.05712,1008.187
26.402548790,13.37165,0.9330544,37.03127,-0.9403828,-0.2112967,0.2422223,8.855596,17.88161,10.05712,1008.189
26.437195778,0.04124688,3.418825,44.07928,-0.9552093,-0.2404452,0.2922483,8.855596,17.88161,10.05712,1008.189
26.469368458,12.63448,2.05757,43.58899,-0.9380609,-0.1065565,0.2936741,9.238284,16.35739,10.50891,1008.189
26.501536846,6.184289,4.839265,48.73709,-0.9555265,-0.1629164,0.2750565,9.238284,16.35739,10.50891,1008.191
26.536184311,12.51162,3.47801,47.57264,-0.9395907,-0.05732233,0.3201222,9.994163,16.34666,10.50504,1008.191
26.568356514,6.368579,3.537195,47.45007,-0.979249,-0.05724496,0.3045869,10.36607,15.95447,10.05869,1008.189
26.603003979,6.122858,-3.801747,43.77285,-0.938495,0.05541591,0.3379114,10.36607,15.95447,10.05869,1008.191
26.635176659,3.665641,-7.234478,39.29889,-0.958786,-0.006118204,0.2758975,11.49886,14.41383,10.06033,1008.191
26.669823646,3.604211,-10.19373,34.0895,-0.8952293,0.0502137,0.3205948,11.87628,13.64619,10.06211,1008.191
26.701992035,2.314172,-19.90007,29.00267,-0.9542655,0.08823543,0.3036252,11.87628,13.64619,10.06211,1008.195
26.736639500,-14.3949,-24.63487,20.29992,-0.9125142,-0.002597045,0.3217668,13.00355,12.481,9.615614,1008.195
26.768812180,-9.849049,-26.8839,16.43883,-0.9312082,0.01521323,0.353418,14.13108,11.69695,9.167253,1008.195
26.803459167,-0.388766,-34.93306,1.300938,-0.9097884,0.2910277,0.4461079,14.50927,12.07271,9.16346,1008.193
26.835631847,8.334353,-32.56566,-1.334404,-0.9427955,-0.01117421,0.3229426,14.50927,12.07271,9.16346,1008.193
26.870278835,-15.62351,-37.89231,-10.40488,-0.9717865,0.06753437,0.377364,14.11349,11.29876,7.830273,1008.193
26.902447700,-3.521717,-35.88002,-24.62347,-0.9400546,0.1655152,0.3894436,14.09589,10.90057,6.49329,1008.193
26.937094688,-7.207542,-36.47187,-29.46515,-0.8792825,-0.0197178,0.4519374,14.09589,10.90057,6.49329,1008.195
26.969267368,9.624392,-40.49646,-31.79405,-0.892998,0.1233648,0.4927689,14.46857,11.65178,6.041355,1008.193
27.003914356,2.559894,-40.02298,-38.6582,-0.9209012,-0.01383542,0.4326122,14.46331,12.40837,5.591352,1008.195
27.036086559,1.699868,-45.76392,-45.33849,-0.8706783,0.006596771,0.5340139,14.46331,12.40837,5.591352,1008.195
27.068258762,6.307149,-52.98449,-39.88394,-0.8365676,-0.1889045,0.5065379,15.19767,13.5191,3.860537,1008.195
27.102901936,49.36987,-55.17434,-36.39058,-0.8490238,-0.05907167,0.5294145,15.17533,14.63976,2.06983,1008.194
27.135074616,59.1373,-57.24582,-26.82981,-0.7968785,-0.3146819,0.5865886,15.17533,14.63976,2.06983,1008.194
27.169722080,128.6765,-64.34801,-22.23328,-0.9006298,0.01859191,0.6225982,15.53093,15.75506,0.2771912,1008.195
27.201894283,146.1228,-78.78916,-17.14646,-0.8434635,-0.2233743,0.6899599,15.10233,16.47234,-3.677367,1008.195
27.236541748,218.8564,-91.86905,-15.49171,-0.9961802,-0.01666665,0.709477,15.10233,16.47234,-3.677367,1008.195
27.268713951,259.6462,-110.0388,-19.65922,-0.9065476,0.006475504,0.6211076,16.17868,15.63793,-8.078499,1008.195
27.303357601,303.1389,-112.2879,-2.069848,-0.899369,0.272645,0.6497449,16.85372,14.40502,-14.26096,1008.195
27.335529804,217.9349,-112.0511,2.71054,-0.8601058,0.43558,0.6555418,16.85372,14.40502,-14.26096,1008.194
27.370177269,181.7524,-81.86678,-8.259837,-0.8017395,0.3193187,0.2819351,16.75983,9.742081,-21.25161,1008.194
27.402349472,63.25314,-11.31824,-9.975874,-0.7176571,1.256377,0.3105657,16.69298,3.582223,-26.06717,1008.194
27.436996937,-320.7484,24.8438,-34.18425,-0.5805154,1.972656,0.2559051,16.69298,3.582223,-26.06717,1008.192
27.469169617,-652.6569,54.19957,-48.34155,-0.5605978,1.717524,-0.2124776,16.65519,-1.089011,-28.72221,1008.192
27.503812790,-835.9038,46.32796,-34.79712,-1.232246,0.9937528,0.3517621,18.18792,4.305961,-27.41747,1008.194
27.535984993,-819.0719,86.0411,-14.75626,-1.316588,1.413651,-0.8297079,18.18792,4.305961,-27.41747,1008.192
27.568157673,-723.3019,-218.7617,-148.362,-1.823646,-3.223728,-3.062089,19.52151,21.62603,-12.97101,1008.192
27.602805138,508.1322,221.2789,7.490928,-0.8687527,-0.6975486,0.1744033,20.58908,34.87188,10.35971,1008.19
27.634977341,86.16669,90.12487,2.404105,-1.786288,0.5032965,0.2796246,20.58908,34.87188,10.35971,1008.188
27.669624805,-38.78278,-50.49872,39.85048,-1.113852,-0.6361127,0.3044447,20.91001,35.95306,5.889393,1008.187
27.701793194,108.5888,-15.0469,107.8791,-0.6188503,-1.185475,0.06731111,22.76741,38.17972,3.254629,1008.185
27.736440659,226.4123,8.035256,163.7115,-0.6740642,-0.8276106,0.1763345,22.76741,38.17972,3.254629,1008.185
27.768612862,70.25621,34.90525,180.0752,-0.3177922,-0.7034345,0.5846973,26.1862,37.70471,-0.2677288,1008.183
27.803260326,-22.0737,44.31567,169.9628,-0.05732948,-1.186404,0.6867352,30.28292,33.39634,-4.731339,1008.181
27.835432053,102.8758,58.57926,148.8801,0.0601533,-1.210274,0.6251922,30.28292,33.39634,-4.731339,1008.18
27.870079994,164.9205,92.72901,113.3336,0.4205135,-0.8766745,0.3729762,35.58255,28.75895,-3.843523,1008.178
27.902247906,149.7472,118.5337,91.94444,-0.03903167,-0.3334069,0.5350188,39.35256,23.36371,-4.283092,1008.176
27.936894894,101.4014,86.98806,63.75241,-0.0902519,-0.5714597,0.5364262,41.25651,18.78032,-2.931591,1008.176
27.969067574,235.2583,97.99648,63.44598,-0.0668883,-0.5053818,0.497229,41.25651,18.78032,-2.931591,1008.174
28.003715038,203.3759,44.07893,73.7422,-1.172551,0.009910699,1.021267,42.4056,15.7322,-1.583664,1008.172
28.035887241,158.1017,2.235125,41.07622,-1.514092,-0.1142183,0.5655316,43.15968,13.05353,-1.574507,1008.172
28.070534706,106.3773,0.2820193,6.755484,-1.65157,0.4374493,0.1987768,43.15968,13.05353,-1.574507,1008.172
28.102703095,-21.95084,-15.28364,-22.23328,-1.051662,0.6247364,0.01011727,44.27436,10.35244,-2.906125,1008.172
28.134875774,-8.681871,-8.595733,0.2590591,-0.6737717,0.1318696,0.0372319,44.26204,9.197667,-3.793104,1008.172
28.169522762,-0.08161395,-23.7471,2.587966,-1.09961,0.04439039,0.5668276,44.26204,9.197667,-3.793104,1008.171
28.201695442,9.501531,-20.61029,4.181429,-1.039085,0.05407305,0.09880323,44.63472,9.948879,-4.24504,1008.172
28.236342430,22.52478,-7.767143,8.655381,-1.032493,0.3056859,0.06466606,44.62868,9.562061,-4.68946,1008.171
28.268515110,12.32733,2.76779,18.64517,-1.078886,0.5432056,0.120077,44.62868,9.562061,-4.68946,1008.171
28.303158283,-32.20972,-1.256791,11.78102,-1.091452,0.3457839,0.6950381,44.61243,9.926952,-5.966408,1008.171
28.335330963,-2.108818,-17.71022,-10.3436,-1.028484,0.0941807,0.5863364,44.62265,9.175243,-5.13388,1008.172
28.369977951,9.31724,-15.40201,-17.26903,-1.008175,0.3241622,0.3364392,44.62265,9.175243,-5.13388,1008.171
28.402150631,-2.231678,-14.27749,-6.053504,-0.953266,0.2890452,0.03486964,44.61661,8.788425,-5.5783,1008.171
28.436798096,-18.44931,-13.92238,-9.301717,-0.9404858,0.1283344,0.4142051,44.2282,9.16437,-6.407033,1008.171
28.468970299,28.29924,-19.60414,-11.81448,-0.9910617,-0.01424078,0.2717937,44.2282,9.16437,-6.407033,1008.171
28.503613472,22.1562,-15.99386,-10.58874,-0.938303,0.4109016,0.3630123,44.22268,9.539818,-6.855174,1008.171
28.535786152,-13.41201,-26.52879,-13.95953,-0.9424379,0.1270428,0.1823709,43.83395,10.67722,-7.751385,1008.172
28.570433617,8.027202,-20.9654,-5.869643,-0.9388672,0.3296698,0.2770339,43.83395,10.67722,-7.751385,1008.174
28.602605343,-38.16847,-32.56566,-12.30478,-0.9297115,0.1782358,0.2202701,43.82214,10.28471,-8.642084,1008.176
28.637253284,-26.68098,-36.11676,-17.26903,-0.9056228,0.0313477,0.1961804,43.44471,11.05235,-8.643872,1008.176
28.669425011,-0.6959181,-28.12679,-13.34666,-0.8080092,0.263473,0.08535938,43.44471,11.05235,-8.643872,1008.176
28.701593399,-33.86834,-25.81857,8.226372,-1.022947,0.3145187,0.2092496,42.66649,12.18375,-10.43071,1008.178
28.736240864,-112.0693,-41.5026,-2.43757,-0.9489715,0.01155087,0.6225092,42.27726,12.55888,-11.3232,1008.174
28.768413544,-80.37116,-41.20668,-8.504986,-0.9263831,-0.03437177,0.6614438,42.27726,12.55888,-11.3232,1008.174
28.803060532,-62.67921,-36.23513,-6.053504,-0.9880161,0.5043474,0.6158502,42.66097,12.55919,-10.87885,1008.174
28.835233211,-133.6313,-51.56405,2.036383,-1.19068,0.656019,0.6416456,42.27225,13.6966,-11.77506,1008.174
28.869880199,-188.8573,-70.38489,0.136485,-1.275014,0.6636981,0.7649237,42.27225,13.6966,-11.77506,1008.176
28.902049065,-285.4873,-48.30888,-17.33032,-1.185055,0.6390795,0.2736879,40.76126,14.86147,-11.77291,1008.177
28.936696053,-199.239,-28.54108,-19.16893,-1.302462,0.02415184,0.01425422,40.39039,16.77819,-11.334,1008.177
28.968868732,40.89247,2.29431,-40.49681,-1.371553,-0.3943107,-0.1654447,40.39039,16.77819,-11.334,1008.179
29.003515720,214.0034,29.46023,-2.560144,-1.49264,0.2947936,0.3069777,39.29278,19.11521,-8.661675,1008.179
29.035688400,101.1557,43.19115,19.99348,-1.46833,0.7649174,0.3593085,38.14843,20.64448,-9.555878,1008.175
29.070335388,-99.8446,42.65849,50.69828,-1.441227,0.2826828,0.2172282,38.5143,19.86547,-10.44665,1008.173
29.102504253,-138.3,66.62842,90.77998,-1.422792,-0.1951616,0.2613167,38.5143,19.86547,-10.44665,1008.172
29.137151241,-126.9968,81.18793,142.1998,-1.48224,-0.3166092,0.2724382,38.5482,18.75618,-7.763386,1008.17
29.169323921,-106.6634,72.96121,176.5205,-1.495706,-0.464296,0.3094243,40.50512,16.89108,-2.472137,1008.168
29.201495647,-66.61075,71.30403,200.9128,-1.359325,-0.5241671,0.2493362,40.50512,16.89108,-2.472137,1008.168
29.236143589,-47.44447,79.05727,210.5961,-1.242959,-0.3679014,0.2582146,42.80326,11.93743,0.154377,1008.164
29.268315315,-71.09517,74.38165,202.874,-1.176385,-0.3448696,0.3296012,44.723,5.084291,2.855885,1008.161
29.302959442,-98.80029,61.9528,183.446,-0.9471852,-0.3597663,0.4338616,44.723,5.084291,2.855885,1008.157
29.335131168,-76.74677,59.5854,172.5369,-0.6728438,-0.266752,0.3988106,43.98478,-2.949559,4.684261,1008.156
29.369778633,9.870113,65.44472,166.9598,-0.4819719,-0.1741986,0.1871588,43.99666,-9.793718,5.992844,1008.156
29.401950836,92.30973,69.11419,135.1518,-0.5115452,-0.1304275,0.3054034,43.99666,-9.793718,5.992844,1008.15
29.436598301,136.3553,88.17176,99.05373,-0.4572105,-0.04986312,0.4024426,41.38137,-16.2013,8.715696,1008.146
29.468770981,147.3514,88.4085,63.8137,-0.5607492,0.1463077,0.4720238,39.91745,-21.08421,12.70039,1008.147
29.503414154,107.053,74.61839,38.07315,-0.5649804,0.4031388,0.5411786,39.91745,-21.08421,12.70039,1008.143
29.535586357,20.43614,63.25487,12.94547,-0.4385646,0.5804874,0.4580752,37.33936,-22.50376,18.01299,1008.143
29.570233822,-57.45762,42.71767,-5.195486,-0.4626214,0.4436616,0.4489776,35.88012,-21.66885,22.03352,1008.142
29.602406502,-80.30973,25.49484,-24.07189,-0.399326,0.3426706,0.4224905,35.88012,-21.66885,22.03352,1008.138
29.637053490,-35.15838,16.49871,-44.41918,-0.403819,0.1153979,0.4042708,34.74026,-22.03957,21.59491,1008.136
29.669226170,50.90562,12.17821,-56.55401,-0.3393208,0.1364305,0.4038424,34.73866,-23.18378,21.53673,1008.133
29.703869343,93.96835,1.288164,-72.24349,-0.4136847,0.3261489,0.3477783,34.73866,-23.18378,21.53673,1008.129
29.736042023,112.7661,-8.240623,-82.84615,-0.5152177,0.3445923,0.2192199,35.12372,-22.42038,22.04111,1008.129
29.768214226,137.3382,-26.52879,-92.71336,-0.7325918,0.3387786,0.08045648,35.90472,-18.21673,23.73814,1008.131
29.802861690,169.6506,-50.73546,-100.6194,-1.07559,0.3875946,-0.1675443,35.90472,-18.21673,23.73814,1008.131
29.835033894,161.2346,-67.36645,-101.4774,-1.274108,0.523175,-0.337612,37.43163,-12.89096,24.59692,1008.131
29.869681358,97.22416,-89.79757,-89.89416,-1.398814,0.493643,-0.4711697,38.93018,-6.831352,23.22057,1008.131
29.901849270,43.7797,-93.05275,-65.68578,-1.684854,0.4452249,-0.5142077,38.93018,-6.831352,23.22057,1008.131
29.936496258,-33.56119,-102.5223,-45.70621,-1.229136,0.6151984,-0.8380704,40.41272,-0.02572,20.56541,1008.127
29.968668938,-80.06401,-73.93599,-14.38854,-0.7785429,0.5854444,-0.6294764,41.12525,4.174055,16.97052,1008.127
30.003315926,-58.44051,-35.88002,17.78715,-0.7487631,0.2506403,-0.4079027,42.60342,4.500417,14.347,1008.125
30.035488606,-3.767439,-8.536548,44.99859,-0.7975876,0.2203952,-0.3961285,42.60342,4.500417,14.347,1008.125
30.070136070,11.77446,27.50713,61.66866,-0.7657589,0.4234358,-0.4815115,42.59713,3.732465,13.90444,1008.125
30.102304459,17.05747,44.90752,69.75854,-0.9048546,0.3012469,-0.3660231,43.35198,2.197194,13.90801,1008.125
30.136951447,50.41418,56.27104,75.15179,-0.9709896,0.2185392,-0.181964,43.35198,2.197194,13.90801,1008.125
30.169124126,58.64586,47.98514,69.51339,-1.100657,0.2960862,-0.02828493,43.74515,-0.9037101,15.26012,1008.121
30.203771591,35.91661,34.78688,53.82392,-0.9525371,0.2888904,-0.1107023,43.39399,-2.776397,17.439,1008.121
30.235943794,38.37382,20.34574,40.27949,-0.9841256,0.3500595,-0.06652328,43.39399,-2.776397,17.439,1008.123
30.268116474,25.53487,3.00453,15.09052,-0.8313993,0.2729572,-0.1476319,42.64812,-5.041091,18.3466,1008.123
30.302759647,76.64497,-11.61417,21.21922,-0.832018,0.3985314,-0.1658709,43.03184,-5.040774,18.79094,1008.119
30.334932327,43.71827,-19.24903,20.54506,-0.7069736,0.5715072,-0.06149977,43.03184,-5.040774,18.79094,1008.121
30.369579315,-14.14918,-29.13293,12.39389,-0.6842623,0.3285123,-0.08685093,43.03159,-5.421908,18.7928,1008.121
30.401751518,-2.784552,-20.19599,-9.730726,-0.6629552,0.2011894,-0.2192033,44.15359,-5.830517,17.8963,1008.117
30.436399460,47.34266,16.26197,-1.395691,-0.8512287,0.5536889,-0.2622584,44.15359,-5.830517,17.8963,1008.12
30.468571186,-37.43131,13.83539,-11.56934,-0.7521421,0.6132183,-0.3465601,45.27616,-6.619447,17.06541,1008.12
30.535387039,41.87535,-12.50194,-38.59691,-1.751261,0.3823557,-0.02343092,47.54927,-5.884518,17.43262,1008.12
30.570034027,-51.13029,-25.22672,-53.48966,-0.8115716,0.5364985,0.0519755,49.82217,-6.673312,17.87102,1008.118
30.602206707,12.75734,-1.552716,-55.38956,-0.6351252,0.1777782,-0.0899981,51.69479,-6.336075,16.52065,1008.118
30.636853695,16.93461,7.680146,-55.45084,-0.812041,0.5250616,-0.1727262,51.69479,-6.336075,16.52065,1008.118
30.669026375,-1.863096,18.80693,-56.24757,-1.003889,0.1982066,-0.1962846,51.69608,-4.430407,16.51134,1008.12
30.703669548,3.051337,5.13519,-41.41611,-0.9527637,0.2979842,-0.3164389,51.7034,-2.137922,16.94645,1008.122
30.735842228,19.26897,-0.664941,-40.31295,-0.989888,0.2632433,-0.1876851,51.7034,-2.137922,16.94645,1008.123
30.770489216,29.52785,-28.12679,-36.39058,-0.9320224,0.1656825,-0.3394132,52.83876,0.1327739,16.92949,1008.119
30.802661896,19.57612,-54.76004,-36.51315,-0.8964915,0.2194316,-0.1440918,53.21173,1.328643,16.47538,1008.119
30.834834576,51.15135,-80.68308,-51.22204,-0.9310432,0.3962309,-0.2763077,53.21173,1.328643,16.47538,1008.119
30.869481564,17.85607,-90.03431,-84.56219,-1.005753,0.2624244,0.0736999,53.56315,3.582464,14.29464,1008.119
30.901649475,7.965771,-85.83218,-106.1352,-0.9166005,0.370163,0.003384293,54.26831,5.42623,10.26494,1008.121
30.936296940,3.911363,-78.90753,-125.3793,-1.00072,0.0305381,0.02980729,54.26831,5.42623,10.26494,1008.123
30.968469143,2.00702,-78.67079,-138.127,-0.9711926,0.01265096,0.1841062,54.98663,8.425579,7.185974,1008.123
31.003116608,-3.767439,-83.87907,-183.2956,-0.9769862,-0.1805788,0.1107493,53.43885,13.74394,4.10745,1008.123
31.035288811,18.47037,-105.6,-211.9166,-0.920602,-0.1337479,0.1776072,53.43885,13.74394,4.10745,1008.123
31.069936752,-1.924526,-119.2717,-223.745,-0.7760839,-0.2866495,0.1436682,52.2619,18.28817,0.5206795,1008.121
31.102104664,-31.04254,-128.7413,-210.2619,-0.7126904,-0.5679598,0.2742714,48.43095,26.28962,-3.89811,1008.122
31.136752129,9.194379,-120.7513,-163.1321,-0.5505937,-0.7766241,0.3847905,42.35496,33.58376,-6.516452,1008.122
31.168924332,56.92581,-106.4877,-137.1464,-0.5489137,-0.7619652,0.4615335,42.35496,33.58376,-6.516452,1008.122
31.203571796,101.5243,-100.9835,-122.3763,-0.5461404,-0.690106,0.4664381,36.254,39.32981,-10.97623,1008.122
31.235744476,103.6744,-97.19569,-107.7287,-0.5024996,-0.5451729,0.5954376,31.26257,42.05228,-17.1486,1008.122
31.270391464,78.48788,-85.29951,-99.76137,-0.4364335,-0.5414989,0.6738993,31.26257,42.05228,-17.1486,1008.121
31.302559853,60.79592,-75.11969,-98.6582,-0.4280346,-0.5438643,0.6872974,25.90501,43.96651,-22.35868,1008.122
31.334732056,47.77267,-85.06277,-95.96157,-0.2241849,-0.6682702,0.6732836,21.2616,44.36829,-25.84351,1008.122
31.369379997,63.00742,-75.94828,-83.88803,-0.2001552,-0.7025776,0.6457847,21.2616,44.36829,-25.84351,1008.122
31.401551724,60.73449,-77.4279,-63.72459,-0.1343864,-0.6929249,0.7440605,16.29169,44.76318,-30.21928,1008.122
31.436198711,54.96003,-71.5094,-45.58363,-0.08135823,-0.5807408,0.7864245,12.0934,44.02017,-33.31825,1008.118
31.468371391,31.37076,-71.5094,-43.25473,-0.0214571,-0.5927557,0.7775725,12.0934,44.02017,-33.31825,1008.118
31.503014565,31.43219,-69.43793,-33.20366,-0.003273786,-0.5415084,0.8260252,7.901961,43.66479,-35.90904,1008.118
31.535187245,39.41814,-55.17434,-20.76239,-0.02457179,-0.5364454,0.9024217,5.22672,42.53056,-38.12133,1008.118
31.569834232,62.27025,-57.12745,-16.53359,0.0510645,-0.5150257,0.8334485,5.22672,42.53056,-38.12133,1008.12
31.602006912,40.52389,-57.18663,-12.79508,0.07178599,-0.3781843,0.9683791,2.180091,42.55076,-39.89098,1008.12
31.636654377,27.43921,0.6963143,-11.7532,0.1663028,-0.3336754,1.45131,0.2615137,41.34307,-42.04307,1008.122
31.668826580,-82.09122,-0.7833109,-21.49784,0.0056176,-0.1368191,0.8172286,0.2615137,41.34307,-42.04307,1008.122
31.703469753,-154.8863,-5.873222,-16.53359,0.212477,-0.7242748,0.8046713,-0.8728199,40.5969,-42.03354,1008.122
31.735642433,-61.57346,-3.742562,-4.521328,-0.02306155,-0.8481258,0.7682521,-1.972539,41.02744,-39.41567,1008.122
31.770289898,21.3576,-7.175292,8.165085,0.09299205,-0.6829194,0.6774333,-1.972539,41.02744,-39.41567,1008.118
31.802462101,23.3848,-4.867077,21.52566,0.1415246,-0.6839628,0.7622858,-1.941805,43.78732,-37.19761,1008.122
31.837109566,24.67484,-6.938553,27.71564,0.1675974,-0.5398723,0.8336022,-2.703463,43.79237,-37.64002,1008.122
31.869281292,6.061428,-2.144566,29.30911,0.2131428,-0.6337255,0.8401155,-2.703463,43.79237,-37.64002,1008.122
31.901449680,2.621324,-3.150712,37.15385,0.1064595,-0.5517846,0.8229886,-1.19196,43.38977,-37.64589,1008.122
31.936097145,-11.13909,-22.1491,48.49195,0.06420925,-0.659111,0.7251341,-0.06366348,43.74911,-38.09984,1008.118
31.968269825,21.05045,-27.06145,54.06907,0.1647816,-0.7098227,0.6967856,-0.06366348,43.74911,-38.09984,1008.12
32.002916813,56.3115,-17.71022,42.97612,0.05509782,-0.6120501,0.7795911,1.087491,43.75006,-36.7668,1008.118
32.035089493,74.98635,-27.53493,35.43781,0.006808558,-0.4035212,0.9138287,1.826806,44.86567,-38.11509,1008.118
32.069736481,39.541,-44.04755,33.78306,-0.05314801,-0.268284,0.914539,1.826806,44.86567,-38.11509,1008.12
32.101905346,6.921453,-29.13293,28.8801,0.2216103,-0.4492961,0.6550232,2.564839,44.07561,-39.45408,1008.12
32.136552334,-12.79771,-26.94308,19.38061,0.03585267,-0.5880085,0.8006948,2.931533,43.29741,-40.2811,1008.12
32.168725014,54.03858,-0.1322758,-9.485578,0.2453551,-0.625698,0.8948292,2.931533,43.29741,-40.2811,1008.123
32.203372002,64.42032,16.49871,-6.911522,0.1129244,-0.2651365,0.9891711,3.309472,43.29205,-40.28303,1008.125
32.235543728,-20.0465,9.692436,-3.66331,0.1064001,-0.1589586,1.032523,2.53626,43.28573,-41.618,1008.127
32.270191670,-63.60066,3.063715,-0.2925241,0.06172876,-0.4503833,0.8517159,2.906575,40.54322,-42.05288,1008.127
32.302359581,-33.62262,-3.920117,-4.398755,0.1037853,-0.7501367,0.7167844,2.906575,40.54322,-42.05288,1008.128
32.337007046,70.37907,-2.618047,0.01391099,0.09330586,-0.5671732,0.8331065,2.93076,42.15401,-40.27551,1008.13
32.369179249,52.56425,1.524905,-0.5376722,0.09775851,-0.2510725,0.9778607,3.291881,42.89386,-41.62001,1008.132
32.403826714,-9.91048,-1.493531,-2.682718,0.0990923,-0.2183528,1.004628,3.291881,42.89386,-41.62001,1008.132
32.435999394,-30.91968,3.773935,-6.911522,0.103696,-0.5453342,0.8394555,2.523116,40.92404,-42.49909,1008.132
32.468171597,6.368579,1.288164,-5.869643,0.08590973,-0.5029289,0.8510571,2.145434,41.31054,-42.49902,1008.132
32.502814770,5.938567,-0.901681,-4.827764,0.07361213,-0.3748861,0.8936793,2.145434,41.31054,-42.49902,1008.134
32.534987450,-1.494514,-3.505822,-6.237365,0.0870245,-0.4771784,0.855115,2.529708,42.13665,-42.0587,1008.135
32.569634915,28.48353,-1.907826,5.652317,0.1757385,-0.4091192,0.9261842,2.156991,41.32191,-41.60645,1008.135
32.601807118,0.5326902,0.9922394,0.3816331,0.1189354,-0.3519923,0.9334512,2.156991,41.32191,-41.60645,1008.137
32.636454582,-6.654668,3.71475,0.5042072,0.1142354,-0.3981897,0.9191361,2.145434,41.31054,-42.49902,1008.137
32.668626308,-6.224655,7.265851,1.300938,0.09167231,-0.4107559,0.9115312,2.139655,41.30486,-42.9453,1008.141
32.703269482,-5.057477,4.54334,-1.579552,0.08702512,-0.4177361,0.884525,2.139655,41.30486,-42.9453,1008.143
32.735442161,-10.52478,2.64942,-4.950338,0.08870469,-0.3851483,0.894418,1.773271,41.32159,-42.0508,1008.141
32.770089149,-8.804732,2.76779,-5.869643,0.1023602,-0.4756137,0.8790848,2.151469,41.69736,-42.0546,1008.143
32.802261829,2.068451,1.58409,-4.276181,0.09617791,-0.4473882,0.8846771,2.151469,41.69736,-42.0546,1008.143
32.836909294,-3.828869,0.6963143,-2.989153,0.09941423,-0.4040847,0.9004279,2.151212,41.31622,-42.05273,1008.141
32.869081497,-8.743301,-1.375161,-2.253709,0.09945384,-0.4557532,0.8720456,1.773828,42.14738,-42.05483,1008.141
32.903724670,7.044314,-2.144566,-1.395691,0.1102653,-0.5132451,0.8507448,1.773828,42.14738,-42.05483,1008.141
32.935897350,16.62746,-1.197606,0.4429201,0.1054353,-0.4164991,0.8679754,2.535188,41.69767,-41.61025,1008.139
32.968070030,7.90434,-0.1914608,0.9945034,0.110696,-0.40167,0.9061265,1.773528,41.70272,-42.05266,1008.139
33.002717018,-2.354539,0.9922394,1.300938,0.1082159,-0.4074972,0.9041736,1.773528,41.70272,-42.05266,1008.139
33.034889221,3.48135,1.9392,1.607374,0.1087086,-0.4220024,0.9117614,1.77357,41.76625,-42.05297,1008.135
33.069536209,-5.118908,-1.848641,0.5042072,0.08663638,-0.4113571,0.8932571,1.77905,41.32727,-41.60452,1008.134
33.101704597,-2.170248,-4.038487,0.2590591,0.09542046,-0.4606872,0.8590286,1.77905,41.32727,-41.60452,1008.134
33.136352062,3.604211,-5.695667,5.958752,0.09309389,-0.4499334,0.8673329,2.145434,41.31054,-42.49902,1008.134
33.168524742,8.948657,-3.387452,1.300938,0.1165574,-0.3992762,0.9056095,2.145949,42.07281,-42.50274,1008.134
33.203171730,-6.163225,-5.577297,0.5042072,0.1091166,-0.4070869,0.8950106,2.145949,42.07281,-42.50274,1008.132
33.235549450,-2.047387,-1.375161,0.136485,0.1048273,-0.453357,0.8715332,1.768008,42.07817,-42.5008,1008.134
33.270196915,1.208425,-2.026196,-1.089255,0.1072719,-0.3958576,0.9023504,2.145177,40.92941,-42.49715,1008.135
33.302364826,-4.504603,-1.020051,-0.8441073,0.1109781,-0.4289395,0.8948131,1.773271,41.32159,-42.0508,1008.135
33.337011814,-0.388766,-2.381306,-1.211829,0.1049907,-0.4304807,0.8799142,1.773271,41.32159,-42.0508,1008.135
33.369184494,3.48135,-0.842496,-0.5376722,0.1278155,-0.4432683,0.8728479,1.773271,41.32159,-42.0508,1008.135
33.403831482,0.9012727,0.1044642,-0.2925241,0.1144799,-0.4051835,0.8935303,2.151469,41.69736,-42.0546,1008.135
33.436004162,0.1641077,1.22898,0.07519802,0.1140204,-0.4041881,0.8964348,2.151469,41.69736,-42.0546,1008.135
33.470651627,-4.197452,1.169795,0.3816331,0.1109331,-0.4231775,0.886667,1.767751,41.69704,-42.49894,1008.135
33.502820015,-2.41597,1.82083,0.5654942,0.1071209,-0.4225912,0.8973114,1.773271,41.32159,-42.0508,1008.137
33.534992695,-4.381743,0.3412043,-0.4150982,0.106568,-0.4236149,0.8900782,1.773271,41.32159,-42.0508,1008.137
33.569639683,-2.4774,0.9922394,0.01391099,0.1050255,-0.4357683,0.8866183,2.145692,41.69167,-42.50088,1008.135
33.601812363,0.348399,0.7554994,-0.4150982,0.1138674,-0.4323742,0.8918658,2.157248,41.70304,-41.60831,1008.139
33.636459351,-3.337426,1.58409,-1.211829,0.07352191,-0.406921,0.956558,2.157248,41.70304,-41.60831,1008.139
33.668631554,-9.050454,-5.399742,-11.56934,0.1058879,-0.3852138,1.022951,1.779307,41.70841,-41.60638,1008.139
33.703274727,-71.27946,0.9330544,-9.179143,0.08120528,-0.2491329,1.155889,1.779565,42.08954,-41.60825,1008.139
33.735446930,-218.7124,-26.64716,-26.21694,0.08075403,-0.378544,0.9904644,1.779565,42.08954,-41.60825,1008.135
33.770094395,-283.2144,-46.35577,-63.60202,-0.2841459,-0.7753423,0.8488902,1.441245,42.1339,-38.5461,1008.135
33.802267075,-239.0459,-63.2235,-88.60713,-0.02264731,-1.304757,0.3412882,-1.064693,46.18114,-27.96825,1008.135
33.836914062,-172.8239,-48.19051,-163.8063,0.4133995,-1.653731,0.3087965,-1.064693,46.18114,-27.96825,1008.135
33.869086742,-90.07717,-42.62712,-191.079,0.4459863,-1.102985,0.4359427,-5.43783,50.59478,-15.66092,1008.134
33.903729916,-246.6019,-36.41269,-218.6582,0.6862971,-0.4864249,0.1047577,-12.14411,49.64384,-8.097514,1008.134
33.935902596,-338.9932,10.04755,-228.4641,0.9227313,-0.8265417,-0.1667981,-12.14411,49.64384,-8.097514,1008.134
33.970549583,-185.7858,62.24873,-220.0678,0.8171083,-1.061638,-0.1947427,-20.0099,45.31868,2.548975,1008.134
34.002722263,-4.01316,79.3532,-201.4365,0.6502953,-0.6460949,0.02087341,-27.47178,37.45943,10.53258,1008.132
34.034893990,56.3115,67.93049,-171.0995,0.5823447,-0.2340899,0.1560079,-27.47178,37.45943,10.53258,1008.132
34.069541454,6.368579,67.16109,-138.556,0.648233,-0.1584886,0.1203484,-34.29134,28.77943,9.78138,1008.132
34.101709843,-57.82621,80.95119,-99.82265,0.7201707,-0.1271539,0.0129316,-37.7434,22.303,6.260174,1008.134
34.136356831,-165.8823,128.1216,-62.68271,0.7632582,-0.08747149,-0.1635551,-37.7434,22.303,6.260174,1008.134
34.168529511,-210.4193,197.013,-17.94319,0.642645,-0.3194289,-0.2347139,-41.18808,16.97647,3.243418,1008.134
34.203176975,-96.83451,241.2242,26.42862,0.4154166,-0.4830729,-0.07584686,-42.00926,13.11415,-1.579438,1008.134
34.235349178,-343.8462,474.9458,31.14772,-2.283331,-1.23658,-2.221054,-42.00926,13.11415,-1.579438,1008.134
34.269996643,26.33346,-233.9131,3.629845,2.542082,-0.2752598,-0.6473129,-42.10191,11.49947,-8.648731,1008.134
34.302165032,102.3843,382.0845,99.54403,0.9402707,-0.2487215,1.700248,-40.54899,13.80378,-5.607421,1008.134
34.336812019,126.5265,-104.653,64.97815,-0.01460189,0.02084113,1.29686,-41.36863,12.22826,-10.44144,1008.136
34.368984699,9.562962,-100.9835,65.77488,0.771866,-0.3789354,0.9444886,-41.36863,12.22826,-10.44144,1008.136
34.403632164,-49.47167,-70.08896,81.77079,0.5944082,-0.8328582,0.3133929,-40.21016,14.52169,-8.673286,1008.136
34.435803890,165.2276,-66.95216,111.8627,0.704379,-0.7335198,0.1112279,-39.76743,17.62711,-3.844774,1008.136
34.470450878,306.5176,-78.37486,146.9802,0.6251014,-0.6280981,0.3244345,-39.76743,17.62711,-3.844774,1008.136
34.502619743,345.7102,-73.52169,170.2693,0.6601481,-0.2629996,0.4856952,-37.89249,21.39455,-5.211892,1008.138
34.537266731,108.7116,-71.74614,177.1334,0.7313253,0.02891796,0.6845754,-35.29552,25.11796,-9.196808,1008.134
34.569439411,-49.04166,-78.55242,204.3448,0.593159,-0.330377,0.328151,-35.29552,25.11796,-9.196808,1008.134
34.601612091,-29.1382,-79.14427,202.8127,0.4396523,-0.9170299,-0.001566663,-32.28021,30.01837,-10.12903,1008.134
34.636259079,77.68929,-50.14361,177.3173,0.5052371,-1.129353,-0.050201,-26.95605,36.06978,-7.954473,1008.136
34.668431759,94.95123,3.063715,167.2049,0.5517904,-0.6157099,0.2471368,-26.95605,36.06978,-7.954473,1008.136
34.703074932,12.32733,28.03979,150.78,0.1755711,-0.772467,0.3847969,-21.32329,42.04759,-11.13722,1008.136
34.735247612,32.90651,25.19891,150.351,0.4226549,-1.089095,0.2078072,-15.69223,44.2784,-14.23791,1008.136
34.769894600,72.4677,60.41399,148.1447,0.6411333,-0.9544659,0.1832605,-15.69223,44.2784,-14.23791,1008.138
34.802066326,2.129881,90.59835,127.2458,0.5925063,-1.044422,0.8866919,-8.507721,47.92593,-19.07516,1008.138
34.836713791,158.5931,100.3639,-66.5438,-0.2613177,-0.4624959,-0.3614543,-0.2833872,49.62335,-26.20375,1008.138
34.868886471,158.2246,-9.365138,20.54506,0.5410098,0.4976238,0.981343,-0.2833872,49.62335,-26.20375,1008.139
34.903529644,-266.321,-26.76553,-40.92582,-0.127261,-1.620026,0.2398914,6.096959,50.63082,-29.7487,1008.135
34.935701847,55.26719,-4.748707,-2.805292,0.06020634,-0.5523501,0.7197856,5.750802,47.62041,-27.11795,1008.139
34.970349312,3.174198,12.94761,-5.624495,0.05494771,-0.8228732,0.6313266,5.750802,47.62041,-27.11795,1008.139
35.002521992,-16.48353,-3.920117,-4.153606,0.09765883,-0.7334288,0.6764914,4.240848,50.30982,-27.12323,1008.135
35.037168980,-18.81789,1.46572,3.568558,0.06689611,-0.8110732,0.5956444,4.24714,51.07777,-26.68068,1008.137
35.069341660,1.884159,3.47801,2.894401,0.05790266,-0.8305629,0.5801436,4.24714,51.07777,-26.68068,1008.139
35.101510048,13.74023,0.7554994,-0.9053944,0.05274553,-0.8129361,0.5967251,4.25266,50.70233,-26.23253,1008.137
35.136157513,12.81877,-0.6057559,-2.253709,0.05915004,-0.7128885,0.6717181,4.630857,51.07809,-26.23633,1008.141
35.168329239,-4.136021,-1.138421,-1.702126,0.06787273,-0.721692,0.6686721,4.630857,51.07809,-26.23633,1008.141
35.202976227,-4.688895,-1.611901,-1.579552,0.06222943,-0.8026344,0.6169655,4.996726,50.29909,-27.1271,1008.143
35.235148907,8.764366,-2.144566,-2.192422,0.06998178,-0.801273,0.6096744,4.630599,50.69696,-26.23447,1008.141
35.269796372,14.04738,-3.150712,-4.337468,0.0767214,-0.7632263,0.6383631,4.630599,50.69696,-26.23447,1008.141
35.301964760,13.0645,-1.493531,-1.395691,0.07932881,-0.744227,0.6490994,4.246882,50.69664,-26.67881,1008.142
35.336611748,13.00307,-0.6057559,-0.5376722,0.06658714,-0.7437294,0.6424744,4.618529,49.92332,-27.12331,1008.142
35.368784428,9.562962,-1.848641,-1.211829,0.07950462,-0.726175,0.6612966,4.618529,49.92332,-27.12331,1008.141
35.403431892,3.788502,-1.552716,-0.9053944,0.07711361,-0.7261184,0.6671034,3.851094,49.92269,-28.012,1008.142
35.435604096,-1.248792,0.5779443,-0.108663,0.08436258,-0.7412099,0.6659473,3.851607,50.68496,-28.01572,1008.142
35.470251560,-0.5116268,1.82083,0.6880682,0.08750093,-0.7603385,0.6421424,4.229293,50.29845,-28.0158,1008.142
35.502419472,8.395783,5.549485,2.71054,0.07676052,-0.7733456,0.6479194,4.229293,50.29845,-28.0158,1008.142
35.537066460,19.20754,7.265851,2.09767,0.07688797,-0.7630748,0.6581248,4.228778,49.53619,-28.01208,1008.142
35.569239140,13.31022,8.390366,3.262123,0.1027664,-0.7438845,0.7086515,4.595986,49.52026,-28.84282,1008.142
35.603886128,1.884159,22.4764,5.162021,0.1064582,-0.7716603,0.69682,4.595986,49.52026,-28.84282,1008.14
35.636058807,5.201402,36.38488,9.513399,0.08703534,-0.7690573,0.7071448,4.974183,49.89603,-28.84661,1008.14
35.668231487,-1.985957,49.7015,14.2325,0.07827183,-0.7245442,0.7461534,6.112697,49.50366,-28.46803,1008.14
35.702874660,-6.347516,62.89976,11.04558,0.02769711,-0.6496992,0.7891763,6.112697,49.50366,-28.46803,1008.14
35.735047340,-13.28915,81.48386,24.03842,-0.002570705,-0.784401,0.7367743,6.496158,49.12284,-28.02182,1008.144
35.769694328,-1.187361,97.1087,43.5277,-0.09332266,-0.6601802,0.7367173,8.397668,49.4885,-27.14079,1008.144
35.801867008,-35.46553,97.16788,42.36325,-0.06465122,-0.6913436,0.6793168,8.397668,49.4885,-27.14079,1008.14
35.836513996,-33.25404,104.6844,52.72075,-0.1487481,-0.8307506,0.6114724,11.07136,48.33595,-24.91734,1008.138
35.868686199,-19.98507,106.4599,63.20083,-0.2060552,-0.7765373,0.618238,14.12294,48.32061,-22.76516,1008.138
35.903329372,-27.78673,109.4784,75.02922,-0.2693249,-0.7233217,0.5546792,14.12294,48.32061,-22.76516,1008.138
35.935501575,-39.58137,105.7497,89.00266,-0.3993656,-0.740782,0.5355046,17.94176,46.78219,-19.65309,1008.138
35.970149040,-15.56208,101.37,102.8535,-0.4388515,-0.7680738,0.4956422,22.13738,45.99903,-16.67419,1008.138
36.002321243,-0.5730572,102.4945,111.8627,-0.496097,-0.7200534,0.4546382,22.13738,45.99903,-16.67419,1008.138
36.036968708,5.754275,98.88425,117.5011,-0.5250968,-0.6543343,0.3980927,26.0134,44.45403,-14.00872,1008.138
36.069141388,0.2255381,108.3539,128.778,-0.621649,-0.663833,0.2369635,30.56995,41.68089,-12.23347,1008.138
36.103784561,17.97893,115.4561,145.6932,-0.6971834,-0.6435357,0.2397636,30.56995,41.68089,-12.23347,1008.14
36.135956764,47.77267,129.2462,164.5083,-0.7397459,-0.3471813,0.3741898,34.38113,38.61144,-9.623995,1008.14
36.170604229,-28.70819,132.6789,130.1263,-0.8069256,-0.2112613,0.2698973,40.08809,34.75937,-6.51043,1008.142
36.202775955,-10.89337,119.7766,115.8464,-0.9826679,-0.4152938,0.07078933,40.08809,34.75937,-6.51043,1008.142
