Time (s),Gyroscope X (deg/s),Gyroscope Y (deg/s),Gyroscope Z (deg/s),Accelerometer X (g),Accelerometer Y (g),Accelerometer Z (g),Magnetometer X (uT),Magnetometer Y (uT),Magnetometer Z (uT),Barometer (hPa)
0.002024651,-15.56851,-5.91543,-28.77246,0.5704817,0.7586254,0.5872521,-28.93805,-4.514643,-39.32499,1006.943
0.037323475,-25.32147,-2.488054,-21.74723,0.5638759,0.668631,0.5407114,-28.16995,-6.708105,-39.6645,1006.942
0.070100307,-9.542792,-0.4198098,-16.61575,0.5611073,0.60571,0.5307042,-28.5461,-5.966471,-38.80527,1006.942
0.102877617,14.62219,1.825712,-12.82823,0.5528449,0.6070352,0.5210946,-28.5461,-5.966471,-38.80527,1006.942
0.135654449,22.32517,4.957624,-10.14031,0.5411383,0.6303554,0.5268636,-28.90414,-6.335979,-39.23418,1006.938
0.168431759,21.20699,7.321332,-9.468335,0.5285462,0.6221749,0.5562688,-28.18275,-5.973287,-39.24085,1006.936
0.203730583,20.83427,7.49861,-12.09516,0.5082419,0.587036,0.5703293,-28.18275,-5.973287,-39.24085,1006.936
0.236507893,29.40693,7.616795,-16.24921,0.5131198,0.5707535,0.5342402,-28.15498,-7.425091,-38.78282,1006.935
0.269284725,34.6872,8.266814,-22.54138,0.4975667,0.5724112,0.5111693,-28.13356,-8.579142,-38.76468,1006.935
0.302062035,40.6508,7.912258,-25.47366,0.4667398,0.6720132,0.5134991,-28.13356,-8.579142,-38.76468,1006.933
0.337360382,25.61757,7.853166,-26.08455,0.4840548,0.7463511,0.5369327,-27.3716,-10.40307,-38.73697,1006.935
0.370137692,13.25553,6.434941,-24.00752,0.442184,0.7937548,0.5403301,-27.34321,-11.84978,-37.90598,1006.936
0.402914524,-2.274661,4.898531,-20.58653,0.4523804,0.7948407,0.5441552,-27.34321,-11.84978,-37.90598,1006.936
0.435691834,-6.685236,3.125751,-16.79902,0.4261959,0.7785199,0.5399095,-26.96623,-12.58462,-38.26794,1006.936
0.468468666,-5.3807,0.7620439,-12.58387,0.4369141,0.7624969,0.534132,-26.22528,-13.32119,-38.69254,1006.935
0.503767967,-5.691303,1.707527,-10.99556,0.4350092,0.74387,0.5192423,-26.22528,-13.32119,-38.69254,1006.939
0.536544800,-8.859464,0.8211366,-11.05665,0.4213908,0.7509816,0.5077113,-25.50992,-12.58811,-38.26982,1006.937
0.569322109,-22.58816,3.716678,-13.13368,0.4302348,0.7092372,0.5173804,-25.8612,-13.32206,-38.693,1006.937
0.602098942,-40.35469,5.016717,-17.53208,0.4253563,0.7209623,0.5284457,-25.8612,-13.32206,-38.693,1006.937
0.637397289,-61.47576,10.86689,-25.65692,0.4216074,0.6644582,0.5319092,-25.49785,-13.32887,-39.12859,1006.937
0.670174599,-73.58931,19.02168,-35.18681,0.3818519,0.6362885,0.5209747,-25.53166,-11.50669,-39.15724,1006.933
0.702951908,-78.37261,23.15817,-42.94512,0.3404446,0.5060666,0.6146533,-25.53166,-11.50669,-39.15724,1006.931
0.735728741,-15.19578,18.48985,-42.45641,0.3040614,0.5057979,0.6898325,-24.44909,-11.16865,-40.90482,1006.931
0.768506527,10.95706,12.52149,-41.96769,0.2725083,0.7228647,0.7757439,-23.41168,-8.261712,-41.38718,1006.931
0.803804874,-11.53066,4.780346,-41.54007,0.2510645,0.7623701,0.8094305,-23.41168,-8.261712,-41.38718,1006.931
0.836582184,2.384397,-0.5379951,-35.85879,0.2547331,0.6251771,0.6868814,-22.66928,-8.986387,-40.94155,1006.931
0.869359016,19.71609,-6.269986,-33.72068,0.2457871,0.7168494,0.7132393,-21.94185,-8.994077,-41.3776,1006.931
0.902136326,24.99636,-5.91543,-34.75919,0.2445674,0.6028479,0.6397657,-21.94185,-8.994077,-41.3776,1006.931
0.937434673,51.27345,-9.697361,-35.49226,0.2230378,0.6637402,0.5973651,-22.28564,-10.08652,-41.35994,1006.933
0.970211506,50.96284,-9.992825,-39.09651,0.221885,0.7391846,0.5919592,-22.26536,-11.17983,-41.34275,1006.933
1.002988815,32.69934,-10.9974,-44.1669,0.2051931,0.8205476,0.6159443,-22.26536,-11.17983,-41.34275,1006.939
1.035766602,4.558625,-8.397322,-45.69412,0.1876139,0.8542157,0.5759822,-22.20909,-14.07749,-39.99158,1006.941
1.068543434,-10.164,-2.251683,-42.88403,0.1698667,0.7473684,0.5006115,-21.80226,-16.24715,-38.65233,1006.941
1.103842258,73.88541,-13.71566,-31.21602,0.1730497,0.8551486,0.5875679,-20.71003,-16.24977,-38.65374,1006.941
1.136619091,50.27952,-12.71109,-17.83753,0.1688992,1.173212,0.5962443,-20.71003,-16.24977,-38.65374,1006.941
1.169396400,5.987402,-8.515508,-1.587852,0.1508588,0.9824884,0.5060785,-21.40118,-18.11397,-37.38002,1006.941
1.202173233,1.82531,-5.856337,5.437385,0.1481964,0.8702103,0.4720774,-21.72469,-20.29972,-37.34517,1006.942
1.237471581,-4.697371,-1.3062,4.276694,0.1764608,0.8296019,0.4816988,-21.72469,-20.29972,-37.34517,1006.944
1.270248890,-6.933719,0.8211366,0.977887,0.172653,0.8024836,0.508705,-21.73072,-19.92934,-36.91579,1006.944
1.303026676,-4.821612,1.943898,-1.648941,0.1672785,0.8206096,0.5303516,-21.72469,-20.29972,-37.34517,1006.948
1.335803509,-6.001907,2.416639,-1.832208,0.1619323,0.8220027,0.5269927,-21.72469,-20.29972,-37.34517,1006.948
1.368580818,3.751054,1.76662,-0.6104274,0.1589699,0.8494996,0.5625791,-21.36061,-20.30059,-37.34564,1006.947
1.403879166,-16.87304,5.075809,1.833133,0.149665,0.8744501,0.5197223,-20.99653,-20.30146,-37.34611,1006.948
1.436655998,-4.759492,1.352971,1.833133,0.1591593,0.7610331,0.517464,-20.99653,-20.30146,-37.34611,1006.947
1.469433308,1.328344,-0.183439,1.40551,0.1575248,0.8420916,0.5495969,-20.6467,-19.5794,-37.79315,1006.947
1.502210617,-2.771627,-0.4198098,-0.1217153,0.1629571,0.8041616,0.5515666,-21.00329,-19.93703,-37.35184,1006.947
1.537508965,5.863161,-1.3062,-0.3049823,0.1483925,0.7980149,0.5256169,-21.00329,-19.93703,-37.35184,1006.947
1.570286751,1.079861,-0.2425317,-1.221318,0.1580133,0.8411317,0.5510413,-20.63994,-19.94384,-37.78742,1006.947
1.603063583,2.135914,-0.9516439,-0.8547835,0.1643403,0.83131,0.5317866,-20.64598,-19.57346,-37.35804,1006.945
1.635840893,1.141981,-0.4789024,-0.3660714,0.1589996,0.8317792,0.5356494,-20.64598,-19.57346,-37.35804,1006.945
1.668617725,-0.4110378,-0.183439,-0.3049823,0.1614317,0.82833,0.5269843,-21.37413,-19.57171,-37.3571,1006.945
1.703916073,-0.659521,-0.1243463,-0.6104274,0.1565923,0.8234929,0.5375931,-20.63921,-19.9379,-37.35231,1006.945
1.736693382,-7.057961,0.5256732,-1.526763,0.1595028,0.8244812,0.5361406,-20.63921,-19.9379,-37.35231,1006.945
1.769470215,-20.35181,1.589342,-4.031413,0.1536758,0.820389,0.5149807,-20.99726,-20.30741,-37.78122,1006.948
1.802247524,2.011672,-0.8925512,-2.93181,0.1576614,0.7901807,0.5785565,-21.73956,-19.58188,-38.1647,1006.942
1.835025310,-13.02156,1.1166,-2.870721,0.1497392,0.8483348,0.5462364,-21.73956,-19.58188,-38.1647,1006.942
1.870323658,6.794973,-1.128922,-0.6715164,0.1508482,0.7919047,0.554502,-21.0243,-18.84966,-37.80414,1006.944
1.903100967,1.887431,-1.247107,-0.3049823,0.155083,0.8504413,0.5625869,-20.66022,-18.85053,-37.80461,1006.944
1.935877800,1.701069,-0.3016244,0.4280859,0.1575957,0.810368,0.5400172,-20.66022,-18.85053,-37.80461,1006.944
1.968655109,0.7071361,-0.06525365,0.1837298,0.1565994,0.8210779,0.5404848,-21.38765,-18.84284,-37.36856,1006.947
2.003953457,1.638948,-0.3016244,0.3669968,0.1527294,0.8172329,0.5525339,-21.38224,-19.21832,-38.17089,1006.947
2.036730289,2.011672,-0.5970877,0.5502639,0.1541836,0.8167011,0.5443481,-21.38224,-19.21832,-38.17089,1006.947
2.069507599,1.82531,-0.4198098,0.1226408,0.1483576,0.8161588,0.5434,-21.38224,-19.21832,-38.17089,1006.947
2.102284431,1.141981,-0.4198098,-0.06062628,0.150775,0.8205622,0.5433877,-21.01754,-19.21409,-37.79841,1006.945
2.135062218,0.2722907,-0.2425317,-0.06062628,0.1546483,0.8249645,0.5414464,-21.01817,-19.21919,-38.17137,1006.945
2.170360565,0.2722907,-0.2425317,-0.06062628,0.1551363,0.8245016,0.5443341,-21.01817,-19.21919,-38.17137,1006.945
2.203137875,0.5207738,-0.3607171,0.0004627327,0.1580744,0.8127904,0.5376058,-21.01078,-19.57853,-37.79268,1006.945
2.235915184,0.5828946,-0.1243463,-0.06062628,0.154664,0.8181396,0.5404939,-21.00329,-19.93703,-37.35184,1006.941
2.268692017,0.5828946,-0.183439,-0.1828043,0.1556177,0.8259568,0.5428867,-21.00329,-19.93703,-37.35184,1006.939
2.303990364,-0.1625547,0.05293171,0.1837298,0.1531924,0.8249658,0.5433753,-21.37486,-19.57766,-37.79221,1006.939
2.336767674,-0.4731586,0.05293171,0.1837298,0.1551477,0.8201352,0.5467474,-21.38838,-18.84879,-37.80367,1006.939
2.369545460,-0.2867963,-0.06525365,0.0004627327,0.1532052,0.8206193,0.5486768,-21.38838,-18.84879,-37.80367,1006.939
2.402322292,0.2101699,-0.06525365,-0.06062628,0.1532119,0.8176939,0.5481998,-21.38089,-19.20728,-37.36283,1006.939
2.435099602,0.5207738,-0.06525365,-0.06062628,0.159522,0.8187206,0.5481833,-21.37548,-19.58275,-38.16516,1006.937
2.470397949,0.4586531,-0.2425317,0.1226408,0.1565955,0.8235432,0.5448135,-21.37548,-19.58275,-38.16516,1006.941
2.503174782,-0.659521,-0.1243463,-0.06062628,0.1653336,0.8245934,0.5452725,-21.37548,-19.58275,-38.16516,1006.94
2.535952091,-0.4731586,0.1120244,-0.2438933,0.1566013,0.821108,0.5448171,-21.01682,-19.20815,-37.3633,1006.94
2.568729401,-0.659521,0.05293171,-0.1828043,0.1537007,0.8162336,0.5477195,-21.01682,-19.20815,-37.3633,1006.94
2.604027748,0.08592838,-0.1243463,-0.1828043,0.1532011,0.8215667,0.5448245,-20.6595,-18.84459,-37.3695,1006.94
2.636804581,-0.03831317,-0.183439,-0.1217153,0.1531962,0.8240152,0.5467463,-21.38162,-19.21322,-37.79794,1006.941
2.669582367,-0.2867963,0.1711171,0.0004627327,0.1546595,0.8205947,0.5433784,-21.38162,-19.21322,-37.79794,1006.943
2.702359676,-0.2867963,-0.006160967,0.0004627327,0.1566048,0.8206578,0.5501127,-20.63921,-19.9379,-37.35231,1006.941
2.735136509,-0.1625547,-0.006160967,0.06155175,0.1580603,0.821157,0.5501085,-21.00402,-19.94297,-37.78695,1006.941
2.770434856,0.1480492,0.1711171,0.0004627327,0.1561301,0.8147625,0.5433837,-21.00402,-19.94297,-37.78695,1006.943
2.803212166,-0.2867963,0.05293171,0.06155175,0.1585588,0.8147961,0.5453033,-21.00329,-19.93703,-37.35184,1006.943
2.835988998,0.4586531,-0.1243463,-0.1828043,0.1566219,0.8123382,0.5443489,-21.02358,-18.84371,-37.36903,1006.943
2.868766308,0.3965323,-0.06525365,-0.3660714,0.1565968,0.8235633,0.5477016,-21.02358,-18.84371,-37.36903,1006.943
2.904065132,0.02380761,0.1711171,-0.1217153,0.1541628,0.8244568,0.5390415,-21.01005,-19.57259,-37.35757,1006.943
2.936842442,-1.032246,0.3483951,0.1837298,0.1507749,0.8210661,0.5457937,-21.00933,-19.56664,-36.92246,1006.945
2.969619751,-0.659521,0.1711171,0.3059078,0.1507817,0.8176368,0.5429106,-21.00933,-19.56664,-36.92246,1006.943
3.002396584,0.02380761,-0.06525365,0.2448188,0.1600172,0.8148351,0.5491507,-21.38162,-19.21322,-37.79794,1006.945
3.035173893,0.3344115,-0.006160967,-0.2438933,0.1541825,0.8171881,0.5443474,-21.01754,-19.21409,-37.79841,1006.945
3.070472240,0.2101699,0.05293171,-0.3660714,0.1541657,0.8250074,0.5481865,-21.37558,-19.5836,-38.22732,1006.947
3.103249073,-0.1625547,0.05293171,-0.1217153,0.1566035,0.8206377,0.5472246,-21.37558,-19.5836,-38.22732,1006.947
3.136026382,-0.8458833,0.4665805,0.1837298,0.154662,0.8211387,0.5515607,-21.01005,-19.57259,-37.35757,1006.947
3.168804169,-0.4110378,-0.006160967,0.06155175,0.1512787,0.8137782,0.547729,-21.38838,-18.84879,-37.80367,1006.947
3.204102516,0.5207738,-0.1243463,-0.1217153,0.1532182,0.8147616,0.5467601,-21.38838,-18.84879,-37.80367,1006.948
3.236879349,0.1480492,0.1711171,0.0004627327,0.1517446,0.8215579,0.5453093,-21.37413,-19.57171,-37.3571,1006.95
3.269656658,0.08592838,0.1120244,-0.1828043,0.1561188,0.8196362,0.5438578,-20.6595,-18.84459,-37.3695,1006.95
3.302433491,-0.348917,-0.006160967,0.06155175,0.1566022,0.8206176,0.5443365,-20.6595,-18.84459,-37.3695,1006.95
3.335210800,-0.4731586,0.2302098,0.0004627327,0.1536956,0.8176678,0.5438665,-21.01005,-19.57259,-37.35757,1006.948
3.370509148,0.2101699,0.05293171,-0.1828043,0.1556418,0.8182514,0.5554137,-20.64598,-19.57346,-37.35804,1006.948
3.403286457,0.6450153,-0.006160967,-0.1217153,0.1488282,0.8230013,0.5462767,-20.64598,-19.57346,-37.35804,1006.948
3.436064243,-0.1625547,0.05293171,0.0004627327,0.1517441,0.8220549,0.5467526,-20.65274,-19.20902,-37.36377,1006.948
3.468841076,-0.4731586,0.2302098,-0.06062628,0.1551506,0.8186641,0.5453056,-21.38162,-19.21322,-37.79794,1006.947
3.504139423,-0.03831317,0.1120244,0.06155175,0.1522464,0.8147435,0.5453184,-21.38162,-19.21322,-37.79794,1006.947
3.536916733,-0.1004339,-0.1243463,0.06155175,0.1536979,0.8177046,0.5491614,-21.73893,-19.57679,-37.79174,1006.947
3.569693566,-0.4110378,0.05293171,0.5502639,0.1526971,0.8293551,0.5448139,-21.37486,-19.57766,-37.79221,1006.948
3.602470875,-2.709507,0.3483951,1.894222,0.1594628,0.8420409,0.5399651,-21.37486,-19.57766,-37.79221,1006.948
3.635247707,-4.821612,0.3483951,4.765406,0.1574902,0.8561987,0.5471689,-21.01754,-19.21409,-37.79841,1006.948
3.670546532,-7.120081,0.4074878,7.758768,0.152678,0.8416848,0.566938,-21.38838,-18.84879,-37.80367,1006.95
3.703324318,11.39191,-5.797244,16.06688,0.1531672,0.8427565,0.5804134,-21.38838,-18.84879,-37.80367,1006.95
3.736101150,27.48119,-7.451839,25.04696,0.1780923,0.9813497,0.5897726,-21.75391,-18.8598,-38.67342,1006.956
3.768878460,-6.374632,-14.72024,39.76941,0.164098,1.160387,0.6487435,-21.75246,-18.84791,-37.8032,1006.956
3.804176807,-58.55608,-21.92955,59.01245,0.198326,1.058825,0.6406322,-21.75246,-18.84791,-37.8032,1006.956
3.836953640,-49.42433,-23.40686,80.82124,0.2409134,0.9180569,0.657591,-21.7457,-19.21235,-37.79747,1006.958
3.869730949,10.02525,-37.41183,108.0669,0.2177477,0.8432953,0.5802594,-23.97186,-16.95975,-37.82999,1006.958
3.902507782,67.8597,-56.49876,140.5052,0.3844991,1.168566,0.5793737,-23.97186,-16.95975,-37.82999,1006.958
3.935285091,-6.498874,-42.08015,165.063,0.368348,1.217458,0.5557515,-25.1188,-14.04673,-38.24737,1006.956
3.970583916,-4.63525,-45.62571,193.4694,0.3745427,0.8353334,0.4374164,-27.68555,-12.93033,-37.0181,1006.956
4.003361225,21.70396,-45.92117,213.0789,0.446656,0.7281998,0.422966,-31.08305,-9.636456,-36.63025,1006.956
4.036138058,22.82213,-45.56662,225.2357,0.5458116,0.6861345,0.4179806,-31.08305,-9.636456,-36.63025,1006.956
4.068915367,-12.21399,-40.48465,229.6341,0.6320827,0.5616238,0.4790966,-33.35363,-4.809024,-34.96243,1006.954
4.101692677,-27.55782,-47.10303,232.322,0.6921851,0.4013364,0.4695684,-35.63068,0.3153119,-33.79665,1006.952
4.136991024,-61.41364,-45.56662,230.978,0.7406836,0.2240498,0.4807919,-35.63068,0.3153119,-33.79665,1006.952
4.169767857,-53.33794,-54.48961,231.2224,0.7484527,0.008943503,0.4252597,-36.85104,7.31486,-33.03484,1006.951
4.202545643,-42.21832,-57.68062,231.7111,0.821031,-0.08840545,0.4165697,-35.90578,15.41437,-31.42282,1006.951
4.235322952,-11.09581,-67.78547,236.2928,0.6863669,-0.2405553,0.340582,-35.90578,15.41437,-31.42282,1006.949
4.270621300,-11.46854,-64.299,233.9714,0.5723129,-0.2719741,0.3019095,-33.14554,23.88499,-29.01081,1006.949
4.303398132,-23.45785,-65.53995,224.6248,0.4859986,-0.5400887,0.2307954,-31.06031,29.36415,-27.79425,1006.949
4.368952274,-15.94123,-47.22121,172.1493,0.3817908,-0.8344953,0.1823874,-27.09911,35.28689,-24.90851,1006.951
4.401729584,-34.20474,-42.25743,134.7628,0.3612235,-0.9777902,0.1220006,-21.7169,39.66488,-23.67898,1006.948
4.437027931,-37.12442,-37.23455,94.26082,0.3262249,-0.9726126,0.06816329,-21.7169,39.66488,-23.67898,1006.946
4.469805718,-25.56995,-34.75266,63.2276,0.3496267,-1.019938,0.02822609,-17.683,41.49515,-22.40754,1006.943
4.502583027,-1.218608,-30.43889,37.26476,0.3641236,-0.9976772,-0.00986942,-14.81603,44.12289,-20.77408,1006.943
4.535359860,1.328344,-24.11598,15.76143,0.3897351,-0.9498947,-0.03310755,-14.81603,44.12289,-20.77408,1006.937
4.570658207,25.05848,-15.31117,1.955311,0.4707098,-0.9050527,-0.05550983,-13.73732,44.84915,-20.78695,1006.935
4.603435516,31.95389,-4.556298,-5.741905,0.4881379,-0.8814793,-0.04836627,-13.3875,45.57121,-21.23399,1006.933
4.636212349,51.27345,6.316756,-7.085864,0.5516902,-0.8641638,-0.08608934,-13.3875,45.57121,-21.23399,1006.938
4.668989658,57.67189,21.20811,-9.040712,0.5768452,-0.8437142,-0.1872658,-13.37397,44.84233,-21.22253,1006.938
4.701767445,114.326,52.76361,-4.703392,0.7198865,-0.8391106,-0.6078408,-13.35046,43.35571,-23.31301,1006.936
4.737065792,200.8603,172.7809,-4.459036,0.6247945,-0.7154347,-0.8484825,-13.35046,43.35571,-23.31301,1006.936
4.769842625,141.2243,285.8252,-23.88534,0.6951004,-1.171999,-0.2621439,-13.69353,41.77951,-27.57762,1006.934
4.802619934,232.1691,338.5949,-69.39665,-2.918434,1.154248,-8.017112,-9.571906,38.03114,-34.4252,1006.934
4.835397243,-47.37434,-52.42137,53.81989,2.692739,-1.421283,0.4998216,-9.571906,38.03114,-34.4252,1006.934
4.870695591,-3.827681,-32.38895,-22.90792,-1.39416,-0.05735946,0.6104709,-1.423346,30.26321,-36.86276,1006.934
4.903472424,-79.30442,34.09032,-13.68348,1.046945,-0.9725212,0.3355349,-3.69756,35.06093,-37.3705,1006.932
4.936250210,-4.014042,-8.220044,-20.46436,0.4919352,-0.747425,0.4544457,-3.69756,35.06093,-37.3705,1006.931
4.969027519,-19.60636,-0.7152731,-4.459036,0.3632698,-0.7170173,0.6395479,-3.687166,34.72621,-35.18921,1006.929
5.001804352,-24.57602,-13.65657,-11.36209,0.3471937,-0.8881833,0.6980888,-3.699962,35.46103,-34.76556,1006.929
5.037102699,-15.81699,-16.25665,-27.67286,0.2978178,-0.7564158,0.6556475,-4.433528,35.83825,-33.96228,1006.929
5.069880009,-23.58209,-16.72939,-50.70342,0.2858099,-1.025198,0.609389,-4.433528,35.83825,-33.96228,1006.929
5.102656841,13.93886,-23.58414,-75.62773,0.3632041,-0.9104865,0.5531946,-5.167717,36.21037,-33.53196,1006.929
5.135434151,-1.777695,-29.78887,-93.77117,0.3428683,-0.7304428,0.5544156,-7.72302,36.58092,-33.5344,1006.927
5.170732498,-29.42144,-33.09806,-105.0726,0.3894401,-0.7241578,0.4917186,-7.72302,36.58092,-33.5344,1006.925
5.203510284,-16.06547,-36.58453,-119.4286,0.448726,-0.7608199,0.4011372,-10.25128,35.49371,-33.51392,1006.925
5.236287594,-9.045826,-33.5708,-132.4405,0.5129561,-0.6303908,0.3098109,-13.94524,35.1441,-33.06831,1006.922
5.269064426,-11.9655,-25.35692,-143.742,0.6122593,-0.533273,0.2887305,-13.94524,35.1441,-33.06831,1006.925
5.301841736,-31.0987,-15.843,-152.7832,0.5808668,-0.4015883,0.2828301,-18.64902,33.71552,-31.73394,1006.923
5.337140083,-25.69419,-3.433537,-157.1816,0.6837257,-0.3807899,0.2084251,-22.68431,32.22376,-30.46165,1006.923
5.369916916,-8.486739,12.81695,-157.2427,0.657657,-0.2372113,0.2255995,-22.68431,32.22376,-30.46165,1006.923
5.402694225,-4.511009,17.66255,-157.1816,0.7429042,-0.1372836,0.2753084,-26.64173,29.68315,-30.3542,1006.923
5.435472012,-0.4731586,21.91722,-151.9279,0.8369365,-0.06688972,0.2696843,-30.22779,26.78148,-29.93072,1006.921
5.470770359,19.28125,32.37663,-145.4525,0.9348748,-0.0016834,0.2837945,-30.22779,26.78148,-29.93072,1006.919
5.503547192,5.366195,43.07241,-141.2374,0.902625,0.1029827,0.385762,-32.03521,22.77123,-30.30037,1006.919
5.536324501,-17.86698,50.22262,-135.3117,0.8598267,0.1323716,0.3911142,-34.14021,18.31956,-31.90612,1006.919
5.569101811,-4.448888,57.25465,-128.4086,0.8566896,0.2212857,0.3640313,-34.14021,18.31956,-31.90612,1006.918
5.601878643,-29.48356,64.75942,-122.9717,0.7666444,0.3288052,0.4555416,-34.43885,14.65823,-33.15369,1006.918
5.637176990,-67.5636,72.79603,-122.4219,0.6652497,0.2960123,0.4842319,-33.65756,11.66327,-34.35101,1006.918
5.669954777,-71.97417,72.146,-122.483,0.5881507,0.2631893,0.549448,-33.65756,11.66327,-34.35101,1006.919
5.702732086,-53.33794,67.00494,-122.8495,0.5515848,0.3368416,0.6091126,-32.53443,9.81469,-36.06422,1006.918
5.735508919,-37.12442,69.13228,-127.6145,0.5959316,0.2937514,0.7327823,-31.43013,9.071308,-36.92439,1006.918
5.770807266,18.16307,56.30917,-130.7911,0.5415564,0.2954499,0.7622718,-31.43013,9.071308,-36.92439,1006.919
5.803584576,50.2174,47.1498,-125.5986,0.4739334,0.5570351,0.7798483,-30.67097,7.224453,-38.57497,1006.919
5.836361408,18.66004,47.9771,-118.2068,0.4197448,0.6742817,0.7562134,-29.47822,5.029124,-38.97718,1006.919
5.869138718,-20.10332,54.95004,-109.5932,0.3197786,0.6238806,0.6323352,-29.47822,5.029124,-38.97718,1006.919
5.901916504,-32.96232,62.27753,-100.3077,0.2437208,0.5527596,0.6518772,-27.94859,0.9382548,-40.22041,1006.919
5.937214851,-37.12442,48.62712,-90.96107,0.2115261,0.4597929,0.9091408,-26.81651,-1.256928,-40.62255,1006.921
5.969992161,-14.76094,45.67249,-101.896,0.4093095,0.4285486,1.081046,-24.61925,-1.996982,-41.04903,1006.923
6.002768993,-10.59885,40.82689,-125.232,0.2617754,0.6123997,1.152361,-24.61925,-1.996982,-41.04903,1006.925
6.035546303,-0.7837625,23.7491,-118.2068,0.0600216,0.6892467,1.029495,-23.16367,-2.006416,-41.48602,1006.929
6.070844650,-12.58671,19.90807,-92.30504,-0.0320174,0.5646045,0.8657566,-20.9482,-3.856763,-43.13847,1006.929
6.103621483,127.9305,-31.62075,-54.61312,-0.01573389,0.8733655,0.9129075,-20.9482,-3.856763,-43.13847,1006.931
6.136399269,68.85363,-30.3798,10.50777,0.1235478,1.989097,1.224262,-20.89266,-6.760372,-42.22241,1006.932
6.169176579,-13.20792,-21.27953,38.79199,0.1697665,0.8134903,0.624222,-20.82184,-10.4485,-40.92098,1006.932
6.201953411,-39.05016,-10.2292,40.19703,0.1095301,0.6004411,0.5260069,-20.82184,-10.4485,-40.92098,1006.932
6.237251759,5.428316,-7.629117,29.32319,0.1687054,0.4206276,0.5112153,-21.8991,-11.16287,-40.03789,1006.932
6.270029068,10.58434,4.780346,12.95133,0.2232605,0.5793325,0.645628,-22.66324,-9.356768,-41.37093,1006.932
6.302806377,-19.04727,18.60803,1.40551,0.1988625,0.6454543,0.7283804,-22.66324,-9.356768,-41.37093,1006.932
6.335583210,-26.19116,18.72622,-3.5427,0.1495459,0.5730835,0.8162143,-22.66252,-9.350824,-40.93582,1006.932
6.368360996,1.079861,7.08496,-1.465674,0.1277146,0.5752243,0.8701754,-22.31269,-8.628767,-41.38286,1006.932
6.403659344,7.478301,-0.183439,-0.1217153,0.1232512,0.6095926,0.8451033,-22.31269,-8.628767,-41.38286,1006.938
6.436436653,7.478301,-2.783517,-1.343496,0.1368586,0.585132,0.7430592,-21.95537,-8.265203,-41.38906,1006.938
6.469213486,17.3555,-2.84261,-2.32092,0.1537824,0.6114392,0.723725,-21.59129,-8.266075,-41.38953,1006.938
6.501990795,13.62826,-1.010736,-2.992899,0.166242,0.6832145,0.7346586,-21.59129,-8.266075,-41.38953,1006.94
6.537289143,2.881363,1.471156,-1.465674,0.1608723,0.6963632,0.7409092,-21.58453,-8.630512,-41.3838,1006.938
6.570065975,-0.8458833,1.943898,0.3059078,0.1570566,0.6670992,0.7395182,-21.93509,-9.358513,-41.37187,1006.938
6.602843761,-0.03831317,2.416639,0.5502639,0.152289,0.6315627,0.7477663,-21.93509,-9.358513,-41.37187,1006.938
6.635621071,0.8313776,1.648434,-0.06062628,0.150329,0.6383413,0.7443912,-21.21369,-8.995822,-41.37854,1006.94
6.668397903,0.4586531,0.8211366,-0.2438933,0.1532295,0.6447305,0.7491883,-21.5628,-9.711935,-40.49639,1006.942
6.703696728,2.135914,0.5847659,-0.1217153,0.147908,0.6369136,0.7521009,-21.5628,-9.711935,-40.49639,1006.946
6.736473560,3.937417,0.6438586,-0.4271604,0.1527557,0.6363231,0.7313917,-21.93509,-9.358513,-41.37187,1006.944
6.769250870,5.738919,-0.5970877,-0.4271604,0.1429631,0.6718452,0.7385818,-21.57101,-9.359386,-41.37234,1006.944
6.802027702,0.8313776,0.7620439,-0.4882494,0.1464098,0.6503941,0.7313856,-21.57101,-9.359386,-41.37234,1006.942
6.837327003,4.496504,0.939322,-0.3049823,0.1507671,0.6562917,0.7337732,-21.57704,-8.989005,-40.94296,1006.942
6.870103836,-0.348917,0.5847659,-0.3660714,0.1527055,0.6597841,0.7433905,-21.93509,-9.358513,-41.37187,1006.942
6.902881145,1.141981,0.4665805,-0.2438933,0.1478653,0.652408,0.7390808,-21.93509,-9.358513,-41.37187,1006.944
6.935657978,1.390465,-0.2425317,-0.1828043,0.1478638,0.6533955,0.7410048,-22.29168,-9.716134,-40.93056,1006.942
6.968435287,1.82531,0.05293171,-0.2438933,0.1556309,0.652923,0.7337667,-21.56352,-9.717879,-40.9315,1006.942
7.003733635,1.204102,0.5256732,-0.3660714,0.1488066,0.6635675,0.7318414,-21.54251,-10.80525,-40.4792,1006.942
7.036510468,1.01774,-0.4198098,-0.4271604,0.1453906,0.671355,0.7352073,-21.54251,-10.80525,-40.4792,1006.942
7.069288254,-0.8458833,0.7620439,-0.2438933,0.1401076,0.6449441,0.7256324,-21.57101,-9.359386,-41.37234,1006.942
7.102065563,1.763189,0.4665805,-0.3049823,0.1478606,0.6543561,0.7390779,-21.19341,-10.08913,-41.36135,1006.944
7.137363911,0.1480492,0.1711171,0.0004627327,0.1454096,0.6630656,0.7337757,-21.19341,-10.08913,-41.36135,1006.944
7.170141220,1.141981,0.4074878,-0.1828043,0.1415648,0.6454701,0.729479,-21.9276,-9.717007,-40.93103,1006.944
7.202918053,1.452585,0.5256732,-0.3049823,0.1458983,0.6610981,0.730408,-21.55749,-10.08826,-41.36088,1006.944
7.235695362,1.763189,0.1711171,-0.3049823,0.1483284,0.660648,0.7328096,-21.55749,-10.08826,-41.36088,1006.944
7.268473148,1.949552,0.7620439,-0.2438933,0.1430068,0.652324,0.7328348,-21.19268,-10.08319,-40.92624,1006.948
7.303771496,3.564692,0.7620439,-0.6715164,0.1400717,0.6610528,0.7309031,-21.57101,-9.359386,-41.37234,1006.948
7.336548328,4.372262,0.1711171,-0.7326055,0.137644,0.6605288,0.7285029,-21.57101,-9.359386,-41.37234,1006.95
7.369325638,4.682866,0.1120244,-1.09914,0.1444434,0.659598,0.7265627,-21.19268,-10.08319,-40.92624,1006.948
7.402102470,1.576827,0.7620439,-1.404585,0.1434448,0.6697672,0.7193293,-21.55,-10.44675,-40.92004,1006.948
7.437401295,1.887431,1.412063,-1.221318,0.1376243,0.6677973,0.723197,-21.55,-10.44675,-40.92004,1006.948
7.470178127,3.005605,1.352971,-1.160229,0.1356731,0.6711769,0.7212711,-21.54396,-10.81713,-41.34942,1006.948
7.502955914,0.9556192,2.180268,-1.160229,0.1351722,0.6790155,0.7284809,-21.54927,-10.44081,-40.48493,1006.948
7.535733223,-5.007975,1.412063,1.772044,0.123846,0.7466626,0.7346635,-21.54927,-10.44081,-40.48493,1006.946
7.568510056,-17.43213,0.939322,10.75213,0.1266477,0.7959569,0.7461352,-21.1724,-11.1765,-40.90905,1006.95
7.603808403,-33.14869,2.534824,23.58082,0.1416766,0.8078347,0.7552276,-21.18665,-10.45357,-41.35562,1006.946
7.636585712,-40.41682,-2.015312,37.38694,0.09954114,0.7819127,0.8603035,-21.18665,-10.45357,-41.35562,1006.946
7.669362545,10.95706,-17.79306,48.26078,0.1428204,0.5362755,0.7840344,-21.56425,-9.723824,-41.36661,1006.946
7.702139854,77.4263,-29.72978,60.29532,0.2320022,0.8102603,0.7853355,-21.60594,-7.476461,-41.40195,1006.946
7.737438679,15.554,-22.57957,80.63797,0.2560462,1.106321,0.7477674,-21.60594,-7.476461,-41.40195,1006.95
7.770215988,-27.24721,-19.15219,99.69775,0.4200195,0.9523265,0.6778131,-22.69029,-7.89902,-41.39385,1006.946
7.802992821,-94.71037,-8.042766,109.2887,0.3453704,0.9112813,0.7483308,-24.16052,-7.099972,-40.96928,1006.946
7.835770130,-108.5633,-12.94746,106.6619,0.3254412,0.5092399,0.7388754,-24.16052,-7.099972,-40.96928,1006.946
7.868546963,-53.77278,-31.9753,114.298,0.4037278,0.4585769,0.713254,-25.65812,-4.915804,-41.43689,1006.95
7.903845787,6.60861,-25.35692,118.8186,0.6659732,0.4340935,0.6592377,-25.03139,0.5490055,-41.52378,1006.95
7.936622620,44.68865,-1.719849,130.2422,0.7494774,0.6441925,0.6553534,-25.03139,0.5490055,-41.52378,1006.95
7.969400406,-18.79879,50.16353,140.383,0.8450933,0.8862921,0.7563291,-25.83431,4.626241,-41.15171,1006.946
8.002177715,-100.7982,84.49638,151.8678,0.6278436,0.5479828,0.6938146,-25.86812,6.448426,-41.18036,1006.946
8.037476063,-117.5708,108.2516,168.9727,0.5997703,0.5067204,0.6770957,-23.01105,9.345053,-42.10019,1006.948
8.070252895,-149.3767,121.6066,175.5703,0.4573844,0.3542382,0.7026939,-23.01105,9.345053,-42.10019,1006.942
8.103030205,-155.4645,122.9657,176.3645,0.3389541,0.1241858,0.6806976,-17.23506,15.21758,-42.57337,1006.941
8.135807037,-136.4556,116.4064,172.8824,0.2105974,-0.01839003,0.6431893,-10.43649,21.78379,-41.00715,1006.943
8.168584824,-126.7647,112.8018,164.8797,0.1660782,-0.08051803,0.6573482,-10.43649,21.78379,-41.00715,1006.943
8.203883171,-132.2935,109.6108,159.3206,0.1046101,-0.1632865,0.6653204,-3.191823,27.33425,-38.1199,1006.943
8.236660481,-117.8193,107.6607,153.0284,-0.007244657,-0.3043237,0.6191062,4.465374,30.27203,-35.19207,1006.941
8.269437790,-88.4983,98.79681,145.2701,-0.1697092,-0.4045792,0.5450316,4.465374,30.27203,-35.19207,1006.94
8.302214623,-54.45611,95.96036,135.9235,-0.1792957,-0.4461461,0.602399,11.40296,32.93164,-30.51807,1006.94
8.334991932,-35.81988,92.11933,124.3166,-0.3558307,-0.5327064,0.6236467,17.60412,32.59398,-27.47455,1006.94
8.370290279,11.14343,78.40983,107.0895,-0.4133494,-0.652818,0.5796789,17.60412,32.59398,-27.47455,1006.94
8.403068066,75.43843,77.16888,90.10677,-0.4846179,-0.7113013,0.5197659,23.15163,31.4615,-24.91502,1006.938
8.435844898,119.5442,74.27334,76.11739,-0.5819505,-0.4028773,0.5849971,27.21951,28.1898,-23.56328,1006.936
8.468622208,95.31708,78.5871,58.58483,-0.7089841,-0.2742684,0.6019522,27.21951,28.1898,-23.56328,1006.936
8.503920555,70.90362,69.66412,51.86504,-0.8474776,-0.2311238,0.5993275,30.63126,24.173,-23.50456,1006.934
8.536697388,53.75828,67.53677,41.96862,-0.8138131,-0.3030982,0.5743253,32.52184,20.47541,-22.57843,1006.934
8.569474697,41.76897,84.91003,30.42279,-0.7755015,-0.285349,0.5592855,32.52184,20.47541,-22.57843,1006.933
8.602252483,10.70858,91.41022,22.48122,-0.8432845,-0.1434375,0.6670574,34.75498,17.93016,-21.73307,1006.934
8.635029316,-1.777695,77.28707,13.07351,-0.8578908,-0.3290364,0.6794058,36.62706,15.4104,-19.08464,1006.933
8.670328140,35.43265,59.3229,9.46926,-0.983085,-0.3929486,0.5339465,36.62706,15.4104,-19.08464,1006.933
8.703104973,58.6037,44.78609,8.003123,-1.050789,-0.2886987,0.6186696,38.10115,14.71285,-16.52655,1006.934
8.735882282,63.20064,17.66255,18.02172,-0.9666235,-0.1303979,0.729426,38.85249,13.64157,-14.76985,1006.934
8.768659115,49.84467,-1.010736,12.15718,-0.7826133,-0.321108,0.7485314,38.85249,13.64157,-14.76985,1006.934
8.803957462,125.632,7.144053,2.932735,-0.7325998,-0.1641206,0.5012376,38.86529,12.90675,-15.19351,1006.936
8.836735249,99.16857,15.23975,2.138578,-0.6606492,0.02976919,0.631705,39.60809,12.11539,-15.18203,1006.939
8.869512558,112.2761,39.29047,20.09875,-0.761873,0.2612667,0.2850159,39.60809,12.11539,-15.18203,1006.94
8.902289391,99.29281,56.42735,40.01377,-0.8837844,0.509749,0.4447426,39.62765,11.01614,-15.59995,1006.94
8.935066700,-109.3088,42.65876,52.84246,-1.053597,0.6150416,1.292665,40.45705,8.827623,-15.56659,1006.94
8.970365047,12.82069,-33.09806,52.53701,-1.188293,-0.1972629,0.9057495,41.59338,6.667253,-13.42022,1006.94
9.003141880,44.12956,-27.24789,23.45864,-0.6239011,0.09382399,0.6238196,41.59338,6.667253,-13.42022,1006.94
9.035919666,0.7692569,9.035019,10.14124,-0.6834745,0.2371164,0.6401112,41.6198,5.204411,-13.77025,1006.942
9.068696976,33.75539,12.87604,10.32451,-0.7183143,0.1760819,0.5897429,41.64467,3.728831,-15.05267,1006.942
9.103995323,33.13418,14.70792,24.00845,-0.6694388,0.2557108,0.6357177,41.64467,3.728831,-15.05267,1006.936
9.136772633,16.29945,20.55809,24.74151,-0.6764243,0.3284904,0.604336,41.65965,3.011845,-14.17099,1006.94
9.169549465,38.53869,25.3446,11.24084,-0.9106019,-0.04882083,0.4865638,41.68106,1.857794,-14.15284,1006.939
9.202326775,41.14776,15.41703,7.392233,-1.029788,0.03965886,0.466496,41.68106,1.857794,-14.15284,1006.94
9.235103607,97.42918,-4.910854,5.926097,-1.110899,0.2204729,0.3013088,42.43157,0.7797208,-12.89341,1006.94
9.270402908,64.94002,-7.806395,8.308569,-0.7014463,0.4171869,0.502213,42.07425,0.4161558,-12.88721,1006.939
9.303179741,24.49939,-4.37902,11.79064,-0.7770289,0.58735,0.689867,42.07425,0.4161558,-12.88721,1006.939
9.335957050,21.45547,4.130326,2.199667,-0.790078,0.3502972,0.6551157,42.46683,-1.030577,-11.99454,1006.937
9.368733883,20.71003,10.45324,-1.648941,-0.7953255,0.5199127,0.679422,42.46537,-1.042464,-12.86476,1006.937
9.404032707,-11.9655,19.31715,-3.664878,-0.6822271,0.3081054,0.5514307,42.46537,-1.042464,-12.86476,1006.937
9.436809540,10.64646,27.53103,-8.368732,-0.7296374,0.2109372,0.4327933,42.11555,-1.764522,-12.41772,1006.937
9.469587326,23.38122,32.84937,-8.918534,-0.801461,0.4205866,0.5510627,42.46828,-1.018689,-11.12432,1006.937
9.502364636,3.254088,33.32211,-7.94111,-0.6578264,0.2329324,0.4277762,42.46828,-1.018689,-11.12432,1006.939
9.535141468,18.16307,39.40866,-8.674178,-0.5154144,0.5701774,0.3571327,42.84057,-1.372111,-10.24883,1006.939
9.570439816,-104.5255,54.53638,19.42677,-0.6503966,0.3383068,0.233611,42.47254,-0.9838748,-8.575807,1006.937
9.603217125,-115.7693,54.18183,33.04962,-1.006936,0.2049785,0.3294858,42.47254,-0.9838748,-8.575807,1006.937
9.635993957,-70.60751,37.99044,23.39756,-1.231605,-0.2860291,0.2393,42.84628,-1.325409,-6.830099,1006.937
9.668771744,-19.35787,43.24968,13.25678,-1.270591,0.4140268,0.3817832,42.8545,-1.677958,-5.954146,1006.937
9.704070091,-61.10303,16.30342,16.73885,-0.782393,0.3712688,0.5799735,42.8545,-1.677958,-5.954146,1006.937
9.736847401,-33.89413,23.69,15.45598,-0.7108706,0.2740972,0.3878869,43.59898,-2.385651,-4.265338,1006.937
9.769624233,-6.99584,23.80819,11.17975,-0.9540814,0.4684556,0.4743346,43.24239,-2.743271,-3.824026,1006.937
9.802401543,-56.19549,4.071234,15.51707,-1.050897,0.06872068,0.1184777,43.24239,-2.743271,-3.824026,1006.937
9.835178375,29.46906,18.0762,-0.6104274,-0.7297165,0.4955944,0.6754521,42.52245,-3.094076,-2.947133,1006.937
9.870477200,-0.9080041,0.8211366,9.713616,-1.238843,0.07171171,0.07415229,42.52921,-3.458513,-2.941403,1006.937
9.903254986,67.79758,-7.924581,-2.137653,-0.6572214,0.3292407,0.128704,42.52921,-3.458513,-2.941403,1006.941
9.936031818,-8.673101,34.32669,-12.21734,-0.888312,0.6441476,0.7969075,42.16659,-3.445752,-2.070709,1006.941
9.968809128,-23.45785,-4.61539,-14.29437,-0.805226,0.3466532,0.4293985,42.90223,-3.80599,-1.630808,1006.939
10.004107475,-39.11228,48.50893,-21.62505,-0.9584121,0.2215359,0.3408985,42.88943,-3.071173,-1.207156,1006.939
10.036884308,-13.89125,25.64006,-23.76316,-0.8960523,0.3571206,0.4329677,42.88943,-3.071173,-1.207156,1006.941
10.069661617,-30.41537,22.80361,-18.50951,-1.100185,0.1983311,0.2560687,42.88475,-2.689753,0.03029037,1006.939
10.102439404,-20.28969,21.14902,-19.48693,-0.944225,0.1803699,0.3572932,42.14452,-1.947247,0.8899934,1006.939
10.135216236,4.682866,17.42618,-14.05001,-0.9181469,0.2278586,0.2912132,42.14452,-1.947247,0.8899934,1006.939
10.170514584,-1.40497,20.61719,-10.69011,-0.7590672,0.08686606,0.2058473,42.13995,-1.564978,2.189598,1006.939
10.203291893,-7.80341,49.51351,-0.2438933,-0.8431365,0.165961,0.4750088,42.49122,-0.8310323,2.61278,1006.941
10.236069202,-13.58064,39.58594,7.819857,-0.4173631,0.3502479,0.1998263,42.49122,-0.8310323,2.61278,1006.945
10.268846035,-121.2359,97.55585,15.9447,-0.797413,0.2413153,-0.02005314,41.77325,-1.165703,4.670691,1006.943
10.304145336,-47.68495,39.0541,16.00578,-0.8849101,0.2795114,-0.02519816,42.13276,-0.7843065,5.969826,1006.943
10.336922169,-148.6933,67.95042,16.06688,-1.258646,-0.04653472,-0.3073424,42.13276,-0.7843065,5.969826,1006.943
10.369699478,-16.4382,19.61261,18.32717,-1.299481,-0.1587121,0.06934843,41.06506,-1.840186,8.536937,1006.942
10.402476311,5.987402,2.239361,22.6034,-0.5829835,0.6219858,0.4645585,40.30473,-3.284156,9.431098,1006.943
10.435253620,-52.65461,46.73615,18.87697,-1.135915,-0.1175294,0.1218482,40.30473,-3.284156,9.431098,1006.942
10.470551968,33.81751,12.4033,26.81854,-1.126676,0.5393749,0.3745138,40.75049,-4.37254,9.882852,1006.942
10.503328800,-16.37608,42.59966,21.19835,-1.060052,0.2874486,0.3463352,39.96842,-4.735087,9.8896,1006.942
10.536106587,-16.37608,31.90389,33.04962,-1.331735,0.6242323,0.4971382,39.96842,-4.735087,9.8896,1006.943
10.568883896,-32.279,21.3263,17.34974,-0.6742951,0.1116815,-0.1096831,39.25597,-5.444384,11.20733,1006.945
10.601660728,-40.60318,45.73158,26.08547,-1.013928,0.309472,0.4463159,38.91966,-6.895316,11.66584,1006.945
10.636959553,18.66004,57.55011,43.86238,-0.834892,0.4179191,0.6979613,38.91966,-6.895316,11.66584,1006.945
10.669736385,-70.73176,59.14561,64.75483,-0.3707,0.7766914,0.3945057,38.58583,-8.395947,12.93336,1006.945
10.702513695,1.266223,128.8159,81.98193,-0.9906712,-0.03406312,0.6739812,36.43132,-9.824684,14.69954,1006.945
10.735291481,177.1301,50.28171,102.0191,-1.006734,0.4430175,0.9419001,36.43132,-9.824684,14.69954,1006.945
10.770589828,93.20497,-11.29286,40.01377,-1.123185,-0.2980729,1.52911,34.30665,-12.68824,18.16694,1006.945
10.803366661,443.4419,-166.5293,72.26878,-1.074836,2.366423,0.05441983,30.31428,-12.99638,21.59657,1006.947
10.836143970,-651.6852,-165.3475,73.18511,-0.1472616,2.224288,-0.4188192,30.31428,-12.99638,21.59657,1006.947
10.868920803,-930.359,-119.0779,-27.61177,0.3768102,-0.6475962,-0.1798665,29.4856,-10.80192,21.99832,1006.947
10.901698112,272.4234,-136.2148,54.24751,0.7144882,-1.213348,-1.609459,31.05402,-15.00202,8.322295,1006.947
10.936996937,-82.34834,37.51769,56.14127,0.8327892,2.165999,-0.383991,31.18123,-22.42622,2.967875,1006.945
10.969774246,-374.9372,122.493,67.62601,0.451258,0.8055935,0.2707281,31.18123,-22.42622,2.967875,1006.945
11.002551079,4.434383,13.64425,173.5544,0.0708685,1.913648,-0.7380112,28.23208,-23.90062,1.254185,1006.945
11.035328388,-158.7569,157.594,259.6899,-0.666779,2.941329,-0.8283066,22.8193,-26.84973,-2.111662,1006.947
11.070626736,-349.5298,168.5853,278.8718,-1.803187,1.396569,-1.754236,22.8193,-26.84973,-2.111662,1006.95
11.103404045,-56.38186,-394.2725,283.087,-15.68611,1.558999,4.887543,14.13072,-33.55454,-9.703903,1006.954
11.136180878,54.87645,-34.33901,344.6036,-2.5144,-0.8386439,-2.396131,4.232382,-34.01245,-18.26333,1006.959
11.168958664,244.7797,162.0851,295.9157,1.360278,2.209411,2.283844,4.232382,-34.01245,-18.26333,1006.959
11.201735973,225.9571,123.3203,371.9104,0.718668,1.825483,1.003596,-7.070198,-35.71997,-11.81767,1006.964
11.237034321,578.3062,380.6098,180.7629,0.1308734,1.062448,0.7524626,-20.24658,-37.85327,-5.735862,1006.965
11.269811153,134.3289,231.0462,-83.87475,-0.4699652,3.479877,0.1788679,-20.24658,-37.85327,-5.735862,1006.971
11.302588463,-237.7124,143.1163,-73.85616,0.9134274,1.067604,-0.7079273,-29.82881,-34.43712,-1.922245,1006.972
11.335365295,4.931349,8.444092,-57.11777,1.291935,0.3235888,-0.8564445,-32.37605,-36.09934,-17.31142,1006.975
11.370664120,-914.8289,-241.9907,51.92612,-0.1250886,-0.2637322,-3.068388,-32.37605,-36.09934,-17.31142,1006.975
11.403441429,761.2518,140.8708,34.69902,-0.9516967,-1.077425,-3.383381,-36.13733,-31.19992,-32.86449,1006.973
11.436218739,-293.6832,-43.14382,24.49716,-0.05754071,5.682733,0.3088695,-52.3213,-10.00858,-40.88607,1006.976
11.468996048,-986.4541,-134.0874,-8.796356,1.133344,0.2448709,-1.900505,-52.3213,-10.00858,-40.88607,1006.974
11.501772881,-154.8433,233.5281,-22.66356,0.3092731,-0.8609775,-0.3170542,-59.59361,-32.18431,-28.96314,1006.977
11.537071228,-1.467091,-49.34855,39.2807,0.2163955,1.111119,1.13535,-56.67558,-10.29801,-36.15063,1006.977
11.569848538,69.28848,34.97671,-0.5493384,0.179598,1.107882,0.2935409,-56.67558,-10.29801,-36.15063,1006.981
11.602626324,-137.5116,19.08077,-13.31694,0.004625764,0.8154064,0.5379658,-52.30519,-10.29659,-35.28605,1006.978
11.635403156,-36.87593,-0.7152731,-8.246554,-0.05125187,0.6572808,0.69863,-51.57994,-10.32212,-37.02743,1006.98
11.670701504,-6.436753,-2.488054,-6.230617,0.05811672,0.5993876,0.6464708,-51.57994,-10.32212,-37.02743,1006.979
11.703478813,1.079861,-0.4198098,-15.27179,0.07064594,0.6419445,0.6579297,-50.17958,-7.355315,-37.51122,1006.979
11.736255646,15.49188,-0.3607171,-17.28773,0.07835629,0.8567635,0.5834579,-50.18634,-6.990878,-37.51694,1006.981
11.769032955,-37.12442,-3.138073,-23.15227,-0.02862933,0.7407326,0.6955624,-50.18634,-6.990878,-37.51694,1006.985
11.801809788,3.813175,1.234785,-22.90792,-0.002465186,0.7638081,0.690652,-49.01951,-7.789198,-37.94113,1006.986
11.837109089,-4.386767,7.203146,-23.21336,-0.001809421,0.6987884,0.7249251,-48.99923,-8.882509,-37.92394,1006.988
11.869886398,14.49795,8.325907,-25.10712,-0.01690667,0.7055396,0.6633365,-48.99923,-8.882509,-37.92394,1006.992
11.902663231,20.89639,6.730404,-22.4192,-0.0893018,0.7284706,0.6860976,-47.90772,-8.891071,-38.36046,1006.992
11.935440540,31.45692,-0.1243463,-13.50021,-0.1110997,0.6972876,0.6404669,-48.62235,-9.6182,-38.34806,1006.992
11.970738888,18.41156,-3.019888,-8.124376,-0.04545075,0.8478476,0.5707682,-48.24007,-10.72937,-39.57452,1006.993
12.003515720,11.14343,-4.142649,-6.413884,-0.07313919,0.8580518,0.6006629,-48.24007,-10.72937,-39.57452,1006.989
12.036293507,2.63288,-5.442688,-5.314282,-0.06373554,0.7826163,0.5973848,-48.94045,-12.17942,-39.11555,1006.989
12.069070816,8.037388,-8.042766,-7.269131,-0.0598393,0.781822,0.6185566,-49.29714,-12.53789,-38.73639,1006.989
12.101847649,13.19341,-4.910854,-10.99556,-0.0226216,0.8481553,0.5875612,-49.29714,-12.53789,-38.73639,1006.989
12.137145996,-6.871598,-6.742727,-9.407246,-0.05456758,0.8045191,0.5843332,-48.91809,-13.25575,-37.85518,1006.989
12.169923306,-15.32002,-4.260834,-5.802994,-0.09179901,0.7455481,0.6235008,-48.90457,-13.98463,-37.84372,1006.989
12.202700615,-3.268594,-4.37902,-2.32092,-0.07914051,0.7340585,0.6369662,-48.90457,-13.98463,-37.84372,1006.987
12.235477448,4.372262,-3.551722,-0.6715164,-0.0588914,0.7920743,0.6209458,-48.54787,-13.62616,-38.22287,1006.987
12.268255234,-2.21254,-1.719849,0.6113529,-0.0555544,0.8179051,0.6194549,-48.53445,-14.35588,-38.27357,1006.987
12.303553581,-4.697371,0.4665805,0.916798,-0.06122393,0.7521246,0.6219742,-48.53445,-14.35588,-38.27357,1006.987
12.336330891,-7.741289,-0.8925512,1.222243,-0.0656663,0.7827809,0.6233826,-47.80557,-14.35168,-37.8394,1006.987
12.369107723,-3.641318,-0.4198098,1.038976,-0.04970547,0.8092073,0.6223422,-48.16892,-14.34487,-37.40382,1006.987
12.401885033,-13.27004,0.8211366,-0.8547835,-0.04147202,0.8165213,0.6136472,-48.16892,-14.34487,-37.40382,1006.987
12.437183380,-20.16545,0.1711171,-0.9769616,-0.06713091,0.7887067,0.6368553,-48.17703,-13.99147,-38.21761,1006.987
12.469961166,-20.28969,1.412063,-1.893297,-0.04425832,0.767468,0.6368331,-47.82658,-13.26431,-38.2917,1006.986
12.502737999,-28.86235,-0.8334585,-1.282407,-0.06699969,0.7382267,0.6614805,-47.82658,-13.26431,-38.2917,1006.987
12.535515309,-19.60636,0.4074878,-2.992899,-0.07340821,0.7791011,0.6638409,-47.46927,-12.90075,-38.2979,1006.987
12.570813656,-24.14117,0.4074878,-2.992899,-0.05534446,0.7388545,0.6677096,-47.48955,-11.80744,-38.31509,1006.987
12.603590965,-42.52892,1.1166,-3.5427,-0.06739025,0.7023301,0.6827155,-47.48955,-11.80744,-38.31509,1006.987
12.636367798,-33.33505,0.939322,-1.832208,-0.0746249,0.6873757,0.7121182,-46.76878,-11.44984,-38.69471,1006.987
12.669145584,-31.22294,2.121176,-2.504187,-0.06482151,0.6479807,0.7083035,-46.42571,-10.36335,-39.14749,1006.989
12.701922893,-33.83201,0.4074878,-1.587852,-0.06245089,0.6758988,0.7279916,-46.42571,-10.36335,-39.14749,1006.987
12.737221241,-32.15475,3.007566,0.3669968,-0.06635159,0.6872321,0.7515705,-44.98376,-9.644758,-39.6581,1006.987
12.769998074,-51.03947,0.5847659,2.077489,-0.07929022,0.612524,0.7396798,-45.38943,-7.395675,-39.6308,1006.987
12.802775383,-15.94123,5.607644,3.787982,-0.05639542,0.5891079,0.7767256,-45.38943,-7.395675,-39.6308,1006.989
12.835552216,-51.7228,8.503185,18.81588,-0.03137553,1.095371,0.7792727,-43.93312,-7.399165,-39.63268,1006.991
12.868329525,-123.5965,22.74452,36.4706,0.001218818,0.8642569,0.7732861,-43.97441,-5.218487,-40.10217,1006.989
12.903628349,-151.0539,19.43533,73.61273,-0.0502552,0.6627417,0.7823764,-42.55939,-3.041299,-40.57354,1006.989
12.936405659,-161.366,26.1128,97.19309,-0.102448,0.5777977,0.8866023,-42.55939,-3.041299,-40.57354,1006.989
12.969182491,-169.8765,26.1719,80.69906,-0.09233185,0.1912341,0.8255466,-38.61596,3.575505,-40.24777,1006.989
13.001959801,-113.2224,14.0579,55.89691,-0.1668524,-0.3079405,0.921304,-34.35907,9.784237,-38.61038,1006.989
13.037258148,2.073793,-5.619966,25.16914,-0.07552882,-0.1121433,0.9525622,-34.35907,9.784237,-38.61038,1006.991
13.070035458,-16.37608,-3.729,-3.359433,-0.04226198,-0.2170923,0.9487906,-30.45542,15.31297,-37.89438,1006.991
13.102813244,74.81722,-2.665332,0.1837298,0.009119167,0.4471549,1.016021,-30.04418,16.04083,-37.90639,1006.989
13.135590076,1.82531,3.362122,0.977887,-0.03677951,0.3392425,0.9614173,-30.04418,16.04083,-37.90639,1006.989
13.168367386,-15.2579,0.8211366,0.4280859,-0.05293793,0.1900244,0.95446,-30.43648,14.20862,-38.68526,1006.989
13.203665733,10.27374,0.05293171,0.6724419,-0.04145787,0.2702484,0.9908954,-30.44262,14.57816,-38.31804,1006.989
13.236442566,5.055591,-0.3016244,0.6724419,-0.02162602,0.3005365,0.9802127,-30.44262,14.57816,-38.31804,1006.989
13.269219875,-9.170068,-0.006160967,1.283332,-0.05025573,0.2945302,0.991361,-30.44324,14.57306,-38.69099,1006.989
13.301997662,-12.08974,1.1166,2.444023,-0.0556195,0.317371,1.060655,-30.44938,14.94259,-38.32376,1006.989
13.337296009,-20.28969,-1.897127,11.11866,0.007545863,0.2796499,0.9532187,-30.44938,14.94259,-38.32376,1006.993
13.370072842,31.58116,-9.520083,16.67776,0.003418994,0.3864504,0.9780983,-30.01786,14.57714,-38.31858,1006.993
13.402850151,-2.771627,-1.956219,15.9447,-0.01723446,0.2705981,0.871941,-30.44866,14.94854,-37.88865,1006.993
13.435627461,0.8934984,0.8211366,14.2342,0.03295232,0.1888634,0.8242904,-30.44866,14.94854,-37.88865,1006.995
13.468404293,-15.63063,4.543975,14.2342,-0.01079447,0.2448687,1.016373,-30.0111,14.2127,-38.31285,1006.995
13.503702641,23.25698,10.39415,15.21163,0.01014231,0.2115903,0.9682374,-29.28898,14.58134,-37.88441,1006.995
13.536480427,53.13707,13.2306,14.47856,-0.002693913,0.5011359,0.9485769,-29.28898,14.58134,-37.88441,1006.995
13.569257736,-12.33823,30.72203,10.3856,0.004878,0.1597082,0.8677234,-28.54803,13.84477,-38.309,1006.997
13.602034569,70.28241,21.14902,-0.2438933,-0.06133701,0.2270932,0.8321581,-27.0654,12.37759,-38.72308,1006.995
13.637332916,27.66755,20.43991,-10.7512,-0.02942754,0.7399035,1.067658,-27.0654,12.37759,-38.72308,1006.995
13.670110226,35.80538,7.203146,0.6724419,-0.1101556,-0.07035268,0.8404241,-26.32478,11.5684,-40.01694,1006.995
13.702887058,80.7187,-1.128922,-7.513486,-0.07143363,0.4361762,1.074955,-25.18657,9.003683,-40.7863,1006.995
13.735664844,69.47484,-5.206317,-7.513486,0.01510638,0.3547452,0.887141,-25.18657,9.003683,-40.7863,1006.999
13.768442154,58.41734,-0.2425317,-15.51615,-0.1194063,0.3802356,1.002467,-24.04701,6.450007,-40.7476,1006.999
13.803740501,83.76262,-9.047341,-11.66754,-0.01618375,0.6380381,0.8309503,-24.00571,4.269329,-40.27811,1006.999
13.836517811,-6.18827,1.648434,-25.7791,-0.1481718,0.4099862,0.9028487,-24.00571,4.269329,-40.27811,1006.999
13.869294643,-6.064028,-8.456415,-38.30235,-0.140405,0.3847555,0.7671242,-23.21558,0.9269109,-40.22652,1006.997
13.902071953,-69.86206,22.27178,-46.97699,-0.1273539,0.4142472,0.7901542,-23.16753,-1.618204,-39.7513,1006.999
13.937370777,-27.61994,22.0945,-46.54937,-0.2906173,0.525291,1.126365,-22.80563,-1.636908,-41.05711,1006.999
13.970148087,-39.98197,9.27139,-43.80036,-0.01307501,0.3228983,0.6836399,-22.80563,-1.636908,-41.05711,1007.001
14.002924919,-29.73204,24.45821,-39.82958,-0.1891859,0.3101462,0.9526767,-20.99804,-0.9064527,-40.6358,1007.001
14.035702229,-30.60174,10.8078,-33.90394,-0.07417221,0.3206811,0.8585225,-20.99346,-1.288722,-41.93541,1007.001
14.068479061,-28.73811,35.92219,-39.52413,-0.1805259,0.0942929,0.7185583,-20.99346,-1.288722,-41.93541,1007.001
14.103777409,19.03276,23.63091,-39.58522,-0.2035181,0.4147093,0.9482208,-19.89374,-1.649833,-41.49598,1007.001
14.136554718,26.48726,46.20432,-45.20541,-0.2324822,0.3226624,0.8434914,-18.76256,-0.5711732,-42.38488,1007.001
14.169332504,19.59185,47.79982,-38.48562,-0.3999583,0.3361135,1.018121,-18.76256,-0.5711732,-42.38488,1007.001
14.202109337,54.50373,54.47729,-39.76849,-0.4656317,0.5983356,1.054947,-17.28201,-2.055338,-44.04213,1007.003
14.237408161,79.60052,52.17268,-40.62373,-0.3023856,0.3420708,0.9870737,-15.44207,-3.158956,-44.46239,1007.003
14.270184994,63.20064,54.30001,-42.57858,-0.3814342,0.4727573,0.8248454,-15.44207,-3.158956,-44.46239,1007.003
14.302962303,26.23878,57.43193,-42.15096,-0.4418362,0.337937,0.7703166,-13.59536,-4.62701,-44.87694,1007.007
14.335739136,27.97816,46.02704,-46.30501,-0.4899152,0.5278316,0.6806111,-10.26603,-7.562248,-45.70555,1007.009
14.368516922,28.413,36.92677,-43.80036,-0.5257891,0.5284425,0.8116257,-10.26603,-7.562248,-45.70555,1007.009
14.403815270,25.49333,35.39036,-42.63967,-0.6039211,0.5113117,0.8233895,-8.006234,-8.357243,-45.69603,1007.009
14.436592579,27.66755,25.46278,-41.3568,-0.6478653,0.3844096,0.6970869,-6.165564,-9.454917,-45.68119,1007.01
14.469369412,13.56614,19.61261,-39.82958,-0.5548367,0.2552795,0.6460364,-6.165564,-9.454917,-45.68119,1007.01
14.502146721,-13.08368,14.70792,-37.26384,-0.5720478,0.3441932,0.6358347,-5.073332,-9.457535,-45.6826,1007.012
14.537445068,13.69038,12.52149,-28.22266,-0.7280761,0.6611214,0.8740011,-3.967577,-10.18903,-45.67255,1007.012
14.570222855,3.502571,-4.556298,-31.76583,-0.4726633,0.154165,0.3643973,-3.967577,-10.18903,-45.67255,1007.012
14.602999687,-11.9655,-0.8925512,-29.38335,-0.6428951,0.3599785,0.8198591,-3.218412,-11.27814,-45.22119,1007.01
14.635776997,-6.871598,8.62137,-39.52413,-0.5657985,0.3877136,0.7233621,-2.132941,-10.91632,-45.22833,1007.01
14.668554306,11.76463,15.12156,-44.28907,-0.553686,0.4116441,0.7882811,-2.132941,-10.91632,-45.22833,1007.01
14.703852653,15.554,32.90847,-52.10847,-0.707355,0.5376053,0.9468238,-1.754615,-11.64012,-44.78223,1007.01
14.736629486,-8.176135,46.14523,-67.50289,-0.6455336,0.430915,0.7282997,-0.6676904,-11.26642,-43.91914,1007.01
14.769407272,-45.69708,61.27296,-81.18684,-0.7042615,0.4313337,0.7890899,-0.6676904,-11.26642,-43.91914,1007.009
14.802184582,-100.9225,67.77315,-95.42058,-0.7111037,0.4411931,0.7443247,1.213376,-11.27092,-43.92157,1007.007
14.834961414,-183.4189,87.03736,-103.0567,-0.9738535,0.493162,0.8993867,4.450958,-9.080268,-43.08995,1007.007
14.870259762,-185.0961,88.69196,-104.0341,-1.099932,0.1825948,0.7244568,8.010819,-4.643972,-42.3563,1007.007
14.903037071,-183.6052,92.76935,-85.09653,-1.253013,0.2247861,0.6722879,8.010819,-4.643972,-42.3563,1007.007
14.935813904,-181.9901,46.61797,-45.75521,-1.337573,0.2608626,0.7090175,11.5757,3.114567,-38.56636,1007.009
14.968591213,-195.7188,-34.3981,-1.343496,-1.393586,0.3935764,1.020873,14.03592,8.262373,-34.85818,1007.005
15.003890038,-97.13309,-23.99779,34.88229,-0.7589252,-0.2695072,0.786425,14.03592,8.262373,-34.85818,1007.009
15.036667347,19.28125,100.806,117.047,-1.73907,-0.1212911,-0.04422943,15.43501,11.56853,-32.73608,1007.009
15.069444656,87.36562,-63.4126,263.172,-1.241926,0.2826721,-0.2621488,16.92272,10.14296,-30.10436,1007.009
15.102221489,341.2532,-58.98066,263.6607,-0.2801212,-0.5953746,-0.8455544,16.92272,10.14296,-30.10436,1007.008
15.134998798,340.7563,59.50017,239.2861,0.1062934,0.9135289,-0.6725667,19.23347,3.195589,-31.30365,1007.008
15.170297146,-214.6035,117.1155,170.4999,-0.289371,-0.2599171,-0.2202678,17.67049,-10.36494,-28.10376,1007.004
15.203074932,-108.936,122.0793,96.6433,0.007178117,-1.641951,-0.2694312,17.67049,-10.36494,-28.10376,1007.001
15.235851765,286.3385,198.368,-0.7936945,0.01869089,-1.047556,-0.6742169,17.44807,-18.08987,-28.85222,1007.001
15.268629074,217.3844,221.355,-77.76585,-0.07864308,0.5523783,-0.2763858,19.267,-17.61641,-25.00741,1007.001
15.303927422,-76.69535,282.3978,-167.078,-0.4165034,0.8582491,2.583243,19.267,-17.61641,-25.00741,1007.001
15.336704254,320.3185,180.522,-181.0063,-6.373062,0.6371049,-2.728081,23.80537,-22.68374,-17.16211,1006.999
15.369481564,-490.9167,95.48762,-95.48167,-0.3245437,-1.864625,0.5360467,31.49002,-20.78068,-9.92812,1006.997
15.402259350,463.1342,-78.24487,-29.01682,-1.310136,0.2663617,-0.8448915,31.49002,-20.78068,-9.92812,1006.997
15.435036183,-75.51505,-9.047341,-59.19479,-0.3948643,1.197466,-0.3512191,33.23803,-17.10965,-12.16428,1006.997
15.470335007,87.24138,-94.31808,-44.89997,-1.05547,-0.05267648,0.1061561,34.70255,-17.46569,-11.29021,1006.995
15.503111839,-57.06519,-44.85751,-46.30501,-1.225558,-0.2492192,-0.1477847,34.70255,-17.46569,-11.29021,1006.995
15.535889149,52.20526,-23.52505,-30.7884,-1.12338,-0.08296903,0.103956,34.66657,-15.66134,-12.62419,1006.995
15.568665981,10.27374,-26.18422,-32.49889,-1.048595,0.5289289,0.1091141,34.64421,-14.58501,-13.88456,1006.994
15.603965282,4.248021,-1.069829,-37.69146,-1.038392,-0.6154478,-0.5091792,34.64421,-14.58501,-13.88456,1006.994
15.636742115,48.54013,13.76243,-28.34484,-1.154442,0.1028583,0.03924713,35.0008,-14.22739,-14.32587,1006.998
15.669519424,-10.53672,-4.61539,-34.51483,-1.060361,0.1967587,0.2622343,35.69514,-12.40695,-14.35546,1006.996
15.702296257,4.620746,-4.61539,-21.99158,-0.8767551,-0.3235451,-0.1894157,35.69514,-12.40695,-14.35546,1006.996
15.735073566,22.07668,5.193995,-14.84417,-1.195763,-0.1487714,-0.3068561,35.33107,-12.40608,-14.35499,1006.99
15.770371914,0.8934984,-12.41562,12.52371,-1.090508,-0.2698518,-0.1254499,36.0457,-11.67895,-14.36739,1006.99
15.803149700,8.782837,-13.47929,15.02836,-0.8159117,-0.1843627,-0.2085429,36.0457,-11.67895,-14.36739,1006.99
15.835926533,35.74326,-11.64742,-4.642303,-1.081152,0.7636545,0.2142558,36.40302,-11.31539,-14.37359,1006.992
15.868703842,-62.84241,-3.729,-16.00486,-0.962889,-0.1418138,0.3438635,35.31755,-11.67721,-14.36645,1006.996
15.904002190,80.59446,0.05293171,-18.38733,-1.148586,-0.6123623,-0.4232402,35.68766,-12.04846,-14.7963,1006.996
15.936779499,18.90852,-11.52923,-5.375371,-1.064379,-0.1988398,0.03948823,35.68766,-12.04846,-14.7963,1006.996
15.969556332,44.75077,-48.75762,10.26342,-0.9370772,-0.2985215,-0.3005049,35.3033,-10.95428,-14.81302,1006.998
16.002333641,45.06137,-13.53839,1.955311,-0.8882318,0.2124956,-0.2031931,36.03749,-11.3264,-15.24334,1006.996
16.035111427,-2.026178,-23.99779,-18.32624,-0.8551292,0.2605674,0.2265119,36.03749,-11.3264,-15.24334,1006.998
16.070409775,8.658595,-7.865488,-21.62505,-1.178012,-0.2337846,-0.1565852,35.32816,-12.42986,-16.09544,1006.994
16.103186607,-1.591333,-3.551722,-21.8694,-0.8234541,-0.213707,0.1332861,35.31537,-11.69504,-15.67179,1006.994
16.135963917,-11.46854,4.721253,-16.92119,-1.173541,-0.01144521,0.1540288,35.31537,-11.69504,-15.67179,1006.994
16.168740749,-8.238256,10.39415,-8.246554,-1.033224,-0.5125365,-0.3543481,35.67872,-11.70185,-16.10737,1006.994
16.204039574,-12.08974,16.00796,-7.635664,-0.9874952,-0.02389499,0.2412141,34.93777,-10.96529,-15.68278,1006.994
16.236817360,-10.41248,9.625946,-25.53475,-0.9501961,-0.05075503,-0.094343,34.93777,-10.96529,-15.68278,1006.994
16.269594193,14.56007,27.05829,-47.09917,-0.944968,0.01268179,-0.01310087,36.02396,-10.59753,-15.2548,1006.994
16.302371502,19.84034,14.53064,-70.43517,-1.157123,0.01707555,0.1034039,36.36776,-9.505089,-15.27246,1006.994
16.335148335,27.41907,24.28093,-99.26918,-1.212927,-0.2101162,0.06729516,36.36776,-9.505089,-15.27246,1006.992
16.370446682,89.4156,-12.82927,-114.236,-1.302795,-0.2796644,-0.3709074,37.44189,-8.396564,-13.98573,1006.994
16.403223991,-3.579197,-9.815546,-103.4843,-1.172889,0.2886536,-0.04522745,37.75147,-5.415257,-13.59788,1006.994
16.436001778,-81.85137,-3.256258,-84.05801,-1.212259,-0.8997505,0.06881435,37.75147,-5.415257,-13.59788,1006.994
16.468778610,22.69789,-32.32986,-12.52279,-1.557612,-0.8776456,-0.04929619,38.06884,-2.859976,-13.26551,1006.994
16.501555920,16.17521,-42.90745,20.09875,-1.26589,-0.9021133,-0.4167489,36.90765,0.7759728,-14.12947,1006.994
16.536854267,159.7984,-61.63982,95.4826,-1.239094,-0.25396,-0.04280853,36.90765,0.7759728,-14.12947,1006.992
16.569631100,138.1183,-43.38019,126.9434,-1.113612,0.08567899,0.04110163,36.53608,1.135338,-14.56984,1006.994
16.602408409,25.92817,-49.17127,134.7017,-1.019056,0.001617496,0.3760318,35.88085,-2.883611,-15.37609,1006.995
16.635186195,123.2714,-86.16329,134.3352,-0.9759709,-0.5389815,0.4667591,35.88085,-2.883611,-15.37609,1006.995
16.670484543,380.8242,-188.6891,182.8399,-1.06513,0.2122165,0.5298595,34.16904,-8.776923,-15.71622,1006.995
16.703261852,341.9366,-209.3715,233.9103,-0.6117902,0.9662884,0.8443837,32.79991,-13.51706,-16.07496,1006.995
16.736038685,198.4376,-176.6342,283.6979,-0.7356237,1.024149,1.119448,32.79991,-13.51706,-16.07496,1006.994
16.768815994,42.4523,-201.6895,304.2238,-0.7232268,0.9222059,1.152786,27.08778,-22.64489,-13.7476,1006.99
16.801592827,-54.14551,-222.9628,285.4084,-0.5922287,0.3013944,0.8790347,19.16935,-30.68692,-12.36699,1006.99
16.836891174,-100.7982,-223.0219,247.1055,-0.2910767,0.2524303,0.8297766,8.983893,-34.71191,-15.27435,1006.988
16.869668961,-65.07877,-180.7707,218.0883,-0.1705205,-0.05862965,0.5676175,8.983893,-34.71191,-15.27435,1006.985
16.902446270,46.925,-126.8782,179.6633,0.1182355,-0.03190667,0.3512422,-0.9058239,-35.09934,-18.67459,1006.981
16.935223103,151.7849,-45.80299,110.3883,-0.003725531,-0.2286924,0.21464,-9.72319,-33.97305,-17.8102,1006.978
16.970521450,239.7479,29.00834,23.45864,-0.02065851,-0.1278758,-0.1854834,-9.72319,-33.97305,-17.8102,1006.974
17.003298759,286.7112,96.07854,-83.50822,-0.007223289,-0.3353525,-0.5515189,-14.81103,-33.88527,-12.27149,1006.974
17.036076069,406.6043,178.9856,-207.8855,-0.6069329,0.7713492,-0.159936,-15.12302,-35.97676,-5.337011,1006.971
17.068853855,72.82936,-34.87084,-112.6477,-2.570168,3.839287,0.8090777,-15.12302,-35.97676,-5.337011,1006.972
17.101630688,-143.0403,-80.72676,-26.69544,0.3573597,0.9565169,0.6553314,-8.429947,-39.19403,4.901023,1006.97
17.136929035,68.1703,50.69536,-103.0567,-0.2526593,0.6980993,0.08675408,-4.429247,-39.23759,2.409502,1006.968
17.169706345,-63.46362,7.321332,-83.69148,-0.3159588,1.426716,0.3033816,-4.429247,-39.23759,2.409502,1006.968
17.202483177,-56.44398,-2.251683,-74.77248,-0.03298716,0.6312615,0.1566126,-2.587123,-40.32338,3.294566,1006.966
17.235260487,-22.83664,25.81734,-101.224,-0.3157609,0.2342362,-0.1463389,0.6912477,-40.73728,0.2502854,1006.961
17.270559311,-24.14117,21.97632,-91.57197,-0.7827274,1.093881,0.417629,0.6912477,-40.73728,0.2502854,1006.963
17.303336620,-30.60174,12.04875,-73.61179,-0.3454763,0.7386074,0.1403443,4.015101,-40.0164,0.2345183,1006.961
17.336113453,4.372262,38.93592,-88.76187,-0.5777314,0.391314,0.1346796,6.927098,-40.02848,-0.1421933,1006.961
17.368890762,25.67969,26.29008,-92.18285,-0.697133,0.8138364,0.315318,6.927098,-40.02848,-0.1421933,1006.96
17.401667595,20.52366,21.20811,-91.9385,-0.4293344,0.6674365,0.09203297,9.832954,-39.67102,-0.1516824,1006.96
17.436966419,12.51008,33.26302,-93.16028,-0.7146372,0.8148336,0.2696286,13.15816,-38.93911,0.6406147,1006.958
17.469744206,-5.007975,17.60346,-71.96239,-0.7468164,0.8812036,0.3273683,13.15816,-38.93911,0.6406147,1006.954
17.502521038,-17.9291,33.73576,-75.20011,-0.9363755,0.3044176,0.1164067,16.76545,-37.05302,1.476534,1006.954
17.535298348,22.26305,-0.3016244,-54.67421,-0.9686015,0.7913021,0.132597,18.94243,-36.69976,1.032873,1006.954
17.570596695,-1.529212,5.607644,-53.57461,-0.8144302,0.2524421,-0.01040231,18.94243,-36.69976,1.032873,1006.952
17.603373527,14.00098,-12.06107,-30.42187,-0.8897859,0.7433445,0.2152766,21.14846,-34.50664,1.865819,1006.951
17.636150837,-15.00942,2.88938,-26.75653,-0.8605211,0.2935755,0.2871266,23.32761,-34.13555,2.727493,1006.951
17.668927669,28.35088,2.121176,-9.590513,-1.037365,0.5269604,0.2328004,23.32761,-34.13555,2.727493,1006.949
17.701705456,-11.09581,4.898531,22.17578,-1.101814,0.2824993,0.3151532,24.03476,-33.04993,2.274252,1006.949
17.737003803,59.22491,-14.66115,29.99517,-1.255706,-0.1662903,0.187671,23.67817,-33.40755,2.715564,1006.949
17.769781113,141.9698,-22.75684,36.71496,-1.26765,0.1498155,0.1342731,23.67817,-33.40755,2.715564,1006.947
17.802557945,226.8268,-16.55211,44.22891,-1.056831,0.2538644,-0.2148896,22.95885,-33.75326,3.96541,1006.946
17.835335255,209.3087,-5.679059,38.42545,-0.8227774,0.8757221,-0.1595813,21.88117,-34.05139,8.63446,1006.944
17.870633602,-23.39573,1.884805,4.521049,-0.793253,0.5542631,0.08343946,19.98989,-32.87121,14.6491,1006.944
17.903411388,-25.19723,-23.82051,-35.55334,-0.8373711,0.3200975,0.08100886,19.98989,-32.87121,14.6491,1006.944
17.936188698,35.80538,-35.81633,-79.35416,-0.7268835,0.1973441,0.01546662,18.53503,-32.85583,15.5212,1006.942
17.968965530,124.3275,-39.12551,-122.1776,-0.8385089,0.1396859,-0.157472,19.25643,-32.49314,15.51453,1006.942
18.001742840,191.0452,-38.35731,-156.2652,-1.029423,0.3751592,-0.1747031,19.25643,-32.49314,15.51453,1006.94
18.037041187,167.1908,-40.66193,-188.0926,-1.46386,0.7091863,-0.2247191,21.81654,-29.54313,18.44895,1006.94
18.069818020,89.22925,-54.6078,-191.3914,-1.556179,0.7145284,-0.3260755,26.08718,-23.9915,20.90492,1006.94
18.102595806,25.1206,-39.65735,-168.9107,-1.188628,0.520245,-0.3410953,26.08718,-23.9915,20.90492,1006.94
18.135373116,10.64646,-10.28829,-133.3569,-1.104566,0.2925398,-0.3390261,29.97178,-17.42934,21.66683,1006.939
18.170671463,31.3948,-5.383595,-101.6517,-1.033336,0.1403036,-0.3948035,32.48449,-12.27868,21.14718,1006.935
18.203448772,82.14748,-6.920005,-82.40862,-0.9461411,0.2246742,-0.4134292,32.48449,-12.27868,21.14718,1006.933
18.236225605,106.6231,-9.933732,-69.1523,-0.8952984,0.2930942,-0.3708117,34.23799,-8.632734,21.52264,1006.933
18.269002914,125.1972,-13.36111,-60.8442,-0.8888802,0.2488342,-0.3697975,35.62556,-4.931115,21.46251,1006.933
18.301780701,133.5213,-16.6703,-55.89599,-0.8467379,0.295578,-0.3521576,35.62556,-4.931115,21.46251,1006.933
18.337079048,105.3806,-9.933732,-47.58788,-0.8472732,0.3306618,-0.2790422,35.55795,-1.286746,21.40521,1006.932
18.369855881,87.86259,-8.810971,-34.20939,-0.8033784,0.2507105,-0.2727681,36.20177,3.128511,20.09138,1006.932
18.402633190,73.88541,6.021292,-25.2293,-0.7260663,0.2080696,-0.2642227,36.20177,3.128511,20.09138,1006.932
18.435410023,64.07033,23.09908,-19.42584,-0.7401537,0.2164459,-0.2333947,36.1483,6.049101,20.41849,1006.932
18.470708370,53.07495,34.56306,-12.76714,-0.8168307,0.2013222,-0.2148983,36.10711,8.230629,20.01116,1006.928
18.503485680,30.09026,42.24511,-3.909234,-0.8745659,0.179354,-0.2229114,36.10711,8.230629,20.01116,1006.926
18.536263466,24.00243,41.12235,9.285993,-0.9748055,0.06256621,-0.2277926,34.25426,10.06821,20.79292,1006.926
18.569040299,45.06137,31.37205,28.46795,-1.056249,-0.005766023,-0.2910362,34.61376,10.44961,22.09205,1006.926
18.601817608,73.94753,20.55809,49.2993,-1.121742,-0.03265926,-0.2975794,34.61376,10.44961,22.09205,1006.925
18.637115955,109.4806,7.144053,65.12136,-1.147706,-0.1495955,-0.3430709,33.15818,10.45905,22.52905,1006.925
18.669893265,141.4107,-9.638268,70.13066,-1.110861,-0.1168659,-0.3032546,33.15287,10.83537,23.39354,1006.923
18.702670097,125.0729,-17.20213,50.70435,-0.8356701,-0.2529033,-0.2358303,33.15287,10.83537,23.39354,1006.921
18.735447884,122.0911,13.9988,11.91282,-0.7553926,-0.3144068,-0.2118599,33.4923,11.89215,20.76521,1006.921
18.770746231,112.2139,30.30838,-24.61841,-0.8773462,-0.2888314,-0.2395282,33.84213,12.6142,20.31817,1006.921
18.803523540,120.2896,36.86768,-52.35283,-0.9102836,-0.3469395,-0.3616284,33.44781,14.11658,19.05159,1006.919
18.836300373,127.2472,49.86806,-71.96239,-1.121423,-0.186292,-0.3989159,33.44781,14.11658,19.05159,1006.919
18.869077682,105.3806,37.93134,-78.43783,-1.194672,-0.2453841,-0.5440244,31.92243,17.75255,18.12594,1006.918
18.901854515,148.9894,40.05868,-72.57328,-1.18574,-0.348894,-0.6618232,29.60219,21.7608,17.6307,1006.918
18.937153816,190.9831,33.20393,-59.86678,-1.192997,-0.1273199,-0.51725,29.60219,21.7608,17.6307,1006.918
18.969930649,201.6057,25.99462,-40.07393,-1.115073,-0.2210109,-0.4965951,26.97243,25.78975,14.15127,1006.916
19.002707958,266.584,16.4807,-27.18415,-1.056126,-0.3114491,-0.5456975,24.32738,30.46306,8.920886,1006.916
19.035485268,250.3705,8.857741,-31.94909,-0.886629,-0.09282044,-0.4068342,24.32738,30.46306,8.920886,1006.914
19.068262100,197.3815,7.675888,-50.76451,-0.7109442,-0.2705654,-0.4743736,22.82595,32.19618,2.118805,1006.912
19.103560448,188.8088,12.46239,-71.29041,-0.6797156,-0.3320748,-0.4623209,23.16385,32.89067,-4.793708,1006.912
19.136337757,188.7467,6.375848,-76.05536,-0.6278971,-0.2625654,-0.4043038,23.16385,32.89067,-4.793708,1006.911
19.169115543,199.5557,11.81238,-73.12309,-0.6410649,-0.236295,-0.3927595,21.32819,33.18984,-9.894111,1006.911
19.201892376,236.1449,18.31257,-52.96371,-0.9017329,-0.2594142,-0.3223089,20.59142,33.12111,-15.05235,1006.909
19.237190723,279.3188,-0.7743658,-42.39532,-1.025797,0.1014413,-0.03903647,20.59142,33.12111,-15.05235,1006.903
19.269968033,125.3214,6.612219,-47.40461,-1.29252,0.4131328,0.2095091,20.23651,31.86774,-22.36848,1006.903
19.302744865,137.8698,-16.19756,-32.74325,-1.324337,-0.2851141,0.2722512,20.28208,28.88261,-27.41966,1006.903
19.335522175,311.7458,-21.98864,-11.23992,-1.412834,-0.01401119,0.3529212,20.28208,28.88261,-27.41966,1006.903
19.368299961,306.155,-7.865488,10.62995,-1.306404,0.1605294,0.3909147,19.15581,27.0046,-31.67848,1006.903
19.403598309,244.966,13.11241,20.954,-1.029146,0.3673845,0.3880199,18.90981,19.92618,-38.46781,1006.905
19.436375618,185.0816,14.76701,15.76143,-0.8320866,0.1788488,0.2838625,18.90981,19.92618,-38.46781,1006.905
19.469152451,182.5968,11.04417,2.62729,-0.6001783,0.454053,0.2188766,20.2151,11.44581,-40.88506,1006.905
19.501929760,76.37025,16.30342,-4.520125,-0.5867049,0.5037728,0.2086611,21.08305,3.773057,-42.07101,1006.907
19.537228108,45.55834,29.48109,8.919458,-0.5673615,0.5476519,0.2619802,21.08305,3.773057,-42.07101,1006.907
19.570005894,-128.7526,46.91343,33.66051,-0.865714,0.9297546,0.7285514,22.63984,-1.774711,-43.22916,1006.907
19.602782726,35.80538,-20.57041,87.78539,-1.258928,-0.4903184,1.011296,24.14347,-4.329261,-43.19093,1006.907
19.635560036,148.5546,-70.20827,25.78003,-0.924329,0.3248277,1.076183,24.14347,-4.329261,-43.19093,1006.907
19.668336868,48.7265,-64.47627,44.77871,-0.9737709,0.6449659,0.8072176,25.21324,-3.256399,-44.51487,1006.908
19.703635216,171.6014,-58.74429,106.6008,-1.159658,0.6482866,1.018008,23.1359,-9.160727,-45.72475,1006.908
19.736412525,100.5973,-56.91241,113.6871,-0.9605876,0.3658791,0.5794415,23.1359,-9.160727,-45.72475,1006.91
19.801967144,117.8048,-29.72978,148.9355,-0.7490574,0.3365685,0.03215703,16.37139,-20.47851,-43.79671,1006.91
19.837265968,78.23386,-18.38399,124.1944,-0.7288756,0.4309122,0.05747915,11.75612,-26.63967,-42.0149,1006.916
19.870042801,12.32372,9.389575,90.16785,-0.8807698,0.5300533,0.769624,11.75612,-26.63967,-42.0149,1006.918
19.902820110,31.95389,-11.11559,110.8159,-1.039418,0.6883786,0.8255996,6.697053,-31.76639,-40.18662,1006.919
19.935596943,35.74326,-8.515508,132.0138,-0.5884321,0.6803728,0.5328368,4.182317,-33.58247,-40.15468,1006.921
19.968374252,-4.821612,-10.1701,116.9248,-0.3779641,0.5668153,0.4087988,4.182317,-33.58247,-40.15468,1006.921
20.003673077,44.00532,-23.40686,103.4242,-0.3627208,0.9204569,0.5377159,0.1595342,-35.74151,-38.80972,1006.923
20.036450386,-71.4772,-37.47092,105.6845,-0.2134981,1.253412,0.4723577,-3.481239,-35.73279,-38.80503,1006.923
20.069227219,-175.2189,-28.07519,88.2741,-0.1871578,0.7741425,0.3675994,-3.481239,-35.73279,-38.80503,1006.923
20.102004528,-119.4344,-37.41183,72.6964,-0.225162,0.6884712,0.7004396,-7.859835,-35.38165,-40.54556,1006.923
20.137302876,-105.2709,-65.0672,73.796,-0.290209,0.6947954,0.7776022,-12.39585,-29.94524,-43.60942,1006.923
20.170080185,-30.10477,-92.30893,70.06957,-0.3865657,0.5694257,0.7245885,-12.39585,-29.94524,-43.60942,1006.923
20.202857018,-54.64248,-106.1366,83.69242,-0.06605373,0.7853279,0.8501011,-17.22681,-24.78887,-44.98982,1006.923
20.235634804,-12.64883,-95.44084,95.91022,0.3825079,0.619771,0.8064455,-21.33749,-22.21023,-43.71935,1006.925
20.268412113,45.62046,-74.69931,115.9474,0.2962029,0.7735552,0.8227847,-21.33749,-22.21023,-43.71935,1006.926
20.303710461,25.18272,-44.56204,126.7602,0.1087466,0.8059195,0.9396701,-27.20726,-19.62229,-42.07365,1006.926
20.336487293,57.92037,-44.56204,120.0404,-0.1454469,0.6515241,0.6844213,-31.30191,-17.68207,-38.61712,1006.926
20.369264603,100.1625,-14.72024,102.9966,0.08061253,0.7061093,0.4878886,-31.30191,-17.68207,-38.61712,1006.926
20.402041435,81.71263,13.58516,93.40558,0.292789,0.7333843,0.5831352,-33.88821,-15.46641,-36.96992,1006.928
20.437340736,51.52193,26.34917,83.32589,0.3663767,0.634621,0.6500189,-36.07122,-15.44929,-36.09688,1006.922
20.470117569,75.81116,12.52149,67.50383,0.3793545,0.4690083,0.5616671,-36.07122,-15.44929,-36.09688,1006.922
20.502894879,74.69299,12.63967,51.62068,0.4227202,0.8222487,0.5990595,-36.8129,-14.71867,-36.1074,1006.922
20.535671711,-1.653453,9.27139,50.76543,0.3111039,0.8192954,0.7288149,-36.81145,-14.70678,-35.23717,1006.92
20.568449021,11.32979,-11.94288,43.25148,0.4871778,0.6890438,0.6968238,-36.81145,-14.70678,-35.23717,1006.92
20.603747368,19.40549,-26.53877,37.87565,0.4023717,0.5843803,0.5258179,-37.54564,-14.33465,-34.80685,1006.922
20.636524677,37.10991,-32.03439,30.23953,0.624376,0.75346,0.5500673,-38.65067,-13.59722,-34.38179,1006.922
20.669302463,11.20555,-26.12513,22.11469,0.5599331,0.676272,0.4535827,-38.65067,-13.59722,-34.38179,1006.92
20.702079296,48.29165,-30.73436,22.11469,0.6352046,0.6512682,0.3393592,-39.03368,-12.492,-33.59045,1006.92
20.737377644,30.71147,-11.17468,24.43607,0.709222,0.7511425,0.2547948,-40.91933,-12.10522,-32.28841,1006.926
20.770154953,44.44017,12.69877,32.49982,0.8361457,0.6703192,0.245951,-41.63251,-12.82046,-31.40579,1006.925
20.802931786,40.27807,38.34499,35.9208,0.9156807,0.7275408,0.3246195,-41.63251,-12.82046,-31.40579,1006.92
20.835709095,8.907079,65.76399,31.95002,0.8315718,0.5676016,0.3284295,-40.91039,-12.45182,-30.97735,1006.92
20.868486881,18.8464,88.75105,17.47192,0.6941376,0.3802948,0.3829503,-39.81357,-12.83671,-32.27836,1006.92
20.903785229,51.83254,88.10103,8.980548,0.4677488,0.6589753,0.5284386,-39.81357,-12.83671,-32.27836,1006.925
20.936562061,22.76001,62.98664,-1.465674,0.2635128,0.7783961,0.5075631,-37.59765,-11.40218,-33.60952,1006.926
20.969339371,-15.00942,44.54972,-19.91456,0.1279834,0.7698195,0.3476039,-34.66079,-12.88983,-35.26864,1006.926
21.002116680,-41.03802,47.26799,-44.53343,-0.0598058,0.6969699,0.2528495,-34.66079,-12.88983,-35.26864,1006.928
21.034893513,-53.27582,55.00913,-65.67023,-0.08721737,0.6008836,0.3358536,-32.1137,-12.90783,-36.14216,1006.928
21.070191860,-50.66674,69.48683,-76.91061,0.0421176,0.5612455,0.5036018,-29.93818,-12.56646,-37.45604,1006.93
21.102969646,-54.14551,84.08273,-84.60782,0.2126596,0.5476871,0.6601417,-29.93818,-12.56646,-37.45604,1006.93
21.135746956,-89.86495,89.992,-91.08325,0.354282,0.667551,0.917635,-27.33249,-12.60158,-39.57281,1006.93
21.168523788,-126.5162,75.3961,-80.08723,0.3161091,0.6560217,1.26673,-24.05267,-13.00359,-41.74686,1006.93
21.203822136,82.76868,4.543975,-44.59452,0.1802732,0.7972218,1.21389,-24.05267,-13.00359,-41.74686,1006.93
21.236599445,109.9155,-34.3981,-15.02744,0.1497002,1.15484,0.9891087,-21.56185,-10.12392,-43.97155,1006.93
21.269376278,23.38122,-31.02982,17.71628,0.01804066,0.9202844,0.6855539,-20.06279,-12.2962,-42.63372,1006.932
21.302154064,-4.448888,-28.01609,21.62597,-0.08966754,0.6404232,0.491761,-20.06279,-12.2962,-42.63372,1006.932
21.334931374,13.00705,-23.34777,7.758768,-0.06635903,0.6502361,0.5441594,-21.10551,-14.82681,-41.28686,1006.932
21.370229721,47.67044,-21.22043,-2.015475,0.1256948,0.7563252,0.5810902,-22.55506,-15.18776,-41.27925,1006.933
21.403007031,20.08882,-5.26541,6.536987,0.3645805,0.9960085,0.7226454,-22.55506,-15.18776,-41.27925,1006.933
21.435783863,-38.05622,-0.1243463,16.67776,0.2745949,0.8584775,0.7341375,-22.90947,-15.52755,-39.5326,1006.933
21.468561173,-15.56851,-9.992825,15.08945,0.2814851,0.6079307,0.6959898,-23.98287,-16.63013,-40.38423,1006.933
21.503859520,28.16452,-10.82012,4.45996,0.3262071,0.5681646,0.5967831,-23.98287,-16.63013,-40.38423,1006.933
21.536637306,38.16597,-5.206317,-9.040712,0.3048144,0.5589635,0.4899854,-24.37545,-15.1834,-41.2769,1006.933
21.569414139,39.03566,0.1711171,-21.99158,0.2279817,0.6050478,0.4857659,-24.36723,-15.53595,-40.40095,1006.933
21.602191448,46.24167,0.1711171,-32.68216,0.182221,0.6578903,0.5055307,-24.36723,-15.53595,-40.40095,1006.935
21.634968281,68.85363,-0.8334585,-37.38602,0.1551476,0.8064933,0.4760078,-24.33946,-16.98775,-39.94292,1006.935
21.670266628,85.25352,-2.251683,-30.05533,0.1302835,1.050701,0.4646274,-24.30921,-18.48926,-38.67587,1006.935
21.703043938,37.60688,0.2302098,-12.52279,0.1430382,1.197291,0.4480099,-24.30921,-18.48926,-38.67587,1006.935
21.735821247,-26.81237,7.675888,-2.198742,0.1760052,1.014928,0.4482066,-23.51054,-22.1116,-36.87906,1006.935
21.768598556,-45.07587,16.12614,0.0004627327,0.1476847,0.8824254,0.4783179,-23.47601,-23.92784,-36.4153,1006.933
21.803897381,-51.59856,21.38539,-1.832208,0.1025261,0.8956771,0.5472397,-22.75534,-23.57109,-36.85708,1006.934
21.836674213,-59.86062,19.90807,-2.198742,0.0832909,0.8282369,0.6075572,-22.75534,-23.57109,-36.85708,1006.934
21.869451523,-38.55319,10.21687,0.5502639,0.05396295,0.7047553,0.605406,-22.05776,-22.14396,-38.99434,1006.939
21.902228355,-14.07761,1.293878,0.6113529,0.06466793,0.6976193,0.6169441,-21.73425,-19.95821,-39.02919,1006.94
21.935005665,-3.517077,-2.783517,-0.6104274,0.1039064,0.7379206,0.6220853,-21.73425,-19.95821,-39.02919,1006.94
21.970304489,2.198035,-3.965371,-0.3660714,0.1465575,0.7698769,0.6137528,-21.74923,-19.24122,-39.91087,1006.942
22.003081799,3.813175,-1.542571,0.4891749,0.1654235,0.8007444,0.6175125,-21.75526,-18.87084,-39.48149,1006.942
22.035858631,0.6450153,0.6438586,0.7335309,0.1533488,0.7678081,0.5882277,-21.75526,-18.87084,-39.48149,1006.942
22.068635941,4.620746,0.2302098,-0.7326055,0.1315334,0.7550434,0.5998514,-21.39191,-18.87766,-39.91707,1006.942
22.103934288,12.01312,-3.197166,-1.221318,0.1226272,0.8301634,0.6271968,-22.1133,-19.24035,-39.9104,1006.942
22.136711597,7.35406,-6.033615,1.222243,0.1483182,0.842316,0.5929409,-22.1133,-19.24035,-39.9104,1006.942
22.169488430,-0.7837625,-4.260834,1.649866,0.1294373,0.8122251,0.5607798,-21.02035,-19.23702,-39.4767,1006.944
22.202266216,-3.454956,-3.019888,1.161154,0.1091084,0.7827631,0.5507638,-22.10582,-19.59884,-39.46956,1006.942
22.235043526,-3.392835,-0.3607171,-1.038051,0.08192028,0.7825931,0.5590118,-22.10582,-19.59884,-39.46956,1006.944
22.270341873,0.5207738,1.293878,-1.404585,0.09013297,0.8042318,0.5791769,-22.10582,-19.59884,-39.46956,1006.944
22.303118706,-0.4110378,1.352971,0.6113529,0.1027744,0.7985364,0.5854132,-22.11185,-19.22846,-39.04018,1006.942
22.335896015,-0.659521,1.234785,0.977887,0.09217284,0.7623336,0.5749029,-22.11185,-19.22846,-39.04018,1006.942
22.368672848,7.043456,0.4665805,-2.748543,0.135865,0.7706413,0.5964481,-21.3837,-19.2302,-39.04112,1006.944
22.403971195,13.00705,-1.128922,-5.375371,0.1364001,0.9613345,0.6332242,-21.37621,-19.5887,-38.60028,1006.942
22.436748982,-14.57458,0.1711171,1.710955,0.08612516,0.8497522,0.5463852,-21.37621,-19.5887,-38.60028,1006.942
22.469526291,-21.40786,0.7620439,4.337782,0.09437823,0.6386666,0.5081748,-21.74101,-19.59377,-39.03492,1006.942
22.502303124,0.02380761,-0.006160967,-4.581214,0.1475842,0.7465077,0.6137856,-21.37693,-19.59464,-39.03539,1006.942
22.535080433,11.64039,-1.483478,-6.230617,0.1691253,0.8863178,0.6621413,-21.37693,-19.59464,-39.03539,1006.94
22.570378780,1.82531,0.8211366,0.855709,0.1643244,0.8457116,0.571718,-22.11934,-18.86997,-39.48102,1006.94
22.603156090,-8.362497,3.007566,3.665804,0.1475383,0.7528607,0.5468669,-21.73425,-19.95821,-39.02919,1006.94
22.635932922,-9.977637,1.471156,1.038976,0.1203401,0.7671828,0.6080427,-21.73425,-19.95821,-39.02919,1006.94
22.668710709,-0.03831317,-2.428961,-1.954386,0.1095838,0.8048358,0.6426696,-21.74101,-19.59377,-39.03492,1006.94
22.704009056,7.851026,-4.142649,0.0004627327,0.1149062,0.8015531,0.5844171,-21.38515,-19.24209,-39.91134,1006.935
22.736786365,0.6450153,-1.483478,0.6113529,0.1193258,0.7750859,0.5550835,-22.11861,-18.86402,-39.04591,1006.939
22.769563198,-1.653453,0.5256732,-0.7326055,0.1211939,0.8138484,0.5940109,-22.11861,-18.86402,-39.04591,1006.939
22.802340507,-7.430685,0.9984148,0.06155175,0.1081039,0.8064805,0.6007921,-21.74923,-19.24122,-39.91087,1006.939
22.835117340,-4.138284,0.7620439,0.6113529,0.1159913,0.7533355,0.5830431,-22.10582,-19.59884,-39.46956,1006.939
22.870416641,2.384397,-0.7152731,-0.6715164,0.1125171,0.790522,0.611877,-22.10582,-19.59884,-39.46956,1006.939
22.903193474,3.191967,-1.069829,0.0004627327,0.1134394,0.8089601,0.6007757,-21.76806,-18.13602,-39.05784,1006.939
22.935970783,-0.03831317,-0.1243463,0.4891749,0.1338458,0.8002332,0.5819674,-22.48342,-18.86909,-39.48055,1006.942
22.968748093,-0.7216418,0.6438586,0.855709,0.1397342,0.773969,0.5800675,-22.48342,-18.86909,-39.48055,1006.942
23.001524925,-0.03831317,0.939322,-0.1217153,0.1411625,0.7907109,0.6045884,-22.12007,-18.87591,-39.91613,1006.941
23.036823273,3.067726,0.2302098,-0.4882494,0.1246318,0.7988259,0.6007645,-21.38515,-19.24209,-39.91134,1006.942
23.069600582,2.260155,-0.4198098,-0.1217153,0.1149569,0.7811314,0.5892614,-21.38515,-19.24209,-39.91134,1006.942
23.102378368,3.316209,-1.069829,0.06155175,0.1187793,0.8069628,0.5872879,-21.38442,-19.23615,-39.47623,1006.942
23.135155201,0.2722907,-0.5970877,0.2448188,0.1284539,0.822632,0.5877227,-21.3837,-19.2302,-39.04112,1006.942
23.170453548,-4.759492,0.7029513,0.6724419,0.1289862,0.8006362,0.5757206,-21.3837,-19.2302,-39.04112,1006.942
23.203230858,-6.312511,0.939322,2.444023,0.1158545,0.8133268,0.5954685,-21.39118,-18.87171,-39.48196,1006.942
23.236007690,-6.560994,0.5256732,5.926097,0.1128776,0.8405961,0.5983226,-21.38442,-19.23615,-39.47623,1006.942
23.268785000,-0.5352795,-1.601663,12.035,0.1186713,0.8567969,0.6098371,-21.38442,-19.23615,-39.47623,1006.942
23.301561832,-3.76556,-2.074405,18.99915,0.1327398,0.8658047,0.6276006,-21.75526,-18.87084,-39.48149,1006.942
23.336861134,5.304074,-6.269986,30.05626,0.1512774,0.8279037,0.6179864,-22.12007,-18.87591,-39.91613,1006.942
23.369638443,14.80855,-9.22462,36.22625,0.166098,0.9133006,0.5538015,-22.12007,-18.87591,-39.91613,1006.941
23.402415276,-27.86842,-6.210893,43.31257,0.1874039,0.9494303,0.6109785,-22.13359,-18.14704,-39.92759,1006.942
23.435192585,-36.31684,-4.851761,52.17048,0.2159745,0.7787424,0.6145376,-22.4909,-18.5106,-39.92139,1006.942
23.470490933,-4.324646,-11.05649,62.92215,0.2213113,0.7827602,0.6255902,-22.4909,-18.5106,-39.92139,1006.941
23.503267765,-1.839816,-12.29744,72.63531,0.2720692,0.8867264,0.6671916,-23.63835,-15.53175,-39.96678,1006.941
23.536045075,-11.22005,-14.42478,84.12005,0.2677332,0.8695436,0.6527869,-25.10818,-14.79938,-39.97636,1006.941
23.568822861,0.7692569,-18.20671,96.82656,0.3022708,0.8374665,0.6209834,-25.10818,-14.79938,-39.97636,1006.943
23.601599693,-3.703439,-19.62493,111.3047,0.3526896,0.8775479,0.6511292,-25.86338,-13.33989,-39.99834,1006.943
23.636898041,5.055591,-25.35692,129.8757,0.4086147,0.8343839,0.6101459,-27.36702,-10.78534,-40.03657,1006.939
23.669675350,4.310142,-27.66154,150.8292,0.460961,0.8793015,0.6330594,-27.36702,-10.78534,-40.03657,1006.939
23.702452660,-0.1625547,-32.27076,170.3777,0.5004615,0.8055012,0.6186361,-28.50586,-8.225719,-39.64016,1006.937
23.735229492,-2.336782,-38.23912,189.0099,0.5728803,0.7758691,0.6127326,-30.80414,-5.22712,-38.44088,1006.935
23.770527840,-33.02444,-40.42555,206.6035,0.6062408,0.6259127,0.580147,-31.22897,-1.945466,-38.42982,1006.934
23.803305626,-49.9213,-51.77135,211.3685,0.6563457,0.3797565,0.5611446,-31.22897,-1.945466,-38.42982,1006.932
23.836082935,-57.43791,-64.18081,208.0697,0.6690029,0.1566122,0.5344947,-32.79854,4.33712,-36.84802,1006.928
23.868859768,-39.60925,-66.42633,203.8545,0.7131891,-0.04960948,0.5221853,-33.29639,11.63862,-36.09193,1006.928
23.901637077,-1.032246,-72.63107,193.7137,0.766486,-0.2131034,0.4799455,-33.29639,11.63862,-36.09193,1006.925
23.936935425,5.863161,-69.61734,180.2131,0.7437015,-0.2263498,0.4934976,-33.40747,17.93555,-33.20667,1006.921
23.969712257,10.70858,-69.55824,169.0949,0.6909354,-0.2924697,0.503831,-32.40063,22.76107,-31.10796,1006.923
24.002489567,10.52222,-70.14917,156.6327,0.627975,-0.3717659,0.4525941,-32.40063,22.76107,-31.10796,1006.917
24.035267353,18.72216,-65.77631,141.8492,0.659658,-0.4362889,0.3808933,-30.64641,26.41296,-30.29739,1006.917
24.070565701,14.93279,-61.87619,126.4547,0.6344897,-0.482712,0.3189273,-28.81808,29.33499,-29.53759,1006.917
24.103343010,13.56614,-56.55786,117.047,0.6336349,-0.5450512,0.2501886,-28.81808,29.33499,-29.53759,1006.916
24.136119843,23.75394,-56.67604,108.9222,0.5720424,-0.5736961,0.2672255,-27.41295,32.27077,-27.84487,1006.914
24.168897152,6.360127,-56.79423,97.19309,0.5268371,-0.5606738,0.2331364,-25.63353,34.51971,-27.44744,1006.912
24.201673985,-1.529212,-54.66689,88.88499,0.5348414,-0.6675525,0.1923628,-25.63353,34.51971,-27.44744,1006.912
24.236972332,-8.859464,-54.31233,73.91818,0.5722282,-0.6692923,0.1773545,-22.7465,35.98236,-26.6039,1006.91
24.302527428,-53.8349,-39.89372,47.03901,0.6084409,-0.8161451,0.02730507,-22.04332,37.45535,-25.38458,1006.907
24.335304260,-51.59856,-27.89791,34.88229,0.6031265,-0.8374901,-0.02415586,-21.34679,39.29362,-24.10883,1006.907
24.370602608,-13.95337,-16.07937,22.6034,0.6342989,-0.8978616,-0.1285943,-20.22343,41.14786,-21.59046,1006.907
24.403379917,-2.336782,-2.369868,10.20233,0.599723,-0.8456725,-0.07612252,-20.22343,41.14786,-21.59046,1006.907
24.436156750,1.82531,16.4216,0.5502639,0.6357093,-0.8869559,-0.1728994,-19.52014,42.62169,-20.30898,1006.905
24.468934059,14.99492,33.85395,-4.031413,0.6395212,-0.8491645,-0.1359005,-19.1493,42.25638,-20.30372,1006.905
24.501711846,47.42196,44.25426,-5.497549,0.6997249,-0.8775645,-0.3001449,-19.1493,42.25638,-20.30372,1006.905
24.537010193,110.2882,72.55965,-4.642303,0.7913298,-0.8673031,-0.6156695,-18.77991,41.87919,-21.16869,1006.905
24.569787502,194.7724,172.899,-13.43912,0.7794042,-0.825192,-0.9892414,-18.42155,41.83161,-24.58789,1006.905
24.602564335,219.9314,301.0711,-20.64762,0.6618767,-0.7365623,-0.5693488,-18.42155,41.83161,-24.58789,1006.903
24.635341644,418.2209,531.4734,-92.36613,-5.744797,2.714203,-4.833847,-16.93006,39.17772,-31.82224,1006.902
24.670639992,-411.5263,52.58633,-7.024775,4.472247,-1.273592,0.9690382,-10.2161,32.84331,-40.74639,1006.902
24.703416824,-82.90742,-103.6547,-0.06062628,-2.393455,-0.7722768,0.1392958,-10.17327,31.02492,-35.99272,1006.902
24.736194611,-5.567062,-36.34816,16.79994,1.334648,-1.05921,0.410557,-10.17327,31.02492,-35.99272,1006.902
24.768971920,25.92817,8.148629,-2.565276,0.4063014,-0.4523397,0.5485509,-5.502245,34.35425,-36.05135,1006.9
24.801748753,-43.33649,8.266814,3.726893,0.4286381,-0.837523,0.6713445,-5.49621,33.98387,-36.48074,1006.9
24.837047577,-15.38214,-12.88837,-7.818932,0.3858698,-0.826862,0.6449549,-5.49621,33.98387,-36.48074,1006.902
24.869824409,-7.306444,-5.147224,-23.88534,0.3735592,-0.7705471,0.5635491,-5.135988,34.37121,-34.74649,1006.902
24.902601719,-7.368565,-0.2425317,-32.07127,0.259494,-0.7839543,0.5936842,-5.877665,35.10183,-34.75701,1006.902
24.935378551,-2.523144,4.366697,-55.34619,0.2075627,-0.7961299,0.586124,-5.877665,35.10183,-34.75701,1006.902
24.970677853,-24.76238,-11.52923,-87.72336,0.2116097,-0.8612419,0.6030602,-6.612581,35.46801,-34.7618,1006.902
25.003454685,-18.42606,-12.65199,-118.9398,0.2542849,-0.8617459,0.4792497,-8.06889,35.4715,-34.75992,1006.903
25.036231995,-14.26397,-15.96119,-152.0501,0.3162659,-0.7916796,0.4650377,-8.06889,35.4715,-34.75992,1006.905
25.069008827,-6.623115,-13.77476,-185.0993,0.3492528,-0.784323,0.4326971,-11.76972,35.48546,-34.38219,1006.905
25.101786137,21.20699,-16.07937,-210.5734,0.3439145,-0.5827915,0.4242229,-16.11618,34.42046,-33.05402,1006.905
25.137084484,39.4705,-20.03858,-227.3118,0.4434758,-0.3952736,0.3755679,-16.11618,34.42046,-33.05402,1006.905
25.169861317,53.8204,-29.02067,-232.5654,0.5817412,-0.1374084,0.381109,-21.21873,31.45658,-33.00057,1006.905
25.202639103,69.72332,-38.53459,-228.167,0.6840696,0.1049234,0.2972255,-26.59418,26.71416,-34.22437,1006.905
25.235416412,137.3107,-63.05805,-191.6358,0.7876636,0.6619947,0.3678631,-26.59418,26.71416,-34.22437,1006.905
25.268193245,26.23878,-73.51746,-177.1577,0.8627156,0.7588314,0.4055667,-31.61621,19.37195,-34.47511,1006.905
25.303492069,-93.40584,-36.0527,-176.2413,0.8700654,0.4871687,0.2018613,-34.74096,11.31843,-33.10069,1006.907
25.336268902,-134.0328,14.29427,-162.0076,0.8811392,0.3170881,0.1736911,-34.74096,11.31843,-33.10069,1006.909
25.369046211,-120.0556,45.79067,-156.6929,1.205078,0.3329421,0.3832539,-37.92757,6.606435,-31.71664,1006.909
25.401823044,-135.0889,83.01906,-155.6544,1.00825,0.4230549,0.4813014,-38.97924,4.422431,-31.68085,1006.909
25.437121391,-105.8921,84.14182,-152.661,0.617941,0.3782263,0.4572639,-38.97924,4.422431,-31.68085,1006.909
25.469899178,-68.37116,78.23255,-158.9532,0.4504383,0.3715583,0.4701866,-38.23443,3.297656,-33.84016,1006.909
25.502676487,-17.12153,70.07776,-152.1723,0.3122158,0.5209644,0.549714,-35.68193,2.904185,-35.516,1006.91
25.535453320,-21.15938,62.15934,-127.1258,0.3251034,0.8615717,0.7681896,-35.68193,2.904185,-35.516,1006.91
25.568230629,-71.04236,78.46893,-115.0302,0.4508782,0.6547235,0.7778304,-33.0736,-0.4604287,-36.77211,1006.912
25.603528976,-41.28651,82.42813,-115.2134,0.3424611,0.5021968,0.7561747,-31.21617,-2.680284,-38.85347,1006.912
25.636306286,-5.815545,72.61874,-117.0461,0.1674341,0.6144483,0.8599135,-31.21617,-2.680284,-38.85347,1006.912
25.669083118,-5.318579,61.80479,-105.8057,0.05791969,0.7372434,0.9302669,-28.59633,-3.439187,-40.58582,1006.912
25.701860905,29.71754,43.1315,-90.10583,0.07838473,0.7208497,0.9995592,-26.01544,-5.279368,-41.43069,1006.911
25.737159252,123.7684,-0.7743658,-50.8256,0.01727706,1.106374,1.042446,-22.71242,-6.750914,-41.84711,1006.913
25.769936562,-3.206473,-2.547146,12.46262,0.02347247,1.558171,1.009499,-22.71242,-6.750914,-41.84711,1006.915
25.802713394,30.40087,-22.52047,35.12664,0.09788202,0.6443824,0.7656864,-22.27139,-10.80944,-40.91337,1006.915
25.835490704,7.229818,-21.39771,38.85308,0.1262071,0.7602843,0.6595449,-22.6077,-12.26038,-40.45487,1006.918
25.868267536,-13.51852,-8.929156,29.93408,0.2000678,0.5071784,0.5230445,-22.6077,-12.26038,-40.45487,1006.918
25.903565884,4.682866,-0.06525365,13.86767,0.2412471,0.5505049,0.5406919,-23.6992,-12.25181,-40.01834,1006.922
25.936343670,-9.480671,10.8078,1.588777,0.2576935,0.5946174,0.6310824,-24.09105,-10.79914,-40.47591,1006.922
25.969120979,-17.9291,14.76701,-4.82557,0.1731743,0.6308197,0.755901,-24.09105,-10.79914,-40.47591,1006.922
26.001897812,-3.268594,8.739555,-6.536062,0.1673667,0.627536,0.7809505,-24.4544,-10.79232,-40.04033,1006.925
26.037196636,9.093441,2.121176,-2.870721,0.1302535,0.720928,0.8083355,-23.7277,-10.80595,-40.91149,1006.925
26.069973469,4.807108,-2.251683,0.5502639,0.1346707,0.6924023,0.7631199,-23.7277,-10.80595,-40.91149,1006.927
26.102750778,9.77677,-3.197166,-0.2438933,0.171665,0.6405898,0.6918688,-23.73446,-10.44152,-40.91722,1006.927
26.135527611,6.794973,-0.3016244,-0.9769616,0.1817988,0.6669643,0.690361,-23.36893,-10.4305,-40.04747,1006.927
26.168305397,3.502571,0.4665805,-0.6104274,0.1753591,0.7265464,0.7215748,-23.36893,-10.4305,-40.04747,1006.929
26.203603745,-2.585265,1.471156,0.3059078,0.1706589,0.6587256,0.7096542,-23.72021,-11.16445,-40.47065,1006.931
26.236381054,2.446518,0.8211366,0.1837298,0.1716275,0.6612191,0.7168686,-23.72021,-11.16445,-40.47065,1006.932
26.269157887,6.111644,0.5256732,0.0004627327,0.1658231,0.6504089,0.7101596,-23.72021,-11.16445,-40.47065,1006.934
26.301935196,4.744987,-0.5379951,-0.1828043,0.1691198,0.6958145,0.7221174,-23.3629,-10.80088,-40.47685,1006.934
26.337233543,6.54649,-0.06525365,-0.06062628,0.1730627,0.6674621,0.7024149,-23.71418,-11.53483,-40.90003,1006.934
26.370010853,7.167697,-0.4789024,-1.160229,0.1661856,0.703042,0.7144116,-23.71418,-11.53483,-40.90003,1006.936
26.402788162,0.9556192,0.2893024,-0.4271604,0.1618656,0.6780266,0.6942424,-23.70742,-11.89927,-40.8943,1006.936
26.435565472,5.241953,-0.1243463,0.1226408,0.1696146,0.6873751,0.6985422,-23.70669,-11.89332,-40.45919,1006.939
26.468342781,0.8313776,0.1711171,0.06155175,0.164761,0.6853462,0.6927804,-23.70669,-11.89332,-40.45919,1006.941
26.503641129,1.763189,0.4074878,-0.1828043,0.1662107,0.6887843,0.6951786,-22.9853,-11.53063,-40.46586,1006.941
26.536417961,-1.777695,0.9984148,-0.1828043,0.1739862,0.6874349,0.7019013,-23.70597,-11.88738,-40.02407,1006.941
26.569195271,0.6450153,0.3483951,0.06155175,0.1681925,0.6742667,0.7062671,-23.70597,-11.88738,-40.02407,1006.943
26.601972103,2.757122,-0.006160967,0.0004627327,0.1696256,0.6835056,0.7023988,-23.69993,-12.25776,-40.45346,1006.943
26.637270451,2.695001,-0.3016244,-0.1217153,0.1657279,0.6888238,0.7014374,-24.06328,-12.25094,-40.01788,1006.943
26.670048237,1.887431,-0.183439,-0.1217153,0.1720206,0.6971559,0.7014099,-23.69993,-12.25776,-40.45346,1006.943
26.702825546,0.9556192,0.1120244,0.0004627327,0.1686301,0.6927142,0.6970924,-23.69993,-12.25776,-40.45346,1006.943
26.735602379,0.1480492,-0.006160967,-0.1828043,0.1637616,0.6985347,0.6995019,-23.70597,-11.88738,-40.02407,1006.943
26.768379688,-0.1004339,-0.1243463,0.0004627327,0.1705956,0.6845078,0.7052832,-24.06328,-12.25094,-40.01788,1006.943
26.803678036,0.7071361,0.1120244,0.06155175,0.1642831,0.683948,0.7024108,-24.06328,-12.25094,-40.01788,1006.943
26.836455345,0.8313776,0.2302098,-0.1828043,0.1657262,0.6898079,0.70288,-23.33585,-12.25863,-40.45393,1006.943
26.869232178,0.8313776,-0.006160967,-0.2438933,0.1700635,0.7019597,0.6941869,-23.70597,-11.88738,-40.02407,1006.939
26.902009964,0.5207738,0.05293171,-0.3049823,0.1686184,0.6970773,0.6941977,-23.70597,-11.88738,-40.02407,1006.939
26.937308311,-0.9080041,0.5256732,-0.5493384,0.1691362,0.6834413,0.6937356,-23.69993,-12.25776,-40.45346,1006.939
26.970085621,0.2101699,0.4665805,-0.1217153,0.166699,0.6888319,0.7014351,-22.60021,-12.61887,-40.01403,1006.939
27.002862453,0.2722907,-0.183439,0.0004627327,0.1652173,0.699541,0.7023851,-22.60021,-12.61887,-40.01403,1006.939
27.035639763,1.204102,-0.4198098,0.1226408,0.1710701,0.6878743,0.6985379,-23.34262,-11.89419,-40.45966,1006.939
27.068416595,-0.7837625,-0.8925512,1.466599,0.1578874,0.7204759,0.7100728,-24.05652,-12.61538,-40.01215,1006.94
27.103715420,-2.523144,-2.428961,9.957973,0.1665079,0.7722206,0.7167135,-24.05652,-12.61538,-40.01215,1006.94
27.136492252,19.34337,-7.747303,22.84776,0.141772,0.7734634,0.7851236,-24.05725,-12.62132,-40.44726,1006.94
27.169270039,24.49939,-21.57499,43.55693,0.1570906,1.080799,0.8385366,-24.06328,-12.25094,-40.01788,1006.942
27.202047348,-39.98197,-20.6886,64.44938,0.2069757,1.114565,0.731505,-24.06328,-12.25094,-40.01788,1006.942
27.234824181,-73.21658,-19.38856,79.29401,0.225712,0.7756988,0.6554348,-24.4206,-12.61451,-40.01168,1006.942
27.270122528,-51.35007,-30.67526,88.8239,0.2732224,0.612789,0.7041852,-25.56016,-10.06083,-40.05038,1006.942
27.302899838,-29.04872,-38.88914,93.40558,0.3485344,0.5970087,0.7256916,-25.56016,-10.06083,-40.05038,1006.944
27.335676670,-51.97128,-33.09806,92.48924,0.3204565,0.5688074,0.7662351,-26.71364,-6.711596,-39.66638,1006.944
27.368453980,-34.01838,-36.70271,82.65391,0.3353044,0.2237869,0.6502304,-28.24433,-2.699298,-39.72753,1006.944
27.403752804,6.173765,-32.92078,69.45868,0.3993017,0.2611817,0.6278796,-28.24433,-2.699298,-39.72753,1006.944
27.436530113,1.701069,-20.57041,53.02573,0.4625065,0.2180181,0.5782144,-29.39668,0.5891962,-39.34258,1006.942
27.469306946,12.75857,-8.279137,38.05892,0.5128985,0.2632359,0.5765827,-30.20507,1.690342,-38.92364,1006.942
27.502084255,16.17521,3.657585,29.07883,0.6214407,0.3601345,0.5829183,-30.20507,1.690342,-38.92364,1006.942
27.534861565,-0.5974002,19.90807,8.980548,0.5380013,0.3343968,0.6240707,-30.59587,3.22159,-38.07682,1006.942
27.570159912,8.658595,16.4216,7.697679,0.5231249,0.4865341,0.7379594,-30.96816,3.575012,-38.95231,1006.942
27.602936745,5.241953,11.10326,17.41083,0.5636944,0.597622,0.8354122,-30.96816,3.575012,-38.95231,1006.942
27.635714054,-22.65028,11.75328,23.82518,0.5849643,0.6367223,0.8295265,-30.24001,3.573267,-38.95325,1006.942
27.668491840,-52.21976,8.444092,29.13993,0.4603425,0.5610422,0.8121258,-29.81598,3.566305,-39.38891,1006.942
27.703790188,-74.1484,-5.088132,36.89823,0.4479872,0.4520035,0.8354248,-29.84302,5.024053,-39.41183,1006.944
27.736567020,-65.76209,-13.77476,41.72426,0.4765555,0.2772386,0.8129964,-29.84302,5.024053,-39.41183,1006.944
27.769344330,-28.55175,-25.06146,45.02307,0.5154755,0.239834,0.7802279,-29.527,7.568295,-39.88752,1006.942
27.802121162,-4.324646,-30.67526,48.1997,0.5770852,0.2611701,0.7627205,-29.5864,10.86012,-39.06887,1006.944
27.834898472,23.44334,-33.5708,51.43741,0.6643562,0.3037919,0.6936146,-29.5864,10.86012,-39.06887,1006.944
27.870196819,21.76608,-28.60702,62.92215,0.7365666,0.3592956,0.6741052,-29.97607,12.33063,-38.22109,1006.945
27.902974129,-2.709507,-19.15219,75.93412,0.8057231,0.4827931,0.7007113,-30.78496,13.4976,-37.43016,1006.945
27.935751915,-15.32002,-14.95661,94.26082,0.9636926,0.4239764,0.7374901,-30.78496,13.4976,-37.43016,1006.941
27.968528748,-33.52141,-2.074405,113.9315,1.02463,0.3176331,0.7100682,-31.15725,13.85103,-38.30564,1006.939
28.003827095,1.949552,5.134902,138.9169,1.034562,0.2191406,0.6822742,-29.67792,16.05779,-36.60153,1006.938
28.036604404,-13.39428,36.09947,165.8571,1.001078,0.4363586,0.792258,-29.67792,16.05779,-36.60153,1006.938
28.069381237,-77.06808,65.58672,179.48,0.9045586,0.1781372,0.7553299,-27.91839,19.33336,-36.65545,1006.938
28.102158546,-81.60289,75.21883,185.2834,0.6990607,0.003086422,0.6930228,-24.34032,22.65936,-37.14779,1006.936
28.134935379,-109.4951,78.82348,180.152,0.468225,-0.1230405,0.6927976,-24.34032,22.65936,-37.14779,1006.934
28.170234680,-100.2391,61.15477,171.0497,0.5122204,-0.2509212,0.6702621,-18.16928,27.03545,-35.91927,1006.932
28.203011513,-94.33765,53.47272,154.3724,0.2993612,-0.4070472,0.5367023,-10.98635,32.50748,-34.33633,1006.931
28.235788822,-53.27582,44.01789,145.148,0.2562545,-0.4653121,0.4743153,-10.98635,32.50748,-34.33633,1006.929
28.268565655,-42.71529,54.71367,131.3418,0.2205539,-0.3513825,0.5117745,-4.808221,36.59177,-32.23283,1006.929
28.303864479,-54.02127,60.20928,122.4229,0.1616248,-0.4899765,0.4731329,1.074465,36.97097,-30.13275,1006.927
28.336641312,-51.7228,70.78687,119.9793,0.1249278,-0.5683842,0.5181047,1.074465,36.97097,-30.13275,1006.927
28.369418621,-48.24403,67.71405,121.6287,0.0907054,-0.6596771,0.5982295,6.160933,37.7114,-28.41035,1006.925
28.402195454,-42.28044,66.82767,119.4295,0.06472525,-0.7495806,0.6581155,11.33647,37.00498,-25.85703,1006.925
28.434973240,-23.70633,56.42735,115.8252,0.06547004,-0.8682688,0.6087124,11.33647,37.00498,-25.85703,1006.925
28.470271587,-7.554927,53.70909,101.5304,-0.03619521,-0.7860833,0.6430063,16.43792,37.02843,-23.25294,1006.921
28.503048897,-12.08974,48.56802,88.45737,-0.1421047,-0.7580345,0.6716155,20.18201,34.84991,-21.98016,1006.923
28.535825729,-12.64883,34.2676,75.56758,-0.2362306,-0.7970596,0.6357956,20.18201,34.84991,-21.98016,1006.923
28.568603039,6.732852,20.08535,60.72294,-0.3710921,-0.6482211,0.6296334,24.59369,32.67065,-20.64608,1006.923
28.603901386,-8.673101,5.666736,38.05892,-0.4896639,-0.5920718,0.7222514,26.82879,30.07145,-19.3025,1006.923
28.636678696,-1.280729,-9.047341,27.00181,-0.6582514,-0.550015,0.7394356,27.94276,28.98741,-18.4165,1006.921
28.669455528,14.43583,-25.47511,22.72558,-0.6804122,-0.64394,0.6366183,27.94276,28.98741,-18.4165,1006.921
28.702233314,34.12812,-38.94824,28.04032,-0.5339368,-0.5528741,0.739145,29.41041,28.23722,-19.71225,1006.921
28.735010624,24.68576,-43.02563,33.47724,-0.5457567,-0.4823291,0.7424363,29.80611,26.39632,-20.98941,1006.919
28.770308971,27.97816,-46.33482,46.91682,-0.4478838,-0.6171544,0.6369891,29.80611,26.39632,-20.98941,1006.919
28.803085804,28.35088,-47.69395,62.55562,-0.4899872,-0.4546835,0.7287842,29.46087,25.292,-21.84197,1006.919
28.835863113,8.969199,-60.69434,81.30995,-0.6583936,-0.5027384,0.6743808,29.13528,23.08927,-23.0503,1006.919
28.868639946,35.18417,-75.05386,89.55697,-0.6177311,-0.6851814,0.5137845,29.13528,23.08927,-23.0503,1006.918
28.903938293,46.11742,-66.83998,81.30995,-0.6052026,-0.4022046,0.7097239,29.90826,20.446,-25.18573,1006.916
28.936716080,-2.895869,-56.85332,63.53304,-0.5144433,-0.3778554,0.7402791,29.96485,17.13126,-27.68267,1006.916
28.969493389,-26.87449,-48.40306,41.41882,-0.4680619,-0.4740407,0.7903756,29.96485,17.13126,-27.68267,1006.916
29.002270222,-6.001907,-42.78926,35.67645,-0.4110338,-0.5530171,0.851011,29.27581,14.93449,-28.51758,1006.916
29.035047531,2.135914,-42.19833,25.16914,-0.3834854,-0.4674124,1.011591,28.92235,14.18271,-30.2461,1006.916
29.070345879,-8.983706,-39.2437,22.78667,-0.283387,-0.5094078,0.9454708,28.92235,14.18271,-30.2461,1006.914
29.103123188,-9.604913,-39.18461,28.65121,-0.1384767,-0.6008728,0.9255291,28.5718,13.45472,-30.23416,1006.914
29.135900021,13.50402,-30.26161,37.63129,0.02230496,-0.6380154,0.8539622,27.49101,12.71148,-31.46447,1006.914
29.168677330,-2.647386,-9.815546,45.63396,0.1422874,-0.6499133,0.8897977,27.49101,12.71148,-31.46447,1006.912
29.203976154,-39.67137,6.907682,48.81059,0.1395925,-0.7273396,0.9650131,27.13151,12.33008,-32.7636,1006.912
29.236753464,-66.81815,20.26263,32.74417,-0.05293231,-0.6473328,0.865226,27.15365,11.18197,-32.31035,1006.911
29.269530296,-86.57256,27.29466,-2.93181,-0.274939,-0.8204929,0.8145079,27.15365,11.18197,-32.31035,1006.909
29.302307606,-39.98197,33.08574,-41.66225,-0.5182394,-0.8230081,0.7452913,27.89002,10.82768,-31.43534,1006.909
29.335084438,1.204102,29.95383,-72.20675,-0.641377,-0.7032807,0.7410706,28.59394,12.30661,-29.78091,1006.909
29.403160095,88.67016,8.503185,-85.03544,-0.4973296,-0.4152531,0.8047974,29.63916,14.92768,-28.95316,1006.907
29.435937405,85.25352,-2.547146,-68.84686,-0.2569601,-0.4105112,0.8475426,29.26011,15.64553,-29.83437,1006.909
29.468715191,75.50055,-14.18841,-59.62242,-0.2148721,-0.3494646,0.8208759,29.26011,15.64553,-29.83437,1006.909
29.501492024,73.63693,-22.75684,-33.41523,-0.07699839,-0.1249873,0.8582381,28.15228,16.36004,-31.0876,1006.907
29.536790371,80.15961,-35.69814,-20.46436,-0.1193392,-0.5061709,0.7934479,26.69379,16.3457,-32.39105,1006.907
29.569567680,151.7227,-45.27115,-20.09782,-0.147856,-0.3750545,0.7023405,26.69379,16.3457,-32.39105,1006.905
29.602344513,180.4847,-38.29822,-13.0115,-0.1740747,-0.1449155,0.840688,27.07535,15.22859,-34.05262,1006.904
29.635121822,162.3454,-43.61656,-6.780418,-0.1767264,-0.275212,0.7369166,25.31258,11.85662,-36.60842,1006.904
29.670420170,212.9117,-41.78469,-3.237255,-0.1453819,0.02875412,0.7768185,24.31148,6.72825,-38.64019,1006.904
29.703197479,167.315,-39.18461,0.6113529,-0.07360348,0.07600291,0.8314523,24.31148,6.72825,-38.64019,1006.904
29.735974789,155.6364,-26.3615,-0.8547835,-0.09672152,0.1999842,0.828432,22.95553,1.186615,-39.85674,1006.902
29.768752098,70.53089,-15.0157,-4.153591,-0.08676984,0.3396939,1.01641,21.24332,-4.640015,-39.76271,1006.9
29.801529407,48.41589,-8.988249,-5.680816,-0.1552927,0.1467882,0.9533238,21.24332,-4.640015,-39.76271,1006.9
29.836827755,60.71581,-3.433537,-7.635664,-0.09987292,0.3326255,0.9962348,21.67011,-7.975616,-39.27554,1006.9
29.869604588,34.62508,-6.1518,-4.21468,-0.1392561,0.3749249,1.103127,21.6986,-9.421476,-38.3824,1006.898
29.902381897,21.76608,-23.82051,-3.848145,-0.1316501,0.2325329,1.068665,21.6986,-9.421476,-38.3824,1006.903
29.935158730,9.901011,-30.55708,-18.44842,-0.11578,0.3141156,1.15515,21.34805,-10.14948,-38.37047,1006.903
29.970458031,-35.63352,-35.40268,-35.00354,-0.03189323,0.1488418,1.100325,20.63197,-10.88849,-39.22829,1006.904
30.003234863,-21.84271,-28.60702,-35.06463,-0.07349903,0.2776581,1.044391,20.63197,-10.88849,-39.22829,1006.904
30.036012173,-29.54568,-23.46596,-21.50287,0.005271492,0.2077757,0.9157863,19.09324,-9.803434,-40.11375,1006.904
30.068789005,5.676799,-9.815546,-3.787056,-0.006963366,0.2294113,0.8199917,19.06474,-8.357574,-41.00689,1006.9
30.101566315,8.16163,-2.665332,11.4852,0.004784158,0.2092595,0.919636,19.06474,-8.357574,-41.00689,1006.898
30.136864662,3.37833,5.725829,13.98985,0.07505257,0.2662683,0.9087934,19.05009,-7.567961,-41.0193,1006.9
30.169641972,-1.094366,11.75328,14.41747,0.0850433,0.147468,0.9022098,18.3291,-7.997336,-41.44679,1006.902
30.202418804,8.099508,8.148629,10.99649,0.1062687,0.2252761,0.9997586,18.3291,-7.997336,-41.44679,1006.902
30.235196114,-13.95337,-2.960795,-0.06062628,0.1367174,0.07481512,0.9681433,19.06547,-8.35163,-40.57178,1006.9
30.270494938,5.987402,-1.3062,-2.93181,0.1092785,0.1757893,0.9536153,18.69994,-8.362646,-41.44153,1006.9
30.303272247,7.105577,-6.388171,-6.413884,0.1128787,0.1011772,1.005706,18.69994,-8.362646,-41.44153,1006.9
30.336049080,16.36157,-8.751878,-5.131015,0.1241042,0.2637922,0.9139759,18.69994,-8.362646,-41.44153,1006.9
30.368826389,9.901011,-12.71109,-0.9158725,0.2217398,0.2520442,0.9282029,18.69463,-7.986321,-40.57704,1006.9
30.401603222,24.68576,-16.43393,2.260756,0.2510061,0.4296228,1.075644,18.69463,-7.986321,-40.57704,1006.9
30.436902046,20.27518,-23.70233,26.20765,0.4261723,0.6715951,0.9925509,18.33659,-8.355829,-41.00595,1006.902
30.469678879,0.4586531,-13.06564,10.01906,0.2985657,0.2553626,1.173029,17.26464,-9.446522,-40.98735,1006.9
30.502456188,-60.4197,-34.3981,3.29927,0.520042,0.3682002,0.8142003,17.26464,-9.446522,-40.98735,1006.902
30.535233975,-114.2163,-71.92195,-36.04206,-0.1957663,-0.6527222,1.732987,15.81509,-9.807468,-40.97974,1006.902
30.570532322,246.5812,-145.7287,-15.7605,-0.3166179,-1.036315,-0.1251675,14.69977,-8.734467,-42.67381,1006.904
30.603309154,323.9215,-34.87084,9.957973,0.6494872,-0.06022377,-0.7879143,14.69977,-8.734467,-42.67381,1006.904
30.636086464,64.44305,62.92755,-4.764481,0.8932775,1.018725,-0.428616,11.01054,-6.113941,-42.71017,1006.898
30.668863296,10.21161,90.46474,4.582139,0.349444,-0.2606348,-0.6713738,7.85652,-15.5894,-38.70209,1006.898
30.701640606,65.99607,73.8597,-5.619727,0.6005189,0.04051631,-1.160524,7.85652,-15.5894,-38.70209,1006.898
30.736938953,-46.25617,183.4766,3.177092,0.1672525,0.5837685,-0.7506763,9.393313,-19.62168,-35.65636,1006.896
30.769715786,-224.108,216.8049,5.865008,-0.6808151,-0.3285833,-1.780292,11.67194,-21.03216,-31.78249,1006.896
30.802493572,94.07467,469.8989,17.96063,-0.8815414,0.06132461,-1.219136,16.40317,-20.63831,-28.81071,1006.892
30.835270882,-88.4983,490.1086,55.10275,-1.379974,1.093353,-2.723283,16.40317,-20.63831,-28.81071,1006.887
30.870569229,15.05704,586.666,138.7947,-3.472538,-0.9348863,-5.20968,23.76408,-20.50307,-17.6316,1006.884
30.903346539,-169.069,-1247.335,832.4604,-15.37437,15.94047,15.80841,28.94413,-23.61435,-4.346778,1006.884
30.936123371,393.6832,-124.869,229.1454,-6.326675,-3.003751,-3.025962,28.94413,-23.61435,-4.346778,1006.887
30.968900681,463.8796,-1.838034,263.3552,2.720248,4.015697,1.817713,27.71231,-36.95521,-16.13432,1006.898
31.001677513,-82.41046,243.3966,335.3792,-0.5325503,1.623974,0.2145461,19.04352,-42.23895,0.2495551,1006.905
31.036975861,-219.0762,310.8804,245.5783,0.4959068,1.125808,-0.2405852,19.04352,-42.23895,0.2495551,1006.912
31.069753647,-226.2201,132.3615,198.723,-0.03492327,-0.212671,0.03466056,8.49544,-46.25117,-1.78711,1006.912
31.102530956,34.87357,-148.6243,216.6221,-1.081402,1.040118,1.100027,-0.6772425,-46.31157,-7.804689,1006.919
31.135307789,-83.90136,-279.6918,32.92744,-0.7118145,0.06376482,-2.753642,-0.6772425,-46.31157,-7.804689,1006.924
31.170606136,-26.0048,111.2654,-127.6145,-1.394776,2.184667,-0.7647879,-7.989689,-44.44817,-6.083495,1006.927
31.203383446,-75.88778,-61.28527,40.56357,-0.3047384,1.439249,0.4814399,-11.3459,-43.33497,-5.226155,1006.928
31.236160755,-185.6552,4.780346,23.64191,0.7057357,1.482151,0.6734487,-11.3459,-43.33497,-5.226155,1006.928
31.268937588,-94.71037,36.04037,-53.69678,0.07494541,-0.615254,1.402555,-8.717845,-44.44642,-6.082556,1006.932
31.301714897,362.747,-11.7656,23.88627,-0.1283784,1.172077,1.421042,-10.28369,-42.74372,-15.12228,1006.935
31.337013722,68.91575,20.43991,-15.33288,-0.1379037,1.322856,0.4922909,-10.28369,-42.74372,-15.12228,1006.937
31.369791031,-83.59076,-14.2475,0.4891749,-0.181765,0.7790375,0.5047674,-10.6481,-42.32577,-11.27369,1006.941
31.402567864,-96.13915,-11.64742,-2.382009,-0.03076088,0.4407739,0.8466858,-10.28474,-42.33258,-11.70927,1006.942
31.435345173,-30.53961,-9.342805,-17.95971,0.05647186,0.5024968,0.7929547,-10.28474,-42.33258,-11.70927,1006.942
31.468122006,-2.398903,4.366697,-20.95307,-0.06526277,0.8416148,0.7489284,-10.66057,-42.00803,-14.69815,1006.94
31.503420353,-31.22294,-12.35653,-16.00486,-0.07335449,0.7693356,0.7302834,-10.30398,-41.65041,-15.13947,1006.942
31.536197662,-57.81063,-9.815546,-18.20406,-0.05043326,0.7251161,0.717299,-10.30398,-41.65041,-15.13947,1006.945
31.568974972,-74.02415,-7.392746,-10.81229,-0.05353683,0.424125,0.8612058,-9.228173,-40.94793,-16.89278,1006.947
31.601751804,-40.54106,-7.806395,-0.6104274,-0.07656071,0.501591,0.8226348,-9.230249,-40.96491,-18.13596,1006.947
31.637051105,-30.7881,-5.088132,-5.375371,-0.02314384,0.5036216,0.8403153,-8.46388,-39.89132,-19.4595,1006.95
31.669827938,-23.14724,-3.788093,-4.886659,-0.05228062,0.5088932,0.8630005,-8.46388,-39.89132,-19.4595,1006.954
31.702605247,-18.2397,-1.956219,-6.474973,0.01898472,0.57945,0.9782519,-9.261551,-39.54198,-20.70739,1006.956
31.735382080,7.291939,-2.665332,-3.115077,0.02915532,0.3644559,0.8659132,-8.487693,-38.82689,-21.59009,1006.957
31.770680427,13.19341,2.416639,0.0004627327,-0.0372186,0.5031041,0.8528649,-8.487693,-38.82689,-21.59009,1006.957
31.803457737,-3.268594,1.943898,1.527688,-0.07018015,0.4769492,0.8433553,-8.489146,-38.83877,-22.46031,1006.959
31.836234570,9.466166,0.05293171,3.604715,-0.0493209,0.4833745,0.8317434,-8.865293,-38.09714,-21.60108,1006.959
31.869011879,2.073793,0.7029513,3.849071,-0.04656744,0.5591926,0.8754265,-8.865293,-38.09714,-21.60108,1006.963
31.901789665,4.869229,1.234785,3.849071,-0.0276102,0.5475414,0.8580701,-9.276526,-38.82499,-21.58907,1006.966
31.937088013,-15.13366,3.834863,3.238181,-0.02949915,0.5246181,0.8557023,-9.647366,-38.45968,-21.59433,1006.966
31.969865322,-5.567062,2.593917,1.955311,-0.05186944,0.5395565,0.8595838,-9.647366,-38.45968,-21.59433,1006.968
32.002642155,-1.40497,1.175693,0.916798,-0.02825975,0.6172056,0.8613362,-8.852497,-38.83195,-22.02473,1006.965
32.035419464,-9.35643,-1.188015,0.855709,-0.04391247,0.4607296,0.8606464,-8.845736,-39.19639,-22.019,1006.967
32.068196297,-3.951922,0.2302098,-1.343496,-0.04355791,0.5147535,0.8547878,-8.845736,-39.19639,-22.019,1006.969
32.103494644,-10.164,-0.1243463,-1.648941,-0.046531,0.542083,0.8663064,-8.866019,-38.10308,-22.03619,1006.971
32.136271954,-9.232188,-0.006160967,-1.648941,-0.04697268,0.5240757,0.8687413,-9.284741,-38.47244,-22.46503,1006.971
32.169048786,-10.28824,-0.5379951,-1.71003,-0.04638556,0.4827327,0.8760226,-9.284741,-38.47244,-22.46503,1006.972
32.201826572,-6.250391,-1.069829,-1.465674,-0.04731525,0.4651884,0.8755699,-9.294083,-38.05915,-23.34194,1006.972
32.237124920,-4.262526,-0.1243463,-0.7936945,-0.035714,0.4877022,0.877434,-9.286195,-38.48433,-23.33525,1006.972
32.269902229,-4.014042,0.2893024,-0.6715164,-0.04249368,0.4788388,0.8716871,-9.286195,-38.48433,-23.33525,1006.968
32.302679539,-1.964057,-0.4198098,0.0004627327,-0.048301,0.4715183,0.8765255,-9.307605,-37.33028,-23.3534,1006.968
32.335456371,-0.5974002,-0.5379951,0.6113529,-0.04445023,0.4856711,0.8760136,-9.300844,-37.69472,-23.34767,1006.976
32.368233681,-0.2867963,0.3483951,0.4280859,-0.03764713,0.4832826,0.874557,-9.300844,-37.69472,-23.34767,1006.976
32.403532028,-1.653453,0.5847659,0.4280859,-0.04882,0.4861451,0.8793928,-9.293682,-38.12584,-23.77609,1006.978
32.436308861,-0.659521,0.6438586,0.6113529,-0.05224697,0.497802,0.8789021,-9.294809,-38.0651,-23.77705,1006.978
32.469086170,-0.7837625,0.2302098,0.6724419,-0.04057087,0.4871378,0.8721513,-9.294809,-38.0651,-23.77705,1006.978
32.501863957,-0.348917,-0.06525365,-0.1217153,-0.04006179,0.4789227,0.8808271,-9.292229,-38.11395,-22.90587,1006.978
32.537162304,-0.2867963,0.4074878,-0.06062628,-0.04061453,0.5051444,0.8701988,-8.868926,-38.12685,-23.77664,1006.978
32.569939137,-4.511009,0.2302098,-0.3049823,-0.04785131,0.4866202,0.8765017,-8.868926,-38.12685,-23.77664,1006.979
32.602716446,-1.280729,-0.3607171,-0.4882494,-0.03810103,0.4701356,0.8755407,-8.868199,-38.12091,-23.34153,1006.981
32.635493278,-2.585265,-0.006160967,-0.4882494,-0.04151542,0.4784536,0.8851634,-8.876815,-37.70168,-23.78332,1006.981
32.668270588,-4.324646,-0.3607171,-0.6715164,-0.04735481,0.4817439,0.8750637,-8.876815,-37.70168,-23.78332,1006.983
32.703568935,-4.076163,-0.7152731,-0.8547835,-0.07065591,0.4806356,0.8837852,-9.658887,-38.06422,-23.77658,1006.984
32.736346245,-4.759492,-2.015312,-0.2438933,-0.04010009,0.4980238,0.8962019,-8.876815,-37.70168,-23.78332,1006.984
32.769124031,-8.54886,0.3483951,-0.8547835,-0.02644625,0.4732822,0.8938,-8.884302,-37.34319,-24.22416,1006.99
32.801900864,-3.76556,0.6438586,-0.9769616,-0.05068834,0.4579885,0.8948433,-8.884302,-37.34319,-24.22416,1006.986
32.837199211,-5.442821,-1.247107,-0.5493384,-0.06816921,0.4578359,0.8939223,-9.301571,-37.70066,-23.78278,1006.986
32.869976521,0.5207738,-2.84261,0.0004627327,-0.02599639,0.4899021,0.901957,-8.891064,-36.97875,-24.2299,1006.986
32.902753353,-3.889801,0.5847659,-0.1217153,-0.02895597,0.5063295,0.8865358,-8.891064,-36.97875,-24.2299,1006.986
32.935530663,-9.977637,-1.365293,1.222243,-0.07358975,0.4883736,0.8794482,-9.322581,-36.6133,-24.23508,1006.986
32.968307495,-8.61098,-1.542571,1.588777,-0.03464447,0.4473239,0.8827872,-8.89179,-36.98469,-24.66501,1006.986
33.003606319,-11.9655,-4.201742,1.40551,-0.09833041,0.4799445,0.8877028,-8.89179,-36.98469,-24.66501,1006.986
33.036383152,-19.66848,-7.68821,2.0164,-0.05413302,0.4789659,0.9039658,-9.680624,-36.9828,-24.66399,1006.988
33.069160938,-17.86698,0.8211366,0.4280859,-0.03898368,0.423018,0.8245894,-9.688735,-36.6294,-25.47779,1006.99
33.101938248,-32.46535,0.7620439,0.3059078,-0.0686608,0.469862,0.9430042,-9.688735,-36.6294,-25.47779,1006.994
33.137236595,-31.03658,-2.251683,0.3669968,0.0005133744,0.3729081,0.9251758,-9.689462,-36.63535,-25.9129,1006.992
33.170013428,-16.31396,-1.188015,2.199667,-0.0164808,0.3747981,0.9372474,-9.711199,-35.55392,-26.80031,1006.992
33.202790737,-18.48818,0.939322,3.054914,-0.04029342,0.3752992,0.8978314,-9.711199,-35.55392,-26.80031,1006.99
33.235567570,0.3965323,1.76662,5.070851,-0.07821862,0.3999487,0.916176,-9.726174,-34.83694,-27.68199,1006.99
33.268344879,14.99492,0.7029513,5.987186,-0.1004453,0.3575283,0.9360285,-9.36137,-34.83187,-27.24735,1006.992
33.303643227,28.53724,-1.010736,3.665804,-0.09910515,0.4107771,0.9576063,-9.36137,-34.83187,-27.24735,1006.993
33.336420536,19.21913,-0.4198098,-2.626365,-0.06079263,0.420963,0.905513,-10.09025,-34.83607,-27.68152,1006.993
33.369197846,23.3191,1.530249,-0.7326055,-0.01653917,0.4067194,0.975227,-9.724721,-34.82505,-26.81177,1006.993
33.401975155,70.65514,-1.897127,0.4891749,-0.08929153,0.3477989,0.8541852,-9.724721,-34.82505,-26.81177,1006.993
33.437273502,72.33239,-2.665332,-3.176166,-0.07399156,0.6447375,0.813267,-9.715779,-35.17166,-25.50071,1006.995
33.470050812,35.8675,-0.5970877,-1.526763,-0.1289167,0.4666248,0.830032,-10.06353,-35.87673,-23.81049,1006.995
33.502827644,81.21567,-4.556298,-6.474973,-0.1257833,0.5625119,0.7475671,-10.06353,-35.87673,-23.81049,1006.995
33.535604954,50.90073,-4.083556,-7.818932,-0.1117561,0.8011979,0.8059003,-10.01933,-38.03363,-21.60055,1006.995
33.568381786,61.39914,-5.856337,-4.947748,-0.1230278,0.6292689,0.7489041,-10.35919,-39.16389,-19.90364,1006.995
33.603680134,66.99001,-3.019888,-5.986261,-0.09762364,0.7748351,0.7799129,-9.256568,-39.50122,-17.72377,1006.993
33.636457443,59.90824,-4.497205,-15.39397,-0.09108853,0.6581485,0.661177,-9.256568,-39.50122,-17.72377,1006.993
33.669235229,65.31274,-9.638268,-26.20672,-0.1718489,0.7156479,0.6222916,-8.801237,-40.93112,-15.588,1006.993
33.702012062,108.0518,-9.401897,-41.54007,-0.03395414,0.9015561,0.5061575,-8.419277,-41.6252,-12.96634,1006.993
33.734789371,41.45837,25.40369,-88.39534,-0.3490646,1.07657,0.4185519,-8.419277,-41.6252,-12.96634,1006.992
33.770087719,58.97643,56.42735,-131.4631,-0.4073464,0.7602071,0.8697215,-7.309991,-42.32782,-10.84288,1006.992
33.802865028,89.105,96.13763,-185.5269,-0.480174,1.208752,1.094496,-2.553069,-43.40276,-8.656244,1006.992
33.835641861,25.24484,121.0747,-241.7288,-0.5867874,0.9485227,1.271319,-2.553069,-43.40276,-8.656244,1006.992
33.868419170,36.36446,97.91042,-234.4592,-0.5205485,0.6657948,0.2458062,4.430063,-43.37873,-5.681628,1006.992
33.903717518,49.96891,109.6699,-254.6796,-0.4605987,-0.05858325,-0.8984038,13.55564,-41.1852,-3.614433,1006.99
33.936494350,-78.68321,157.0622,-229.9386,-0.3398521,0.5849671,-0.03850401,13.55564,-41.1852,-3.614433,1006.99
33.969272137,33.32055,164.2124,-128.3476,-0.1942824,-0.08107583,0.5200529,22.277,-36.73069,-0.6497219,1006.988
34.002049446,44.68865,97.43768,-30.66622,0.09526461,1.221308,2.278706,29.46357,-31.22894,3.108777,1006.99
34.034826279,-15.00942,-7.806395,74.52907,0.3493147,-0.07519417,1.062693,29.46357,-31.22894,3.108777,1006.99
34.070124626,31.64328,86.91917,82.83717,-1.307995,0.7857255,0.1589226,31.30967,-29.00098,6.428545,1006.99
34.102901936,7.851026,81.18719,43.49584,-1.627227,1.309061,0.2989672,30.19275,-30.80256,7.764018,1006.99
34.135679245,-5.753424,38.16771,3.116003,-1.262714,0.5132511,0.07306208,30.19275,-30.80256,7.764018,1006.986
34.168456078,4.620746,8.562278,-6.902596,-0.8476412,0.5532318,0.07057325,29.14992,-33.33403,9.048714,1006.987
34.203754425,1.887431,1.707527,-14.05001,-0.8420023,0.6559162,0.1921896,28.42467,-33.30851,10.7901,1006.987
34.236531735,-3.330714,3.716678,-25.96237,-0.8841798,0.6156926,0.1316987,28.42467,-33.30851,10.7901,1006.987
34.269309521,-0.8458833,-2.488054,-31.39929,-0.9925423,0.6483772,0.1294997,28.43819,-34.03738,10.80156,1006.987
34.302086353,-9.294309,-6.1518,-35.98097,-0.9202878,0.2752427,0.1038971,29.87422,-32.94756,10.78249,1006.989
34.334863663,-11.46854,-6.447264,-34.88137,-0.9385739,0.6155786,0.110648,29.87422,-32.94756,10.78249,1006.989
34.370162010,-6.001907,-13.24292,-30.91058,-0.9034455,0.3432117,0.1225279,29.86673,-32.58907,10.34165,1006.991
34.402938843,-12.77307,-17.97034,-34.94246,-0.8923716,0.4075022,0.2494842,30.95075,-32.23913,9.464286,1006.991
34.435716152,-19.7306,-22.52047,-34.88137,-0.9443753,0.4037899,0.12831,30.95075,-32.23913,9.464286,1006.991
34.468493462,-10.22612,-31.67984,-37.26384,-0.9087126,0.3221029,0.1750406,31.70505,-30.42478,8.999507,1006.991
34.503791809,-12.71095,-40.30737,-35.43117,-1.072231,0.49533,0.2786601,32.78907,-30.07485,8.122144,1006.991
34.536568642,-27.55782,-42.78926,-39.64631,-0.97774,0.3723576,0.2709195,32.78907,-30.07485,8.122144,1006.991
34.569346428,6.981335,-45.21206,-42.08987,-0.9557317,0.5290588,0.3664222,34.22157,-29.0139,5.989675,1006.991
34.602123737,-62.15909,-38.77096,-47.09917,-0.8841819,0.02218105,0.229347,34.92528,-27.9563,3.485192,1006.993
34.634900570,-51.35007,-36.28907,-50.76451,-0.9785089,0.3073241,0.3749935,34.92528,-27.9563,3.485192,1006.991
34.670198917,-23.14724,-25.59329,-48.25986,-1.009574,0.31987,0.4655443,36.35124,-26.45914,2.154103,1006.991
34.702976227,-72.28477,-20.21586,-45.63303,-0.934608,-0.002353898,0.2636802,37.41217,-25.03882,-0.4187379,1006.989
34.735753059,-68.68177,-23.64323,-56.07925,-1.016823,0.3223767,0.5546097,38.10361,-23.24216,-2.188775,1006.989
34.768530369,-81.97562,-17.32032,-41.23462,-0.916274,-0.1217143,0.4467341,38.10361,-23.24216,-2.188775,1006.989
34.803828716,-41.84559,-19.97949,-35.00354,-0.9983421,0.3169241,0.5887508,39.16517,-21.81674,-4.388662,1006.989
34.836606026,-87.62861,-21.92955,-14.29437,-1.099181,-0.1870287,0.4491918,39.85744,-20.01329,-5.661428,1006.989
34.869383812,-47.99555,-41.43013,3.238181,-0.9175571,0.02998907,0.5519267,39.85744,-20.01329,-5.661428,1006.989
34.902160645,-80.04987,-30.61617,25.29132,-0.8666861,-0.3420971,0.492678,39.45592,-18.21995,-7.865167,1006.989
34.934937954,-29.48356,-32.62532,16.67776,-0.8167551,0.1242455,0.6078649,38.72424,-18.24707,-9.977627,1006.989
34.970236301,-32.77596,-20.09767,22.6034,-0.6673961,0.002728469,0.6033615,38.72424,-18.24707,-9.977627,1006.983
35.003013134,-8.238256,-16.31574,18.38826,-0.7179332,-0.2286165,0.3838478,37.62234,-17.9038,-11.72239,1006.985
35.035790443,11.45403,-7.629117,4.398871,-0.7603304,-0.1651886,0.3809645,37.27781,-19.00218,-12.13985,1006.985
35.068567276,14.74643,7.203146,14.60074,-0.8394194,-0.1341114,0.6728105,37.27781,-19.00218,-12.13985,1006.985
35.103865623,19.46761,4.780346,14.2342,-0.9818528,-0.2590489,0.7373577,36.9205,-19.36574,-12.13365,1006.985
35.136642933,31.89177,1.589342,15.76143,-0.8340182,-0.1452499,0.7455001,36.19983,-19.72249,-11.69186,1006.985
35.169420719,19.40549,9.92141,30.05626,-1.102387,-0.1890815,0.85836,36.19983,-19.72249,-11.69186,1006.985
35.202198029,36.4887,-23.82051,42.76277,-1.388431,-0.3452044,1.023418,35.84324,-20.08011,-11.25055,1006.983
35.234974861,118.7987,-66.18996,46.42812,-1.160759,-0.4987801,1.147301,35.13007,-20.79535,-10.36793,1006.979
35.270273209,349.0804,-128.9464,64.69374,-0.8358392,-0.4666463,0.4047033,35.13007,-20.79535,-10.36793,1006.979
35.303050518,382.9984,-175.275,88.57954,-0.2926054,0.8194629,-0.6228613,33.70829,-22.6081,-9.902288,1006.979
35.335827351,-156.2099,-103.182,1.40551,-0.463144,1.07961,0.5025749,31.21424,-25.09446,-5.569932,1006.979
35.368604660,-138.1328,-132.3738,-63.22667,-0.1543249,-0.2154398,0.1302575,31.21424,-25.09446,-5.569932,1006.977
35.403903008,135.0744,-73.93111,-64.81498,-0.3217306,-0.1721284,-0.4441566,28.64664,-27.68597,-8.945189,1006.977
35.436679840,160.1712,12.16693,-73.97833,-0.7063904,0.7536486,-0.06436376,29.69925,-25.91395,-12.45614,1006.977
35.469457626,66.30668,73.62332,-61.02747,-1.031919,0.6634933,0.1093531,29.69925,-25.91395,-12.45614,1006.977
35.502234936,146.194,59.91382,-24.37405,-1.041099,0.4444144,0.1332918,30.05416,-25.15029,-9.857402,1006.977
35.535011768,50.03104,82.36904,-5.43646,-0.9422039,0.7634829,0.3727758,32.28619,-24.00377,-5.588531,1006.977
35.570310593,-19.10939,66.88676,19.30459,-1.171824,0.1977307,0.7462657,33.3991,-24.67667,-1.289523,1006.977
35.603087425,134.4532,15.88977,35.49318,-0.9075367,0.4076736,1.063021,33.3991,-24.67667,-1.289523,1006.977
35.635864735,182.0377,11.75328,30.17844,-1.093721,0.4224977,0.6870157,32.67521,-24.64011,1.259928,1006.977
35.668641567,370.3257,-38.94824,51.00979,-1.111214,0.6272166,0.6612363,31.96691,-25.31544,5.064015,1006.977
35.703939915,398.6528,-26.24331,94.62736,-0.8338261,1.513923,0.229386,31.96691,-25.31544,5.064015,1006.977
35.736717224,233.5979,29.77655,119.063,-0.6468434,1.694891,0.1843845,31.60686,-24.86183,11.52327,1006.975
35.769494057,129.7941,55.95461,154.3113,-0.5788593,1.399531,-0.2784016,30.06894,-22.93071,19.20427,1006.978
35.802271843,232.2934,59.67745,201.3499,-0.5792927,1.178607,-0.2501486,30.06894,-22.93071,19.20427,1006.978
35.835049152,238.5676,101.1605,202.816,-0.1751608,1.253842,-0.6329404,26.07125,-22.86252,23.4984,1006.978
35.870347500,82.45808,151.862,202.9993,-0.1698214,1.410426,-0.88446,20.54586,-22.0389,29.46131,1006.974
35.903124809,33.32055,158.0077,203.2436,0.01437459,0.9377435,-0.8620418,20.54586,-22.0389,29.46131,1006.973
35.935901642,9.217683,184.0676,184.1839,0.148757,0.9834612,-0.8927552,12.8789,-20.51612,32.86699,1006.965
35.968678951,-122.6647,201.1453,174.4707,0.192668,1.110852,-0.8362507,4.816003,-20.85528,33.31825,1006.962
36.001455784,-179.9401,188.9722,169.7057,0.2511095,0.4741047,-0.5827146,4.816003,-20.85528,33.31825,1006.962
36.036754131,-72.9681,163.1487,153.7615,0.2783021,0.7051765,-0.4444952,-3.947676,-23.06751,29.94525,1006.958
36.069531441,-112.9739,166.7534,133.9687,0.2777506,0.5748482,-0.2050607,-11.59488,-26.76304,24.91547,1006.959
36.102309227,-74.70748,137.0889,104.4016,0.1865363,0.6025054,0.09981595,-11.59488,-26.76304,24.91547,1006.949
36.135086060,-94.39977,122.3748,75.32323,0.1726224,0.5267146,0.07348828,-17.7714,-27.97273,19.78243,1006.944
36.170384407,-131.1132,95.72398,31.46131,0.1900874,0.5463198,0.1403266,-22.92353,-28.75378,15.07647,1006.944
36.203161717,-90.98313,105.3561,1.100065,0.194769,0.2057366,0.1143539,-22.92353,-28.75378,15.07647,1006.945
36.235939026,-111.2345,93.12391,-10.69011,-0.2826427,0.3179165,0.5013693,-25.46862,-29.55891,9.061817,1006.939
36.268715859,-77.37868,55.95461,-7.452397,0.2103995,0.2078197,0.3251501,-26.17887,-31.08963,3.615701,1006.935
36.301493168,-32.34111,54.18183,-28.77246,0.3058893,0.4868413,0.3427949,-26.17887,-31.08963,3.615701,1006.934
36.336791515,-40.78954,48.92258,-38.36344,0.1847657,0.4167899,0.5703905,-26.52098,-32.58812,0.5933096,1006.934
36.369568348,7.540422,29.18562,-35.00354,0.2521623,0.6673691,0.5939211,-25.79105,-32.99506,-2.385523,1006.93
36.402345657,5.80104,21.03083,-39.7074,0.4460931,0.561319,0.448731,-25.79105,-32.99506,-2.385523,1006.928
