Time (s),Gyroscope X (deg/s),Gyroscope Y (deg/s),Gyroscope Z (deg/s),Accelerometer X (g),Accelerometer Y (g),Accelerometer Z (g),Magnetometer X (uT),Magnetometer Y (uT),Magnetometer Z (uT),Barometer (hPa)
0.000000000,0.1799283,0.2379312,-0.1520649,-0.005108505,-0.0459359,-1.003766,2.87568,-43.24361,34.40374,1008.74
0.034765244,0.1799283,-0.1142855,0.09169793,-0.00366592,-0.04303309,-1.005203,2.524227,-42.86947,34.84037,1008.738
0.067047119,0.4897966,0.003120087,0.2135793,-0.002685761,-0.04737422,-1.001846,2.524227,-42.86947,34.84037,1008.738
0.101808071,0.241902,0.2379312,0.1526386,-0.001234105,-0.04932053,-1.006211,2.899651,-43.23234,35.2752,1008.738
0.134089947,-0.06796633,0.1205256,0.03075722,-0.002213473,-0.04497613,-1.008601,2.898989,-42.86782,35.27058,1008.736
0.168855190,-0.1919137,0.2379312,0.1526386,-0.001721708,-0.04591803,-1.001356,2.898989,-42.86782,35.27058,1008.736
0.201137066,-0.06796633,0.06182286,0.03075722,-0.001712594,-0.0502783,-1.002831,2.173436,-42.85985,35.28161,1008.74
0.233418941,-0.005992673,-0.1729883,0.03075722,-0.008969608,-0.04884889,-1.003291,2.898989,-42.86782,35.27058,1008.74
0.268184185,-0.005992673,0.1205256,-0.03018348,-0.004628913,-0.0459509,-1.008602,2.898989,-42.86782,35.27058,1008.739
0.300461769,0.1799283,0.1792284,0.03075722,-0.008500274,-0.04401969,-1.006649,2.512903,-43.23962,34.40926,1008.739
0.335227012,0.05598098,0.296634,0.09169793,-0.00124915,-0.04498483,-1.011988,2.887665,-43.23798,34.83947,1008.739
0.367508888,-0.005992673,0.1205256,0.03075722,-0.006557997,-0.04642398,-1.003766,2.887665,-43.23798,34.83947,1008.739
0.402274132,0.05598098,0.1205256,0.03075722,-0.002697289,-0.04351262,-1.004725,2.174758,-43.58888,35.29084,1008.739
0.434556007,-0.005992673,0.003120087,-0.09112419,-0.006560016,-0.04692101,-1.007636,2.887665,-43.23798,34.83947,1008.737
0.466837883,0.05598098,0.003120087,-0.1520649,0.00117403,-0.04593267,-1.008131,2.887665,-43.23798,34.83947,1008.737
0.501598835,-0.2538873,0.1792284,0.3354608,0.0002120796,-0.04591414,-1.001844,2.536212,-42.86383,35.2761,1008.737
0.533880710,-0.1298546,-0.1728447,0.0306612,-0.008978098,-0.04644071,-1.006661,2.51158,-42.51059,34.40002,1008.737
0.568645954,0.3032287,-0.0554904,0.1521403,-0.01139926,-0.04499584,-1.006648,2.536212,-42.86383,35.2761,1008.735
0.600927830,0.05448683,0.003143996,0.09088526,-0.003654392,-0.04689469,-1.002324,2.536212,-42.86383,35.2761,1008.737
0.635693073,-0.00766718,0.06131747,0.02977497,-0.004149154,-0.04401053,-1.007625,2.887004,-42.87346,34.83485,1008.739
0.667974949,-0.1930709,0.4715268,0.09067074,0.0002200069,-0.05027933,-1.004769,2.162112,-43.23,34.8505,1008.739
0.700256824,-0.1302519,0.176993,-0.03144642,-0.0002706334,-0.0454234,-0.9994228,2.162112,-43.23,34.8505,1008.739
0.735017776,0.05608497,0.0006236285,0.09017165,-0.004152108,-0.04157942,-1.004227,3.238457,-43.2476,34.39823,1008.737
0.767299652,0.1175579,0.1180449,0.02880612,-0.002697996,-0.04253821,-1.002785,2.524889,-43.23399,34.84498,1008.737
0.802064896,-0.1304836,-0.05767956,-0.1540851,-0.008987732,-0.04354861,-1.010029,2.524889,-43.23399,34.84498,1008.735
0.834346771,-0.06805573,0.00162667,0.1506349,-0.00464119,-0.04160373,-1.010994,2.876342,-43.60813,34.40836,1008.735
0.866628647,-0.06777832,0.001527883,0.02863607,-0.007044665,-0.04594962,-1.006179,3.263089,-43.60085,35.2743,1008.735
0.901393890,0.3652267,0.05970869,-0.09337114,-0.005587785,-0.04689695,-1.001354,3.263089,-43.60085,35.2743,1008.734
0.933671474,0.2403737,-0.05795856,-0.1545047,-0.005108151,-0.0464231,-1.004736,2.887665,-43.23798,34.83947,1008.734
0.968436718,0.05343667,0.1761497,0.02802094,-0.0002735687,-0.04739024,-1.008619,2.886343,-42.50895,34.83023,1008.732
1.000719070,0.115251,0.1759655,0.08903873,-0.003170265,-0.04933425,-1.008624,2.886343,-42.50895,34.83023,1008.732
1.035483837,-0.008502733,-0.0005837381,0.2108161,-0.004142953,-0.04545084,-1.004249,2.887665,-43.23798,34.83947,1008.732
1.067766190,-0.07048045,-0.05919173,0.02766988,-0.004142558,-0.04544921,-1.003766,3.249781,-42.87745,34.82934,1008.732
1.100048065,-0.1318945,-0.0004318208,0.02753792,-0.007045372,-0.04497521,-1.00424,3.249781,-42.87745,34.82934,1008.734
1.134809017,-0.1315097,-0.0590407,-0.03342795,-0.009933351,-0.05128113,-1.006204,2.899651,-43.23234,35.2752,1008.734
1.167090893,0.1164156,-0.1175395,0.1492438,-0.002698913,-0.04400802,-1.008111,2.52555,-43.5985,34.8496,1008.735
1.201856136,0.3015925,0.1759566,0.2100452,-0.008486895,-0.04933963,-1.005712,2.52555,-43.5985,34.8496,1008.735
1.234138012,0.238778,0.117052,0.08778528,-0.006567985,-0.04304466,-1.006164,2.536212,-42.86383,35.2761,1008.735
1.268903255,0.1139383,0.3514599,0.08745722,-0.004137855,-0.04591839,-0.9994172,2.536212,-42.86383,35.2761,1008.734
1.301185131,-0.1339734,0.05739716,0.08746412,-0.002202611,-0.04737448,-1.00233,2.536212,-42.86383,35.2761,1008.734
1.333462715,0.05224103,0.05731053,-0.03467843,-0.003653062,-0.0498212,-1.009109,2.537536,-43.59287,35.28533,1008.734
1.368227959,-0.1333458,-0.001477879,0.2090073,-0.00463116,-0.0444942,-1.007143,2.524889,-43.23399,34.84498,1008.734
1.400509834,0.1149952,0.1746918,-0.03484313,-0.009952764,-0.0425655,-1.004704,2.537536,-43.59287,35.28533,1008.732
1.435275078,-0.008912813,-0.06014978,-0.03503411,-0.002200843,-0.0498105,-1.007179,2.537536,-43.59287,35.28533,1008.732
1.467556953,0.05296096,-0.001441166,0.2084704,-0.005594735,-0.04497106,-1.004243,2.174097,-43.22437,35.28623,1008.736
1.502322197,0.2381831,0.1161366,0.2081098,-0.00462421,-0.04642008,-1.004254,2.174097,-43.22437,35.28623,1008.73
1.534599781,0.1135177,0.233492,0.08616367,-0.00318893,-0.04110419,-1.00761,2.174097,-43.22437,35.28623,1008.73
1.566881657,-0.2584368,0.2327426,0.08600356,-0.005591218,-0.04544516,-1.001345,2.536874,-43.22835,35.28071,1008.734
1.601646900,-0.1342686,0.1144813,0.268563,-0.0007543046,-0.04689132,-1.003781,3.249781,-42.87745,34.82934,1008.734
1.633928776,-0.1341876,0.1728831,-0.03624146,0.0006963744,-0.04639832,-1.002331,3.249781,-42.87745,34.82934,1008.734
1.668694019,-0.1337151,-0.06184001,0.08562683,-0.00317709,-0.04594184,-1.007154,3.262427,-43.23633,35.26968,1008.736
1.700975895,-0.2570393,-0.06168013,-0.09718113,-0.002685803,-0.04786307,-1.003299,3.262427,-43.23633,35.26968,1008.736
1.733253479,-0.256361,-0.1197632,-0.09730104,-0.003669707,-0.0410941,-1.004225,3.262427,-43.23633,35.26968,1008.736
1.768018722,0.424939,-0.1779589,0.08535568,-0.01043648,-0.04452226,-1.010515,2.512903,-43.23962,34.40926,1008.734
1.800300598,0.1758953,0.05658339,0.02420076,-0.005112813,-0.04546507,-1.007631,2.888988,-43.96701,34.8487,1008.732
1.835065842,0.1748317,0.1739616,0.08486326,-0.001730905,-0.04253545,-1.002787,2.888988,-43.96701,34.8487,1008.734
1.867347717,-0.1352436,0.1736206,0.08463196,-0.003169474,-0.04933097,-1.007657,2.887665,-43.23798,34.83947,1008.734
1.902112961,0.1125644,0.05595006,0.0234917,0.001653478,-0.04301625,-1.004731,2.887665,-43.23798,34.83947,1008.732
1.934390545,0.05003466,-0.002778269,0.02328129,-0.00268264,-0.04784996,-0.9994314,2.887665,-43.23798,34.83947,1008.731
1.966672897,0.05010273,-0.1785254,-0.09869494,-0.006075637,-0.04642751,-1.005217,2.887665,-43.23798,34.83947,1008.732
2.001437664,-0.1355522,-0.2952576,0.1449279,-0.003660198,-0.04545274,-1.005217,2.536874,-43.22835,35.28071,1008.732
2.033720016,-0.1970702,-0.1773115,0.2056217,-0.003657993,-0.04739828,-1.008129,2.536874,-43.22835,35.28071,1008.732
2.068485260,0.1748781,-0.0009036213,0.08348749,-0.007043874,-0.04594634,-1.005213,2.536874,-43.22835,35.28071,1008.732
2.100767136,0.1741068,0.2927245,-0.09952209,-0.01042799,-0.04693043,-1.007144,2.536212,-42.86383,35.2761,1008.734
2.135528088,-0.01263626,0.05793507,0.08295334,-0.003178732,-0.04203929,-0.9979469,2.536212,-42.86383,35.2761,1008.736
2.167809963,0.1730836,-0.0009855293,0.08248132,-0.004623898,-0.04739613,-1.006676,2.887665,-43.23798,34.83947,1008.736
2.200091839,-0.01329019,0.1165343,0.1432196,-0.002691172,-0.04593062,-1.004255,2.887665,-43.23798,34.83947,1008.736
2.234857082,0.04883878,-0.1183833,0.0212254,-0.004624647,-0.04691057,-1.00619,2.16145,-42.86548,34.84588,1008.736
2.267138958,0.110691,0.05804184,-0.04014617,-0.004623503,-0.0473945,-1.006193,2.16145,-42.86548,34.84588,1008.736
2.301904201,-0.3225219,-0.235101,0.02077966,-0.005597545,-0.04547137,-1.00908,2.900312,-43.59686,35.27981,1008.736
2.334181785,-0.5069724,0.4681911,0.08192229,-0.007044311,-0.04643682,-1.007149,2.536874,-43.22835,35.28071,1008.736
2.368947029,-0.4424042,0.2312699,-0.03972641,-0.003648628,-0.04882549,-1.000885,2.536874,-43.22835,35.28071,1008.736
2.401228905,0.488012,-0.1796527,0.08233588,-0.009949767,-0.04450777,-1.006648,2.524889,-43.23399,34.84498,1008.736
2.433510780,0.9192551,-0.3543289,0.1428454,-0.008021037,-0.04354748,-1.010514,2.513565,-43.60414,34.41387,1008.736
2.468276024,-0.0750552,-0.05977532,0.2029869,-0.00897608,-0.04594368,-1.002791,2.513565,-43.60414,34.41387,1008.736
2.500557899,-0.8170528,0.5265568,-0.04106832,-0.001251583,-0.04108556,-1.003747,2.887004,-42.87346,34.83485,1008.736
2.535318851,-0.8129224,0.2312471,0.08070702,-0.005112999,-0.0430225,-1.000849,2.524889,-43.23399,34.84498,1008.738
2.567600727,0.2420572,-0.2391149,0.01983855,-0.003175341,-0.04397991,-0.9994083,2.524889,-43.23399,34.84498,1008.738
2.599882603,1.168575,-0.3550667,0.01989153,-0.007526898,-0.04447956,-1.000369,2.52555,-43.5985,34.8496,1008.738
2.634647846,0.2352028,-0.1776399,0.01991875,-0.0007714939,-0.04451917,-1.017787,2.911636,-43.22671,35.71092,1008.738
2.666929722,-0.2607089,0.8188398,0.01964658,-0.001259845,-0.04063111,-1.012446,2.911636,-43.22671,35.71092,1008.738
2.701694965,-1.186759,1.518187,-0.04149491,0.009877045,-0.04151312,-0.9965218,2.87568,-43.24361,34.40374,1008.739
2.733972549,-0.6862873,-0.1292473,-0.1021518,-0.0007435863,-0.04635824,-0.9892748,2.888988,-43.96701,34.8487,1008.739
2.768737793,0.4296065,-1.826825,-0.1019138,-0.008971273,-0.04983313,-1.008131,2.888988,-43.96701,34.8487,1008.739
2.801019669,0.8599992,-1.525865,0.08075021,-0.01287381,-0.0426557,-1.02887,2.900312,-43.59686,35.27981,1008.741
2.833301544,0.7938982,-0.1721331,0.2019775,-0.0123938,-0.03778227,-1.019174,2.549521,-43.58723,35.72105,1008.739
2.868066788,-0.01394108,0.8821416,0.3228194,-0.01187267,-0.04202322,-0.9858422,2.549521,-43.58723,35.72105,1008.741
2.900349140,-0.5706551,0.9952517,0.2002145,-0.006052373,-0.0517065,-0.9921945,2.52555,-43.5985,34.8496,1008.741
2.935109615,-0.445544,0.7571956,-0.1050808,-0.001220247,-0.05366115,-1.001885,2.877003,-43.97264,34.41298,1008.743
2.967391968,-0.1965138,-0.1831281,-0.3486826,0.01085718,-0.05074103,-1.007212,2.877003,-43.97264,34.41298,1008.742
3.002157211,-0.319715,-0.006529029,0.1398574,0.007452653,-0.04545698,-1.015877,2.887004,-42.87346,34.83485,1008.742
3.034439087,0.05319664,-0.4166299,-0.04242635,-0.0002864272,-0.04060214,-1.004713,3.251765,-43.97099,34.84319,1008.742
3.066720963,0.795885,-0.8254268,0.261972,-0.01236984,-0.03963772,-0.9954963,3.251765,-43.97099,34.84319,1008.742
3.101486206,2.400323,-0.9970281,0.3827225,-0.02734135,-0.05084369,-1.005197,2.888327,-43.60249,34.84408,1008.74
3.133763790,2.456187,0.3547364,0.2598472,0.004573998,-0.05367896,-1.01205,2.524889,-43.23399,34.84498,1008.74
3.168529034,-0.3946016,0.5308447,-0.2276785,-0.007021693,-0.05465051,-1.003328,2.899651,-43.23234,35.2752,1008.738
3.200810909,-3.24539,0.5895475,-0.4105006,-0.01720383,-0.04550947,-1.010506,2.899651,-43.23234,35.2752,1008.738
3.235576153,-2.439732,0.5308447,-0.5933227,-0.01576247,-0.04310042,-1.014846,2.887665,-43.23798,34.83947,1008.738
3.267858028,0.7828979,0.2960336,-0.2886192,-0.004641064,-0.04013721,-1.006635,2.162112,-43.23,34.8505,1008.736
3.300139904,2.828029,0.472142,0.1989065,0.01325593,-0.04152801,-1.003781,2.162112,-43.23,34.8505,1008.738
3.334900856,2.456187,0.1199253,0.5645507,0.01277657,-0.04346674,-1.004274,2.887665,-43.23798,34.83947,1008.736
3.367182731,0.411056,0.2960336,0.5645507,0.01183826,-0.05361235,-0.9985286,2.899651,-43.23234,35.2752,1008.736
3.401947975,-1.696048,-0.5845081,0.1379658,0.001704916,-0.06088393,-0.9937137,2.899651,-43.23234,35.2752,1008.736
3.434229851,-1.758022,-1.288941,-0.04485636,-0.00605816,-0.05466248,-1.007681,2.887665,-43.23798,34.83947,1008.736
3.466511726,-2.687627,-0.5845081,-0.3495599,-0.009966478,-0.0411563,-1.017265,1.799335,-43.22601,34.85601,1008.735
3.501276970,-2.501706,-0.2322914,-0.4714413,-0.005145647,-0.03191835,-1.008521,1.799335,-43.22601,34.85601,1008.735
3.533554554,-1.881969,-0.1148858,0.07702505,-0.01239421,-0.03338596,-1.007063,2.536874,-43.22835,35.28071,1008.733
3.568319797,-0.8903909,-0.05618304,0.07702505,-0.01670604,-0.04544911,-0.9931028,2.524889,-43.23399,34.84498,1008.733
3.600601673,0.6589506,0.6482503,0.2598472,-0.01140885,-0.0416149,-1.008562,2.524889,-43.23399,34.84498,1008.733
3.635366917,2.518161,0.3547364,0.07702505,-0.008006783,-0.04788646,-1.005705,2.538197,-43.95738,35.28994,1008.733
3.667648792,2.580134,-0.1148858,0.1379658,-0.00222134,-0.04452005,-1.016817,3.613881,-43.61047,34.83305,1008.733
3.699930668,2.518161,0.2960336,0.2598472,0.005031617,-0.04254558,-1.011504,3.613881,-43.61047,34.83305,1008.731
3.734691620,1.774477,0.1786281,0.1379658,-0.002191851,-0.04635256,-0.986371,2.899651,-43.23234,35.2752,1008.731
3.766974449,0.4730297,0.002519742,-0.04485636,0.005075733,-0.05360222,-0.989812,3.262427,-43.23633,35.26968,1008.731
3.801739216,-1.448154,-0.3496969,-0.3495599,0.003131748,-0.05267102,-0.9989879,3.262427,-43.23633,35.26968,1008.733
3.834021091,-1.572101,-0.9954275,0.07702505,-0.004640567,-0.04355583,-1.01584,2.537536,-43.59287,35.28533,1008.733
3.868786335,-1.200259,-0.5845081,0.1379658,-0.0002924422,-0.0416044,-1.014871,2.910975,-42.86219,35.70631,1008.739
3.901068211,2.580134,0.1786281,0.7473729,-0.01093661,-0.03970565,-1.016771,2.910975,-42.86219,35.70631,1008.737
3.933346271,6.174606,0.706953,0.6864321,-0.02541012,-0.04840706,-1.001803,2.888327,-43.60249,34.84408,1008.737
3.968111038,9.211315,1.05917,0.4426693,-0.03611013,-0.02474954,-1.008897,2.900312,-43.59686,35.27981,1008.737
4.000392914,0.9068453,1.293981,0.1379658,0.01421846,-0.04398748,-1.016366,2.900312,-43.59686,35.27981,1008.735
4.035158157,-0.0847333,0.2960336,-0.2886192,-0.0002479313,-0.0526594,-0.9926959,3.263089,-43.60085,35.2743,1008.734
4.067440033,4.811186,-0.878022,-0.04485636,-0.01035083,-0.07837431,-1.003939,2.536212,-42.86383,35.2761,1008.734
4.102205277,2.022371,0.1199253,-0.2276785,0.006078966,-0.0700645,-0.9932919,2.87568,-43.24361,34.40374,1008.734
4.134482861,4.253423,-0.4671025,-0.2276785,-0.01139704,-0.05133933,-1.022154,2.87568,-43.24361,34.40374,1008.734
4.166764736,4.625265,0.472142,-0.04485636,-0.006551028,-0.05274781,-1.013471,2.887004,-42.87346,34.83485,1008.734
4.201529980,4.873159,1.293981,0.3207878,-0.00505328,-0.06574257,-0.9937267,2.535551,-42.49932,35.27148,1008.734
4.233811855,3.199871,-0.9954275,0.2598472,-0.01324809,-0.08227533,-1.01024,2.535551,-42.49932,35.27148,1008.735
4.268577099,6.980264,0.5308447,0.1379658,-0.007939035,-0.07839197,-1.011196,2.909652,-42.13316,35.69707,1008.735
4.300858974,4.191449,1.939711,0.1989065,0.01529294,-0.08703142,-1.009845,2.160789,-42.50097,34.84127,1008.735
4.335619926,-0.02275964,0.8830614,-0.4714413,-0.009374562,-0.0773562,-0.9899159,2.160789,-42.50097,34.84127,1008.735
4.367901802,0.8448716,0.002519742,-0.4105006,-0.01276275,-0.07982319,-1.001042,2.510919,-42.14607,34.39541,1008.735
4.400183678,1.092766,-0.2322914,-0.4105006,-0.006017109,-0.07843722,-1.026187,2.898328,-42.50331,35.26596,1008.734
4.434948921,2.146318,0.9417642,0.01608434,0.002207726,-0.07595149,-1.013621,2.898328,-42.50331,35.26596,1008.734
4.467230797,4.563291,1.235278,0.2598472,-0.0069425,-0.08999531,-1.008847,2.522904,-42.14044,34.83113,1008.732
4.501996040,7.538027,1.763603,0.1989065,-0.002638282,-0.07454302,-1.022305,2.522243,-41.77592,34.82652,1008.732
4.534273624,12.00013,2.820253,1.113017,-0.002133057,-0.08911192,-1.037859,2.522243,-41.77592,34.82652,1008.732
4.566556454,10.82263,3.700795,1.052076,0.0003255021,-0.09235654,-0.9977573,2.500257,-42.88074,33.96891,1008.73
4.601321697,10.45079,4.405228,0.8692542,0.005673427,-0.1054156,-1.00026,2.159466,-41.77194,34.83204,1008.728
4.633603096,9.273289,3.055064,0.3207878,0.01685133,-0.1212764,-0.9776527,2.159466,-41.77194,34.83204,1008.728
4.668368339,9.831052,1.822306,0.930195,0.00134124,-0.1151197,-1.004174,2.146158,-41.04854,34.38708,1008.727
4.700650215,10.26487,0.4134392,0.930195,0.02262583,-0.1164894,-0.9979426,2.145496,-40.68402,34.38246,1008.728
4.735411644,7.476053,0.2960336,1.722424,0.007661667,-0.1296196,-1.00427,2.145496,-40.68402,34.38246,1008.73
4.767693520,6.112633,-0.8193192,2.149009,0.019295,-0.1367995,-0.9907992,1.771396,-41.05018,33.95687,1008.73
4.799974918,6.174606,-1.641158,1.722424,0.01398108,-0.1328843,-0.9733616,2.132188,-39.96062,33.9375,1008.73
4.834740162,7.352106,-1.758564,1.539602,0.0173712,-0.1401827,-0.9879136,2.132188,-39.96062,33.9375,1008.73
4.867022037,1.402635,-3.754458,0.8692542,0.03237427,-0.143506,-0.9816801,2.508273,-40.68801,34.37695,1008.73
4.901787281,-1.014338,-4.458891,0.8692542,-0.02952277,-0.1485829,-0.9994629,2.507611,-40.32349,34.37233,1008.73
4.934065342,-1.324206,-6.572192,1.783365,-0.004868763,-0.1544047,-1.024688,2.507611,-40.32349,34.37233,1008.73
4.968830109,-6.406047,-9.742141,0.9911357,0.0309202,-0.1420584,-0.9816688,2.531582,-40.31223,35.24379,1008.73
5.001111984,-14.95841,-9.624735,0.1379658,-0.02424583,-0.1228425,-0.9766062,2.531582,-40.31223,35.24379,1008.732
5.033393860,-9.256836,-10.68139,1.35678,-0.0237764,-0.1214335,-0.989652,2.531582,-40.31223,35.24379,1008.732
5.068159103,-13.96683,-13.55782,1.722424,-0.02234372,-0.1141737,-0.9905808,2.907006,-40.6751,35.67861,1008.73
5.100440979,-16.25986,-13.32301,0.9911357,-0.01509619,-0.1156424,-1.001724,2.532905,-41.04126,35.25302,1008.73
5.135202408,-20.47407,-12.44247,0.6864321,-0.02773417,-0.09005148,-1.007836,2.90899,-41.76865,35.69246,1008.73
5.202249050,-12.41749,-12.55987,1.113017,-0.05820729,-0.08382621,-1.00145,3.987981,-43.2443,35.25865,1008.73
5.234530926,-9.070914,-12.32506,1.234898,-0.05194523,-0.07364573,-1.001406,4.000628,-43.60319,35.69899,1008.728
5.266813755,-8.079336,-11.79674,1.661483,-0.04327467,-0.06056461,-1.004251,4.000628,-43.60319,35.69899,1008.728
5.301578045,-2.687627,-10.62268,1.35678,-0.07857832,-0.05677608,-0.9988352,3.664468,-45.04599,36.59443,1008.728
5.333856582,-7.397625,-8.861599,1.295839,-0.07998864,-0.07078467,-0.9902098,3.653144,-45.41615,36.16331,1008.728
5.368621826,-8.761046,-9.683438,1.417721,-0.0896758,-0.06648152,-0.9974162,3.653144,-45.41615,36.16331,1008.73
5.400903702,-14.33868,-9.09641,1.113017,-0.1051607,-0.05728854,-0.9847609,4.392006,-46.14752,36.59724,1008.728
5.433185577,-5.1046,-4.224081,2.697475,-0.1569981,-0.0290108,-1.021713,3.667114,-46.50406,36.61289,1008.728
5.467950344,-5.042626,0.3547364,10.01036,-0.2148516,-0.1403698,-1.132446,3.667114,-46.50406,36.61289,1008.728
5.500232220,-23.63473,-8.03976,11.04635,-0.2111163,-0.07298456,-1.100164,4.769415,-47.60394,37.04591,1008.727
5.534993648,-70.053,-17.02129,10.43694,-0.2421921,-0.03207015,-1.138539,4.818679,-48.31043,38.79806,1008.728
5.567275524,-86.97181,-24.53524,-3.091892,-0.3550093,-0.005652626,-1.244502,4.818679,-48.31043,38.79806,1008.732
5.602040768,-82.32378,-47.78154,-21.49599,-0.2664438,-0.1936614,-1.106532,7.409366,-50.13839,40.52544,1008.731
5.634322166,-67.01629,-31.69698,-25.45713,-0.09759738,-0.2343473,-1.117279,8.840472,-52.3527,39.65961,1008.731
5.666604042,-22.70512,-18.72367,-44.40969,-0.1342327,-0.2545038,-1.036581,8.840472,-52.3527,39.65961,1008.729
5.701369286,27.80341,-5.750353,-43.61746,-0.2715906,-0.2188629,-0.9703344,9.536023,-55.65823,38.38295,1008.729
5.733647346,27.05973,-8.568085,-47.94425,-0.3764034,-0.06284112,-0.9658372,9.502051,-56.76868,37.08961,1008.729
5.768412590,-0.02275964,-11.38582,-50.68658,-0.2487119,-0.060375,-0.9172711,9.502051,-56.76868,37.08961,1008.727
5.800694466,-41.60708,-5.69165,-58.91358,-0.2510503,-0.06982625,-0.8481881,9.140597,-57.49372,37.10436,1008.727
5.835459232,-42.72261,-5.750353,-60.4371,-0.3095472,-0.1046391,-0.9328618,9.469403,-58.60816,35.80551,1008.727
5.867741108,-42.41274,-0.1735886,-66.95776,-0.2581858,-0.1128511,-0.8290799,9.469403,-58.60816,35.80551,1008.727
5.900022984,-49.72563,2.11582,-71.83301,-0.3079619,-0.1099409,-0.7849631,10.2129,-61.89115,36.27175,1008.727
5.934784412,-55.79905,-2.169483,-81.46164,-0.3813706,-0.1092887,-0.6731269,11.2599,-65.57081,34.55845,1008.724
5.967066288,-53.01023,-14.02744,-89.44488,-0.4321618,-0.07139584,-0.5867499,11.2685,-70.30951,34.61846,1008.726
6.001831055,-41.48314,-25.768,-95.23424,-0.5425151,0.0006662377,-0.5058514,11.2685,-70.30951,34.61846,1008.726
6.034113884,-31.07156,-41.79386,-90.29804,-0.5582153,0.1184296,-0.442301,13.43574,-78.36406,33.81546,1008.724
6.068878174,-28.03485,-56.88047,-82.98516,-0.6160678,0.258204,-0.4167262,15.25153,-86.04447,33.44909,1008.724
6.101160526,-65.46695,-68.0927,-88.40888,-0.6567798,0.2943481,-0.4265851,15.25153,-86.04447,33.44909,1008.722
6.133438587,-104.4484,-82.18137,-94.80766,-0.6814076,0.287573,-0.4057827,18.55306,-92.9949,34.35861,1008.722
6.168203831,-99.49049,-84.17726,-94.19825,-0.719718,0.3417375,-0.3836374,19.26854,-100.669,33.57306,1008.722
6.200485706,-81.20826,-92.39565,-92.49191,-0.8092957,0.3874009,-0.3991382,19.26854,-100.669,33.57306,1008.72
6.235250950,-78.97721,-100.027,-91.02934,-0.7992929,0.4723189,-0.339214,23.98588,-108.0168,33.15795,1008.719
6.267532825,-74.08129,-105.2516,-86.9463,-0.8247476,0.5970383,-0.3568206,25.10282,-110.5691,34.04517,1008.72
6.299814224,-66.39655,-109.0672,-89.62769,-0.7853459,0.6889671,-0.395058,25.10282,-110.5691,34.04517,1008.72
6.334575653,-74.26721,-113.1177,-90.48087,-0.8177938,0.7331347,-0.3289892,26.15254,-109.1399,32.70297,1008.72
6.366857529,-80.96037,-116.6986,-92.97944,-0.8966258,0.7177029,-0.3893369,27.16103,-104.8115,30.01667,1008.722
6.401622772,-53.568,-124.5061,-101.2064,-1.011517,0.6546434,-0.3362696,27.16103,-104.8115,30.01667,1008.726
6.433904648,-21.96144,-130.6112,-104.1316,-1.221779,0.602088,-0.3873598,29.58532,-100.8804,26.00575,1008.727
6.468669414,47.69696,-130.2589,-120.4637,-1.1589,0.3746708,-0.4327813,31.6475,-97.30991,22.00496,1008.731
6.500951290,178.7093,14.79562,-69.76102,-1.320873,0.6506688,-1.96288,31.6475,-97.30991,22.00496,1008.731
6.533229351,289.1464,-69.32546,-12.05017,-1.839646,1.141034,-1.050109,38.12624,-95.58167,20.13969,1008.732
6.567994594,88.78549,-23.94822,-37.03587,-1.363101,0.9372712,-0.7482118,55.51843,-77.54168,20.07988,1008.734
6.600276470,-121.6771,-3.871864,-18.63177,-1.162142,0.7514355,-0.3494143,55.51843,-77.54168,20.07988,1008.738
6.635041237,-192.451,3.17247,-1.568374,-0.8998454,0.2991931,-0.219122,54.83289,-73.13699,21.77843,1008.738
6.667323112,-180.1802,12.2127,29.0848,-0.7112235,0.1010524,-0.1568412,55.46652,-75.37713,18.30928,1008.738
6.702088356,-168.7151,-1.230239,36.51957,-0.6795475,-0.1543446,-0.007045316,55.46652,-75.37713,18.30928,1008.739
6.734366894,-124.218,-3.343539,48.82959,-0.7683519,-0.4861513,-0.1692422,55.03448,-76.86502,15.7189,1008.741
6.766648769,-26.29959,-12.97079,41.82141,-0.9110246,-0.4749416,-0.1679041,56.73182,-78.76388,11.35713,1008.741
6.801414013,23.34131,-34.86693,36.45863,-1.010799,-0.3596042,-0.03505449,58.13094,-83.18221,9.211825,1008.743
6.833695888,22.10184,-43.67235,33.65535,-1.120849,-0.2555434,-0.07966887,58.13094,-83.18221,9.211825,1008.743
6.868461132,30.84012,-55.11939,31.33961,-1.140019,-0.1273939,-0.090018,58.83649,-85.38853,8.357037,1008.743
6.900743008,10.94658,-61.6941,21.10157,-1.153949,0.02683413,-0.1205346,58.7912,-86.86914,6.632592,1008.745
6.935503960,-22.5192,-70.206,16.59196,-1.051128,0.1070374,-0.1024129,58.7912,-86.86914,6.632592,1008.745
6.967785835,-45.38748,-68.91454,9.400953,-1.03923,0.1834917,-0.1140898,58.00704,-87.61836,4.474221,1008.745
7.000067711,-58.64984,-62.98556,0.1989065,-1.007727,0.1770408,-0.04506263,56.47005,-86.5483,1.432348,1008.745
7.034832954,-55.30326,-56.11734,-4.67635,-1.033977,0.2208644,-0.08584917,56.47005,-86.5483,1.432348,1008.746
7.067114830,-55.17931,-53.1822,-7.357741,-0.9460682,0.2940149,0.00574721,54.91777,-83.66129,-2.068332,1008.746
7.101880074,-64.1655,-41.73515,-12.41582,-0.9725881,0.2844765,0.06956403,53.37957,-80.03802,-5.018023,1008.748
7.134157658,-56.66668,-33.86898,-11.37983,-1.044143,0.2618327,0.01689469,53.37957,-80.03802,-5.018023,1008.75
7.166439533,-52.45247,-31.34476,-11.13606,-0.9569874,0.2366692,0.08617894,51.46452,-77.14703,-8.513186,1008.75
7.201204777,-47.74247,-19.13459,-13.39087,-1.00713,0.1814231,0.1053104,50.32229,-73.87696,-10.28109,1008.75
7.233486652,-37.083,-10.9749,-12.05017,-1.068026,0.1520543,0.05838114,50.32229,-73.87696,-10.28109,1008.751
7.268251896,-38.07458,-10.03565,-7.174919,-0.985258,0.1369933,0.1137126,49.53217,-71.34555,-12.481,1008.753
7.300533295,-39.9338,-1.171536,-8.637495,-0.9618687,0.06352384,0.1195291,49.50424,-69.16972,-13.38015,1008.755
7.335294723,-30.82367,6.635933,-7.723385,-0.9793187,0.06378765,0.0692906,49.50424,-69.16972,-13.38015,1008.757
7.367576599,-39.62392,4.933553,-4.006002,-0.901009,0.09420682,0.1258571,49.48828,-66.98827,-13.84358,1008.757
7.399858951,-47.55655,8.338315,-5.041994,-0.8795123,-0.005972721,0.1054202,49.12352,-65.89073,-13.85191,1008.758
7.434624195,-33.17867,16.85022,-8.332792,-0.9538248,-0.0465981,0.175448,49.12352,-65.89073,-13.85191,1008.758
7.466906071,-5.972231,14.97173,-7.906208,-1.136206,0.03951305,0.3218457,49.47101,-64.07777,-14.31623,1008.76
7.501671314,7.538027,9.747182,-8.576554,-1.18383,0.1542144,0.3656266,50.56802,-62.26152,-13.92013,1008.762
7.533948898,14.78895,-5.515542,-5.041994,-1.10583,0.0573204,0.2672529,50.56802,-62.26152,-13.92013,1008.762
7.568714142,46.51946,-9.918249,0.3817286,-0.9530602,0.01267234,0.1003669,51.30621,-62.62838,-13.49082,1008.765
7.600996017,50.79565,-2.873916,-2.848129,-0.9872755,0.1625426,0.08630618,52.01978,-62.64199,-13.93757,1008.767
7.633277893,23.77513,-3.989269,-12.47676,-1.113345,0.1148535,0.1148296,52.01978,-62.64199,-13.93757,1008.769
7.668043137,28.98091,-7.746247,-2.0559,-1.047407,0.05957316,0.1685183,51.29556,-63.36305,-13.91731,1008.769
7.700325012,21.29618,-2.11078,-2.848129,-1.039622,0.05295624,0.2085893,51.32349,-65.53887,-13.01816,1008.769
7.735085964,4.501318,1.763603,-5.224816,-1.053969,-0.01630667,0.2024252,51.69891,-65.90174,-12.58334,1008.769
7.767367840,8.467631,7.164258,-6.504571,-1.255099,-0.1018077,-0.01082398,51.69891,-65.90174,-12.58334,1008.77
7.802133083,35.11631,4.111714,2.636535,-1.259517,-0.07179364,-0.003875657,50.25913,-65.51564,-12.13016,1008.77
7.834414959,32.76131,3.231172,2.27089,-1.221893,-0.02564708,0.01564319,49.92297,-66.95844,-11.23473,1008.766
7.866696835,31.08802,1.881009,3.550645,-1.0473,0.0008867681,0.1295093,49.92297,-66.95844,-11.23473,1008.766
7.901462078,23.03144,8.749234,3.002179,-0.8927557,0.1339494,0.2797988,47.77094,-67.28776,-10.32557,1008.766
7.933739662,6.298554,25.47952,9.15719,-0.8275208,0.1569216,0.2918748,44.92799,-66.86316,-8.107426,1008.766
7.968504906,-44.82971,44.79274,14.27621,-0.8201726,0.3102426,0.2613072,44.92799,-66.86316,-8.107426,1008.766
8.000786781,-121.9869,51.89577,-0.6542634,-0.9536203,0.25713,0.1235128,43.53879,-67.91258,-5.892882,1008.768
8.033068657,-173.1152,42.38593,-8.576554,-1.014173,0.04837674,-0.02209182,42.82191,-66.07639,-5.469203,1008.768
8.067833900,-166.546,26.77098,-1.324611,-0.8479317,-0.08100481,0.07156823,42.82191,-66.07639,-5.469203,1008.768
8.100116253,-117.8967,26.41877,5.135104,-0.7526947,-0.05052415,0.1319661,43.56416,-62.06342,-4.659555,1008.768
8.134876728,-54.24971,25.47952,9.705657,-0.6821715,0.002633925,0.1935131,43.19411,-58.04977,-4.704814,1008.768
8.167159081,3.261844,21.13552,9.644716,-0.7374145,0.04205527,0.1633997,43.19411,-58.04977,-4.704814,1008.768
8.201924324,33.0092,24.71639,8.24308,-0.7211959,0.178499,0.2859671,43.21373,-56.58124,-3.914071,1008.768
8.234206199,46.95328,26.30136,1.905246,-0.7681805,0.1496877,0.1060653,44.33829,-57.67065,-2.671836,1008.768
8.266488075,67.15668,-2.345592,-7.540563,-0.8815814,0.2357958,0.050237,44.33829,-57.67065,-2.671836,1008.772
8.301253319,97.02799,-2.5217,-13.39087,-0.6706629,-0.007017311,0.04888524,46.895,-60.60906,-2.237791,1008.772
8.333530903,116.6736,8.514423,-4.615409,-0.6635932,0.0709192,0.05028002,47.99995,-63.167,-1.786299,1008.772
8.368296146,118.8427,17.55465,-11.62359,-0.98075,0.2245891,-0.03131413,47.99995,-63.167,-1.786299,1008.772
8.400578022,82.46418,31.81942,-8.515614,-1.672513,0.641117,0.2302179,49.49297,-66.44669,-0.4596381,1008.772
8.435343265,-56.97655,-7.452733,-15.40191,-3.24211,0.6732054,-0.2549733,52.08828,-70.82626,1.300052,1008.774
8.467625141,-92.98325,-44.37678,20.97968,-0.7150336,-0.2621926,0.04269557,52.08828,-70.82626,1.300052,1008.774
8.499907017,-21.65157,1.998414,10.92447,-0.5145433,-0.0009782256,-0.01474737,56.80042,-68.69102,1.200655,1008.774
8.534667969,19.62289,3.876903,22.01568,-0.5254549,-0.06513337,0.05549342,57.49604,-65.42963,0.2766271,1008.772
8.566949844,-12.91328,9.042748,24.57519,-0.7709872,0.1236832,0.1460489,57.49604,-65.42963,0.2766271,1008.772
8.601715088,-64.35143,3.524686,-10.70948,-1.318234,-0.1553625,0.09004627,56.40705,-65.05315,0.2885575,1008.772
8.633996963,0.9688189,-0.8193192,-12.65958,-1.723595,-0.4253732,-0.276095,57.84683,-65.43925,-0.1646154,1008.772
8.668762207,63.50024,-2.169483,10.49789,-0.8939862,0.131878,-0.04508112,58.57172,-65.0827,-0.1802623,1008.77
8.701044083,52.34499,-7.394031,-7.479622,-0.7112387,0.1825974,0.05875272,58.57172,-65.0827,-0.1802623,1008.77
8.733321667,4.37737,1.05917,0.930195,-0.9141191,0.2742159,-0.008937385,57.84617,-65.07473,-0.1692312,1008.77
8.768086910,-16.01196,0.7656559,-0.532382,-1.1499,0.179036,-0.0500627,58.22292,-66.16663,0.274828,1008.77
8.800369263,-10.31039,-3.695755,4.160052,-1.089152,0.06123672,-0.01943991,58.22292,-66.16663,0.274828,1008.77
8.835134506,-4.794732,-4.400189,-0.1667378,-0.9593595,-0.01183362,0.01418904,57.86147,-66.89168,0.2895751,1008.769
8.867416382,4.625265,-2.169483,-5.285757,-1.000984,0.007918043,0.02309295,57.48537,-66.16429,-0.149868,1008.769
8.899698257,10.57474,-2.052078,-6.870215,-1.077514,0.06384844,0.02744342,57.48537,-66.16429,-0.149868,1008.769
8.934459686,11.69026,-4.165378,-7.235859,-1.089611,0.07355142,0.04492845,57.49604,-65.42963,0.2766271,1008.769
8.966741562,8.963421,-7.746247,-5.956105,-0.9965882,-0.01192205,0.01958659,57.48405,-65.43526,-0.1590998,1008.77
9.001506329,26.81183,-12.55987,-2.787188,-0.9171728,-0.04982905,0.04772279,57.48405,-65.43526,-0.1590998,1008.77
9.033788204,40.94183,-10.9162,-0.6542634,-0.9753811,0.01717285,0.01922288,57.47405,-66.53444,-0.5809791,1008.769
9.068553448,36.16986,-10.74009,-0.4105006,-1.056406,0.1267413,0.004550468,57.12194,-65.79579,-0.1489685,1008.769
9.100835323,20.36658,-9.50733,3.306882,-1.023635,0.1747558,0.008136917,57.12194,-65.79579,-0.1489685,1008.769
9.133113384,5.306975,-7.217922,6.597681,-0.9535366,0.1773349,-0.004085463,56.77313,-66.87971,0.3061213,1008.771
9.167878151,-8.451178,-2.11078,10.01036,-0.9471861,0.1092065,-0.1214787,56.76115,-66.88535,-0.1296053,1008.767
9.200160026,-24.93617,3.700795,3.367823,-0.9702137,0.04343721,-0.08892919,56.76115,-66.88535,-0.1296053,1008.769
9.234925270,-27.72499,4.463931,-1.446493,-1.138183,-0.04618572,0.02453133,56.3997,-67.61039,-0.1148582,1008.769
9.267207146,-1.200259,-1.288941,1.234898,-1.005605,-0.03078784,0.1722654,56.74982,-67.25549,-0.5607164,1008.769
9.301972389,-0.2706543,-5.222028,-2.97001,-0.9929055,0.09922478,0.1135143,56.74982,-67.25549,-0.5607164,1008.763
9.334249973,-3.679206,-5.104622,-4.493528,-1.067617,0.1380667,-0.07126085,56.76115,-66.88535,-0.1296053,1008.767
9.366531849,-1.634075,-7.452733,-6.687393,-0.9862264,0.1130405,0.04347985,56.02229,-66.15397,-0.5635331,1008.762
9.401297092,-1.696048,-7.628841,-9.85631,-1.004867,0.04205554,0.1040297,56.02229,-66.15397,-0.5635331,1008.762
9.433578968,0.3490823,-7.041814,-9.246902,-1.026592,-0.001354782,0.0216451,56.3844,-65.79344,-0.5736642,1008.762
9.468344211,1.092766,-6.161272,-8.698436,-1.008267,0.03660798,0.07016532,55.64752,-66.15562,-0.9937441,1008.762
9.500626564,0.6589506,-5.985164,-9.125021,-1.005347,0.03913583,0.09966316,55.64752,-66.15562,-0.9937441,1008.762
9.535387993,3.261844,-6.219975,-9.85631,-1.025704,0.03203741,0.02134961,56.38374,-65.42892,-0.5782802,1008.762
9.567669868,-0.2086806,-6.513489,-8.942199,-1.006702,-0.01422494,0.06262134,56.38374,-65.42892,-0.5782802,1008.763
9.599951744,2.704082,-6.33738,-6.321749,-1.018332,0.002739987,0.08063009,55.63223,-64.33868,-1.45255,1008.763
9.634716511,-0.7664436,-6.807003,-4.798232,-1.01168,0.04331925,0.05425736,55.63223,-64.33868,-1.45255,1008.767
9.666998386,-5.1046,-7.687544,-4.67635,-1.020293,0.01141896,0.07294866,55.61893,-63.61528,-1.897509,1008.765
9.701763630,1.712503,-8.098463,-5.407639,-1.010615,0.007079788,0.06951905,56.00633,-63.97251,-1.026955,1008.769
9.734041691,1.464608,-7.628841,-6.870215,-1.01593,0.0168529,0.1019765,56.00633,-63.97251,-1.026955,1008.765
9.768806934,1.774477,-6.454786,-7.540563,-0.9985212,0.01006706,0.08401313,55.26814,-63.60566,-1.456267,1008.765
9.801088333,-1.38618,-5.867758,-6.565512,-0.9990411,0.0201774,0.06908514,55.25549,-63.24677,-1.896609,1008.769
9.833370209,-10.62026,-5.515542,-6.870215,-1.023113,-0.004867633,0.1245901,55.25549,-63.24677,-1.896609,1008.767
9.868135452,-6.715915,-4.282783,-3.335654,-1.006517,-0.07405517,0.1144921,55.60694,-63.62091,-2.333236,1008.767
9.900417328,1.526582,-4.224081,-1.994959,-1.000406,-0.003905238,0.1037587,55.61826,-63.25076,-1.902125,1008.766
9.935178757,-1.943943,-3.108728,-2.97001,-1.011169,0.04685555,0.09778585,55.61826,-63.25076,-1.902125,1008.766
9.967460632,-1.819996,-2.932619,-5.651401,-1.014737,-0.06137368,0.1508399,55.2535,-62.15322,-1.910457,1008.766
9.999742031,3.69566,-0.4671025,-4.67635,-0.9891702,-0.04933488,0.1116947,55.61628,-62.15722,-1.915972,1008.766
10.034507275,3.633686,1.176575,-4.188824,-1.019276,-0.0005847565,0.09995077,55.61628,-62.15722,-1.915972,1008.766
10.066789150,4.315397,1.998414,-5.041994,-1.009088,-0.008726818,0.1163194,54.89072,-62.14924,-1.904942,1008.762
10.101554394,2.022371,3.524686,-3.701299,-1.004646,-0.05329805,0.09768577,54.52729,-61.78074,-1.904042,1008.762
10.133832455,5.183028,3.994308,-3.762239,-1.021138,-0.03450133,0.08912629,54.52729,-61.78074,-1.904042,1008.762
10.168597221,8.219737,4.992256,-3.884121,-1.009049,-0.02908949,0.1050845,55.61562,-61.7927,-1.920588,1008.76
10.200880050,6.608422,6.459825,-2.482485,-1.010041,-0.01844255,0.106114,55.99038,-61.79105,-1.490377,1008.758
10.233161926,4.253423,5.227067,-0.2276785,-1.022054,-0.06752262,0.05606668,55.99038,-61.79105,-1.490377,1008.758
10.267927170,4.501318,5.050959,-0.04485636,-1.020564,-0.07175097,0.09229732,55.96641,-61.80232,-2.361831,1008.758
10.300208568,11.62829,4.933553,0.01608434,-1.01972,-0.02290418,0.08290448,56.74255,-63.24582,-0.611491,1008.757
10.334969997,13.67342,1.646198,-1.812137,-1.049263,-0.01731896,0.04239105,56.74255,-63.24582,-0.611491,1008.757
10.367251873,6.298554,0.1199253,-4.127883,-1.029387,-0.0238915,0.08533689,56.35448,-62.52407,-1.486661,1008.757
10.402017116,10.63671,-0.3496969,-3.518476,-0.9993843,-0.03250831,0.08764042,57.44413,-63.26507,-1.493975,1008.758
10.434298992,13.73539,0.1199253,-3.457536,-1.03277,-0.03415704,0.05772981,57.45678,-63.62395,-1.053633,1008.758
10.466580391,16.33829,-0.2322914,-3.396595,-1.041408,-0.05199064,0.08616991,57.45678,-63.62395,-1.053633,1008.758
10.501345634,17.51579,-0.8193192,-3.884121,-1.014243,-0.09357858,0.07185517,57.06871,-62.9022,-1.928803,1008.76
10.533623695,25.20052,0.8243586,-9.551606,-0.9859428,-0.1789392,0.1346393,57.46942,-63.98283,-0.6132903,1008.758
10.568388939,54.14222,6.635933,-5.834223,-0.9905322,-0.09490694,0.08823343,57.46942,-63.98283,-0.6132903,1008.758
10.600670814,59.8438,9.160154,-0.532382,-0.9976273,0.04201894,0.08709352,57.09532,-64.349,-1.038886,1008.758
10.635435581,29.7246,8.807938,-1.934018,-0.9928893,0.07094891,0.05195678,57.85948,-65.79813,0.2757273,1008.758
10.667717457,19.43697,9.218857,3.611586,-0.9528289,0.09519127,0.03170385,57.85948,-65.79813,0.2757273,1008.757
10.699999332,-4.42289,8.573126,5.561688,-0.950357,0.0866267,0.07274212,57.1479,-66.87807,0.7363329,1008.758
10.734760761,-23.6967,10.0994,4.099112,-0.9662215,0.03956303,0.04978709,57.89874,-67.60381,1.605987,1008.76
10.767042637,-19.42052,13.50416,6.658621,-0.973901,0.02414037,0.07485475,57.89874,-67.60381,1.605987,1008.758
10.801807880,-30.14196,17.02633,5.074163,-0.9717969,-0.04454083,0.08364504,57.88477,-66.51589,1.156413,1008.758
10.834089279,-32.31104,15.91097,1.113017,-1.108763,-0.2110503,0.04480182,58.23755,-67.61906,0.7290177,1008.758
10.866372108,0.9688189,12.2714,3.855349,-1.116486,-0.2369172,-0.01334126,58.23755,-67.61906,0.7290177,1008.76
10.901137352,26.37802,12.56491,6.475799,-1.02265,-0.02840769,0.03211844,59.68733,-66.90598,0.6977243,1008.76
10.933414936,15.90447,13.26935,3.794408,-0.9876298,0.08391223,0.01721156,60.04011,-68.00916,0.2703295,1008.76
10.968180180,2.022371,12.97583,3.794408,-0.9973066,0.07897323,-0.004066968,60.04011,-68.00916,0.2703295,1008.76
11.000462055,-9.814599,10.0407,0.4426693,-0.9690827,-0.004259286,-0.02732267,59.3625,-67.97864,2.024268,1008.762
11.067509174,1.83645,7.281664,1.113017,-1.002759,-0.07547718,-0.02282064,61.16638,-69.09776,1.574811,1008.763
11.099791050,4.191449,6.107608,2.514653,-1.06192,-0.0098856,-0.03827367,61.15572,-69.83243,1.148316,1008.763
11.134552002,6.050659,5.9315,3.002179,-1.019519,0.06633241,-0.002640654,61.17902,-69.45665,2.015154,1008.763
11.166833878,-5.724337,6.694636,1.661483,-1.001494,0.01025276,-0.001548051,61.17902,-69.45665,2.015154,1008.765
11.201599121,-3.369337,4.581336,0.1379658,-1.020737,-0.0451047,-0.04146331,60.81757,-70.18169,2.029901,1008.765
11.233966350,3.385792,-1.230239,0.8083135,-1.041585,-0.0429509,-0.1023194,61.54247,-69.82515,2.014254,1008.767
11.268731117,4.253423,-2.5217,0.9911357,-1.023764,0.02669188,0.01309658,61.54247,-69.82515,2.014254,1008.767
11.301012993,-3.493285,-0.9954275,-0.532382,-1.014125,0.02707733,-0.02414678,61.91856,-70.55254,2.453697,1008.767
11.333291054,-5.228547,-0.5258053,-0.6542634,-1.01109,-0.02073976,0.0002301639,62.26736,-69.46861,1.998607,1008.769
11.368056297,-2.377759,-0.5258053,0.6254914,-1.02409,-0.05719785,-0.0371739,61.91856,-70.55254,2.453697,1008.769
11.400338173,0.4730297,1.7049,2.149009,-1.011117,-0.007171742,0.005625196,61.91856,-70.55254,2.453697,1008.769
11.435103416,-1.200259,4.816147,1.844306,-1.013125,0.01841852,-0.00969501,61.54313,-70.18967,2.01887,1008.767
11.467384815,-3.617232,6.283717,0.8083135,-1.011149,-0.0009494682,-0.01464378,61.91591,-69.09447,2.435234,1008.767
11.502150059,-4.051048,5.814095,1.478661,-1.018856,-0.02283846,-0.04134076,61.91591,-69.09447,2.435234,1008.767
11.534428120,-0.146707,6.283717,1.966187,-1.016445,-0.01162257,-0.01807712,61.20432,-70.17441,2.895839,1008.767
11.566709995,-0.7664436,6.870745,1.966187,-1.021321,0.0004143174,-0.0320179,61.91657,-69.45898,2.43985,1008.767
11.601475239,-0.2706543,5.814095,0.7473729,-1.01506,0.006680771,-0.04456516,61.91657,-69.45898,2.43985,1008.763
11.633757114,-0.2706543,3.583389,-0.1667378,-1.017971,0.006631526,-0.05664514,62.6561,-70.55488,2.878393,1008.763
11.668521881,-1.138286,0.4134392,-0.7761448,-1.022297,-0.008909218,-0.0692936,62.28265,-71.28555,2.457414,1008.769
11.700803757,-0.332628,-1.699861,-0.6542634,-1.027138,-0.001127769,-0.05376887,62.28265,-71.28555,2.457414,1008.769
11.733081818,-0.2706543,-1.817266,-1.20273,-1.013148,0.0173442,-0.04112459,62.30464,-70.18074,3.31502,1008.769
11.767847061,0.1631613,-1.758564,-0.9589669,-1.020341,-0.00783755,-0.04028539,62.64411,-70.56052,2.442667,1008.769
11.800129414,0.1631613,-1.347644,-0.9589669,-1.01258,-0.01748909,-0.03890668,62.64411,-70.56052,2.442667,1008.769
11.834893703,1.030793,-0.7606164,-0.7152041,-1.015039,0.004325012,-0.0257245,62.29266,-70.18637,2.879292,1008.771
11.867176533,0.1631613,-1.171536,-1.019908,-1.020858,0.004728468,-0.04456377,61.55445,-69.81952,2.449981,1008.773
11.901941776,-1.076312,-1.875969,-0.7761448,-1.022749,-0.01219982,-0.040305,61.55445,-69.81952,2.449981,1008.773
11.934219360,0.3490823,-1.993375,-1.019908,-1.014068,-0.001029836,-0.03590925,61.93054,-70.54691,2.889424,1008.773
11.966501236,-0.2086806,-1.993375,-1.26367,-1.014559,0.00235792,-0.03540549,61.9312,-70.91142,2.89404,1008.776
12.001266479,-0.146707,-2.11078,-0.8370855,-1.017415,-0.01652359,-0.0355067,61.9312,-70.91142,2.89404,1008.776
12.033548355,0.9688189,-2.345592,-0.532382,-1.017922,-0.004405463,-0.02915199,62.28067,-70.19201,2.443566,1008.778
12.068313599,-0.5185489,-2.462997,-0.7761448,-1.007753,-0.01017702,-0.02727298,61.91789,-70.18802,2.449081,1008.776
12.100595474,-0.2086806,-2.580403,-1.141789,-1.021303,-0.009285548,-0.03835779,61.91789,-70.18802,2.449081,1008.776
12.135356426,1.216714,-2.169483,-0.5933227,-1.018401,-0.001941338,-0.01560067,62.28067,-70.19201,2.443566,1008.778
12.167638302,-0.4565753,-2.052078,-0.6542634,-1.010627,-0.0213124,-0.02636322,62.65411,-69.46133,2.864545,1008.778
12.199920177,-0.02275964,-1.817266,-0.1667378,-1.01932,-0.02227074,-0.01619772,62.65411,-69.46133,2.864545,1008.778
12.234685421,1.898424,-0.8193192,0.01608434,-1.009695,-0.003373154,-0.01707789,61.17969,-69.82116,2.01977,1008.778
12.266967296,-0.5185489,-0.7606164,-0.04485636,-1.02032,-0.009706104,-0.02047507,61.92856,-69.45335,2.875576,1008.782
12.301732063,0.1631613,-0.8193192,0.1379658,-1.016446,-0.01504774,-0.02921569,61.56512,-69.08485,2.876476,1008.782
12.334010124,0.8448716,-0.4671025,-0.04485636,-1.015004,-0.007748631,-0.01854164,61.56512,-69.08485,2.876476,1008.782
12.368775368,-0.02275964,0.1199253,0.1989065,-1.015489,-0.008732613,-0.02289714,61.92921,-69.81787,2.880192,1008.782
12.401057243,-0.8284172,-0.05618304,0.1379658,-1.015955,-0.01648013,-0.02390707,62.28001,-69.82749,2.43895,1008.782
12.433339119,0.596977,-0.4671025,0.07702505,-1.01403,-0.01211433,-0.02243607,62.28001,-69.82749,2.43895,1008.78
12.468103886,0.1011877,-0.7019136,0.3817286,-1.017432,-0.007306014,-0.02868611,61.55445,-69.81952,2.449981,1008.782
12.500386715,-1.324206,-0.3496969,0.4426693,-1.011132,-0.007232349,-0.01226235,61.90524,-69.82913,2.008739,1008.782
12.535147190,0.3490823,0.1199253,0.3817286,-1.013526,-0.0213125,-0.02393978,61.90524,-69.82913,2.008739,1008.784
12.567429542,-0.3946016,-0.05618304,0.930195,-1.013559,-0.005812046,-0.01950062,61.55379,-69.455,2.445365,1008.785
12.599711418,-0.0847333,0.06122252,0.5645507,-1.013565,-0.005347774,-0.02529924,61.19167,-69.81552,2.455497,1008.787
12.634476662,-0.2706543,0.06122252,0.6864321,-1.014524,-0.009225243,-0.02628609,61.19167,-69.81552,2.455497,1008.789
12.666758537,-0.8284172,0.706953,0.4426693,-1.012091,-0.01110982,-0.01324921,62.28001,-69.82749,2.43895,1008.789
12.701523781,-0.6424962,1.176575,0.3817286,-1.01356,-0.005813684,-0.01998407,61.91657,-69.45898,2.43985,1008.789
12.733801365,-0.7044699,0.8830614,0.4426693,-1.019831,-0.01407974,-0.02630226,61.91657,-69.45898,2.43985,1008.785
12.768566608,0.411056,1.352684,0.8692542,-1.016467,-0.0009630368,-0.01414896,61.91789,-70.18802,2.449081,1008.785
12.800848484,0.03921402,1.235278,0.6864321,-1.010189,-0.002931559,-0.02916028,61.53114,-70.1953,1.583143,1008.785
12.833130360,-0.9523646,0.8830614,0.50361,-1.02322,-0.01215206,-0.02580055,61.53114,-70.1953,1.583143,1008.785
12.867895603,2.208292,0.4134392,0.6254914,-1.017441,-0.002458538,-0.02624133,62.63146,-70.20163,2.002324,1008.785
12.900177479,-0.6424962,0.1786281,0.3817286,-1.017935,0.002382641,-0.02524586,61.91789,-70.18802,2.449081,1008.785
12.934938431,0.596977,0.2960336,0.6254914,-1.018388,-0.01068317,-0.02483574,61.91789,-70.18802,2.449081,1008.785
12.967220306,-0.0847333,0.9417642,0.8692542,-1.009685,-0.008218992,-0.01903922,61.91723,-69.8235,2.444466,1008.785
13.001985550,0.2871087,1.117872,0.3817286,-1.015024,-0.002454902,-0.02721339,62.28067,-70.19201,2.443566,1008.785
13.034267426,1.278687,0.4134392,0.3207878,-1.014067,0.001416015,-0.02816033,62.28067,-70.19201,2.443566,1008.785
13.066549301,-0.8284172,0.9417642,-0.1057971,-1.014066,0.002884181,-0.02331759,61.92789,-69.08884,2.870961,1008.789
13.101314545,-0.9523646,1.587495,-0.1667378,-1.009703,-0.001942663,-0.02335444,61.91789,-70.18802,2.449081,1008.789
13.133592129,-1.014338,1.528792,-0.1667378,-1.010194,-0.001973529,-0.03205546,61.91789,-70.18802,2.449081,1008.79
13.168357372,0.2871087,0.9417642,-0.2276785,-1.017929,-0.001013049,-0.02768238,62.65477,-69.82584,2.869161,1008.789
13.200639725,0.3490823,1.176575,-0.1057971,-1.015033,0.002881416,-0.02331552,61.93054,-70.54691,2.889424,1008.789
13.235404491,-0.2086806,1.470089,-0.4714413,-1.007767,-0.004373156,-0.02820682,61.91789,-70.18802,2.449081,1008.789
13.267686844,0.3490823,1.470089,-0.3495599,-1.019338,-0.01843699,-0.02729497,61.91789,-70.18802,2.449081,1008.787
13.299968719,1.092766,0.8830614,-0.2886192,-1.019882,0.0008598043,-0.04458787,63.00622,-70.19998,2.432535,1008.787
13.334729671,-0.2086806,0.8243586,-0.1667378,-1.014083,0.007702172,-0.02957486,61.91723,-69.8235,2.444466,1008.785
13.367011547,-0.02275964,1.05917,-0.2276785,-1.017432,-0.006331604,-0.02674681,61.91723,-69.8235,2.444466,1008.785
13.401776790,1.15474,1.05917,-0.1667378,-1.018401,-0.01074051,-0.04175639,61.92988,-70.18239,2.884808,1008.784
13.434058666,1.278687,0.5308447,0.01608434,-1.01552,-0.001042173,-0.03832338,62.64411,-70.56052,2.442667,1008.782
13.468823910,-0.146707,-0.2909942,-0.3495599,-1.015499,-0.0112145,-0.0412819,62.64411,-70.56052,2.442667,1008.782
13.501105785,0.7828979,-1.46505,0.1989065,-1.023226,-0.01559689,-0.04274048,62.28067,-70.19201,2.443566,1008.782
13.533383369,2.332239,-1.934672,-0.04485636,-1.016968,-0.002501382,-0.03929543,62.29199,-69.82185,2.874677,1008.782
13.568148613,0.1011877,-1.523752,-0.1667378,-1.013594,0.007239283,-0.02377729,62.29199,-69.82185,2.874677,1008.78
13.600430488,-0.5805226,-0.4671025,-0.1667378,-1.013574,0.0009662294,-0.01849517,61.91789,-70.18802,2.449081,1008.778
13.635195732,-0.2706543,0.3547364,-0.3495599,-1.012063,-0.02760925,-0.02687937,61.91856,-70.55254,2.453697,1008.778
13.667477608,1.83645,0.472142,0.1989065,-1.018386,-0.01409688,-0.03259017,61.91856,-70.55254,2.453697,1008.78
13.699759483,1.092766,0.4134392,-0.2886192,-1.01311,0.005774137,-0.02813761,61.91723,-69.8235,2.444466,1008.78
13.734732628,-0.5185489,0.2373309,-1.629315,-1.013104,-6.249014E-05,-0.03687271,62.29332,-70.55089,2.883909,1008.78
13.767014503,-2.315785,-0.4671025,-3.701299,-1.027527,-0.04032081,-0.05205712,62.29332,-70.55089,2.883909,1008.782
13.801779747,-5.228547,-2.697808,-2.97001,-1.014026,-0.02529179,-0.05538484,61.92856,-69.45335,2.875576,1008.782
13.834061623,-1.014338,-4.341486,-2.482485,-1.038254,-0.01530652,-0.0871828,62.66742,-70.18472,3.309504,1008.782
13.868826389,-0.8284172,-6.454786,-2.665307,-1.015585,0.03387439,-0.01636997,62.66742,-70.18472,3.309504,1008.782
13.901108265,-3.059469,-7.394031,-2.238722,-1.020372,0.00718553,-0.0339152,62.28067,-70.19201,2.443566,1008.782
13.933386326,-5.972231,-6.689597,-2.482485,-1.015877,-0.03814717,0.008359963,61.91591,-69.09447,2.435234,1008.782
13.968151569,-5.848284,-5.045919,-0.4105006,-1.010528,-0.05315667,0.001494949,61.91591,-69.09447,2.435234,1008.782
14.000433922,-0.5185489,-4.165378,-0.532382,-1.007734,-0.01449798,-0.01714537,61.54115,-69.09612,2.005022,1008.782
14.035198212,-4.42289,-6.396083,0.01608434,-1.018428,0.001367536,-0.03878686,61.5418,-69.46063,2.009638,1008.784
14.067481041,-10.24841,-6.572192,-0.5933227,-1.007221,-0.01339934,0.02105143,61.5418,-69.46063,2.009638,1008.784
14.102246285,-6.034205,-6.161272,0.1989065,-1.034264,-0.03825048,-0.006587597,61.52916,-69.10175,1.569296,1008.784
14.134523869,0.4730297,-10.27047,3.002179,-1.021309,-0.030811,-0.1071285,61.52783,-68.37273,1.560064,1008.784
14.166805744,-3.617232,-6.219975,2.575594,-0.9936211,0.002529678,0.140522,61.50452,-68.7485,0.6932259,1008.785
14.201570988,-9.876573,-1.758564,2.636535,-1.01684,-0.05181295,-0.02507294,61.50452,-68.7485,0.6932259,1008.787
14.233852863,1.898424,-2.11078,2.331831,-1.017896,0.002543168,0.02213196,60.42686,-68.00188,1.136268,1008.787
14.268618107,-0.8903909,0.5895475,1.539602,-1.010667,0.02103673,0.0468769,61.14109,-68.38,0.6941257,1008.787
14.300899982,-11.05407,1.528792,-0.5933227,-1.057473,-0.04026565,-0.01041654,61.14109,-68.38,0.6941257,1008.787
14.333177566,-7.831441,-0.878022,1.722424,-1.000355,-0.0594007,0.006755346,60.40222,-67.64863,0.2601981,1008.787
14.367942810,-0.332628,2.820253,0.8083135,-0.9927485,0.007027742,0.03902361,60.41421,-67.64299,0.6959248,1008.787
14.400224686,-4.546837,4.640039,0.7473729,-1.047398,0.002926388,0.01736333,60.41421,-67.64299,0.6959248,1008.787
14.434989929,-2.749601,4.405228,1.600543,-0.9898568,-0.007663641,-0.01472785,60.02747,-67.65028,-0.1700132,1008.789
14.467271805,2.084345,5.168364,-0.7761448,-1.016952,0.008805882,0.0129802,60.03879,-67.28012,0.2610979,1008.789
14.502036571,2.951976,3.759497,-1.385552,-1.034905,0.02608934,-0.01250509,60.03879,-67.28012,0.2610979,1008.789
14.534314632,-1.324206,0.9417642,-1.568374,-1.009235,-4.979267E-05,-0.03639754,60.04011,-68.00916,0.2703295,1008.79
14.566596508,-10.18644,-1.05413,-0.8370855,-1.010489,-0.07449703,-0.0126462,60.75301,-67.65825,-0.1810441,1008.79
14.601361751,2.890002,-1.758564,0.07702505,-1.021795,0.007781611,0.000415407,60.75301,-67.65825,-0.1810441,1008.79
14.633643627,-2.687627,-2.5217,-2.665307,-1.030565,0.03778159,0.006889589,60.765,-67.65262,0.2546825,1008.79
14.668408394,-1.881969,-6.513489,-3.030951,-0.9895329,0.02637234,-0.1102559,60.03812,-66.9156,0.2564821,1008.789
14.700690269,-4.236969,-6.513489,-6.077986,-1.028022,0.008985393,0.07536867,60.03812,-66.9156,0.2564821,1008.79
14.735451698,-2.873548,-5.985164,-6.077986,-1.028891,-0.06097827,-0.006244966,60.03945,-67.64464,0.2657137,1008.79
14.767734051,0.9068453,-5.339433,-4.981053,-1.027053,-0.003219805,0.04290679,60.03879,-67.28012,0.2610979,1008.789
14.800015926,-1.634075,-4.106675,-6.260808,-0.9883671,-0.01775975,0.003582207,60.03879,-67.28012,0.2610979,1008.789
14.834781170,0.225135,-2.169483,-5.712342,-1.017736,-0.05005926,0.06485856,59.67469,-66.5471,0.2573814,1008.789
14.867063045,-8.389204,-2.462997,-0.8980262,-1.02645,-0.07846813,-0.02858785,59.66204,-66.18822,-0.182961,1008.79
14.901828289,-6.901836,-1.288941,0.8083135,-0.9993832,-0.04667492,0.04840134,59.66204,-66.18822,-0.182961,1008.79
14.934105873,-3.183416,3.465984,-0.1667378,-0.9955067,-0.03441331,0.09342249,60.02482,-66.19221,-0.1884766,1008.79
14.968871117,-1.38618,4.698742,-0.7152041,-1.017824,-0.04455843,-0.025513,59.64939,-65.82935,-0.6233039,1008.789
15.001152992,1.960397,1.939711,0.50361,-1.01214,-0.01619972,-0.08724417,59.66138,-65.82371,-0.187577,1008.79
15.033434868,-8.14131,0.706953,1.844306,-1.020175,-0.05210672,0.0339121,59.66138,-65.82371,-0.187577,1008.79
15.068200111,-1.38618,3.17247,1.478661,-0.9979355,-0.0574335,0.0140129,60.01283,-66.19785,-0.6242034,1008.79
15.100481987,-5.662363,3.407281,4.708519,-1.033693,-0.04130735,0.09056497,60.37495,-65.83732,-0.6343348,1008.79
15.135242939,-8.699073,1.939711,6.53674,-0.9980806,-0.04826108,-0.1353172,60.37495,-65.83732,-0.6343348,1008.789
15.167524815,-4.174995,1.646198,6.658621,-1.028538,0.01960095,0.06672824,60.37495,-65.83732,-0.6343348,1008.789
15.202290058,-15.33025,3.113767,8.852487,-1.02737,-0.08071855,0.0221624,59.67403,-66.18259,0.2527657,1008.783
15.234571934,-23.4488,2.996361,15.25126,-1.018671,-0.09732906,-0.03161249,59.67403,-66.18259,0.2527657,1008.783
15.266853809,-10.31039,0.8243586,18.05453,-0.9942319,-0.009726458,-0.04857086,60.01283,-66.19785,-0.6242034,1008.781
15.301619053,-3.183416,4.405228,14.03245,-1.025774,0.09380757,0.1135543,59.66072,-65.45919,-0.1921928,1008.781
15.333896637,-18.42894,3.876903,11.16823,-1.018371,-0.02429542,-0.04328385,59.66072,-65.45919,-0.1921928,1008.779
15.368661880,-6.406047,0.9417642,12.99646,-1.018022,0.03720912,-0.02988204,59.66204,-66.18822,-0.182961,1008.778
15.400944233,-1.324206,1.117872,13.17928,-1.004489,0.05823202,0.02193627,59.27529,-66.1955,-1.048899,1008.776
15.433225632,-12.1696,2.409333,10.31506,-1.032418,0.004882025,0.01057403,59.27529,-66.1955,-1.048899,1008.776
15.467990875,-4.60881,0.8243586,11.83858,-1.007812,0.01010211,-0.04069383,58.94979,-66.90364,0.2730284,1008.778
15.500273228,3.075923,1.411386,9.94942,-1.017048,0.06509229,0.05777681,58.94781,-65.8101,0.259181,1008.778
15.535033703,-0.3946016,0.6482503,8.364962,-1.007599,0.1018288,-0.105437,58.94781,-65.8101,0.259181,1008.782
15.567316055,6.546448,-1.288941,5.561688,-1.020146,0.1356164,0.02241001,59.28794,-66.55438,-0.6085565,1008.782
15.602081299,-2.315785,-0.2322914,0.7473729,-1.007376,0.04362397,-0.002312505,59.31191,-66.54311,0.262897,1008.782
15.634363174,11.50434,-2.052078,1.905246,-1.018636,0.09432768,-0.02472156,59.31191,-66.54311,0.262897,1008.782
15.666645050,0.7828979,-4.458891,2.392772,-1.014314,0.108876,-0.01933033,58.96178,-66.89801,0.708755,1008.782
15.701410294,-2.005917,-4.752405,-1.26367,-1.003449,0.03312619,0.0382282,59.31257,-66.90762,0.2675133,1008.782
15.733687878,3.137897,-1.817266,-1.20273,-1.025067,-0.02645595,0.03890288,59.31257,-66.90762,0.2675133,1008.779
15.768453121,8.343684,-2.286889,1.905246,-1.013373,0.09997804,-0.07546184,58.94913,-66.53912,0.2684126,1008.779
15.800734997,4.005528,-2.932619,0.50361,-1.012362,0.1353429,0.07798713,58.93781,-66.90927,-0.1626983,1008.778
15.835500240,-4.670784,-2.286889,0.1989065,-1.008852,0.04204682,-0.03809275,58.22292,-66.16663,0.274828,1008.778
15.867782116,7.290133,-1.758564,-0.7152041,-1.002091,0.06890993,0.02924339,58.22292,-66.16663,0.274828,1008.778
15.900063992,3.385792,-0.3496969,-1.690255,-1.01798,0.03982532,0.02814539,58.58768,-67.26417,0.2831597,1008.778
15.934824944,4.37737,-0.5845081,-1.019908,-0.9992,0.0483508,-0.04242866,57.8608,-66.52716,0.2849593,1008.778
15.967106819,4.129476,-0.1735886,-0.2276785,-1.015304,0.1209977,-0.01152425,57.8608,-66.52716,0.2849593,1008.779
16.001872063,-5.290521,-1.05413,-5.224816,-1.031006,0.03844432,0.06007256,58.21093,-66.17227,-0.1608992,1008.779
16.034153938,1.216714,0.2960336,-1.751196,-1.009603,-0.03866718,-0.007609993,58.21093,-66.17227,-0.1608992,1008.779
16.068919182,12.24802,-0.6432108,-1.446493,-1.007823,0.01982982,-0.02613533,58.21093,-66.17227,-0.1608992,1008.779
16.101201057,9.149342,-0.6432108,-1.446493,-1.022434,0.07506268,0.005633726,58.21226,-66.9013,-0.1516674,1008.779
16.133478642,6.732369,-0.05618304,-0.2276785,-1.002104,0.0654356,0.003601416,57.49736,-66.15866,0.2858586,1008.779
16.168243885,5.430923,-0.05618304,0.2598472,-1.019932,0.04512171,0.02189501,57.49736,-66.15866,0.2858586,1008.779
16.200525760,6.670396,0.706953,0.50361,-1.024243,0.02475151,0.0121197,58.23557,-66.52551,0.7151704,1008.778
16.235291004,8.343684,1.528792,-0.2276785,-1.009792,0.04509014,0.003985742,57.87345,-66.88604,0.7253017,1008.778
16.267572880,10.63671,2.291928,0.6254914,-1.01223,0.05428278,0.005493582,57.87345,-66.88604,0.7253017,1008.778
16.299855232,10.76066,3.055064,0.4426693,-1.028245,0.07598937,-0.001600062,58.22424,-66.89566,0.2840595,1008.776
16.334616661,12.92974,1.881009,1.722424,-1.024386,0.08378096,0.009555014,57.87477,-67.61507,0.7345333,1008.778
16.366898060,7.104211,2.644145,0.3817286,-0.9987435,0.07804873,0.009950595,57.87477,-67.61507,0.7345333,1008.778
16.401663303,2.394213,0.002519742,-1.019908,-1.035937,0.04927419,-0.024457,58.61166,-67.2529,1.154613,1008.782
16.433945179,8.467631,-0.1148858,-1.385552,-1.036399,0.0347009,-0.04049235,57.51134,-67.24657,0.7354331,1008.782
16.468710422,11.31842,-1.582455,-0.4714413,-1.004538,0.06633759,-0.013792,57.51134,-67.24657,0.7354331,1008.782
16.500992298,4.439344,-0.7606164,0.2598472,-0.991509,0.08581068,0.009495698,58.26285,-68.33682,1.609704,1008.782
16.533270359,-3.183416,-2.5217,0.6864321,-1.011757,0.05473205,-0.005140536,58.25152,-68.70697,1.178593,1008.784
16.568035126,2.518161,-2.756511,4.281934,-1.041728,0.058101,0.0147642,58.25152,-68.70697,1.178593,1008.782
16.600317001,5.55487,-3.402241,7.572732,-1.04862,0.1132839,0.02524504,57.87543,-67.97958,0.7391491,1008.784
16.635082245,8.529605,-5.985164,16.22631,-0.9979548,0.1628291,0.03702008,57.87543,-67.97958,0.7391491,1008.784
16.667364120,6.050659,-6.572192,21.8938,-1.008592,0.1672015,0.05108759,57.87543,-67.97958,0.7391491,1008.785
16.702129364,5.430923,-9.742141,25.36742,-1.001793,0.1609904,0.06892484,57.14988,-67.97161,0.7501802,1008.787
16.734406948,13.4875,-10.15306,30.30361,-0.9837962,0.1111445,0.0531326,57.13856,-68.34177,0.3190694,1008.787
16.766688824,31.45986,-8.802896,34.26476,-0.9659896,0.1382105,0.02810931,57.13856,-68.34177,0.3190694,1008.789
16.801454067,41.68552,-7.570138,36.94615,-0.9784827,0.1121145,0.04925916,56.41565,-69.79185,0.3485641,1008.789
16.833735943,57.05499,-2.580403,43.10116,-0.9919266,0.05236418,-0.006647054,56.05354,-70.15237,0.3586955,1008.789
16.868501186,77.0105,-10.79879,47.91548,-0.9576873,0.07700182,-0.04815649,55.70803,-73.05888,0.8368645,1008.79
16.900783062,77.56826,-12.50117,46.33102,-0.9257262,0.2458315,-0.09270866,55.70803,-73.05888,0.8368645,1008.792
16.935544014,25.38644,-29.64238,29.14574,-0.94292,0.3595031,-0.09299215,55.37188,-74.50169,1.732297,1008.792
16.967825890,-56.60471,5.990203,-5.285757,-0.9787253,0.2103094,0.0372486,53.57394,-76.6632,2.223297,1008.792
17.000107765,-58.278,-0.4671025,-2.238722,-1.270998,0.1983373,-0.2498356,53.57394,-76.6632,2.223297,1008.792
17.034873009,6.298554,0.002519742,5.561688,-1.015826,0.1745888,0.0951381,53.52468,-75.9567,0.471158,1008.792
17.067154884,16.15236,-4.282783,4.891341,-0.9609643,0.3324769,0.2298301,53.87283,-74.50827,0.01145196,1008.792
17.101920128,-14.46262,-3.519647,3.672527,-0.8244773,0.2615589,0.1788551,53.87283,-74.50827,0.01145196,1008.792
17.134198666,-18.61486,-2.169483,1.35678,-0.8882263,0.1644587,-0.003332557,53.88613,-75.23167,0.4564104,1008.792
17.166480541,3.075923,-0.1148858,6.353918,-1.049912,0.2248196,-0.04760068,53.51138,-75.23331,0.02619934,1008.792
17.201245308,3.199871,-2.580403,9.94942,-1.107674,0.3366229,0.006337773,53.51138,-75.23331,0.02619934,1008.794
17.233527183,-19.11065,-5.222028,10.376,-1.007483,0.314835,0.06110996,53.51203,-75.59783,0.03081512,1008.796
17.268292427,-27.60104,-4.224081,12.20423,-0.9270027,0.2177179,0.03766269,53.13727,-75.59947,-0.3993962,1008.792
17.300574303,-14.21473,-1.993375,14.27621,-0.9047273,0.2203583,0.08403981,53.13727,-75.59947,-0.3993962,1008.792
17.335335731,-5.972231,-1.112833,10.19318,-0.9158634,0.2393243,0.120913,52.03629,-75.22863,-0.8231921,1008.792
17.367617130,-0.3946016,-0.7019136,1.905246,-0.9472873,0.2333978,0.1122451,52.38509,-74.1447,-1.278282,1008.79
17.399899006,14.04526,-0.4671025,-1.385552,-0.948873,0.2704612,0.05493008,52.38509,-74.1447,-1.278282,1008.788
17.434664249,22.10184,-0.7606164,-5.346698,-0.9296594,0.3208074,0.04405584,52.38642,-74.87373,-1.269051,1008.786
17.466946125,17.70171,0.4134392,-10.64854,-0.9692868,0.3159039,0.05861653,53.09999,-74.88734,-1.715808,1008.786
17.501711368,14.16921,-1.582455,-13.39087,-0.979332,0.2703921,0.06031316,53.09999,-74.88734,-1.715808,1008.785
17.533989429,17.14394,-1.46505,-16.1332,-0.9687346,0.2731869,0.01921392,53.13727,-75.59947,-0.3993962,1008.783
17.568754196,24.08499,-0.8193192,-19.85059,-0.9571343,0.2849277,0.04681168,54.22626,-75.97595,-0.4113269,1008.783
17.601036072,24.95263,-1.171536,-25.57901,-0.9866597,0.2979176,0.04936637,54.22626,-75.97595,-0.4113269,1008.781
17.633317947,21.29618,-0.1735886,-30.14957,-0.9847164,0.2935629,0.0478871,54.61367,-76.33319,0.4592271,1008.781
17.668083191,16.52421,3.113767,-34.65918,-0.9740362,0.2771528,0.05163829,55.70464,-77.80322,0.4611444,1008.781
17.700365066,10.26487,3.524686,-36.18269,-1.066344,0.2350662,-0.008831907,55.70464,-77.80322,0.4611444,1008.779
17.735126018,12.55789,4.992256,-32.95284,-1.073801,0.1223444,0.006980152,57.16774,-77.81354,0.8748088,1008.778
17.767407894,17.02,6.283717,-28.32134,-0.9893566,0.01293138,0.06467212,57.51985,-78.55219,0.4427986,1008.778
17.802173138,34.99236,7.340367,-17.4739,-1.002867,-0.01142333,0.02927174,58.98361,-78.92703,0.8610792,1008.779
17.834455013,58.04657,4.22912,-9.490665,-1.053267,0.02169292,-0.00910644,58.98361,-78.92703,0.8610792,1008.779
17.866736889,84.7572,2.291928,-2.604366,-0.9747865,0.1602792,-0.021057,60.47133,-79.2906,2.150813,1008.778
17.901502132,73.2301,1.822306,-5.346698,-0.9880466,0.2571292,0.009495463,60.13583,-81.09792,3.050862,1008.778
17.933780670,49.12236,-1.171536,-15.15815,-1.067138,0.1497773,-0.04315586,60.13583,-81.09792,3.050862,1008.778
17.968544960,63.25235,-0.8193192,-14.36592,-0.9736775,0.09392155,-0.03980736,60.56052,-82.16727,5.237828,1008.779
18.000827789,81.84444,-3.519647,-14.60968,-0.9931598,0.1485043,-0.0529913,61.31137,-82.89302,6.107482,1008.779
18.035592079,79.30352,-3.519647,-18.14425,-1.033888,0.1982639,-0.04343526,61.31137,-82.89302,6.107482,1008.779
18.067874432,66.413,-2.404294,-22.10539,-1.019243,0.1431703,-0.03411131,61.33733,-83.9753,6.992785,1008.779
18.100156307,53.58446,-1.523752,-24.78678,-0.9950027,0.1205341,-0.02268973,62.11347,-85.41879,8.743123,1008.779
18.134917736,38.46289,1.822306,-25.88372,-1.034011,0.0345866,-0.07627261,62.11347,-85.41879,8.743123,1008.779
18.167199612,46.76736,2.702847,-17.59578,-0.9989689,-0.07872349,-0.12727,62.50088,-85.77603,9.613678,1008.779
18.201964378,71.86668,13.15194,3.489705,-0.9994804,-0.07346555,-0.1460931,63.26305,-86.13162,10.91444,1008.779
18.234246254,67.15668,29.2365,17.93265,-1.018726,0.03580487,-0.3010976,63.26305,-86.13162,10.91444,1008.779
18.266528129,50.23788,39.09857,20.5531,-1.044652,0.1473782,-0.3419831,63.66244,-86.48322,12.22072,1008.778
18.301293373,22.96947,51.01524,23.41731,-1.058227,0.1647855,-0.3346033,63.72369,-87.18408,14.40859,1008.778
18.333571434,-3.865127,61.46433,22.80791,-1.086173,0.1328643,-0.3057182,63.72369,-87.18408,14.40859,1008.778
18.368336677,8.963421,73.4984,18.603,-1.157613,0.05987552,-0.3635085,63.04608,-87.15357,16.16253,1008.776
18.400618076,39.82631,79.83829,11.412,-1.272414,0.1256659,-0.4160652,63.46811,-86.76487,18.33103,1008.776
18.435383320,29.10486,81.24716,-3.762239,-1.231726,0.136336,-0.3005504,63.46811,-86.76487,18.33103,1008.776
18.467665195,29.66262,60.17287,-6.138927,-1.33831,0.1015145,-0.06121651,62.77786,-86.37547,19.64463,1008.774
18.499947071,46.82933,52.4241,-8.820317,-1.086772,0.0151532,-0.1971291,62.12289,-85.60465,22.26079,1008.774
18.534708500,104.155,47.55177,3.97723,-1.195562,0.08666038,-0.5672855,62.12289,-85.60465,22.26079,1008.774
18.566989899,94.61102,36.51565,-11.13606,-1.050427,0.1284196,-0.3623829,61.81673,-83.74992,24.42186,1008.773
18.601755142,92.50391,39.56819,-11.31889,-0.9594758,0.1107824,-0.3602619,59.35855,-82.22449,27.49209,1008.777
18.634037018,107.5015,41.27057,-13.20805,-0.9347104,0.2490432,-0.4228596,59.35855,-82.22449,27.49209,1008.775
18.668802261,58.97617,46.0842,-25.76184,-0.9264003,0.181514,-0.5078633,57.99935,-79.97636,30.97227,1008.775
18.701084137,15.78052,45.20366,-25.88372,-0.9329727,0.01518681,-0.7461632,56.62818,-77.73387,34.01672,1008.775
18.733456135,16.83408,28.41466,-18.44895,-0.8857318,-0.1357483,-0.7717787,55.5958,-75.50664,36.18421,1008.771
18.768220901,43.8546,25.77304,-6.138927,-0.8672835,-0.08359183,-0.5331865,55.5958,-75.50664,36.18421,1008.77
18.800502777,71.06103,63.81244,-5.224816,-0.665957,0.1375481,-0.2785578,53.50767,-77.99488,39.2997,1008.77
18.835268021,48.99841,82.53863,-22.83668,-0.9481289,0.1092571,-0.6774309,47.39561,-88.48113,40.83451,1008.77
18.867549896,22.53565,60.99471,-21.61787,-0.9755998,0.004980358,-0.8660222,47.39561,-88.48113,40.83451,1008.77
18.899831772,64.55379,64.45817,-15.46285,-0.7609655,0.07620278,-0.7365183,46.01244,-86.24427,43.44323,1008.768
18.934593201,57.92262,89.87647,-13.57369,-0.6271848,0.1218522,-0.8022947,44.98734,-88.02671,45.6615,1008.768
18.966874599,22.41171,100.443,-20.03341,-0.5979124,-0.01332823,-0.8761256,44.98734,-88.02671,45.6615,1008.766
19.001639843,29.41473,119.1692,-13.20805,-0.5187797,-0.135432,-0.8460504,43.18677,-88.73016,46.13403,1008.76
19.033921719,46.51946,136.8974,-0.6542634,-0.4372835,-0.1771237,-0.6511539,41.30058,-89.47386,43.49423,1008.76
19.068686962,41.74749,154.3908,44.56374,-0.6340835,-0.2519511,-0.8600007,41.30058,-89.47386,43.49423,1008.759
19.100968838,89.52917,131.0858,29.57232,-0.7950653,-0.2551824,-0.8205136,38.32221,-86.19432,40.9447,1008.755
19.133246899,120.8878,109.6006,-3.030951,-0.8121129,-0.367112,-0.7055714,34.30579,-78.50126,40.47271,1008.755
19.168011665,123.9246,90.22869,-21.31316,-0.5277817,-0.1908407,-0.1951541,34.30579,-78.50126,40.47271,1008.754
19.200293541,38.8967,102.4976,-8.332792,-0.3710688,0.141991,-0.3594189,29.97792,-66.03731,42.12486,1008.754
19.235058784,-110.3359,104.6109,30.05985,-0.3770495,0.1441687,-0.5687225,26.69176,-54.33691,42.02679,1008.752
19.267340660,-162.9515,101.1474,37.79932,-0.3309852,-0.1351329,-0.6308398,26.69176,-54.33691,42.02679,1008.754
19.302105903,-173.549,80.54273,64.91793,-0.2695247,-0.2173342,-0.8064444,23.37089,-49.94936,40.27814,1008.752
19.334383488,-177.5773,74.32024,71.25577,-0.2057173,-0.1766777,-0.7154644,21.49708,-49.9576,38.12708,1008.748
19.366665363,-160.4106,57.29643,60.59114,-0.3432194,-0.3468284,-0.8287767,21.49708,-49.9576,38.12708,1008.748
19.401430607,-126.3251,20.6659,62.35843,-0.1457454,-0.4011963,-0.7598962,18.92168,-49.94658,36.85851,1008.747
19.468477726,-4.546837,26.30136,50.77969,-0.1402292,-0.2645612,-0.7146549,17.79673,-49.58701,35.56326,1008.743
19.500759601,23.96105,19.37444,46.69667,-0.1831358,-0.1268811,-0.7485871,16.69642,-49.58067,35.14408,1008.742
19.535520553,16.52421,5.9315,39.14002,-0.03003172,-0.17161,-0.5108361,15.97888,-47.37997,35.56314,1008.742
19.567803383,4.129476,-3.930567,24.08766,-0.3879112,-0.1762842,-0.587925,14.88592,-44.81639,35.54737,1008.74
19.600085258,324.9671,-22.77416,20.43122,-0.3309525,-1.11664,-2.236119,14.88592,-44.81639,35.54737,1008.738
19.634850025,100.4985,-47.01841,5.988274,0.1683777,-0.02784781,-1.668282,16.69716,-43.37827,35.50134,1008.738
19.667131901,5.245002,19.08092,-9.307843,-0.2079439,-0.4754941,-1.926722,17.75292,-38.6628,34.55333,1008.736
19.701897144,-9.256836,39.45079,-4.859172,-0.1366163,-0.2196734,-0.8952135,17.75292,-38.6628,34.55333,1008.736
19.768940449,-32.18709,-3.930567,-1.446493,-0.05935975,-0.1099606,-0.7154004,10.90074,-41.12172,35.99761,1008.733
19.801221847,-40.05774,3.465984,-2.0559,-0.06887222,-0.03363523,-0.8899508,10.90074,-41.12172,35.99761,1008.733
19.833503723,-42.9705,8.279613,0.1989065,-0.02710616,-0.1432052,-0.9854177,10.55392,-43.2992,36.46655,1008.731
19.868268967,-33.98432,16.90892,-0.6542634,-0.03115674,-0.06920472,-0.9936901,10.92001,-45.12576,36.48412,1008.731
19.900550842,-27.35315,14.97173,-3.396595,-0.03993738,-0.08469659,-1.131056,10.92001,-45.12576,36.48412,1008.731
19.935312271,-15.39223,14.67822,-3.82318,-0.0603453,-0.03141113,-1.097835,12.03826,-48.4071,37.38056,1008.731
19.967594147,-14.02881,13.68027,-3.030951,-0.0477935,0.01203189,-0.9980268,11.66548,-49.5023,36.9642,1008.731
19.999875546,-4.360916,11.80178,-2.726247,-0.01340947,-0.0003587324,-0.9706153,11.66548,-49.5023,36.9642,1008.734
20.034640789,1.83645,9.042748,-3.82318,-0.01927091,-0.005017334,-1.055231,12.03223,-51.69338,36.98638,1008.735
20.066922665,7.723948,8.573126,-3.82318,-0.03420359,-0.02436983,-1.041289,11.30734,-52.04992,37.00203,1008.735
20.101687908,15.53263,14.79562,0.4426693,-0.02497859,-0.02809705,-1.006523,11.30734,-52.04992,37.00203,1008.737
20.133965969,20.86236,17.90687,2.27089,-0.0244675,-0.048017,-1.030326,11.30866,-52.77895,37.01126,1008.737
20.168730736,15.53263,12.2714,3.672527,-0.02155173,-0.02644722,-0.9509251,10.94258,-50.95238,36.99369,1008.737
20.201012611,14.04526,5.168364,3.97723,0.1211104,-0.02646108,-0.932862,10.94258,-50.95238,36.99369,1008.737
20.233294487,11.38039,2.820253,4.586637,0.1391926,-0.1135793,-0.951767,10.91728,-50.23462,36.11301,1008.737
20.268059730,17.14394,1.822306,2.514653,0.03218769,-0.06511452,-0.9826843,11.62754,-48.42565,35.64317,1008.737
20.300341606,9.211315,1.587495,0.9911357,0.160461,-0.1423815,-1.04383,11.62754,-48.42565,35.64317,1008.735
20.335102558,0.2871087,-3.226133,-0.9589669,0.09943118,-0.09020622,-1.018263,11.25146,-47.69827,35.20373,1008.734
20.367384434,-17.99512,1.117872,-2.360603,0.02772593,-0.06460465,-1.114167,11.61357,-47.33774,35.1936,1008.734
20.402149677,-22.64315,-1.641158,-2.665307,0.03558019,-0.06311835,-0.9676937,11.23749,-46.61036,34.75415,1008.734
20.434431553,-11.48789,-4.928514,-1.141789,0.006194067,-0.08766846,-0.9044395,11.23749,-46.61036,34.75415,1008.738
20.466713905,-3.989074,-9.50733,-0.4714413,0.01344871,-0.08910769,-0.9068804,11.26344,-47.69263,35.63946,1008.738
20.501478672,-0.5805226,-9.213816,-0.4714413,0.01383398,-0.09195676,-1.034042,10.88868,-47.69427,35.20925,1008.734
20.533757210,4.37737,-2.815214,0.07702505,-0.005154843,-0.07007265,-1.129114,10.88868,-47.69427,35.20925,1008.734
20.568522453,4.625265,3.348578,0.4426693,-0.003236361,-0.04569869,-1.078218,12.32913,-48.4449,34.76069,1008.734
20.600804329,0.9688189,2.057117,0.6864321,-0.002204128,-0.0420054,-0.9887635,11.97701,-47.70624,35.1927,1008.734
20.635569096,-0.7044699,-2.815214,0.8692542,0.01530003,-0.06892131,-0.9493123,11.97701,-47.70624,35.1927,1008.734
20.667850971,0.1011877,-3.871864,0.5645507,0.02062579,-0.08695889,-0.9929359,11.97635,-47.34173,35.18808,1008.734
20.700132847,-0.3946016,0.2960336,0.01608434,0.02352054,-0.09381896,-1.020537,11.61357,-47.33774,35.1936,1008.734
20.734894276,-0.4565753,2.996361,-0.2276785,0.009475101,-0.08564536,-1.024328,11.61357,-47.33774,35.1936,1008.734
20.767176151,-1.200259,2.233225,-0.1667378,0.006031148,-0.05609117,-1.0111,12.70256,-47.71422,35.18167,1008.734
20.801940918,1.340661,-0.2909942,0.50361,0.005978045,-0.03920773,-1.026957,11.96437,-47.34736,34.75235,1008.732
20.834222794,3.075923,-0.9954275,0.9911357,0.03070161,-0.05891278,-1.007785,11.96437,-47.34736,34.75235,1008.73
20.866504669,0.2871087,-0.5258053,0.50361,0.02300625,-0.07440095,-1.002055,12.33913,-47.34571,35.18257,1008.73
20.901269913,-0.0847333,-1.406347,-0.04485636,0.01770414,-0.08021019,-0.998209,12.33913,-47.34571,35.18257,1008.73
20.933547974,2.022371,-0.4671025,0.01608434,0.01578475,-0.08748448,-1.001147,12.33913,-47.34571,35.18257,1008.73
20.968313217,2.518161,-1.523752,0.01608434,0.0191243,-0.06225155,-0.9836067,11.97635,-47.34173,35.18808,1008.73
21.000594616,4.253423,-1.347644,0.50361,0.01620308,-0.06429712,-1.013585,11.97701,-47.70624,35.1927,1008.73
21.035359859,1.278687,-1.993375,0.5645507,0.0181185,-0.061926,-1.029529,11.97701,-47.70624,35.1927,1008.73
21.067641735,2.022371,-0.8193192,0.5645507,0.00558214,-0.07745094,-1.030558,11.96569,-48.07639,34.76159,1008.73
21.099923611,0.4730297,-0.2909942,0.2598472,0.01342359,-0.0916551,-0.9446031,11.61357,-47.33774,35.1936,1008.73
21.134685040,2.518161,-1.112833,0.01608434,0.004653628,-0.08853328,-1.015632,11.61357,-47.33774,35.1936,1008.728
21.166966915,0.5350033,-1.641158,0.01608434,0.01286637,-0.08414295,-1.012241,11.97569,-46.97721,35.18347,1008.734
21.201731682,-1.696048,-1.641158,-0.04485636,0.01525093,-0.07450006,-1.02476,11.97635,-47.34173,35.18808,1008.734
21.234013557,-2.997495,-1.347644,-0.3495599,0.01578274,-0.07869677,-0.9783753,11.97635,-47.34173,35.18808,1008.734
21.268778801,-1.758022,1.352684,0.07702505,-0.0007078858,-0.07259849,-1.021331,11.97767,-48.07076,35.19732,1008.73
21.301060676,-1.076312,0.472142,0.1989065,0.004646617,-0.08269829,-1.00738,11.989,-47.70061,35.62843,1008.736
21.333338737,0.596977,-0.2909942,0.1989065,0.01673501,-0.07631205,-0.9894828,11.989,-47.70061,35.62843,1008.736
21.368103504,0.1631613,-0.05618304,0.07702505,0.01575421,-0.07490561,-1.002042,12.32846,-48.08038,34.75607,1008.736
21.400385380,-0.2086806,0.6482503,0.1379658,0.003651413,-0.07402146,-1.016514,12.35244,-48.06911,35.62753,1008.736
21.435150623,0.6589506,-0.9367247,0.3817286,0.008502437,-0.07687518,-1.005905,11.97701,-47.70624,35.1927,1008.736
21.467432499,0.411056,-1.46505,0.50361,0.0113742,-0.07063641,-1.023763,11.97701,-47.70624,35.1927,1008.736
21.502197742,-1.076312,-3.519647,0.1989065,0.01379674,-0.07451896,-1.029108,11.97569,-46.97721,35.18347,1008.736
21.534476280,-1.076312,-6.278677,0.07702505,-0.0001679896,-0.08848977,-0.998701,11.98966,-48.06512,35.63304,1008.734
21.566758156,0.7828979,-5.456839,-0.2276785,-0.01422363,-0.07009635,-0.9855132,11.98966,-48.06512,35.63304,1008.736
21.601523399,-3.679206,-7.041814,-0.2276785,0.0303073,-0.07857995,-0.9561676,11.61423,-47.70225,35.19822,1008.736
21.633805275,-0.3946016,-0.05618304,0.01608434,0.01282207,-0.07064374,-1.027151,12.35244,-48.06911,35.62753,1008.736
21.668570042,-0.5805226,1.998414,0.1989065,-0.01326393,-0.07794292,-1.016984,12.35244,-48.06911,35.62753,1008.736
21.700851917,-2.873548,0.1786281,-0.1057971,-0.01226198,-0.08170511,-0.9855835,11.62688,-48.06113,35.63856,1008.734
21.733150482,-2.191838,-0.4083997,-0.2276785,-0.01278369,-0.07502322,-1.012617,12.3531,-48.43363,35.63214,1008.734
21.767915726,-1.262233,0.4134392,-0.1667378,-0.00846076,-0.05802741,-0.9989934,12.3531,-48.43363,35.63214,1008.734
21.800197601,1.588556,0.7656559,0.2598472,0.00170192,-0.05894167,-0.9917688,12.00297,-48.78852,36.078,1008.734
21.834962845,3.323818,0.3547364,0.3817286,0.0002552326,-0.06821416,-1.013573,11.979,-48.79979,35.20655,1008.734
21.867244720,2.828029,0.3547364,0.1379658,-0.002145539,-0.07792423,-1.020875,11.979,-48.79979,35.20655,1008.732
21.902009964,1.092766,0.1199253,0.1989065,-0.005518994,-0.07446613,-0.9971594,11.989,-47.70061,35.62843,1008.731
21.934287548,0.225135,-0.2909942,-0.04485636,-0.003100307,-0.07250057,-0.9903853,12.71587,-48.43762,35.62663,1008.731
21.966569424,-0.9523646,-0.2322914,-0.1667378,0.001253683,-0.0759002,-0.9976657,12.71587,-48.43762,35.62663,1008.731
22.001334667,-2.253811,-0.2909942,-0.1057971,-0.004572088,-0.07014897,-1.009223,12.36442,-48.06348,36.06326,1008.729
22.033616543,-2.501706,0.002519742,-0.1667378,-0.001190887,-0.06624492,-1.00244,11.98966,-48.06512,35.63304,1008.731
22.068381786,-1.696048,0.1786281,-0.04485636,-0.002157188,-0.06624442,-1.001471,11.98966,-48.06512,35.63304,1008.729
22.100663185,-0.0847333,-0.1148858,0.2598472,-0.003612217,-0.06675542,-1.008239,11.98966,-48.06512,35.63304,1008.729
22.135424614,2.270266,-0.5258053,0.1379658,0.0002666162,-0.06914435,-1.002459,12.00098,-47.69497,36.06415,1008.731
22.167706490,1.278687,-0.6432108,-0.04485636,-0.01033884,-0.07685865,-0.9850766,12.00098,-47.69497,36.06415,1008.731
22.199988365,0.411056,1.411386,0.3817286,-0.01136855,-0.06490407,-1.026582,12.35244,-48.06911,35.62753,1008.736
22.234753609,-0.0847333,3.465984,-0.3495599,-0.002627294,-0.07547484,-1.011675,12.3531,-48.43363,35.63214,1008.736
22.267035484,4.997107,2.350631,0.2598472,-0.00310836,-0.06960192,-0.9918191,12.3531,-48.43363,35.63214,1008.736
22.301800251,4.811186,0.706953,0.1989065,0.004650013,-0.07535418,-0.9821997,12.3531,-48.43363,35.63214,1008.738
22.334078789,1.15474,0.7656559,0.07702505,-0.004569594,-0.07795735,-1.028605,12.71521,-48.0731,35.62201,1008.736
22.368843555,-0.7664436,2.409333,-0.1057971,-0.0006884726,-0.08131413,-1.022831,11.989,-47.70061,35.62843,1008.738
22.401125908,-0.02275964,0.5308447,-0.04485636,0.000315621,-0.08311276,-0.9832014,11.989,-47.70061,35.62843,1008.738
22.433407783,-0.02275964,-1.875969,0.2598472,0.002710355,-0.07929174,-1.000105,12.33913,-47.34571,35.18257,1008.738
22.468173027,-1.38618,-1.817266,0.1379658,0.001711736,-0.07356108,-1.021825,11.97701,-47.70624,35.1927,1008.738
22.500454903,-5.538415,-2.052078,-0.1667378,0.006561367,-0.06957919,-0.9932901,11.97701,-47.70624,35.1927,1008.736
22.535215855,-6.406047,-2.404294,-0.3495599,0.002210954,-0.07056277,-0.9942533,12.00032,-47.33046,36.05954,1008.736
22.567497730,-3.555258,-0.3496969,-0.1667378,0.000753302,-0.07401665,-1.01264,12.3531,-48.43363,35.63214,1008.738
22.599779606,-1.634075,0.9417642,-0.1057971,-0.006525851,-0.06339423,-1.013531,12.3531,-48.43363,35.63214,1008.738
22.634544849,0.411056,0.1786281,0.3817286,-0.006029568,-0.06236275,-0.9951558,12.73984,-48.42635,36.49808,1008.738
22.666826725,1.030793,-0.3496969,0.3817286,-0.001189096,-0.06379417,-0.9932405,12.7272,-48.06747,36.05774,1008.74
22.701591968,1.526582,-0.8193192,0.1989065,0.0007445653,-0.0652568,-0.9980874,12.7272,-48.06747,36.05774,1008.74
22.733869553,1.340661,-0.3496969,0.2598472,0.0002616618,-0.07160822,-1.015526,11.98966,-48.06512,35.63304,1008.742
22.768634796,-0.3946016,0.3547364,-0.1057971,-0.004093455,-0.0721226,-1.020838,12.36508,-48.42799,36.06787,1008.743
22.800916672,-0.5185489,0.472142,-0.2886192,-0.0040623,-0.07297089,-0.9855515,12.36508,-48.42799,36.06787,1008.743
22.833198547,0.7828979,-1.406347,-0.04485636,-0.005491086,-0.0763052,-0.968647,12.71455,-47.70858,35.6174,1008.743
22.867963791,1.588556,2.11582,0.07702505,-0.01234978,-0.06838606,-1.053673,11.62622,-47.69662,35.63394,1008.743
22.900245666,-0.9523646,3.17247,-0.3495599,0.007525668,-0.07447468,-1.010724,11.62622,-47.69662,35.63394,1008.745
22.935006618,1.464608,2.11582,0.07702505,-0.0006930042,-0.06960484,-0.994725,12.34111,-48.43926,35.19642,1008.745
22.967288494,0.9688189,-0.4671025,-0.2276785,0.008981822,-0.07004965,-0.9913644,12.72653,-47.70295,36.05312,1008.745
23.002053738,3.385792,0.4134392,0.1989065,0.002180111,-0.07069054,-1.031962,12.72653,-47.70295,36.05312,1008.747
23.034335613,2.951976,1.293981,0.2598472,-0.004571092,-0.07698621,-1.027632,12.71389,-47.34407,35.61278,1008.748
23.066617489,0.7209243,-0.1148858,0.1989065,-0.00792172,-0.07929759,-0.9928308,11.989,-47.70061,35.62843,1008.75
23.101382732,-1.943943,-1.347644,0.01608434,0.003694887,-0.07872806,-0.9773824,11.989,-47.70061,35.62843,1008.752
23.133660316,-3.679206,-0.4083997,-0.2276785,0.008993243,-0.07977572,-1.005439,12.36442,-48.06348,36.06326,1008.752
23.168425560,-1.510128,1.000467,-0.2886192,0.001704162,-0.0696831,-1.019869,11.98834,-47.33609,35.62381,1008.754
23.200707435,1.15474,-0.2909942,0.1379658,-0.002134798,-0.07250436,-0.9923212,12.72786,-48.43198,36.06236,1008.754
23.235472679,1.092766,-1.171536,0.3817286,-0.00698857,-0.07406007,-1.018909,12.72786,-48.43198,36.06236,1008.754
23.267754555,-1.014338,-1.582455,-0.04485636,0.0007498501,-0.06816691,-1.000038,11.989,-47.70061,35.62843,1008.754
23.300036907,-0.8903909,-2.11078,0.01608434,0.006578994,-0.07146084,-0.9773473,12.71587,-48.43762,35.62663,1008.754
23.334797859,-0.0847333,-0.9954275,0.07702505,0.0007598987,-0.07545533,-1.008781,12.71587,-48.43762,35.62663,1008.754
23.367079735,-1.076312,0.5308447,-0.1057971,-0.007959968,-0.07359201,-1.022771,12.71521,-48.0731,35.62201,1008.754
23.401844978,-2.315785,0.7656559,-0.2276785,-0.00408055,-0.06913714,-0.9966488,12.35177,-47.70459,35.62291,1008.748
23.434126854,-1.881969,-0.1735886,-0.04485636,-0.006510388,-0.06284151,-0.9932237,12.35177,-47.70459,35.62291,1008.75
23.468892097,-0.4565753,-0.1735886,0.07702505,0.001215355,-0.06188757,-1.00387,12.34111,-48.43926,35.19642,1008.75
23.501173973,0.9688189,0.2960336,0.1989065,-0.001198587,-0.06383348,-1.004843,12.36442,-48.06348,36.06326,1008.75
23.533451557,1.092766,0.1199253,0.07702505,0.002210619,-0.07447351,-1.005878,12.36442,-48.06348,36.06326,1008.75
23.568216801,0.5350033,0.002519742,0.07702505,0.003649771,-0.07011891,-1.007307,11.98966,-48.06512,35.63304,1008.75
23.600498676,-0.02275964,-0.1148858,-0.04485636,0.0002606241,-0.06525981,-0.9985699,12.3531,-48.43363,35.63214,1008.748
23.635263920,-1.076312,0.06122252,-0.04485636,0.0002681141,-0.07011548,-1.003432,12.3531,-48.43363,35.63214,1008.752
23.667545795,-0.7664436,0.1786281,0.07702505,-0.002141831,-0.07155617,-0.998117,12.71521,-48.0731,35.62201,1008.752
23.699827671,-0.2706543,0.06122252,-0.1057971,-0.001662928,-0.07499469,-1.013608,11.63953,-48.42002,36.0789,1008.752
23.734588623,0.3490823,0.06122252,-0.04485636,-0.002157044,-0.06917584,-1.009706,11.63953,-48.42002,36.0789,1008.752
23.766870499,0.7209243,0.1199253,-0.1667378,-0.002142269,-0.07204664,-1.000054,12.35244,-48.06911,35.62753,1008.754
23.801635742,-0.02275964,0.002519742,0.1379658,-0.003125903,-0.06674258,-1.004856,12.72653,-47.70295,36.05312,1008.754
23.833917618,-0.7044699,-0.05618304,0.07702505,-0.001177238,-0.07302975,-1.005379,12.72653,-47.70295,36.05312,1008.754
23.868682861,-0.8284172,-0.05618304,0.01608434,0.002688964,-0.07058431,-1.001022,12.00098,-47.69497,36.06415,1008.751
23.900964737,-0.3946016,-0.05618304,0.07702505,0.00171101,-0.06818872,-1.007291,11.98966,-48.06512,35.63304,1008.755
23.933242321,0.1631613,0.1199253,-0.04485636,-0.004092413,-0.06918628,-1.011152,11.98966,-48.06512,35.63304,1008.755
23.968007565,0.1011877,0.06122252,0.07702505,-0.001679136,-0.06577712,-1.006787,12.35244,-48.06911,35.62753,1008.755
24.000289440,0.1631613,0.002519742,0.2598472,-0.002162203,-0.06479917,-1.003396,11.98966,-48.06512,35.63304,1008.755
24.035054684,-0.0847333,0.1786281,0.07702505,-0.001662905,-0.07010791,-0.9995601,11.98966,-48.06512,35.63304,1008.755
24.067336559,-0.2706543,0.2960336,0.07702505,-0.002649224,-0.06383762,-1.00484,11.989,-47.70061,35.62843,1008.755
24.102101803,-0.146707,0.06122252,0.01608434,-0.003140636,-0.06338292,-1.013055,11.989,-47.70061,35.62843,1008.755
24.134379387,0.1011877,-0.1148858,0.01608434,0.001714443,-0.06964051,-1.0073,11.27543,-47.687,36.07518,1008.757
24.166661739,-0.0847333,0.06122252,0.1379658,0.001703874,-0.06382027,-1.003399,11.27543,-47.687,36.07518,1008.757
24.201426506,-0.2086806,0.06122252,-0.04485636,0.0002585634,-0.06624569,-1.003893,12.34045,-48.07475,35.1918,1008.755
24.233708858,-0.146707,0.1199253,0.07702505,-0.006011341,-0.07108329,-0.998106,12.36376,-47.69896,36.05864,1008.753
24.268474102,-0.0847333,-0.1148858,0.1989065,-0.0007002473,-0.07110085,-1.007786,12.36376,-47.69896,36.05864,1008.753
24.300755977,-0.146707,-0.05618304,0.1379658,-0.004574377,-0.06918111,-1.009217,11.989,-47.70061,35.62843,1008.751
24.335516929,-0.2706543,0.1199253,-0.04485636,-0.004080136,-0.07353345,-1.00876,12.36508,-48.42799,36.06787,1008.751
24.367798805,-0.146707,0.002519742,0.07702505,-0.003116892,-0.06768258,-0.9966426,12.36508,-48.42799,36.06787,1008.751
24.400080681,-0.332628,0.06122252,-0.04485636,-0.001680197,-0.06431551,-1.003878,12.35376,-48.79814,35.63676,1008.751
24.434845924,-0.0847333,0.1199253,0.1379658,-0.0002322861,-0.06383399,-1.005812,12.36442,-48.06348,36.06326,1008.75
24.467127800,0.1011877,0.2373309,0.07702505,0.001235559,-0.07059993,-1.004404,12.36442,-48.06348,36.06326,1008.75
24.501893043,-0.02275964,0.1786281,0.01608434,0.002675459,-0.0667309,-1.006319,12.00231,-48.42401,36.07338,1008.75
24.534170627,-0.146707,0.1199253,-0.1667378,-0.001673414,-0.06819676,-1.006801,12.36442,-48.06348,36.06326,1008.748
24.566452503,-0.2086806,0.002519742,0.2598472,0.001717919,-0.07060346,-1.005855,12.36442,-48.06348,36.06326,1008.748
24.601217747,-0.332628,0.1199253,0.07702505,-0.00118891,-0.06623673,-1.000023,11.63887,-48.0555,36.07428,1008.748
24.633499622,-0.02275964,0.1786281,-0.04485636,-0.002148865,-0.07060797,-1.003913,12.36442,-48.06348,36.06326,1008.748
24.668264866,-0.0847333,-0.05618304,-0.04485636,-0.002642711,-0.06625398,-1.003887,12.36442,-48.06348,36.06326,1008.748
24.700546741,0.1631613,0.06122252,0.01608434,-0.000706802,-0.06917332,-1.010193,12.7272,-48.06747,36.05774,1008.748
24.735307693,-0.146707,0.1199253,-0.1057971,0.0007398622,-0.06478761,-1.002436,12.7272,-48.06747,36.05774,1008.748
24.767589569,0.03921402,0.2373309,0.1989065,0.003162917,-0.06720199,-1.002938,12.7272,-48.06747,36.05774,1008.748
24.799871445,0.03921402,-0.1148858,0.07702505,-0.0002239635,-0.06819753,-1.008254,12.7272,-48.06747,36.05774,1008.748
24.834636688,-0.146707,-0.05618304,-0.3495599,0.002677041,-0.06672435,-1.004385,12.00098,-47.69497,36.06415,1008.752
24.866918564,-0.02275964,0.002519742,0.07702505,-0.001673019,-0.06819513,-1.006317,12.00098,-47.69497,36.06415,1008.752
24.901683807,-0.3946016,0.1199253,0.1379658,-0.0002241915,-0.0662438,-1.002925,11.98966,-48.06512,35.63304,1008.754
24.933961391,-0.0847333,0.7656559,0.1989065,-0.006984801,-0.07160111,-1.007292,12.00098,-47.69497,36.06415,1008.754
24.968726635,0.03921402,0.3547364,0.07702505,-0.002154983,-0.06818996,-1.004383,12.72786,-48.43198,36.06236,1008.754
25.001008511,1.216714,-0.5845081,0.07702505,0.001229088,-0.06769471,-1.003904,12.72786,-48.43198,36.06236,1008.752
25.033290386,1.092766,-0.5258053,0.1989065,0.002668695,-0.06724759,-1.01599,11.99032,-48.42964,35.63766,1008.752
25.068055630,-0.0847333,0.06122252,-0.2276785,0.002686466,-0.07206066,-1.008283,11.98966,-48.06512,35.63304,1008.752
25.100337505,-0.7664436,-0.1148858,-0.04485636,-0.0007079653,-0.06429145,-0.9975955,11.98966,-48.06512,35.63304,1008.752
25.135098457,-0.8284172,-0.2322914,0.07702505,-0.001665715,-0.07060822,-1.004397,12.00164,-48.05949,36.06877,1008.752
25.167380810,-0.7044699,-0.05618304,0.01608434,0.002193891,-0.06672409,-1.0039,12.00098,-47.69497,36.06415,1008.748
25.202146053,-0.2086806,0.06122252,0.01608434,0.002680121,-0.06768892,-1.003423,12.00098,-47.69497,36.06415,1008.748
25.234427929,0.411056,0.002519742,0.2598472,-0.001200001,-0.06188465,-1.000965,12.72786,-48.43198,36.06236,1008.751
25.266709804,0.4730297,0.1199253,-0.1057971,0.0002516131,-0.0643198,-1.006783,13.07865,-48.4416,35.62111,1008.751
25.301475048,0.1631613,0.06122252,0.1379658,0.004623459,-0.07155482,-1.003449,13.07865,-48.4416,35.62111,1008.751
25.333752632,-0.332628,-0.05618304,-0.1667378,0.004128511,-0.06622808,-1.001968,12.35244,-48.06911,35.62753,1008.75
25.368517876,-0.332628,0.002519742,-0.1057971,-0.003606681,-0.06673249,-1.001471,12.3631,-47.33445,36.05402,1008.75
25.400799751,-0.2706543,-0.05618304,-0.04485636,-0.003124801,-0.06771535,-1.006312,12.3631,-47.33445,36.05402,1008.751
25.433081627,0.2871087,0.1786281,-0.04485636,0.001229483,-0.06769307,-1.00342,12.36508,-48.42799,36.06787,1008.751
25.467846870,0.1631613,0.1786281,0.01608434,-0.002150321,-0.06914799,-1.001487,11.62622,-47.69662,35.63394,1008.751
25.500128746,-0.146707,-0.1735886,0.01608434,-0.003611384,-0.0662633,-1.005819,11.62622,-47.69662,35.63394,1008.751
25.534889698,-0.02275964,0.1786281,0.07702505,-0.002644958,-0.06479728,-1.002428,12.35244,-48.06911,35.62753,1008.751
25.567171574,-0.2086806,0.002519742,-0.04485636,0.002671589,-0.0657696,-1.008247,12.70323,-48.07874,35.18629,1008.751
25.601936817,-0.2086806,0.06122252,0.01608434,0.002675417,-0.06721974,-1.007772,12.70323,-48.07874,35.18629,1008.75
25.634218693,0.3490823,0.002519742,0.1989065,-0.0007100679,-0.06576617,-1.004372,12.36508,-48.42799,36.06787,1008.75
25.666500568,-0.02275964,-0.1148858,0.07702505,-0.0002173668,-0.06963621,-1.004395,11.62688,-48.06113,35.63856,1008.748
25.701265812,0.1011877,0.06122252,0.01608434,0.0007495572,-0.07158881,-1.010209,11.62688,-48.06113,35.63856,1008.748
25.733543396,-0.2706543,0.1786281,0.01608434,-0.0007096724,-0.06576453,-1.003888,12.3531,-48.43363,35.63214,1008.748
25.768308639,-0.146707,0.002519742,0.07702505,-0.001183416,-0.06670264,-0.9947075,12.36442,-48.06348,36.06326,1008.748
25.800590515,0.1631613,-0.05618304,0.2598472,-0.0007043877,-0.06867465,-1.005839,12.36442,-48.06348,36.06326,1008.748
25.835355759,-0.02275964,-0.1148858,0.01608434,0.0007286042,-0.0623909,-1.00919,12.35244,-48.06911,35.62753,1008.745
25.867637634,-0.146707,0.002519742,-0.04485636,0.00171361,-0.07013264,-1.00972,12.70323,-48.07874,35.18629,1008.745
25.899919510,-0.2706543,-0.05618304,0.01608434,-0.003115082,-0.06962977,-1.000038,12.70323,-48.07874,35.18629,1008.745
25.934680462,-0.0847333,0.1199253,0.1379658,-0.0007150829,-0.06432094,-1.006297,12.36442,-48.06348,36.06326,1008.743
25.966962337,0.1631613,0.1786281,0.1379658,-0.0007174135,-0.06384192,-1.007745,12.35177,-47.70459,35.62291,1008.743
26.001727581,0.1011877,-0.05618304,-0.1057971,0.001232479,-0.06963535,-1.005365,12.35376,-48.79814,35.63676,1008.743
26.034009933,0.1011877,0.002519742,-0.1667378,0.0031568,-0.06478397,-1.003408,12.35376,-48.79814,35.63676,1008.743
26.068774700,-0.146707,0.002519742,0.1379658,0.0002620803,-0.06671979,-1.000995,12.35177,-47.70459,35.62291,1008.745
26.101057053,-0.2086806,0.06122252,0.07702505,-0.001185914,-0.068179,-1.001967,11.6382,-47.69098,36.06967,1008.746
26.133335114,0.03921402,-0.1148858,-0.04485636,0.0007466447,-0.06866886,-1.005358,11.6382,-47.69098,36.06967,1008.748
26.168099880,-0.2706543,0.002519742,0.2598472,-0.0002359705,-0.06531525,-1.014523,12.36442,-48.06348,36.06326,1008.748
26.200381756,0.1011877,0.002519742,0.3207878,0.0002562326,-0.06576668,-1.005341,12.00164,-48.05949,36.06877,1008.746
26.235146999,-0.0847333,-0.1148858,0.07702505,-0.001185207,-0.06915341,-1.003907,12.00164,-48.05949,36.06877,1008.746
26.267428875,0.03921402,0.06122252,0.07702505,0.00171228,-0.06720613,-1.002935,11.98966,-48.06512,35.63304,1008.746
26.299710750,-0.2086806,0.2373309,0.07702505,0.0002589169,-0.0667329,-1.004863,12.00164,-48.05949,36.06877,1008.745
26.334471702,-0.332628,0.002519742,0.01608434,-0.001680467,-0.06285062,-1.000002,12.00164,-48.05949,36.06877,1008.745
26.366753578,-0.146707,0.1199253,0.07702505,-0.002643897,-0.0662589,-1.005337,12.36442,-48.06348,36.06326,1008.745
26.401518822,-0.2086806,-0.1148858,0.01608434,-0.0002226098,-0.06623724,-1.000991,12.36376,-47.69896,36.05864,1008.745
26.433800697,-0.02275964,0.002519742,0.1379658,0.004144263,-0.07153819,-0.9981304,12.36376,-47.69896,36.05864,1008.745
26.468565941,-0.5805226,1.05917,-0.04485636,0.002666574,-0.06432436,-1.010172,11.98834,-47.33609,35.62381,1008.745
26.500847816,-1.324206,1.528792,-0.1667378,-0.001214092,-0.06487504,-1.026604,12.71587,-48.43762,35.62663,1008.745
26.533125400,0.8448716,1.05917,0.1989065,0.004129032,-0.06475991,-0.997125,12.71587,-48.43762,35.62663,1008.743
26.567890644,4.191449,-0.2909942,0.50361,0.001215918,-0.05993056,-0.9975748,12.00098,-47.69497,36.06415,1008.743
26.600172520,5.368949,-0.2322914,0.6864321,0.004599175,-0.06432538,-1.01211,12.72653,-47.70295,36.05312,1008.743
26.634937763,3.137897,0.06122252,0.5645507,0.00173521,-0.07639585,-1.001537,12.72653,-47.70295,36.05312,1008.743
26.667219639,-0.0847333,-0.1148858,0.1379658,0.0002994087,-0.08317992,-1.003023,11.98966,-48.06512,35.63304,1008.745
26.701984882,-2.811574,-0.3496969,-0.1667378,0.001238262,-0.07596409,-1.01652,11.989,-47.70061,35.62843,1008.745
26.734262466,-3.369337,-0.5258053,-0.3495599,0.000258354,-0.06868991,-1.011159,11.989,-47.70061,35.62843,1008.745
26.766544342,-2.439732,-0.6432108,-0.2276785,-0.002153899,-0.06476478,-0.993244,12.00098,-47.69497,36.06415,1008.743
26.801309586,-1.696048,-0.4083997,-0.1667378,0.001696091,-0.0623865,-1.008709,11.98834,-47.33609,35.62381,1008.743
26.833591461,-2.06789,0.2373309,-0.1057971,-0.002649121,-0.06725788,-1.014528,11.98834,-47.33609,35.62381,1008.742
26.868356705,-2.005917,0.5895475,-0.2886192,0.004601673,-0.06284903,-1.00485,12.36442,-48.06348,36.06326,1008.742
26.900638580,-0.7664436,0.1199253,-0.1057971,-0.002658816,-0.06045667,-1.006755,12.36508,-48.42799,36.06787,1008.742
26.935399532,1.216714,-0.1735886,0.1989065,0.003624989,-0.05947084,-1.006763,12.35244,-48.06911,35.62753,1008.738
26.967681408,2.394213,0.1199253,0.3817286,0.005567309,-0.06138628,-1.002427,12.35244,-48.06911,35.62753,1008.738
26.999963760,1.402635,-0.1735886,0.1989065,0.006545969,-0.06475628,-0.9980971,12.71653,-48.80213,35.63124,1008.738
27.034729004,-0.4565753,0.1786281,-0.1057971,0.001233228,-0.07012092,-1.005851,12.36376,-47.69896,36.05864,1008.742
27.067010880,-0.8284172,0.5308447,-0.1667378,-0.003613528,-0.06822686,-1.014048,12.36376,-47.69896,36.05864,1008.742
27.101776123,0.1631613,0.1199253,-0.04485636,-0.004086751,-0.06769681,-1.000025,12.35244,-48.06911,35.62753,1008.742
27.134054184,1.340661,0.06122252,0.07702505,-0.0002438558,-0.06046123,-1.010144,12.3531,-48.43363,35.63214,1008.742
27.166336060,1.464608,-0.1148858,0.01608434,0.002672505,-0.06429979,-1.002921,12.3531,-48.43363,35.63214,1008.74
27.201100826,0.1631613,0.002519742,0.01608434,0.005099659,-0.06962919,-1.006824,12.7272,-48.06747,36.05774,1008.742
27.233382702,-0.6424962,0.002519742,0.07702505,0.003661299,-0.07398051,-1.004428,12.00164,-48.05949,36.06877,1008.742
27.268147945,-0.9523646,-0.3496969,-0.2276785,0.00655733,-0.07057326,-1.001031,12.00164,-48.05949,36.06877,1008.74
27.300429821,-1.200259,-0.4671025,-0.1667378,-0.001673372,-0.06770792,-1.005348,12.00164,-48.05949,36.06877,1008.74
27.335191250,-1.076312,0.1786281,-0.1667378,0.000745333,-0.07014031,-1.011168,11.65085,-48.04987,36.51001,1008.74
27.367472648,-0.3946016,0.1199253,0.07702505,-0.002662291,-0.05949373,-1.0082,11.65085,-48.04987,36.51001,1008.74
27.399754524,0.4730297,-0.1735886,0.07702505,0.0002477427,-0.0633585,-1.008711,12.36442,-48.06348,36.06326,1008.74
27.434519768,0.4730297,-0.05618304,-0.04485636,0.003642863,-0.06770418,-1.008743,13.11394,-48.06018,36.92368,1008.74
27.466801643,0.3490823,0.1786281,-0.04485636,-0.0007188277,-0.0618931,-1.003866,13.11394,-48.06018,36.92368,1008.74
27.501566887,0.3490823,0.06122252,0.1379658,0.002197491,-0.06622051,-0.998096,12.35244,-48.06911,35.62753,1008.74
27.533844471,-0.2706543,0.002519742,0.07702505,-0.003591678,-0.07155703,-0.9971471,12.37707,-48.42236,36.5036,1008.742
27.568609714,-0.4565753,0.1199253,-0.04485636,-0.001186352,-0.06866948,-1.003904,12.37707,-48.42236,36.5036,1008.742
27.600891590,-0.146707,-0.1735886,-0.1057971,0.001712029,-0.07013918,-1.011654,12.3531,-48.43363,35.63214,1008.742
27.633173466,-0.146707,0.06122252,0.07702505,-0.001687584,-0.0628801,-1.008704,11.98966,-48.06512,35.63304,1008.742
27.667938709,0.225135,0.06122252,-0.1057971,-0.0007146455,-0.06383046,-1.004361,11.98966,-48.06512,35.63304,1008.743
27.700220585,0.5350033,-0.05618304,0.01608434,-0.001678429,-0.06675153,-1.008726,12.00098,-47.69497,36.06415,1008.743
27.734981537,0.5350033,0.1199253,0.1989065,0.0007504735,-0.07011902,-1.004883,12.70389,-48.44325,35.1909,1008.743
27.767263412,0.225135,0.1786281,-0.04485636,0.0007373639,-0.06626397,-1.009696,12.36442,-48.06348,36.06326,1008.743
27.802028656,-0.332628,0.06122252,0.07702505,0.001215667,-0.06286362,-1.006293,12.36442,-48.06348,36.06326,1008.745
27.834310532,-0.7044699,-0.1148858,-0.04485636,-0.001196256,-0.06431249,-1.003396,12.01297,-47.68934,36.49988,1008.747
27.866592884,-0.7664436,0.002519742,-0.04485636,0.003644611,-0.06574226,-1.000997,12.00098,-47.69497,36.06415,1008.748
27.901357651,-0.0847333,-0.1148858,0.07702505,0.003655535,-0.07204971,-1.005867,12.00098,-47.69497,36.06415,1008.748
27.933636188,0.3490823,0.002519742,0.2598472,0.001222096,-0.06625767,-1.008246,12.71455,-47.70858,35.6174,1008.748
27.968401432,0.7209243,-0.1148858,0.1379658,0.001228651,-0.0681852,-1.00584,12.00164,-48.05949,36.06877,1008.748
28.000683308,0.411056,0.002519742,0.01608434,0.001701501,-0.06383009,-1.0063,12.00164,-48.05949,36.06877,1008.748
28.032964706,-0.02275964,-0.1148858,-0.04485636,-0.003125549,-0.06722979,-1.005825,12.00164,-48.05949,36.06877,1008.75
28.067729950,-0.2706543,0.06122252,0.01608434,0.002672817,-0.06527583,-1.005343,11.99098,-48.79416,35.64227,1008.75
28.100011826,-0.2706543,0.002519742,-0.04485636,-0.0007015778,-0.06817434,-1.001001,11.99098,-48.79416,35.64227,1008.75
28.134773254,0.03921402,0.002519742,0.07702505,0.00121034,-0.06044234,-1.005796,11.98966,-48.06512,35.63304,1008.755
28.167055130,0.2871087,-0.1148858,0.01608434,0.002188252,-0.06332676,-1.00098,11.62622,-47.69662,35.63394,1008.755
28.201819897,0.1011877,0.002519742,0.01608434,0.005584786,-0.06962126,-1.004891,11.62622,-47.69662,35.63394,1008.755
28.234171867,0.03921402,0.06122252,0.1379658,0.003165331,-0.06670331,-0.9985843,11.62622,-47.69662,35.63394,1008.755
28.266453743,-0.146707,0.002519742,-0.04485636,0.0002577725,-0.06624897,-1.00486,11.99032,-48.42964,35.63766,1008.755
28.301218986,0.1011877,0.06122252,0.07702505,-0.001190701,-0.0686875,-1.009222,11.99032,-48.42964,35.63766,1008.755
28.333497524,0.03921402,0.002519742,0.01608434,-0.002650494,-0.06482022,-1.009197,12.35244,-48.06911,35.62753,1008.755
28.368261814,-0.02275964,-0.1148858,0.1989065,0.001227153,-0.06721406,-1.004868,12.00098,-47.69497,36.06415,1008.755
28.400544643,-0.2706543,0.1786281,-0.1057971,0.002685406,-0.07059906,-1.005374,12.00098,-47.69497,36.06415,1008.75
28.435308933,-0.0847333,0.06122252,0.01608434,-0.0007138547,-0.06382718,-1.003394,12.3531,-48.43363,35.63214,1008.75
28.467591286,0.03921402,-0.2322914,0.07702505,0.001703748,-0.06528679,-1.007758,12.35244,-48.06911,35.62753,1008.75
28.499873161,-0.02275964,-0.1735886,-0.1667378,-0.0007178508,-0.0643324,-1.009682,12.35244,-48.06911,35.62753,1008.748
28.534634590,-0.02275964,-0.1148858,-0.1057971,0.004608414,-0.06721913,-1.009226,12.36376,-47.69896,36.05864,1008.748
28.566916466,-0.02275964,0.1786281,0.1379658,-0.0002296019,-0.0648002,-1.005334,11.63887,-48.0555,36.07428,1008.748
28.601681232,-0.02275964,0.06122252,-0.04485636,-0.001190576,-0.06722097,-1.004863,11.63887,-48.0555,36.07428,1008.747
28.633963108,0.1011877,-0.1148858,0.01608434,-0.003134788,-0.06433603,-1.008709,12.35244,-48.06911,35.62753,1008.747
28.668728352,-0.02275964,-0.1148858,0.01608434,0.004121039,-0.06577037,-1.0097,11.6382,-47.69098,36.06967,1008.747
28.701010227,0.1011877,0.06122252,0.07702505,0.001697151,-0.06384811,-1.011618,12.37574,-47.69333,36.49437,1008.747
28.733288288,0.1011877,0.1786281,-0.04485636,0.002689192,-0.07253804,-1.006352,12.37574,-47.69333,36.49437,1008.747
28.768053532,-0.0847333,-0.05618304,0.01608434,-0.001200355,-0.06139745,-0.9999951,12.36574,-48.79251,36.07249,1008.747
28.800334930,0.1011877,0.002519742,0.07702505,0.0007313721,-0.06237943,-1.005806,12.36508,-48.42799,36.06787,1008.747
28.835100174,-0.146707,0.002519742,-0.1057971,-0.00314178,-0.06289899,-1.013052,12.36508,-48.42799,36.06787,1008.745
28.867382050,-0.2086806,0.06122252,-0.04485636,0.0002638482,-0.06915582,-1.005844,11.62688,-48.06113,35.63856,1008.745
28.902147293,-0.02275964,0.06122252,0.07702505,0.003641323,-0.06722189,-1.009224,12.36508,-48.42799,36.06787,1008.743
28.934425354,0.1631613,-0.2322914,0.07702505,0.0007416718,-0.06673479,-1.005831,12.36508,-48.42799,36.06787,1008.743
28.966707230,0.1631613,-0.1148858,0.07702505,0.0007368243,-0.06333419,-1.001944,12.3531,-48.43363,35.63214,1008.743
29.001471996,-0.02275964,0.06122252,0.1989065,0.001711406,-0.06818708,-1.006808,12.71455,-47.70858,35.6174,1008.739
29.033753872,-0.02275964,0.2960336,0.1379658,0.001219807,-0.06528981,-1.008241,12.71455,-47.70858,35.6174,1008.739
29.068519115,0.03921402,0.06122252,0.07702505,0.001701189,-0.06285404,-1.003877,12.36508,-48.42799,36.06787,1008.739
29.100800991,0.1011877,-0.1735886,0.07702505,-0.004575666,-0.06576576,-1.000979,12.71455,-47.70858,35.6174,1008.739
29.133079052,0.03921402,-0.05618304,0.01608434,0.003148621,-0.06335185,-1.009201,12.71455,-47.70858,35.6174,1008.739
29.167843819,-0.332628,-0.05618304,0.07702505,0.0007326421,-0.06139683,-1.00145,12.36442,-48.06348,36.06326,1008.741
29.200125694,0.03921402,0.002519742,0.07702505,-0.001678969,-0.06382176,-1.000975,12.36376,-47.69896,36.05864,1008.741
29.234890938,-0.146707,-0.1735886,0.01608434,0.0007301439,-0.06287319,-1.008709,12.36376,-47.69896,36.05864,1008.741
29.267172813,-0.2086806,-0.05618304,0.07702505,0.001213648,-0.06336065,-1.010164,12.36442,-48.06348,36.06326,1008.741
29.301938057,-0.3946016,0.1786281,-0.04485636,0.003645235,-0.06769435,-1.005843,12.7272,-48.06747,36.05774,1008.741
29.334215641,-0.146707,0.06122252,0.07702505,0.00363995,-0.06478423,-1.003892,12.7272,-48.06747,36.05774,1008.741
29.366498470,0.1631613,-0.1735886,0.1379658,-0.002150987,-0.06768473,-0.998095,12.7272,-48.06747,36.05774,1008.741
29.401263714,0.225135,-0.05618304,0.01608434,0.003146644,-0.06336004,-1.011618,11.62688,-48.06113,35.63856,1008.741
29.433545589,0.03921402,-0.1148858,0.1989065,0.0007449795,-0.0696531,-1.010198,11.62688,-48.06113,35.63856,1008.739
29.468310356,-0.332628,0.1199253,-0.1057971,-0.0007177253,-0.06286587,-1.005322,11.989,-47.70061,35.62843,1008.739
29.500592232,-0.2086806,0.1199253,0.07702505,-0.0007176833,-0.06237703,-1.003869,12.01363,-48.05386,36.50449,1008.738
29.535353660,0.2871087,-0.05618304,0.01608434,-0.007001759,-0.06189797,-0.9999854,12.34177,-48.80378,35.20103,1008.739
29.567635536,0.225135,-0.05618304,0.07702505,-0.002151903,-0.06915454,-1.003421,12.34177,-48.80378,35.20103,1008.739
29.599917412,0.225135,-0.05618304,0.01608434,-0.0002237542,-0.06575332,-1.000989,12.36574,-48.79251,36.07249,1008.739
29.634682178,0.1011877,0.1199253,0.01608434,0.000747873,-0.06817511,-1.002455,12.00164,-48.05949,36.06877,1008.741
29.666964054,0.2871087,0.1786281,-0.1057971,0.00316275,-0.06915735,-1.00875,12.00164,-48.05949,36.06877,1008.741
29.701729298,-0.02275964,-0.1735886,0.1989065,0.00315632,-0.06576329,-1.006797,12.3531,-48.43363,35.63214,1008.741
29.734007358,0.1011877,0.06122252,0.07702505,0.006057679,-0.06477731,-1.003897,12.3531,-48.43363,35.63214,1008.741
29.768772602,0.1011877,-0.1148858,-0.1667378,-0.001195861,-0.06431085,-1.002912,12.3531,-48.43363,35.63214,1008.741
29.801054001,-0.0847333,0.06122252,0.07702505,-0.003626033,-0.06192596,-1.011112,12.73918,-48.06183,36.49347,1008.743
29.833335876,-0.02275964,0.1199253,0.2598472,0.00219543,-0.06720638,-1.00342,12.71521,-48.0731,35.62201,1008.743
29.868101120,-0.2706543,0.1786281,0.01608434,-0.002154587,-0.06818832,-1.003899,12.71521,-48.0731,35.62201,1008.743
29.900382996,0.225135,-0.2322914,0.1379658,-0.0007146874,-0.0643193,-1.005814,12.3531,-48.43363,35.63214,1008.743
29.935144424,0.03921402,-0.05618304,0.1989065,0.004604232,-0.06528177,-1.008731,12.71587,-48.43762,35.62663,1008.743
29.967426300,0.2871087,-0.1735886,0.01608434,-0.000717018,-0.06384028,-1.007262,12.71587,-48.43762,35.62663,1008.739
29.999707699,-0.146707,-0.05618304,0.1379658,0.003162168,-0.06671642,-1.002452,12.36442,-48.06348,36.06326,1008.739
30.034472942,-0.0847333,0.2373309,-0.1057971,0.004597886,-0.06091003,-1.003872,11.98966,-48.06512,35.63304,1008.737
30.066754818,-0.2086806,0.1199253,0.07702505,-0.002169153,-0.0628733,-1.006286,11.98966,-48.06512,35.63304,1008.739
30.101520062,-0.02275964,-0.1148858,-0.04485636,0.003161461,-0.065742,-1.000513,11.97635,-47.34173,35.18808,1008.739
30.133798122,0.1631613,0.1786281,0.01608434,0.0007417973,-0.06526826,-1.001472,12.36508,-48.42799,36.06787,1008.735
30.168562889,0.1011877,-0.1148858,0.07702505,-0.003598628,-0.06963114,-1.000037,12.36508,-48.42799,36.06787,1008.735
30.200844765,0.1011877,0.002519742,0.07702505,0.001711052,-0.06769988,-1.005838,12.36376,-47.69896,36.05864,1008.734
30.233126640,-0.2086806,0.1199253,-0.04485636,0.007024999,-0.06672829,-1.009228,11.98966,-48.06512,35.63304,1008.734
30.267891884,-0.4565753,0.1786281,0.1989065,0.000250906,-0.0633454,-1.004844,11.98966,-48.06512,35.63304,1008.738
30.300173759,0.225135,0.002519742,0.01608434,0.0002532367,-0.06382442,-1.003396,12.00164,-48.05949,36.06877,1008.739
30.334934711,0.03921402,0.1786281,0.01608434,-0.0007096305,-0.06527568,-1.002435,12.36508,-48.42799,36.06787,1008.739
30.367216587,0.225135,-0.05618304,0.01608434,0.002671319,-0.0643047,-1.004371,12.36508,-48.42799,36.06787,1008.739
30.401981830,-0.2706543,-0.1148858,-0.04485636,0.006537209,-0.06088321,-0.9975917,11.99032,-48.42964,35.63766,1008.735
30.434264660,-0.7664436,0.1199253,-0.1057971,0.002687862,-0.06961154,-0.9995667,12.72852,-48.7965,36.06697,1008.735
30.466546059,-0.2706543,0.8243586,0.01608434,-0.001668483,-0.07061969,-1.007782,12.72852,-48.7965,36.06697,1008.735
30.501311302,-0.3946016,0.3547364,-0.1057971,-0.001199066,-0.06481279,-1.008233,12.01363,-48.05386,36.50449,1008.735
30.533589363,1.650529,-0.2322914,0.1989065,0.00267211,-0.06430142,-1.003404,12.36442,-48.06348,36.06326,1008.737
30.568354607,2.704082,-0.2909942,0.3207878,0.004108181,-0.05898226,-1.005794,12.00164,-48.05949,36.06877,1008.737
30.600636482,0.6589506,-0.1735886,0.1379658,0.00655017,-0.07109158,-1.011186,12.00164,-48.05949,36.06877,1008.739
30.635401249,-1.014338,-0.4671025,-0.1057971,0.001730446,-0.07201756,-0.994744,12.71587,-48.43762,35.62663,1008.739
30.667683124,-1.448154,-0.2322914,-0.1057971,0.002197677,-0.06866308,-1.004878,12.3531,-48.43363,35.63214,1008.739
30.699965000,-1.510128,-0.1735886,-0.4105006,0.0007389039,-0.06674626,-1.009215,12.3531,-48.43363,35.63214,1008.739
30.734726429,-1.200259,-0.1148858,-0.1057971,0.001702771,-0.06284749,-1.001943,12.00032,-47.33046,36.05954,1008.739
30.767008305,-0.2706543,0.06122252,0.07702505,-0.005078564,-0.06096061,-1.01062,12.36574,-48.79251,36.07249,1008.739
30.801773071,0.7209243,-0.1148858,-0.1057971,0.0002549208,-0.06723812,-1.01115,12.36574,-48.79251,36.07249,1008.739
30.834054947,1.340661,0.002519742,0.1989065,0.0007312884,-0.06335712,-1.008712,12.01297,-47.68934,36.49988,1008.739
30.866336822,0.7209243,0.06122252,0.1379658,-0.0002318908,-0.06383235,-1.005329,12.72786,-48.43198,36.06236,1008.739
30.901102066,0.1011877,0.06122252,0.07702505,0.002191248,-0.06526903,-1.002925,12.72786,-48.43198,36.06236,1008.739
30.933380127,-0.2706543,0.1199253,-0.04485636,-0.0002245451,-0.0657566,-1.001956,12.36508,-48.42799,36.06787,1008.739
30.968145370,-0.0847333,0.002519742,0.01608434,0.005094686,-0.06769511,-1.007296,12.35244,-48.06911,35.62753,1008.745
31.000426769,-0.0847333,-0.1735886,-0.1667378,-0.001200126,-0.06335118,-1.005324,12.35244,-48.06911,35.62753,1008.745
31.035192013,-0.0847333,0.002519742,0.1379658,0.0002547347,-0.06479555,-1.004369,12.00231,-48.42401,36.07338,1008.745
31.067473888,-0.146707,0.1786281,0.1989065,0.002672817,-0.06527583,-1.005343,11.989,-47.70061,35.62843,1008.746
31.099755764,-0.0847333,0.1786281,0.07702505,0.004604711,-0.06430245,-1.005342,11.989,-47.70061,35.62843,1008.748
31.134517193,0.3490823,0.06122252,0.1379658,0.004136521,-0.06961558,-1.001987,12.00164,-48.05949,36.06877,1008.75
31.166799068,0.411056,-0.1735886,0.01608434,0.001235164,-0.07060157,-1.004887,12.00164,-48.05949,36.06877,1008.75
31.201563835,0.3490823,-0.05618304,0.07702505,0.002185838,-0.06382544,-1.005334,12.00164,-48.05949,36.06877,1008.75
31.233845711,-0.0847333,0.06122252,0.01608434,0.001707493,-0.06771462,-1.010189,11.99032,-48.42964,35.63766,1008.746
31.268610954,-0.4565753,0.1786281,-0.04485636,0.001240574,-0.07204515,-1.002478,11.99098,-48.79416,35.64227,1008.75
31.300892830,-0.2086806,-0.1148858,-0.04485636,0.003164936,-0.06670495,-0.9990678,11.99098,-48.79416,35.64227,1008.746
31.333170891,-0.02275964,-0.1735886,0.1989065,0.002671901,-0.06674564,-1.010669,12.00164,-48.05949,36.06877,1008.746
31.367935657,0.1011877,0.1199253,0.1379658,0.003642425,-0.06819466,-1.01068,12.35177,-47.70459,35.62291,1008.746
31.400217533,-0.02275964,-0.05618304,0.01608434,-0.006034127,-0.06482498,-1.007739,12.35177,-47.70459,35.62291,1008.746
31.434982777,-0.0847333,0.002519742,-0.04485636,-0.0007264851,-0.05899281,-1.004817,12.72786,-48.43198,36.06236,1008.746
31.467265129,0.03921402,0.1199253,0.07702505,-0.002153797,-0.06818505,-1.002932,12.7272,-48.06747,36.05774,1008.746
31.502029896,0.5350033,-0.1148858,0.01608434,0.0007359916,-0.06382631,-1.004364,12.71521,-48.0731,35.62201,1008.746
31.534308433,0.2871087,-0.05618304,0.1379658,0.0007290833,-0.06141157,-1.005801,12.71521,-48.0731,35.62201,1008.746
31.566590309,0.4730297,0.1199253,0.1379658,0.006545676,-0.06817818,-1.008269,11.97635,-47.34173,35.18808,1008.746
31.601355553,-0.2086806,0.06122252,0.07702505,-0.0006943997,-0.07205395,-1.003441,12.34111,-48.43926,35.19642,1008.747
31.633637428,-0.3946016,0.002519742,-0.1667378,-0.004583011,-0.06384151,-1.004353,12.34111,-48.43926,35.19642,1008.749
31.668402195,-0.146707,0.06122252,0.1379658,0.0007324747,-0.0633522,-1.007262,13.08997,-48.07145,36.05222,1008.751
31.700684071,0.03921402,-0.2322914,0.1379658,0.003154385,-0.06528264,-1.007762,11.99032,-48.42964,35.63766,1008.751
31.732962131,0.2251072,0.1785857,0.1990049,0.005098472,-0.06963411,-1.008274,11.99032,-48.42964,35.63766,1008.751
31.767727375,0.1006768,0.178041,0.07686147,-0.006507373,-0.06918172,-1.007763,12.37707,-48.42236,36.5036,1008.753
31.800009251,-0.08561552,0.001556896,-0.1060638,-0.001196735,-0.06529181,-1.006785,12.00231,-48.42401,36.07338,1008.754
31.834774017,-0.08553124,-0.2331323,0.2595872,0.003645151,-0.06867204,-1.008749,12.00231,-48.42401,36.07338,1008.753
31.867055893,0.03833715,0.06050334,0.1375457,-0.0002319326,-0.06432119,-1.006782,12.35376,-48.79814,35.63676,1008.753
31.901821136,0.1621742,-0.05683653,0.1374389,-0.002635053,-0.06915428,-1.002937,11.62622,-47.69662,35.63394,1008.753
31.934099197,0.09975328,0.0603773,0.1372992,0.001714443,-0.06964051,-1.0073,11.62622,-47.69662,35.63394,1008.753
31.966381073,-0.1482951,0.06038909,0.1369688,0.004601589,-0.06382672,-1.007756,11.99098,-48.79416,35.64227,1008.753
32.001145840,-0.3948777,-0.05682151,0.1369026,-0.000700038,-0.06865663,-1.000521,12.71521,-48.0731,35.62201,1008.753
32.033427715,-0.022262,-0.0567005,0.07578591,0.000243165,-0.06142279,-1.0087,12.71521,-48.0731,35.62201,1008.753
32.068192959,0.1633678,-0.1740043,0.1363749,0.0002638063,-0.06964466,-1.007297,12.7272,-48.06747,36.05774,1008.753
32.100474834,0.2245005,0.002445199,0.01412842,-0.0007131894,-0.06529043,-1.006786,12.3531,-48.43363,35.63214,1008.753
32.135236263,-0.08594473,0.5302253,0.1357377,-0.001672186,-0.067703,-1.003897,12.3531,-48.43363,35.63214,1008.751
32.167518139,-0.147082,0.0009723157,0.07481693,0.004607125,-0.06380378,-1.000988,12.72918,-49.16101,36.07159,1008.751
32.199799537,-0.02274912,0.000821352,-0.04723581,0.004128948,-0.0657376,-1.000031,12.36442,-48.06348,36.06326,1008.751
32.234564781,0.0389936,0.1773126,0.1354304,0.00317511,-0.07252683,-1.003452,12.36442,-48.06348,36.06326,1008.751
32.266846657,-0.08501505,-0.1161141,0.013475,-0.0007139803,-0.06529371,-1.007753,11.6382,-47.69098,36.06967,1008.749
32.301611900,-0.2084726,0.06022777,0.07420386,-0.002641213,-0.06722512,-1.004859,12.71653,-48.80213,35.63124,1008.749
32.333889961,-0.1459214,-0.116071,0.01303709,-0.001678741,-0.06577548,-1.006304,11.27543,-47.687,36.07518,1008.749
32.368654728,0.2877765,0.1185684,0.1349376,-0.002154192,-0.06818668,-1.003416,11.27543,-47.687,36.07518,1008.749
32.400936603,0.2867006,0.05956626,0.07371452,0.002680037,-0.06866661,-1.00633,12.36376,-47.69896,36.05864,1008.749
32.433218479,0.1618374,-0.05800869,0.01268371,-0.0007128359,-0.06577764,-1.007756,12.00164,-48.05949,36.06877,1008.751
32.467983723,-0.02442462,0.05900715,0.07337765,0.0017092,-0.06624154,-1.003896,12.00164,-48.05949,36.06877,1008.747
32.500265598,-0.2099543,0.05885855,0.01229076,0.002686759,-0.06863876,-0.9981108,12.71587,-48.43762,35.62663,1008.747
32.535026550,-0.02375291,-0.1760821,0.07310092,0.002207833,-0.07008703,-0.9966677,11.62622,-47.69662,35.63394,1008.747
32.567308426,-0.08520219,-0.410396,-0.1097707,0.0002520504,-0.06382933,-1.004846,11.62622,-47.69662,35.63394,1008.747
32.599591255,-0.08473812,-0.1167007,0.07305934,0.001722933,-0.07204868,-1.003929,12.7272,-48.06747,36.05774,1008.748
32.634356499,-0.2084886,-0.05827725,0.01202735,0.001219891,-0.06431213,-1.005335,12.35177,-47.70459,35.62291,1008.75
32.666638374,0.1008882,-0.2340378,0.1947239,-0.001679136,-0.06577712,-1.006787,12.35177,-47.70459,35.62291,1008.75
32.701403141,0.03784972,-0.1752649,0.1943279,-0.001682216,-0.06481254,-1.007748,12.36574,-48.79251,36.07249,1008.754
32.733681202,0.09949448,0.1184295,-0.110518,-0.0002153898,-0.06962802,-1.001978,12.3531,-48.43363,35.63214,1008.754
32.768446445,0.09897938,0.11802,-0.1106062,0.002186191,-0.06431264,-1.006304,12.3531,-48.43363,35.63214,1008.75
32.800728321,0.03621345,-0.2343462,-0.1107093,0.001234145,-0.0686511,-1.000525,12.35244,-48.06911,35.62753,1008.756
32.833010197,-0.1493107,-0.1167587,0.1330079,0.0007467287,-0.06769118,-1.002452,12.00231,-48.42401,36.07338,1008.756
32.867774963,0.1603384,-0.05807761,0.01079125,0.001708326,-0.06722251,-1.007769,12.00231,-48.42401,36.07338,1008.756
32.900056839,-0.335074,-0.2340781,-0.1720175,-0.001671125,-0.06916462,-1.006806,12.35177,-47.70459,35.62291,1008.756
32.934818268,0.1613886,-0.05751316,-0.04995449,0.0007214259,-0.05851128,-1.006751,12.71587,-48.43762,35.62663,1008.754
32.967100143,-0.4582669,0.1772195,-0.050133,0.003151264,-0.0648069,-1.010176,12.71587,-48.43762,35.62663,1008.754
33.001865387,-0.2703345,0.05951427,-0.1110256,-0.005061979,-0.06577861,-1.004363,12.35177,-47.70459,35.62291,1008.754
33.034146786,0.03943057,0.0001088455,-0.1111464,0.001714071,-0.06475536,-0.9937357,12.00164,-48.05949,36.06877,1008.754
33.066428661,0.4100035,-9.387732E-05,-0.05038311,-0.004568757,-0.06818049,-0.9995429,12.00164,-48.05949,36.06877,1008.754
33.101193905,-0.1480037,0.2341469,-0.05029564,-0.006506936,-0.06869124,-1.005826,12.7272,-48.06747,36.05774,1008.754
33.133471966,0.2233729,0.4670279,-0.05005249,0.007034717,-0.06864271,-1.002955,12.36508,-48.42799,36.06787,1008.754
33.168237209,1.150811,-0.003704712,0.07166629,0.004137792,-0.06863298,-0.9976306,12.36508,-48.42799,36.06787,1008.754
33.200518608,1.51664,-0.2968902,0.1321235,0.003641927,-0.06477604,-1.001475,12.36508,-48.42799,36.06787,1008.754
33.235283851,1.138531,-0.6464961,0.009470852,0.006531194,-0.06188547,-1.00775,12.36376,-47.69896,36.05864,1008.754
33.267565727,0.577138,-1.112378,0.1917002,0.0002711519,-0.07156891,-1.003924,11.98966,-48.06512,35.63304,1008.754
33.299847603,0.3890004,-0.640247,0.1908993,-0.007940677,-0.07448943,-1.001989,11.98966,-48.06512,35.63304,1008.753
33.334609032,0.3874874,-0.4618438,0.129331,-0.01567418,-0.07840754,-1.009246,12.36376,-47.69896,36.05864,1008.753
33.366890907,-0.4801091,-0.2256656,0.007362141,-0.007458047,-0.07595785,-1.007316,11.989,-47.70061,35.62843,1008.753
33.401655674,-0.9111756,0.3614499,-0.1140167,0.0002677187,-0.07011712,-1.003915,11.989,-47.70061,35.62843,1008.753
33.433937549,1.568198,0.712414,0.1910173,0.000737843,-0.06528465,-1.006306,12.72653,-47.70295,36.05312,1008.753
33.468702793,2.859767,1.471318,0.2509097,0.003662173,-0.07299954,-1.000555,11.97701,-47.70624,35.1927,1008.753
33.500984669,0.4977587,0.4695833,0.006927128,0.001235913,-0.07108713,-1.005373,11.97701,-47.70624,35.1927,1008.753
33.533262730,-0.5550032,-0.06013987,-0.297193,0.008502687,-0.07394212,-0.9971867,12.72653,-47.70295,36.05312,1008.753
33.568027496,3.159046,1.053432,0.1908145,-0.003142259,-0.06387831,-1.016442,11.63887,-48.0555,36.07428,1008.748
33.600309372,2.539309,1.581757,0.007992363,-0.002149321,-0.0667005,-0.993255,11.63887,-48.0555,36.07428,1008.748
33.635074615,5.018255,1.992676,0.1298738,-0.00554767,-0.06774355,-1.012591,12.36442,-48.06348,36.06326,1008.747
33.667356491,3.654835,1.170837,0.4345773,0.004649241,-0.0797554,-0.9957611,12.3531,-48.43363,35.63214,1008.745
33.699638367,2.72523,0.9947289,0.06893307,0.004622417,-0.07449116,-1.013135,12.3531,-48.43363,35.63214,1008.745
33.734482288,2.04352,1.288243,0.06893307,0.00418361,-0.08750128,-0.9962876,11.97635,-47.34173,35.18808,1008.743
33.766764164,3.344967,1.170837,0.1908145,0.004656856,-0.08314455,-0.9962639,11.989,-47.70061,35.62843,1008.743
33.801529407,4.646413,0.4664039,0.3126959,0.006575222,-0.08320454,-1.015606,11.989,-47.70061,35.62843,1008.743
33.833811283,2.353388,0.701215,0.2517552,0.006580236,-0.08464976,-1.01368,11.97701,-47.70624,35.1927,1008.742
33.868576050,0.06036259,0.4664039,0.007992363,0.008042257,-0.0855758,-1.00257,11.97503,-46.6127,35.17885,1008.742
33.900857925,-0.2495057,1.22954,0.1298738,0.004672003,-0.0909005,-1.000175,11.97503,-46.6127,35.17885,1008.74
33.933135986,0.6181256,1.992676,0.2517552,0.006134084,-0.09573564,-1.000206,12.33846,-46.9812,35.17795,1008.74
33.967901230,1.423783,1.22954,-0.1748298,0.006126092,-0.09674608,-1.012781,12.35045,-46.97556,35.61368,1008.742
34.000183105,0.06036259,-0.1206238,-0.2967112,0.01143012,-0.08701955,-1.003069,12.35045,-46.97556,35.61368,1008.742
34.034947872,-1.117137,0.7599179,-0.05294834,0.01141261,-0.08367136,-1.014652,11.62424,-46.60307,35.62009,1008.742
34.067229748,-2.294636,1.405648,0.007992363,0.02062027,-0.08209503,-0.9856566,11.98701,-46.60706,35.61458,1008.742
34.101994991,0.5561519,0.4077012,0.3736366,0.005618933,-0.08169655,-0.9981914,11.97569,-46.97721,35.18347,1008.742
34.134273052,1.051941,-0.2967322,0.5564587,0.02742579,-0.09707581,-0.9852729,11.97569,-46.97721,35.18347,1008.742
34.166554928,-0.1255584,-0.003218275,0.3736366,0.01529467,-0.09924102,-1.042788,11.27344,-46.59345,36.06134,1008.74
34.201319694,-2.480557,0.4664039,0.2517552,0.004180488,-0.08702554,-0.9987021,11.97569,-46.97721,35.18347,1008.738
34.233862400,-3.967925,-0.7076516,-0.1748298,-0.005982502,-0.08513524,-1.003504,11.97569,-46.97721,35.18347,1008.738
34.268627643,-2.35661,0.6425123,0.1908145,-0.02244932,-0.08724573,-1.041189,11.97437,-46.24818,35.17424,1008.738
34.300909519,0.2462836,2.403595,0.3736366,0.01623511,-0.08273391,-1.02771,11.97569,-46.97721,35.18347,1008.738
34.335670471,0.4322046,2.990623,0.495518,0.007987241,-0.06332491,-1.005344,11.97569,-46.97721,35.18347,1008.738
34.367952347,0.7420729,3.166732,0.8002216,0.01047972,-0.08597583,-0.9798555,11.97635,-47.34173,35.18808,1008.734
34.400234222,5.576018,6.982412,1.165866,0.02162499,-0.09513049,-0.9775143,11.96238,-46.25381,34.73851,1008.738
34.434999466,-2.108716,2.697109,6.589589,0.7168704,-0.04612778,-0.9569795,11.96238,-46.25381,34.73851,1008.738
34.467281818,4.212598,2.755812,4.395723,-0.1593399,-0.08001366,-1.076144,11.9637,-46.98285,34.74774,1008.736
34.502046585,6.753518,1.523054,4.517604,0.06994022,-0.09271184,-1.018697,12.3245,-45.89328,34.72837,1008.732
34.534325123,6.133781,-6.519227,2.689384,0.03697976,-0.05941641,-1.01892,12.3245,-45.89328,34.72837,1008.732
34.566606998,20.32575,-12.56561,6.528648,-0.03993,-0.06316458,-1.060351,13.75766,-42.63424,34.22905,1008.732
34.601371765,14.62417,-16.26389,3.29879,0.01200918,-0.1393988,-1.037692,14.82872,-39.73571,33.73985,1008.734
34.633653641,-0.1875321,-17.08573,2.689384,-0.05000244,-0.1024361,-1.073606,14.82872,-39.73571,33.73985,1008.734
34.668418884,-18.77963,-26.94779,0.8002216,-0.1524318,-0.1336629,-1.062444,15.18951,-38.64615,33.72048,1008.734
34.700700760,-29.87292,-34.63786,1.226807,-0.1363191,-0.189658,-1.034757,15.18752,-37.5526,33.70663,1008.736
34.735462189,-39.91265,-34.40305,-3.770331,-0.09754976,-0.1906584,-0.9342912,15.18752,-37.5526,33.70663,1008.736
34.767743587,-39.85067,-31.11569,-4.684442,-0.04629995,-0.196401,-0.9586062,16.30247,-39.01136,34.58001,1008.736
34.800025463,-23.42766,-20.7253,-11.32698,-0.1030188,-0.151713,-1.004157,17.4061,-40.84027,35.02227,1008.736
34.834790707,-4.21582,-15.14854,-13.52084,-0.1601499,-0.1096629,-0.9709206,17.4061,-40.84027,35.02227,1008.736
34.867072582,-20.39095,-17.73146,-17.90858,-0.142688,-0.1040131,-0.8892249,17.78483,-43.02572,35.48017,1008.736
34.901837826,-19.70924,-18.49459,-16.50694,-0.1640184,-0.1116293,-0.9767247,17.41205,-44.12091,35.06381,1008.734
34.934115887,-11.0949,-24.01266,-13.03332,-0.2235909,-0.1058457,-1.076152,17.41205,-44.12091,35.06381,1008.734
34.968880653,-25.65871,-34.05083,-18.27422,-0.1302976,-0.07101198,-1.014758,18.13893,-44.85792,35.06201,1008.734
35.001162529,-49.8904,-23.54303,-24.85582,-0.2174405,-0.1127429,-1.260394,17.76681,-46.31763,34.65026,1008.734
35.033444405,-60.61185,-27.88704,-34.42351,-0.1641465,-0.1170469,-1.147409,17.76681,-46.31763,34.65026,1008.732
35.068209648,-58.69067,-7.634579,-29.12167,-0.1175379,-0.1664672,-1.061738,19.20792,-47.43277,34.20632,1008.734
35.100491524,-64.95001,-1.412085,-45.33189,-0.3287264,-0.2046867,-1.022826,18.83911,-50.71505,33.81765,1008.734
35.135252476,-34.58291,-7.986795,-60.32331,-0.2923236,-0.2543491,-0.9999813,19.16924,-52.55852,32.52804,1008.734
35.167534351,5.018255,-1.764302,-74.64437,-0.2962193,-0.2129362,-0.9141687,19.16924,-52.55852,32.52804,1008.732
35.202299595,52.05627,-7.517173,-93.10941,-0.4076791,-0.1023609,-0.8915451,18.82572,-56.55857,33.02005,1008.736
35.234581470,114.8976,-19.66865,-94.63292,-0.2318072,0.05100993,-0.6212932,20.28212,-59.49065,33.03492,1008.733
35.266863346,139.0673,-25.71503,-87.07627,-0.2872027,0.118142,-0.7566384,20.28212,-59.49065,33.03492,1008.731
