Time (s),Gyroscope X (deg/s),Gyroscope Y (deg/s),Gyroscope Z (deg/s),Accelerometer X (g),Accelerometer Y (g),Accelerometer Z (g),Magnetometer X (uT),Magnetometer Y (uT),Magnetometer Z (uT),Barometer (hPa)
0.005734444,0.1399803,0.04296049,0.1335688,0.1169178,0.9279035,0.331507,7.086861,-48.86543,-2.179277,1007.805
0.038511276,-0.04638205,0.2793312,0.07247978,0.118377,0.926945,0.3319863,7.822504,-49.22567,-1.739375,1007.805
0.071288586,0.6369465,0.1020532,0.01139076,0.1149743,0.9288781,0.3339169,7.822504,-49.22567,-1.739375,1007.809
0.104066372,0.512705,-0.07522487,0.01139076,0.1183594,0.934247,0.331494,7.829265,-49.5901,-1.733645,1007.811
0.139364719,0.01573872,-0.01613219,-0.04969826,0.1144944,0.9259318,0.3310344,7.457699,-49.23074,-2.174017,1007.811
0.172142029,-0.4191067,-0.07522487,0.01139076,0.1178814,0.9318346,0.3353497,7.457699,-49.23074,-2.174017,1007.811
0.204918861,-0.1085028,-0.07522487,-0.3551433,0.1208133,0.9225519,0.327655,7.465187,-49.58923,-1.733176,1007.811
0.237696171,0.3884634,-0.07522487,0.01139076,0.1154636,0.9269207,0.3319933,7.465187,-49.58923,-1.733176,1007.811
0.270473003,0.2642218,-0.1934102,0.01139076,0.1149567,0.9361802,0.3334246,7.465187,-49.58923,-1.733176,1007.811
0.305771351,-0.2948652,0.1611458,0.01139076,0.1178909,0.9264271,0.3281374,7.458426,-49.22479,-1.738905,1007.811
0.338548660,-0.5433483,-0.01613219,0.07247978,0.1212882,0.9284505,0.3348653,7.457699,-49.23074,-2.174017,1007.813
0.371325493,-0.1706236,-0.1934102,0.01139076,0.1193434,0.929405,0.3343872,7.821777,-49.23161,-2.174487,1007.811
0.404102802,0.2642218,-0.1343175,0.3168359,0.1212913,0.9279935,0.3391983,7.821777,-49.23161,-2.174487,1007.815
0.439401150,0.07785949,0.1611458,-0.04969826,0.1183738,0.9294204,0.337759,8.192616,-49.59692,-2.169226,1007.815
0.472178459,0.6990672,0.04296049,-0.04969826,0.1174049,0.9274273,0.3324693,7.836026,-49.95454,-1.727915,1007.815
0.504955292,0.2021011,-0.07522487,0.01139076,0.1154506,0.9327784,0.3339099,7.836026,-49.95454,-1.727915,1007.815
0.537732601,0.1399803,0.1611458,-0.1107873,0.1164297,0.929881,0.3363188,7.457699,-49.23074,-2.174017,1007.813
0.570510387,0.01573872,-0.01613219,-0.04969826,0.114981,0.9259526,0.33344,7.100383,-49.5943,-2.167817,1007.813
0.605808735,0.512705,-0.1343175,0.3168359,0.120317,0.9289462,0.3372737,7.100383,-49.5943,-2.167817,1007.815
0.638585567,0.761188,-0.429781,0.4390139,0.1198123,0.9357135,0.3305256,7.458426,-49.22479,-1.738905,1007.815
0.671362877,-0.04638205,-0.01613219,0.1946578,0.1169037,0.9337445,0.3310169,7.458426,-49.22479,-1.738905,1007.815
0.704139709,-0.2327444,-0.01613219,0.1946578,0.1178791,0.9323049,0.3329422,7.458426,-49.22479,-1.738905,1007.815
0.739438534,-0.04638205,-0.07522487,-0.1718763,0.1222649,0.9250093,0.3290919,7.828538,-49.59605,-2.168757,1007.815
0.772215366,-0.1085028,-0.01613219,0.07247978,0.1115745,0.9298472,0.3372931,7.101837,-49.58241,-1.297593,1007.815
0.804992676,0.1399803,-0.07522487,0.1946578,0.117896,0.9244857,0.3291031,7.101837,-49.58241,-1.297593,1007.815
0.837769508,0.761188,-0.07522487,0.1946578,0.1188667,0.925498,0.3334315,7.82323,-49.21972,-1.304263,1007.815
0.870546818,1.630879,-0.429781,0.1335688,0.116906,0.9327704,0.3310183,7.822504,-49.22567,-1.739375,1007.815
0.905845165,0.07785949,0.04296049,-0.1718763,0.1193269,0.9357128,0.3310082,7.822504,-49.22567,-1.739375,1007.815
0.938621998,-0.6675898,-0.01613219,0.07247978,0.1164319,0.9283999,0.3334329,7.829265,-49.5901,-1.733645,1007.817
0.971399307,-0.1706236,-0.1343175,0.1335688,0.1242001,0.9284513,0.3314889,7.816469,-48.85529,-1.309993,1007.815
1.004177094,0.1399803,-0.07522487,0.1335688,0.1154563,0.930847,0.3363197,7.816469,-48.85529,-1.309993,1007.815
1.039475441,0.8233088,0.1020532,0.01139076,0.1217601,0.9343022,0.3353367,7.82323,-49.21972,-1.304263,1007.815
1.072252274,-0.2327444,-0.07522487,0.1335688,0.1207997,0.9294105,0.333421,7.094349,-49.22392,-1.738436,1007.817
1.105029583,0.1399803,-0.07522487,0.07247978,0.1188624,0.9279565,0.3367973,7.094349,-49.22392,-1.738436,1007.817
1.137806892,0.6369465,-0.1934102,0.1335688,0.1183747,0.927919,0.3319849,7.465187,-49.58923,-1.733176,1007.817
1.170583725,0.6990672,-0.1343175,0.07247978,0.115455,0.9308269,0.3334315,8.185127,-49.23842,-2.610068,1007.817
1.205882072,-0.5433483,-0.01613219,-0.1107873,0.1241913,0.9323543,0.3324458,8.185127,-49.23842,-2.610068,1007.817
1.238659382,-0.1706236,0.1611458,-0.2329653,0.117406,0.9264331,0.3295826,7.828538,-49.59605,-2.168757,1007.821
1.271436215,0.6990672,-0.2525029,0.07247978,0.1154611,0.9289023,0.3368039,8.179093,-48.86804,-2.180687,1007.821
1.304213524,0.6369465,-0.07522487,-0.04969826,0.1149639,0.9327576,0.3315043,8.179093,-48.86804,-2.180687,1007.819
1.336990357,0.5748257,-0.01613219,-0.04969826,0.1173885,0.9332314,0.3266842,7.822504,-49.22567,-1.739375,1007.819
1.372289181,0.2642218,0.1020532,0.07247978,0.1193487,0.9274669,0.3358342,7.457699,-49.23074,-2.174017,1007.819
1.405066490,0.1399803,-0.07522487,-0.04969826,0.1217742,0.9274504,0.3305334,7.457699,-49.23074,-2.174017,1007.818
1.437843800,-0.1706236,0.1611458,-0.1107873,0.1198221,0.9323311,0.3343816,7.457699,-49.23074,-2.174017,1007.818
1.470621109,0.3884634,-0.07522487,-0.1107873,0.1188552,0.9308754,0.3363115,7.816469,-48.85529,-1.309993,1007.818
1.505919457,13.43383,-3.148044,1.355349,0.1101927,0.8986787,0.3392688,7.828538,-49.59605,-2.168757,1007.818
1.538696289,30.51704,-7.22544,4.104355,0.1145186,0.9146934,0.3257563,7.828538,-49.59605,-2.168757,1007.818
1.571473598,32.93975,-7.402718,3.615643,0.1202749,0.9393995,0.2997119,8.207591,-50.3139,-1.287543,1007.818
1.604250431,23.93224,-6.57542,2.332773,0.1299379,0.9553917,0.2765594,7.474855,-49.92989,0.01300168,1007.818
1.637027740,12.12929,-3.620786,-0.04969826,0.1386265,0.9733474,0.256776,7.474855,-49.92989,0.01300168,1007.818
1.672326088,-2.717576,0.9293509,0.07247978,0.1381045,0.9879273,0.2529043,7.098605,-49.18911,0.810076,1007.818
1.705102920,-8.432688,0.4566093,1.172082,0.1236773,0.9334196,0.2761261,7.10464,-49.55949,0.3806942,1007.818
1.737880230,7.159628,-2.261654,2.271684,0.1236998,0.9272054,0.292983,7.10464,-49.55949,0.3806942,1007.822
1.770657539,29.46099,-8.052737,10.33543,0.1178306,0.9441726,0.2886392,6.742015,-49.54672,1.251387,1007.822
1.805956364,61.26683,-13.48926,20.90383,0.1638935,0.9738326,0.296187,7.470897,-49.54253,1.68556,1007.82
1.838733673,80.33791,-17.98031,28.78432,0.1887058,0.9323623,0.1859588,7.470897,-49.54253,1.68556,1007.822
1.871510506,125.4376,-24.30322,32.81619,0.1813512,0.9508871,0.1272222,6.01146,-49.14488,3.857267,1007.82
1.904287815,136.5572,-27.84879,30.43372,0.1889137,1.028034,0.0760636,5.297125,-49.44983,8.090736,1007.82
1.937064648,71.70312,-24.42141,25.11898,0.1791185,1.066042,0.0904704,5.297125,-49.44983,8.090736,1007.818
1.972362995,-5.264527,-17.09392,16.0778,0.1973401,0.9449168,0.01984956,3.844021,-49.00039,14.05413,1007.817
2.005140781,-13.21599,-14.31656,6.486826,0.2359417,0.8313211,-0.04312917,3.090274,-47.52901,14.90237,1007.817
2.037917137,14.36564,-11.83467,-6.341867,0.2417882,0.8109663,-0.1056894,3.090274,-47.52901,14.90237,1007.821
2.070694447,38.09578,-9.766425,-19.17056,0.2300348,0.8492137,-0.1244923,2.724744,-47.54002,14.03262,1007.821
2.105992794,28.71554,-6.161771,-22.2861,0.2214306,1.001782,-0.09630146,3.455805,-47.51799,15.77213,1007.819
2.138770103,-11.29024,2.288482,-24.36313,0.2303883,1.118392,-0.07724399,3.455805,-47.51799,15.77213,1007.819
2.171546936,-54.40206,8.906862,-16.29938,0.2124657,1.101747,-0.06803052,3.812721,-47.08774,16.20008,1007.817
2.204324722,-51.85511,13.27972,-11.96206,0.184582,0.9932363,-0.02014602,5.28368,-47.88085,16.21062,1007.819
2.237102032,-35.26886,8.079565,-5.54771,0.1618492,0.9671615,0.03963605,5.28368,-47.88085,16.21062,1007.819
2.272400379,-14.64476,4.061263,-7.746914,0.1755299,0.9342542,0.05361269,4.907028,-47.56309,12.72447,1007.817
2.305177212,-12.90538,2.997595,-8.418894,0.1584734,0.9584035,0.04495224,6.012159,-48.29967,12.36156,1007.817
2.337954521,-0.1085028,-0.01613219,-5.120087,0.1627515,0.9943795,0.03044702,6.382272,-48.67093,11.93171,1007.817
2.370731354,2.252087,-0.5479663,-3.409594,0.1598267,1.00024,0.03622146,6.382272,-48.67093,11.93171,1007.816
2.406030178,3.991468,-1.257078,-2.004547,0.1608944,0.9603384,0.04012996,6.37551,-48.30649,11.92598,1007.82
2.438807011,2.997536,-0.07522487,-3.04306,0.1564796,0.9782919,0.03578112,6.388306,-49.04131,11.50233,1007.82
2.471584320,-6.009976,2.111204,-3.715039,0.1666251,0.9977776,0.024175,6.388306,-49.04131,11.50233,1007.818
2.504361153,-13.77507,2.643039,-2.43217,0.1573811,1.006507,0.02996011,6.759871,-49.40067,11.9427,1007.818
2.537138462,-16.2599,3.470336,-2.43217,0.1516384,0.9739317,0.04494504,6.003945,-47.94713,11.48561,1007.816
2.572437286,-9.240257,1.874834,-1.943458,0.1511629,0.9725704,0.05987043,6.003945,-47.94713,11.48561,1007.816
2.605214596,-4.643319,1.224814,-1.393657,0.1506623,0.9788976,0.05986208,7.47305,-48.68544,11.06008,1007.816
2.637991428,-1.226677,-0.01613219,-1.027123,0.1525938,0.9837976,0.06177557,6.737407,-48.3252,10.62018,1007.818
2.670768738,-2.841817,1.165722,-1.21039,0.1535523,0.9876482,0.0540657,6.737407,-48.3252,10.62018,1007.818
2.706067085,-1.723643,0.2793312,-0.1107873,0.144359,0.9749454,0.05940164,6.386126,-49.05914,10.197,1007.818
2.738843918,-3.0903,0.8702581,-0.9049445,0.1487349,0.9735576,0.06468832,6.744895,-48.68369,11.06102,1007.816
2.771621227,0.512705,0.4566093,0.2557468,0.1492061,0.9799031,0.06612172,6.744895,-48.68369,11.06102,1007.816
2.804398537,-0.2327444,0.3975166,0.01139076,0.1521164,0.9803843,0.06178184,7.114281,-49.06089,10.19606,1007.822
2.837175369,-0.04638205,0.3975166,0.07247978,0.1482303,0.9808322,0.06082766,6.744169,-48.68963,10.62591,1007.822
2.872473717,-1.537281,0.8702581,-0.04969826,0.1525931,0.9832804,0.0574441,6.744169,-48.68963,10.62591,1007.822
2.905251026,-3.338783,1.283907,-0.2940543,0.1428833,0.9837299,0.06372415,6.756238,-49.43039,9.767144,1007.821
2.938028812,-1.164556,0.5747947,0.1335688,0.1521164,0.9824061,0.07236876,6.756238,-49.43039,9.767144,1007.821
2.970805645,-0.356986,0.3384239,0.07247978,0.151158,0.9770406,0.07237911,6.756238,-49.43039,9.767144,1007.821
3.006103992,0.8854296,0.2793312,0.01139076,0.1506571,0.9828575,0.069002,7.470143,-48.70921,9.319633,1007.822
3.038881302,-0.1085028,0.04296049,-0.1718763,0.145806,0.979858,0.06372305,6.743442,-48.69558,10.1908,1007.827
3.071658134,1.320275,-0.01613219,-0.04969826,0.146781,0.9789155,0.06709169,6.743442,-48.69558,10.1908,1007.827
3.104435444,3.494502,-1.316171,0.1946578,0.1463211,0.9656746,0.05459733,6.385399,-49.06509,9.761885,1007.827
3.137212753,-1.288798,0.5157019,-0.4773214,0.1457865,0.9871299,0.05889852,6.386853,-49.0532,10.63211,1007.827
3.172511101,-1.661522,-0.01613219,0.5001029,0.1525889,0.9862461,0.06369733,6.386853,-49.0532,10.63211,1007.827
3.205287933,-1.661522,0.5157019,0.01139076,0.1487271,0.9774773,0.06805196,6.757691,-49.41851,10.63737,1007.827
3.238065243,-1.537281,0.3975166,-0.3551433,0.1492098,0.9794562,0.07189873,6.75093,-49.05407,10.63164,1007.825
3.270842075,-2.158489,0.2793312,-0.1718763,0.1472599,0.9823521,0.07045491,6.75093,-49.05407,10.63164,1007.825
3.303619862,-2.034247,0.04296049,-0.1107873,0.1535686,0.9838626,0.06995631,6.742715,-48.70152,9.755685,1007.825
3.338918209,-1.599402,0.3975166,-0.04969826,0.1521239,0.9789868,0.0709298,7.113554,-49.06683,9.760944,1007.825
3.371695519,-0.7918314,0.3384239,0.07247978,0.1477641,0.9750708,0.07335286,6.015287,-48.69383,10.19174,1007.827
3.404472351,-0.4191067,0.04296049,-0.1107873,0.1496855,0.9828426,0.06804161,6.015287,-48.69383,10.19174,1007.827
3.437249661,-1.102435,0.2202385,-0.04969826,0.1496969,0.9789799,0.07286102,7.121042,-49.42532,10.20179,1007.825
3.472548008,-0.5433483,0.3384239,-0.1718763,0.1564902,0.9809847,0.07284188,7.106066,-48.70834,9.320103,1007.825
3.505325318,0.3884634,0.1611458,0.2557468,0.1472586,0.9838467,0.07526627,7.106066,-48.70834,9.320103,1007.824
3.538102150,0.4505841,-0.1934102,-0.04969826,0.1535859,0.9770609,0.07237332,7.114281,-49.06089,10.19606,1007.824
3.570879459,-0.1706236,0.1020532,0.1335688,0.1516319,0.9814079,0.06948323,6.762999,-49.79483,9.772875,1007.824
3.603656292,-0.356986,0.1611458,0.2557468,0.1477599,0.9770257,0.07431264,6.762999,-49.79483,9.772875,1007.822
3.638955593,0.2642218,-0.07522487,-0.4162323,0.1555151,0.981924,0.06899188,7.119588,-49.43721,9.331563,1007.822
3.671732426,0.8233088,-0.1343175,-0.1718763,0.1453253,0.97892,0.06950194,6.386126,-49.05914,10.197,1007.82
3.704509735,1.009671,-0.429781,-0.04969826,0.1462858,0.9822972,0.06371824,6.386126,-49.05914,10.197,1007.82
3.737286568,5.109643,-1.138893,1.416438,0.143865,0.9798619,0.06661582,6.743442,-48.69558,10.1908,1007.818
3.772584915,44.18361,-10.0028,15.77236,0.1390228,0.9714448,0.0526805,6.386126,-49.05914,10.197,1007.818
3.805362225,112.3922,-19.69399,39.16945,0.201654,0.9698352,0.02605948,6.386126,-49.05914,10.197,1007.818
3.838139534,198.4916,-29.44429,74.66217,0.2850188,1.209068,-0.13046,6.745622,-48.67775,11.49613,1007.818
3.870916367,202.7158,-24.36232,102.702,0.2861035,1.3356,-0.2861331,5.293971,-48.21641,18.32975,1007.823
3.903693676,168.3631,-18.33486,129.8255,0.4067521,1.456335,-0.2283565,5.293971,-48.21641,18.32975,1007.821
3.938992023,115.2498,-7.934552,158.9039,0.3281161,1.238895,-0.2355441,2.33235,-44.76262,26.05084,1007.819
3.971769810,106.8014,-10.18007,172.2824,0.3305705,1.001426,-0.3487933,-1.80653,-40.31595,30.64923,1007.818
4.004546642,114.9392,-0.3706883,176.2532,0.4002604,0.8670617,-0.4941274,-1.80653,-40.31595,30.64923,1007.818
4.037323952,119.971,11.8024,179.9796,0.3972375,0.7042024,-0.5174615,-6.630233,-35.10014,33.61995,1007.814
4.072622299,95.5575,16.23436,164.0354,0.5654126,0.3975981,-0.6863562,-10.42354,-29.96622,35.22279,1007.812
4.105399132,80.58639,48.49896,139.6609,0.7098503,0.3027969,-0.6952204,-10.42354,-29.96622,35.22279,1007.811
4.138176441,56.66989,71.6042,111.5599,0.6645454,0.1405106,-0.795473,-13.82619,-22.94361,37.29276,1007.807
4.170953751,53.93657,73.73154,95.18808,0.8148248,0.02780312,-0.8649756,-17.19827,-17.83958,36.78165,1007.807
4.203730583,65.18044,95.8322,77.71662,0.8085572,0.02491714,-0.7821622,-17.19827,-17.83958,36.78165,1007.805
4.239028931,36.54276,111.5509,70.32485,0.7534458,0.1353358,-0.7359872,-19.51288,-14.13503,36.29118,1007.805
4.271806240,11.2596,127.0922,64.39922,0.7658228,0.0224719,-0.8022743,-22.87362,-9.777711,34.48621,1007.804
4.304584026,-21.35381,161.7796,45.95033,0.8111128,-0.02054511,-0.7392586,-26.94543,-6.468198,31.45522,1007.802
4.337360859,-29.74011,189.9077,36.42044,0.7864812,-0.05908775,-0.6491274,-26.94543,-6.468198,31.45522,1007.802
4.372659206,-2.903938,214.0176,23.83611,0.7720941,-0.1437829,-0.6946949,-31.05339,-4.706746,26.27264,1007.798
4.405436516,76.67278,264.9555,0.622281,0.6479888,-0.1937149,-0.5118893,-36.17334,-4.042077,20.67347,1007.801
4.438213348,117.4861,297.4565,-43.72834,0.419173,-0.1009102,-0.2683988,-36.17334,-4.042077,20.67347,1007.795
4.470990658,93.44539,348.0398,-88.20115,0.3167625,-0.1293599,-0.3143237,-39.54667,-3.068985,11.2746,1007.793
4.503767491,1013.206,249.1186,287.5574,-5.052155,6.036931,-3.055608,-41.76252,-2.480924,0.5746477,1007.796
4.539066315,-553.1077,-36.83087,185.3555,1.41347,-0.908017,1.53701,-41.76252,-2.480924,0.5746477,1007.796
4.571843147,-497.6338,116.8101,13.38988,1.929294,-2.08131,0.004417767,-41.78924,-1.440259,-3.296388,1007.796
4.604620933,218.5566,77.98621,-63.52118,0.5827629,-1.632196,0.1614517,-41.17788,4.80822,-3.830805,1007.794
4.637398243,140.8435,54.88097,-94.18787,-0.03796284,-0.009061558,0.8127229,-41.17788,4.80822,-3.830805,1007.792
4.672696590,-118.3243,38.09865,-126.9927,0.02440854,0.2539719,0.5320259,-40.49069,6.570072,-8.149353,1007.786
4.705473423,-104.0987,-31.98527,-10.67919,0.3900435,-0.03839538,1.122712,-40.78134,2.484415,-9.328074,1007.786
4.738250732,-16.13566,-51.54495,-52.95279,-0.004085902,0.4814268,0.9876003,-40.78134,2.484415,-9.328074,1007.789
4.771027565,-125.5925,-95.09625,-29.55569,0.5542699,0.051971,0.7529814,-40.7387,0.314775,-8.050518,1007.789
4.803804874,-83.90942,-86.82328,-52.8917,0.3888362,-0.2138365,0.758588,-41.44221,-0.7411275,-5.421718,1007.789
4.839103222,-30.54768,-110.1058,-82.03116,0.2626964,-0.2773549,0.6708938,-41.44221,-0.7411275,-5.421718,1007.787
4.871880531,-5.637251,-111.9377,-97.30341,0.3362869,-0.01948998,0.4739349,-41.78102,-1.792808,-2.420435,1007.787
4.904658318,-37.19461,-129.2518,-130.1693,0.6119187,-0.005217902,0.1637441,-41.71977,-4.649714,1.914363,1007.787
4.937435150,-73.9701,-97.45996,-180.3234,0.7811331,0.06453169,-0.02497484,-41.71977,-4.649714,1.914363,1007.787
4.972733498,-95.15329,-106.1466,-222.0472,1.093313,0.2427845,-0.2608885,-40.90978,-8.669209,5.769095,1007.789
5.005510807,-159.3241,-18.74851,-244.4669,1.124954,0.4316602,-0.1726776,-38.5394,-15.20559,7.982738,1007.79
5.038287640,-163.9831,3.588521,-240.5572,1.81342,0.5302888,0.1557549,-38.5394,-15.20559,7.982738,1007.794
5.071064949,-164.2937,102.9233,-255.4018,1.065365,0.6575671,0.2377248,-34.01206,-24.06404,5.131951,1007.794
5.103841782,-64.21714,77.80894,-215.9994,0.2629995,0.5284324,0.2119035,-28.34272,-32.59479,-0.2124054,1007.793
5.139140129,22.50346,26.45739,-182.9502,-0.03772132,0.7785832,0.126076,-28.34272,-32.59479,-0.2124054,1007.793
5.171917439,31.51097,19.48445,-151.1839,0.3300748,1.364458,0.4492398,-21.68937,-38.57865,-5.722522,1007.794
5.204695225,-107.7017,54.11277,-157.3539,0.6385761,1.324669,0.5900884,-15.73584,-42.23713,-5.672818,1007.794
5.237472057,-146.962,62.20847,-155.8878,0.2043069,0.9774312,0.5550583,-15.73584,-42.23713,-5.672818,1007.794
5.272770882,-104.9063,44.77612,-131.9409,0.1235835,0.8339807,0.6146734,-9.51915,-44.12679,-9.506001,1007.796
5.305547714,-72.23072,50.15356,-93.02718,0.3627281,0.9837634,0.8550427,-3.279224,-44.22414,-15.54347,1007.8
5.338325024,-36.75976,37.62591,-95.83727,0.3058273,1.037962,0.9431852,1.872102,-44.28915,-19.40398,1007.802
5.371101856,58.84412,14.75704,-3.715039,0.03495457,1.601042,0.8572966,1.872102,-44.28915,-19.40398,1007.802
5.403879166,-143.7939,9.675067,53.09775,0.1982345,0.4639105,0.5365922,6.220021,-43.21225,-19.86192,1007.802
5.439177513,21.50953,0.5747947,27.13491,0.09356748,0.3961992,0.6606525,6.558831,-42.16057,-22.8632,1007.802
5.471954346,63.93802,-7.46181,14.30622,0.1973741,0.6484798,0.6749482,6.558831,-42.16057,-22.8632,1007.802
5.504731655,-8.867533,13.04335,0.622281,0.2077047,0.7925814,0.6535266,4.369681,-41.77392,-21.62293,1007.804
5.537509442,-76.6413,26.69376,-6.952757,0.1401494,0.6344873,0.7627129,4.390069,-42.86638,-21.54358,1007.804
5.570286274,1.382396,7.665916,2.882574,0.1135634,0.5942196,0.8172305,4.390069,-42.86638,-21.54358,1007.804
5.605585098,39.21395,-7.107254,5.142868,0.1674284,0.5875846,0.7088063,4.743752,-42.53254,-23.72534,1007.804
5.638361931,58.78199,-12.78015,5.203957,0.1056531,0.6227552,0.6578755,4.731683,-41.79177,-22.86658,1007.804
5.671139240,69.96374,-16.79845,3.615643,0.1529439,0.7498729,0.67105,4.731683,-41.79177,-22.86658,1007.802
5.703916073,61.57743,-17.92122,4.715245,0.1862813,0.8127043,0.6314045,4.013819,-42.12559,-20.74651,1007.804
5.739214420,48.15934,-19.04398,9.846723,0.1157875,0.8410706,0.59302,3.317069,-43.54593,-18.11198,1007.804
5.771991730,31.44885,-17.86212,10.82415,0.1712406,0.7986205,0.5852507,3.317069,-43.54593,-18.11198,1007.804
5.804769516,32.69127,-19.98946,14.67275,0.1783861,0.8586525,0.5947704,2.976805,-44.6095,-15.98092,1007.806
5.837546349,23.808,-16.32571,17.97156,0.2139202,0.8163728,0.5653868,2.633012,-45.70193,-15.96326,1007.806
5.870323658,24.92617,-13.78473,14.73384,0.2299363,0.8123457,0.5273274,2.633012,-45.70193,-15.96326,1007.806
5.905622005,26.66555,-14.8484,12.04593,0.2114613,0.8224327,0.5292814,1.915251,-46.03491,-13.78103,1007.807
5.938399315,22.19286,-11.89376,9.35801,0.2624313,0.8246489,0.5065331,1.134632,-46.38557,-12.90406,1007.807
5.971176147,11.19748,-6.279956,5.692669,0.2945044,0.8131941,0.5016608,1.134632,-46.38557,-12.90406,1007.807
6.003953457,-0.7297106,-2.852581,1.90515,0.2527313,0.8186834,0.5007889,0.7793919,-46.73215,-11.65469,1007.807
6.039251804,-2.779696,1.756648,-1.393657,0.3129811,0.8011121,0.4929706,0.05872506,-47.0889,-11.2129,1007.807
6.072028637,-7.06603,5.774951,-3.776129,0.2764696,0.8397503,0.4901108,0.05872506,-47.0889,-11.2129,1007.807
6.104806423,-16.2599,10.44327,-8.174538,0.2941168,0.766735,0.4747754,0.4145878,-46.73722,-12.08933,1007.807
6.137583733,-9.178137,13.10244,-15.74958,0.2087385,0.7344657,0.4894674,0.4138611,-46.74316,-12.52444,1007.806
6.170360565,3.246019,9.793253,-19.17056,0.2100101,0.8169494,0.5129268,0.4138611,-46.74316,-12.52444,1007.806
6.205658913,-3.835749,14.81613,-24.85184,0.2484007,0.8056277,0.5195919,1.142016,-46.74491,-12.52538,1007.804
6.238436222,-2.158489,16.05708,-29.06698,0.1736312,0.8000766,0.5115944,1.566046,-46.75187,-12.96104,1007.804
6.271213055,-9.799344,17.82986,-33.58757,0.1331938,0.8536931,0.496206,4.10793,-46.39269,-12.9079,1007.802
6.303990364,-17.4402,26.3392,-38.10815,0.1847472,0.8124876,0.4619691,4.10793,-46.39269,-12.9079,1007.802
6.339288712,-36.94612,32.07119,-44.82795,0.1673429,0.9978913,0.5300843,4.471281,-46.39951,-13.34348,1007.802
6.372066498,-74.34283,26.16193,-35.35915,0.09030475,0.9432895,0.615069,6.289488,-46.42171,-14.65117,1007.802
6.404843807,-51.2339,21.78907,-31.93817,0.08416814,0.6641397,0.6116534,6.289488,-46.42171,-14.65117,1007.802
6.437620640,-16.88111,12.27515,-39.87974,0.07772771,0.727752,0.6621158,8.450034,-45.36335,-16.84673,1007.802
6.470397949,-26.82044,15.99798,-44.88904,0.06433997,0.8404922,0.6417603,9.898233,-45.01344,-17.66241,1007.802
6.505696297,-33.46736,18.12532,-50.50923,-0.01657257,0.7698513,0.6661268,9.898233,-45.01344,-17.66241,1007.8
6.538473129,-13.89932,13.57518,-55.33526,-0.05328172,0.6887271,0.6706685,11.75829,-43.93058,-18.11714,1007.8
6.571250439,8.15356,9.675067,-58.69516,-0.0435796,0.6901789,0.6576465,14.64314,-42.48576,-18.57893,1007.8
6.639326095,13.86867,17.4753,-47.39368,-0.03642813,0.7548519,0.7042242,16.81481,-41.75618,-18.15809,1007.8
6.672108173,-11.29024,21.37542,-42.93419,-0.08845435,0.7846341,0.7071908,18.26435,-41.39523,-18.1657,1007.8
6.704880714,-7.376633,27.75743,-38.84122,-0.1619364,0.6355303,0.6454942,18.26435,-41.39523,-18.1657,1007.8
6.737658024,20.8262,24.98007,-37.06964,-0.1795564,0.6978577,0.6646965,19.70787,-40.66391,-17.74393,1007.796
6.770434856,25.67162,24.50733,-28.33391,-0.241355,0.7457981,0.6291501,21.56469,-39.18774,-16.09099,1007.796
6.805733204,21.75801,21.61179,-20.75887,-0.2463304,0.792882,0.6122432,21.56469,-39.18774,-16.09099,1007.8
6.838510513,9.209613,21.43451,-16.29938,-0.2496534,0.7617142,0.6166304,23.01497,-38.82085,-15.66349,1007.8
6.871287346,11.5702,18.18441,-15.26086,-0.2618025,0.765499,0.6152093,24.48698,-39.53538,-14.34857,1007.794
6.904064655,9.395975,17.29802,-16.54373,-0.2584421,0.7846252,0.6300948,24.48698,-39.53538,-14.34857,1007.799
6.939363480,5.917213,18.89353,-16.42155,-0.3055356,0.7742305,0.5926759,24.83826,-38.80144,-13.92539,1007.797
6.972140789,1.009671,16.648,-10.19048,-0.3268053,0.7351337,0.599043,25.92508,-38.42858,-13.12447,1007.797
7.004917622,22.25498,11.74331,-2.676526,-0.3186824,0.7876943,0.583541,25.92508,-38.42858,-13.12447,1007.797
7.037694931,14.8626,11.62513,1.355349,-0.3393282,0.6674151,0.4711326,26.28312,-38.05907,-12.69555,1007.797
7.070472240,16.91259,7.193175,5.02069,-0.316884,0.6364604,0.5452557,26.2981,-38.77606,-11.81387,1007.795
7.105770588,33.6852,-3.798064,7.952963,-0.3142534,0.7527869,0.5311146,26.2981,-38.77606,-11.81387,1007.795
7.138547421,27.28676,-4.507176,5.753758,-0.3260273,0.8033404,0.5310664,27.37077,-37.67942,-11.39736,1007.799
7.171324730,23.18679,-12.78015,4.959601,-0.313763,0.745288,0.5027244,26.67112,-39.12354,-10.50328,1007.799
7.204102516,31.13825,-19.33944,5.753758,-0.3024308,0.887351,0.5371415,26.67112,-39.12354,-10.50328,1007.799
7.239400864,18.09289,-19.22125,8.74712,-0.2641775,0.928434,0.5158089,26.31453,-39.48116,-10.06196,1007.798
7.272177696,9.582337,-19.39853,9.35801,-0.2635605,0.8648267,0.4730621,26.32274,-39.8337,-9.186012,1007.798
7.304955006,4.364193,-16.85755,13.57315,-0.2671424,0.9447778,0.4883537,25.95118,-39.47434,-9.626383,1007.794
7.337731838,0.5748257,-16.32571,18.52136,-0.2707278,0.821628,0.5029887,25.95118,-39.47434,-9.626383,1007.794
7.370509148,-1.599402,-13.31199,23.34739,-0.2134927,0.8559923,0.5432355,25.61415,-40.93121,-9.602993,1007.797
7.405807495,-27.0068,-10.35735,22.85868,-0.1905139,0.8020676,0.6053579,24.87778,-40.57692,-10.47801,1007.797
7.438584805,-42.28851,-14.67112,32.08313,-0.272045,0.8020834,0.7056745,24.87778,-40.57692,-10.47801,1007.795
7.471362591,12.31565,-9.175498,20.96492,-0.562456,0.8146714,0.6938289,24.16242,-41.30999,-10.90072,1007.795
7.504139423,11.94293,-7.284532,0.927726,-0.7347435,0.7560284,0.5922773,22.71963,-42.03538,-10.88738,1007.795
7.539437771,62.63348,3.11578,-23.01917,-0.7136796,0.6413895,0.4003368,22.71963,-42.03538,-10.88738,1007.793
7.572215080,78.35004,-1.788913,-56.06833,-0.5972596,0.6930761,0.4091286,22.35025,-41.65818,-10.02242,1007.793
7.604991913,87.54391,-13.07561,-96.2038,-0.5378282,0.8218332,0.4333431,23.42718,-40.52673,-7.057393,1007.791
7.637769222,-1.288798,-10.771,-114.3472,-0.1717265,1.03879,0.4456259,23.42718,-40.52673,-7.057393,1007.791
7.670546055,-114.5971,3.588521,-118.0737,-0.06240898,0.6012828,0.4335106,28.13136,-38.67513,-4.108528,1007.791
7.705844879,61.63955,-44.6902,-102.3127,0.04091205,0.8358772,0.3563754,32.1011,-33.52201,-4.19495,1007.791
7.738622189,184.2038,-72.8774,-59.61149,0.5108395,0.9947618,-0.1229708,32.1011,-33.52201,-4.19495,1007.791
7.771399498,257.3821,-42.20831,-50.69249,0.7306339,1.07934,-0.06104261,35.64191,-28.0523,-3.415375,1007.791
7.804176807,27.47312,11.50694,-99.62479,-0.525299,2.322089,0.5826811,37.762,-24.31676,-0.8657796,1007.796
7.839475155,-341.897,37.03498,-27.41758,-0.7052424,0.147801,0.3591822,37.762,-24.31676,-0.8657796,1007.797
7.872251987,44.36997,-22.58954,-46.96606,-1.025945,0.2385492,0.3472907,40.70898,-22.8602,-0.4574249,1007.797
7.905029297,-21.16745,-5.984493,-8.357804,-0.4019833,0.8838208,0.4993554,41.41177,-21.81024,-3.521337,1007.799
7.970583439,32.13218,2.997595,-30.47203,-0.4054774,0.8984633,0.3679298,42.1317,-21.45943,-4.39823,1007.797
8.005882263,-1.226677,42.64878,-64.4986,-0.7448515,0.6613525,0.2968879,42.8531,-21.09674,-4.4049,1007.796
8.038659573,2.189966,21.31633,-47.94349,-0.5410259,0.7628247,0.5662955,42.8531,-21.09674,-4.4049,1007.8
8.071436405,-0.916073,38.09865,-61.26089,-0.76318,0.6378717,0.4442634,44.6404,-19.27298,-4.000788,1007.8
8.104213715,15.98078,18.77534,-42.14003,-0.7335179,0.5938226,0.3075527,46.05044,-16.64684,-2.738397,1007.802
8.136990547,10.51415,24.33005,-49.47071,-0.7538183,0.7628021,0.3285261,46.05044,-16.64684,-2.738397,1007.802
8.172289372,5.544488,20.84358,-45.56102,-0.7376928,0.7311904,0.3858176,47.84981,-15.56383,-3.193048,1007.8
8.205066204,-7.997841,-4.388991,-41.65132,-0.5985074,0.5700451,0.2278437,47.82568,-14.08231,-1.475521,1007.802
8.237843514,12.81262,42.5306,-62.29941,-0.8765999,0.5552372,0.4639114,48.88483,-12.2568,-1.070469,1007.802
8.270621300,22.3171,34.494,-44.64468,-0.908179,0.5587462,0.4461707,48.88483,-12.2568,-1.070469,1007.8
8.305919647,41.07757,48.73533,-44.27814,-0.9218737,0.5909287,0.3980185,49.58053,-10.42532,-0.2919941,1007.8
8.338696480,-1.723643,28.99837,-35.29806,-0.7190788,0.3994973,0.08060862,49.9137,-8.580233,1.419333,1007.8
8.371473789,35.73519,46.78527,-36.58093,-0.7552791,0.5475551,0.2638701,49.9137,-8.580233,1.419333,1007.802
8.404250622,36.29427,49.68081,-32.18252,-0.8948383,0.6452807,0.3372209,49.88844,-7.03797,3.135904,1007.802
8.437027931,26.35495,49.56263,-32.54906,-0.7384526,0.3804015,0.08934786,51.38181,-5.555837,5.162267,1007.802
8.472326279,29.39887,57.65833,-34.07628,-0.9797855,0.598016,0.1560202,51.38181,-5.555837,5.162267,1007.803
8.505104065,28.9019,58.19016,-29.12807,-0.9950954,0.5009379,0.1518706,50.63024,-4.066624,7.315845,1007.803
8.537881374,21.69589,54.6446,-32.24361,-0.7739549,0.3802393,-0.03138948,50.60818,-2.568118,10.27655,1007.803
8.570658207,26.41707,53.0491,-34.80935,-1.031172,0.5443448,0.06380152,50.60818,-2.568118,10.27655,1007.803
8.605956554,31.01401,56.29919,-33.4043,-0.6778729,0.4104037,-0.01144564,49.80259,-1.444046,12.37378,1007.806
8.638733864,38.59274,61.38117,-48.61547,-1.035704,0.6044151,0.02280599,48.6727,0.7689681,14.08125,1007.806
8.671510696,26.54131,62.97667,-52.46407,-0.9144634,0.2454485,-0.05540251,48.6727,0.7689681,14.08125,1007.806
8.704288006,53.50173,59.37201,-53.01387,-1.113562,0.4576932,-0.04129068,48.30154,1.551362,17.92411,1007.806
8.737064838,39.46243,60.67205,-59.24496,-1.132463,0.4242549,-0.1345796,47.16303,4.183609,19.18979,1007.806
8.805140972,16.97471,64.86764,-82.03116,-1.144232,0.2390096,-0.2849388,46.03303,6.395776,20.83511,1007.804
8.837918282,14.11715,67.40862,-104.0843,-1.016906,0.1947676,-0.2866181,43.07141,9.359859,23.83881,1007.804
8.870695114,43.99725,53.69912,-105.245,-1.019399,0.2048425,-0.3756793,43.07141,9.359859,23.83881,1007.804
8.905993938,58.28503,36.62133,-91.56104,-1.008855,0.05326143,-0.4043576,39.67526,12.66477,25.03472,1007.802
8.938770771,71.82736,31.48027,-72.50127,-1.395265,0.2167879,-0.3772127,35.61737,15.66844,26.29843,1007.802
8.971548080,105.3105,-2.911674,-52.76952,-1.321409,0.2187009,-0.2609012,35.61737,15.66844,26.29843,1007.8
9.004325867,125.9967,-34.93991,-3.104149,-1.157445,0.3019528,-0.1824722,33.01401,18.5841,25.82076,1007.799
9.037102699,139.4148,-60.34976,60.79496,-0.8540265,0.3247391,-0.2121079,30.41461,21.1124,23.67055,1007.797
9.072401047,128.0467,-47.113,78.51078,-0.9056101,0.01090627,0.03446327,30.41461,21.1124,23.67055,1007.795
9.105178356,135.936,-53.90866,67.08714,-0.9616221,-0.3599525,-0.1400606,30.73732,22.9418,19.78662,1007.795
9.137955189,206.0704,-85.52324,47.47756,-0.7790172,-0.08769798,0.2706603,32.21672,21.37822,16.76284,1007.792
9.170732498,-47.19605,-43.39016,28.05125,-1.148552,-0.5325209,0.06233343,32.21672,21.37822,16.76284,1007.796
9.206030846,38.90335,-78.31393,50.53201,-1.034907,-0.5680934,-0.07699606,33.31,20.96446,13.34842,1007.794
9.238808632,117.7346,-76.71843,95.00481,-0.9227913,-0.3719833,-0.2359256,34.77089,20.5787,12.04694,1007.793
9.271585465,230.3596,-86.05508,80.46563,-0.760062,-0.3883114,-0.1881507,35.52038,19.07251,8.650185,1007.793
9.304362774,296.0833,-69.80459,89.62898,-0.7959661,0.01539307,-0.1525719,35.52038,19.07251,8.650185,1007.793
9.337140083,261.9169,-80.55946,88.16284,-0.8513052,0.4192483,-0.141978,37.36596,17.17548,3.517304,1007.791
9.372438431,138.6693,-74.29563,86.63562,-0.8467938,0.3694693,-0.09185207,38.84694,15.27508,-1.925901,1007.794
9.405215263,116.4301,-67.73634,83.64226,-0.8687571,0.2089273,-0.1093684,38.84694,15.27508,-1.925901,1007.792
9.437992573,139.7875,-69.27275,84.49751,-0.8567054,0.247564,-0.1007907,40.06215,11.51457,-5.72298,1007.788
9.470770359,135.2527,-56.92239,84.61968,-0.7611446,0.307982,-0.001947895,40.05796,8.199116,-8.282001,1007.788
9.506068707,113.8831,-27.90788,77.35009,-0.7995068,0.3056067,-0.0172569,40.05796,8.199116,-8.282001,1007.787
9.538845539,105.6832,-14.7893,69.71396,-0.8477054,0.3537241,-0.04369,40.18876,4.155348,-10.76756,1007.785
9.571622848,72.63493,-0.784337,58.47358,-0.8255268,0.4277226,-0.004863832,39.47325,0.06986046,-12.00789,1007.783
9.604399681,28.77766,16.11617,42.89588,-0.8629262,0.4373454,0.02312935,39.47325,0.06986046,-12.00789,1007.781
9.637176990,-11.91145,23.73913,28.2956,-0.9148384,0.4153689,0.006919302,39.52879,-2.833747,-11.09183,1007.781
9.672475338,-39.24459,30.4166,10.70197,-0.8909083,0.354572,-0.009893484,39.19321,-4.278735,-10.19822,1007.784
9.705253124,-42.90972,41.88058,-3.409594,-0.9409214,0.3506249,-0.02709794,39.19321,-4.278735,-10.19822,1007.782
9.738030434,-55.58236,49.68081,-21.85848,-0.9784128,0.3992199,0.002280813,39.9431,-5.361904,-9.311743,1007.78
9.770807266,-79.43673,50.74448,-44.58359,-0.9989103,0.4555199,0.06867249,40.72725,-4.982375,-8.075315,1007.78
9.803584576,-74.83979,16.41163,-80.62611,-0.8813053,0.2256843,0.1443137,40.72725,-4.982375,-8.075315,1007.78
9.838882923,133.886,7.902287,-63.09356,-0.9614695,0.4657433,0.233194,40.70987,-3.865288,-6.352058,1007.779
9.871659756,87.85452,-21.93952,-60.71109,-0.9715657,0.8000792,0.06760696,41.01986,-0.950665,-6.398369,1007.777
9.904437065,-17.7508,-19.39853,-43.11745,-0.8393796,0.5397694,0.01569871,41.01986,-0.950665,-6.398369,1007.775
9.937214851,-78.25644,-6.279956,-43.54508,-0.8764212,0.6034695,0.04553498,40.99209,0.5011387,-6.8564,1007.775
9.972513199,-181.6254,-4.802639,-36.58093,-1.021523,0.5429277,-0.08159047,40.95756,2.31738,-7.320162,1007.777
10.005290031,-190.5087,-7.520903,-24.85184,-0.9669613,0.2673606,-0.06301281,40.95756,2.31738,-7.320162,1007.777
10.038067341,-110.9941,-3.088952,-9.640674,-0.9836004,0.1328649,0.01665405,40.55855,4.201177,-7.349297,1007.777
10.070844650,-13.21599,-6.516327,9.419099,-0.9714551,0.1355888,0.0435774,40.52547,6.029307,-6.942835,1007.777
10.103621483,58.84412,-7.048162,18.8879,-0.9110379,0.2443773,-0.003421955,40.52547,6.029307,-6.942835,1007.777
10.138919830,75.61673,-2.852581,18.94899,-0.9133047,0.3792038,-0.01276566,40.50591,7.128561,-6.524914,1007.777
10.171697617,53.56385,-1.788913,13.08444,-0.9250537,0.4215617,-0.0007675895,40.50518,7.122617,-6.960025,1007.777
10.204474926,20.63984,-2.675303,7.464251,-0.9085748,0.4333479,-0.00660078,40.53223,5.66487,-6.937105,1007.781
10.237251759,-4.829681,2.938502,2.638218,-0.8967848,0.3739508,-0.01761054,40.53223,5.66487,-6.937105,1007.783
10.272550106,-5.326648,8.375028,1.416438,-0.9384044,0.3131442,-0.02704742,40.9091,4.929179,-7.361227,1007.783
10.305327416,7.28387,17.41621,2.393862,-0.9274555,0.4219499,0.05796365,40.9091,4.929179,-7.361227,1007.783
10.338104248,-60.92474,24.15277,-1.027123,-1.04487,0.402225,0.1641715,40.9091,4.929179,-7.361227,1007.783
10.370881558,-41.6673,2.997595,-1.760191,-0.9771631,0.3212556,0.20553,40.18843,4.572431,-6.919445,1007.783
10.403659344,-29.30527,9.320511,-3.898306,-0.9154881,0.3087592,0.1553409,40.54721,4.947883,-6.055422,1007.783
10.438957691,-16.88111,7.606824,-7.380381,-0.9495683,0.3308,0.07403842,40.54721,4.947883,-6.055422,1007.789
10.471735001,-8.867533,-1.670727,-10.0683,-0.9223125,0.2991927,0.04850924,40.90525,5.317391,-5.62651,1007.789
10.504511833,5.482368,2.170297,-6.097511,-0.9340286,0.3183221,0.0119247,40.53368,5.676757,-6.066882,1007.789
10.537289143,8.650526,1.697556,-4.570286,-0.9918694,0.3351118,-0.02550963,40.53368,5.676757,-6.066882,1007.79
10.572587490,12.7505,6.1886,-4.692464,-1.006379,0.3081067,-0.039394,40.89235,6.051361,-5.265018,1007.79
10.605364323,3.680865,10.02962,-8.846517,-1.089531,0.3570572,-0.04408418,41.62123,6.055559,-4.830845,1007.79
10.638142109,-13.89932,8.729585,-3.470683,-0.9428235,0.3421469,0.01672327,41.62123,6.055559,-4.830845,1007.789
10.670919418,-44.46274,26.87104,-6.402956,-0.8967611,0.3778589,0.05410641,40.52016,6.405632,-6.078341,1007.787
10.703696251,-82.0458,33.84398,-11.7177,-0.9008801,0.2802214,0.0961418,41.25039,6.420868,-4.836105,1007.787
10.738994598,-78.44279,34.84855,-17.39898,-0.9425941,0.2492555,0.03563584,41.25039,6.420868,-4.836105,1007.791
10.771771908,-48.31422,24.44824,-25.70708,-0.9196591,0.1951482,0.001486307,41.24726,6.815024,-2.666277,1007.791
10.804549217,-6.444822,21.25723,-24.11877,-0.8993144,0.2102086,-0.02842908,41.23664,7.567674,-0.9372895,1007.789
10.837326050,11.2596,22.55727,-17.88769,-0.8976098,0.3080368,-0.04013325,41.23664,7.567674,-0.9372895,1007.787
10.872625351,-3.959991,23.38457,-8.174538,-0.9020618,0.3425826,-0.03969339,40.4828,9.038206,-0.1512053,1007.787
10.905402184,-16.32203,28.99837,3.310198,-0.8667721,0.4020511,-0.07500613,40.46927,9.76708,-0.1626654,1007.787
10.938179493,-50.55057,34.73037,11.92375,-0.9365943,0.3530177,-0.1084619,40.46927,9.76708,-0.1626654,1007.787
10.970956326,-51.2339,27.04832,22.85868,-0.9349493,0.2746488,-0.1040155,40.47822,9.420475,1.1484,1007.787
11.003733635,-34.27493,27.58015,27.56254,-0.8757987,0.318209,-0.07437699,40.858,8.708559,2.464725,1007.787
11.039031982,-43.53093,34.494,22.1867,-0.8399213,0.338363,-0.09085876,40.5169,7.638198,4.098514,1007.787
11.071809769,-58.37779,38.39411,21.45364,-0.8365304,0.3418006,-0.09087199,40.5169,7.638198,4.098514,1007.791
11.104586601,-58.6884,36.0304,22.00344,-0.8598025,0.3219509,-0.1158177,40.5326,6.927156,5.415308,1007.789
11.137363911,-52.16571,32.89849,22.30888,-0.8844633,0.2829496,-0.09163232,40.56255,5.493184,7.178676,1007.789
11.205439568,8.588406,11.8615,32.38857,-0.8634584,0.2396262,-0.04348067,40.95441,4.040507,7.636237,1007.794
11.238216400,13.99291,7.843194,34.58777,-0.882674,0.3512901,-0.07152238,40.61269,2.965051,8.897073,1007.794
11.270993710,-13.65083,3.647614,38.74183,-0.8927683,0.314422,-0.0382289,40.61269,2.965051,8.897073,1007.794
11.303771496,-8.991775,-0.2525029,40.5745,-0.9398302,0.299979,-0.02750555,40.27678,1.447436,8.921418,1007.796
11.339069843,-25.95074,-12.54378,43.99548,-0.9561336,0.4146797,-0.04256197,40.66042,0.3473086,8.503027,1007.796
11.371846676,-41.91579,-18.8667,50.65419,-0.9328222,0.4159487,-0.02817832,40.66042,0.3473086,8.503027,1007.796
11.404623985,-33.5916,-30.38977,62.44437,-0.9932176,0.5029723,0.02189539,40.69891,-1.856296,7.29423,1007.796
11.437400818,-21.16745,-44.57201,82.90919,-1.003573,0.568599,0.01652606,41.83629,-4.427804,6.027596,1007.798
11.472699165,4.11571,-55.9769,96.95966,-0.9526878,0.6124267,0.02452246,41.83629,-4.427804,6.027596,1007.798
11.505476475,1.879362,-64.89989,105.0234,-0.8665481,0.7323453,0.006327026,40.79564,-7.431141,3.900242,1007.8
11.571031093,23.87012,-22.885,95.18808,-0.8325427,0.7288332,0.02069252,40.0582,-10.36682,2.330971,1007.8
11.603808403,-10.17207,-34.1717,103.6184,-0.7648371,1.086273,0.2125379,39.03743,-14.39679,0.6549637,1007.802
11.639106750,-93.78663,-21.70315,107.9557,-0.7263815,0.8375611,0.1901975,37.64706,-18.12133,-0.9631898,1007.8
11.671884060,-23.96288,-37.48089,103.0075,-0.80331,0.7179955,0.1780448,37.64706,-18.12133,-0.9631898,1007.802
11.704660892,33.25035,-57.5724,105.2678,-0.6488553,0.9245389,0.2779718,35.88316,-21.43257,-3.519941,1007.802
11.737438679,-5.51301,-32.5762,95.49353,-0.4733965,0.8528737,0.2670737,34.12144,-24.72597,-4.771357,1007.802
11.772737026,-44.6491,-13.90291,78.02207,-0.4767722,0.8547248,0.3272491,34.12144,-24.72597,-4.771357,1007.803
11.805514336,-61.04898,-7.166347,59.20665,-0.4299659,0.786388,0.3893367,31.28828,-29.1759,-6.37617,1007.807
11.838291168,-22.03714,-6.398142,38.74183,-0.393441,0.7348259,0.3546698,29.41711,-29.92998,-8.537841,1007.807
11.871068478,-46.69909,-7.166347,20.72057,-0.3835726,1.098503,0.4624046,29.41711,-29.92998,-8.537841,1007.807
11.903845310,-125.7788,16.23436,18.58245,-0.2635532,0.8351344,0.3354374,28.72599,-32.14373,-10.61592,1007.809
11.939144135,-109.8759,31.53936,15.10038,-0.3272133,0.851489,0.3124584,27.98744,-31.80726,-12.79627,1007.809
11.971921444,-131.4318,39.45778,23.34739,-0.2729164,0.9091845,0.4195863,27.98744,-31.80726,-12.79627,1007.809
12.004698753,-143.6075,56.00373,33.3049,-0.244992,0.5910214,0.3680125,29.43055,-31.49896,-16.65772,1007.811
12.037476063,-9.240257,46.66709,45.33944,-0.3374055,0.4423538,0.3217637,30.48472,-29.71421,-19.2363,1007.815
12.070252895,269.3093,-52.31316,103.5573,0.3142986,0.4615533,0.5483546,30.48472,-29.71421,-19.2363,1007.815
12.105551243,390.0721,-41.4401,124.5719,0.3396635,1.930326,-0.06332333,31.21085,-26.38137,-19.72495,1007.815
12.138328552,-33.281,54.52641,107.2226,-0.1483529,1.294055,-0.205134,30.91206,-29.27437,-13.64828,1007.815
12.171106339,-74.09435,21.25723,120.6622,-0.08740994,0.7539232,-0.348873,28.78684,-35.42366,-10.56435,1007.815
12.203883171,-77.01402,50.5672,100.3806,0.3630256,1.750563,0.1823867,28.78684,-35.42366,-10.56435,1007.815
12.239181519,-195.6026,44.59884,98.79234,-0.2307247,1.315308,0.2889065,25.87735,-35.81084,-12.73042,1007.815
12.271958828,-131.6182,-9.707333,103.6184,-0.03923507,0.6175706,0.2264455,23.71713,-37.28627,-14.38297,1007.815
12.304735661,-19.2417,-12.78015,54.9915,0.3965353,0.3760827,0.4852299,23.71713,-37.28627,-14.38297,1007.815
12.337512970,12.43989,-34.11261,68.79763,0.4067286,0.813526,0.6246226,19.99572,-36.60118,-18.2435,1007.815
12.370290279,-3.276663,-50.71765,61.7113,0.3601725,0.5554355,0.4763813,18.18137,-36.96719,-18.67053,1007.817
12.405589104,85.30757,-66.08175,43.07915,0.1434968,0.5700499,0.3170611,18.18137,-36.96719,-18.67053,1007.817
12.438366413,117.2998,-74.41382,22.24779,0.2939794,0.9898521,0.2722675,14.91216,-37.31783,-18.22546,1007.817
12.471143246,1.071792,-56.8042,22.30888,0.552651,1.042922,0.2388414,13.12347,-38.80309,-16.08584,1007.817
12.503920555,4.674798,-12.60287,15.65018,0.372286,0.8829212,-0.0006891331,13.12347,-38.80309,-16.08584,1007.815
12.539218903,1.258154,-13.54836,24.26373,0.3950145,1.167041,0.2072584,11.68744,-39.89291,-16.06677,1007.815
12.571995735,-50.67482,2.524853,42.16281,0.4712282,0.9875484,0.2882169,11.68744,-39.89291,-16.06677,1007.815
12.604773521,-37.94006,-11.30283,71.30228,0.3271486,0.9409632,0.3459109,11.68744,-39.89291,-16.06677,1007.819
12.637550831,-24.45985,-31.45344,76.67811,0.403536,0.6833657,0.4009932,10.53381,-39.89609,-16.50039,1007.819
12.670327663,48.65631,-54.85414,79.85474,0.4536684,0.6184593,0.3220288,7.976429,-39.54253,-17.74601,1007.815
12.738403320,86.54999,-59.34518,29.76174,0.5748448,0.6847939,0.1902297,4.337004,-39.52276,-16.93324,1007.817
12.771180630,81.33184,-56.27237,26.70729,0.5835842,0.8934588,0.2101116,1.449029,-40.57343,-14.30162,1007.821
12.803957462,89.34542,-59.81792,42.40717,0.6291652,0.9019532,0.1161252,1.449029,-40.57343,-14.30162,1007.821
12.839256763,141.3405,-75.3593,66.84278,0.7215982,0.7973609,-0.04759942,0.3213836,-41.62321,-11.29932,1007.818
12.872033596,126.4936,-60.64522,78.20534,0.7383608,0.8777163,-0.1387377,-1.484352,-41.91876,-6.567175,1007.816
12.904810905,105.8074,-58.3997,96.89857,0.5096075,0.6648912,-0.2822828,-1.484352,-41.91876,-6.567175,1007.816
12.937587738,83.87879,-44.6902,94.57719,0.6996528,0.6032507,-0.1998465,-3.302884,-41.47948,-1.411374,1007.816
12.970365047,104.565,-32.98985,86.94106,0.6913269,0.6278293,-0.2273014,-6.579905,-41.05454,2.440971,1007.816
13.005663395,116.5543,-39.60823,73.68475,0.8118436,0.5298064,-0.5306975,-8.776868,-39.89231,7.088511,1007.814
13.038441181,38.65486,-7.22544,54.56388,0.8855226,0.578437,-0.5598271,-8.776868,-39.89231,7.088511,1007.816
13.071218014,-48.06574,-1.670727,41.06321,0.9501014,0.3673142,-0.6010592,-12.14983,-37.65693,10.04206,1007.814
13.103995323,-61.67019,53.93549,14.73384,0.7871646,0.300101,-0.4754174,-13.26274,-36.49432,10.46044,1007.814
13.139293671,-20.54624,49.799,1.29426,0.6743761,0.1687361,-0.3902323,-13.26274,-36.49432,10.46044,1007.814
13.172070980,-3.463025,53.93549,-19.90363,0.849026,0.2511265,-0.3084578,-14.35788,-36.51548,8.721401,1007.814
13.204847813,-16.38415,63.5085,-29.55569,0.7877468,0.3016217,-0.2573642,-15.82158,-36.15265,8.344598,1007.814
13.237625122,-2.966059,65.57675,-41.89568,0.7072288,0.2634046,-0.2633734,-15.82158,-36.15265,8.344598,1007.814
13.270402908,4.302073,64.27671,-56.25159,0.7149056,0.3095077,-0.2263962,-16.1999,-35.42884,7.898496,1007.814
13.305701256,13.86867,85.3728,-70.48533,0.6098877,0.3615746,-0.2469241,-16.16715,-37.3296,6.622766,1007.817
13.338478088,27.03828,77.57256,-80.1374,0.6333837,0.5096821,-0.1283067,-16.16715,-37.3296,6.622766,1007.817
13.371255398,16.91259,91.93208,-98.21974,0.6963714,0.5843558,-0.04144221,-15.79028,-38.06529,6.198644,1007.814
13.404032230,26.04434,87.91378,-106.1002,0.5370294,0.6222536,-0.003093815,-14.66496,-39.89603,5.790772,1007.814
13.439330578,36.10791,76.56799,-109.9488,0.5989745,0.7245926,0.07121608,-14.66496,-39.89603,5.790772,1007.816
13.472108364,40.45636,67.17225,-113.3087,0.5133002,0.8048815,0.02364347,-12.45418,-41.36496,5.375762,1007.816
13.504885674,36.79124,53.99458,-99.74697,0.5582711,0.8826486,0.01668053,-9.871108,-43.18731,5.836234,1007.816
13.537662506,14.80048,74.7952,-80.44284,0.519971,1.049435,-0.04605703,-9.871108,-43.18731,5.836234,1007.818
13.570439815,-8.370566,74.91339,-61.7496,0.5299673,1.12417,-0.09673636,-6.12836,-45.37686,6.300949,1007.818
13.605738163,-27.25528,86.55465,-30.28876,0.4153587,1.361901,0.04902978,-4.293724,-46.10416,6.745172,1007.814
13.638515472,-124.7228,67.40862,-8.60216,0.340192,1.182473,0.3912453,-4.293724,-46.10416,6.745172,1007.818
13.671293259,-76.39281,29.64839,44.36201,0.605279,0.7907024,0.3955393,-3.197638,-46.49498,5.009045,1007.818
13.704070091,8.402043,26.3392,14.4284,0.5871683,0.616052,0.235552,-3.918202,-47.3406,0.7956007,1007.818
13.739368439,-12.9675,23.9164,9.724545,0.3586452,0.7326074,0.1820059,-3.918202,-47.3406,0.7956007,1007.818
13.772145748,-50.98542,30.00295,3.554554,0.4020831,0.6374404,0.1719377,-4.662356,-46.56027,-0.02393913,1007.818
13.804922581,-6.755425,34.55309,-15.81067,0.4296698,0.6837366,0.2127182,-5.749279,-46.93398,-0.8870227,1007.817
13.837699890,-13.89932,41.88058,-12.57295,0.4328977,0.9856687,0.3441486,-5.749279,-46.93398,-0.8870227,1007.817
13.870477676,-92.73058,52.69454,-14.10017,0.5344915,0.9493458,0.3916172,-5.022578,-46.94761,-1.758186,1007.817
13.905776024,-96.76842,63.68578,-26.56233,0.3975861,0.7218005,0.3321147,-5.026212,-46.97733,-3.933744,1007.817
13.938552856,-100.8063,66.99497,-29.06698,0.4045561,0.6538308,0.3548246,-5.026212,-46.97733,-3.933744,1007.817
13.971330166,-62.47776,79.93627,-33.15995,0.4679754,0.7347344,0.3564776,-3.933255,-47.46372,-8.217428,1007.817
14.004107475,-71.11255,98.60956,-38.29142,0.387045,0.8941398,0.474363,-2.133954,-46.73111,-12.08604,1007.817
14.036884308,-161.0013,95.8913,-25.58491,0.2297488,0.9225646,0.6888992,-2.133954,-46.73111,-12.08604,1007.817
14.072182655,-181.2527,73.43607,-21.12541,0.1434207,0.5133259,0.9149981,-0.6893885,-46.41092,-15.07727,1007.817
14.104960442,-77.20039,48.02622,-20.75887,0.1809369,0.2590428,0.9331027,1.518018,-45.04602,-21.50545,1007.817
14.137737751,14.36564,37.27135,-20.02581,0.07383367,0.3558311,0.8326063,2.921185,-42.546,-25.02833,1007.817
14.170514584,52.63204,26.87104,-38.53578,0.04626523,0.5158995,0.8415763,2.921185,-42.546,-25.02833,1007.815
14.205812931,40.39425,2.524853,-62.29941,0.1199137,0.7852845,0.8304056,5.085366,-41.45792,-25.04834,1007.815
14.238590241,10.32779,-7.875459,-39.08558,0.09889346,1.026867,0.7169713,7.29302,-42.5327,-23.29352,1007.819
14.271368027,-108.385,10.67964,-14.5278,0.1192482,0.8400481,0.7220182,7.29302,-42.5327,-23.29352,1007.819
14.304144859,-94.22147,10.08872,13.20662,-0.03469055,0.4561991,0.8283801,8.39056,-42.91164,-24.15942,1007.821
14.336922169,-21.54017,-2.261654,31.47223,0.08895602,0.3297711,0.848976,9.444729,-41.12688,-26.738,1007.821
14.372220516,29.89583,-5.629937,20.29294,0.0006074241,0.3162874,0.8371718,9.444729,-41.12688,-26.738,1007.819
14.404997826,88.16512,-17.44847,0.1946578,0.1078655,0.5274901,0.7533234,8.688076,-39.67928,-27.6302,1007.819
14.437774658,76.98338,-16.73936,-7.869092,0.2063658,0.7595604,0.7392619,7.605512,-40.01733,-25.88261,1007.821
14.470551968,42.87907,-9.234591,-0.7216774,0.1518493,0.8090561,0.7085095,7.605512,-40.01733,-25.88261,1007.821
14.505850792,3.991468,-1.611634,1.660794,0.1239086,0.7198594,0.7322969,8.006199,-41.81746,-24.17614,1007.821
14.538628101,-0.916073,-1.375264,1.29426,0.1328251,0.6474256,0.7410495,8.021798,-42.52935,-22.92151,1007.822
14.571404934,9.209613,-5.098103,2.149506,0.124043,0.6674078,0.7535556,8.021798,-42.52935,-22.92151,1007.822
14.604182243,-4.332715,-4.566269,-1.393657,0.151312,0.6329787,0.7424715,7.293747,-42.52675,-22.85841,1007.821
14.636959076,11.75657,-1.72982,-1.21039,0.1504278,0.5888671,0.7035498,7.301235,-42.88525,-22.41757,1007.821
14.672257423,14.2414,-0.3115956,-1.576924,0.1215466,0.694097,0.7424499,7.301235,-42.88525,-22.41757,1007.821
14.705035210,19.58378,-3.738971,-0.2329653,0.1264447,0.6720706,0.7208103,7.679562,-43.60905,-21.97147,1007.825
14.737812519,14.36564,-4.270805,-0.4162323,0.1239805,0.6851197,0.7092438,7.310072,-43.2327,-21.16866,1007.825
14.770589352,11.75657,-3.207137,-1.454746,0.1234718,0.6948562,0.7092303,7.310072,-43.2327,-21.16866,1007.825
14.805888176,12.56413,-2.084376,-1.271479,0.1564521,0.7051383,0.6773667,7.330356,-44.32601,-21.15147,1007.825
14.838665009,9.520217,0.9293509,-1.271479,0.135449,0.7606158,0.696106,7.675603,-43.22169,-20.29891,1007.825
14.871442318,-2.406972,1.402092,-0.04969826,0.1335946,0.718531,0.669699,7.675603,-43.22169,-20.29891,1007.825
14.904220104,-5.326648,0.8111654,1.721883,0.1301875,0.7315103,0.7192677,7.69516,-44.32094,-20.71683,1007.825
14.936996937,-5.575131,0.7520727,1.538616,0.131259,0.686111,0.7029673,7.337844,-44.68451,-20.71063,1007.823
14.972295284,-1.661522,-1.020708,1.049904,0.1352816,0.6271831,0.6987143,7.680911,-43.59801,-21.1634,1007.825
15.005072594,15.7323,-1.138893,-0.8438554,0.1317632,0.6788298,0.7058653,7.680911,-43.59801,-21.1634,1007.825
15.037849426,13.49595,-1.138893,-1.21039,0.126819,0.7137748,0.6942716,7.31756,-43.59119,-20.72782,1007.825
15.070626736,13.55807,-3.26623,-0.4773214,0.1287529,0.7156789,0.6855997,7.689126,-43.95056,-20.28745,1007.827
15.105925560,10.32779,-3.384415,-0.5384104,0.1297373,0.7093289,0.681756,7.689126,-43.95056,-20.28745,1007.827
15.138702869,11.2596,-2.970766,-0.5994994,0.1374687,0.7264832,0.6879695,7.704102,-44.66755,-19.40576,1007.827
15.171479702,5.109643,-1.788913,-1.088212,0.1321114,0.7322494,0.6831599,7.696614,-44.30906,-19.84661,1007.829
15.204257011,5.979334,-1.788913,-0.9660335,0.1335739,0.7273009,0.6701671,7.696614,-44.30906,-19.84661,1007.829
15.237034321,8.588406,-2.498025,-0.2940543,0.1418264,0.7268292,0.6624464,7.340751,-44.66073,-18.97018,1007.829
15.272332668,5.296005,-1.552542,-0.5384104,0.1461847,0.729207,0.6489545,7.342204,-44.64884,-18.09996,1007.829
15.305110455,5.792971,-1.0798,-0.1107873,0.1553741,0.7458898,0.6556466,7.342204,-44.64884,-18.09996,1007.829
15.337887287,1.133913,-0.07522487,-0.3551433,0.1388825,0.7399679,0.6643591,7.354273,-45.3896,-18.95872,1007.829
15.370664597,1.941483,-0.3115956,-0.2329653,0.1345175,0.7379901,0.6653352,8.069633,-44.65653,-18.53601,1007.831
15.405962944,2.56269,-0.3115956,-0.3551433,0.1388877,0.7365119,0.6576253,8.069633,-44.65653,-18.53601,1007.831
15.438739777,2.314207,-0.6661516,-0.04969826,0.1393688,0.7384675,0.6581025,7.725839,-45.74897,-18.51835,1007.831
15.471517086,1.506637,-0.9025224,-0.1718763,0.1417993,0.738024,0.661467,6.984888,-45.0124,-18.09376,1007.833
15.504294872,0.6990672,-0.784337,-0.9660335,0.1398718,0.7306623,0.6557063,6.984888,-45.0124,-18.09376,1007.831
15.537071705,3.556623,-1.257078,-0.6605884,0.1423036,0.7292282,0.6566654,7.706282,-44.64972,-18.10043,1007.829
15.572370529,3.494502,-0.784337,-0.2940543,0.1427485,0.7447602,0.6484578,6.998411,-45.74128,-18.0823,1007.829
15.605147362,2.997536,-0.2525029,-0.1107873,0.1422616,0.7462506,0.6532704,6.998411,-45.74128,-18.0823,1007.827
15.637924671,0.5748257,-0.429781,0.1946578,0.1412778,0.752107,0.656152,7.706282,-44.64972,-18.10043,1007.827
15.670701504,0.6990672,-0.1934102,0.07247978,0.136445,0.7418154,0.6528094,8.084504,-45.37436,-17.71649,1007.827
15.706000805,1.568758,-0.5479663,-0.2940543,0.1373992,0.7511574,0.6643457,8.084504,-45.37436,-17.71649,1007.826
15.738777637,-0.2327444,-0.3706883,-0.04969826,0.1374135,0.7432981,0.6547304,7.707631,-44.63868,-17.29236,1007.826
15.771554947,3.246019,-0.9616151,-0.1718763,0.1403389,0.736437,0.6451065,7.356453,-45.37177,-17.65339,1007.826
15.804331779,0.8854296,-0.607059,-0.2940543,0.1369037,0.7530178,0.6523101,7.356453,-45.37177,-17.65339,1007.826
15.837109089,1.196033,-0.4888737,0.01139076,0.145664,0.7448179,0.6532645,7.350419,-45.00139,-17.22401,1007.828
15.872407913,-0.04638205,0.04296049,-0.2940543,0.1427566,0.7423618,0.6537564,7.357076,-45.36668,-17.28043,1007.828
15.905185223,0.5748257,-0.01613219,-0.1718763,0.1413021,0.7408686,0.6508739,7.357076,-45.36668,-17.28043,1007.826
15.937962055,1.133913,-0.07522487,-0.3551433,0.1388612,0.7446842,0.6422094,7.719804,-45.37859,-18.08897,1007.825
15.970739365,1.879362,-0.429781,-0.1718763,0.1369105,0.7511032,0.6571266,7.349588,-45.00818,-17.72128,1007.825
16.006037712,0.5748257,-0.429781,0.07247978,0.1374091,0.7437348,0.6475093,7.719804,-45.37859,-18.08897,1007.825
16.038815022,-0.1085028,-0.1343175,0.01139076,0.1407936,0.7506084,0.6513418,7.719804,-45.37859,-18.08897,1007.823
16.071591854,0.2642218,-0.3115956,0.07247978,0.1432354,0.7442805,0.6489387,7.72188,-45.3616,-16.84579,1007.823
16.104369640,0.5748257,0.1020532,-0.2940543,0.1427497,0.7442731,0.6484585,6.985615,-45.00646,-17.65865,1007.826
16.137146950,1.071792,0.1020532,-0.04969826,0.1398277,0.7476513,0.6474977,6.985615,-45.00646,-17.65865,1007.826
16.172445297,0.6990672,-0.07522487,0.07247978,0.1378907,0.7456971,0.6489493,7.719804,-45.37859,-18.08897,1007.826
16.205222130,0.512705,-0.2525029,-0.04969826,0.1388366,0.7564231,0.6494122,7.714496,-45.00226,-17.22448,1007.826
16.237999439,-1.226677,0.1020532,0.07247978,0.1417777,0.7442516,0.6465354,7.714496,-45.00226,-17.22448,1007.826
16.270777226,0.1399803,0.04296049,0.07247978,0.1417784,0.7437579,0.6455734,7.720531,-45.37264,-17.65386,1007.827
16.303554058,0.8233088,-0.07522487,-0.1718763,0.1403204,0.7447366,0.6479822,7.35718,-45.36583,-17.21828,1007.827
16.338852406,0.8233088,-0.1934102,-0.1107873,0.13982,0.7510672,0.6484552,7.35718,-45.36583,-17.21828,1007.827
16.371629715,1.879362,-3.029859,-0.5994994,0.1190131,0.7202036,0.6475884,7.356453,-45.37177,-17.65339,1007.827
16.404407024,17.16107,-9.64824,-2.187814,0.1292543,0.7058285,0.669247,6.992376,-45.3709,-17.65292,1007.827
16.437183857,24.86405,-9.530054,-3.959395,0.1543871,0.7511888,0.6484205,6.992376,-45.3709,-17.65292,1007.827
16.472483158,19.95651,-6.220864,-1.82128,0.1445776,0.7889718,0.6305764,8.449307,-45.36929,-17.28184,1007.827
16.505259991,13.30958,-3.91625,-0.5994994,0.1668816,0.7952218,0.5920052,6.995179,-45.34797,-15.97463,1007.827
16.538037300,3.991468,-1.138893,-0.04969826,0.1571589,0.7984997,0.5848029,6.995179,-45.34797,-15.97463,1007.825
16.570814133,1.258154,0.1611458,-0.4773214,0.1483545,0.8282358,0.5992198,7.008702,-46.07684,-15.96317,1007.827
16.603591442,-11.41448,-1.0798,4.470889,0.1416298,0.8025542,0.6262307,7.366744,-45.70734,-15.53426,1007.827
16.638889789,-3.587266,-9.293684,13.26771,0.1158092,0.8520213,0.6969776,7.366744,-45.70734,-15.53426,1007.825
16.671667576,-23.59016,-16.26662,26.21858,0.1308623,0.8612482,0.7450641,7.372778,-46.07772,-15.96364,1007.825
16.704444408,-1.537281,-27.49423,32.81619,0.1414263,0.6983618,0.7014806,6.644624,-46.07597,-15.9627,1007.825
16.737221718,67.10618,-40.37643,34.70995,0.1900516,0.65589,0.6287436,6.644624,-46.07597,-15.9627,1007.829
16.772520065,114.5043,-47.46756,37.2146,0.2432734,0.7185125,0.5351389,5.188315,-46.07248,-15.96082,1007.829
16.805297375,128.3573,-43.50835,34.52668,0.3004082,0.757365,0.3804277,3.729604,-45.66889,-13.354,1007.831
16.838074207,114.1937,-36.06267,23.59175,0.2997455,0.825307,0.3461502,3.729604,-45.66889,-13.354,1007.831
16.870851994,74.56068,-30.62614,18.76572,0.3112821,0.872065,0.3325742,1.172043,-47.82848,-7.348052,1007.831
16.903629303,78.16368,-30.62614,19.49879,0.3250958,0.7649605,0.2523155,0.4570858,-48.13853,-3.487536,1007.831
16.938927650,151.8389,-37.83545,16.6276,0.4002423,0.8248869,0.3049968,-0.6287099,-48.08327,0.3677199,1007.831
16.971704483,193.2114,-62.00435,30.31154,0.3809112,0.9599982,0.1469523,-0.6287099,-48.08327,0.3677199,1007.833
17.004481792,235.6398,-67.55907,52.54794,0.4693055,1.141378,0.06945138,-0.9895825,-47.63644,6.329706,1007.833
17.037258625,218.743,-62.71346,69.40852,0.4663227,1.159966,0.01455521,-2.43084,-47.50983,15.34461,1007.833
17.072557926,195.0129,-71.87283,90.91185,0.4063129,1.050967,-0.1093295,-2.43084,-47.50983,15.34461,1007.833
17.105334759,176.6872,-59.87702,100.1363,0.5036625,0.9221105,-0.2662901,-3.219442,-43.31541,24.2946,1007.834
17.138112068,171.8418,-51.60404,114.3089,0.3832295,0.9234405,-0.2804473,-4.746921,-38.85716,30.19496,1007.834
17.170888901,127.177,-64.54533,127.4431,0.2927375,0.769917,-0.3969722,-4.746921,-38.85716,30.19496,1007.834
17.203666210,129.3512,-87.11874,132.208,0.2825276,0.5367745,-0.5732564,-7.032075,-32.88972,35.26433,1007.834
17.238964558,104.8756,-78.07756,120.4789,0.5833231,0.4231471,-0.6758472,-7.849905,-27.7451,38.16867,1007.834
17.271742344,48.40783,-40.6128,103.4351,0.8556404,0.2725482,-0.5978042,-7.849905,-27.7451,38.16867,1007.833
17.304519653,23.18679,-18.33486,101.2359,0.6620373,0.1887379,-0.7209287,-6.11636,-22.93321,39.39621,1007.833
17.337296486,20.39135,-15.02567,93.59977,0.6194881,0.08310972,-0.8713348,-6.534528,-20.01684,39.35084,1007.831
17.372594833,27.34888,16.47073,74.84544,0.5643749,0.1753124,-0.92333,-6.534528,-20.01684,39.35084,1007.829
17.405372143,21.26105,30.06204,70.93575,0.6119219,0.1791436,-0.9898765,-6.566881,-18.18277,40.19241,1007.829
17.438149929,17.78228,53.99458,65.55991,0.8121577,0.07707249,-1.130755,-8.044928,-17.09785,39.30688,1007.825
17.470926762,36.91548,95.12309,67.69802,0.842738,0.07615279,-1.159708,-8.044928,-17.09785,39.30688,1007.825
17.503704071,42.87907,112.3782,59.20665,0.8264031,0.007014634,-1.136941,-10.325,-15.20955,39.28017,1007.827
17.539002419,26.29283,140.0926,48.94369,1.0188,-0.005787357,-0.9679389,-14.37105,-13.01842,38.87801,1007.824
17.571779251,24.73981,154.6294,36.72589,1.06025,-0.05166674,-0.8216341,-14.37105,-13.01842,38.87801,1007.824
17.604556560,23.55951,161.6024,18.58245,1.065584,-0.03658282,-0.7600551,-17.72793,-9.049312,35.33831,1007.824
17.637334347,52.69416,159.7705,8.808209,1.004012,-0.05834726,-0.6640853,-23.65867,-6.883396,32.76302,1007.822
17.672632694,85.74242,163.1978,-12.87839,0.8004259,0.01415582,-0.5688834,-23.65867,-6.883396,32.76302,1007.822
17.705410004,97.85596,145.5291,-14.58888,0.7800035,0.03576639,-0.5183246,-28.44802,-4.324787,28.00399,1007.822
17.738186836,97.42112,141.5699,-22.2861,0.5237029,0.003041718,-0.5037079,-33.29547,-1.814884,24.11622,1007.822
17.770964146,94.25296,163.907,-38.04707,0.2839088,-0.06292776,-0.6671841,-33.29547,-1.814884,24.11622,1007.82
17.803740978,36.35639,293.9109,-95.22638,0.1032792,-0.28817,-0.7631699,-36.63415,1.043931,19.35054,1007.819
17.839040279,-16.07354,388.0455,-126.0153,-0.1987842,-0.2019015,-0.3909722,-38.85718,2.412663,12.43081,1007.815
17.871817112,376.7161,241.4957,44.97291,-2.211488,-0.1520164,-3.265298,-42.1604,-0.6578665,0.5464675,1007.815
17.904594421,-496.5778,103.2188,-27.90629,3.097867,1.440924,-0.2169058,-42.1604,-0.6578665,0.5464675,1007.815
17.937371254,-292.8837,240.1956,-23.87441,1.491266,-0.5461438,0.4628434,-41.80767,0.08796644,1.839873,1007.813
17.972669601,-179.1406,-58.69516,15.40582,0.2940265,-0.4928728,0.1074696,-41.48488,2.267772,1.369911,1007.816
18.005447388,-37.94006,-13.07561,8.014051,1.337949,-0.6682658,0.1047766,-41.48488,2.267772,1.369911,1007.814
18.038224697,121.3376,21.4936,-0.7827665,0.8380588,0.3739182,0.7638571,-42.20097,1.528756,0.5120876,1007.812
18.071001530,-22.5341,22.02544,6.24247,0.9129672,0.5255881,0.7725967,-41.84438,1.886377,0.07077622,1007.812
18.103778839,-177.0285,13.10244,-14.58888,0.7311647,0.1860698,0.7037421,-41.84438,1.886377,0.07077622,1007.809
18.139077187,-155.7832,-5.275381,-19.84254,0.5799062,-0.1544335,0.5265103,-42.21449,2.25763,0.5006278,1007.807
18.171854496,-59.12324,-30.9216,-20.20907,0.5688576,-0.1864979,0.6214131,-41.83617,1.533827,0.9467294,1007.807
18.204632282,-78.38068,-43.15379,-28.27282,0.5893632,-0.01689017,0.6836858,-41.83617,1.533827,0.9467294,1007.809
18.237409115,-141.806,-47.05391,-41.83459,0.59894,0.03715371,0.6696222,-41.82046,0.8227849,2.263525,1007.809
18.270186424,-133.7303,-56.50874,-58.51189,0.4770637,-0.2078093,0.4685899,-41.0638,-0.6248207,3.155728,1007.809
18.305484772,-58.87476,-69.74549,-84.35254,0.4377814,-0.2841643,0.1814252,-41.0638,-0.6248207,3.155728,1007.811
18.338261604,-15.82506,-70.57279,-109.6434,0.6183355,-0.07324205,0.03915869,-41.38389,-2.782549,5.241819,1007.813
18.371038914,-37.44309,-73.82289,-129.7417,0.6605446,0.1275801,-0.05847917,-40.59063,-6.029413,7.840961,1007.807
18.403816700,-69.55952,-106.5602,-154.1773,0.9942868,0.2282711,-0.2678522,-40.59063,-6.029413,7.840961,1007.813
18.439115048,-93.35178,-59.04972,-166.8227,1.047886,0.1311154,-0.3660307,-38.98774,-10.43731,10.08428,1007.813
18.471892357,-19.67655,-49.94945,-155.8878,1.158399,0.2567702,-0.1489066,-36.31532,-16.98546,11.48946,1007.811
18.504669190,11.13536,-20.93494,-153.8108,0.9647008,0.4583735,-0.06066187,-36.31532,-16.98546,11.48946,1007.811
18.537446499,16.91259,-36.29904,-166.9449,1.764316,0.7420647,0.06216804,-32.18764,-23.61566,11.58839,1007.811
18.570224285,-75.39888,33.78488,-214.2278,1.077887,0.8853788,0.1348217,-28.75844,-28.39915,13.33781,1007.811
18.605522633,-142.1787,33.96216,-193.091,0.3459684,0.7402726,0.1088574,-28.75844,-28.39915,13.33781,1007.811
18.638299465,-100.8684,34.90764,-149.9011,0.0689901,0.6054628,0.03606918,-23.92296,-34.28819,10.00465,1007.813
18.671076775,-69.06256,29.17565,-148.6793,0.3902335,0.738337,0.2676047,-18.67803,-39.53389,4.919988,1007.813
18.703853607,-96.83055,44.59884,-179.1016,0.6415564,1.067126,0.4609832,-18.67803,-39.53389,4.919988,1007.819
18.739151955,-163.921,48.67624,-168.8997,0.3842609,1.243131,0.446406,-13.88978,-42.87102,1.608874,1007.819
18.771929741,-188.4587,60.43568,-140.7988,0.2571289,0.9939075,0.4095369,-7.223472,-46.23728,-3.507273,1007.815
18.804707050,-194.5465,76.56799,-148.5571,0.2089041,0.6804846,0.5708985,-7.223472,-46.23728,-3.507273,1007.815
18.837483883,39.71091,24.03459,-68.28613,0.1836536,1.851596,1.339853,-0.6776444,-46.7346,-12.08792,1007.815
18.870261192,-209.1449,0.7520727,28.84541,0.01974404,1.059015,0.8826991,6.270983,-45.73359,-17.64625,1007.821
18.905559540,-59.74445,-1.966191,44.72855,0.2122591,0.06411576,0.4591809,8.815164,-45.77536,-20.26021,1007.821
18.938337326,69.15617,-6.043586,22.30888,0.05478086,0.343753,0.5193032,8.815164,-45.77536,-20.26021,1007.821
18.971114635,51.26538,7.784102,-2.676526,0.2228171,0.7825314,0.7310052,6.575156,-42.86652,-21.17345,1007.821
19.003891468,5.855092,10.85692,-14.95542,0.1427609,0.7424288,0.6633835,5.8755,-44.31063,-20.27937,1007.823
19.039189816,3.432381,3.883985,-9.457407,0.1443004,0.9205177,0.7073967,5.8755,-44.31063,-20.27937,1007.823
19.071967125,-16.88111,-0.3706883,2.088417,0.1713385,0.7764133,0.6834817,6.984161,-45.01834,-18.52887,1007.821
19.104743958,4.923281,-5.098103,15.10038,0.2154281,0.604039,0.6359821,6.611869,-44.66493,-19.40435,1007.823
19.137521744,38.09578,-0.07522487,9.419099,0.2201808,0.6509614,0.6541919,6.611869,-44.66493,-19.40435,1007.823
19.170299053,43.93513,-3.91625,7.464251,0.0801199,0.74641,0.6808551,6.605108,-44.30049,-19.41008,1007.82
19.205597401,60.95622,-18.63033,13.08444,0.1422589,0.7507545,0.6705925,5.900767,-45.36319,-17.27855,1007.82
19.238374233,71.20615,-27.67151,16.44434,0.08776032,0.7899221,0.6254148,5.900767,-45.36319,-17.27855,1007.82
19.271151543,81.2076,-36.23994,18.33809,0.1228042,0.74605,0.577743,5.18228,-45.7021,-15.53144,1007.822
19.303928852,88.16512,-36.77178,16.87196,0.2398958,0.9173189,0.5526577,4.122802,-47.11053,-12.08837,1007.822
19.339227676,43.12756,-36.5945,16.32216,0.1539136,0.9256244,0.5196351,4.122802,-47.11053,-12.08837,1007.824
19.372004986,37.22609,-36.18085,19.25443,0.3056313,0.8197139,0.4453052,3.421872,-48.21529,-8.588396,1007.822
19.404781818,53.43961,-34.64444,22.85868,0.4306836,0.9127201,0.432353,2.33775,-48.56606,-7.773191,1007.824
19.437559128,26.41707,-36.65359,18.33809,0.3161586,0.8764738,0.4004281,2.33775,-48.56606,-7.773191,1007.824
19.470335960,39.27607,-41.02645,16.13889,0.2478951,0.7709557,0.2967748,1.613229,-48.5346,-5.596694,1007.824
19.505635262,43.74876,-35.23537,13.3288,0.2975018,0.9397838,0.2819619,0.4888158,-49.9777,-4.702063,1007.824
19.538412094,0.3884634,-28.61699,12.71791,0.349873,0.9699366,0.2827549,0.4888158,-49.9777,-4.702063,1007.824
19.571189403,-11.41448,-13.43017,8.197319,0.4070114,0.8184297,0.2087181,-0.2621278,-48.48339,-2.175531,1007.824
19.603966236,13.80655,-8.348201,9.724545,0.4258893,0.8398862,0.1898678,-0.9849746,-48.85797,-3.039085,1007.828
19.639264584,12.62626,7.31136,4.043266,0.4432357,0.8970343,0.1926287,-0.9849746,-48.85797,-3.039085,1007.828
19.672041893,-12.71902,15.0525,4.165444,0.3105593,0.9602812,0.2722728,-1.348325,-48.85115,-2.603503,1007.828
19.704819679,-30.92041,19.01171,-1.393657,0.3400395,0.8058122,0.2257436,-1.710949,-48.83839,-1.73281,1007.828
19.737596512,-36.5734,34.37581,-6.097511,0.5132912,0.8577871,0.2777227,-1.710949,-48.83839,-1.73281,1007.824
19.770373821,-42.10215,24.86189,-15.56631,0.1978281,0.8131459,0.4008042,-1.720617,-48.49773,-3.478987,1007.822
19.805672169,-19.36594,20.07538,-26.44015,0.3592728,0.7196848,0.4241488,-1.0013,-48.15202,-4.728832,1007.822
19.838449478,-6.134218,19.83901,-40.18518,0.2343061,0.7896423,0.4089362,-0.2678374,-48.53009,-5.594267,1007.822
19.871226311,-23.7144,18.00714,-61.99396,0.2201821,0.8105808,0.4253045,-0.2678374,-48.53009,-5.594267,1007.825
19.904004097,-42.35063,18.71625,-82.39769,0.2187774,0.7856198,0.4094605,0.8086922,-47.82167,-6.912471,1007.825
19.939302444,-49.05967,14.40248,-109.7656,0.13366,0.8281339,0.3219904,3.800095,-48.93994,-8.204453,1007.825
19.972079754,-41.17034,-3.207137,-110.3765,0.1837771,1.456999,0.6256258,3.800095,-48.93994,-8.204453,1007.827
20.004856586,-93.28967,14.46157,-57.901,0.04880717,1.213702,0.46987,8.151244,-48.25635,-10.77006,1007.825
20.037633896,-95.15329,25.09826,-68.28613,0.1076249,0.7787927,0.47183,11.8263,-47.15192,-13.77661,1007.825
20.070411682,-82.9155,37.98046,-99.62479,0.06317033,0.7121209,0.6029664,11.8263,-47.15192,-13.77661,1007.825
20.105710030,-74.09435,39.10322,-98.4641,0.003805928,0.8112065,0.8455642,15.05204,-44.63844,-15.99651,1007.825
20.138486862,-38.49914,38.57139,-91.86649,-0.1175237,0.5672051,0.7821986,20.09078,-41.76997,-18.59743,1007.825
20.171264172,35.4867,39.57597,-92.29411,-0.1587642,0.5274649,0.6499818,20.09078,-41.76997,-18.59743,1007.824
20.204041481,53.75021,40.75782,-85.32996,-0.1305657,0.7297882,0.7150752,23.37479,-38.85654,-18.21247,1007.824
20.239339829,27.22464,47.61257,-78.30473,-0.1653718,0.8546479,0.6422839,26.98488,-36.94753,-15.69826,1007.824
20.272117615,-21.16745,58.48562,-71.7682,-0.2462618,0.7601107,0.5920753,26.98488,-36.94753,-15.69826,1007.822
20.304894447,-34.64766,59.60838,-64.13207,-0.3534396,0.6981495,0.5654666,29.52208,-36.20692,-14.40768,1007.824
20.337671757,-25.2053,52.33998,-60.1002,-0.4640331,0.6460009,0.5532921,32.0794,-33.27985,-13.15155,1007.824
20.370448589,-18.12353,34.61218,-61.1998,-0.5471312,0.6730687,0.5534484,32.0794,-33.27985,-13.15155,1007.824
20.405746937,-18.99322,21.67088,-59.36713,-0.5713562,0.65097,0.5564274,34.22537,-31.08148,-11.94557,1007.825
20.438524723,-18.80686,10.85692,-59.06169,-0.5843257,0.5995204,0.5974514,36.37603,-29.26453,-11.97704,1007.824
20.471302033,-13.96144,0.8702581,-54.90763,-0.5716409,0.5732895,0.5921658,36.37603,-29.26453,-11.97704,1007.824
20.504078865,-9.42662,-5.9254,-52.03645,-0.529843,0.5601049,0.6070088,37.07713,-27.80853,-12.0009,1007.824
20.536856175,-12.78114,-9.530054,-49.16527,-0.548239,0.5375846,0.6123814,37.74935,-24.83998,-12.48375,1007.824
20.572154522,-11.04176,-12.89834,-42.3233,-0.5695351,0.5046417,0.5932271,37.74935,-24.83998,-12.48375,1007.824
20.604931831,-2.841817,-18.74851,-35.6646,-0.5723234,0.4540402,0.6038999,39.54196,-23.39254,-12.94413,1007.825
20.637709618,10.45203,-24.65778,-26.80669,-0.594188,0.4596989,0.6034619,39.88441,-22.31114,-13.76985,1007.825
20.670486450,14.73836,-31.15797,-19.72036,-0.6140902,0.46367,0.6381611,39.88441,-22.31114,-13.76985,1007.825
20.705784798,26.47919,-32.69439,-11.96206,-0.5646543,0.5091174,0.6707079,40.64474,-20.86718,-14.66401,1007.825
20.738562107,13.93079,-27.49423,-4.32593,-0.5710195,0.5329893,0.6793516,40.62446,-19.77386,-14.6812,1007.825
20.771338940,10.94899,-23.18046,-1.027123,-0.5287141,0.5055043,0.6682214,40.62446,-19.77386,-14.6812,1007.83
20.836894035,-5.51301,-17.80303,-6.586223,-0.573675,0.441533,0.7680663,39.84021,-20.15424,-15.97979,1007.827
20.872192383,42.19575,-17.03482,1.660794,-0.6534459,0.3053759,0.82478,40.21032,-20.5255,-16.40964,1007.827
20.904969215,-2.903938,-22.47135,-15.38304,-0.8184422,0.4231847,0.5949029,40.21032,-20.5255,-16.40964,1007.827
20.937746525,26.60343,-20.99403,-12.08423,-0.5667377,0.8049081,0.8358555,39.11736,-20.52882,-16.84334,1007.831
20.970523357,-67.75803,2.702131,-19.53709,-0.7522878,0.4174934,0.8176251,39.84624,-20.52462,-16.40917,1007.831
21.005822659,71.20615,-12.78015,29.02867,-0.8610852,0.2044758,0.7123046,39.84624,-20.52462,-16.40917,1007.827
21.038599968,113.2619,-36.23994,40.20796,-0.4868999,0.6643009,0.550912,40.97065,-19.08153,-17.3038,1007.827
21.071376801,30.26856,-10.771,26.70729,-0.3780087,0.6201726,0.5877851,39.82814,-19.41348,-15.12103,1007.827
21.104154110,33.18823,-19.28035,10.82415,-0.7620457,0.3818221,0.5322545,39.82814,-19.41348,-15.12103,1007.827
21.136930943,121.8346,-49.41761,-12.2675,-0.4981236,0.2825013,0.5702872,39.14055,-21.59836,-15.08571,1007.827
21.172229290,138.9799,-57.98605,-35.23697,-0.408347,0.7329603,0.6647049,38.40844,-21.20925,-13.41221,1007.827
21.205007076,58.03654,-50.71765,-56.49595,-0.3275528,0.6456801,0.6232477,38.40844,-21.20925,-13.41221,1007.827
21.237784386,46.79268,-45.16294,-56.61813,-0.2238004,0.6773918,0.4361854,38.01804,-19.74468,-12.99955,1007.827
21.270561218,6.289937,-32.10346,-36.7642,-0.04879467,0.9996949,0.4189183,38.7045,-17.49907,-13.03582,1007.827
21.305859566,70.89555,7.370453,6.059203,0.1872985,0.8815953,0.03104014,38.7045,-17.49907,-13.03582,1007.829
21.338636875,199.734,24.86189,23.95828,-0.1384354,1.447878,-0.01862102,38.63689,-13.8547,-13.09312,1007.827
21.371414661,24.49133,70.65872,14.91711,-0.3522118,0.9279261,0.1983197,39.33559,-11.9986,-10.51204,1007.827
21.404191494,47.91086,63.86306,19.92641,-0.6947023,0.6068128,0.3079225,39.33559,-11.9986,-10.51204,1007.827
21.436968804,-11.91145,23.08911,16.93305,-1.081595,0.7335066,0.1517252,40.10785,-14.15809,-8.365204,1007.827
21.472267151,37.53669,14.2252,36.48153,-0.3791159,0.824105,0.289036,42.00534,-14.8677,-6.615725,1007.827
21.505044460,13.55807,37.50772,7.464251,-0.3952205,0.8550338,0.2736241,42.00534,-14.8677,-6.615725,1007.827
21.537821293,4.488435,3.647614,3.982177,-0.5188739,0.9788291,0.2246318,42.37691,-15.22707,-6.175353,1007.827
21.570599079,-11.84933,4.474912,-14.77215,-0.4214361,0.8422644,0.2197929,42.38585,-15.57367,-4.864288,1007.827
21.605897427,-40.61125,-4.979918,-11.96206,-0.6099752,0.9077265,0.2649081,42.38585,-15.57367,-4.864288,1007.827
21.638674736,-24.33561,-12.60287,-10.80136,-0.4593284,0.8825861,0.3907055,43.48339,-15.95261,-5.730191,1007.827
21.671451569,-36.884,-17.38938,-11.29008,-0.5781227,0.781706,0.2443239,43.82645,-14.86612,-6.182962,1007.825
21.704228878,-36.01431,-15.08477,-19.84254,-0.5392114,0.9840902,0.3753384,43.82645,-14.86612,-6.182962,1007.825
21.737005711,-37.13248,-19.81218,-31.08292,-0.584657,0.8787022,0.2629664,44.18232,-14.51444,-7.059385,1007.825
21.772305012,-58.37779,-7.284532,-48.06567,-0.4621159,0.8279579,0.3826112,44.5307,-13.80427,-8.376651,1007.825
21.805081844,-44.71122,-13.48926,-43.9727,-0.5237375,0.6059126,0.3932007,43.76665,-11.99732,-9.647537,1007.825
21.837859154,-20.11139,6.779526,-50.26487,-0.4255241,0.5718745,0.4931423,43.76665,-11.99732,-9.647537,1007.824
21.870636463,-10.35843,15.8798,-48.49329,-0.6433038,0.6722983,0.4882125,45.92866,-10.92708,-10.97288,1007.828
21.905934811,2.376328,20.84358,-48.06567,-0.6186485,0.7117197,0.4543993,45.90307,-9.457445,-10.12558,1007.828
21.938712597,-0.1085028,30.71206,-51.36447,-0.7365679,0.6977446,0.5476029,45.90307,-9.457445,-10.12558,1007.822
22.004266739,11.5702,24.86189,-51.73101,-0.711732,0.6465405,0.438352,47.6622,-6.115192,-9.745341,1007.826
22.037043571,17.5338,11.68422,-41.40696,-0.6659964,0.6029014,0.4113531,47.6622,-6.115192,-9.745341,1007.828
22.072341919,-2.469092,39.3396,-52.09754,-0.6896441,0.5448639,0.4283442,48.00735,-5.011715,-8.954936,1007.826
22.105119228,17.34743,45.07158,-51.48665,-0.6293139,0.4876326,0.3902598,48.33376,-2.80219,-7.249339,1007.828
22.137897015,38.15789,64.51308,-56.25159,-0.9752606,0.7727135,0.339145,48.33376,-2.80219,-7.249339,1007.828
22.170673847,10.0793,56.00373,-51.60883,-0.6417552,0.387854,0.2744316,48.30359,-0.9502859,-5.102431,1007.826
22.205972195,27.53524,69.00413,-49.22636,-0.8695645,0.6292018,0.3058966,49.01426,0.164206,-3.442272,1007.826
22.238749504,42.69271,71.19055,-54.23566,-0.8577056,0.5239054,0.2078294,49.01426,0.164206,-3.442272,1007.826
22.271526814,20.70196,72.72697,-60.40565,-0.9521191,0.4056381,0.1933094,49.34276,2.390714,-0.493499,1007.826
22.304303646,23.12467,83.36365,-64.25425,-0.9041085,0.4076139,0.06948256,49.67022,4.67881,2.516478,1007.826
22.337081432,41.7609,87.67741,-70.05771,-1.005305,0.5046921,0.143706,49.67022,4.67881,2.516478,1007.828
22.372379780,30.95189,77.80894,-73.78413,-0.9811934,0.3401515,-0.01398986,48.53627,7.278339,5.834353,1007.828
22.405157089,32.87763,68.70866,-77.44948,-1.045718,0.3127091,-0.03064312,47.03834,9.879591,9.214857,1007.828
22.437933922,29.15038,62.44484,-76.83858,-1.025779,0.2754576,-0.1586765,47.03834,9.879591,9.214857,1007.828
22.470711231,31.13825,63.68578,-80.01522,-0.9675025,0.2937631,-0.04764774,45.89588,12.8992,12.15309,1007.828
22.503489018,24.92617,61.38117,-85.6965,-1.037779,0.2234855,-0.1239117,44.38839,15.84196,13.84958,1007.828
22.538787365,32.69127,64.98582,-90.33926,-0.9173545,0.2109153,-0.1853113,44.38839,15.84196,13.84958,1007.828
22.571564197,11.38384,68.59048,-100.3579,-0.9620074,0.2184239,-0.1024225,41.78928,18.79244,15.92043,1007.826
22.604341507,-15.14173,74.67702,-96.02054,-1.169136,0.1058057,-0.2196951,39.12357,22.11429,18.4829,1007.826
22.637118339,-9.178137,74.20428,-84.41363,-1.300992,-0.01666321,-0.3732335,39.12357,22.11429,18.4829,1007.824
22.672417641,-26.50983,62.97667,-76.28879,-1.258721,-0.03255673,-0.3983406,36.52948,24.75597,20.18557,1007.824
22.705194950,-36.75976,38.68958,-65.23167,-1.147602,0.2550936,-0.1391024,33.22324,26.62082,22.70966,1007.826
22.737971783,-1.413039,8.493214,-48.31002,-1.165242,0.280738,-0.3523424,29.53207,26.29413,24.83356,1007.826
22.770749092,26.35495,-5.03901,-11.59552,-1.207764,0.1548137,-0.5498915,29.53207,26.29413,24.83356,1007.824
22.803525925,130.78,-34.34898,53.76973,-1.182567,0.1739079,-0.565865,27.36186,25.57643,25.28296,1007.823
22.838824272,213.2142,-76.24569,112.0487,-0.9429402,0.1458558,-0.1952611,27.02806,23.72625,23.19868,1007.823
22.871602058,281.1744,-48.23576,100.8694,-0.890888,-0.6835797,-0.04828188,27.02806,23.72625,23.19868,1007.823
22.904379368,-77.63523,77.09982,61.7113,-0.4211117,-0.2345177,1.700158,29.56725,23.64372,17.6011,1007.821
22.937156200,65.18044,-51.42677,-30.47203,-1.943153,-1.48601,-1.064101,32.50176,25.41802,14.58498,1007.819
22.972454548,211.5991,-171.2076,72.09644,-1.101654,0.5779397,0.07691482,32.50176,25.41802,14.58498,1007.819
23.005231857,45.11542,-52.13588,65.37664,-0.8044362,-0.7007197,-0.09563455,30.72653,22.85349,13.32211,1007.819
23.038008690,259.1836,-87.05965,95.55462,-0.8173346,-0.451556,-0.4594076,33.26187,23.15918,9.459243,1007.819
23.070786476,318.7574,-103.1919,118.6463,-0.5645484,0.2874835,-0.2445083,33.26187,23.15918,9.459243,1007.819
23.103563786,194.7644,-85.75961,123.4723,-0.5147588,0.4051271,-0.1259073,35.46319,21.5429,2.704988,1007.817
23.138862133,136.0602,-53.84956,139.1111,-0.6311945,0.1612618,-0.1055278,37.68418,18.8983,-3.722237,1007.816
23.171639442,169.7297,-55.26779,147.8468,-0.7515392,0.1366975,-0.06140139,37.68418,18.8983,-3.722237,1007.812
23.204416275,160.2874,-48.23576,147.4803,-0.7321557,0.3716222,0.009921474,38.49453,14.11217,-7.067422,1007.812
23.237194061,98.78778,-25.95782,128.054,-0.8133452,0.4148484,0.02015749,39.69857,7.818568,-9.518978,1007.808
23.272492409,50.33357,-21.93952,97.93709,-0.9058983,0.3241068,-0.03051057,39.69857,7.818568,-9.518978,1007.812
23.305269718,31.38673,-17.50757,66.7206,-0.8005447,0.3454696,0.04333706,39.85921,2.33998,-10.30333,1007.81
23.338046551,4.239952,1.933926,28.11234,-0.7944586,0.4586716,0.1360548,39.15191,-2.098057,-10.66771,1007.809
23.370823860,-26.6962,13.92974,5.753758,-0.8173071,0.4903908,0.2424421,39.15191,-2.098057,-10.66771,1007.809
23.403600693,-53.47025,13.22063,-9.88503,-0.7435082,0.5060461,0.3038578,39.19706,-4.666947,-11.93293,1007.807
23.438899994,-9.053895,-9.766425,-20.45343,-0.662694,0.4312044,0.3702069,39.93489,-5.009354,-10.1877,1007.807
23.471676827,88.59997,-19.69399,-2.371081,-0.7346523,0.6604635,0.296865,39.93489,-5.009354,-10.1877,1007.805
23.504454136,57.9123,-23.00319,20.59839,-0.7686486,0.8328103,0.1181007,40.33863,-3.923005,-10.64055,1007.805
23.537231445,-25.08105,-22.35316,44.66746,-0.8369458,0.9631527,0.1036254,39.91388,-3.921987,-10.64,1007.805
23.572529793,-39.92792,-33.28531,40.94103,-0.9197106,0.8373258,0.03854613,39.91388,-3.921987,-10.64,1007.803
23.605307579,14.552,-56.92239,48.08845,-0.7853075,0.6757772,0.03847083,38.82695,-4.295694,-11.50308,1007.803
23.638084412,74.74704,-73.82289,69.28634,-0.5847724,0.6667709,-0.02697507,38.85858,-6.135711,-12.77977,1007.803
23.670861721,151.7768,-64.60443,93.11105,-0.5073339,0.9569342,-0.1363838,38.85858,-6.135711,-12.77977,1007.802
23.703638554,129.4754,-48.64941,104.2903,-0.4048464,0.9481991,-0.1149525,37.7831,-7.255274,-14.87457,1007.802
23.738936901,93.38327,-32.33983,129.459,-0.2183456,1.133264,-0.130596,36.40906,-11.68577,-14.80297,1007.798
23.771714210,53.00476,5.302209,156.3382,-0.1810717,1.183303,-0.1235394,35.04813,-16.77845,-14.28576,1007.792
23.804491997,-4.829681,27.63924,174.6649,-0.1526235,1.068791,-0.09599663,35.04813,-16.77845,-14.28576,1007.795
23.837268829,-40.85973,36.44405,199.4059,-0.009998919,1.107814,-0.1888152,32.59068,-21.55378,-12.96385,1007.795
23.872567177,-57.57022,48.38078,221.3369,0.2023995,1.031471,-0.1463627,28.97109,-25.91221,-12.4552,1007.793
23.905344486,-96.83055,44.42157,237.4033,0.4942299,0.8076854,-0.2506917,28.97109,-25.91221,-12.4552,1007.793
23.938121796,-82.17004,41.64421,268.9253,0.9401983,0.6546667,-0.5894348,24.32504,-30.71626,-13.61683,1007.793
23.970899105,-119.8774,122.2466,257.5016,0.7961869,0.4172185,-0.3133965,18.14651,-34.73387,-15.28618,1007.787
24.003676414,-112.9198,63.68578,265.7486,0.8000794,0.07994718,-0.9829529,18.14651,-34.73387,-15.28618,1007.787
24.038974762,-89.62453,140.2699,237.22,0.4586189,-0.03365031,-0.7292569,10.8331,-36.57922,-18.23167,1007.785
24.071752071,-59.43385,115.5101,152.2452,0.4184014,-0.2407557,-0.5570032,3.195914,-37.33137,-21.25613,1007.785
24.104528904,-32.28706,149.252,100.8083,0.2492084,-0.2854155,-0.1921437,3.195914,-37.33137,-21.25613,1007.784
24.137306213,7.656595,128.9832,-11.7177,-0.1838415,-0.09741111,-0.09079537,-0.8873954,-36.62756,-23.81085,1007.782
24.172605038,-130.6864,160.7751,-164.929,-0.536565,-0.3721911,0.1804993,-0.9076791,-35.53426,-23.82804,1007.78
24.205382347,-68.37923,145.4109,-229.3168,-0.8201131,-0.318617,0.5214139,-0.9076791,-35.53426,-23.82804,1007.778
24.238159180,223.4021,250.3005,-286.0074,-2.025539,0.8448546,0.7699393,4.597732,-34.84239,-25.58708,1007.778
24.270936489,74.25007,140.1517,-123.5106,-3.944419,1.762,-0.5588197,12.59414,-30.4299,-21.37729,1007.777
24.303713322,1332.32,-45.87205,-121.6779,-9.064633,11.58084,3.088692,12.59414,-30.4299,-21.37729,1007.78
24.339012146,-2031.769,-1260.109,1127.531,-0.6199155,-2.090876,-6.222675,23.57795,-29.61017,-12.82501,1007.789
24.371789932,1796.797,715.8917,-222.597,0.3014102,4.296666,3.948239,20.29491,-33.77486,-24.75432,1007.794
24.404566765,-428.804,-173.1577,157.3767,-0.4485404,1.382835,0.03564369,20.29491,-33.77486,-24.75432,1007.799
24.437344074,-16.19778,-44.63111,-23.69115,3.243101,-0.5567371,0.1251206,3.43193,-29.98491,-17.08224,1007.799
24.472642422,-82.60489,193.2169,-156.071,-0.4760818,0.1063406,0.07469776,3.867903,-34.4346,-22.54608,1007.803
24.505419254,181.7811,7.31136,-68.04177,0.3490373,1.44837,0.9371691,3.867903,-34.4346,-22.54608,1007.806
24.538197041,54.86839,5.184024,-68.22504,-0.4424126,1.366896,0.6079923,8.239634,-34.42215,-20.87343,1007.811
24.570974350,38.84122,21.67088,-64.37643,-0.3271917,1.074578,0.4560493,11.58886,-34.75298,-17.82623,1007.815
24.603751182,26.97616,9.615974,-53.9913,0.02127606,0.9379523,0.4207706,11.58886,-34.75298,-17.82623,1007.815
24.639049530,-2.903938,1.402092,-37.13073,0.04162535,0.5485066,0.4232348,14.85556,-34.00309,-15.72852,1007.82
24.671826839,9.209613,0.5157019,-24.42422,-0.02425358,0.6716459,0.3505198,16.67595,-34.00745,-15.73087,1007.824
24.704603672,-23.03107,10.14781,-1.271479,-0.06462753,0.7126182,0.4078359,17.74935,-32.90487,-14.87924,1007.827
24.737381458,15.23533,1.224814,14.48949,0.01673039,0.8210272,0.4912364,17.74935,-32.90487,-14.87924,1007.832
24.770158768,24.36708,-3.5026,22.12561,0.01099852,0.9840898,0.4842652,18.1255,-33.6465,-15.73848,1007.832
24.805457115,11.2596,-3.5026,25.97422,0.1148951,0.9963425,0.5104752,18.49851,-33.99398,-14.42788,1007.836
24.838234425,14.98685,-0.429781,11.37395,0.1461964,0.8950525,0.4749328,18.49851,-33.99398,-14.42788,1007.839
24.871011257,18.03076,-0.607059,0.988815,0.09518853,0.8871893,0.3860138,17.40701,-33.98542,-13.99136,1007.843
24.903789043,5.544488,0.8702581,0.4390139,0.06278953,0.8349667,0.4092747,16.67813,-33.98962,-14.42553,1007.846
24.939087391,11.63232,-2.557117,3.554554,0.08755873,0.8357608,0.4236556,16.67813,-33.98962,-14.42553,1007.848
24.971864700,2.686932,-4.802639,-1.088212,0.1218067,0.9264445,0.3960001,17.06998,-35.4423,-13.96797,1007.848
25.004641533,-6.941788,0.3384239,-7.563647,0.08484252,0.9595324,0.4359909,16.69445,-34.69556,-12.73578,1007.85
25.037418842,-4.332715,0.4566093,-3.715039,0.06261119,0.9155236,0.4375541,16.69445,-34.69556,-12.73578,1007.853
25.070195675,-1.164556,-1.138893,0.927726,0.06947884,0.8848475,0.4303636,17.06322,-35.07786,-13.9737,1007.855
25.105494976,-4.891802,0.2202385,-1.149301,0.08260646,0.8756297,0.4197564,16.69987,-35.07104,-13.53812,1007.855
25.138271809,0.761188,1.697556,-1.82128,0.06759628,0.8584883,0.42415,16.69987,-35.07104,-13.53812,1007.855
25.171049118,0.8854296,1.224814,0.1946578,0.0665753,0.8799261,0.426527,17.05042,-34.34304,-13.55005,1007.857
25.203826428,2.252087,-0.3115956,0.988815,0.07528868,0.8947338,0.4442944,17.06467,-35.06597,-13.10348,1007.858
25.239124775,3.680865,-0.01613219,1.477527,0.0776385,0.9218199,0.4144035,17.06467,-35.06597,-13.10348,1007.86
25.271901608,2.252087,-0.07522487,0.866637,0.08547337,0.8951318,0.4192388,16.69914,-35.07698,-13.97323,1007.862
25.304679394,0.2642218,-0.01613219,-1.638013,0.07626649,0.8862582,0.4149418,17.42875,-35.06684,-13.10395,1007.862
25.337456703,1.75512,-0.07522487,-2.371081,0.06990822,0.9082188,0.4288833,17.42875,-35.06684,-13.10395,1007.864
25.370233536,2.189966,0.3384239,-1.515835,0.07671951,0.9019174,0.4250257,17.05718,-34.70748,-13.54432,1007.868
25.405531883,1.382396,0.2793312,-0.4162323,0.07282966,0.9028121,0.4182945,16.69238,-34.71255,-13.97896,1007.865
25.438309193,1.75512,-0.01613219,0.1946578,0.07039732,0.9052471,0.4211847,16.69238,-34.71255,-13.97896,1007.871
25.471086025,1.071792,0.3975166,0.2557468,0.0708757,0.9071591,0.4154044,17.40846,-33.97353,-13.12114,1007.871
25.503863812,-0.6675898,0.04296049,-0.04969826,0.0757564,0.8964784,0.4144462,17.05646,-34.71342,-13.97943,1007.871
25.539162159,-0.5433483,0.2202385,-0.2329653,0.07380482,0.901873,0.4221445,17.05646,-34.71342,-13.97943,1007.873
25.571939468,0.3263426,-0.1934102,-0.1107873,0.07188161,0.8945782,0.426011,17.05718,-34.70748,-13.54432,1007.875
25.604716778,0.2021011,-0.1934102,-0.1107873,0.07429964,0.8979809,0.4221492,17.42199,-34.7024,-13.10968,1007.871
25.637493610,0.9475504,-0.1343175,0.1335688,0.0767319,0.8960497,0.421665,17.42199,-34.7024,-13.10968,1007.871
25.670270920,1.817241,-0.9025224,0.866637,0.07237241,0.8916333,0.4221633,16.6931,-34.7066,-13.54385,1007.871
25.705569744,-0.605469,0.1611458,-0.4773214,0.0762163,0.9071937,0.4139476,17.42126,-34.70835,-13.54479,1007.877
25.738347053,1.382396,-0.1343175,-0.4162323,0.07041181,0.898402,0.4173442,17.42199,-34.7024,-13.10968,1007.877
25.771123886,1.75512,-0.3115956,0.01139076,0.07186492,0.899368,0.4144511,17.42199,-34.7024,-13.10968,1007.875
25.803901195,1.630879,-0.1934102,0.07247978,0.07768001,0.9063054,0.4245355,16.68707,-34.33622,-13.11447,1007.877
25.839199543,0.6369465,0.2793312,-0.7216774,0.07332762,0.8969484,0.4149326,16.70663,-35.43548,-13.53239,1007.877
25.871977329,2.003603,0.3384239,-0.4773214,0.06846019,0.9027857,0.419749,16.70663,-35.43548,-13.53239,1007.877
25.904754162,1.382396,-0.01613219,0.3779249,0.07041422,0.8969241,0.4149396,17.05104,-34.33794,-13.1771,1007.878
25.937531471,0.8233088,-0.07522487,0.3779249,0.0689066,0.9183411,0.4149109,17.42875,-35.06684,-13.10395,1007.878
25.970308304,2.065724,-0.4888737,-0.04969826,0.07329306,0.9095409,0.4048051,17.42875,-35.06684,-13.10395,1007.88
26.005607128,-0.356986,-0.07522487,-0.1107873,0.07332503,0.8994338,0.4221493,17.05718,-34.70748,-13.54432,1007.88
26.038383961,-0.1706236,-0.01613219,-0.5994994,0.07329967,0.9096447,0.4197271,17.78596,-34.70413,-13.17231,1007.88
26.071161747,-0.2327444,0.3384239,-0.4162323,0.06943404,0.9008155,0.4154174,17.78596,-34.70413,-13.17231,1007.88
26.103939056,0.01573872,0.1611458,-0.2329653,0.07089885,0.8974186,0.415419,17.06467,-35.06597,-13.10348,1007.88
26.139237404,0.761188,0.1020532,-0.1718763,0.07136976,0.9027498,0.4110776,16.70049,-35.06594,-13.16517,1007.876
26.172014236,0.761188,0.1020532,-0.04969826,0.07185944,0.9013028,0.4125227,16.70049,-35.06594,-13.16517,1007.876
26.204791546,0.07785949,-0.01613219,-0.2329653,0.07379054,0.9051851,0.40818,17.79948,-35.433,-13.16085,1007.88
26.237568379,0.512705,-0.3115956,-0.1718763,0.06943434,0.9003152,0.4134927,17.42802,-35.07278,-13.53906,1007.88
26.270346165,1.133913,-0.07522487,-0.04969826,0.07379723,0.9047851,0.420696,17.42802,-35.07278,-13.53906,1007.876
26.305644512,1.071792,0.1020532,0.1946578,0.06991117,0.9037184,0.4120424,17.06467,-35.06597,-13.10348,1007.876
26.338421822,1.320275,0.8111654,-0.4162323,0.06848352,0.8920376,0.4149515,17.42802,-35.07278,-13.53906,1007.878
26.371198654,7.842957,2.643039,-3.531772,0.05872889,0.9124955,0.4269779,17.42802,-35.07278,-13.53906,1007.878
26.403975964,14.80048,8.906862,-3.898306,0.06000526,0.9839398,0.4037618,17.42126,-34.70835,-13.54479,1007.876
26.439274311,-5.947855,26.16193,-28.9448,0.07661927,0.9549047,0.480784,17.05791,-34.70153,-13.10921,1007.876
26.472052097,-40.67337,53.40365,-91.1945,-0.09656826,1.103448,0.5483616,17.05791,-34.70153,-13.10921,1007.878
26.504829407,-113.4789,113.8555,-173.0538,-0.6017145,1.417547,0.7993944,17.42188,-34.70325,-13.17184,1007.876
26.537606239,-145.409,186.4213,-231.8825,-0.9007816,0.9601203,0.6549406,19.5793,-33.25074,-13.19758,1007.876
26.570383549,-59.37172,162.666,-269.8799,-1.075998,1.094144,0.4577958,19.5793,-33.25074,-13.19758,1007.876
26.605681896,-157.771,198.4762,-313.5585,-0.5376961,0.5440715,0.3418213,26.84653,-29.26463,-13.64304,1007.874
26.638459682,-143.856,224.9497,-268.8414,-0.5207781,-0.2706956,0.1889734,32.95309,-21.14861,-9.924269,1007.874
26.671236515,-71.92011,188.5486,-164.1348,-0.1721962,-0.2332998,0.2448909,39.30427,-9.736401,-5.01429,1007.874
26.704013824,10.70051,121.7739,-28.15065,0.7393644,0.1680999,0.4909879,39.30427,-9.736401,-5.01429,1007.874
26.736790657,120.5301,20.13447,159.637,1.076637,1.158343,0.9387687,40.31665,-1.58439,0.4515009,1007.872
26.772089004,-53.28389,57.83561,162.8136,-1.428604,0.9267607,0.4843966,41.03013,-0.4469714,3.789947,1007.872
26.804866314,29.83371,-12.83924,115.4696,-1.482726,1.300632,0.8743458,41.03013,-0.4469714,3.789947,1007.872
26.837644100,-10.29631,0.3384239,62.74981,-1.447063,0.8744576,0.1990717,39.62422,-6.250552,5.624032,1007.872
26.870420933,-21.97502,-20.63948,24.38591,-0.6726434,0.7183373,0.2802644,37.51744,-10.29703,6.996171,1007.872
26.905719757,8.712646,-31.68981,21.57581,-0.7195138,0.5937356,0.1380803,37.51744,-10.29703,6.996171,1007.872
26.938496590,-6.134218,-34.88081,5.753758,-0.816723,0.64649,0.2070661,38.62923,-11.3989,6.576839,1007.871
26.971273899,3.680865,-35.11718,-12.32859,-0.7110597,0.5479324,0.3350062,37.91845,-12.51425,4.854523,1007.871
27.004050732,2.065724,-13.01652,-31.99925,-0.7078139,0.6344709,0.4489509,37.91845,-12.51425,4.854523,1007.869
27.036828518,22.19286,-2.911674,-47.27151,-0.6691492,0.4971112,0.4004486,38.27369,-12.16766,3.605147,1007.867
27.072126865,14.98685,-0.4888737,-52.95279,-0.7239794,0.4891824,0.4468014,38.61811,-11.07013,3.96044,1007.867
27.104904175,31.07613,0.3975166,-54.11348,-0.9343441,0.4982713,0.2557046,38.61811,-11.07013,3.96044,1007.867
27.137681007,13.62019,-6.752698,-63.94881,-0.813607,0.5764412,0.2856262,38.95514,-9.613255,3.93705,1007.867
27.170458317,-7.625116,-3.207137,-72.92889,-0.9804446,0.4781241,0.21541,39.28614,-7.785998,4.343041,1007.865
27.238534451,1.568758,-12.66197,-60.22238,-0.8806511,0.177816,0.2637621,38.87361,-5.173327,4.302446,1007.869
27.271311760,-16.75687,5.597672,-43.54508,-0.8461857,0.1956317,0.3329695,39.92392,-3.000362,3.458592,1007.869
27.304088593,-6.693305,0.3384239,-32.91559,-1.05271,0.4323625,0.1651074,39.92392,-3.000362,3.458592,1007.871
27.336865902,-17.50232,-20.10764,-45.25557,-0.891506,0.4634465,0.3090867,40.67219,-0.8156304,3.423194,1007.868
27.372164250,-20.85684,-25.18961,-30.53312,-1.011877,0.2293578,0.2692906,40.65128,0.2725859,3.033051,1007.868
27.404941082,0.3263426,-45.5175,-22.77481,-0.9623473,0.4252685,0.2269994,40.65128,0.2725859,3.033051,1007.868
27.437718868,-16.13566,-70.33642,-29.31134,-0.8858963,0.3484792,0.2986567,40.25871,1.719319,2.140378,1007.868
27.470496178,-30.92041,-73.82289,-27.8452,-1.065665,0.421062,0.4467517,40.95506,3.206342,-0.05999541,1007.868
27.505794525,-57.19749,-77.54572,-33.83192,-0.9550038,0.2585903,0.5526337,40.95506,3.206342,-0.05999541,1007.87
27.538571358,-101.6138,-85.0505,-39.20776,-1.286114,0.4171742,0.4328396,40.56644,4.26571,-2.625227,1007.872
27.571348667,-105.6517,-88.35969,-79.89304,-1.301055,0.5955773,0.5418753,40.17709,5.319136,-5.62557,1007.872
27.604125500,-146.8999,-113.8286,-93.76025,-1.400269,0.7458437,0.9784792,40.17709,5.319136,-5.62557,1007.872
27.636903286,-24.52197,-84.16411,65.37664,-1.699116,-0.3026599,0.370883,39.7149,7.11262,-7.82923,1007.873
27.672202110,486.235,-52.25406,166.1124,-1.794055,-0.3665256,-0.5048739,37.45035,11.07996,-11.30818,1007.873
27.704978943,326.4604,-62.71346,244.734,-1.724149,0.4550802,-0.5236071,37.49655,8.099932,-15.98641,1007.872
27.737756252,166.7479,7.429546,280.2878,-1.355632,0.3178042,-0.2561558,37.49655,8.099932,-15.98641,1007.87
27.770533085,73.00765,48.67624,312.4817,-1.591141,0.3980572,0.1515139,36.99046,-4.003315,-17.10076,1007.87
27.805831432,-108.4471,-21.2304,276.3781,-1.749923,0.7538438,0.9383808,33.92595,-15.34186,-16.04772,1007.868
27.838609219,-232.9993,-113.415,178.4524,-1.540344,0.0314146,1.015509,33.92595,-15.34186,-16.04772,1007.866
27.871386528,-110.1865,-193.8401,50.34874,-0.9126871,-0.6359709,0.3107939,28.56107,-24.1885,-19.75596,1007.865
27.904163361,46.66844,-183.9716,-105.3672,0.01849672,-0.8494948,0.9837763,23.83765,-25.35793,-26.13502,1007.861
27.936940670,199.2992,-149.0479,-253.0193,-0.116418,0.08442267,0.6929089,23.83765,-25.35793,-26.13502,1007.861
27.972239017,167.6797,-166.7166,-358.8866,-0.3514097,0.7091401,0.8128651,20.11301,-24.27952,-27.88788,1007.861
28.005016804,177.1842,-215.1726,-351.3115,-0.3797215,1.130849,0.5566936,21.62396,-23.91277,-27.46046,1007.859
28.037793636,161.9646,-257.1284,-277.7603,-0.2507899,1.608679,0.4078896,21.62396,-23.91277,-27.46046,1007.859
28.070570946,46.8548,-278.8745,-196.3898,-0.08135288,1.797069,0.2603885,25.18818,-19.93052,-28.83352,1007.861
28.105869293,-74.71555,-294.5931,-127.7868,-0.2616827,1.620949,0.01414306,22.92781,-16.27877,-33.17791,1007.859
28.138646603,-15.32809,-280.6473,-47.8824,-0.02047295,1.01198,-0.230043,22.92781,-16.27877,-33.17791,1007.859
28.171423435,88.35149,-261.0876,-6.891668,0.07905898,0.8773112,0.105433,17.33723,-13.05013,-37.94643,1007.858
28.204201222,6.724783,-233.0777,34.58777,0.2809383,1.200444,0.4553799,8.124487,-10.50004,-39.653,1007.856
28.236978531,-114.2865,-180.2488,47.66082,0.4808573,0.873722,0.5771826,8.124487,-10.50004,-39.653,1007.856
28.272276878,-178.2709,-125.5881,5.692669,0.4710362,0.7118136,0.5586769,-0.6334823,-12.66557,-39.60726,1007.854
28.305053711,-165.1634,-76.42297,-27.11213,0.8744052,0.5993879,0.7157763,-9.048556,-10.46483,-40.06595,1007.854
28.337831020,-117.8895,-22.29407,-89.11748,0.574634,0.9103386,0.897492,-9.048556,-10.46483,-40.06595,1007.852
28.370607853,-123.0455,-49.5358,-76.83858,0.1169473,1.003641,0.7872424,-14.3149,-4.554788,-39.71682,1007.851
28.405907154,-115.0941,1.697556,-109.3379,-0.1650646,0.6786116,0.4009049,-17.31937,0.5772367,-38.11499,1007.847
28.438683987,-133.2954,64.51308,-124.0604,-0.6380845,0.6805298,0.2648359,-17.31937,0.5772367,-38.11499,1007.847
28.471461296,-99.19114,74.32246,-79.46542,-0.6474209,0.4994152,0.1452719,-19.99515,4.306432,-36.86454,1007.847
28.504238606,-61.54595,130.8151,-63.64336,-0.3506014,0.427767,0.06091893,-19.2575,7.243812,-35.17095,1007.846
28.537015438,-51.97935,196.5261,-57.04575,-0.4131902,0.6189412,0.1026577,-19.2575,7.243812,-35.17095,1007.846
28.572313785,-150.9999,228.7316,-26.37906,-0.5688871,0.2026046,0.4420518,-17.11974,9.794731,-34.84093,1007.843
28.605091095,88.103,162.9615,12.41246,-0.8084556,0.03357786,0.2363706,-12.39953,10.5182,-34.42339,1007.841
28.637868881,210.2325,139.3244,-9.213051,-0.5939496,0.7654659,0.5895223,-7.662414,13.47191,-35.28443,1007.841
28.670645714,238.9944,42.76697,69.95832,-0.9502556,1.994016,1.892043,-7.662414,13.47191,-35.28443,1007.839
28.705944061,-168.8907,79.87717,11.25177,-0.3370275,0.112377,0.4955504,-5.762672,9.009789,-36.95752,1007.84
28.738721371,-27.50377,141.6881,4.959601,-0.5107958,-0.2744429,0.7588876,-4.966905,5.363675,-36.90115,1007.842
28.771498203,132.7678,79.6999,-6.647312,-0.662561,0.4949273,0.9891418,-4.966905,5.363675,-36.90115,1007.84
28.804275513,41.57454,94.41398,-18.86512,-0.5887613,0.8606115,0.748216,-1.020725,8.65184,-35.65256,1007.84
28.837053299,-91.17756,115.6873,-24.85184,-0.7200763,0.118272,0.6832184,0.9083964,6.102216,-35.17976,1007.835
28.872351646,37.16396,112.0827,-36.15331,-0.7039621,0.4582208,0.5228557,0.9083964,6.102216,-35.17976,1007.837
28.905128956,-38.49914,112.4372,-44.95013,-0.8109221,0.5168439,0.5369806,4.522748,7.556333,-34.83443,1007.835
28.937905788,-76.70341,111.3736,-39.20776,-0.8605148,-0.09221095,0.4200825,5.981965,7.576618,-33.09586,1007.832
28.970683098,21.63377,109.8963,-33.09886,-0.9282417,0.213717,0.440962,5.981965,7.576618,-33.09586,1007.832
29.003459930,-28.06285,96.54131,-29.80005,-0.9174557,0.1593544,0.384699,8.499502,9.415621,-31.44951,1007.832
29.038758278,23.31103,101.2687,-26.7456,-0.7974048,0.1126633,0.3897796,10.72051,10.89176,-29.73488,1007.83
29.071536064,14.80048,77.51347,-19.72036,-0.9136314,0.1392426,0.1493343,10.72051,10.89176,-29.73488,1007.827
29.104313374,39.83516,70.24507,-7.319292,-0.988576,0.2137949,0.1744305,11.8014,11.63585,-28.44242,1007.829
29.137090206,7.470232,65.28129,-9.946119,-0.9242935,0.1480624,0.2398423,12.51708,12.44155,-27.15044,1007.827
29.172388554,24.1186,48.02622,2.454951,-1.039098,0.2059425,0.08647299,12.51708,12.44155,-27.15044,1007.827
29.205165863,-17.25384,36.0895,10.45761,-0.9745201,0.01551777,0.1501466,12.88905,12.0155,-27.14422,1007.828
29.237943173,-16.01142,31.36208,24.75244,-1.225178,0.2562567,0.1214966,12.89716,11.6621,-26.33043,1007.826
29.270720482,-9.053895,41.17147,34.70995,-0.9209996,0.1807934,0.1800963,12.89716,11.6621,-26.33043,1007.828
29.303497791,-27.06892,40.75782,38.86401,-1.088931,0.3260272,0.04549446,11.79777,12.09584,-25.90059,1007.829
29.338796139,-1.350918,41.76239,42.65152,-0.8554706,0.3916092,0.1608501,12.17118,11.68168,-25.02415,1007.829
29.371573448,-39.67944,37.56681,39.78034,-0.9188672,0.0771999,0.05846288,12.17118,11.68168,-25.02415,1007.829
29.404350281,-21.35381,32.60303,44.66746,-1.034528,0.2888993,-0.1062076,12.15726,12.47724,-24.60146,1007.829
29.437127590,-9.116016,23.79822,57.74051,-1.114647,0.3038912,-0.02517137,12.15872,12.48913,-23.73124,1007.829
29.472425938,8.339922,30.88934,78.14425,-1.048412,0.4358112,0.02549705,11.79464,12.49,-23.73077,1007.829
29.505203724,-11.22812,26.3983,94.69937,-0.9980783,0.3058695,0.04916024,11.79464,12.49,-23.73077,1007.826
29.537980557,12.06717,61.26298,133.3687,-0.9226056,0.2234,0.07558042,12.16017,12.50101,-22.86101,1007.826
29.570757866,44.18361,95.35946,152.062,-1.024558,0.7864859,-0.1426019,14.01549,10.61373,-22.83376,1007.826
29.603534698,43.06544,130.2241,200.8721,-1.241796,0.4544227,-0.1473626,14.01549,10.61373,-22.83376,1007.826
29.638833523,57.41534,182.1666,169.4723,0.2574711,0.2022092,0.2321441,15.86645,9.180485,-20.69979,1007.826
29.671610355,4.05359,233.9909,158.5374,-0.5558405,1.297229,-0.379388,19.62933,3.034919,-16.31812,1007.826
29.737165451,-177.8982,231.1544,148.3355,0.2145198,0.7362837,-0.6571527,21.9383,0.1237798,-11.11504,1007.825
29.772463798,-30.11284,184.7076,170.8163,0.3538373,1.179784,-0.5724692,23.43912,-1.614436,-4.685909,1007.822
29.805240631,4.05359,141.629,198.6118,0.4203061,1.158273,-0.8041295,23.43912,-1.614436,-4.685909,1007.822
29.838017940,-36.26279,113.1464,226.1018,0.2647771,1.254186,-0.6219504,24.59405,-4.462072,0.5177021,1007.82
29.870794773,4.239952,48.61715,247.6052,0.3533922,0.9349314,-0.6934022,24.72322,-11.03088,4.413485,1007.82
29.903572082,77.23186,10.26599,254.5082,0.1341776,1.036192,-0.6463428,24.72322,-11.03088,4.413485,1007.819
29.938870430,69.52889,-18.33486,261.0448,0.1027565,1.012879,-0.4589835,20.8854,-19.79879,6.732687,1007.819
29.971648216,69.03193,-39.37186,268.5587,0.07650185,1.005559,-0.5696234,14.42836,-27.8027,11.1572,1007.819
30.004425049,126.0588,-62.65437,274.8509,0.1761192,0.7757394,-0.5401502,14.42836,-27.8027,11.1572,1007.819
30.037202358,179.1099,-61.11796,262.3887,0.2089679,0.6738661,-0.3812252,4.631196,-32.46997,14.66319,1007.819
30.072500706,145.0056,-36.53541,214.8004,0.2224546,0.535399,-0.2785184,-4.89364,-32.01223,19.82893,1007.819
30.105278015,85.74242,6.365878,151.5732,0.365918,0.2774036,-0.08111154,-4.89364,-32.01223,19.82893,1007.819
30.138054848,24.1186,61.20389,68.79763,0.4684464,0.2511222,-0.06157928,-11.9518,-27.19328,24.48752,1007.819
30.170832634,-49.92937,101.1505,-19.23165,0.4715774,0.1747421,0.01699037,-16.03818,-22.74376,24.85808,1007.817
30.203609943,-94.03511,-42.2674,-48.73764,0.7703751,0.04406061,-0.294481,-16.03818,-22.74376,24.85808,1007.813
30.238908291,-4.022111,-64.36806,-90.40035,0.6501071,-0.1490463,-0.9548144,-17.49812,-22.76999,22.6844,1007.813
30.271685124,112.765,-167.603,-64.92623,0.2703136,0.2879953,-0.9646809,-15.62655,-25.71362,20.98745,1007.817
30.304462433,127.0527,-152.4753,-43.36181,0.7202852,0.3631581,-0.9225389,-15.62655,-25.71362,20.98745,1007.817
30.337239266,-44.09001,-83.51408,-22.16392,1.114109,0.2890879,-1.261759,-9.770239,-27.2223,22.74425,1007.819
30.372538090,49.77448,10.67964,7.403162,1.188082,-0.04964627,-1.595489,-4.633887,-26.08061,22.71945,1007.819
30.405315399,202.9022,37.80318,28.9065,0.7770591,0.0837125,-1.394468,-4.633887,-26.08061,22.71945,1007.819
30.438092709,167.2449,82.89091,54.62497,0.7002422,0.2194625,-0.9010949,-2.051865,-27.98153,21.87554,1007.819
30.470870018,46.60632,78.57714,69.77505,0.6365206,0.1075848,-0.6639451,-3.212435,-23.85077,26.10192,1007.82
30.503646851,9.333855,61.20389,61.1615,1.010445,-0.07053183,-0.462873,-3.212435,-23.85077,26.10192,1007.819
30.538945198,10.01718,66.99497,43.44568,0.7042959,-0.1925287,-0.5490895,-6.924675,-19.80947,27.78404,1007.819
30.571722507,6.103575,67.94045,29.21194,0.7062901,-0.1861407,-0.4032512,-9.953192,-16.82611,27.74108,1007.819
30.604499340,-27.06892,53.69912,15.10038,0.5853876,-0.187593,-0.3967046,-12.17146,-14.99868,27.71525,1007.819
30.637276649,-27.3174,39.51687,12.84008,0.5962174,-0.2427838,-0.361989,-12.17146,-14.99868,27.71525,1007.819
30.672575474,-6.755425,15.0525,15.528,0.4427117,-0.2395471,-0.4824516,-14.75454,-13.17633,27.25478,1007.82
30.705352783,9.582337,-20.58039,14.36731,0.5813014,-0.356454,-0.6515621,-15.10654,-13.91622,26.39648,1007.819
30.738129616,39.33819,-28.38062,9.724545,0.9420921,-0.3658573,-0.6865804,-15.10654,-13.91622,26.39648,1007.817
30.770906925,48.90479,38.63048,-3.409594,0.6302291,-0.309851,-0.6623384,-15.11861,-13.17546,27.25525,1007.817
30.803683758,9.644459,29.76658,-8.418894,0.6178425,-0.4208964,-0.7174982,-14.76733,-12.44152,27.67843,1007.815
30.838982582,7.470232,50.98085,-33.77084,0.8948395,-0.5125833,-0.718017,-14.76733,-12.44152,27.67843,1007.815
30.871759415,17.28531,59.4902,-56.74031,1.023821,-0.4132867,-0.6015016,-15.87454,-11.72191,26.79816,1007.815
30.904537201,31.69733,83.36365,-76.96077,0.8314848,-0.3808376,-0.5365919,-17.33085,-11.71842,26.80004,1007.813
30.937314510,46.29572,76.68617,-91.62213,0.7089182,-0.2799744,-0.4526963,-17.33085,-11.71842,26.80004,1007.813
30.970091343,52.38355,65.28129,-105.0617,0.6504309,-0.1732627,-0.3752191,-19.13168,-12.81331,26.38446,1007.812
31.005389690,57.72594,64.92673,-137.5611,0.4073926,-0.07723378,-0.4214796,-21.74235,-12.81895,25.51761,1007.814
31.038167000,52.63204,21.67088,-144.1587,0.5776864,-0.02749749,-0.4777963,-21.74235,-12.81895,25.51761,1007.816
31.070943832,82.20153,21.31633,-149.5956,0.8048838,0.1857803,-0.5474914,-22.44346,-14.27495,25.54147,1007.814
31.103721142,91.0848,20.01629,-144.8918,0.9170165,0.2175111,-0.4616414,-22.75876,-16.81325,26.45227,1007.814
31.139019966,74.99552,6.720434,-137.2556,0.7697268,0.2783953,-0.4941165,-22.75876,-16.81325,26.45227,1007.814
31.171797276,38.09578,6.897712,-122.1666,1.171262,0.3232203,-0.3439888,-22.00098,-18.32159,27.34543,1007.816
31.204574585,22.44134,57.18559,-136.7058,0.5789417,0.2896034,-0.3338687,-21.25036,-19.39882,28.66702,1007.816
31.237351418,-6.009976,42.35332,-152.1003,0.9081253,0.3696591,-0.00311193,-21.25036,-19.39882,28.66702,1007.814
31.270128727,-13.96144,95.77311,-158.5757,0.6597713,0.6503995,-0.09536745,-20.48236,-21.59313,28.26534,1007.814
31.305427075,43.87301,54.34914,-122.411,0.3261701,0.8635439,-0.070348,-20.05889,-24.88582,27.44622,1007.808
31.338203907,-7.997841,-16.97573,-112.6978,0.6850076,0.8862852,0.03707301,-20.05889,-24.88582,27.44622,1007.808
31.370981693,-23.27955,-4.625361,-103.1069,0.8182322,1.004845,-0.02311052,-19.63283,-28.22737,27.49828,1007.806
31.439057350,-232.9372,3.411243,-115.0192,0.3443736,0.9714512,-0.05322479,-14.39819,-32.64779,25.01187,1007.808
31.471834183,-306.9851,11.68422,-111.1706,0.5443597,0.7912378,-0.08471602,-14.39819,-32.64779,25.01187,1007.808
31.504611492,-353.8863,79.28625,-130.7191,0.8510762,0.4659862,-0.01996946,-11.02724,-38.6705,16.08725,1007.808
31.537388325,-282.5717,126.7377,-130.9024,0.4567722,0.5184138,0.2191608,-6.881678,-44.32172,3.363235,1007.808
31.570165634,-191.8753,80.17264,-145.747,0.1124799,0.8131763,0.6479451,-6.881678,-44.32172,3.363235,1007.808
31.605464935,-90.49423,40.52145,-148.4349,-0.05876617,0.9698066,0.7554589,-1.756679,-47.04378,-8.226932,1007.808
31.638241768,10.51415,6.602248,-81.11482,0.08015376,1.43186,1.127488,5.197983,-46.41314,-14.21464,1007.808
31.671019077,15.11109,5.656765,5.081779,0.1412905,1.391756,0.8198135,5.197983,-46.41314,-14.21464,1007.808
31.703795910,-24.14924,7.784102,59.81754,0.1679953,1.140413,0.5731905,9.926407,-46.04222,-12.92115,1007.808
31.739094257,-113.1062,17.88895,48.45498,0.3912182,0.7779637,0.5019658,10.30401,-46.77197,-12.91016,1007.81
31.771871567,-116.3986,29.53021,27.13491,0.2788704,0.409003,0.3179455,10.30401,-46.77197,-12.91016,1007.81
31.804648399,-63.72018,36.73952,4.104355,0.08067712,0.4671977,0.4502209,7.372052,-46.08366,-16.39875,1007.81
31.837425709,-59.86869,26.69376,-25.89035,0.1277389,0.5326652,0.7032069,6.247066,-44.67,-19.839,1007.812
31.870203495,-65.45956,28.70291,-35.6646,0.05612934,0.6739371,0.9337361,6.247066,-44.67,-19.839,1007.81
31.905501842,-58.00507,8.020472,-13.42819,0.1211784,0.482785,0.9622703,6.939234,-42.86739,-21.17392,1007.812
31.938278675,38.53062,-9.234591,-3.287416,0.08426831,0.4697389,0.8815088,8.741115,-42.18364,-24.17135,1007.812
31.971055984,47.35177,-21.40768,-5.364443,0.07370495,0.6159643,0.8403976,8.741115,-42.18364,-24.17135,1007.812
32.003833294,28.71554,-20.16674,-13.73364,0.07157936,0.6802606,0.7738778,9.451165,-41.07424,-22.88415,1007.812
32.039131641,3.742985,-18.68942,-22.40828,0.09512927,0.5599869,0.679175,9.109552,-42.14885,-21.56115,1007.813
32.071908474,47.84874,-22.82591,-26.07362,0.1889634,0.5050536,0.6511163,9.109552,-42.14885,-21.56115,1007.813
32.104685783,89.34542,-22.70772,-20.27016,0.2466331,0.7527819,0.626538,9.109552,-42.14885,-21.56115,1007.815
32.137463570,69.83949,-10.29826,-8.785428,0.2101827,0.9666298,0.6056036,10.2256,-43.21591,-19.43197,1007.813
32.170240402,-9.737224,4.415819,-2.859793,0.1654111,1.015721,0.6451074,10.2256,-43.21591,-19.43197,1007.813
32.205538750,-70.11861,11.68422,2.088417,0.1164612,0.7844157,0.7095933,10.24203,-43.92101,-17.68007,1007.813
32.238316059,-59.49596,7.370453,6.486826,0.07425153,0.5659015,0.7143551,11.40628,-44.67048,-18.97543,1007.813
32.271092892,-6.32058,0.1611458,1.844061,0.1399428,0.5014495,0.6820451,11.40628,-44.67048,-18.97543,1007.813
32.303870201,13.18534,-3.561693,-5.54771,0.1715867,0.6747252,0.6980752,10.59498,-43.59311,-20.29694,1007.813
32.339168549,8.89901,-2.675303,-6.76949,0.1413717,0.7247851,0.7192513,10.58073,-42.87017,-20.74351,1007.813
32.371945858,21.32317,-6.752698,0.1335688,0.1341459,0.6978441,0.7058309,10.58073,-42.87017,-20.74351,1007.813
32.404723644,24.30496,-7.402718,-0.04969826,0.122504,0.6933837,0.7087535,10.58073,-42.87017,-20.74351,1007.813
32.437500477,30.0822,-8.702757,-1.027123,0.1385309,0.6875057,0.6846562,10.59716,-43.57528,-18.9916,1007.809
32.470277786,20.39135,-5.334474,-3.226327,0.176759,0.7357701,0.6455025,10.59716,-43.57528,-18.9916,1007.809
32.505576134,20.76408,-0.6661516,-2.615437,0.168889,0.7800951,0.6555629,10.5904,-43.21084,-18.99733,1007.809
32.538352966,3.867227,-1.316171,-1.332568,0.1334341,0.782698,0.6522735,10.97694,-44.28719,-17.67528,1007.809
32.571130276,1.382396,-0.9025224,-0.5384104,0.1354866,0.7349354,0.6451203,10.25555,-44.64988,-17.66861,1007.811
32.603907108,0.5748257,-0.3706883,0.5001029,0.1354969,0.7325706,0.6552324,10.25555,-44.64988,-17.66861,1007.811
32.639206409,1.196033,-0.1343175,0.6833699,0.1534539,0.7386419,0.666252,10.24203,-43.92101,-17.68007,1007.811
32.671984196,5.109643,-0.9025224,-0.1718763,0.1462135,0.7190498,0.6590782,10.60683,-43.91594,-17.24542,1007.813
32.704760551,12.37777,-1.848005,-0.8438554,0.1413275,0.7306577,0.6532961,10.60683,-43.91594,-17.24542,1007.813
32.737537861,11.63232,-2.202561,-1.332568,0.1393083,0.758735,0.6311159,10.62035,-44.64481,-17.23396,1007.813
32.770314693,10.14143,-1.848005,-0.2940543,0.1489737,0.7777967,0.6291388,10.25617,-44.64479,-17.29565,1007.811
32.805613041,-0.4812275,-0.607059,0.2557468,0.1542776,0.7939265,0.6310273,10.25617,-44.64479,-17.29565,1007.811
32.838390350,-5.326648,0.7520727,-0.2329653,0.1470918,0.7544802,0.6402497,10.98578,-44.63464,-16.42637,1007.809
32.871167183,-2.841817,0.1020532,-0.6605884,0.1437398,0.7349808,0.6417311,10.6217,-44.63377,-16.4259,1007.809
32.903944492,1.568758,0.2793312,-0.9660335,0.143226,0.7466587,0.640752,10.6217,-44.63377,-16.4259,1007.811
32.939243317,5.855092,-0.607059,-0.5384104,0.1383757,0.7451872,0.645098,10.98505,-44.64058,-16.86148,1007.811
32.972020626,10.38991,-1.434356,-0.04969826,0.1368767,0.7601725,0.6306381,10.62846,-44.9982,-16.42017,1007.811
33.004797459,8.277802,-1.493449,0.1946578,0.1494829,0.7660486,0.6200094,10.62846,-44.9982,-16.42017,1007.809
33.037574768,3.432381,-1.020708,0.1335688,0.1489453,0.7879606,0.6199777,10.6217,-44.63377,-16.4259,1007.809
33.070352078,-2.220609,0.1020532,-0.3551433,0.1509458,0.764136,0.6233783,10.97975,-44.26426,-15.99699,1007.811
33.105650425,0.2642218,-0.07522487,-0.04969826,0.1475901,0.7481161,0.6349631,10.97975,-44.26426,-15.99699,1007.811
33.138427258,3.183898,-0.2525029,-0.5384104,0.1427147,0.7553442,0.6296688,10.26511,-44.99139,-15.98459,1007.811
33.171204567,2.189966,-0.7252443,0.07247978,0.1460788,0.76998,0.6291574,10.25763,-44.6329,-16.42543,1007.814
33.203982353,2.376328,-0.7252443,-0.04969826,0.1456231,0.7573099,0.6286962,10.25763,-44.6329,-16.42543,1007.814
33.236759186,0.5748257,-0.4888737,-0.1107873,0.1533538,0.7709177,0.6151792,10.62919,-44.99226,-15.98506,1007.81
33.272057533,0.01573872,0.1611458,0.01139076,0.1499507,0.7733513,0.6190346,10.98578,-44.63464,-16.42637,1007.81
33.304834843,-0.5433483,0.5157019,0.01139076,0.1465761,0.7651171,0.629645,10.98578,-44.63464,-16.42637,1007.81
33.337611675,0.761188,-0.2525029,-0.1107873,0.1431792,0.7631004,0.6238797,10.6217,-44.63377,-16.4259,1007.81
33.370388985,2.997536,-0.07522487,0.2557468,0.1514215,0.7665115,0.6142277,10.62846,-44.9982,-16.42017,1007.81
33.405687332,-14.58264,5.774951,0.744459,0.1600578,0.8129457,0.6276154,10.61567,-44.26339,-15.99652,1007.81
33.438464642,-21.78865,5.302209,1.721883,0.1252357,0.7532,0.6224931,10.61567,-44.26339,-15.99652,1007.808
33.471241474,-6.134218,0.04296049,0.3779249,0.136056,0.6993765,0.6437284,10.6217,-44.63377,-16.4259,1007.808
33.504019261,8.15356,-2.025283,-0.9049445,0.1360081,0.7198416,0.6451418,10.98443,-44.64568,-17.23443,1007.808
33.536796570,11.94293,-3.088952,-0.7827665,0.1490293,0.7564412,0.6397608,10.98443,-44.64568,-17.23443,1007.808
33.572094917,9.395975,-2.202561,-0.4773214,0.1470569,0.7665621,0.6267534,10.98578,-44.63464,-16.42637,1007.808
33.604871750,4.736918,-1.316171,-0.4162323,0.1548016,0.7753366,0.6185387,10.99254,-44.99907,-16.42064,1007.807
33.637649059,0.6369465,-0.2525029,-0.7216774,0.14801,0.7733585,0.6224087,10.99254,-44.99907,-16.42064,1007.807
33.670425892,1.196033,-0.4888737,-0.1107873,0.144161,0.7587286,0.6243653,10.26511,-44.99139,-15.98459,1007.807
33.705724239,7.345991,-1.375264,0.07247978,0.1451385,0.7568154,0.6282167,10.6217,-44.63377,-16.4259,1007.809
33.738501549,9.023251,-1.670727,-0.4773214,0.1480154,0.7704129,0.6190436,10.6217,-44.63377,-16.4259,1007.809
33.771279335,7.780836,-1.670727,-0.7216774,0.1445929,0.7801183,0.6180743,11.05395,-44.99328,-15.98561,1007.809
33.804056644,4.239952,-1.197986,-0.5994994,0.1445761,0.7874338,0.6195074,11.00076,-45.35162,-15.54469,1007.811
33.836833477,2.376328,-0.9025224,-0.1718763,0.1407057,0.778024,0.6017204,11.00076,-45.35162,-15.54469,1007.811
33.872131824,-0.6675898,-0.5479663,0.07247978,0.1504278,0.7752432,0.610366,10.99472,-44.98124,-15.1153,1007.811
33.904909134,0.512705,-0.2525029,-0.2329653,0.1485115,0.7655299,0.616643,10.26584,-44.98544,-15.54948,1007.811
33.937685966,3.183898,-0.8434297,-0.04969826,0.1489823,0.770354,0.6094141,10.26584,-44.98544,-15.54948,1007.811
33.970463276,1.941483,-0.607059,-0.3551433,0.1446035,0.7742237,0.6108627,10.994,-44.98719,-15.55042,1007.811
34.005761623,2.749053,-0.784337,-0.5994994,0.1475112,0.7766832,0.6108521,10.27333,-45.34394,-15.10863,1007.811
34.038538456,2.127845,-0.6661516,-0.1718763,0.1460333,0.7849271,0.6074737,10.27333,-45.34394,-15.10863,1007.811
34.071316242,2.438449,-0.4888737,-0.3551433,0.1470342,0.7717621,0.6041216,10.63064,-44.98037,-15.11484,1007.811
34.104093552,3.37026,-1.0798,0.2557468,0.1465307,0.7785496,0.6002617,10.27936,-45.71432,-15.53802,1007.811
34.136870384,4.426314,-1.257078,0.1335688,0.1499311,0.7791052,0.6060292,10.27936,-45.71432,-15.53802,1007.809
34.172169209,3.121778,-2.143469,-0.4162323,0.1523399,0.787415,0.607455,10.62461,-44.61,-14.68545,1007.815
34.204946041,7.532353,-1.848005,-0.5994994,0.1441052,0.7765444,0.5949755,10.64489,-45.7033,-14.66826,1007.815
34.237723351,6.414179,-1.907098,0.2557468,0.146971,0.7960297,0.5920512,10.64489,-45.7033,-14.66826,1007.817
34.270500183,8.96113,-2.675303,0.744459,0.1445747,0.7798337,0.577159,11.42624,-45.3467,-15.11012,1007.817
34.305798531,6.849025,-3.975342,1.782972,0.1338895,0.7832375,0.5892133,11.00221,-45.33974,-14.67446,1007.819
34.338575840,11.5702,-4.566269,3.310198,0.1697648,0.805887,0.5813923,11.00221,-45.33974,-14.67446,1007.817
34.371353626,11.13536,-7.579996,3.12693,0.1202494,0.7955658,0.5574571,11.01573,-46.06861,-14.663,1007.819
34.404130459,19.27318,-16.32571,11.49613,0.102336,0.7755281,0.5690826,10.64635,-45.69141,-13.79804,1007.819
34.436907768,29.02614,-15.67569,17.97156,0.1720756,0.8636811,0.6251037,10.64635,-45.69141,-13.79804,1007.819
34.472206116,17.22319,-14.0211,21.75908,0.1657371,0.8763547,0.6342454,11.06497,-45.3229,-13.43137,1007.819
34.504983425,10.70051,-15.67569,16.6276,0.2179363,0.7543117,0.5308128,9.934517,-46.39561,-12.10735,1007.816
34.537760258,32.93975,-17.68484,9.113654,0.2646109,0.7207844,0.485986,8.484969,-46.75656,-12.09974,1007.816
34.570537567,64.49711,-23.59411,-1.576924,0.2475702,0.7466995,0.5211267,8.484969,-46.75656,-12.09974,1007.816
34.605835915,155.4419,-47.40846,14.24513,0.2334351,0.7664529,0.507171,8.487876,-46.73279,-10.3593,1007.818
34.638612747,285.7713,-69.03638,65.13229,0.3910474,1.236441,0.3867111,8.144485,-47.4022,-6.058408,1007.818
34.671390057,289.6849,-90.30975,111.7432,0.506799,1.546903,0.278625,8.144485,-47.4022,-6.058408,1007.818
34.704167843,246.511,-71.63646,173.9929,0.4963237,1.62833,0.09416555,6.729517,-48.38973,5.896109,1007.818
34.736944675,175.4448,-66.02265,212.4179,0.4449418,1.574218,0.008686589,1.992334,-47.08338,16.20243,1007.818
34.772243023,122.7043,-52.25406,244.1842,0.5844093,1.210372,-0.5831708,1.992334,-47.08338,16.20243,1007.82
34.805020332,177.4948,-9.825518,247.1776,0.3933785,0.8646749,-0.689059,-4.692908,-42.61277,22.10946,1007.82
34.837797642,240.5474,-3.5026,250.6596,0.6760117,0.4351843,-0.7372182,-12.15611,-35.53965,27.16829,1007.815
34.870574474,166.4994,41.82149,215.9,0.8508294,0.4373575,-0.7049035,-12.15611,-35.53965,27.16829,1007.815
34.905872822,40.20788,81.2954,165.9902,0.7715958,0.07926695,-0.6261953,-18.15714,-25.56062,31.74421,1007.814
34.938650131,61.51531,79.58171,131.1084,0.5878004,-0.2640935,-0.825007,-23.14126,-15.28415,31.589,1007.81
34.971426964,162.151,97.25043,96.71531,0.5974822,-0.2771056,-0.9569034,-23.14126,-15.28415,31.589,1007.81
35.004204750,167.804,147.2428,57.37398,0.4429517,-0.1802484,-0.7102256,-26.53436,-9.092756,30.6256,1007.81
35.036982059,119.0392,174.3073,16.26107,0.3188611,-0.3143162,-0.9301929,-29.22496,-1.783871,27.0946,1007.808
35.072280407,70.77131,280.6741,-46.23299,0.4412381,-0.496421,-0.7901325,-29.22496,-1.783871,27.0946,1007.805
35.105057240,124.2573,381.0135,-99.13608,0.1223657,-0.598341,-0.9856181,-33.40238,3.676748,21.41865,1007.803
35.137834549,153.2677,466.9933,-139.6381,-0.1579189,0.02442701,-0.1107763,-38.55861,5.723592,10.26442,1007.802
35.170611382,630.6658,-4.920825,221.7645,-1.249385,0.2847449,-4.859139,-38.55861,5.723592,10.26442,1007.802
35.205910206,-208.6479,-192.2446,119.3793,3.01638,0.3274163,0.5628464,-41.87681,3.37005,-2.50161,1007.802
35.238687038,-252.7537,242.382,-16.1772,0.4663121,-1.303532,-0.0616379,-41.90417,5.24488,1.323586,1007.802
35.271464348,137.986,-72.81831,-58.51189,0.3941294,-0.9489728,0.02416269,-41.90417,5.24488,1.323586,1007.8
35.304242134,195.6962,-43.62653,-56.8014,1.334261,0.07220916,0.1339951,-40.82764,5.953306,0.005381584,1007.796
35.337018967,32.93975,29.11656,-42.44548,0.8909867,0.5425634,0.5786344,-41.16249,4.514261,1.334106,1007.796
35.372317314,-143.0484,12.92516,-34.01519,0.7465103,0.4731157,0.7109749,-41.48561,2.261829,0.9347997,1007.796
35.405094624,-192.9935,-2.202561,-29.4946,0.7471941,0.1696194,0.6300806,-41.48561,2.261829,0.9347997,1007.796
35.437871456,-121.9895,-18.39396,-27.8452,0.6313316,-0.1203539,0.6028735,-41.8166,0.4345717,0.5288079,1007.794
35.470648766,-54.71267,-48.41304,-28.395,0.6758356,-0.05896736,0.5521324,-41.8009,-0.2764702,1.845603,1007.794
35.503425598,-36.94612,-55.44507,-24.11877,0.6988331,0.07428245,0.5658365,-41.8009,-0.2764702,1.845603,1007.794
35.538724423,-61.54595,-50.83584,-21.43085,0.4104466,0.04624591,0.5227588,-41.77844,-1.35195,3.168128,1007.792
35.571501255,-96.95479,-54.20412,-35.42024,0.4639253,0.01640886,0.5101616,-41.01981,-2.783422,5.241349,1007.79
35.604278564,-136.4015,-54.02684,-57.96209,0.5012024,0.03315558,0.3521613,-41.01981,-2.783422,5.241349,1007.79
35.637056351,-167.9588,-49.83126,-92.29411,0.5158636,-0.03193111,0.2198501,-41.36819,-3.493592,6.558614,1007.789
35.672354698,-157.3362,-40.49462,-134.2012,0.6815644,-0.1059251,0.09585866,-39.8343,-7.549646,7.863895,1007.787
35.705131531,-139.8181,-24.24413,-168.0445,0.7507294,-0.004523064,0.02670705,-39.8343,-7.549646,7.863895,1007.787
35.737908840,-121.9895,-17.27119,-207.0804,0.840185,0.1166472,-0.1657511,-38.95892,-12.30026,7.129303,1007.783
35.770685673,-116.585,14.40248,-237.1973,1.332849,0.2168392,-0.07753734,-35.17118,-20.41111,5.511172,1007.789
35.803462982,-99.93658,63.80397,-300.0579,2.31229,0.6702888,0.2179004,-35.17118,-20.41111,5.511172,1007.79
35.838761330,-67.26105,81.53178,-269.3912,0.5081278,0.7539387,0.128188,-29.58603,-27.4551,2.257374,1007.79
35.871538639,-2.469092,22.55727,-169.083,0.0995212,0.5987186,-0.1300629,-22.46027,-35.9184,-2.343912,1007.79
35.904315472,93.32115,31.77573,-156.1932,0.2341485,0.7679714,-0.04591761,-22.46027,-35.9184,-2.343912,1007.792
35.937092781,71.51675,33.78488,-146.2357,0.5214473,1.351314,0.5003114,-15.03723,-40.38187,-3.153897,1007.79
35.972391605,-42.04003,58.6629,-131.33,0.5387851,1.434094,0.6171165,-9.513038,-43.65707,-1.80404,1007.791
36.005168915,-70.11861,38.15774,-108.0551,0.2434721,1.010015,0.3609275,-9.513038,-43.65707,-1.80404,1007.793
36.037945747,-46.01575,35.85313,-77.3273,0.3253887,1.103409,0.5256995,-4.675657,-46.24933,-3.945674,1007.793
36.070723057,-50.79906,39.04413,-57.22902,0.2550722,1.075453,0.5822278,-0.6536518,-47.4478,-6.48121,1007.793
36.103499889,-39.18247,31.53936,-35.84786,0.2349416,0.9500849,0.5078534,-0.6536518,-47.4478,-6.48121,1007.795
36.138798237,-23.09319,16.35254,-22.10283,0.2106186,0.9709048,0.5194324,3.036384,-47.06036,-8.606071,1007.797
36.171575546,-33.03251,16.648,-3.470683,0.156346,0.9166237,0.4830594,5.217942,-47.08937,-10.34934,1007.798
36.204352379,-38.74763,17.4753,2.088417,0.1987139,0.8668793,0.4926611,5.217942,-47.08937,-10.34934,1007.798
36.237129688,-40.54913,19.42536,8.13623,0.2133422,0.8517978,0.5475245,5.585873,-47.47845,-12.08452,1007.798
36.272428036,-40.54913,24.03459,12.35137,0.218822,0.7938995,0.5495241,5.577036,-47.131,-13.33343,1007.802
36.305205345,-24.89469,25.03917,13.38988,0.1937426,0.7236106,0.5573913,5.560606,-46.4259,-15.08534,1007.798
36.337983131,-11.60085,20.66631,8.624942,0.2112059,0.738138,0.5943928,5.560606,-46.4259,-15.08534,1007.798
36.370759964,-19.2417,22.79364,9.907811,0.1601048,0.8000438,0.6632556,5.189042,-46.06654,-15.52571,1007.799
36.403537274,-16.94323,14.81613,12.16811,0.1665318,0.7549135,0.6791932,5.54563,-45.70892,-15.96702,1007.799
36.438835621,-23.34167,7.252268,5.753758,0.133526,0.7467552,0.6662871,5.54563,-45.70892,-15.96702,1007.801
36.471612454,-15.70082,2.583946,-3.165238,0.08509019,0.6931838,0.65493,5.916469,-46.07423,-15.96176,1007.797
36.504389763,12.93686,-9.530054,-0.8438554,0.1256572,0.7880675,0.6633553,5.530654,-44.99193,-16.8487,1007.8
36.537166596,11.81869,-7.166347,-2.981971,0.2068587,0.7318941,0.612223,5.530654,-44.99193,-16.8487,1007.8
36.572465420,19.14894,-0.07522487,-6.525134,0.2200614,0.6940489,0.6170623,6.623613,-44.9886,-16.415,1007.8
36.605242252,16.16714,6.306785,-6.952757,0.2300116,0.7862471,0.5562482,5.896185,-44.98092,-15.97895,1007.804
36.638019562,-20.85684,14.46157,-4.997909,0.357601,0.857751,0.6699206,5.896185,-44.98092,-15.97895,1007.804
36.670796394,-68.37923,24.09368,-8.846517,0.3257914,0.7717988,0.7447366,7.374232,-46.06583,-15.09342,1007.8
36.703574181,-67.50954,14.93432,-4.081573,0.1268234,0.7345565,0.8112112,8.086684,-45.35653,-16.41115,1007.801
36.738872528,-15.07961,0.7520727,-25.46273,0.02533099,0.4971829,0.6264855,8.086684,-45.35653,-16.41115,1007.801
36.771649837,61.57743,-9.116405,-40.00191,0.006105926,0.6076886,0.5719706,8.418734,-43.94042,-19.41816,1007.801
36.804426670,56.42141,-6.929976,-50.26487,-0.008069189,0.8440056,0.5336205,9.134092,-43.20735,-18.99545,1007.803
36.837203979,12.37777,1.57937,-55.88506,0.1157074,0.8721465,0.5794953,9.134092,-43.20735,-18.99545,1007.805
