Time (s),Gyroscope X (deg/s),Gyroscope Y (deg/s),Gyroscope Z (deg/s),Accelerometer X (g),Accelerometer Y (g),Accelerometer Z (g),Magnetometer X (uT),Magnetometer Y (uT),Magnetometer Z (uT),Barometer (hPa)
0.015067101,0.02971881,-0.3381517,0.1238677,-0.01097362,-0.03485258,1.00042,19.14664,-18.03696,-39.68338,1008.352
0.047238827,-0.09314202,-0.1605967,0.001293645,-0.005715326,-0.04465032,0.9920959,20.26891,-18.06444,-40.58175,1008.352
0.081886292,0.09114922,-0.2197817,0.1238677,-0.004140161,-0.03633581,1.001308,19.51906,-17.66688,-40.13346,1008.352
0.114054680,-0.2774332,-0.2197817,0.1238677,-0.008630766,-0.04655866,0.9945174,19.50808,-18.05857,-40.9604,1008.35
0.146227360,0.6440229,-0.1014117,-0.05999338,-0.01102839,-0.03635309,0.9946239,19.50808,-18.05857,-40.9604,1008.35
0.180874348,-0.1545724,-0.3381517,0.06258067,-0.01341976,-0.0295268,0.9971125,19.50833,-17.67744,-40.96227,1008.352
0.213046074,-1.076029,-0.2789667,0.06258067,-0.01109291,-0.04608314,0.9916523,19.51328,-17.67257,-40.57974,1008.353
0.247693539,-0.1545724,-0.1014117,0.06258067,-0.007616337,-0.04507785,0.9983761,19.51328,-17.67257,-40.57974,1008.353
0.279866219,0.09114922,0.01695837,0.001293645,-0.008015258,-0.03822445,1.005666,19.13039,-17.67207,-40.96033,1008.355
0.314509392,-0.2160029,-0.1014117,0.001293645,-0.01097558,-0.03630506,1.00089,18.75163,-17.66751,-41.02216,1008.355
0.346681595,-0.03171161,-0.3381517,0.001293645,-0.006199218,-0.04464417,0.9925824,18.75163,-17.66751,-41.02216,1008.359
0.381329060,0.4597317,-0.2197817,0.1851547,-0.007071898,-0.03729184,1.001327,19.51328,-17.67257,-40.57974,1008.359
0.413500786,-0.2160029,-0.3381517,-0.05999338,-0.00466458,-0.03830079,0.9979225,19.13509,-18.04833,-40.57595,1008.359
0.448148251,-0.3388637,-0.04222664,-0.1212804,-0.007128823,-0.03637647,0.9941053,19.13509,-18.04833,-40.57595,1008.36
0.480320454,-0.7074462,-0.04222664,-0.1212804,-0.005203487,-0.03495969,0.9902431,19.13013,-18.05321,-40.95847,1008.362
0.514963627,-0.4617245,-0.2197817,0.1851547,-0.01151836,-0.03683602,0.9946245,19.13013,-18.05321,-40.95847,1008.362
0.547136307,0.2754405,-0.04222664,0.06258067,-0.01104215,-0.04555341,0.9974402,19.13013,-18.05321,-40.95847,1008.362
0.581783771,0.8897446,0.1353284,0.001293645,-0.005166484,-0.04363027,0.9988472,19.13039,-17.67207,-40.96033,1008.364
0.613955498,0.6440229,-0.1014117,0.1238677,-0.01442964,-0.04067486,0.998476,19.13591,-18.04752,-40.51219,1008.364
0.648602486,0.02971881,-0.2789667,0.1238677,-0.01155492,-0.03686928,0.9902866,19.13591,-18.04752,-40.51219,1008.364
0.680775165,-0.2160029,-0.2197817,0.06258067,-0.002228676,-0.04218516,0.9993137,18.76318,-17.65614,-40.12959,1008.366
0.712943554,0.1525796,0.07614338,0.06258067,-0.008584317,-0.04119717,0.9974532,19.51303,-18.0537,-40.57788,1008.366
0.747591019,0.09114922,-0.04222664,0.001293645,-0.005184985,-0.03929498,0.9945452,19.51303,-18.0537,-40.57788,1008.367
0.779763699,-0.3388637,-0.3381517,-0.05999338,-0.001236714,-0.03830693,0.9993364,19.12957,-17.67288,-41.02409,1008.367
0.814410686,0.09114922,0.01695837,0.06258067,-0.005699027,-0.04560263,0.994498,19.13039,-17.67207,-40.96033,1008.367
0.846582413,0.3368709,0.1353284,0.001293645,-0.007157113,-0.03930361,0.9921535,19.13039,-17.67207,-40.96033,1008.369
0.881229877,0.1525796,0.3720685,-0.05999338,-0.008041935,-0.03292945,0.9999262,19.13013,-18.05321,-40.95847,1008.369
0.913398266,-0.1545724,-0.2197817,-0.1825674,-0.00902587,-0.03486611,0.9999194,19.50808,-18.05857,-40.9604,1008.369
0.948045731,-0.4002941,-0.04222664,0.1238677,-0.01048954,-0.0387271,1.001829,19.50808,-18.05857,-40.9604,1008.367
0.980217934,-0.2160029,-0.1014117,0.1851547,-0.007150702,-0.04558417,0.9959576,19.13617,-17.66639,-40.51405,1008.367
1.014865398,0.2754405,0.1945134,-0.05999338,-0.007693329,-0.04901642,0.9911144,19.13617,-17.66639,-40.51405,1008.367
1.047037125,0.5211621,0.2536984,0.06258067,-0.004126114,-0.03293805,1.001336,19.13617,-17.66639,-40.51405,1008.363
1.081684589,0.02971881,0.1945134,-0.1825674,-0.009532179,-0.03342964,0.997044,19.51385,-18.05289,-40.51413,1008.362
1.113852978,-1.137459,-0.04222664,-0.2438544,-0.01048161,-0.03485134,1.000897,19.14087,-18.04265,-40.12967,1008.362
1.148499966,-0.8917374,-0.4565217,0.001293645,-0.005188755,-0.04510124,0.9969072,19.13039,-17.67207,-40.96033,1008.362
1.180672646,-0.3388637,-0.1014117,-0.1212804,-0.001309252,-0.04997855,0.9963489,19.13039,-17.67207,-40.96033,1008.362
1.212844849,0.3368709,0.2536984,0.001293645,-0.007685252,-0.04804193,0.9916043,19.13013,-18.05321,-40.95847,1008.363
1.247491837,0.4597317,0.4904385,-0.1212804,-0.007175272,-0.04173797,0.9911695,19.13534,-17.6672,-40.5778,1008.363
1.279664517,-0.2774332,0.1945134,0.001293645,-0.009945098,-0.0309411,1.00478,19.13534,-17.6672,-40.5778,1008.363
1.314307690,-1.076029,-0.1014117,0.1238677,-0.01102189,-0.04456785,0.9993761,19.51354,-17.29143,-40.5816,1008.363
1.346479893,0.1525796,0.1945134,0.06258067,-0.009640886,-0.05287125,0.9935108,19.51354,-17.29143,-40.5816,1008.363
1.381127358,0.5825925,-0.1605967,0.1238677,-0.01193735,-0.03483657,1.001875,19.51354,-17.29143,-40.5816,1008.363
1.413299084,-0.03171161,-0.1014117,0.1238677,-0.007648885,-0.04414031,0.9940462,19.52484,-17.6612,-39.68718,1008.365
1.447946549,0.21401,0.1353284,0.3077287,-0.008602768,-0.03782896,0.9936251,19.50776,-17.29712,-41.02789,1008.365
1.480118752,-0.1545724,0.1353284,0.001293645,-0.006134414,-0.04071668,0.9983983,19.50776,-17.29712,-41.02789,1008.365
1.514762402,-0.3388637,0.01695837,0.001293645,-0.01052199,-0.03972375,0.9984474,19.51411,-17.67175,-40.51599,1008.365
1.546934605,-0.2160029,0.07614338,0.001293645,-0.01252035,-0.04314122,0.9945819,19.88049,-17.68849,-41.41048,1008.365
1.581582069,0.3368709,-0.04222664,-0.1825674,-0.007140765,-0.04122302,0.9950294,19.88049,-17.68849,-41.41048,1008.365
1.613753796,-0.03171161,-0.04222664,0.1851547,-0.01056834,-0.04701944,0.9964597,19.13617,-17.66639,-40.51405,1008.359
1.648400783,0.21401,-0.04222664,-0.1212804,-0.007587998,-0.0431178,1.000802,19.50833,-17.67744,-40.96227,1008.359
1.680573463,-0.03171161,-0.1014117,-0.1212804,-0.00810062,-0.03733495,0.9950705,19.50833,-17.67744,-40.96227,1008.359
1.715216637,-0.09314202,0.1353284,0.001293645,-0.01008631,-0.05041227,0.9973912,18.37946,-17.65646,-40.57394,1008.359
1.747389317,0.2754405,0.01695837,-0.05999338,-0.01048327,-0.04210639,1.004211,19.89148,-17.2968,-40.58353,1008.359
1.779561043,-0.03171161,-0.3381517,0.06258067,-0.006195205,-0.04367338,0.9925904,19.89148,-17.2968,-40.58353,1008.361
1.814208507,0.21401,-0.2197817,-0.1212804,-0.007085945,-0.0406896,1.001299,19.13065,-17.29094,-40.9622,1008.361
1.846381187,-0.4002941,0.01695837,-0.1212804,-0.005207255,-0.04076594,0.9926051,19.13039,-17.67207,-40.96033,1008.361
1.881028175,0.21401,0.2536984,0.001293645,-0.008608399,-0.04702189,0.9974054,19.13039,-17.67207,-40.96033,1008.361
1.913196564,-0.03171161,-0.04222664,0.06258067,-0.005634517,-0.03587259,0.9974695,19.51385,-18.05289,-40.51413,1008.361
1.947844028,-1.137459,-0.4565217,-0.1825674,-0.01349641,-0.04023503,0.9931688,19.51328,-17.67257,-40.57974,1008.359
1.980016708,-0.7074462,-0.3381517,0.06258067,-0.006729607,-0.04903242,0.9896592,19.51328,-17.67257,-40.57974,1008.361
2.014663219,0.2754405,0.1353284,0.001293645,-0.005219003,-0.04948086,0.9954254,19.12461,-17.67776,-41.40662,1008.361
2.046835423,-0.1545724,0.07614338,0.06258067,-0.005231484,-0.04368938,0.9911353,19.13534,-17.6672,-40.5778,1008.361
2.081482887,0.02971881,0.07614338,0.001293645,-0.01202848,-0.04023871,0.9936372,19.13534,-17.6672,-40.5778,1008.361
2.113651276,-0.3388637,0.1353284,-0.05999338,-0.007067934,-0.03535395,1.000861,19.14112,-17.66151,-40.13153,1008.361
2.148298740,-0.4617245,-0.1014117,-0.05999338,-0.005674751,-0.04364628,0.9964418,19.13065,-17.29094,-40.9622,1008.361
2.180470943,0.09114922,0.07614338,0.001293645,-0.007638657,-0.04558171,0.9959621,19.13065,-17.29094,-40.9622,1008.363
2.215117455,0.5825925,-0.1014117,-0.05999338,-0.009580584,-0.04024362,0.9945784,18.7574,-17.66183,-40.57587,1008.363
2.247290134,-0.5231549,-0.1014117,-0.05999338,-0.01297997,-0.04117872,0.9970123,19.51881,-18.04801,-40.1316,1008.363
2.281937599,-0.09261963,-0.04188706,0.1238653,-0.005668633,-0.04412429,0.9974018,19.13039,-17.67207,-40.96033,1008.363
2.314105988,0.3981407,0.1359129,0.001228606,-0.003255145,-0.04657834,0.995431,19.13039,-17.67207,-40.96033,1008.357
2.346278668,-0.279043,0.01749,-0.0600825,-0.003706781,-0.04170716,0.9974034,19.12957,-17.67288,-41.02409,1008.357
2.380925179,-0.5228458,-0.1010122,0.001391405,-0.0076854,-0.04514066,0.9901823,19.13509,-18.04833,-40.57595,1008.355
2.413097382,-0.09178095,0.01713841,-0.05970904,-0.007589956,-0.04457029,1.001272,19.13509,-18.04833,-40.57595,1008.355
2.447744846,0.153245,-0.2195651,0.001974269,-0.00659026,-0.03294792,0.9984666,18.7574,-17.66183,-40.57587,1008.355
2.479917526,-0.1531442,-0.2779667,0.06338753,-0.009102422,-0.04750853,0.9969239,19.50859,-17.29631,-40.96413,1008.355
2.514560700,-0.2136715,-0.159286,0.06328212,-0.005680624,-0.04800374,0.997852,19.50859,-17.29631,-40.96413,1008.357
2.546732903,0.155589,-0.04078656,0.001833443,-0.005676856,-0.04219749,0.9954897,18.7522,-18.04784,-40.95654,1008.357
2.581380367,-0.1512242,-0.09971853,-0.1207677,-0.009100513,-0.04508894,0.9959798,19.51328,-17.67257,-40.57974,1008.357
2.613552093,-0.1508963,0.07781596,-0.05944969,-0.008638794,-0.04850024,0.9945015,19.51328,-17.67257,-40.57974,1008.359
2.648199558,-0.213013,0.07764169,0.1243453,-0.009068453,-0.03635554,0.9955695,19.897,-17.67225,-40.1354,1008.357
2.680371761,-1.623309,-0.3356148,0.4293507,-0.005112007,-0.03632719,1.001799,19.50808,-18.05857,-40.9604,1008.359
2.715014934,-1.923761,0.5518508,0.4274083,0.000259649,-0.03828475,1.003179,19.50808,-18.05857,-40.9604,1008.359
2.747187614,-9.108824,1.024606,0.5494449,0.004984655,-0.003670286,1.026074,19.51463,-16.90949,-40.51971,1008.361
2.781835079,-51.18866,-4.24286,2.449343,-0.007079294,0.1550124,1.139801,19.1356,-17.28607,-40.57967,1008.361
2.814006805,-93.57565,-7.32048,8.639332,-0.06555237,0.008451473,1.104916,19.1356,-17.28607,-40.57967,1008.362
2.846179485,-123.4308,-23.06369,7.291018,0.04439872,0.002426509,1.59066,19.49729,-16.92654,-41.85855,1008.362
2.880826473,-223.1324,-34.24966,4.594388,-0.1226088,0.1498605,1.215546,18.35397,-13.87274,-42.7602,1008.362
2.912994862,-298.7532,-53.8399,-5.456683,-0.1378051,-0.4355419,1.200258,18.35397,-13.87274,-42.7602,1008.362
2.947642326,-244.8173,-69.52393,-35.67119,-0.05949196,-0.7382817,1.142083,17.20115,-7.781237,-44.56929,1008.362
2.979814053,-251.6361,-84.85284,-88.43932,-0.04678995,-1.067902,0.9546415,14.93473,2.599417,-45.05452,1008.362
3.046633720,-254.339,-77.51391,-205.1911,0.2081925,-1.618644,0.3206406,10.06865,12.61847,-41.95379,1008.364
3.081281185,-157.279,-47.62547,-233.7508,0.3375769,-1.558259,0.2408832,3.713096,22.68093,-37.12396,1008.362
3.113449574,-129.2053,-38.15587,-256.0593,0.2307063,-1.084872,0.1281752,3.713096,22.68093,-37.12396,1008.362
3.148097038,-92.03989,-18.50645,-259.4301,0.4256357,-0.8273391,-0.08697437,-4.528432,29.72684,-31.8233,1008.362
3.180268765,-98.98152,-15.60638,-250.7274,0.8628992,-0.6570073,0.06458958,-13.55833,31.4192,-28.72412,1008.359
3.214915752,-47.13425,25.9415,-236.6926,0.5133912,-0.3913005,-0.1338444,-13.55833,31.4192,-28.72412,1008.357
3.247088432,-34.66388,46.95218,-213.4035,0.5579765,-0.1820487,-0.0978314,-21.15302,28.88796,-26.44069,1008.355
3.281735897,-24.83501,58.07896,-187.6017,0.6246932,0.05336282,-0.05409723,-27.57479,25.17357,-25.94292,1008.354
3.313904286,-37.85826,70.33025,-161.2483,0.6801486,0.1713262,-0.01604623,-27.57479,25.17357,-25.94292,1008.354
3.346076012,-34.35672,80.86519,-133.1176,0.664809,0.2286787,0.04722966,-30.24131,19.85823,-27.24218,1008.352
3.380723476,-27.78367,92.58382,-103.0869,0.7206065,0.3161168,-0.03354606,-31.39555,15.28368,-28.55289,1008.352
3.412895680,-46.51995,117.6191,-75.01746,0.7016079,0.4386966,-0.263236,-31.39555,15.28368,-28.55289,1008.35
3.447543144,-69.2492,181.4797,-45.96741,0.7625445,0.3364904,-0.5119129,-31.04195,12.20732,-30.26131,1008.35
3.479715824,-81.90386,255.6385,-10.66608,0.6433042,0.3731204,-0.4333784,-28.81605,10.22964,-33.38757,1008.35
3.514358997,-1325.01,-156.1708,-57.06036,-1.360571,-0.5678227,15.1153,-23.56926,11.63435,-36.92858,1008.346
3.546530724,-243.7116,-180.9693,-106.6416,2.584399,-0.3509677,2.278369,-23.56926,11.63435,-36.92858,1008.344
3.581177711,63.93194,39.3765,-52.03482,-0.2944467,0.4862919,0.2318241,-18.2318,21.50764,-33.94382,1008.343
3.613350391,-62.36899,5.877778,-11.83053,0.9545435,0.6223754,1.060453,-22.03079,16.97149,-35.17724,1008.341
3.647997856,30.02235,-0.5142039,19.85486,0.7731468,-0.3291149,0.6079696,-22.03079,16.97149,-35.17724,1008.341
3.680170059,35.91967,-5.07145,30.0285,0.8940039,0.08045948,0.7384304,-21.6481,15.44727,-34.72545,1008.341
3.714813232,31.25096,-16.3166,31.49939,0.7384385,0.1514454,0.7168492,-21.27594,15.43621,-35.17367,1008.341
3.746985435,1.702928,-15.36964,32.54127,0.7903311,0.0470373,0.5545164,-21.27594,15.43621,-35.17367,1008.339
3.781737328,41.87842,-21.76162,33.8283,0.8263784,-0.1296284,0.5160916,-21.27594,15.43621,-35.17367,1008.339
3.813909531,89.48699,-13.47572,31.9284,0.7482987,-0.09501995,0.6737553,-20.90352,15.8063,-35.62374,1008.333
3.848556995,35.12107,-20.51874,27.14801,0.7884575,0.1718043,0.6196684,-20.90352,15.8063,-35.62374,1008.333
3.880728722,33.27816,-19.33504,34.37988,0.7446385,-0.1125962,0.5950787,-21.66094,13.53023,-35.60871,1008.332
3.912897587,109.0219,-11.40425,46.82114,0.7035809,0.0001441045,0.6489292,-22.03888,13.5356,-35.60677,1008.332
3.947544575,74.31367,-13.12061,62.51062,0.7221255,0.320026,0.7265851,-22.03888,13.5356,-35.60677,1008.332
3.979717255,77.26234,-22.2351,77.09694,0.6903705,0.1248642,0.7006906,-21.67905,12.36978,-36.94197,1008.33
4.014364243,60.49183,-20.87385,80.16129,0.5303904,0.08946614,0.7279195,-21.30214,10.83987,-36.93646,1008.33
4.046536446,87.64407,-24.06984,101.4279,0.4993368,0.2256287,0.7413818,-21.30214,10.83987,-36.93646,1008.33
4.081183434,128.311,-28.50871,124.8395,0.5356026,0.1334147,0.5137434,-21.68663,9.696156,-37.37523,1008.328
4.113351822,166.2136,-15.5472,141.9386,0.3913754,0.1807914,0.4590858,-22.0706,9.314705,-37.81771,1008.326
4.147999287,182.7998,-2.230569,169.7629,0.4917623,0.2541509,0.406698,-22.0706,9.314705,-37.81771,1008.328
4.180171967,123.888,25.5272,191.336,0.3649876,0.3042369,0.3369579,-22.08922,7.391984,-39.14725,1008.328
4.214818955,38.43832,38.19279,197.0969,0.3172763,0.1092893,0.3285659,-20.96876,4.696574,-40.03259,1008.328
4.246990681,-46.70424,47.01136,208.1899,0.3767158,-0.2367332,0.3102167,-20.96876,4.696574,-40.03259,1008.322
4.281638146,-28.02939,60.62392,207.8222,0.3209537,-0.4522476,0.3990942,-19.08954,5.040308,-40.87292,1008.32
4.313806534,-144.01,53.5809,210.0285,0.3160738,-0.5257258,0.4346839,-16.06923,8.803009,-41.35328,1008.32
4.348453999,-91.30272,14.34123,204.9417,0.2561634,-1.21813,0.5509986,-16.06923,8.803009,-41.35328,1008.322
4.380626202,-41.35979,15.82086,206.1674,0.6304211,-1.141607,0.3929334,-11.07895,13.69762,-40.57413,1008.322
4.415273666,24.0636,36.29887,216.2185,0.5003324,-1.662544,0.6698943,-5.766084,20.11878,-39.29399,1008.322
4.447445393,187.0385,42.39493,215.7895,0.1961642,-1.327321,0.9555378,0.2769728,22.69514,-39.78424,1008.322
4.479618073,190.4172,58.07896,184.0428,-0.09337684,-1.089043,0.7635481,0.2769728,22.69514,-39.78424,1008.324
4.514261246,198.5874,71.69151,116.4432,-0.3070073,-1.08059,0.7150012,6.281299,17.99665,-42.85307,1008.326
4.546433926,133.0412,81.16112,52.09183,-0.0953083,-0.8347695,0.8172364,11.17126,9.143742,-44.17425,1008.329
4.581080913,131.5054,41.7439,-0.06342535,0.01786985,-1.346574,1.932128,11.17126,9.143742,-44.17425,1008.329
4.613252640,281.8871,11.91465,-12.32083,-0.3007781,0.2151604,1.701192,15.71847,1.09257,-42.81954,1008.331
4.647900104,-84.36108,-14.24513,-19.49141,0.02327435,0.2586218,0.8106838,17.23685,-6.222593,-41.89905,1008.335
4.680072784,-24.22071,-10.63484,-8.766183,-0.2471089,-0.7574936,0.5435862,17.23685,-6.222593,-41.89905,1008.336
4.714715958,37.02542,-0.5142039,-5.701831,0.01335123,0.02503281,0.7881247,17.97912,-9.293766,-42.78059,1008.342
4.746888161,10.97892,3.392007,1.101028,0.01446927,-0.368134,1.22783,17.23005,-7.752812,-42.33788,1008.342
4.781535625,0.9043326,1.853197,-0.7375826,-0.06092752,-0.3833462,1.031753,17.23005,-7.752812,-42.33788,1008.344
4.813708305,14.72618,6.351257,1.897759,-0.02727227,-0.2504347,0.7910529,17.60722,-8.901581,-42.33424,1008.347
4.848354816,17.06053,4.753262,1.959046,-0.08090268,-0.2328272,0.9628082,18.36836,-9.6689,-41.8881,1008.342
4.880527019,-0.6314277,0.5511264,-1.227879,-0.04989262,-0.1771645,1.025638,18.36836,-9.6689,-41.8881,1008.343
4.915170193,-16.78763,-0.4550189,-0.1247124,-0.04155356,-0.3037868,0.9758341,17.61222,-10.0393,-41.88237,1008.345
4.947342873,6.43307,-1.046869,0.794593,-0.04492649,-0.3771959,0.9583903,17.98439,-10.05035,-42.33059,1008.345
4.981990337,20.31634,-0.2182788,0.0591487,-0.03074294,-0.2645657,0.9076126,17.98439,-10.05035,-42.33059,1008.345
5.014162064,9.197439,2.977712,2.265481,-0.05364117,-0.2141639,0.9458377,17.98516,-8.906948,-42.33617,1008.345
5.046334744,3.361549,0.1368312,2.633204,-0.06774163,-0.2914553,1.047516,17.99594,-10.03898,-41.43803,1008.345
5.080981731,11.90038,-0.09990882,1.46875,-0.0420532,-0.3052084,0.9170231,17.99594,-10.03898,-41.43803,1008.345
5.113150120,15.21762,1.912382,2.939639,-0.06950047,-0.2341341,0.9265411,17.618,-10.03361,-41.4361,1008.345
5.147797585,13.98901,-0.6917589,2.694491,-0.07325802,-0.2393382,1.004617,17.99543,-10.80125,-41.43431,1008.345
5.179970264,5.143031,-0.2182788,1.162315,-0.03309525,-0.2350135,0.9618621,17.99543,-10.80125,-41.43431,1008.347
5.214616776,17.7977,1.616457,3.73637,-0.06158309,-0.2510356,1.005858,17.98336,-11.57488,-42.32314,1008.347
5.246788979,13.25185,0.4327563,1.46875,-0.04270334,-0.248367,0.9864236,18.74476,-11.96107,-41.87887,1008.347
5.281436443,10.97892,2.326677,1.162315,-0.06078871,-0.2279569,0.9149427,18.74476,-11.96107,-41.87887,1008.347
5.313604832,22.34355,2.740972,2.694491,-0.04470705,-0.1947655,1.01243,17.9944,-12.32578,-41.42686,1008.347
5.348252297,6.801652,3.865487,1.959046,-0.06520808,-0.1376074,0.9841728,17.99884,-13.08318,-41.04062,1008.353
5.380424500,18.28914,6.055333,5.636268,-0.07494181,-0.1970141,1.016068,17.99884,-13.08318,-41.04062,1008.353
5.415071011,17.18339,-0.09990882,3.246074,-0.0534386,-0.1395848,1.050081,18.75998,-13.85049,-40.59448,1008.352
5.447243691,-17.9548,2.208307,1.713898,-0.08773892,-0.1679616,0.8727909,18.37105,-14.23682,-41.41949,1008.356
5.481891155,17.12196,6.232888,4.34924,-0.06135537,-0.2865753,0.9920667,18.75343,-14.99958,-41.03518,1008.356
5.514059544,13.559,8.481917,3.1235,-0.09246709,-0.12532,0.9864564,18.75343,-14.99958,-41.03518,1008.358
5.546232224,-17.15621,8.600287,1.713898,-0.1295905,-0.1774685,1.123743,18.75972,-14.23163,-40.59262,1008.356
5.580879211,-5.545861,6.647182,-2.392332,-0.1147698,-0.3059314,1.091215,18.38679,-15.36397,-40.13882,1008.352
5.613050938,-0.01712355,10.49421,-2.208471,-0.174402,-0.2442358,0.9337026,18.38679,-15.36397,-40.13882,1008.356
5.647698402,-4.378683,12.5065,0.85588,-0.0950136,-0.2153112,0.9592283,18.75972,-14.23163,-40.59262,1008.356
5.679871082,-9.907419,17.89234,4.471815,-0.09324344,-0.2068194,0.9915757,19.51668,-13.86042,-40.5346,1008.358
5.714514255,-48.97716,20.73322,3.491222,-0.1478454,-0.2979313,1.100266,19.51668,-13.86042,-40.5346,1008.358
5.746686459,6.125918,16.29434,6.61686,-0.07467538,-0.4922698,1.248847,19.52112,-14.61782,-40.14835,1008.354
5.781363964,31.68097,12.92079,15.50348,-0.1520704,-0.155663,1.167512,20.26704,-13.49571,-40.9866,1008.358
5.813536644,-8.064507,13.57183,14.76803,-0.07152791,-0.3052777,0.9520015,20.26704,-13.49571,-40.9866,1008.358
5.848183632,27.25798,26.11905,16.54536,-0.07096691,-0.3752939,0.9364771,20.27777,-13.48515,-40.1578,1008.358
5.880355358,35.24393,39.3765,17.2808,-0.07490849,-0.3080926,0.8994718,20.27751,-13.86628,-40.15594,1008.358
5.914998531,60.24611,44.99907,19.91615,-0.1391021,-0.3443971,1.059795,20.27751,-13.86628,-40.15594,1008.358
5.947171211,63.99337,44.40722,24.63525,-0.198645,-0.2096387,0.9356601,21.04443,-14.62792,-39.26352,1008.354
5.981818676,81.74676,31.62326,34.62503,-0.3107005,0.146247,1.192207,21.81636,-16.52727,-37.91924,1008.358
6.013990879,64.85339,21.91692,40.07957,-0.2994942,0.03659195,0.9526091,21.81636,-16.52727,-37.91924,1008.358
6.048638344,46.4857,9.724803,36.40235,-0.3473045,0.001169392,0.7970773,22.57596,-19.58139,-37.46194,1008.356
6.080810070,40.8341,10.84932,27.57702,-0.330716,-0.01881702,0.9225596,22.66629,-21.84066,-35.2197,1008.358
6.112978458,38.86833,8.955398,18.44526,-0.2882252,0.1710094,0.8928801,22.66629,-21.84066,-35.2197,1008.356
6.147625923,4.528727,3.628747,11.70368,-0.2863221,0.08874857,0.9268881,22.23455,-24.11064,-34.37747,1008.354
6.179798603,-1.00001,4.575707,9.926359,-0.3243432,0.1552251,0.8998349,21.85064,-25.63468,-34.75062,1008.354
6.214445591,-16.23475,-4.420415,6.984582,-0.3175966,0.1444751,0.8948634,21.85064,-25.63468,-34.75062,1008.352
6.246618271,-39.27116,-7.261295,-4.169656,-0.3000478,0.12938,0.8998772,21.85089,-25.25354,-34.75248,1008.352
6.281264782,-37.67397,-9.391956,-17.6528,-0.2739528,0.06179951,0.9019686,21.09501,-25.24281,-34.74861,1008.35
6.313433170,-63.04472,-17.38193,-32.42297,-0.2907045,0.1477745,0.8994597,21.09501,-25.24281,-34.74861,1008.352
6.348080635,-90.74985,-29.04138,-36.40663,-0.2205532,0.08207202,0.8587395,20.69499,-23.73564,-36.53925,1008.35
6.380252838,-87.98547,-28.39034,-38.12267,-0.2140448,-0.1411068,0.8120129,19.92281,-22.21743,-37.88166,1008.35
6.414900303,-58.43745,-18.86156,-37.87752,-0.2373889,-0.2143458,0.740773,19.92281,-22.21743,-37.88166,1008.35
6.447072029,-45.53706,-12.82469,-39.22583,-0.1820095,-0.02596249,0.9100271,20.2802,-18.4342,-39.68732,1008.349
6.481719494,-54.32161,-16.84927,-31.8101,-0.169252,-0.2668169,1.09301,19.88782,-15.39601,-40.97536,1008.349
6.513887882,-31.22377,-11.75936,-33.58743,-0.148743,-0.3746305,0.9723942,19.88782,-15.39601,-40.97536,1008.347
6.548534870,-35.76962,-3.05916,-33.52614,-0.07292548,-0.40237,0.948804,19.51168,-12.7227,-40.98646,1008.345
6.580707550,-20.28916,-5.78167,-38.18396,-0.09125935,-0.6495996,0.977303,19.50718,-10.82272,-41.44204,1008.345
6.612879276,37.63972,-2.348939,-42.10632,0.03040162,-0.719663,0.9707702,19.50718,-10.82272,-41.44204,1008.345
6.647526741,56.86744,-5.30819,-42.7192,-0.06742159,-0.5114849,0.9015812,19.1245,-9.298502,-41.89383,1008.347
6.679699421,65.83628,-3.473455,-39.89999,0.1031412,-0.5806556,0.7904876,19.1245,-9.298502,-41.89383,1008.347
6.714342594,110.2505,0.5511264,-30.46179,0.09302171,-0.5465261,0.6149336,18.75156,-10.43085,-41.44003,1008.345
6.746514797,118.175,7.120663,-21.82032,0.1328351,-0.3921665,0.5160607,18.75156,-10.43085,-41.44003,1008.345
6.781162262,90.59274,11.08606,-14.52716,0.09700291,-0.4338036,0.5695538,18.76627,-13.08254,-40.15192,1008.343
6.813333988,107.5475,5.581852,-9.379053,-0.08335586,-0.5481493,0.4165362,18.78129,-16.49569,-38.79633,1008.342
6.847981453,78.98239,5.877778,-22.06547,-0.1948217,-0.5902607,0.2967292,18.78129,-16.49569,-38.79633,1008.34
6.880153656,2.870106,-3.355085,-64.4148,-0.04556223,-0.7413784,0.2454087,18.80235,-19.52202,-36.99632,1008.336
6.914796829,-347.529,7.120663,-165.2319,-0.1286799,-0.07988491,-0.3841196,19.56194,-22.57614,-36.53902,1008.336
6.946969509,-571.8115,86.31021,-221.7999,0.2765564,-2.00356,-1.463677,19.56194,-22.57614,-36.53902,1008.336
6.981616974,195.7002,244.3934,-175.7733,0.2890453,-1.490623,-2.665527,20.67022,-17.66593,-38.80042,1008.333
7.013788700,325.0726,389.0415,-164.4965,-0.362535,0.1223884,-2.818705,23.80404,1.063398,-36.23002,1008.327
7.048435688,-90.81127,480.7783,-170.3801,-1.227053,-1.240843,-3.352558,23.80404,1.063398,-36.23002,1008.319
7.080608368,663.7999,648.6862,17.64853,-1.997529,0.4999545,-5.58051,32.24708,-3.181572,-26.11484,1008.298
7.115251541,-2012.416,199.1169,-144.8234,-15.9121,11.83358,6.754928,41.55855,-0.7880991,-7.683648,1008.298
7.147424221,888.7581,-86.56921,271.3768,-2.189844,-1.217338,-0.8606016,41.55855,-0.7880991,-7.683648,1008.312
7.179595947,-74.40936,-91.12646,257.8936,-0.6082932,-0.3337956,1.377078,40.74018,-17.59759,-11.55068,1008.322
7.214243412,299.0876,-125.5129,193.1133,-0.9997634,0.5696573,-0.1754269,35.08219,-25.50462,-10.20751,1008.325
7.246415615,-121.8951,-67.15652,97.93452,0.7576786,-0.6188951,0.5334251,35.08219,-25.50462,-10.20751,1008.333
7.281063080,184.4584,-94.1449,86.78029,0.5346371,-0.9388258,-0.1862745,28.30803,-34.13995,-7.452217,1008.333
7.313231468,395.9633,-54.72768,106.147,0.1685948,0.4107664,-0.2633127,24.89296,-37.15207,-8.312487,1008.332
7.347878933,343.5632,-25.43109,143.4095,-0.1120601,0.7568171,-0.320983,24.89296,-37.15207,-8.312487,1008.336
7.380050659,420.7198,13.80857,133.2971,-0.9562898,1.143142,-0.6805781,21.94086,-40.84827,2.305449,1008.337
7.414697647,507.1524,42.45412,130.9069,0.07304186,1.947698,-0.3567544,16.44846,-41.73653,16.04723,1008.341
7.446870327,303.3263,-59.52166,58.03667,-0.519041,1.925433,0.2771141,16.44846,-41.73653,16.04723,1008.341
7.481517792,281.027,-32.59248,-34.01644,-0.1891975,1.765744,-0.5809012,12.12133,-37.59504,31.92636,1008.344
7.513686180,12.7604,-79.34864,-25.80397,0.2287824,0.282362,-0.7628383,8.83681,-25.62438,40.30166,1008.35
7.548333168,-38.41113,-65.44016,-34.38416,-0.04085588,0.3638057,-0.9495586,8.83681,-25.62438,40.30166,1008.349
7.580505371,-155.6203,-56.79915,-42.53534,-0.1643033,1.071558,-0.7671242,11.10856,-19.55846,40.26028,1008.353
7.615152359,-208.2048,-97.16333,-25.49754,-0.1271591,0.789876,-0.4497454,14.48562,-21.53518,38.46706,1008.356
7.647325039,-118.5778,-95.03267,17.15823,-0.4482982,0.9629529,-0.3050601,14.48562,-21.53518,38.46706,1008.356
7.681972027,-163.7292,-97.57762,24.69653,-0.5591254,1.389664,-0.0527604,17.0546,-25.07606,32.73237,1008.358
7.714140892,-205.0718,-75.02814,15.25833,-0.2523587,0.8799676,-0.1769507,19.62857,-29.75464,27.44955,1008.362
7.746312618,-167.3536,-58.16041,13.84873,-0.1449315,0.7807739,-0.004769057,21.42356,-34.44524,20.38548,1008.365
7.780960083,-146.9587,-36.14358,0.7333059,-0.1286229,0.9194776,0.243006,21.42356,-34.44524,20.38548,1008.365
7.813132286,-128.0995,-22.11673,0.5494449,-0.1829661,0.8126433,0.3901242,22.09128,-37.97063,13.7679,1008.365
7.847779751,-54.93591,-15.01453,7.842601,-0.245626,0.7156147,0.355687,22.02722,-40.00154,8.932182,1008.368
7.879951954,3.361549,-8.622551,10.84566,-0.1887697,0.7919265,0.4063955,22.02722,-40.00154,8.932182,1008.37
7.914594650,65.40627,1.971567,4.042805,-0.1086338,0.8864412,0.3148471,22.37627,-40.03534,6.698845,1008.373
7.946767330,81.43961,9.428878,-4.537378,-0.1921705,0.9467368,0.2751536,22.40464,-40.76918,8.933969,1008.377
7.981414318,85.55544,7.712513,-3.985795,-0.219273,1.02456,0.08999633,22.40464,-40.76918,8.933969,1008.38
8.013586998,71.67216,5.167557,0.917167,-0.2030082,0.9637718,0.02234548,22.44009,-39.59167,11.60607,1008.38
8.048233986,38.8069,3.924672,2.939639,-0.2101759,1.010815,0.07582014,22.47393,-39.55837,14.22,1008.382
8.080406189,18.412,2.859342,2.51063,-0.2012003,1.030326,0.03107128,22.47393,-39.55837,14.22,1008.38
8.115049362,13.98901,3.036897,-0.9214437,-0.2099162,0.9859433,0.06067068,21.73067,-37.94821,15.10868,1008.385
8.147222042,6.125918,1.912382,-2.514906,-0.2066534,0.994975,0.03806072,22.12043,-37.56107,15.99744,1008.389
8.181869030,3.42298,1.734827,-1.473027,-0.2131325,0.9465266,0.04543375,22.12043,-37.56107,15.99744,1008.389
8.214041710,1.518637,-0.6917589,2.388056,-0.2104966,0.9655519,0.05954399,21.75297,-39.13239,16.89969,1008.392
8.246213436,2.562954,-0.4550189,3.429935,-0.1875115,0.9964312,0.05042609,21.74249,-37.55571,15.99938,1008.394
8.280860901,2.071511,0.3735713,1.713898,-0.183647,0.9663947,0.0602644,21.74249,-37.55571,15.99938,1008.392
8.313029289,4.405866,0.7878664,0.4881579,-0.1944832,0.9586197,0.05210742,21.74826,-37.55002,16.44566,1008.393
8.347676277,3.054397,0.3735713,-1.166592,-0.1984671,0.9793599,0.0325536,21.75404,-37.54434,16.89194,1008.397
8.379848957,-0.6928581,-0.4550189,-1.41174,-0.2062366,0.9953914,0.02938427,21.75404,-37.54434,16.89194,1008.397
8.414496422,-7.634495,-0.869314,-1.289166,-0.1969506,0.9832689,0.03690967,22.12565,-38.38118,16.44776,1008.399
8.446668148,-8.371659,-0.5142039,-1.227879,-0.198861,0.9678422,0.04933231,22.50941,-38.31734,16.89179,1008.4
8.481315136,-3.641518,-0.3958339,-1.534314,-0.1973419,0.9606314,0.05938068,22.50941,-38.31734,16.89179,1008.402
8.513484001,-3.580087,0.2552013,-0.8601567,-0.2232942,0.947623,0.0551776,22.12621,-37.55539,16.44373,1008.402
8.548130989,-4.378683,-1.106054,0.4268708,-0.1998073,0.985766,0.04418691,20.99213,-37.92042,16.45139,1008.402
8.580303669,-11.6889,-0.0407238,-0.8601567,-0.2031357,0.9853792,0.05481877,20.99213,-37.92042,16.45139,1008.404
8.614950180,-18.7534,-1.165239,-1.41174,-0.1995703,0.9971037,0.06693214,22.12069,-37.17994,15.99558,1008.404
8.647122860,-17.27907,-1.875459,-1.044018,-0.2127,0.9914082,0.0752017,22.49786,-38.32871,15.99923,1008.406
8.681769848,-21.33348,-0.6325739,-4.9051,-0.1927864,1.003759,0.1160877,22.49786,-38.32871,15.99923,1008.407
8.713938236,-23.29925,2.030751,-1.105305,-0.2660988,1.105048,0.1118228,22.4863,-38.34008,15.10667,1008.407
8.748585701,-40.00832,3.865487,2.142908,-0.1908864,0.9853261,0.11881,21.72408,-39.16082,14.66829,1008.402
8.780757427,-51.6801,7.002293,-7.78559,-0.2088169,0.7955245,0.1675405,22.46293,-38.74395,13.32341,1008.402
8.812930107,-19.30627,-0.5733889,-3.189064,-0.1653577,1.025363,0.2919396,22.46293,-38.74395,13.32341,1008.402
8.847577095,-30.85519,-1.224424,-1.656888,-0.1681163,0.8312119,0.2898828,22.44034,-39.21054,11.60421,1008.402
8.879749775,-7.204482,-1.520349,-2.882628,-0.2076302,0.7550541,0.2703437,22.05637,-39.59198,11.16173,1008.402
8.914392948,29.65377,-9.332771,2.265481,-0.1891415,0.953584,0.2838578,22.05637,-39.59198,11.16173,1008.402
8.946565151,16.93767,-6.61026,6.984582,-0.2261299,1.070436,0.1810544,22.43405,-39.97849,11.16165,1008.402
8.981212139,-10.82888,-14.89616,13.54229,-0.2874157,1.137545,0.3470233,22.43405,-39.97849,11.16165,1008.4
9.013384819,-65.99339,-33.24352,5.574981,-0.2916103,1.115577,0.2649415,22.43405,-39.97849,11.16165,1008.4
9.048031807,-90.4427,-42.18045,1.959046,-0.1512642,1.000132,0.2390622,22.04481,-39.60336,10.26917,1008.4
9.080204487,-88.35406,-28.5679,1.039741,-0.2600629,0.9117548,0.2268168,21.61987,-40.78687,6.706434,1008.4
9.114847660,-80.92097,-28.50871,-10.97252,-0.1672148,0.7769796,0.3072613,21.61987,-40.78687,6.706434,1008.4
9.147019386,-75.88368,-33.77618,-6.804998,-0.1854911,1.065856,0.4317592,21.95216,-41.21803,3.199871,1008.4
9.181666851,-94.31281,-30.22508,-12.9337,-0.2522791,0.9086806,0.3997566,22.65686,-41.27912,-0.7567673,1008.402
9.213839054,-92.03989,-36.97217,-11.64667,-0.1548477,0.9828846,0.5180311,22.65686,-41.27912,-0.7567673,1008.402
9.248486519,-105.4931,-41.70697,-14.8336,-0.1980535,0.7933751,0.462406,22.60485,-41.33029,-4.773293,1008.403
9.280659199,-78.21804,-36.67625,-14.46588,-0.1187276,0.8522241,0.466007,22.93766,-40.99919,-8.283578,1008.403
9.312827110,-104.326,-23.53717,-23.72021,-0.1242473,0.7283191,0.5079349,22.93766,-40.99919,-8.283578,1008.403
9.347474098,-98.92009,-11.75936,-29.29733,-0.1260696,0.6979818,0.5380678,22.8875,-39.52501,-12.24379,1008.402
9.379646778,-91.73273,-7.20211,-29.41991,-0.1387296,0.539497,0.5600153,23.60324,-39.13088,-15.37379,1008.402
9.414293766,-31.96094,7.653328,-30.76822,-0.1774887,0.6626977,0.6500806,23.60324,-39.13088,-15.37379,1008.403
9.446466446,-45.35277,14.69634,-22.3719,-0.1867447,0.796186,0.6454834,24.3796,-36.1373,-18.83561,1008.403
9.481112957,-72.6893,28.95993,-31.31981,-0.2244933,0.5164528,0.4116878,25.51418,-35.01001,-18.84699,1008.403
9.513281345,-69.8635,45.53174,-40.69672,-0.2160555,0.603471,0.5607823,25.51418,-35.01001,-18.84699,1008.403
9.547928810,-57.57742,40.26427,-24.45566,-0.3845202,0.7171039,0.9002087,26.2422,-33.52463,-21.0897,1008.403
9.580101490,-121.9565,43.87456,-46.08998,-0.3998222,0.3517039,0.6495913,28.12741,-31.65149,-21.55496,1008.402
9.614748478,-104.0802,77.49165,-60.36986,-0.4386045,0.1017926,0.568845,28.12741,-31.65149,-21.55496,1008.403
9.646920204,-113.1105,102.3493,-63.0052,-0.4992665,0.6344381,0.9324098,29.63467,-29.77299,-22.01828,1008.403
9.681567669,-288.5558,115.4292,-65.94698,-0.5931562,0.4234066,1.011558,32.65498,-26.01028,-22.49864,1008.403
9.713736057,-152.3031,92.52464,-46.64156,-0.7051772,-0.3328082,0.9388891,32.65498,-26.01028,-22.49864,1008.403
9.748383522,22.28212,64.11583,-35.18089,-0.6955396,-0.1995774,0.9760476,35.67607,-21.10418,-22.98458,1008.407
9.780610084,3.791562,56.00748,-48.48018,-0.4343912,-0.004851621,0.7154184,37.95912,-15.40802,-22.13153,1008.407
9.815257072,-8.433089,62.99131,-53.26056,-0.5098755,-0.143491,0.6267738,39.5121,-14.2463,-19.02089,1008.407
9.847429752,-13.1018,62.51783,-66.98885,-0.5088034,-0.1851074,0.8327166,39.5121,-14.2463,-19.02089,1008.407
9.879601479,8.398844,42.45412,-66.3147,-0.7087474,-0.1086301,0.9282386,41.81404,-12.34036,-16.49162,1008.409
9.914244652,-18.01624,37.66013,-69.25648,-0.5841956,-0.09054531,0.5840419,42.58905,-9.666105,-15.16967,1008.409
9.946417332,54.65594,39.96835,-72.32082,-0.7741055,-0.283103,0.6680943,42.58905,-9.666105,-15.16967,1008.409
9.981064320,47.46859,44.17048,-83.04606,-0.7848535,-0.02870332,0.5435261,44.11969,-7.383724,-13.84973,1008.409
10.013237000,95.20002,37.60094,-83.96536,-0.943908,-0.4253408,0.6815202,45.27816,-5.090289,-12.08157,1008.409
10.047883987,173.2781,34.58251,-93.28099,-0.9096006,0.08653678,0.741814,45.27816,-5.090289,-12.08157,1008.409
10.080056191,87.2755,39.73161,-91.68752,-0.7887494,0.1488305,0.4004262,46.05787,-2.792298,-10.37523,1008.409
10.114699364,111.7862,48.31343,-84.2718,-0.7648217,-0.1969882,0.5115858,45.70459,-0.4773885,-8.599343,1008.406
10.146872044,233.4185,45.76848,-72.9337,-0.8085263,-0.07002901,0.7082502,45.70459,-0.4773885,-8.599343,1008.406
10.181519032,227.214,27.1252,-91.68752,-0.5630438,0.02061209,0.7245407,45.7298,2.657941,-6.829416,1008.406
10.213691711,20.07062,-9.214401,-107.806,-0.446646,0.2926639,1.146001,47.23733,4.917583,-7.294598,1008.406
10.248338223,-46.39709,-12.11447,-116.3249,-0.2414798,-0.09460864,0.7186623,47.23733,4.917583,-7.294598,1008.408
10.280510902,-53.58444,-0.6325739,-110.1349,-0.4904794,0.08673793,0.8492466,45.72788,8.369259,-7.303609,1008.406
10.315154076,-15.3133,-8.740921,-96.16148,-0.6288164,0.002065006,0.9206933,44.60794,11.82693,-6.421992,1008.405
10.347326279,68.96923,-18.03297,-92.66812,-0.8107515,-0.04802355,0.6650723,44.60794,11.82693,-6.421992,1008.405
10.379498482,1.518637,-26.37805,-115.0992,-0.9455221,-0.5303298,0.5982478,43.84962,16.78672,-6.888595,1008.405
10.414145470,204.1161,-19.0983,-110.1349,-1.053878,-0.3010826,0.4849869,42.32862,20.22703,-7.790168,1008.409
10.446318150,136.9113,-37.97832,-96.46791,-0.9190889,0.08396813,0.7172993,42.32862,20.22703,-7.790168,1008.405
10.480965138,144.2829,-29.63323,-85.25239,-0.7095702,-0.2982296,0.5733775,40.38428,23.62803,-12.1963,1008.405
10.513134003,125.0552,-21.58407,-68.03074,-0.7632188,0.3022839,0.8675466,37.68196,25.1333,-16.65301,1008.405
10.547780991,72.04075,-26.08213,-60.30857,-0.7539681,-0.1371586,0.7871995,37.68196,25.1333,-16.65301,1008.403
10.579952717,21.8521,-26.91072,-56.81521,-0.6530303,-0.1425661,0.7804291,35.74846,26.25969,-20.09166,1008.403
10.614600181,6.371639,-17.26356,-42.96434,-0.5751858,-0.1347972,0.516113,33.84142,26.26948,-21.42083,1008.405
10.646772861,13.31328,9.488063,-30.03278,-0.6970413,-0.05096199,0.6090392,33.84142,26.26948,-21.42083,1008.405
10.681419849,-29.93373,18.78011,-17.46894,-1.084808,-0.1243745,0.784126,31.56377,28.57712,-22.31295,1008.405
10.713588238,-13.96183,9.724803,-19.67527,-0.6592649,-0.4388255,0.8787827,30.42443,28.96867,-22.75529,1008.405
10.748234749,-18.38482,21.14751,-13.36271,-0.3285586,-0.2553646,0.7128476,30.42443,28.96867,-22.75529,1008.406
10.780407429,10.97892,42.69086,-5.701831,-0.4229512,-0.3915286,0.8702196,30.826,29.74831,-20.97582,1008.406
10.815054893,14.23473,59.32185,1.346176,-0.5550939,-0.24128,0.6938695,30.44857,30.51595,-20.97761,1008.405
10.847227097,12.39182,68.02204,3.613796,-0.5594586,-0.1010356,0.6873544,30.44857,30.51595,-20.97761,1008.405
10.881874561,-0.9385797,73.05276,4.594388,-0.5904399,-0.2099022,0.71181,31.59999,30.89803,-19.64643,1008.405
10.914042473,-29.56515,62.57702,2.449343,-0.7839932,-0.2010013,0.6712735,32.76161,30.5284,-17.48273,1008.405
10.946215153,-15.37473,49.97061,-1.41174,-0.7965783,-0.3057047,0.6179898,32.76161,30.5284,-17.48273,1008.405
10.980862141,-30.05659,33.93147,-6.498563,-0.7930825,-0.2060337,0.5792549,34.29565,30.52885,-15.76909,1008.405
11.013034821,-21.70206,20.7924,-9.379053,-0.900061,-0.540677,0.6705202,34.69619,29.78396,-13.98218,1008.405
11.047681808,5.388753,11.44117,-14.58845,-0.7424042,0.02523987,0.5165827,35.09224,30.93905,-12.65086,1008.405
11.079853535,-38.77971,3.510377,-18.26567,-0.545911,-0.3539289,0.5053574,35.09224,30.93905,-12.65086,1008.405
11.114497185,24.43218,9.251323,-16.85607,-0.8046393,-0.3102481,0.5900716,35.4644,30.92799,-13.09907,1008.405
11.146669388,-25.44931,-1.401979,-21.20745,-0.7706016,-0.1021851,0.5909873,34.72111,32.47464,-12.21008,1008.405
11.181316853,4.221575,-1.165239,-16.79478,-0.7572145,-0.5936239,0.505353,34.72111,32.47464,-12.21008,1008.405
11.213489056,6.924513,1.320531,-13.424,-0.7483608,-0.1914989,0.6676453,33.97127,32.87219,-11.7618,1008.405
11.248136044,-12.97894,5.818593,-10.29836,-0.746721,-0.4707371,0.649422,33.21564,33.26406,-11.75979,1008.405
11.280308247,5.265892,12.32894,-3.25035,-0.7797144,-0.3635305,0.6202477,33.21564,33.26406,-11.75979,1008.408
11.314951420,-7.327343,15.16982,-1.473027,-0.7577428,-0.3926429,0.6357087,33.5941,34.02096,-11.76545,1008.408
11.347124100,15.34048,16.59027,6.00399,-0.6494763,-0.335661,0.5416603,33.97673,33.63933,-11.38299,1008.408
11.381771565,-4.255822,13.21672,10.78438,-0.7778712,-0.3447799,0.5982131,33.97673,33.63933,-11.38299,1008.408
11.413943291,-4.870126,12.03302,16.11635,-0.7459965,-0.4322477,0.5427286,33.98277,34.02615,-10.93857,1008.406
11.446115971,8.767426,10.31665,26.65772,-0.8313817,-0.334651,0.555416,34.36623,33.64533,-10.49237,1008.406
11.480762959,13.559,13.6902,34.50245,-0.7528403,-0.3974449,0.5826035,34.36623,33.64533,-10.49237,1008.406
11.512931347,25.10792,2.149122,41.97947,-0.8370153,-0.2952132,0.5047017,35.12185,33.25346,-10.49437,1008.406
11.547578812,5.880196,-5.367375,44.73739,-0.8283771,-0.2867226,0.5413231,35.49927,32.48582,-10.49259,1008.406
11.579750538,16.50766,-16.96764,54.66589,-0.7949549,-0.2392806,0.5467043,35.49927,32.48582,-10.49259,1008.406
11.614398003,3.791562,-20.93303,57.60766,-0.8696349,-0.3370523,0.5340632,37.74938,30.91284,-11.77183,1008.406
11.646570206,37.45543,-26.43724,65.88141,-0.6594841,-0.1023863,0.5735608,38.48637,28.59824,-13.10338,1008.406
11.681217670,21.66781,-16.61253,71.64239,-0.9134162,-0.2845577,0.6414263,38.48637,28.59824,-13.10338,1008.406
11.713386059,77.56949,-26.2005,82.18376,-0.7313907,0.01089466,0.6146896,39.99107,26.66542,-13.54809,1008.406
11.748032570,74.19082,-14.95535,81.26445,-0.8530634,-0.158382,0.6775714,41.09998,23.95864,-15.32599,1008.404
11.780205250,154.6032,-10.8124,90.27364,-0.7446465,0.1201365,0.6104119,41.09998,23.95864,-15.32599,1008.404
11.814852238,118.3593,4.279782,103.6342,-0.989604,-0.1591399,0.806087,41.82522,20.10895,-17.4789,1008.4
11.847024918,188.4514,1.438902,108.0469,-0.9245849,0.2411503,0.4516187,42.54995,15.497,-19.62809,1008.402
11.881672382,204.7305,-1.401979,120.9784,-1.242023,0.08713059,0.7304607,42.54995,15.497,-19.62809,1008.402
11.913839817,250.5575,-21.99836,94.07344,-1.020078,0.3927509,0.2223998,44.04,8.979206,-20.94303,1008.404
11.948487282,163.8792,-55.61545,30.5188,-1.08928,0.6815339,0.6168099,44.02304,0.9640317,-21.79652,1008.404
11.980659962,99.99159,-97.63681,-24.76209,-1.060398,0.8067179,0.5669625,44.02304,0.9640317,-21.79652,1008.404
12.012832165,22.71213,-121.1333,-84.21051,-1.389751,1.20291,0.497146,43.25697,-5.573708,-22.20699,1008.404
12.047479630,-373.3297,-102.2532,-180.4311,-1.322739,1.451315,-0.4181944,40.94842,-7.486145,-25.24629,1008.404
12.079651356,-365.5281,-26.31887,-284.9868,-1.143399,-0.07422646,-0.871064,40.94842,-7.486145,-25.24629,1008.404
12.114294529,-212.7506,68.37715,-258.5108,-1.229295,0.4871679,-0.4462949,39.02085,-3.687763,-28.37919,1008.402
12.146467209,-190.82,114.4231,-196.427,-0.8377932,0.3715166,-0.0850638,36.04939,13.60951,-25.3238,1008.402
12.181114197,-227.924,129.3377,-118.1022,-0.8655268,0.4224294,0.0163526,32.38058,25.96017,-17.45846,1008.4
12.213286400,-177.9196,126.3785,-59.51184,-0.6654323,-0.3381612,0.2699409,32.38058,25.96017,-17.45846,1008.398
12.247933388,-353.4263,98.73907,-8.459748,-0.1103834,0.3296755,0.4341472,29.86485,32.60046,-7.785893,1008.397
12.280106068,-422.5355,54.58704,44.12452,0.5820501,-0.8309346,0.9328934,27.73629,35.81655,2.794048,1008.399
12.314749241,-127.6695,29.31504,117.4238,0.8117844,-0.4238955,0.4897019,27.73629,35.81655,2.794048,1008.393
12.346921921,721.1759,4.161412,131.765,0.3980676,-1.66277,0.6375887,29.00559,33.64846,13.38264,1008.393
12.381568909,-449.7492,-92.90201,6.800721,-1.091473,-2.147512,0.3886577,31.225,29.37911,9.885014,1008.397
12.413741112,61.41329,-79.46701,18.75169,-1.616319,0.2811126,0.4044188,31.225,29.37911,9.885014,1008.393
12.448388100,-27.0465,-45.31726,-11.46281,-1.806363,-0.5169935,0.0101569,33.11419,28.59,9.879065,1008.393
12.480560780,-60.03464,-31.46797,-23.16863,-0.9848969,-0.6195669,0.8340593,33.85247,28.18108,8.538216,1008.395
12.512732983,-46.51995,-19.15748,-37.93881,-0.9839268,-0.2646374,0.6615284,33.85247,28.18108,8.538216,1008.395
12.547375679,-8.433089,-7.498035,-45.90612,-0.8342407,-0.6271682,0.007889708,33.48005,27.811,8.988293,1008.395
12.579548359,11.77752,5.581852,-31.38109,-0.8059016,-0.1688531,-0.2098341,33.10263,28.57863,8.986504,1008.395
12.614195347,15.15619,-1.816274,-35.1196,-1.014832,-0.3898385,0.6448787,33.10263,28.57863,8.986504,1008.395
12.646368027,-65.37908,-28.98219,-32.97456,-0.7063232,-0.2362418,0.1164408,31.96328,28.97019,8.544163,1008.395
12.681015015,56.74458,-6.49189,-35.42604,-0.7708744,-0.5580277,0.1399363,31.59215,30.50577,8.984936,1008.401
12.713187218,-70.90782,-17.26356,-32.66812,-0.7860078,-0.7282861,0.3960616,31.59215,30.50577,8.984936,1008.401
12.747830391,45.93283,-3.710195,-34.2003,-0.9427797,-0.5109461,0.2180844,29.32503,31.30025,8.992817,1008.397
12.780003071,-51.00437,-11.34506,-43.08692,-1.203885,-1.02501,0.2317068,29.32503,31.30025,8.992817,1008.397
12.814650059,-53.21586,-8.504181,-40.51286,-0.9159444,-0.6507601,0.1689634,29.32503,31.30025,8.992817,1008.397
12.846822739,18.96487,5.581852,-44.25137,-1.074395,-1.066563,0.213768,27.80826,32.45944,8.548689,1008.397
12.881469250,-11.50461,10.49421,-42.35147,-1.169961,-0.9761823,0.3542207,27.82034,33.23308,9.437529,1008.397
12.913641930,1.887219,24.52106,-65.51797,-1.124669,-1.45991,0.3449902,27.82034,33.23308,9.437529,1008.397
12.948285103,46.30141,50.85839,-102.7805,-1.296698,-1.051825,-0.3474936,26.31461,33.64137,9.889685,1008.397
12.980457306,89.11841,55.65237,-130.1145,-1.440145,-0.1520662,0.6146575,23.9795,35.57446,9.446026,1008.397
13.015104771,-240.3329,66.24649,-235.9572,-1.513597,-1.400877,0.259454,23.9795,35.57446,9.446026,1008.395
13.047276497,-153.8389,117.6783,-282.9644,-1.368479,-1.863385,-0.01804274,20.56251,38.27365,8.111565,1008.395
13.079449177,-90.68842,157.7465,-322.0042,-1.113499,-1.49126,0.06313977,13.10792,40.00708,16.11209,1008.393
13.114096165,-177.7967,189.2921,-330.9521,-0.7315791,-1.245697,-0.1360193,1.059253,40.22354,19.68047,1008.39
13.146265030,-275.0411,225.7501,-299.6957,-0.1385097,-0.4412756,0.01498033,1.059253,40.22354,19.68047,1008.386
13.180911541,-363.6237,235.2789,-224.7417,0.3716899,-0.6155114,-0.2211305,-13.63808,35.90397,23.28471,1008.383
13.213083744,-258.5777,255.9345,-141.3913,0.3047884,-0.2568221,-0.5163889,-25.76767,25.43903,26.0767,1008.379
13.247731209,-187.0113,252.4426,-69.19519,0.376227,-0.3982789,-0.3090339,-25.76767,25.43903,26.0767,1008.379
13.279903889,-70.60067,215.0376,-8.337173,0.5536647,0.1556497,0.3874743,-34.5247,14.4536,21.77609,1008.376
13.314550877,-132.3382,158.3976,9.803785,0.091984,-0.2574405,0.5257466,-40.27746,9.11948,15.64698,1008.374
13.346718788,-60.95609,100.8697,18.75169,0.8826419,-0.4312243,0.2142406,-40.27746,9.11948,15.64698,1008.37
13.381365776,-27.29223,92.05116,44.61481,0.440186,-0.09849526,-0.1018275,-42.61464,7.55975,10.37441,1008.369
13.413538456,-18.1391,71.27721,58.71083,0.5324736,-0.1502722,0.1041443,-43.79443,7.91151,6.808104,1008.369
13.448185921,-27.29223,50.7992,62.87834,0.7358209,-0.1230327,-0.4499,-43.79443,7.91151,6.808104,1008.361
13.480357647,-43.63272,68.79145,70.11021,0.6146459,-0.1018515,-0.3618348,-43.44327,9.784197,4.629217,1008.357
13.515004635,-93.39135,44.64396,69.06834,0.3873514,-0.3884943,0.02304062,-43.45906,12.05394,3.279211,1008.354
13.547173500,-87.49403,26.59253,58.40439,0.541863,-0.5302944,-0.4533756,-43.45906,12.05394,3.279211,1008.352
13.581820488,-79.07806,25.11291,46.94372,0.5346044,-0.5100046,-0.2815488,-42.71294,14.69977,2.369757,1008.35
13.613993168,-78.64806,22.98225,35.85077,0.5643842,-0.7086641,-0.5326582,-41.95525,17.35697,2.352863,1008.35
13.646164894,-50.39006,32.27429,26.29,0.5287952,-0.6664599,-0.4326863,-41.95525,17.35697,2.352863,1008.349
13.680812359,-65.6248,35.47028,18.44526,0.5257213,-0.6911654,-0.5543251,-41.57102,18.11955,2.793489,1008.347
13.712984562,-67.59058,34.58251,24.02238,0.3930724,-0.5084218,-0.1674273,-41.19257,18.87645,2.787834,1008.341
13.747628212,-101.0087,-2.230569,29.04791,0.2885559,-0.8652264,-0.1790335,-41.19257,18.87645,2.787834,1008.339
13.779800415,-32.39095,-20.22281,29.41563,0.2403446,-0.8541448,-0.3467101,-40.43014,20.0148,3.224665,1008.339
13.814446926,-24.83501,-36.32114,11.39725,0.4823752,-0.935037,-0.4841132,-39.65641,20.78338,4.555918,1008.339
13.846619606,14.66475,-40.28653,-4.230943,0.6188253,-0.7196942,-0.6691809,-39.65641,20.78338,4.555918,1008.339
13.881266594,-50.82008,-22.2351,-18.26567,0.8038911,-0.638859,-0.5786615,-39.25567,21.56221,6.271631,1008.339
13.913439274,-14.33041,-7.498035,-24.57823,0.84396,-0.9241653,-0.6667013,-38.86065,21.19276,7.610397,1008.339
13.948082447,1.272915,-6.13678,-28.43932,0.602018,-0.4367352,-0.3668877,-38.86065,21.19276,7.610397,1008.339
13.980254650,-25.08073,-17.55949,-31.87139,0.5925224,-0.5688696,-0.3876504,-39.22755,20.44723,8.508615,1008.339
14.014901638,-24.09785,-23.4188,-30.21664,0.4670414,-0.4473775,-0.5122438,-39.60023,19.69602,8.96055,1008.339
14.047074318,-17.52479,-14.30431,-31.44238,0.7034759,-0.4032809,-0.6210904,-39.60023,19.69602,8.96055,1008.336
14.081721306,-31.77665,-3.710195,-33.46486,0.6828629,-0.4715063,-0.5438585,-39.97316,18.56367,9.414349,1008.336
14.113893509,-33.12812,-2.171384,-35.6099,0.7447637,-0.3838723,-0.5952876,-39.95686,17.05619,10.76063,1008.336
14.146061897,-25.94076,0.7878664,-36.40663,0.7351857,-0.2994801,-0.6725864,-39.95686,17.05619,10.76063,1008.336
14.180708885,-36.19964,6.706367,-38.49039,0.7136483,-0.4135554,-0.6251259,-40.33004,15.54271,11.21629,1008.334
14.212881565,-27.96796,-2.467309,-35.05832,0.7695007,-0.3275181,-0.6986838,-40.70272,14.7915,11.66823,1008.334
14.247529030,-37.12109,0.6103114,-28.86833,0.8073168,-0.3491718,-0.775853,-41.83261,13.28794,12.064,1008.334
14.279700756,-31.22377,-0.6325739,-27.27486,0.8513802,-0.4135738,-0.7276312,-41.83261,13.28794,12.064,1008.332
14.314347744,-33.68099,-7.379665,-21.88161,0.884712,-0.3376461,-0.8049182,-41.82864,10.62569,12.5233,1008.332
14.346516609,-27.41509,-11.9961,-23.41378,0.8391562,-0.4854374,-0.9281393,-42.21287,9.86311,12.08268,1008.332
14.381163597,8.951717,-15.84312,-30.64565,0.9447617,-0.5215271,-0.9453283,-42.21287,9.86311,12.08268,1008.328
14.413335323,14.05044,-21.0514,-29.54248,0.8785173,-0.4011979,-0.9307042,-41.81811,9.112529,13.42331,1008.334
14.447982788,-3.88724,-23.18206,-20.77844,0.8957983,-0.4223394,-0.9546577,-41.81285,8.355947,13.87331,1008.332
14.480155468,-10.95174,-18.50645,-3.372925,0.7701088,-0.5332247,-0.8753511,-41.81285,8.355947,13.87331,1008.332
14.514802456,24.86219,-24.78006,19.42585,0.6525515,-0.4896329,-0.7741209,-42.18578,7.223599,14.3271,1008.332
14.546970368,43.6599,-27.14746,29.04791,0.6982877,-0.5711861,-0.80896,-41.80181,7.60505,14.76959,1008.332
14.581617832,76.95518,-28.74545,30.39622,0.6093115,-0.5414311,-0.7842665,-41.80181,7.60505,14.76959,1008.33
14.613790035,106.2575,-25.90457,30.82524,0.6107015,-0.4384681,-0.9010384,-41.02782,8.754768,16.09898,1008.33
14.648437500,103.6774,-11.75936,31.86712,0.6137955,-0.3286363,-0.8182219,-41.41025,10.66012,15.64533,1008.328
14.680609703,87.02977,-2.58568,31.4381,0.5354396,-0.3208004,-0.7967002,-41.41025,10.66012,15.64533,1008.328
14.747425079,56.56029,10.1391,17.03565,0.331677,-0.4534994,-0.764081,-39.91248,15.57632,14.27456,1008.325
14.779597759,49.61865,12.97998,6.61686,0.3942895,-0.5875105,-0.8559039,-39.91248,15.57632,14.27456,1008.321
14.814244747,49.06578,14.75553,-5.517971,0.371274,-0.6600044,-0.8302588,-39.92905,16.70267,12.93014,1008.32
14.846416473,62.33475,16.76782,-14.15944,0.4224135,-0.6241195,-0.8015201,-39.56189,17.82933,12.03006,1008.32
14.881063938,47.03857,16.76782,-16.30449,0.4547661,-0.5473348,-0.7052711,-39.56189,17.82933,12.03006,1008.318
14.913236141,28.48659,19.84544,-17.71409,0.4571058,-0.7287392,-0.6875085,-40.71826,17.44238,10.31636,1008.312
14.947879791,55.02453,21.50262,-10.91123,0.4968696,-0.5992736,-0.4896744,-41.10749,17.81751,9.423872,1008.31
14.980051994,30.82094,22.56795,-3.127776,0.5427641,-0.6478373,-0.463511,-41.10749,17.81751,9.423872,1008.309
15.014698505,63.68622,27.42112,8.516757,0.5457153,-0.6890088,-0.3245802,-41.49147,17.43606,8.981384,1008.305
15.046871185,90.46987,22.92306,19.671,0.5015635,-0.5958226,-0.1648221,-42.27046,17.42406,7.20013,1008.305
15.081518650,90.83846,12.80242,29.96722,0.4798003,-0.558821,-0.1011721,-42.27046,17.42406,7.20013,1008.302
15.113690853,113.1991,13.2759,34.7476,0.439846,-0.6015294,-0.1893572,-41.91982,18.53448,5.024965,1008.3
15.148334026,128.0653,19.6087,35.2379,0.4945099,-0.4196745,0.01407168,-41.94189,20.03627,3.232399,1008.298
15.180506229,128.741,10.25747,37.19908,0.4203896,-0.4131192,0.2500331,-41.94189,20.03627,3.232399,1008.296
15.215153217,119.7108,-17.38193,48.59847,0.3260709,-0.2282384,0.4351151,-41.60281,21.13532,0.1646748,1008.296
15.247325897,100.6059,-52.95213,66.73943,0.2298467,-0.234612,0.4277665,-41.25876,22.23925,-2.520526,1008.294
15.279497624,114.7963,-85.74062,94.31859,0.2262407,-0.2371484,0.3482493,-41.25876,22.23925,-2.520526,1008.294
15.314145088,134.024,-108.9411,132.9294,0.2336578,-0.2346412,0.3004828,-40.12392,23.74767,-2.533771,1008.293
15.346313477,129.6625,-123.2047,173.0111,0.1853982,-0.1449312,0.3214347,-37.8487,26.38908,-2.112118,1008.287
15.380960465,88.25838,-129.5967,211.8671,0.07730982,-0.1634371,0.2437248,-34.81709,29.78202,-1.698055,1008.285
15.413133144,-22.80781,-124.8619,221.0602,-0.1834145,-0.3679674,-0.1377541,-34.81709,29.78202,-1.698055,1008.285
15.447779656,-81.1667,-115.8066,226.576,-0.1052885,-0.6506795,-0.05357193,-29.49948,34.68434,0.03580284,1008.284
15.479952335,-95.97143,-106.988,219.957,-0.3036827,-1.031251,-0.249586,-21.5027,39.20124,4.371914,1008.282
15.514599323,-185.3527,-80.11805,182.6945,-0.4350705,-0.6999075,-0.4818081,-21.5027,39.20124,4.371914,1008.282
15.546768189,-167.2307,-66.8606,144.8804,-0.3450386,-1.489838,-0.7682382,-13.80483,41.834,10.05778,1008.28
15.581415176,-78.27947,-46.08666,124.6557,-0.4957084,-1.146353,-0.5712007,-6.160966,40.66769,16.65514,1008.28
15.613587379,-46.8271,-33.48026,107.434,-0.487938,-1.12314,-0.7031497,-6.160966,40.66769,16.65514,1008.28
15.648234367,-29.99516,-18.50645,93.58315,-0.8088707,-1.028101,-0.6704516,-0.8256989,38.73153,20.14386,1008.282
15.680407047,-16.17332,-18.74319,75.19704,-1.018607,-1.036155,-0.654101,2.208346,37.17542,21.02839,1008.284
15.715054035,-32.20666,-17.73704,56.56578,-1.108231,-0.8519505,-0.4907583,2.208346,37.17542,21.02839,1008.287
15.747221947,-39.88546,-18.56563,37.32166,-1.121429,-0.7310876,-0.4356548,4.853152,35.99443,21.02044,1008.289
15.779394627,-71.46069,-9.273586,26.96415,-1.050054,-0.6340906,-0.525655,5.997239,34.08404,21.9165,1008.289
15.814041614,-59.97321,8.481917,30.70266,-1.036522,-0.6399688,-0.7128456,5.997239,34.08404,21.9165,1008.289
15.846214294,5.695905,28.19053,42.10205,-0.964168,-0.6479081,-0.7516641,6.401958,32.20061,24.09152,1008.291
15.880860805,-12.61036,19.66789,25.24812,-1.220977,-0.8486181,-0.3200149,6.784648,30.67639,24.54331,1008.292
15.913033485,48.45147,-7.32048,20.28387,-1.31444,-0.472174,0.222836,6.784648,30.67639,24.54331,1008.294
15.947676659,20.37777,-20.45955,-3.618073,-1.19329,-0.7433085,0.1365664,7.16233,30.28989,24.54324,1008.294
15.979849339,-39.39402,-5.012265,-20.10428,-1.030409,-0.743881,-0.3994956,7.150773,30.27852,23.65068,1008.298
16.014495850,-39.51688,47.72158,-27.82645,-0.8920621,-0.9427176,-0.8555053,7.150773,30.27852,23.65068,1008.299
16.046668053,49.49579,88.67761,-19.00112,-0.8940204,-1.031095,-0.9878014,6.778613,30.28957,24.09889,1008.301
16.081315517,50.97012,135.493,-21.4526,-0.9633198,-0.8056353,-0.7486343,6.022475,29.91918,24.10462,1008.299
16.113488197,96.67435,160.8241,-8.2146,-0.7053333,-0.9592774,-0.8684701,6.022475,29.91918,24.10462,1008.299
16.148131371,62.27332,189.9432,-2.453619,-0.6553279,-0.9675362,-0.8371928,3.371634,30.71334,23.66816,1008.301
16.180303097,65.34483,196.3943,-7.295294,-0.54245,-0.9684421,-0.8189736,1.071698,32.99905,21.05466,1008.302
16.214950085,104.2303,173.3122,-21.39131,-0.4797428,-1.050328,-0.634182,1.071698,32.99905,21.05466,1008.304
16.247122765,101.1588,141.5298,-41.92246,-0.450303,-0.9030638,-0.3377769,-1.979681,34.53811,18.83129,1008.304
16.281781197,90.77703,116.9089,-58.46996,-0.3363061,-0.8718918,-0.3761796,-4.669114,36.81783,15.32717,1008.304
16.313953400,83.22108,105.0719,-62.69876,-0.3132348,-0.9077038,-0.2846283,-4.669114,36.81783,15.32717,1008.304
16.346121788,105.1517,91.10419,-66.37598,-0.2327692,-0.8573402,-0.3736518,-6.98169,38.71022,11.75923,1008.304
16.380768776,67.86348,80.09579,-61.1053,-0.151337,-0.7375055,-0.2649738,-9.677929,39.45972,7.816271,1008.306
16.412940979,45.80996,80.4509,-55.34432,-0.0731001,-0.8509051,-0.1914468,-9.677929,39.45972,7.816271,1008.304
16.447587967,41.14125,71.21803,-48.66404,-0.07386177,-0.7007615,-0.2967238,-12.74081,39.84482,4.769672,1008.304
16.479760647,39.17548,56.65852,-35.36475,-0.0007671433,-0.9073326,-0.03497311,-15.03708,40.22974,2.548012,1008.304
16.514407635,93.60283,51.09513,-7.724303,0.06976068,-0.6007161,-0.3854451,-17.01814,40.99132,0.3228779,1008.298
16.546575546,72.3479,33.69473,6.065277,0.1769529,-0.7847107,-0.2583043,-17.01814,40.99132,0.3228779,1008.297
16.581223011,92.68137,39.02139,18.38397,0.2239964,-0.3462801,-0.2729627,-18.2034,40.57594,-3.622231,1008.295
16.613395691,27.68799,37.24583,34.50245,0.3345236,-0.5770848,-0.4233887,-17.50422,40.8903,-8.02701,1008.293
16.648042679,8.337414,36.5948,39.957,0.3288387,-0.6973089,-0.3447969,-17.50422,40.8903,-8.02701,1008.291
16.680215359,7.661678,47.18892,41.06017,0.3124801,-0.5340142,-0.4541579,-16.00401,40.85745,-8.927307,1008.291
16.714861870,-27.8451,55.82993,37.50552,0.3143964,-0.7241364,-0.3082513,-14.81825,41.59135,-9.829714,1008.291
16.747030258,3.300119,51.09513,37.99582,0.2398328,-0.3553449,-0.2423373,-14.81825,41.59135,-9.829714,1008.289
16.781677723,-56.22595,56.30341,25.37069,0.2020852,-0.4237947,-0.5201811,-12.55613,41.93459,-10.28946,1008.288
16.813849926,-69.67921,73.58543,20.40644,0.1792648,-1.880121,-0.4987162,-10.26457,43.13204,-8.521832,1008.284
16.846022129,229.5483,40.85612,24.14495,0.09612765,-0.9472553,0.07465351,-10.26457,43.13204,-8.521832,1008.284
16.880669117,150.7946,16.0576,19.1807,0.1659713,-0.3203601,0.5336955,-8.763592,44.2426,-9.42771,1008.284
16.912841797,199.6932,4.102227,14.52289,0.131583,-1.971855,-0.8441392,-6.599081,42.96629,-17.33927,1008.284
16.947484970,403.6421,33.28044,16.23892,0.107992,-0.6570708,0.01041918,-6.599081,42.96629,-17.33927,1008.284
16.979656696,108.8376,37.7785,2.08162,0.00883012,-0.4611596,0.4269971,-6.318531,41.65897,-24.79458,1008.286
17.014304161,65.09911,48.55017,6.432999,-0.02898989,-1.118363,-0.03934152,-4.537158,33.90795,-32.73633,1008.286
17.046476364,122.598,54.46867,15.19704,-0.3851809,-1.344985,0.3669934,-4.537158,33.90795,-32.73633,1008.286
17.081123829,40.71124,27.59868,-2.698767,-0.5322261,-0.8930824,0.6526147,-3.450797,30.7981,-36.23373,1008.288
17.113295555,30.26807,5.049187,-14.09815,-0.5920608,-1.290812,0.4609503,-0.8356524,28.4453,-38.46751,1008.282
17.147938728,82.60678,-0.0407238,-9.072618,-0.702085,-0.9071509,0.4810458,-0.8356524,28.4453,-38.46751,1008.282
17.180111408,91.45276,-7.32048,-3.25035,-0.8520429,-0.9003632,0.6352949,-0.4758196,27.27948,-39.8027,1008.282
17.214758396,149.8731,-6.195965,-6.498563,-0.8117183,-0.9050045,0.4999205,0.2504511,24.95432,-41.96305,1008.282
17.246930599,151.1631,13.03916,-7.846877,-0.8121119,-0.6598215,0.5086935,0.2504511,24.95432,-41.96305,1008.282
17.281577587,172.9095,8.304362,-17.10122,-0.9884918,-0.568938,0.7882382,0.2187328,20.73343,-44.17399,1008.282
17.313750267,151.9003,-2.171384,-48.60275,-1.022867,-0.07122418,1.044748,0.1755104,15.35858,-47.20815,1008.282
17.348393440,29.46947,-18.684,-77.46893,-0.8151504,-0.331008,0.9755981,0.1755104,15.35858,-47.20815,1008.28
17.380565167,42.30843,-6.965371,-75.7529,-0.7133083,-0.1575276,0.8155721,0.1472521,7.713171,-48.95605,1008.28
17.412737846,57.05173,8.600287,-55.09917,-0.5660838,-0.127931,0.7831124,-0.2317171,6.194006,-48.94668,1008.28
17.447385311,77.32377,24.16595,-28.74575,-0.4679489,0.06933057,0.809369,-0.2317171,6.194006,-48.94668,1008.278
17.479557514,43.90562,40.61938,-0.9827307,-0.3987245,0.08008143,0.7374758,-0.9836187,3.542494,-48.48351,1008.279
17.514204025,87.8898,57.42793,37.62809,-0.3869325,-0.06832221,0.7607242,-0.6133013,0.7999836,-48.91838,1008.279
17.546372891,100.6059,70.33025,72.5617,-0.4089619,0.1932223,0.8001999,1.280374,-1.889108,-48.46875,1008.279
17.581019878,55.20882,79.14883,108.1082,-0.4209443,0.1074801,0.7514049,1.280374,-1.889108,-48.46875,1008.279
17.613192558,54.41022,68.61389,135.626,-0.6103492,-0.07981992,0.951176,3.557252,-5.340151,-47.57104,1008.279
17.647839069,25.84508,67.07508,152.909,-0.5990638,-0.02856144,0.9336593,6.212586,-8.034296,-46.67899,1008.278
17.680011749,-65.0105,72.81602,163.0213,-0.8199662,-0.1093015,0.6434452,6.212586,-8.034296,-46.67899,1008.278
17.714658737,-63.53617,57.132,160.2021,-0.9149264,-0.4514238,0.7167026,6.221259,-11.07281,-45.8353,1008.276
17.746827125,-47.25711,60.26881,150.9478,-0.8710611,-0.3366018,0.65458,8.478938,-9.972174,-46.68129,1008.276
17.781473637,-81.96529,62.6362,137.6485,-0.8509675,-0.3132997,0.4791369,8.478938,-9.972174,-46.68129,1008.274
17.813646316,-83.3782,61.15658,129.4361,-0.7240434,-0.3139632,0.6008569,9.624259,-8.834322,-45.86387,1008.272
17.848293781,-99.78011,71.45477,126.433,-0.7349375,-0.2129504,0.4750254,10.76488,-7.320208,-45.43083,1008.271
17.880465984,-146.7129,70.80373,120.5494,-0.7138398,-0.2908056,0.5262427,10.76488,-7.320208,-45.43083,1008.271
17.912638187,-163.5449,72.34254,118.4657,-0.7570501,-0.3275862,0.5123647,12.2787,-4.292614,-45.45346,1008.271
17.947281361,-172.1451,59.55859,107.1889,-0.8094985,-0.5982626,0.4995366,14.55443,-0.8889387,-45.03552,1008.265
17.979454041,-142.6585,41.3296,90.76394,-0.7328457,-0.5706739,0.6648566,14.55443,-0.8889387,-45.03552,1008.263
18.014101028,-139.8327,20.08218,69.86507,-0.7125698,-0.4810693,0.6533561,17.23832,4.506982,-42.39774,1008.265
18.046272755,-153.7774,3.747117,57.11737,-0.6667385,-0.3957046,0.5490384,18.3923,8.700399,-41.08517,1008.265
18.080920219,-175.7695,-15.07372,43.75679,-0.6057151,-0.451596,0.5788562,18.3923,8.700399,-41.08517,1008.267
18.113092423,-169.135,-22.11673,33.03157,-0.6381203,-0.5724332,0.4976684,19.55702,12.90438,-38.94379,1008.267
18.147736073,-152.5488,-26.31887,28.00603,-0.6491241,-0.5590836,0.4593212,19.59529,18.27435,-36.29216,1008.267
18.179907799,-142.9657,-27.73931,22.55149,-0.6589912,-0.5910482,0.4620417,19.59529,18.27435,-36.29216,1008.268
18.214554787,-149.0473,-25.90457,16.05506,-0.6895912,-0.570455,0.469245,18.8703,22.50517,-34.14111,1008.27
18.246727467,-153.1631,-28.74545,10.17151,-0.7755091,-0.6140239,0.4287176,18.91936,26.74312,-30.59133,1008.272
18.281409264,-157.709,-31.94145,4.533102,-0.704025,-0.5836602,0.3839569,18.91936,26.74312,-30.59133,1008.272
18.313581944,-155.006,-30.52101,5.758842,-0.7648186,-0.5676587,0.3427221,18.21697,30.23441,-26.65144,1008.274
18.348225117,-164.0977,-29.69242,7.413591,-0.769094,-0.6095639,0.3187986,17.50963,33.72083,-23.09407,1008.275
18.380396843,-166.6778,-23.30043,10.47794,-0.7835369,-0.6837071,0.2619282,17.50963,33.72083,-23.09407,1008.279
18.415044308,-151.6888,-19.21667,20.77416,-0.9023162,-0.6586349,0.2266113,17.5802,36.8373,-17.81735,1008.281
18.447216988,-144.6243,-23.95147,26.53514,-0.8094322,-0.6932413,0.2047333,17.26623,39.95265,-13.04872,1008.279
18.479388714,-124.7209,-18.56563,35.66691,-0.8378215,-0.6718642,0.1261265,17.26623,39.95265,-13.04872,1008.279
18.514035702,-113.0491,-18.74319,49.27263,-0.8598971,-0.6747618,0.1137766,18.09665,40.39613,-7.316556,1008.28
18.546204567,-92.53133,-22.47184,53.31757,-0.9737609,-0.9005793,0.08791348,18.88689,41.18096,-4.710216,1008.284
18.580851555,-52.78585,-27.08827,48.9049,-1.043305,-0.819259,0.07718281,21.58973,40.43796,-0.257225,1008.286
18.613023281,-55.79594,-34.4864,37.62809,-0.9255531,-0.6359923,0.06361694,21.58973,40.43796,-0.257225,1008.289
18.647670746,-56.10309,-34.07211,26.84158,-0.8254896,-0.5228281,0.01156024,23.49542,39.6651,1.011913,1008.289
18.679843426,-59.91178,-32.05981,21.93862,-0.8243893,-0.4844806,-0.05031183,23.89044,39.29565,2.350683,1008.291
18.714490414,-65.19479,-30.81693,16.42278,-0.724964,-0.4536572,-0.08038742,23.89044,39.29565,2.350683,1008.294
18.746658325,-80.67525,-24.48413,12.25527,-0.7788758,-0.4593675,-0.1633174,25.10381,38.15231,3.688984,1008.296
18.781305313,-98.12149,-23.4188,9.190915,-0.7947927,-0.4276481,-0.2144813,25.88776,38.16918,5.852764,1008.298
18.813477993,-74.40936,-20.34118,4.962111,-0.747768,-0.5060204,-0.2136382,25.88776,38.16918,5.852764,1008.298
18.848125458,-57.3317,-13.83083,9.681211,-0.8028744,-0.3524589,-0.225354,26.67753,37.04915,8.532162,1008.301
18.880297184,-69.06491,-11.5818,15.19704,-0.7672559,-0.3173773,-0.1849092,27.07229,36.29857,9.872791,1008.299
18.914944172,-81.71957,-9.865437,21.26446,-0.7918857,-0.3488972,-0.1969892,27.07229,36.29857,9.872791,1008.299
18.947113037,-75.94511,-7.912331,31.0091,-0.838873,-0.3570125,-0.2096316,27.46597,35.16604,11.15153,1008.299
18.981760025,-71.89071,-8.385811,41.67303,-0.8703892,-0.384196,-0.2302877,27.87203,34.0457,13.38658,1008.299
19.013932228,-61.81612,-5.07145,52.7047,-0.8929359,-0.4069396,-0.1729068,27.87203,34.0457,13.38658,1008.299
19.046104431,-49.89862,-3.355085,60.48815,-0.9292399,-0.4001653,-0.1990222,28.27783,32.54422,15.62349,1008.301
19.080751896,-43.32557,4.338967,61.10102,-0.9907475,-0.4124137,-0.2534972,30.56018,29.86032,16.9,1008.301
19.112923622,-42.21982,6.528812,60.12043,-1.00494,-0.3901362,-0.269087,30.56018,29.86032,16.9,1008.302
19.147566795,-11.62747,15.88004,56.81093,-0.9575041,-0.3941112,-0.3134244,32.0822,27.94454,17.79413,1008.3
19.179739475,-0.2014148,29.96608,51.72411,-0.9623479,-0.2552699,-0.3763405,33.22603,25.65301,18.69205,1008.3
19.214386463,-20.35059,58.43407,44.49224,-0.7889593,-0.1983365,-0.5606489,33.22603,25.65301,18.69205,1008.302
19.246558666,14.78761,120.0457,43.57293,-0.8188503,-0.3915042,-0.8304362,34.3646,24.11805,19.13998,1008.304
19.281205654,97.16579,158.5159,43.45036,-0.9926358,-0.2033697,-0.463354,34.02004,22.25186,21.8289,1008.307
19.313378334,46.60856,165.9141,32.47998,-1.069746,-0.1169926,-0.3896224,34.02004,22.25186,21.8289,1008.307
19.348021507,42.12414,150.1709,24.57396,-0.9832231,-0.3666219,-0.5419075,32.53109,23.05753,23.55428,1008.309
19.380193234,9.566022,152.0056,15.62605,-0.8922063,-0.1489053,-0.3852761,30.29812,23.12385,26.24357,1008.309
19.414840698,-74.40936,131.9419,16.91308,-0.8442325,-0.378664,-0.314354,30.29812,23.12385,26.24357,1008.31
19.447012901,-10.46029,96.90433,19.91615,-0.8402831,-0.7580569,-0.4158465,27.30896,23.96236,28.86925,1008.31
19.481660366,73.94509,69.3833,11.70368,-0.8949251,-0.1424141,-0.3635073,24.62774,21.74246,31.12567,1008.312
19.513832092,-2.228618,29.61097,0.4268708,-0.8256486,-0.2550007,-0.253258,24.62774,21.74246,31.12567,1008.316
19.546000958,39.35977,-7.55722,2.08162,-0.7630391,-0.3475023,-0.2493028,23.12753,21.7753,32.02597,1008.316
19.580647945,47.53002,-29.98834,6.249138,-0.5748181,-0.0830901,-0.3949251,22.37191,22.16718,32.02797,1008.317
19.612819672,29.96092,-35.37418,20.28387,-0.601068,0.1956691,-0.5177019,22.37191,22.16718,32.02797,1008.321
19.647467136,-31.40806,-43.24578,24.32881,-0.7849752,0.07854045,-0.2783618,22.34932,22.9067,30.23913,1008.319
19.679639339,108.899,-70.76682,49.57906,-0.9602327,0.0208747,-0.3162438,25.43056,23.61944,29.77333,1008.32
19.714286804,-25.32645,-99.58991,49.27263,-2.160684,-0.006812009,-0.5891683,27.65832,23.16712,26.70338,1008.322
19.746454716,3.607271,-136.5805,-6.866285,-1.488261,-0.455662,-0.2029395,27.65832,23.16712,26.70338,1008.322
19.781101704,-5.177278,-153.0932,-42.84177,-1.763504,-0.4554617,0.08642018,32.15212,21.53837,23.56366,1008.326
19.813274384,-64.94907,-164.1016,-52.09611,-1.568907,-0.2020243,-0.2825179,34.37461,21.84262,20.0437,1008.327
19.847920895,-31.53093,-147.8849,-74.71102,-1.193742,-0.5476501,-0.3606858,34.37461,21.84262,20.0437,1008.331
19.880093574,-38.3497,-134.8642,-65.15025,-0.8747358,-0.07193416,-0.08548293,36.96953,22.51696,16.07367,1008.327
19.914740562,-30.85519,-107.1064,-57.48937,-0.9150288,-0.7507691,-0.0222594,37.30227,23.99064,12.49405,1008.327
19.946909428,17.18339,-93.43468,-48.11245,-0.8577742,-0.3004085,0.06912507,37.30227,23.99064,12.49405,1008.329
19.981555939,3.361549,-85.85899,-50.13493,-0.8858457,-0.2734979,0.1419088,36.89152,25.48725,9.874613,1008.33
20.013728142,25.23078,-96.57148,-54.91531,-0.7656389,-0.3353243,0.1325654,36.09122,28.12044,6.29521,1008.334
20.048375607,123.7037,-66.32794,-49.46077,-0.6469996,-0.3627548,-0.1382054,36.09122,28.12044,6.29521,1008.336
20.080547333,225.2482,-44.48867,-23.90408,-0.5080139,0.09120966,0.09559994,35.66839,28.84341,2.78693,1008.336
20.112720013,217.6308,-28.44953,-19.00112,-0.5438671,-0.08286962,0.09449937,34.46183,31.07323,-2.956326,1008.337
20.147363186,148.153,-0.1590938,-25.6814,-0.4717022,-0.2433054,0.1069633,34.46183,31.07323,-2.956326,1008.337
20.179535866,27.44227,25.17209,-28.37803,-0.7698666,-0.1235367,0.3401647,33.9983,31.37527,-9.586706,1008.333
20.214182377,-33.31241,7.653328,-38.0001,-1.024043,-0.5608833,0.6768125,33.60199,29.83905,-10.91617,1008.335
20.246355057,-61.3861,6.173703,-37.57108,-1.281056,-0.712974,0.3632112,33.60199,29.83905,-10.91617,1008.337
20.281002045,-2.781492,-7.971516,-40.57415,-1.135858,-0.5651104,0.4970712,32.47473,31.00424,-10.46967,1008.337
20.313173771,-8.494519,-5.722485,-33.58743,-1.028769,-0.5876496,0.4756421,32.10835,31.02098,-9.575176,1008.339
20.347816944,-26.24791,2.563417,-28.19417,-0.7761387,-0.4323657,0.3820211,32.10835,31.02098,-9.575176,1008.342
20.379989624,2.747245,12.68405,-16.54963,-0.6956202,-0.3902122,0.3613733,32.10886,31.78324,-9.578897,1008.342
20.414637089,-10.21457,11.97383,-13.66914,-0.6475629,-0.3771059,0.2665611,30.59787,32.94812,-9.576744,1008.343
20.446808815,1.211485,14.4596,-6.743711,-0.7536349,-0.5082344,0.2510458,30.59787,32.94812,-9.576744,1008.343
20.481455803,-11.93462,15.6433,-5.701831,-0.9371305,-0.6171022,0.3029524,29.85958,33.35704,-8.235896,1008.345
20.513628483,-1.737175,8.718657,-7.78559,-0.9694771,-0.5184578,0.2968375,30.23779,33.73281,-8.239691,1008.347
20.548271656,-14.63756,1.024606,-12.50469,-0.8795464,-0.5661291,0.2782533,30.23779,33.73281,-8.239691,1008.349
20.580443382,-3.764379,-2.763234,-7.663016,-0.8156967,-0.5747005,0.214927,29.48164,33.36241,-8.233962,1008.344
20.615090847,-16.11189,-1.993829,2.755778,-0.7986349,-0.6492712,0.248857,30.24934,33.74418,-7.34713,1008.344
20.647263527,4.651588,-1.342794,11.33596,-0.8666594,-0.547152,0.2927496,30.24934,33.74418,-7.34713,1008.344
20.679435253,-9.170254,-1.342794,12.86814,-0.920622,-0.5737765,0.3301475,29.49371,34.13605,-7.345122,1008.346
20.714082241,6.003057,-1.165239,18.62912,-0.8841789,-0.5504057,0.3001162,29.4932,33.37378,-7.341401,1008.348
20.746251106,-5.545861,2.740972,25.55455,-0.8055682,-0.5376999,0.2990054,29.4932,33.37378,-7.341401,1008.35
20.780898094,5.634474,12.03302,39.89571,-0.8692763,-0.5894085,0.3502656,30.2433,33.35736,-7.791549,1008.352
20.813070297,10.67177,20.08218,51.7854,-0.8898283,-0.4878084,0.294419,31.0047,32.97117,-7.347276,1008.352
20.847717285,11.71609,32.98451,72.80685,-0.9478148,-0.3941513,0.3174222,32.13248,32.56825,-7.797497,1008.348
20.879889965,0.7200414,38.72546,75.07446,-0.8611047,-0.4846656,0.3428588,32.13248,32.56825,-7.797497,1008.348
20.914536476,24.55504,46.4787,73.41972,-0.8825482,-0.3872612,0.1828741,34.0322,30.26598,-6.90344,1008.349
20.946704864,27.13512,51.92372,71.82625,-0.918813,-0.2465774,0.2128102,35.93712,28.34971,-5.628718,1008.351
20.981352329,26.27509,57.96059,78.99683,-1.030252,-0.2983736,0.1589572,35.93712,28.34971,-5.628718,1008.347
21.013524055,32.23384,52.63394,83.28693,-1.049135,-0.2787632,0.1091671,37.83105,26.04175,-5.180943,1008.347
21.048171043,32.541,41.21123,80.95802,-1.027027,-0.1646524,0.1296635,40.10292,23.72842,-4.735101,1008.347
21.080343723,56.49886,27.65786,77.2808,-1.17027,-0.1574094,0.09539185,40.10292,23.72842,-4.735101,1008.349
21.114991188,85.43258,34.40495,66.80071,-1.302978,-0.1166647,0.1952939,41.63047,21.4372,-3.392831,1008.349
21.147158623,96.3672,33.22125,31.68325,-1.602855,0.01493686,0.4512628,43.89682,19.49932,-3.39513,1008.349
21.179331303,168.6708,-14.77779,18.56783,-1.529316,0.4567147,0.5101306,43.89682,19.49932,-3.39513,1008.349
21.213978767,129.2939,-99.35317,51.54025,-1.394275,1.058893,1.016078,44.2677,17.5826,-3.834041,1008.351
21.246150494,13.06756,-189.5511,85.7384,-1.261464,0.4268753,1.156638,43.83781,16.39422,-7.779296,1008.352
21.280797482,151.8389,-194.4043,85.43197,-0.783767,-0.807411,-0.170479,43.83781,16.39422,-7.779296,1008.354
21.312970162,221.2552,-153.2115,90.58008,-0.50199,0.07013108,0.009574054,43.34988,14.76785,-16.1855,1008.354
21.347613335,-114.5234,-161.7934,49.76292,-0.5123739,0.2661257,0.3053064,40.61201,11.28671,-23.10444,1008.354
21.379785538,-247.8274,-160.3729,-7.969451,-0.4566205,-0.3743576,-0.009455669,40.61201,11.28671,-23.10444,1008.348
21.414432526,-162.3163,-147.0563,-43.08692,-0.4839801,-0.3753674,0.2197411,37.90005,7.069287,-27.97952,1008.348
21.446605206,-151.9345,-134.9234,-75.14003,-0.5469176,-0.1283473,-0.01429697,33.34031,12.44197,-30.15001,1008.347
21.481252194,-163.4834,-118.2332,-102.1063,-0.5561095,-0.2780976,0.009618221,33.34031,12.44197,-30.15001,1008.347
21.513424397,-127.1166,-95.68371,-117.4894,-0.5327679,-0.3652562,-0.07422204,28.42518,18.22307,-30.59906,1008.345
21.548067570,-122.3865,-67.51163,-116.4475,-0.7162972,-0.07435513,-0.04552933,23.08696,24.78977,-29.71074,1008.345
21.580239296,-169.4422,-43.00904,-123.9245,-0.724403,-0.3961607,0.07480318,23.08696,24.78977,-29.71074,1008.343
21.614886284,-169.5651,-15.36964,-116.8765,-0.7297507,-0.501683,0.3607728,18.58913,30.22335,-27.09965,1008.341
21.647058964,-67.95916,18.48419,-93.77129,-0.4630905,-0.6078945,0.6697447,13.34151,34.91191,-23.97094,1008.341
21.681706428,-26.86222,41.56634,-58.83768,-0.7007357,-0.3548422,0.6648903,13.34151,34.91191,-23.97094,1008.341
21.713878155,-9.784558,58.01978,-47.07057,-0.5078813,-0.6351398,0.695484,8.465226,39.5886,-21.3542,1008.341
21.746046543,100.2987,5.226742,1.591324,-0.7018685,-1.482067,1.01759,6.948718,41.12892,-21.80019,1008.341
21.780694008,232.4356,-29.86997,-32.42297,-0.8903525,0.1797369,3.337488,6.948718,41.12892,-21.80019,1008.341
21.812865734,-86.26543,-141.0194,-73.91429,-0.1025651,0.01640564,0.4126937,6.496747,41.44234,-27.53801,1008.343
21.847512722,-74.53221,-77.86902,-62.63748,-0.1522826,-0.5768183,0.2419772,4.528644,35.29795,-33.23647,1008.345
21.879685402,172.9095,-68.4586,-40.8193,-0.3436659,-0.5437769,1.319858,4.528644,35.29795,-33.23647,1008.345
21.914332867,38.62261,-73.96281,-52.34126,-0.2574914,-0.1945457,1.533531,-0.348875,36.92638,-30.54108,1008.347
21.946500778,-47.37997,-58.33796,-49.15433,0.006293433,-0.6036289,0.8331358,-3.802537,35.39981,-34.46901,1008.347
21.981147766,-20.84203,-32.35574,-26.1717,-0.1444291,-0.5810952,0.8887119,-6.816095,34.30992,-33.61915,1008.35
22.013320446,41.38697,-21.16977,-14.77231,-0.3959927,-0.9731006,0.8752956,-6.816095,34.30992,-33.61915,1008.352
22.047966957,193.6115,-16.55334,-1.656888,-0.293761,-0.3849968,0.7933941,-9.456152,33.97205,-33.15747,1008.352
22.080139637,123.8266,-33.06596,-4.659952,-0.1414488,-0.2015725,0.8855469,-10.61881,32.81714,-35.31373,1008.352
22.114786625,-1.00001,-29.81079,-10.23707,0.01433374,-0.2023183,1.015191,-10.61881,32.81714,-35.31373,1008.348
22.146954536,-114.4006,-37.44565,-25.37497,0.3694421,-0.3725773,1.19508,-10.66234,28.20375,-38.41537,1008.349
22.181601524,-141.7371,-43.42334,-44.37394,0.2350481,-0.5503762,1.025686,-11.76778,27.48601,-36.17444,1008.349
22.213774204,-167.1693,-24.42495,-53.93472,0.07844429,-0.3135032,0.8001505,-11.76778,27.48601,-36.17444,1008.348
22.245945931,-205.9933,-41.29268,-68.58232,0.1701345,-0.7592617,0.835144,-13.97037,31.01014,-31.33425,1008.348
22.280593395,-78.46376,-43.77845,-78.20438,-0.01671471,-0.7409145,0.8910226,-16.20706,34.5636,-24.26234,1008.348
22.312766075,-48.36286,-58.16041,-76.61092,0.1716448,-0.5223154,0.7840633,-16.20706,34.5636,-24.26234,1008.348
22.347409248,-18.44625,-54.37257,-75.7529,0.05843626,-0.4022312,0.6106619,-18.8057,36.93265,-20.75348,1008.348
22.379580975,-25.44931,-49.16428,-68.58232,0.1424712,-0.3700834,0.4906069,-22.17852,36.62825,-18.50281,1008.348
22.414228439,-21.94778,-33.77618,-51.29938,0.4164579,-0.3982091,0.3557506,-22.17852,36.62825,-18.50281,1008.344
22.446400642,-0.8157189,-3.473455,-10.42093,0.5698203,-0.210258,0.2801951,-25.55929,35.55428,-16.82221,1008.344
22.481047154,20.4392,37.95605,38.66997,0.5517825,-0.3188803,0.218736,-27.80433,34.84697,-15.02176,1008.345
22.513219833,66.6963,75.36098,79.30327,0.4220183,-0.4100379,0.2100373,-27.80433,34.84697,-15.02176,1008.345
22.547863007,106.0732,104.1841,107.4953,0.09977372,-0.3836699,0.5265613,-27.08172,34.42262,-17.57394,1008.342
22.580034733,139.7371,127.1479,118.956,-0.02327761,-0.4241949,0.4791754,-24.11522,35.46621,-22.0578,1008.342
22.614682197,167.7493,141.589,123.1848,-0.1177175,-0.5164347,0.667758,-24.11522,35.46621,-22.0578,1008.342
22.646854877,-71.70641,59.9137,79.79356,-0.4921429,-2.657396,3.200005,-18.53165,34.53977,-28.64979,1008.342
22.681501865,-72.75073,-113.0841,-60.24728,-0.1587656,-0.849611,1.05485,-11.7471,32.4578,-34.85979,1008.344
22.713673592,-31.77665,2.918527,-37.5098,0.4048938,0.1747511,0.5027719,-11.7471,32.4578,-34.85979,1008.344
22.748316765,90.96132,9.724803,-17.1625,-0.2149878,-0.6096854,0.3454392,-9.870506,30.13279,-35.75085,1008.344
22.780489445,218.1223,31.97837,-8.582322,-0.1863903,-0.1378571,0.5587319,-12.5216,30.54581,-36.18546,1008.34
22.812661648,103.6774,10.43502,-6.498563,-0.09468926,0.2029347,1.318389,-12.5216,30.54581,-36.18546,1008.34
22.847308636,-29.38086,-0.0407238,-0.9214437,-0.09221447,0.1278889,1.533201,-12.58691,26.67276,-41.01218,1008.34
22.879481316,-77.5423,-11.81854,-0.9214437,-0.03213819,-0.1837773,0.9348016,-12.22965,21.6956,-42.32877,1008.34
22.914127827,-41.48265,-8.089886,3.920231,-0.0941261,-0.363406,1.078499,-12.21706,23.2315,-41.44365,1008.34
22.946296215,-100.763,-17.5003,-11.21766,-0.1859699,-0.1329753,1.129456,-12.21706,23.2315,-41.44365,1008.341
22.980943680,-170.2408,-47.5071,-27.88773,-0.06936827,-0.5750048,1.223533,-12.93781,25.1812,-38.83516,1008.341
23.013115406,-227.3096,-47.80303,-57.91838,-0.06451501,-0.6660016,1.322512,-14.01205,27.92209,-34.37958,1008.341
23.047762394,-307.3535,-49.69695,-98.24524,-0.02010869,-0.8482298,0.9455996,-14.01205,27.92209,-34.37958,1008.337
23.079935074,-250.4075,-46.7377,-128.6436,0.07367231,-1.395569,0.5232826,-16.61492,33.01601,-26.48436,1008.337
23.114582539,-43.38699,-23.89228,-140.1043,-0.009165611,-1.102078,0.5120152,-19.88261,38.14738,-16.41796,1008.337
23.146749973,26.02937,-12.46958,-142.9235,0.06476842,-0.8342852,0.3535092,-19.88261,38.14738,-16.41796,1008.337
23.181397438,90.46987,7.771698,-132.137,0.01034181,-0.6495659,0.2914339,-25.13987,37.11324,-13.70762,1008.337
23.213570118,103.3088,27.00683,-113.2606,0.1318316,-0.3026143,0.2950886,-28.57202,34.4652,-15.90859,1008.337
23.248216629,36.34968,45.88685,-109.7059,0.2552125,-0.2931469,0.2805194,-28.57202,34.4652,-15.90859,1008.336
23.280388832,-13.34752,60.44636,-99.16454,0.3626834,-0.2370006,0.2664835,-31.63215,29.13979,-18.41724,1008.332
23.312561035,0.2285981,69.67922,-71.52409,0.3953451,-0.1584468,0.3405722,-33.16908,26.08946,-20.17974,1008.332
23.347204208,27.44227,60.62392,-45.66097,0.4259668,-0.1463991,0.7269494,-33.16908,26.08946,-20.17974,1008.332
23.379376888,35.42823,38.42953,-25.1911,0.5169975,-0.1201633,0.97792,-33.96638,23.39328,-23.22306,1008.33
23.414023876,43.96705,-2.348939,-1.227879,0.6885593,-0.1991387,1.106772,-33.97897,21.85738,-24.10818,1008.332
23.446195603,16.01621,-20.75548,13.66487,0.6256271,-0.2883438,1.268576,-33.97897,21.85738,-24.10818,1008.332
23.480843067,0.04430686,-20.81466,23.77723,0.7401351,-0.1865145,1.140617,-33.62517,20.30473,-25.88779,1008.329
23.513015747,-98.55151,-20.63711,26.47386,0.5541643,-0.451296,0.7989135,-33.99155,20.32147,-24.9933,1008.329
23.547657967,-38.47256,-18.38808,27.39316,0.3939568,-0.8550441,0.4543783,-33.99155,20.32147,-24.9933,1008.329
23.579830646,20.50064,-3.17753,17.09694,0.3725074,-0.8505277,0.3967757,-34.33932,22.26093,-22.76927,1008.331
23.614477634,40.8341,1.734827,-1.534314,0.2867714,-0.6716389,0.5026804,-33.96035,23.7801,-22.77864,1008.333
23.646649837,49.49579,9.014583,-5.272822,0.3870069,-0.4989887,0.6747602,-33.96035,23.7801,-22.77864,1008.333
23.681296825,-6.651608,20.55566,-10.78866,0.386555,-0.3863566,0.7407628,-33.58241,23.77473,-22.78058,1008.333
23.713469505,47.40715,15.46575,-9.317766,0.4235007,-0.6613744,0.9150447,-33.60077,22.23314,-24.11198,1008.333
23.748112678,31.98812,20.55566,-7.724303,0.4779017,-0.2940306,0.9392555,-33.60077,22.23314,-24.11198,1008.331
23.780284405,-21.76349,25.11291,-5.94698,0.4603105,-0.3480496,0.8464304,-33.23991,22.59185,-25.45461,1008.329
23.814931869,-69.18777,22.68632,-4.29223,0.4145472,-0.3225779,0.8470674,-32.86878,21.05626,-25.89538,1008.327
23.847103596,-13.65467,11.85546,2.388056,0.4768703,-0.7513083,0.8053554,-32.86878,21.05626,-25.89538,1008.327
23.879276276,-70.0478,-2.053014,1.284889,0.5294991,-0.1943817,0.9916514,-32.48454,21.81885,-25.45476,1008.327
23.913923264,-116.4278,-17.85541,1.162315,0.5247141,-0.5026388,0.9197469,-33.24594,22.20503,-25.89903,1008.327
23.946091175,-62.49186,-32.47411,4.839537,0.407505,-0.4837262,0.8419486,-33.24594,22.20503,-25.89903,1008.325
23.980738640,-49.96005,-54.49094,19.1807,0.466894,-0.5140241,0.6647328,-32.82627,24.14513,-22.7863,1008.325
24.012910843,143.7915,-70.05659,61.03973,0.3829822,-0.649357,0.5588423,-32.79166,25.32183,-20.17796,1008.325
24.047558308,189.4957,-50.70309,77.03565,0.2347832,-0.5710368,0.4230189,-33.54073,26.86278,-19.73525,1008.325
24.079730034,24.6779,-24.30658,55.70776,0.1125486,-0.4871749,0.6451246,-33.54073,26.86278,-19.73525,1008.325
24.114377499,-194.6901,-15.1329,43.2665,0.491116,-0.4137247,0.5949618,-32.80899,25.30477,-21.5168,1008.324
24.146545410,-107.9504,11.44117,52.88856,0.2145591,-0.6610034,0.32462,-32.38984,26.4826,-18.40035,1008.324
24.181192398,-208.2662,1.794012,39.03769,0.0725622,-0.15898,1.070917,-32.38984,26.4826,-18.40035,1008.32
24.213365078,0.7814718,-34.95988,26.65772,0.2263132,-2.120098,0.5129933,-31.59233,30.7025,-15.42823,1008.32
24.248012066,103.9846,-49.8745,43.2665,0.5519666,-0.5385896,0.8700323,-30.02708,34.16158,-11.49994,1008.32
24.280184269,-88.10834,-44.90296,48.78233,0.539026,-0.7881286,0.7283159,-30.02708,34.16158,-11.49994,1008.32
24.314831257,-79.07806,-48.6908,45.90184,0.3417948,-1.011859,0.4786362,-29.28771,34.1346,-12.7789,1008.32
24.346999645,10.67177,-56.91752,31.25424,0.3703378,-1.313751,0.2464492,-28.86386,34.93616,-9.278063,1008.321
24.381646156,88.99554,-48.45406,31.37682,0.3147522,-0.6221907,0.3240051,-28.86386,34.93616,-9.278063,1008.323
24.413818836,116.1478,-33.717,42.65363,0.3647253,-0.331708,0.3230416,-27.33373,36.45628,-7.9544,1008.323
24.445991516,90.83846,-24.83924,51.96926,0.1941061,-0.5409001,0.2134952,-26.98443,36.80362,-10.1896,1008.319
24.480638027,179.2368,-6.61026,60.48815,0.1286522,-0.5855295,0.1115541,-26.98443,36.80362,-10.1896,1008.319
24.512810707,235.5071,31.03141,65.63626,0.05894928,-0.1161601,0.06835605,-26.26791,37.13503,-13.25554,1008.319
24.547453880,110.1276,76.78143,63.61378,-0.03056275,0.2325971,0.1072524,-24.46375,36.26227,-19.82818,1008.319
24.579625606,59.8161,90.86745,62.81705,-0.1830819,-0.2666012,0.6082497,-24.46375,36.26227,-19.82818,1008.321
24.614272594,123.888,86.36939,72.92942,-0.1232405,0.1641646,1.307732,-21.89375,34.24594,-25.57031,1008.321
24.646445274,103.6774,77.78757,114.2369,-0.3136892,-1.311119,0.9025888,-18.93925,33.37332,-30.87367,1008.323
24.681091785,375.6913,51.33187,72.31655,0.4522102,0.8574719,4.412155,-18.93925,33.37332,-30.87367,1008.323
24.713264465,6.678792,-2.763234,-27.76516,-0.2209607,-1.293866,1.185763,-13.68277,32.8203,-38.42223,1008.324
24.747907638,186.117,-3.118345,0.7333059,0.3593704,-1.149196,-0.3256712,-9.13479,25.91253,-37.0731,1008.326
24.780135632,184.9499,17.83315,41.42789,-0.1298646,0.3211034,0.4429343,-9.13479,25.91253,-37.0731,1008.326
24.814782619,52.07587,14.8739,28.00603,0.04596779,0.160644,0.7711045,-10.66606,31.24713,-38.87653,1008.326
24.846954823,-143.6414,21.68018,13.72615,-0.1066973,-0.4021092,1.401719,-9.210367,23.93377,-42.80169,1008.328
24.881601810,-42.09696,-33.65781,-16.97864,-0.3784029,-0.6141376,1.110896,-9.210367,23.93377,-42.80169,1008.33
24.913774490,5.818766,-6.906186,-20.90101,-0.03068019,-0.3867022,0.7417613,-8.042137,23.57063,-40.12794,1008.326
24.945942402,17.67484,-11.9961,-19.24626,-0.1435348,-0.2379524,0.8871945,-8.411726,27.39303,-39.69834,1008.326
24.980589390,-2.105758,-9.510326,-19.0624,-0.08426478,-0.176221,0.9999381,-8.411726,27.39303,-39.69834,1008.327
25.012762070,-26.98507,-10.98995,-12.38212,0.005883673,-0.3048965,0.9883962,-9.919046,26.65711,-39.30435,1008.331
25.047408581,-8.187367,-0.928499,-3.863221,0.06701963,-0.4384656,0.9529846,-10.29146,26.28702,-38.85428,1008.331
25.079581261,16.63052,2.563417,-1.656888,-0.0557365,-0.4516422,0.9275115,-10.29146,26.28702,-38.85428,1008.333
25.114228249,39.78978,4.575707,-1.963323,-0.04587395,-0.3287708,0.8802325,-10.66889,27.05466,-38.85606,1008.333
25.146396160,41.20268,4.338967,-2.698767,-0.06442218,-0.2827064,0.7993274,-10.29673,27.04361,-39.30428,1008.333
25.181043625,20.56207,5.463482,-2.208471,-0.1018151,-0.1403711,1.042813,-10.69824,25.12138,-41.01441,1008.329
25.213215828,-5.177278,-1.697904,-1.656888,-0.04512369,-0.1589141,1.003572,-10.69824,25.12138,-41.01441,1008.329
25.247863293,-16.60333,-3.76938,-1.227879,-0.03458133,-0.2374442,0.96041,-10.31478,24.74056,-40.5682,1008.33
25.280035019,-15.00614,-2.230569,-0.1247124,-0.02805085,-0.3131891,0.9611706,-10.69324,23.98367,-40.56255,1008.33
25.314682007,-4.0101,-0.2774639,-0.06342535,-0.03942845,-0.3476065,0.959547,-10.69324,23.98367,-40.56255,1008.332
25.346849918,10.18033,1.202162,-0.06342535,-0.0510544,-0.300564,0.9470293,-10.32634,24.72919,-41.46076,1008.332
25.381497383,7.968831,-0.3366489,0.2430097,-0.05441943,-0.2260685,0.9751487,-9.936584,25.11633,-40.572,1008.332
25.413670063,-3.641518,-1.165239,0.1204357,-0.04669165,-0.2208609,0.9630697,-9.936584,25.11633,-40.572,1008.332
25.448317051,-6.713038,-1.283609,-0.06342535,-0.04112722,-0.2903054,0.9619632,-11.0654,23.99472,-40.11433,1008.33
25.480488777,-0.5085669,-0.3958339,-0.5537215,-0.04118567,-0.2995464,0.9594775,-10.309,24.74625,-40.12192,1008.332
25.512661457,1.887219,0.3735713,-0.3085735,-0.04298223,-0.2766676,0.9669129,-10.309,24.74625,-40.12192,1008.332
25.547304154,0.4128893,-0.1590938,0.2430097,-0.04381135,-0.2470315,0.970057,-10.30874,25.12738,-40.12378,1008.332
25.579476833,-2.290049,0.07764622,0.6107319,-0.03573041,-0.2675781,0.9543883,-10.68091,25.13844,-39.67557,1008.332
25.614123821,-0.3242756,0.3143863,0.4881579,-0.04205277,-0.282034,0.9639681,-10.68091,25.13844,-39.67557,1008.332
25.646295547,1.887219,0.7878664,0.1204357,-0.04584114,-0.2717546,0.9727641,-10.68643,25.51388,-40.12371,1008.333
25.680943012,-0.07855397,0.5511264,-0.002138331,-0.05025784,-0.2572482,0.9628029,-11.06462,25.13812,-40.11992,1008.333
25.713115215,-0.2014148,-0.09990882,-0.1247124,-0.04733192,-0.2616167,0.9646676,-11.06462,25.13812,-40.11992,1008.333
25.747757912,-1.614314,-0.750944,-0.1859994,-0.0414845,-0.2635878,0.9645968,-10.68694,24.75162,-40.11999,1008.333
25.779938698,-3.702948,-0.8101289,-0.002138331,-0.04056498,-0.2733154,0.9625801,-10.30874,25.12738,-40.12378,1008.337
25.814585686,-2.044327,-0.2182788,0.2430097,-0.03725384,-0.2947047,0.9604449,-10.30874,25.12738,-40.12378,1008.339
25.846758366,1.150054,0.7286814,0.3655838,-0.04115571,-0.2893642,0.9581153,-10.69221,25.5082,-40.56999,1008.34
25.881405354,1.825789,0.9062364,0.1817227,-0.0498224,-0.2631012,0.9593766,-10.30874,25.12738,-40.12378,1008.34
25.913577557,-0.8771493,0.1368312,0.0591487,-0.04097432,-0.2611522,0.9660581,-10.30874,25.12738,-40.12378,1008.34
25.948220730,-2.290049,-0.3958339,0.1204357,-0.04938026,-0.2810374,0.9625987,-10.31478,24.74056,-40.5682,1008.336
25.980392456,-1.00001,-0.3958339,-0.002138331,-0.0449848,-0.2771875,0.9611434,-10.69272,24.74593,-40.56627,1008.336
26.012565136,-0.7542885,-0.1590938,0.2430097,-0.04297249,-0.2684381,0.9640887,-10.69272,24.74593,-40.56627,1008.336
26.047212124,-0.6928581,0.1960163,0.4881579,-0.03762066,-0.2800851,0.9677988,-10.68643,25.51388,-40.12371,1008.336
26.079384327,0.04430686,0.07764622,0.6720189,-0.04447111,-0.2641102,0.9578724,-10.31452,25.1217,-40.57006,1008.335
26.114031315,-0.5699973,0.2552013,0.3042968,-0.04249266,-0.2684479,0.9631202,-10.31452,25.1217,-40.57006,1008.335
26.146199703,-0.01712355,-0.2182788,0.0591487,-0.03661655,-0.2752286,0.9687934,-10.30874,25.12738,-40.12378,1008.335
26.180846214,1.94865,1.853197,0.1817227,-0.03452509,-0.2649565,0.9804266,-10.30849,25.50851,-40.12564,1008.335
26.213018894,0.7200414,-3.65101,0.7333059,-0.0461888,-0.1793749,1.119093,-10.30849,25.50851,-40.12564,1008.335
26.247666359,-79.93809,-5.18982,-1.289166,-0.05230047,-0.1192444,1.233879,-10.68668,25.13275,-40.12185,1008.336
26.279838085,-130.9253,-27.56175,6.984582,-0.05510148,-0.1449677,1.610135,-10.30297,25.13307,-39.67751,1008.336
26.314485073,-215.2079,-33.42107,6.187851,-0.0446093,-0.1131029,1.216988,-11.01743,27.85072,-36.62645,1008.334
26.346653938,-298.5689,-70.29333,-23.29121,-0.2024514,-0.7717719,0.9869732,-11.01743,27.85072,-36.62645,1008.334
26.381300449,-297.2175,-97.16333,-82.12675,-0.1000415,-1.317214,1.068281,-10.90512,32.91266,-28.23506,1008.334
26.413472653,-351.6448,-88.75906,-152.1778,-0.01097281,-1.510553,0.7270103,-13.76604,39.20967,-16.00852,1008.334
26.448120117,-266.8094,-60.88292,-204.4556,0.1546435,-1.835269,0.2668164,-13.76604,39.20967,-16.00852,1008.336
26.480291844,-107.7046,-26.79235,-215.3035,0.2945849,-1.436639,0.0600912,-18.93514,42.13395,-1.840682,1008.334
26.514939308,-87.61689,-5.30819,-229.3382,0.2840081,-1.110516,-0.07882937,-25.26611,38.5089,5.670061,1008.332
26.547107697,-65.74767,14.51879,-235.9572,0.4436695,-1.079759,-0.1417615,-25.26611,38.5089,5.670061,1008.331
26.579279423,-68.32774,29.96608,-243.8019,0.3964399,-0.8874514,-0.2221574,-30.91043,32.51971,7.960245,1008.331
26.613926887,-56.84026,55.11971,-244.3535,0.4514169,-0.6605991,-0.351904,-36.94476,25.76226,9.363523,1008.331
26.646098614,-6.835899,81.2203,-228.2963,0.34465,-0.4449351,-0.211278,-36.94476,25.76226,9.363523,1008.325
26.680746078,22.71213,96.72678,-216.9582,0.5265077,-0.2767766,-0.2544865,-41.12509,17.41932,8.086889,1008.323
26.712918281,26.70511,119.9865,-196.1206,0.5498735,0.05132289,-0.3040556,-44.95028,8.286821,5.090677,1008.321
26.747560978,-0.3242756,145.9687,-166.3351,0.6702867,0.2861119,-0.4324194,-44.95028,8.286821,5.090677,1008.32
26.779903412,-27.0465,192.2514,-134.8336,0.5290239,0.477536,-0.4362712,-45.40795,0.151773,-0.605896,1008.32
26.814550877,-93.39135,250.0751,-104.3739,0.6606647,0.2983377,-0.3637849,-45.88189,-6.412274,-7.649066,1008.318
26.846722603,-106.9675,297.9558,-60.43114,0.4907373,0.408185,-0.13861,-45.88189,-6.412274,-7.649066,1008.312
26.881369591,1511.355,209.8293,-81.82031,-1.129932,-1.45561,-3.886881,-43.75379,-11.53322,-18.15595,1008.31
26.913542271,-164.282,24.04758,-139.9204,-1.097789,4.494875,0.8955925,-38.90934,-12.05155,-23.47084,1008.308
26.948184967,-282.597,2.563417,-80.90101,0.6329977,-0.2539236,0.3862495,-38.90934,-12.05155,-23.47084,1008.308
26.980357647,157.1219,34.76006,30.08979,0.02107929,0.7334225,1.074898,-36.60583,-26.14104,-19.90711,1008.307
27.015004635,15.89335,-9.865437,26.90286,0.5981647,0.4038061,0.6850526,-34.36579,-24.296,-22.15942,1008.307
27.047176361,-117.7792,-11.64099,2.571917,0.940684,-0.4090731,0.6067112,-34.36579,-24.296,-22.15942,1008.303
27.081823826,60.06182,10.19828,14.09388,0.6312737,0.409339,0.7315432,-34.72665,-24.65471,-20.81678,1008.303
27.113995552,20.19348,6.292072,23.8998,0.7858628,0.3017558,0.538342,-35.1096,-23.51163,-21.26671,1008.305
27.146164417,61.78187,9.961543,43.51165,0.5219447,0.4112412,0.844885,-35.1096,-23.51163,-21.26671,1008.305
27.180811405,13.00613,-4.893895,51.04995,0.4447425,0.4858169,1.087702,-35.49383,-24.27421,-21.70734,1008.303
27.212983131,7.047374,-15.84312,71.70367,0.4310967,0.4662243,0.8669119,-35.86548,-23.50089,-21.26284,1008.305
27.247630596,35.12107,-24.06984,96.46364,0.3845772,0.3894963,0.7688676,-35.86548,-23.50089,-21.26284,1008.302
27.279802799,49.55722,-21.87999,117.8528,0.3804186,0.3781994,0.6859093,-37.3531,-21.93215,-19.47743,1008.302
27.314449787,57.05173,-19.33504,137.1582,0.4529661,0.1780502,0.6469504,-38.46175,-18.84423,-17.70139,1008.302
27.346618176,104.046,-19.39422,155.7895,0.4424756,0.2368011,0.7058545,-41.46752,-15.73678,-16.48947,1008.304
27.381265164,80.08813,-12.88387,161.7343,0.406676,0.1686721,0.6598369,-41.46752,-15.73678,-16.48947,1008.306
27.413437367,81.68533,-17.79623,172.1531,0.4254728,0.01365913,0.6487436,-42.95359,-11.88124,-14.71522,1008.306
27.448084355,94.52428,-3.76938,184.9621,0.439174,0.1529678,0.4694964,-44.45045,-6.893657,-13.83912,1008.307
27.480256081,57.54317,12.62487,191.4585,0.3582969,0.1018212,0.3936735,-44.45045,-6.893657,-13.83912,1008.307
27.514903545,20.00919,15.93923,201.2032,0.4043835,-0.1921462,0.4452859,-45.19695,-1.541367,-13.41502,1008.306
27.547071934,52.07587,28.01297,203.7772,0.4235718,-0.3067042,0.5193544,-44.0695,6.11735,-14.3509,1008.307
27.581718445,9.381731,42.09901,209.722,0.3819471,-0.2776908,0.6043319,-44.0695,6.11735,-14.3509,1008.303
27.613891125,-49.16145,36.94991,196.3615,0.3376012,-0.5437114,0.5080807,-42.19251,12.93386,-15.73291,1008.305
27.646063805,-10.82888,57.19118,196.9131,0.3398311,-0.8838261,0.5896059,-38.41452,19.35375,-16.23016,1008.307
27.680710316,0.7200414,63.28724,178.527,0.2618907,-0.8012549,0.7987556,-38.41452,19.35375,-16.23016,1008.307
27.712882996,-6.651608,57.78304,166.5147,0.2753745,-0.8696324,0.7522761,-34.26302,26.52568,-17.11559,1008.309
27.747526169,55.02453,61.15658,167.6179,0.3616957,-0.9138183,1.057658,-28.61287,31.37796,-18.89016,1008.31
27.779697895,112.032,60.26881,164.6148,0.3699867,-1.047887,1.238189,-28.61287,31.37796,-18.89016,1008.314
27.814344883,68.2935,60.44636,130.2328,0.02047934,-0.9234194,1.166321,-23.37084,34.30152,-22.88489,1008.316
27.846517086,72.22504,57.78304,80.34515,-0.131813,-1.155554,0.9257923,-17.36926,35.31354,-26.49166,1008.316
27.881164074,83.34395,64.76687,25.12554,-0.1168382,-0.7511331,0.8860887,-17.36926,35.31354,-26.49166,1008.316
27.913336754,45.80996,61.51169,-7.479155,-0.1115015,-0.5206004,0.8869754,-12.81035,35.59038,-29.57726,1008.313
27.947979450,50.47868,63.10968,-25.43625,0.01047309,-0.4555002,0.9104739,-10.57893,33.23726,-32.25538,1008.315
27.980151653,71.54931,62.34028,-20.71715,-0.001335718,-0.3356425,0.8990402,-10.57893,33.23726,-32.25538,1008.317
28.014799118,80.33385,62.69539,-13.54657,-0.1746483,-0.3856246,0.9147053,-9.107821,31.65227,-35.31589,1008.319
28.046970844,125.1166,34.58251,-10.35965,-0.395794,-0.02884813,1.720311,-8.015991,29.30957,-38.43449,1008.319
28.081618309,-58.13029,-8.208256,-18.75597,-0.0452408,-0.1180293,1.144172,-8.015991,29.30957,-38.43449,1008.319
28.113790512,-36.26107,-8.030701,-12.13697,-0.09994773,-0.3472011,0.7841852,-6.906518,26.22247,-40.14677,1008.322
28.148433209,27.25798,2.563417,-11.95311,-0.2553321,-0.283304,0.7876079,-7.267122,26.24489,-38.80599,1008.324
28.180605888,3.914423,-6.61026,-19.67527,-0.1026609,-0.1658023,0.9544058,-7.267122,26.24489,-38.80599,1008.326
28.212777615,-24.03642,-5.07145,-18.81725,-0.1277848,-0.1620623,0.982627,-7.266351,27.38829,-38.81158,1008.326
28.247424603,-45.84421,-6.01841,-17.77538,-0.0856502,-0.3042134,0.955034,-8.028265,27.01221,-39.25213,1008.327
28.279597282,-34.60245,-6.01841,-10.97252,-0.1030921,-0.3470119,0.932672,-8.028265,27.01221,-39.25213,1008.325
28.314243794,-5.975873,-5.959225,-7.295294,-0.06925675,-0.345096,0.95117,-8.773157,27.41464,-38.42132,1008.327
28.346412659,-10.64458,-9.865437,-3.924508,-0.06388251,-0.2295065,0.8378389,-8.74953,28.19964,-36.63992,1008.329
28.381059647,-41.72837,-10.16136,0.1204357,-0.07015601,-0.2859886,0.8735818,-9.133247,28.19933,-37.08426,1008.33
28.413231373,-64.82621,-9.273586,-2.392332,-0.04192033,-0.4249379,0.8745828,-9.133247,28.19933,-37.08426,1008.33
28.447878838,-74.04077,-2.053014,-8.521035,-0.008582942,-0.49017,0.8081821,-9.854201,28.62531,-34.40457,1008.332
28.480050564,-77.84946,0.7878664,-14.8336,-0.0243254,-0.6028418,0.789566,-10.21383,31.31485,-33.14058,1008.332
28.514698029,-90.31983,3.806302,-19.85913,0.0155907,-0.6384688,0.8530058,-10.21383,31.31485,-33.14058,1008.334
28.546866417,-70.23209,0.1960163,-17.40765,-0.05103602,-0.6292248,0.8758757,-9.806231,32.48131,-30.91669,1008.33
28.581512928,-78.52519,0.9062364,-17.77538,0.01155642,-0.5055865,0.773163,-10.90409,34.43719,-28.24251,1008.33
28.613685608,-63.41331,4.457337,-16.67221,-0.01575024,-0.6669064,0.7957059,-10.90409,34.43719,-28.24251,1008.333
28.648332596,-47.4414,-3.76938,-19.61399,-0.01069406,-0.6653196,0.8159158,-10.86319,36.38184,-25.1916,1008.335
28.680504799,-42.64983,-4.183675,-22.00418,-0.02508866,-0.6450854,0.6610131,-11.22302,37.54767,-23.85641,1008.339
28.712677002,-38.65685,1.971567,-21.51388,-0.02059967,-0.691479,0.7531326,-11.22302,37.54767,-23.85641,1008.336
28.747320175,-17.83194,-1.283609,-27.82645,-0.02936263,-0.7296183,0.774108,-12.34007,37.96115,-22.57738,1008.336
28.779492378,1.150054,-3.76938,-24.57823,0.01660538,-0.553293,0.7582627,-12.71223,37.9722,-22.12916,1008.336
28.814139366,-3.395796,-4.59797,-15.32389,0.0706106,-0.5280804,0.7266366,-12.71223,37.9722,-22.12916,1008.34
28.846311092,-20.47345,-6.37352,-5.701831,0.03504079,-0.4407748,0.6327344,-13.46182,38.75089,-21.68274,1008.34
28.880958557,-80.49097,-7.616405,-3.189064,0.07469134,-0.5588127,0.6463333,-13.81691,38.39786,-19.89382,1008.344
28.913131237,-91.42558,-11.10832,-4.598665,-0.01410826,-0.8126028,0.5968696,-13.81691,38.39786,-19.89382,1008.345
28.947773457,-113.8477,-11.87773,-10.66608,0.008019251,-0.7747661,0.4822592,-14.17777,38.03915,-18.55118,1008.345
28.979946136,-130.741,-6.906186,-21.26873,-0.02153425,-0.9415516,0.2980002,-15.26021,39.62933,-14.66381,1008.343
29.014593124,-113.0491,-2.053014,-23.41378,-0.01382463,-0.9387783,0.2849371,-15.26021,39.62933,-14.66381,1008.345
29.046765327,-129.2667,0.01846121,-29.4812,0.1193895,-1.040067,0.390827,-15.19092,40.84014,-9.377777,1008.347
29.081412315,-114.032,-7.142925,-29.29733,0.01952969,-1.194596,0.4290448,-16.34233,40.90181,-5.865163,1008.347
29.113584518,-90.13554,-19.15748,-24.21051,0.1444472,-1.0506,0.2998904,-16.34233,40.90181,-5.865163,1008.347
29.148227692,-105.5546,-5.6633,-14.89489,0.1300754,-1.008622,0.1952947,-16.66357,40.58208,-1.462317,1008.348
29.180399895,-85.58969,-5.959225,-5.456683,0.06730846,-1.086926,0.1971628,-17.75117,40.64367,2.113729,1008.344
29.215046406,-67.16057,-12.11447,4.471815,-0.0009906967,-0.8357083,0.2524092,-17.75117,40.64367,2.113729,1008.35
29.247219086,-67.0377,-33.48026,11.45853,-0.002408433,-0.9758567,0.267655,-18.47346,40.30656,4.733387,1008.348
29.279390812,-13.22466,-45.1397,17.03565,-0.07041944,-1.148726,0.2138445,-18.04956,39.96554,8.30356,1008.348
29.314038277,61.53615,-43.77845,17.52595,0.03401515,-1.064579,0.1152358,-18.04956,39.96554,8.30356,1008.348
29.346206665,59.0175,-35.61092,22.85792,0.2074011,-0.8670795,0.09500217,-17.66083,38.82814,9.19977,1008.349
29.380853176,44.88851,-26.02294,19.91615,0.1444532,-0.8885991,0.222178,-16.15434,39.56325,8.742031,1008.347
29.413025856,-19.06055,-47.74384,11.70368,0.007282392,-0.8483804,0.3139234,-16.15434,39.56325,8.742031,1008.349
29.447673321,-69.37206,-62.00743,10.04893,0.0585164,-0.7852923,0.2826355,-14.59667,39.90496,7.39327,1008.349
29.479845047,-98.85866,-67.57082,0.6107319,0.06605345,-1.077354,-0.07314825,-13.81793,39.53583,9.176386,1008.349
29.514492035,-48.42429,-56.26649,-4.9051,0.1240461,-0.9583474,-0.02402633,-12.62767,38.81349,13.57336,1008.351
29.546659947,-68.26631,-52.12354,-2.269758,0.05721892,-0.6906135,-0.09204947,-12.62767,38.81349,13.57336,1008.351
29.581307411,-119.8679,-52.89294,-3.434211,0.1449068,-0.8497604,-0.09128771,-12.22218,38.07347,15.74279,1008.351
29.613479614,-103.896,-48.63162,1.897759,0.125866,-0.7035616,-0.2793305,-11.40955,36.59504,20.20918,1008.352
29.648126125,-144.9315,-44.96215,11.39725,0.07359146,-0.7579246,-0.3761729,-11.40955,36.59504,20.20918,1008.352
29.680298805,-122.1408,-44.84378,16.79051,0.05273285,-0.8915804,-0.412748,-9.842381,34.34281,24.61166,1008.352
29.714946270,-134.7954,-46.38259,26.10613,-0.03580529,-0.7265114,-0.401403,-8.665479,30.94117,28.12909,1008.354
29.747114181,-121.1579,-46.67851,25.67712,-0.03964275,-1.131401,-0.6042529,-8.665479,30.94117,28.12909,1008.354
29.781761169,-45.90564,-42.53556,31.49939,-0.03880898,-0.8371536,-0.5893029,-7.110379,27.91529,31.64273,1008.356
29.813932896,-116.612,-41.05594,30.0285,-0.05247984,-0.8052139,-0.5474601,-4.816423,24.10017,33.88114,1008.352
29.846105576,-112.0048,-42.89067,26.10613,-0.1266178,-0.9835828,-0.6889827,-4.816423,24.10017,33.88114,1008.352
29.880753040,-87.4326,-43.36415,24.94168,-0.0667356,-0.8621498,-0.7646962,-2.905724,22.18959,35.60214,1008.354
29.912924767,-106.1689,-40.8192,24.3901,-0.09514436,-0.7717895,-0.6465604,-1.367649,18.3852,37.84442,1008.354
29.947567940,-117.4106,-44.48867,15.99377,-0.1346629,-0.9010693,-0.7571533,-1.367649,18.3852,37.84442,1008.354
29.979739666,-88.59978,-42.47638,11.27467,-0.0987958,-0.7525693,-0.8001257,0.5431032,15.33203,39.63476,1008.355
30.014387131,-86.57258,-35.13744,10.96824,-0.1470999,-0.6275991,-0.8015367,2.063846,11.51059,40.53819,1008.355
30.046559334,-80.67525,-36.79462,10.72309,-0.2634216,-0.5923681,-0.8396848,2.063846,11.51059,40.53819,1008.355
30.081206322,-77.35802,-38.92528,12.37784,-0.242098,-0.4456793,-0.8121645,3.199788,7.306891,40.93538,1008.357
30.113378525,-134.304,-40.52327,6.432999,-0.3306164,-0.3830716,-0.8069664,4.715266,4.242034,41.38881,1008.357
30.148021698,-134.7954,-42.94986,-1.534314,-0.3413985,-0.4777651,-0.8828384,4.715266,4.242034,41.38881,1008.359
30.180193901,-104.9403,-42.18045,1.223602,-0.2947612,-0.2496102,-0.7859567,5.846984,1.113339,41.39821,1008.361
30.214840889,-132.3382,-45.08052,6.984582,-0.4776216,-0.09041185,-0.9044019,8.11654,-4.63019,41.8608,1008.361
30.247012615,-123.1237,-49.75613,5.636268,-0.345011,-0.114916,-0.8494473,8.11654,-4.63019,41.8608,1008.362
30.281660080,-117.9635,-48.86836,9.865072,-0.4082426,0.04315665,-0.7848942,9.213689,-8.872061,39.26153,1008.364
30.313832760,-112.0048,-42.41719,10.90695,-0.3144795,-0.05864672,-0.9601282,9.95415,-14.61117,38.39302,1008.368
30.346000671,-50.82008,-26.79235,7.965175,-0.1778013,-0.2241862,-0.8755264,9.95415,-14.61117,38.39302,1008.37
30.380647659,-107.2746,-0.2774639,3.368648,-0.1960908,0.2989104,-0.4010938,11.81817,-18.47209,36.61683,1008.37
30.412819386,-148.1873,13.6902,-0.2472864,-0.1237328,-0.4120205,-1.028927,12.18254,-22.68048,35.80656,1008.369
30.447466850,131.8125,-50.64391,42.10205,0.7089552,0.6563286,-0.4234622,12.18254,-22.68048,35.80656,1008.372
30.479639530,-159.1833,69.3833,36.89265,-1.464088,-1.272357,-2.682073,12.54584,-27.27082,34.93439,1008.376
30.514286041,-143.58,137.8604,30.70266,-0.07869837,0.4116207,-0.2489481,13.66862,-26.53603,34.03231,1008.376
30.546454430,185.8713,-142.9133,82.61277,-0.5163226,-0.1506881,-1.822747,13.66862,-26.53603,34.03231,1008.376
30.581100941,-125.028,4.457337,129.8651,-2.083229,0.6288001,-2.772928,10.62365,-32.60827,32.73871,1008.372
30.613273621,-718.2615,166.6835,116.5045,-0.9420362,1.008216,-2.056004,9.114532,-36.01213,33.14572,1008.374
30.647920608,-38.71828,-71.53622,59.99786,0.02242115,0.7992212,0.0405754,4.771428,-41.08729,19.10147,1008.374
30.680092335,188.5742,-134.9825,81.81604,-0.4163457,-0.07759377,-0.5872303,4.771428,-41.08729,19.10147,1008.374
30.714739799,-76.49799,-70.94437,46.0857,-0.175409,2.388178,-0.1700549,0.9487677,-46.47197,16.08696,1008.375
30.746907711,-86.20399,-68.63615,19.30327,-0.4012428,-0.4061844,-0.1986966,1.373906,-43.76474,19.57848,1008.375
30.781641006,32.84815,-67.98512,33.88958,0.01133548,0.5483578,-0.4607407,1.373906,-43.76474,19.57848,1008.378
30.813813209,59.07893,15.34738,26.41257,0.05365074,0.2636061,-0.2234474,0.1939163,-44.93671,16.08338,1008.385
30.848459721,70.62785,25.11291,35.66691,-0.3122695,0.4155462,0.2357451,0.5847425,-42.96152,16.96439,1008.386
30.880632400,371.4526,-125.7497,99.16026,0.3606108,0.0659873,-0.4756885,0.5847425,-42.96152,16.96439,1008.387
30.912804604,99.8073,20.55566,-7.17272,-0.2750393,0.6220548,-1.47448,-1.619134,-41.34305,21.81388,1008.387
30.947447777,146.863,100.1003,-46.39642,-0.5983247,0.5258389,-0.8157732,-2.303929,-37.45357,27.09076,1008.386
30.979619503,175.7967,-25.66783,5.758842,-0.6185812,0.2868311,-1.485124,-2.303929,-37.45357,27.09076,1008.391
31.014266491,22.03639,-20.34118,-14.22073,-0.3208402,0.1706186,-1.131217,-2.995532,-35.09431,31.92879,1008.391
31.046439171,-40.92978,5.049187,-54.67017,-0.3087338,0.1860572,-0.5687089,-3.3368,-30.86318,34.52419,1008.394
31.081085682,-66.4234,-2.112199,-92.91327,-0.2189381,0.2030988,-0.6927981,-3.3368,-30.86318,34.52419,1008.395
31.113258362,-22.80781,33.87229,-56.50877,-0.4037024,0.2614714,-1.047273,-1.830251,-31.27066,34.13579,1008.395
31.147901058,56.06884,71.3364,-11.83053,-0.4506414,0.2684281,-1.119559,0.4129877,-33.23127,32.34837,1008.4
31.180073261,18.59629,26.88846,7.168443,-0.4824117,0.1721973,-0.9046022,0.4129877,-33.23127,32.34837,1008.403
31.214719772,1.580067,10.73095,19.73228,-0.3339439,0.1773702,-0.8934129,0.4242868,-33.60104,33.24279,1008.406
31.246892452,-17.3405,13.51264,12.0714,-0.3018927,0.2065656,-0.9262473,-1.08092,-32.43048,33.69122,1008.401
31.281539917,-44.55417,24.28432,-0.9214437,-0.2702677,0.2575804,-0.9622717,-1.08092,-32.43048,33.69122,1008.401
31.313711643,-56.04166,15.52493,3.1235,-0.2966639,0.2808073,-0.862542,-1.842835,-32.80656,33.25067,1008.403
31.348354817,-36.50679,-2.881604,2.51063,-0.2773538,0.2969611,-0.8953651,-2.255958,-33.59756,30.57864,1008.408
31.380526543,-18.20053,-4.83471,-1.227879,-0.2994103,0.3192263,-0.9176297,-2.255958,-33.59756,30.57864,1008.409
31.412699223,0.1057373,0.2552013,-0.1247124,-0.3419738,0.3057616,-0.8657696,-3.395759,-35.11087,30.20936,1008.41
31.447345734,12.51468,-0.987684,8.087749,-0.2949777,0.3105372,-0.9085847,-2.651435,-35.13297,29.31293,1008.41
31.479518414,6.801652,4.043042,4.533102,-0.2824047,0.3113369,-0.9226733,-2.651435,-35.13297,29.31293,1008.41
31.514164925,-2.904353,5.759408,-4.169656,-0.2762848,0.3028437,-0.8871325,-3.007345,-35.48681,31.03809,1008.413
31.546333313,-6.590178,6.410442,-6.314702,-0.2915851,0.3245226,-0.918141,-3.395759,-35.11087,30.20936,1008.413
31.580979824,-2.228618,-2.053014,-6.008266,-0.3178035,0.3034975,-0.8920417,-3.395759,-35.11087,30.20936,1008.416
31.613152504,-0.3242756,-5.07145,-1.963323,-0.2903203,0.3253012,-0.9422463,-3.39055,-34.72486,30.59002,1008.414
31.647799492,-4.501544,1.202162,-1.350453,-0.2967933,0.307286,-0.8907605,-2.645658,-35.12729,29.75921,1008.414
31.679971695,-10.09171,4.338967,2.08162,-0.3013238,0.3236231,-0.9151656,-2.645658,-35.12729,29.75921,1008.416
31.714618683,-13.16323,8.955398,8.45547,-0.2906867,0.3312171,-0.9306262,-2.645915,-35.50842,29.76107,1008.418
31.746786594,-11.6889,9.783988,6.371712,-0.2732002,0.33392,-0.8835311,-2.65195,-35.89524,29.31665,1008.419
31.781434059,-11.99605,5.936963,4.900824,-0.271661,0.3315633,-0.8734429,-3.791547,-35.88482,28.87617,1008.419
31.813605785,-4.562974,2.504232,2.878352,-0.2590292,0.3348342,-0.8817278,-3.791547,-35.88482,28.87617,1008.419
31.848252773,0.1671677,-2.230569,-0.7375826,-0.2688803,0.3459218,-0.8979325,-4.169744,-36.26059,28.87997,1008.421
31.880424976,2.562954,-4.183675,1.284889,-0.2865035,0.3459587,-0.9045157,-4.175778,-36.64741,28.43555,1008.424
31.915071964,1.334346,-7.912331,2.08162,-0.2743998,0.3404914,-0.9133497,-4.175778,-36.64741,28.43555,1008.426
31.947239876,-7.020191,-4.420415,-1.779462,-0.2777083,0.3497939,-0.9050481,-3.791804,-36.26595,28.87803,1008.429
31.979412556,-16.60333,-4.83471,-2.760054,-0.2748414,0.3395315,-0.8492476,-3.791547,-35.88482,28.87617,1008.429
32.014059544,-4.624404,-11.81854,-2.331045,-0.2851767,0.3564278,-0.8678098,-3.791547,-35.88482,28.87617,1008.429
32.046231747,-2.597201,-6.49189,-2.269758,-0.2816007,0.3681994,-0.9125721,-3.4199,-36.65814,28.43168,1008.431
32.080878735,-0.8157189,-1.461164,-1.963323,-0.3061789,0.354581,-0.8690751,-3.04196,-36.66351,28.42974,1008.429
32.113050461,5.695905,-10.93077,1.591324,-0.300346,0.357916,-0.87344,-3.04196,-36.66351,28.42974,1008.429
32.147693634,0.3514589,-13.47572,8.210322,-0.3108984,0.3794879,-0.9782396,-3.04196,-36.66351,28.42974,1008.431
32.179865837,-40.00832,-10.87158,12.62299,-0.331912,0.3930675,-0.9302136,-3.04196,-36.66351,28.42974,1008.431
32.214512825,-66.66912,-9.096031,6.249138,-0.3589972,0.4229214,-0.9157368,-3.04196,-36.66351,28.42974,1008.431
32.246685028,-64.02761,-6.432705,25.37069,-0.3082235,0.4922863,-0.8886467,-2.675576,-36.68025,27.53525,1008.431
32.281581402,-49.46861,34.76006,32.84771,-0.3862334,0.466178,-0.92573,-3.083179,-37.8467,25.31137,1008.431
32.313754082,-31.89951,64.41176,10.84566,-0.2925198,0.5599136,-0.7947279,-3.083179,-37.8467,25.31137,1008.431
32.348396301,-30.79376,54.05438,12.0714,-0.2736896,0.5388423,-0.8085732,-4.246347,-39.76388,23.15882,1008.431
32.380568981,-50.63578,-1.816274,-27.88773,-1.03056,1.471992,-1.199661,-6.15338,-39.75409,21.82965,1008.431
32.415215492,-265.2737,-222.8723,-119.0828,-1.559229,0.9243811,-0.5470977,-6.15338,-39.75409,21.82965,1008.429
32.447388172,-304.712,-121.0149,-69.74677,0.8121755,-0.1204125,-1.005372,-6.943359,-40.15779,19.22145,1008.429
32.482034683,-90.50412,-33.717,-23.7815,-0.9494997,0.8128674,-0.6419123,-2.552472,-42.71303,8.18021,1008.431
32.514207363,-170.6094,-79.17109,-48.72532,-0.452447,0.9187822,-0.3709374,-2.552472,-42.71303,8.18021,1008.431
32.546375275,-165.1421,-66.8606,-52.95413,-0.6726044,0.7902882,-0.4330844,0.7917719,-43.19852,3.765614,1008.431
32.581022262,-232.8384,-71.89133,-74.28201,-0.5251743,0.9074857,-0.309138,2.985377,-42.92268,-1.985744,1008.429
32.613193989,-307.8449,-64.78913,-106.2125,-0.6331733,0.8262718,-0.4620757,2.985377,-42.92268,-1.985744,1008.429
32.647841453,-177.981,-91.71831,-72.62726,-0.05675492,-0.007199155,-0.1643998,4.412362,-41.44056,-8.631687,1008.429
32.680014133,-96.95432,-55.97056,-103.6385,-1.253235,1.024503,0.04565983,8.090638,-38.5467,-16.63521,1008.429
32.714660644,-243.8344,-47.98058,-130.6661,-0.4851279,1.3086,0.3719684,8.090638,-38.5467,-16.63521,1008.433
32.746829033,-288.4329,-28.39034,-147.0297,-0.6302854,0.6953208,0.1195552,11.81673,-34.46313,-21.01031,1008.433
32.781475544,-375.6641,36.41724,-154.8745,-0.671195,0.4926121,0.05319583,14.75832,-30.01613,-27.61481,1008.433
32.813648224,-142.7814,61.98517,-165.1707,-0.4345449,-1.437655,0.40284,19.23177,-20.23849,-32.97801,1008.433
32.848294735,53.05875,72.81602,-163.8836,-0.5224482,0.1464093,0.3839434,19.23177,-20.23849,-32.97801,1008.432
32.880466938,100.483,85.42243,-143.0461,-0.6965927,-0.1316441,0.469072,23.76899,-8.874592,-33.50332,1008.43
32.915114403,209.6449,67.84449,-122.0859,-0.7123722,0.1945069,0.5822859,27.26329,-6.228256,-31.36642,1008.43
32.947282314,144.2829,57.36874,-95.48732,-0.7670195,-0.002361029,0.4462129,27.26329,-6.228256,-31.36642,1008.428
32.981929302,112.032,31.32733,-89.35862,-1.026633,-0.03942369,0.6970416,30.30915,-7.391865,-29.59119,1008.428
33.014101505,128.1882,-2.408124,-75.2626,-1.195285,0.0962104,0.3642618,32.97758,-7.787839,-27.81775,1008.428
33.046273708,185.3799,-13.00224,-56.01848,-1.191234,-0.06845983,0.2871926,32.97758,-7.787839,-27.81775,1008.428
33.080920219,297.9204,0.07764622,-45.10939,-1.166209,-0.2420226,0.3293901,34.4943,-7.80444,-27.44296,1008.428
33.113092899,274.2083,-9.273586,-62.0859,-0.981866,-0.2807653,0.3336166,35.27175,-10.07924,-25.65054,1008.426
33.147735596,282.5628,-15.84312,-79.92042,-0.8563283,-0.09164244,0.1402406,35.27175,-10.07924,-25.65054,1008.426
33.179908276,341.4745,-17.9146,-90.64565,-0.7445119,-0.005578944,0.1061668,35.68127,-14.6241,-22.95246,1008.426
33.214554787,393.9976,-9.451141,-73.36271,-0.7880808,0.5312734,-0.1700065,37.23084,-17.27453,-19.88696,1008.43
33.246726990,261.5536,5.463482,-37.26465,-1.015042,1.566715,-0.6760559,37.23084,-17.27453,-19.88696,1008.43
33.281374455,-224.0538,27.42112,-51.72839,-1.16975,-0.5302889,0.3959726,38.04709,-19.51115,-15.09808,1008.43
33.313546181,100.5445,6.351257,-35.30347,-1.239608,0.1691553,0.164765,39.5749,-21.42124,-13.75767,1008.429
33.348189354,-15.43616,-10.98995,-40.20643,-0.914714,0.1596665,0.2137111,39.5749,-21.42124,-13.75767,1008.429
33.380361557,-4.071531,-18.74319,-47.80602,-0.8131774,-0.1642025,0.1999717,40.3381,-19.13949,-13.32642,1008.429
33.447180271,-30.97805,-14.89616,-49.33819,-0.8250833,-0.3031798,0.3604068,40.32757,-17.62633,-14.22643,1008.429
33.481827736,-6.098734,-3.41427,-37.0195,-1.101674,-0.3892384,0.4148162,41.07318,-15.74277,-15.13216,1008.43
33.513999462,11.96181,8.126807,-18.38824,-1.065913,-0.118567,0.416232,41.82431,-14.23466,-15.58975,1008.43
33.548642635,9.25887,12.92079,-10.48222,-0.9803185,-0.2952411,0.4086747,41.82431,-14.23466,-15.58975,1008.43
33.580814361,28.67088,18.30663,-9.011332,-0.9687268,-0.1077837,0.3035901,42.2088,-13.09094,-15.15099,1008.429
33.612987041,22.58927,12.92079,-13.424,-0.9882101,-0.1859545,0.2877035,42.59855,-12.7038,-14.26222,1008.429
33.647633552,13.43614,2.208307,-14.58845,-0.9453612,-0.0001171107,0.2444918,42.59855,-12.7038,-14.26222,1008.429
33.679806232,15.95479,-2.348939,-12.9337,-0.9907097,-0.2082407,0.2913991,42.60407,-13.07925,-13.81408,1008.429
33.714452743,14.23473,-16.02068,-8.704896,-0.9195676,-0.1254789,0.1805577,42.24398,-12.29456,-12.47703,1008.43
33.746621132,11.65466,-20.81466,-6.069553,-0.9931385,-0.08111451,0.3474177,42.24398,-12.29456,-12.47703,1008.429
33.781268597,1.825789,-30.34345,-3.556786,-0.8896459,-0.208177,0.2388826,42.59855,-12.7038,-14.26222,1008.429
33.813440323,0.5971806,-23.47799,-0.3698605,-0.98251,-0.23266,0.4660871,43.36047,-12.32772,-13.82167,1008.429
33.848087788,0.7200414,-25.72702,-0.4924345,-0.9523157,-0.2550356,0.353315,42.96519,-12.33941,-15.15858,1008.429
33.880259514,9.504591,-27.62094,7.536166,-0.8710353,-0.02701941,0.3915503,42.96519,-12.33941,-15.15858,1008.429
33.914906502,3.115828,-21.93918,10.04893,-0.9084163,-0.2615956,0.4121372,42.95338,-12.73191,-16.04928,1008.429
33.947074413,-2.597201,-17.02682,10.41666,-0.9937401,-0.1296098,0.4154675,41.81378,-12.72149,-16.48976,1008.43
33.981721878,-0.8771493,-17.14519,22.36763,-0.9075709,-0.2902499,0.4104471,41.81378,-12.72149,-16.48976,1008.43
34.013893604,6.371639,-16.19823,27.88346,-0.9746702,-0.1514302,0.4305336,41.42485,-13.10781,-17.31477,1008.426
34.048541069,-4.501544,-15.90231,25.73841,-0.8962256,-0.07749948,0.4381231,41.41335,-14.26177,-18.13799,1008.426
34.080712795,-7.265913,-14.77779,31.07038,-0.8819785,-0.3104513,0.3878698,41.41335,-14.26177,-18.13799,1008.426
34.112885475,14.91047,-13.83083,32.90899,-0.864419,0.06161522,0.4972952,40.64515,-15.40581,-19.0211,1008.428
34.147527695,-14.26898,-17.14519,43.38907,-0.9693061,-0.2452727,0.4754999,39.89427,-16.53278,-18.56537,1008.426
34.179700375,8.828856,-20.40037,39.957,-0.8283845,0.1619481,0.4394641,39.89427,-16.53278,-18.56537,1008.426
34.214346886,-13.22466,-24.42495,39.22155,-1.127836,-0.373498,0.487972,39.50401,-17.68219,-19.45042,1008.428
34.246519566,21.91353,-40.76001,19.30327,-0.6693326,0.7045088,0.404857,38.74157,-18.82053,-19.88725,1008.428
34.281166077,-25.87933,-30.9353,3.675083,-1.085772,-0.6095632,0.5555233,38.74157,-18.82053,-19.88725,1008.428
34.313338757,-115.9363,-29.86997,-12.99499,-0.9868007,0.6267164,0.8756814,37.20619,-19.58407,-21.66092,1008.428
34.347980976,117.4993,-53.72153,-0.9827307,-0.8606747,0.3133526,0.4145037,36.81778,-19.20812,-22.48965,1008.428
34.380153656,-80.06095,-61.94825,14.21645,-0.7401993,-0.6203265,0.4524361,36.81778,-19.20812,-22.48965,1008.43
34.414800644,62.58047,-32.59248,33.09285,-0.6797224,0.1622004,0.8829646,36.04482,-18.83331,-23.82648,1008.43
34.446972847,66.51202,-34.07211,62.75577,-1.105741,-0.3083894,0.7630423,35.26557,-19.22644,-25.60588,1008.432
34.481619835,104.3531,-39.39876,82.12247,-0.9620406,0.03630058,0.7394791,35.26557,-19.22644,-25.60588,1008.437
34.513792038,133.4097,-44.66622,87.33187,-1.122451,0.1542861,0.6412107,33.00191,-21.85648,-25.13497,1008.437
34.548435211,179.114,-57.8053,61.89775,-1.119797,0.453611,0.8123534,31.51699,-24.85565,-22.88094,1008.437
34.580606937,86.72262,-69.70148,14.70675,-1.11897,0.6577961,1.044425,31.51699,-24.85565,-22.88094,1008.435
34.615253925,-7.634495,-76.62613,-32.05525,-1.237837,0.1272073,0.4540843,28.07096,-30.50151,-21.11394,1008.437
34.647426128,-40.5612,-60.05433,-49.95107,-0.8212868,1.021383,0.1712615,26.1855,-32.75579,-20.64682,1008.435
34.679598331,-219.3851,-43.83763,-12.87241,-0.7977673,0.9885085,0.140405,26.1855,-32.75579,-20.64682,1008.435
34.714245319,-231.0569,-26.43724,-45.72226,-0.8724077,0.2617992,0.2045184,25.01784,-32.77298,-23.25495,1008.435
34.746413708,-273.9353,-10.51647,-67.234,-1.020105,0.4116607,0.09386211,25.3414,-29.02305,-27.67454,1008.435
34.781060219,-178.5953,25.58639,-65.76311,-0.8553428,0.09442332,0.2256332,25.3414,-29.02305,-27.67454,1008.435
34.813232899,-80.5524,62.75457,-52.21869,-0.8563495,-0.002425751,0.4431899,25.67197,-22.21918,-31.7265,1008.435
34.847879410,-52.60156,100.4554,-32.05525,-0.6205055,-0.1334345,0.3488114,26.80515,-14.6183,-32.21579,1008.433
34.880051613,-70.35495,119.513,-0.3085735,-0.8385569,0.02302391,0.167048,26.80515,-14.6183,-32.21579,1008.433
34.914698601,-56.10309,102.1126,35.85077,-0.5983844,-0.1058334,0.3546165,29.56226,-11.18109,-28.67616,1008.433
34.946866989,-86.69543,122.9457,62.57191,-0.4737212,-0.1545293,0.2884639,32.24874,-9.274023,-25.63879,1008.432
34.981513500,-138.4198,95.89819,87.69959,-0.6225833,-0.5556203,0.4219881,34.57231,-10.77473,-21.24389,1008.43
35.013686180,-108.749,83.29178,84.26752,-0.315318,-0.557749,0.3439116,34.57231,-10.77473,-21.24389,1008.428
35.048333168,-223.3781,69.08737,68.39418,-0.5196323,-0.6662877,0.2991333,35.35078,-11.525,-19.45892,1008.424
35.080504894,-233.8827,57.78304,54.17559,-0.08977403,-1.003074,0.3954936,36.47651,-14.97699,-19.89425,1008.424
35.115152359,-33.86528,43.697,37.44423,-0.4505442,-2.122881,0.2821424,36.47651,-14.97699,-19.89425,1008.421
35.147320271,99.68444,-14.89616,18.20011,-0.5127468,0.2654086,2.35332,36.8316,-14.62396,-21.68317,1008.421
35.181967258,-140.7542,-75.20569,-12.0144,-1.089902,-1.071223,0.9845914,36.82009,-15.77792,-22.5064,1008.419
35.214139462,-68.51203,-39.81305,-30.76822,-1.206606,-0.06644823,-0.09149902,36.82009,-15.77792,-22.5064,1008.418
35.246311665,-24.405,-3.828565,-27.21358,-1.341014,-0.4059966,0.1643436,37.15784,-15.44195,-25.63416,1008.418
35.280958176,-35.40104,-4.59797,-49.33819,-1.659639,-0.3581454,0.4366669,36.76411,-13.16683,-26.98223,1008.419
35.313130856,-61.81612,-0.2182788,-58.46996,-0.8247805,-0.3135804,0.4596102,36.76411,-13.16683,-26.98223,1008.419
35.347773552,-39.63974,12.32894,-45.23196,-0.5837256,-0.1955732,0.7489794,36.37673,-11.26636,-27.8184,1008.419
35.379946232,-33.92671,31.68244,-27.15229,-0.5093868,-0.5529988,-0.046586,36.75069,-8.609474,-28.27964,1008.419
35.414592743,-41.97409,41.3296,-0.4924345,-0.5808721,-0.9430642,0.05594119,36.75069,-8.609474,-28.27964,1008.418
35.446764946,-3.088644,42.09901,1.652611,-0.8617336,-0.1302606,0.03827076,38.26952,-6.719597,-27.8504,1008.418
35.481411457,40.46552,49.73387,6.61686,-1.085322,-0.3712732,-0.2035936,39.03638,-6.338643,-27.02732,1008.418
35.513584137,-1.061441,31.62326,2.449343,-1.309241,-0.1416674,0.1589963,39.03638,-6.338643,-27.02732,1008.418
35.548226833,-16.84906,12.74324,-11.27895,-0.9360954,-0.2980471,0.387995,40.57125,-6.337378,-25.24994,1008.421
35.580399036,58.83321,21.38425,-15.7529,-1.184635,-0.3663975,0.113083,40.9497,-5.580479,-25.25559,1008.423
35.615046024,-21.64063,15.76167,-18.69468,-0.9519765,-0.6709678,0.4207368,40.9497,-5.580479,-25.25559,1008.423
35.647218227,9.3203,25.76394,-24.70081,-1.037463,-0.6156814,-0.08121721,41.3392,-5.574478,-24.36497,1008.423
35.681864738,-2.53577,31.32733,-18.69468,-1.007503,-0.622945,0.003275247,41.72369,-4.43076,-23.9262,1008.423
35.714037418,74.37511,24.28432,-20.71715,-0.9664238,0.1438322,0.4560268,41.72369,-4.43076,-23.9262,1008.421
35.746205330,-58.25315,15.28819,-22.31061,-1.043464,-1.094443,0.01707572,42.88005,-4.043805,-22.21249,1008.421
35.780852318,37.02542,8.245177,-15.81419,-0.7086393,0.1768883,-0.1269154,42.88583,-4.03812,-21.76621,1008.422
35.813024521,-18.50768,9.902358,-5.640544,-0.8708858,-0.7841503,0.02043346,42.88583,-4.03812,-21.76621,1008.422
35.847671509,-58.31459,1.498087,-17.83666,-0.8638985,-0.6945826,-0.004439312,42.89816,-2.88335,-20.87923,1008.422
35.879843712,25.04649,17.53723,-3.924508,-0.656496,-0.1327714,-0.2181607,43.6543,-2.512954,-20.88496,1008.424
35.914490700,6.555931,26.53335,0.6107319,-0.9575571,-0.6324492,0.3767624,43.6543,-2.512954,-20.88496,1008.424
35.946658611,-16.05046,18.24745,-15.20132,-0.8871383,-0.3815421,0.04029223,43.66636,-1.739317,-19.99612,1008.426
35.981305599,32.90958,29.0783,-11.5241,-0.8444131,-0.2547006,-0.1634285,44.04983,-2.120134,-19.54992,1008.426
36.013477802,-37.18252,25.11291,-1.718175,-0.8074059,-0.6061784,0.2295321,44.04983,-2.120134,-19.54992,1008.424
36.048124790,1.887219,22.68632,-28.13288,-0.8608903,-0.6131726,-0.208646,44.06241,-0.5842304,-18.6648,1008.424
36.080296993,-1.00001,27.83542,-6.314702,-0.7808122,-0.3008077,-0.1219862,45.20753,-0.9700997,-17.77618,1008.422
36.114943981,-19.79772,20.67403,-17.1625,-1.084677,-0.5971836,0.2731634,45.60167,-0.1977708,-16.5705,1008.422
36.147111893,-11.50461,20.73322,-15.44647,-0.7364551,-0.4127412,-0.1319988,45.60167,-0.1977708,-16.5705,1008.422
36.181758881,21.72924,27.8946,-7.540442,-0.9500092,-0.6203361,-0.1249696,45.24132,0.2057858,-15.23159,1008.422
36.213931084,-13.22466,12.74324,-13.66914,-0.9186529,-0.6136453,-0.05531709,46.00983,1.794475,-14.35065,1008.422
36.248578072,-11.44318,12.56568,-3.924508,-0.8178464,-0.620548,-0.1932025,46.00983,1.794475,-14.35065,1008.422
36.280749798,-20.28916,4.575707,-5.824406,-0.9044469,-0.5836851,-0.06339664,46.39355,1.794791,-13.9063,1008.424
