Time (s),Gyroscope X (deg/s),Gyroscope Y (deg/s),Gyroscope Z (deg/s),Accelerometer X (g),Accelerometer Y (g),Accelerometer Z (g),Magnetometer X (uT),Magnetometer Y (uT),Magnetometer Z (uT),Barometer (hPa)
0.025078297,0.7211359,0.09485204,-0.01360693,0.02538458,-0.7389464,0.6938136,-14.73939,41.04211,-10.59158,1007.68
0.057857513,0.2862904,-0.02333332,0.04748209,0.02584453,-0.7297458,0.6856155,-15.0914,40.30222,-11.44987,1007.68
0.090637207,-0.3349174,0.09485204,-0.01360693,0.02974244,-0.7350606,0.6870583,-14.73408,40.66579,-11.45607,1007.68
0.123416901,-0.2106758,0.03575936,0.2307491,0.02634356,-0.7355927,0.6846603,-14.73408,40.66579,-11.45607,1007.68
0.158717632,0.5347735,-0.02333332,0.1696601,0.02829664,-0.740964,0.6803316,-14.72659,40.30729,-11.01523,1007.678
0.191497326,0.2241696,0.03575936,-0.01360693,0.02538789,-0.7419255,0.6856349,-15.45475,40.30904,-11.01429,1007.68
0.224277020,0.6590151,0.2130374,-0.01360693,0.02536332,-0.7301866,0.6928377,-15.45475,40.30904,-11.01429,1007.68
0.257056236,0.09992807,0.03575936,-0.07469594,0.02537529,-0.7360611,0.6885142,-14.72659,40.30729,-11.01523,1007.68
0.289835930,0.3484112,-0.082426,-0.380141,0.02343487,-0.7380689,0.6822642,-15.46223,40.66753,-11.45513,1007.678
0.325136661,1.09386,-0.02333332,-0.196874,0.02731311,-0.7351044,0.6836946,-15.46223,40.66753,-11.45513,1007.676
0.357915878,0.2862904,-0.2006114,0.04748209,0.02973708,-0.7326188,0.6880174,-15.09743,40.6726,-11.02049,1007.674
0.390695572,0.7832565,0.2130374,-0.257963,0.02245609,-0.7336503,0.6885176,-14.73335,40.67173,-11.02096,1007.674
0.423474789,0.03780729,-0.1415187,-0.380141,0.02003827,-0.7370496,0.6928607,-14.73335,40.67173,-11.02096,1007.676
0.458775997,0.5347735,-0.4369821,-0.319052,0.02438719,-0.729768,0.6841748,-15.09816,40.66666,-11.4556,1007.676
0.491555691,0.2241696,-0.1415187,-0.319052,0.02488689,-0.734594,0.6899573,-15.09212,40.29627,-11.88498,1007.676
0.524334907,-0.02431348,0.2721301,0.04748209,0.02585318,-0.7326412,0.6894707,-15.09212,40.29627,-11.88498,1007.676
0.557114601,0.2241696,-0.2597041,-0.196874,0.02633781,-0.7321467,0.6899502,-15.0914,40.30222,-11.44987,1007.676
0.589894295,0.410532,0.03575936,-0.196874,0.02100311,-0.7341093,0.694298,-15.4562,40.29715,-11.88451,1007.676
0.625195503,0.4726527,0.1539447,-0.196874,0.02683062,-0.7355652,0.6880287,-15.46223,40.66753,-11.45513,1007.676
0.657974243,-0.148555,-0.2597041,-0.01360693,0.02635379,-0.7389685,0.6894791,-15.46223,40.66753,-11.45513,1007.676
0.690753937,0.2862904,0.03575936,-0.319052,0.02344501,-0.7409409,0.6894889,-15.09816,40.66666,-11.4556,1007.676
0.723533153,0.03780729,-0.2006114,-0.07469594,0.02293481,-0.7312279,0.686106,-15.81955,40.30397,-11.44893,1007.676
0.756312847,0.4726527,-0.3187967,-0.135785,0.02585674,-0.734606,0.6870668,-15.81955,40.30397,-11.44893,1007.674
0.791614056,0.5968943,0.09485204,-0.257963,0.02536496,-0.7321817,0.6861016,-15.0914,40.30222,-11.44987,1007.676
0.824393272,0.03780729,0.09485204,-0.07469594,0.02876275,-0.7291407,0.6990858,-15.46223,40.66753,-11.45513,1007.676
0.857172966,-0.3970381,0.2130374,0.04748209,0.02341809,-0.7292389,0.6913968,-15.46223,40.66753,-11.45513,1007.674
0.889952660,-0.4591589,-0.2006114,-0.01360693,0.02779232,-0.7306534,0.6928326,-14.73408,40.66579,-11.45607,1007.674
0.925252914,-0.02431348,-0.02333332,-0.07469594,0.02926172,-0.7370095,0.6875437,-15.10565,41.02515,-11.89644,1007.674
0.958033085,0.6590151,-0.2006114,-0.257963,0.02586198,-0.737555,0.6832204,-15.10565,41.02515,-11.89644,1007.674
0.990812778,0.7832565,0.2130374,-0.257963,0.02681527,-0.7287335,0.6899439,-15.09816,40.66666,-11.4556,1007.676
1.023591518,0.09992807,-0.2006114,-0.196874,0.02390662,-0.7301988,0.6928412,-15.44726,39.95054,-10.57345,1007.672
1.056371689,-0.3970381,-0.082426,-0.01360693,0.02486786,-0.7263045,0.691389,-15.44726,39.95054,-10.57345,1007.672
1.091672421,-0.9561251,0.03575936,-0.01360693,0.02536539,-0.7321749,0.6870643,-15.46223,40.66753,-11.45513,1007.672
1.124451637,0.03780729,0.1539447,-0.07469594,0.02925118,-0.7331333,0.6846497,-15.10565,41.02515,-11.89644,1007.67
1.157231331,0.2237041,-0.02331171,-0.01366863,0.03022265,-0.7326148,0.6880162,-15.10565,41.02515,-11.89644,1007.67
1.190010548,-0.02514515,-0.02295749,0.1081629,0.0263417,-0.7336011,0.690915,-15.10419,41.03704,-11.02622,1007.67
1.225311756,0.9054508,-0.02278251,-0.1969331,0.02536207,-0.7291959,0.695243,-15.09743,40.6726,-11.02049,1007.67
1.258091450,0.03419361,-0.02309754,-0.01297857,0.02875642,-0.7272195,0.695232,-15.09743,40.6726,-11.02049,1007.67
1.290870190,-0.4623464,0.0359597,0.1701305,0.02925989,-0.7340069,0.6990919,-15.88023,40.30411,-11.44885,1007.67
1.323650360,-0.521998,0.1539058,-0.01350418,0.02439913,-0.7331169,0.6928445,-15.09816,40.66666,-11.4556,1007.67
1.356430054,-0.3344434,0.09464917,0.04754397,0.02778954,-0.730697,0.686575,-15.09816,40.66666,-11.4556,1007.67
1.391730785,-0.08406418,-0.08261797,0.1081177,0.03021763,-0.7296625,0.6923441,-15.09888,40.66071,-11.89071,1007.67
1.424510002,0.1642155,0.03531151,0.0468564,0.02391396,-0.7341251,0.6885148,-15.10492,41.03109,-11.46133,1007.67
1.457289696,0.1628839,-0.08301781,-0.01421297,0.0258456,-0.7297291,0.6880223,-15.10492,41.03109,-11.46133,1007.67
1.490068912,-0.5203873,-0.0831055,0.2300285,0.02681844,-0.7296942,0.6918707,-15.46827,41.03791,-11.02575,1007.67
1.525370121,-0.08397869,-0.2010376,0.2296127,0.02974869,-0.7364781,0.6933181,-14.74011,41.03617,-11.02669,1007.67
1.558149815,-0.7663795,0.2124856,0.1679516,0.02488393,-0.73363,0.6885118,-14.74011,41.03617,-11.02669,1007.67
1.590929031,0.1670352,0.03508296,-0.07660986,0.02294693,-0.7355843,0.6899634,-14.74157,41.02428,-11.89691,1007.67
1.623708725,0.2902255,0.09414375,-0.1980541,0.02341072,-0.7263234,0.6904297,-15.09067,40.30816,-11.01476,1007.67
1.656488418,-0.2077286,0.09396368,-0.1365792,0.02583835,-0.7263064,0.6899426,-15.09067,40.30816,-11.01476,1007.67
1.691788673,-0.2684113,0.0939773,0.107629,0.02779545,-0.732625,0.6894661,-15.469,41.03197,-11.46086,1007.666
1.724568367,-0.4528805,0.03481654,0.1070753,0.02537209,-0.7361113,0.6812938,-14.73335,40.67173,-11.02096,1007.666
1.757348061,-0.3889139,0.09402707,0.04549205,0.02538241,-0.7399908,0.6837066,-15.09067,40.30816,-11.01476,1007.666
1.790127277,0.4809978,-0.1420409,-0.01605067,0.0307162,-0.736527,0.6851327,-15.09067,40.30816,-11.01476,1007.666
1.825428486,-0.07920624,0.03556444,-0.01578879,0.02972941,-0.7292029,0.688975,-14.74011,41.03617,-11.02669,1007.669
1.858208179,-0.3891944,0.2129011,0.04515383,0.02682368,-0.7326431,0.6880243,-15.08463,39.93778,-11.44414,1007.673
1.890987396,-0.5127847,0.03564448,0.0450274,0.02488034,-0.7326761,0.6856222,-15.08463,39.93778,-11.44414,1007.673
1.923767090,0.1096169,0.1537586,0.1061244,0.02828552,-0.7350762,0.6865804,-15.09816,40.66666,-11.4556,1007.673
1.956546307,0.109579,0.03511323,0.1059599,0.02342479,-0.7331753,0.6856264,-15.46972,41.02602,-11.89597,1007.673
1.991847038,0.172699,-0.02402222,0.04452078,0.02634338,-0.7345853,0.6894725,-15.46972,41.02602,-11.89597,1007.673
2.024626732,-0.2008074,0.03502022,-0.01676907,0.02829037,-0.7370209,0.6870646,-14.72732,40.30135,-11.45034,1007.673
2.057405949,-0.1994432,0.09422961,0.2269846,0.02486572,-0.726338,0.6865754,-15.09743,40.6726,-11.02049,1007.673
2.090185642,-0.5082204,-0.1417468,0.2259636,0.02734637,-0.7487277,0.6856405,-15.09743,40.6726,-11.02049,1007.673
2.122965336,1.726183,0.1535341,-0.1401887,0.02733178,-0.7413787,0.6918871,-15.46151,40.67347,-11.02002,1007.673
2.158266068,0.2307292,0.3298046,-0.01735725,0.02486143,-0.7238794,0.6899412,-15.46972,41.02602,-11.89597,1007.672
2.191045761,-0.886475,-0.0845397,0.4094167,0.02925094,-0.7306111,0.6971614,-15.46972,41.02602,-11.89597,1007.667
2.223825455,-0.7582889,0.03341581,0.1639282,0.02440318,-0.7365897,0.6837038,-15.09743,40.6726,-11.02049,1007.667
2.256604672,-0.7556658,-0.02583167,0.1020944,0.02488339,-0.7341438,0.6846616,-15.46223,40.66753,-11.45513,1007.669
2.291905403,0.2401992,0.03313292,0.2237476,0.02830465,-0.7438694,0.6827427,-15.46223,40.66753,-11.45513,1007.669
2.324685573,0.9828956,0.09197943,-0.02067754,0.02585507,-0.7336219,0.6885095,-14.74084,41.03022,-11.4618,1007.667
2.357464313,-0.0138147,0.09169724,0.1623863,0.02729737,-0.7272684,0.6899406,-15.10419,41.03704,-11.02622,1007.667
2.390244007,-0.8820456,-0.02673229,0.2835191,0.02876373,-0.7321566,0.6856121,-15.10419,41.03704,-11.02622,1007.667
2.423023224,-0.1336248,0.09132086,0.2215236,0.02392522,-0.738495,0.6904468,-15.09816,40.66666,-11.4556,1007.667
2.458324432,-0.3191471,0.268272,0.03736105,0.0219863,-0.7404794,0.6875662,-15.09816,40.66666,-11.4556,1007.667
2.491104126,0.8606355,0.1494195,-0.08475853,0.02730806,-0.7331629,0.6827289,-15.09816,40.66666,-11.4556,1007.667
2.523883343,0.1752219,-0.0283378,-0.1453298,0.02390814,-0.7327009,0.6832177,-14.73408,40.66579,-11.45607,1007.669
2.556663036,-0.1977682,0.03040716,0.2209343,0.02391542,-0.7351127,0.6865909,-15.08463,39.93778,-11.44414,1007.669
2.591964245,-0.3203041,0.2075517,0.1592968,0.02876933,-0.7335842,0.6904279,-15.10419,41.03704,-11.02622,1007.669
2.624742985,-0.2572675,-0.02894227,0.2809211,0.02585948,-0.7355734,0.688031,-15.10419,41.03704,-11.02622,1007.671
2.657523155,0.1780026,0.2070832,-0.02532457,0.02683637,-0.7390113,0.6827389,-15.09743,40.6726,-11.02049,1007.671
2.690302849,0.4250391,0.02953539,0.15772,0.02050213,-0.7293034,0.6856275,-15.10419,41.03704,-11.02622,1007.673
2.723081589,0.175973,-0.02967779,0.03514814,0.02779356,-0.7316442,0.6904273,-15.10419,41.03704,-11.02622,1007.674
2.758382797,0.1132359,-0.08901067,0.09589128,0.02488981,-0.7365689,0.6861094,-15.09816,40.66666,-11.4556,1007.674
2.791162491,0.113164,-0.0298518,-0.02656237,0.02051404,-0.7336631,0.6890035,-15.46296,40.66158,-11.89024,1007.676
2.823941708,-0.3221426,0.08776945,0.09524489,0.02293338,-0.7292295,0.6933234,-15.46296,40.66158,-11.89024,1007.676
2.856721401,-0.5063925,-0.08958821,-0.08858284,0.02538978,-0.7429063,0.6846736,-15.46223,40.66753,-11.45513,1007.676
2.892022610,0.4255368,-0.08945438,0.03377364,0.0258621,-0.7370479,0.6861078,-15.09067,40.30816,-11.01476,1007.676
2.924801826,0.7338209,0.02872444,0.03394222,0.02246029,-0.7356051,0.6875578,-15.09067,40.30816,-11.01476,1007.678
2.957581520,0.3601899,-0.03037397,0.09462436,0.02440701,-0.7365295,0.6923682,-15.46296,40.66158,-11.89024,1007.68
2.990361214,0.7921439,0.205453,-0.210689,0.01904409,-0.7278209,0.6904423,-15.09743,40.6726,-11.02049,1007.68
3.023140430,-0.5118599,-0.2083287,0.0339127,0.01953635,-0.7317532,0.6846707,-15.09743,40.6726,-11.02049,1007.68
3.058441162,-0.01488756,-0.2076928,0.1560566,0.02877426,-0.7360327,0.6885062,-15.10492,41.03109,-11.46133,1007.678
3.091220856,0.1715937,0.1465791,-0.02742497,0.02440985,-0.7380006,0.6909263,-14.72732,40.30135,-11.45034,1007.678
3.124000073,-0.01535117,-0.09005527,0.09501794,0.02777968,-0.7257999,0.6904185,-14.72732,40.30135,-11.45034,1007.678
3.156779766,0.1710732,0.02847857,-0.210144,0.02391825,-0.7365837,0.685149,-15.0914,40.30222,-11.44987,1007.678
3.192080975,0.7901853,-0.03025732,-0.2092215,0.02683272,-0.7365426,0.6875488,-15.09743,40.6726,-11.02049,1007.678
3.224860191,0.7872567,-0.1483009,-0.2084836,0.02391228,-0.7331411,0.6899574,-15.09743,40.6726,-11.02049,1007.675
3.257639885,0.4131932,-0.08851101,-0.3907089,0.02487626,-0.7302142,0.6894694,-15.0914,40.30222,-11.44987,1007.674
3.290419102,0.411256,-0.2651872,-0.4498796,0.01953827,-0.7317231,0.6890029,-14.73939,41.04211,-10.59158,1007.677
3.323198795,0.2238603,-0.08710609,-0.3872059,0.02440351,-0.7360792,0.6870725,-14.73939,41.04211,-10.59158,1007.677
3.358499527,0.9672935,-0.2639278,-0.5687922,0.02536868,-0.7326285,0.6918786,-15.10419,41.03704,-11.02622,1007.677
3.391278744,0.465995,-0.1452596,-0.5665885,0.02682006,-0.7291636,0.6981276,-14.73335,40.67173,-11.02096,1007.677
3.424058437,0.1547772,0.09231464,-0.1985882,0.02875831,-0.7282001,0.6942707,-14.73335,40.67173,-11.02096,1007.677
3.456838131,-0.2790426,-0.1437282,0.04665392,0.02633653,-0.7321668,0.687062,-15.44944,39.93271,-11.87878,1007.679
3.492138862,-0.5883045,-0.1434124,-0.1364159,0.02731323,-0.7345973,0.686582,-15.46223,40.66753,-11.45513,1007.679
3.524918556,0.1573017,0.03415331,-0.1973128,0.02487748,-0.7322158,0.6817706,-14.73481,40.65984,-11.89118,1007.679
3.557698250,0.2795186,0.03377316,-0.1968918,0.02001452,-0.7263082,0.6966954,-14.73481,40.65984,-11.89118,1007.677
3.590477466,-0.4655104,-0.08391969,0.2919904,0.01808172,-0.7302173,0.6971873,-15.09888,40.66071,-11.89071,1007.677
3.623257160,-3.879599,-3.215191,-0.2583414,-0.00176328,-0.7551547,0.7068992,-15.0967,40.67854,-10.58538,1007.679
3.658558369,8.730919,-4.574323,-2.946258,0.0283189,-0.744656,0.7097002,-15.0967,40.67854,-10.58538,1007.679
3.691337109,0.09613115,-5.933455,-1.968834,0.02825188,-0.7204486,0.6889653,-15.46223,40.66753,-11.45513,1007.679
3.724116802,-3.755357,-10.4245,-1.663389,-0.006701326,-0.7170833,0.7246639,-15.09816,40.66666,-11.4556,1007.679
3.756896019,-10.83713,-14.62008,-0.4416085,0.04865783,-0.7150366,0.7423398,-15.09816,40.66666,-11.4556,1007.679
3.789675713,-12.07954,-16.0383,-0.6248755,0.05696817,-0.7438998,0.7139633,-15.46151,40.67347,-11.02002,1007.679
3.824976921,-18.72646,-19.52477,-7.711201,0.0129832,-0.8380989,0.6679989,-15.10419,41.03704,-11.02622,1007.679
3.857756138,7.98547,-30.92966,-14.24773,-0.02588085,-0.8099192,0.7749109,-15.10419,41.03704,-11.02622,1007.679
3.890535831,-10.65076,-61.06693,-31.29156,-0.0649481,-1.094531,0.9362074,-15.89157,41.05082,-10.15498,1007.679
3.923315525,40.53676,-96.64072,-55.84935,-0.08989202,-1.195529,1.080346,-16.62503,41.42888,-9.289545,1007.677
3.958615780,69.73352,-133.5737,-66.78428,-0.01159443,-0.5904022,1.298268,-16.62503,41.42888,-9.289545,1007.677
3.991395473,-54.75651,-194.7346,-73.74842,0.03546217,-0.7775722,1.290736,-18.4319,40.70437,-9.275736,1007.677
4.024175644,15.31572,-225.8764,-89.14285,0.1403754,-0.8464394,0.9964794,-20.60669,40.36895,-7.52674,1007.677
4.056954384,85.94704,-256.3091,-78.3301,0.1086629,-0.3879074,0.9270288,-20.60669,40.36895,-7.52674,1007.677
4.089734077,-2.326579,-293.9512,-59.4536,-0.00138569,-0.07293808,0.8281359,-24.65965,40.06181,-4.034869,1007.675
4.125035286,-52.83077,-317.8246,-64.03527,0.2346089,-0.604741,0.200682,-28.26644,38.59959,-0.5254023,1007.675
4.157814503,22.64597,-295.0149,-45.95293,0.3434115,-0.2487148,-0.0003591559,-28.26644,38.59959,-0.5254023,1007.674
4.190594196,-50.8429,-283.7281,-37.82809,0.3690495,-0.4823729,-0.3639773,-30.05367,37.61594,7.20183,1007.674
4.223373413,-41.33842,-250.0453,-31.41374,0.482354,-0.5848931,-0.5349749,-30.02103,36.62367,14.61592,1007.672
4.258674145,-64.01251,-218.9035,-27.87058,0.4170893,-0.5178281,-0.6177154,-30.02103,36.62367,14.61592,1007.67
4.291454315,-45.50052,-177.4204,-38.19462,0.554733,-0.6510193,-0.8161622,-28.18298,36.34404,21.14598,1007.67
4.324233055,-34.87786,-142.2603,-42.65412,0.5832929,-0.4147726,-0.8459491,-25.95454,34.59983,27.26337,1007.668
4.357012749,-67.42915,-105.091,-55.23846,0.7476529,-0.3197814,-0.9008759,-25.95454,34.59983,27.26337,1007.665
4.389792919,-85.38206,-64.84885,-54.93301,0.7049669,-0.1174119,-0.8139532,-22.96118,33.91732,31.187,1007.665
4.457872867,17.98692,-25.84769,-38.50006,0.7218389,-0.06211218,-0.7962662,-21.45143,31.34279,34.2098,1007.663
4.490652561,16.99298,-14.02915,-18.46287,0.7377282,0.001586071,-0.7602978,-21.02131,28.10444,37.36885,1007.663
4.523431778,4.506707,-9.538109,0.8412609,0.768923,-0.04378447,-0.738642,-20.61677,25.9161,37.3406,1007.66
4.558732986,95.82425,-9.538109,38.04447,0.7495778,0.1623378,-0.5603217,-20.26621,26.6441,37.32867,1007.66
4.591512680,222.3643,-13.79278,170.852,0.7638354,0.6435153,-0.8604877,-20.26621,26.6441,37.32867,1007.658
4.624291897,120.9832,-0.02418643,296.6954,0.7662071,0.002192647,-1.127645,-20.67522,28.79593,34.68409,1007.658
4.657071590,-1276.299,-80.09476,35.90636,-2.249281,-4.650921,-3.094765,-15.64683,35.35068,30.65733,1007.654
4.689850330,875.6885,65.21414,-34.59037,1.143588,-0.8472817,-1.101748,-15.64683,35.35068,30.65733,1007.654
4.725151539,-54.69439,-8.888089,25.39905,0.6641048,1.409507,-0.4782417,-9.665396,27.72979,38.60311,1007.654
4.757931232,-181.4208,-3.215191,4.384424,0.422472,-1.386406,-0.7906721,-10.23507,37.87166,29.367,1007.654
4.790710449,42.77311,-6.997123,-15.10297,0.4487552,-0.719989,-0.3811372,-10.23507,37.87166,29.367,1007.654
4.823490143,65.81992,-12.19728,-13.51466,0.4431639,-0.4491746,-0.5817786,-9.423927,33.93159,34.58827,1007.654
4.858791351,14.943,6.121452,-6.122887,0.4508707,-0.4485727,-0.7146537,-9.798399,34.26718,32.40745,1007.654
4.891570568,-0.09023117,22.07648,-1.174677,0.448245,-0.5506766,-0.6162958,-9.798399,34.26718,32.40745,1007.654
4.924350262,9.103643,28.39939,0.2303707,0.3853454,-0.6229566,-0.4990667,-10.1888,35.73174,32.82011,1007.654
4.957129955,32.15046,42.16799,0.6579938,0.2552288,-0.6349109,-0.5208827,-10.18349,35.35542,31.95562,1007.654
4.989909172,22.08689,53.27741,9.821346,0.2972191,-0.5405408,-0.5880338,-10.18349,35.35542,31.95562,1007.653
5.025209904,22.64597,68.70061,11.89837,0.5833567,-0.5890312,-0.5510932,-11.2907,36.07503,31.07534,1007.654
5.057989597,38.23829,83.53288,8.477387,0.5652041,-0.4925873,-0.4578113,-12.39863,36.78868,29.75996,1007.654
5.090768814,13.07937,82.82376,10.79877,0.5550349,-0.5033501,-0.452476,-12.39863,36.78868,29.75996,1007.654
5.123548508,-1.456888,93.10589,3.406999,0.6489818,-0.6151167,-0.5290669,-13.8901,38.60332,28.92512,1007.654
5.156327724,-8.911382,106.4017,12.20382,0.803007,-0.4445758,-0.4931058,-16.13742,38.59087,27.62268,1007.654
5.191628933,-46.61869,99.54699,30.04181,1.052681,-0.6971337,-0.5520434,-16.13742,38.59087,27.62268,1007.654
5.224408627,-65.06857,90.80127,42.99268,1.039572,-0.9012911,-0.5488164,-17.9525,38.21891,26.76054,1007.649
5.257187843,-35.12635,91.09673,49.83465,0.7992259,-0.6818994,-0.4378639,-19.05004,38.59785,27.62644,1007.649
5.289967537,-24.62794,109.0609,38.34992,0.5573359,-0.6517866,-0.4392609,-19.05004,38.59785,27.62644,1007.649
5.325268268,35.07013,152.7895,15.68589,0.5738326,-0.9220855,-0.8080972,-19.75115,37.14185,27.6503,1007.649
5.358047485,80.16982,207.4502,15.19718,0.5075756,-0.6250324,-0.8045368,-19.74802,36.74769,25.48047,1007.649
5.390827179,84.45615,241.9603,17.70183,0.3122056,-0.7101471,-0.5526744,-19.74802,36.74769,25.48047,1007.65
5.423606872,125.021,254.7244,14.58629,0.2975416,-0.6011522,-0.1994843,-21.94724,37.05198,20.69134,1007.65
5.456386089,135.5815,260.8109,23.50529,0.02036574,-0.2778637,0.6088922,-24.95535,38.03354,11.97575,1007.65
5.491687298,57.86845,219.9779,8.477387,-0.002433229,-0.2913377,0.5897121,-26.81056,39.01234,3.258676,1007.65
5.524466991,19.78842,183.9904,22.65004,-0.08889121,0.0176665,1.075627,-26.81056,39.01234,3.258676,1007.65
5.557246208,-95.50774,125.666,27.23172,0.06667911,-0.6609733,1.141264,-26.0931,38.92313,-3.144622,1007.65
5.590025902,-46.12172,114.0838,20.75628,0.4599491,-1.081084,0.9782646,-25.00232,38.90863,-4.016254,1007.65
5.625327110,56.87452,107.82,18.92361,0.3034875,-1.06995,0.8062915,-25.00232,38.90863,-4.016254,1007.652
5.658105850,111.7272,86.66479,11.10422,0.1208382,-0.598875,0.9711218,-23.91081,38.90007,-4.452776,1007.65
5.690885544,25.00656,52.09556,1.757596,0.2601417,-0.7697856,1.019667,-23.55585,38.89455,-9.240429,1007.652
5.723664761,12.76877,35.25414,-5.634175,0.4180864,-0.8431364,0.9274623,-23.55585,38.89455,-9.240429,1007.654
5.791745663,14.25967,12.73983,-7.527934,0.245704,-0.4471614,0.8560328,-22.39338,38.06056,-12.27528,1007.654
5.824524879,-0.711439,9.194272,1.024528,0.383323,-0.5458838,0.7817255,-22.39338,38.06056,-12.27528,1007.66
5.857304573,15.50208,12.91711,4.873136,0.1985622,-0.6517616,0.7664384,-22.38204,37.31386,-13.56916,1007.66
5.890084267,8.668798,6.771472,17.64074,0.3801309,-0.4275205,0.787331,-22.39025,37.66641,-14.44511,1007.657
5.925384521,-25.49763,4.998692,31.08032,0.3842863,-0.5358942,0.8163663,-22.39025,37.66641,-14.44511,1007.659
5.958164215,4.258224,1.630409,37.55576,0.2722916,-0.6114321,0.8042303,-22.02399,37.68337,-13.14025,1007.659
5.990944386,-13.50832,-2.387894,49.95683,0.308677,-0.4020209,0.758099,-20.93852,38.04519,-13.14739,1007.659
6.023723125,-30.59153,-5.224343,63.15206,0.3786435,-0.6492479,0.6312262,-20.93852,38.04519,-13.14739,1007.659
6.056502819,-3.382632,-7.233494,61.68592,0.4637215,-0.9080562,0.5717256,-19.50363,39.19575,-13.16741,1007.663
6.091804028,37.55496,10.37613,57.77623,0.485847,-0.6005235,0.6453394,-17.68106,39.20922,-11.86443,1007.665
6.124583244,-47.79898,13.15348,60.52523,0.3714158,-0.6539897,0.7284856,-17.68106,39.20922,-11.86443,1007.665
6.157362938,-46.43233,10.19885,57.59296,0.2801802,-0.8913482,0.6737031,-15.44413,39.55639,-12.74328,1007.665
6.190142155,1.338547,11.02614,57.47078,0.2504533,-0.8670099,0.567356,-13.27632,40.67418,-10.58773,1007.665
6.225442886,-12.63863,23.79016,73.29284,-0.08811803,-0.5677975,0.7886531,-13.27632,40.67418,-10.58773,1007.665
6.258223057,-101.9062,4.112301,77.81342,-0.2797591,-0.84574,0.7616076,-10.70676,39.5807,-10.13872,1007.669
6.291001797,-32.39303,-4.633416,78.42432,-0.2337506,-0.8432034,0.5107052,-7.732012,39.58546,-9.272328,1007.669
6.323781490,-20.40372,6.653286,83.49471,-0.1707812,-0.5930507,0.4081301,-7.732012,39.58546,-9.272328,1007.669
6.356561661,-21.58402,20.54007,99.80547,-0.2339833,-0.7539018,0.4658045,-5.187325,39.96757,-7.540901,1007.669
6.391861915,-30.65365,31.29494,101.0273,-0.4291373,-0.3285353,0.6562455,-2.273252,39.97248,-6.674437,1007.669
6.424641609,-105.6955,27.92665,95.59033,-0.4199428,-0.7704057,0.4171715,1.457099,38.45106,-6.220228,1007.669
6.457421303,38.11405,46.54084,100.2942,-0.4307866,-0.7088669,0.3848532,1.457099,38.45106,-6.220228,1007.669
6.490200519,115.5787,77.50542,103.8373,-0.5932524,-0.3454578,0.591195,5.473072,38.11269,-3.608996,1007.671
6.522980213,-62.39737,80.22368,77.3858,-0.8203561,-0.1087344,1.077552,8.825644,36.96977,-6.641894,1007.669
6.558281422,-163.9027,10.13975,36.94487,-0.6576525,-1.650862,0.5793557,8.825644,36.96977,-6.641894,1007.671
6.591060638,141.483,61.84586,28.33132,-0.4168026,-0.9027175,0.2267442,11.77861,35.1941,-2.700999,1007.669
6.623840332,67.00021,49.43639,26.68192,-0.4523551,-0.3894644,0.5370146,13.24168,34.82618,-2.697148,1007.669
6.656619072,-27.67186,31.64949,28.88112,-0.5207937,-0.8048062,0.5642779,13.24168,34.82618,-2.697148,1007.671
6.691920280,-13.57044,33.42227,34.99002,-0.6792808,-0.7434663,0.4706958,13.62532,33.72604,-3.11554,1007.671
6.724699974,29.23078,36.436,34.37913,-0.6212303,-0.647379,0.4911118,14.71827,33.72937,-2.681838,1007.671
6.757479191,-2.885666,29.04941,30.83597,-0.6091926,-0.6039089,0.4943873,14.71827,33.72937,-2.681838,1007.671
6.790258884,-5.867463,25.20839,29.06439,-0.6179505,-0.6153728,0.3971903,15.53415,32.26973,-2.659936,1007.671
6.858339786,-14.50225,28.10393,27.53716,-0.6862872,-0.6634381,0.4311201,16.62108,32.64344,-1.796852,1007.671
6.891119003,-2.326579,32.00405,24.05509,-0.6743806,-0.5715066,0.3996648,16.64281,31.56202,-0.9094388,1007.673
6.923898697,-16.17951,31.23584,19.04579,-0.7335628,-0.581209,0.4763563,17.74253,31.2009,-0.4700062,1007.673
6.956677914,-13.81892,31.29494,19.83994,-0.7115295,-0.6766698,0.3796942,17.74253,31.2009,-0.4700062,1007.673
6.991978645,-8.78714,30.17217,17.94619,-0.7587113,-0.6530864,0.3258581,18.11668,30.79269,0.8415437,1007.673
7.024758339,-4.376565,31.64949,19.10688,-0.6947553,-0.5779443,0.4088687,18.48752,30.42738,0.8468039,1007.673
7.057537556,-14.68861,33.89501,20.57301,-0.7773008,-0.5892256,0.3566131,18.48752,30.42738,0.8468039,1007.673
7.090317249,-8.538657,35.90416,21.85588,-0.8134117,-0.52969,0.276703,18.86657,29.70952,1.728017,1007.671
7.158397675,-13.25984,32.12223,15.86916,-0.7703955,-0.645075,0.3013242,19.60294,29.35522,2.603031,1007.671
7.191177368,-9.221986,36.436,17.45747,-0.7968789,-0.5428224,0.2593545,19.61168,29.00692,3.789778,1007.671
7.223957062,-22.39159,34.66322,17.45747,-0.7604334,-0.5572365,0.2438862,19.99749,27.92463,4.676722,1007.673
7.256736279,-14.12953,38.91789,21.42826,-0.7648908,-0.5197452,0.2476912,19.99749,27.92463,4.676722,1007.673
7.292037010,-19.34767,41.45887,24.84925,-0.8973974,-0.555375,0.1859635,20.01392,27.21953,6.428628,1007.673
7.324817180,-27.29913,38.62243,31.38577,-0.9214805,-0.6601177,0.07065167,20.37196,27.58904,6.85754,1007.673
7.357595920,-17.67041,41.2225,38.4721,-0.9388006,-0.5077447,0.1513319,20.75174,26.87712,8.173865,1007.674
7.390375614,-22.82644,43.11347,44.82535,-0.8761243,-0.5177391,0.1795986,20.75174,26.87712,8.173865,1007.679
7.423154831,-28.79003,45.47718,53.56108,-0.9639784,-0.5548223,0.06529879,21.50309,25.80584,9.930563,1007.68
7.458456039,-31.58546,48.13635,58.4482,-0.9752498,-0.5055148,0.09557699,22.24694,25.09305,11.24642,1007.68
7.491235733,-39.03996,53.69106,66.2676,-0.9001966,-0.4233075,0.06061704,22.24694,25.09305,11.24642,1007.68
7.524014950,-54.88075,58.35938,72.68195,-0.9180794,-0.4615559,0.04483216,23.00618,23.59659,13.0098,1007.682
7.556794643,-48.35807,61.31402,79.6461,-0.9852811,-0.3944235,-0.0258698,22.68485,21.42868,14.34998,1007.678
7.592095852,-51.33987,63.0868,82.02856,-1.086968,-0.3221745,-0.08975862,22.68485,21.42868,14.34998,1007.68
7.624874592,-61.65192,63.32317,80.50134,-1.077001,-0.2261854,-0.09570327,23.88341,19.2809,17.42866,1007.681
7.657654285,-95.56986,64.03229,76.77491,-1.137336,-0.1776152,-0.112481,24.30449,16.38831,19.21448,1007.681
7.690434456,-109.6713,47.89998,74.33135,-1.161681,-0.3596803,-0.1405492,24.30449,16.38831,19.21448,1007.681
7.723213196,-69.9761,34.8405,70.78819,-1.18623,-0.2398567,-0.1093831,24.72138,13.8113,21.86574,1007.681
7.758514404,-19.09919,5.944174,63.33533,-0.9925817,-0.4013212,-0.09852771,24.42179,10.56196,24.09334,1007.681
7.791294098,39.23222,-10.89724,54.11089,-0.9078361,-0.2965976,-0.05893353,24.42179,10.56196,24.09334,1007.681
7.824073315,69.85777,-24.01581,40.91566,-0.8857414,-0.1900687,-0.03459704,24.47555,7.573832,23.26991,1007.68
7.856853008,80.48042,-42.15727,14.89173,-0.8661492,-0.04078031,0.04840706,24.85242,6.838143,22.84579,1007.68
7.889632225,-47.92323,-89.01776,-34.52928,-0.9311463,-0.03468357,0.2329136,24.85242,6.838143,22.84579,1007.68
7.924932957,-116.4424,-130.1463,-74.17605,-0.9143599,-0.158008,0.1979202,25.18655,8.271242,21.08195,1007.675
7.957713127,-175.2087,-164.6564,-85.23316,-1.053756,0.07561544,0.2729912,26.28191,7.874467,18.91072,1007.675
7.990491867,-195.2737,-192.1936,-96.65681,-1.018519,-0.2617353,0.1848455,26.28191,7.874467,18.91072,1007.675
8.023271561,-217.4508,-189.0617,-84.62227,-0.9892637,0.113662,0.2737436,27.71994,8.630871,16.72086,1007.675
8.058572769,-275.3474,-196.921,-72.64882,-0.9444219,-0.1646556,0.2586531,27.71267,8.571432,12.36974,1007.674
8.091351986,-174.2148,-175.2931,-59.20924,-0.8863796,-0.2671955,0.2914026,27.71267,8.571432,12.36974,1007.672
8.124131680,-117.747,-154.3152,-21.88385,-0.8269368,0.04962971,0.2556447,28.80843,8.107975,9.76435,1007.67
8.156911373,-187.4465,-129.5553,5.728382,-0.7959401,0.06177492,0.143877,28.45352,7.34431,7.165609,1007.67
8.189690590,-165.9527,-102.3727,29.61419,-0.8314669,-0.1064553,0.1576929,28.45352,7.34431,7.165609,1007.67
8.224991798,-136.8802,-59.7078,52.52257,-0.9485255,0.127875,0.2375234,28.82821,6.590789,5.436153,1007.672
8.257771492,-150.8574,-38.78899,66.51196,-1.059976,0.03709773,0.2745081,28.51146,4.040602,5.476733,1007.672
8.290550709,-93.51987,-8.888089,75.12551,-1.010522,0.06060364,0.2334396,28.2022,1.131922,5.958155,1007.674
8.323330402,-89.60627,10.19885,62.11354,-1.331642,0.1807038,0.5209118,28.2022,1.131922,5.958155,1007.673
8.358631134,-28.1067,12.44437,58.50929,-1.136856,-0.4665773,0.4963946,27.52854,-1.848512,5.570777,1007.675
8.391410351,-5.370497,8.130604,56.61553,-1.59423,-0.09009322,0.4160432,25.41386,-5.469814,6.936232,1007.675
8.424190044,17.17934,5.944174,40.1215,-0.9115559,-0.4945636,0.3332021,25.41386,-5.469814,6.936232,1007.675
8.456969261,0.2824935,2.221335,28.82003,-0.8927494,-0.220157,0.4097618,24.34868,-6.924944,6.960561,1007.672
8.489748955,5.003673,2.575891,19.77886,-1.002013,-0.2237581,0.3734429,23.58874,-8.435596,7.420566,1007.674
8.525050163,7.488504,-5.756177,12.50926,-0.9285546,-0.3048533,0.2496809,23.58874,-8.435596,7.420566,1007.67
8.557829380,3.885499,-5.106157,12.44817,-0.8505312,-0.2358767,0.2696091,24.02099,-8.795108,7.86086,1007.67
8.590609074,8.482436,-2.151523,9.943524,-0.8506148,-0.2003103,0.2714811,23.23746,-9.169542,6.997384,1007.672
8.623387813,-6.178067,-6.878938,9.882435,-0.9655342,-0.2533169,0.3512583,23.23746,-9.169542,6.997384,1007.673
8.658689022,1.959754,-14.08824,12.14273,-0.9446432,-0.2655896,0.312237,23.23964,-9.151711,8.302719,1007.671
8.691468716,-0.5871974,-8.769903,13.18124,-0.8603435,-0.1647947,0.4177847,23.24567,-9.522091,7.873338,1007.673
8.724247932,1.462788,-8.710811,9.760257,-1.086365,-0.2784025,0.3910544,23.24567,-9.522091,7.873338,1007.673
8.757027626,13.82482,-5.283435,8.538477,-0.8816021,-0.2274614,0.3264708,22.52283,-9.896671,7.009784,1007.673
8.789807320,2.208237,6.594194,9.454812,-0.9066121,-0.3047425,0.4493938,22.53032,-10.25516,7.450626,1007.674
8.825108051,23.20506,14.6308,9.699168,-0.9946837,-0.2401625,0.3869284,22.53032,-10.25516,7.450626,1007.674
8.857887745,21.09295,21.66283,12.93689,-0.8220094,-0.1623542,0.372442,21.80965,-10.61191,7.892407,1007.67
8.890667438,13.94906,25.97659,20.02321,-0.9674584,-0.2636578,0.337319,21.80362,-10.24153,8.321789,1007.67
8.923446655,21.15508,28.81304,31.93557,-0.9448542,-0.1769574,0.3111411,21.80362,-10.24153,8.321789,1007.67
8.958747387,17.42783,29.69943,42.25961,-0.9530466,-0.1987818,0.3342988,21.44026,-10.23471,8.757371,1007.672
8.991527081,30.78379,33.36318,54.72178,-0.9535491,-0.1924846,0.3299583,21.09865,-11.30932,10.08037,1007.674
9.024306297,28.36108,30.8222,62.3579,-1.008139,-0.118882,0.2640303,21.09865,-11.30932,10.08037,1007.673
9.057085991,22.95658,31.47221,67.24503,-1.061689,-0.05429197,0.3016061,20.39223,-12.389,10.96872,1007.673
9.089865208,29.41714,30.64492,73.23175,-1.113776,-0.009810335,0.2472688,18.58755,-13.09568,12.28786,1007.675
9.125166416,18.42176,27.69028,77.69125,-1.151729,0.01793705,0.2208421,18.58755,-13.09568,12.28786,1007.677
9.157946110,16.68238,24.97202,75.79749,-1.119927,0.1239796,0.2336036,17.51705,-14.17448,13.17669,1007.678
9.190725327,15.31572,28.10393,72.31541,-1.059177,0.1066401,0.2585164,17.55416,-16.03958,14.51163,1007.678
9.223505020,18.79449,37.02692,66.45087,-1.05339,0.1232376,0.2570336,17.55416,-16.03958,14.51163,1007.678
9.256284714,31.90197,43.11347,63.88513,-1.009142,0.2967976,0.2287481,16.05673,-17.1352,14.09566,1007.68
9.291584968,33.76559,49.61367,59.24236,-1.123041,0.2066828,0.2238591,15.34959,-18.22082,14.5489,1007.68
9.324364662,38.61102,51.15007,52.52257,-1.205092,0.1904952,0.1658333,15.00797,-19.29542,15.8719,1007.68
9.357144356,33.45499,50.85461,44.09229,-1.264878,0.2132871,0.1534254,15.00797,-19.29542,15.8719,1007.68
9.389923572,54.57605,43.34984,15.74698,-1.473181,0.007080973,0.1667456,14.29625,-19.99878,17.62474,1007.68
9.425224781,136.0164,18.59001,-24.44959,-1.215283,0.170303,0.07587327,15.04614,-21.08195,18.51122,1007.678
9.458004475,149.0618,-10.95633,-41.0658,-1.064542,0.2713815,0.002196412,15.04614,-21.08195,18.51122,1007.678
9.490783691,183.4146,-3.687933,-36.36195,-0.95439,0.4484543,-0.3006269,16.13452,-20.69635,20.24453,1007.678
9.523563385,197.8266,-21.53392,-40.63818,-1.020407,0.2406335,-0.2703127,19.44245,-18.8465,22.82224,1007.676
9.556342602,203.1068,-40.56177,-48.94629,-0.8511514,0.33477,-0.2438997,19.44245,-18.8465,22.82224,1007.676
9.591643333,187.3903,-53.03032,-52.12292,-0.7437437,0.07857308,-0.3049013,21.56221,-15.18359,24.50257,1007.676
9.624423027,254.0459,-61.77604,-43.08174,-0.7296041,0.05586059,-0.2962361,25.1814,-10.75848,24.42807,1007.68
9.657202244,216.0901,-59.6487,-49.74044,-0.6211781,0.4181409,-0.2277232,25.1814,-10.75848,24.42807,1007.678
9.689981937,114.6468,-59.29415,-44.91441,-0.7363487,0.06977566,-0.1080286,27.64092,-5.966168,24.34934,1007.677
9.725283146,167.2631,-72.35362,-36.72849,-0.9256099,-0.171514,-0.04993402,28.9801,0.2079382,22.94471,1007.675
9.758062363,255.4125,-79.7993,-33.06314,-0.8338794,-0.1810029,-0.1940644,28.9801,0.2079382,22.94471,1007.675
9.790842056,252.8035,-66.97619,-34.59037,-0.8865912,0.1689167,-0.02839702,30.72739,3.873021,20.27344,1007.673
9.823621750,152.789,-67.09438,-33.79621,-0.8940344,0.04918577,0.0622971,32.14278,8.984692,16.70941,1007.671
9.856400967,144.8375,-55.15766,-27.93167,-0.8199827,-0.06203553,0.01800381,32.14278,8.984692,16.70941,1007.668
9.891701698,119.1195,-38.61171,-18.8294,-0.9500285,-0.07035279,0.168991,33.15411,12.93739,12.72897,1007.668
9.924480915,90.48186,-25.55223,-22.00603,-0.9076655,-0.1095648,0.2223808,32.74437,15.08327,9.649278,1007.668
9.957260609,82.5304,-9.833571,-21.70059,-0.8668818,-0.1062555,0.2290181,32.74437,15.08327,9.649278,1007.666
9.990040302,71.72139,4.762321,-18.89049,-0.8279195,-0.1429972,0.2915581,33.44145,16.57624,7.884016,1007.664
10.025341511,53.45788,16.52176,-18.03524,-0.8850555,-0.1970229,0.3654234,33.03462,18.7459,6.544771,1007.664
10.058120728,48.36398,23.43561,-17.60762,-0.9409947,-0.1545836,0.3722312,33.03462,18.7459,6.544771,1007.663
10.090900421,46.43823,30.05399,-16.26366,-0.9531718,-0.1401243,0.3650179,33.02037,19.46883,6.0982,1007.663
10.123679638,40.53676,33.83592,-12.65941,-0.9812572,-0.1694537,0.3834204,32.28545,19.83502,6.09341,1007.661
10.156459332,38.54889,33.83592,-8.627537,-0.9399961,-0.1586909,0.410744,32.28545,19.83502,6.09341,1007.659
10.191760540,30.16259,35.54961,-4.229127,-0.943449,-0.1343077,0.4193799,31.54451,20.57158,6.518001,1007.661
10.224539280,22.21113,31.76768,0.7801719,-0.9929413,-0.1513367,0.4113398,30.73757,21.68461,7.807164,1007.659
10.290098190,20.47175,22.6674,7.255608,-1.324229,-0.09552597,0.4308146,30.37422,21.69143,8.242745,1007.659
10.325399399,28.1126,-0.4969279,7.194519,-1.325258,-0.08431417,0.3634095,30.00556,22.07457,9.542821,1007.657
10.358179092,35.25649,-25.7886,12.57035,-1.182636,-0.03170251,0.3336288,30.39065,20.98633,9.994652,1007.66
10.390958309,19.35357,-48.362,21.79479,-1.019592,0.01296057,0.3269171,30.39065,20.98633,9.994652,1007.654
10.423738003,0.09613115,-61.48057,29.43092,-0.9056096,0.06395918,0.3097222,30.03864,20.24644,9.136358,1007.652
10.456517696,-20.3416,-62.60333,32.91299,-0.8854145,0.1453757,0.2970362,32.64568,20.22236,7.827656,1007.652
10.491817951,-53.45198,-55.57131,26.1932,-1.013678,0.175983,0.3001825,32.64568,20.22236,7.827656,1007.654
10.524598122,-69.41702,-57.04863,13.4256,-0.9217376,0.1041215,0.2914082,33.40546,18.38059,6.550031,1007.654
10.557377815,-44.56871,-54.98038,7.194519,-0.7939807,0.07519374,0.2502331,35.25144,16.9066,5.700378,1007.649
10.590156555,-36.43089,-48.06654,10.31006,-0.7548072,0.150345,0.2943121,35.25144,16.9066,5.700378,1007.649
10.622936726,-65.56553,-40.79814,8.843922,-0.7825323,0.1822027,0.3564255,35.99166,16.16409,4.840675,1007.649
10.658237457,-97.55773,-29.45234,6.766896,-0.7903426,0.2022031,0.3703734,36.7405,15.00235,4.422769,1007.649
10.691016674,-118.9894,-19.52477,6.094916,-0.9023616,0.1449764,0.4000884,36.7405,15.00235,4.422769,1007.647
10.723796368,-111.4107,-17.33834,3.223732,-0.9802505,0.02304445,0.3990129,38.21709,13.90555,4.43808,1007.647
10.756575584,-85.25781,-23.01124,1.329973,-0.9845388,-0.01208136,0.3957064,38.23811,12.81818,4.890381,1007.647
10.791876793,-52.89289,-32.28879,0.2914597,-0.9854714,-0.03320905,0.3702283,38.23811,12.81818,4.890381,1007.647
10.824656486,-25.99459,-34.17976,-0.8081426,-1.116652,-0.005715658,0.3493181,39.75437,12.8086,4.453312,1007.647
10.857435226,-13.19771,-34.53431,-3.190614,-1.108864,-0.01494117,0.3440185,39.40174,12.06362,3.222065,1007.647
10.890215397,0.6552181,-26.79317,-6.489421,-1.123351,-0.05221065,0.3248546,39.40174,12.06362,3.222065,1007.647
10.922994137,10.96727,-18.57929,-8.44427,-1.078138,-0.0812731,0.2935027,40.12178,12.41527,2.407331,1007.647
10.958295345,36.31255,5.885082,-5.573086,-1.125283,-0.06114734,0.30273,40.12709,12.03894,1.542838,1007.647
10.991075039,32.77166,22.31285,-2.885169,-1.126866,-0.007069422,0.3069845,40.12709,12.03894,1.542838,1007.647
11.023854256,29.66562,44.4726,4.323335,-0.9287217,-0.01299128,0.337812,40.1324,11.66262,0.6783445,1007.647
11.056633949,-6.799274,54.04562,10.67659,-0.8543121,-0.05296024,0.3839065,39.74804,12.7568,0.6616242,1007.647
11.091935158,-52.14744,47.48633,8.782833,-0.8294102,-0.1137357,0.3690168,40.49189,12.04402,1.97748,1007.647
11.124713898,-64.13675,36.436,1.940863,-0.8691733,-0.1490988,0.3041806,40.49189,12.04402,1.97748,1007.643
11.157494068,-31.33698,28.3403,-8.871893,-0.9730449,-0.1751021,0.2616249,40.49532,12.07204,4.02872,1007.643
11.190273762,13.38998,14.6308,-21.33405,-0.985042,-0.2335964,0.268962,40.50499,11.73138,5.774897,1007.645
11.223052502,71.1623,3.107726,-28.35929,-0.9224473,-0.2110236,0.288034,40.50499,11.73138,5.774897,1007.647
11.258353710,105.8878,-9.892665,-25.4881,-0.8328323,-0.1242312,0.2645852,40.49823,12.09581,5.769167,1007.645
11.291133404,111.8514,-8.828997,-18.40178,-0.7821046,-0.0116457,0.2849938,40.09816,13.90104,4.435652,1007.641
11.323912620,77.4365,-2.624264,-12.7205,-0.7812829,0.06129095,0.336869,40.09816,13.90104,4.435652,1007.641
11.356692314,34.0762,9.37155,-9.360605,-0.787112,0.06221639,0.3368814,40.08194,14.60783,2.808063,1007.641
11.391992569,-9.159864,23.19924,-4.229127,-0.8360648,0.02380909,0.3356113,39.70289,15.32569,1.926849,1007.639
11.424772739,-20.90069,29.87671,1.51324,-0.8528988,-0.04402939,0.3357535,39.70289,15.32569,1.926849,1007.641
11.457552433,-19.59616,31.53131,6.827985,-0.8984684,-0.07255397,0.3508268,39.34027,15.33845,2.797543,1007.643
11.490331173,-15.12346,33.30408,10.79877,-0.9625338,-0.08020329,0.3784279,38.96351,16.14507,3.966615,1007.643
11.523111343,-15.30982,39.15426,12.75362,-1.083476,-0.05953849,0.413823,38.96351,16.14507,3.966615,1007.643
11.558412075,-15.74467,42.34526,11.95946,-1.113064,-0.07293869,0.413432,40.07933,15.00624,5.288685,1007.644
11.591191292,-0.4629558,39.33154,13.54778,-1.061462,-0.1290378,0.4085805,38.99677,14.66819,7.036272,1007.646
11.623970985,26.80807,45.24081,18.37381,-1.19613,-0.05496709,0.436226,38.99677,14.66819,7.036272,1007.646
11.656750202,3.077928,32.83134,16.60223,-1.207848,-0.0262628,0.4458377,39.72107,15.05466,8.770049,1007.646
11.692051411,1.58703,15.98993,15.19718,-1.153556,0.006100334,0.4119649,39.378,13.96817,9.22282,1007.646
11.724831104,-11.45833,-7.233494,20.87846,-1.137681,0.05592567,0.3439801,39.378,13.96817,9.22282,1007.646
11.757610321,-31.89607,-29.21597,26.43756,-1.115893,0.07937142,0.3275268,39.37124,14.3326,9.21709,1007.646
11.790390015,-44.75507,-46.29376,29.06439,-1.036326,0.1032591,0.3051594,39.3908,13.23335,8.799169,1007.646
11.823168755,-55.06712,-56.33951,32.11884,-0.9348152,0.08785315,0.2789483,39.3908,13.23335,8.799169,1007.646
11.858469963,-62.39737,-61.06693,33.34062,-0.8683589,0.1141402,0.2671984,39.75873,12.84426,7.063982,1007.646
11.891249657,-70.84579,-56.63498,32.79082,-0.8349548,0.1583158,0.2761984,39.78359,11.36868,5.781567,1007.644
11.924028873,-78.36241,-49.01202,28.27023,-0.8437008,0.1601742,0.2738096,39.78359,11.36868,5.781567,1007.649
11.956808567,-80.53664,-41.62543,22.16133,-0.8213372,0.1486652,0.2728112,40.15974,10.62705,4.922334,1007.647
11.989588261,-78.30029,-33.11609,18.67925,-0.8131387,0.1736194,0.2794932,40.89923,9.878597,3.627519,1007.647
12.024888992,-79.91543,-27.62047,14.83065,-0.8412454,0.1560791,0.3123189,40.89923,9.878597,3.627519,1007.647
12.057668686,-78.98361,-25.7295,9.027188,-0.8819832,0.1408619,0.3442083,41.26883,9.503099,2.886873,1007.643
12.090448380,-71.59124,-20.1157,3.773534,-0.9567744,0.149115,0.3602582,42.38197,8.412264,3.275606,1007.643
12.123227596,-66.80795,-13.97006,-4.412395,-1.094109,0.1184272,0.3846983,42.38197,8.412264,3.275606,1007.643
12.158528328,-52.0232,-17.51562,-16.6302,-1.079783,0.01376038,0.3742321,42.03119,7.612484,2.480427,1007.647
12.191308022,-12.70075,-21.12027,-22.55583,-1.074829,-0.0346625,0.3386726,43.12946,7.239486,2.049635,1007.647
12.224087238,36.31255,-14.20643,-23.04454,-1.141742,-0.07111087,0.3605475,43.11594,7.96836,2.038176,1007.645
12.256866932,71.34866,-4.042489,-23.8387,-1.257032,0.02010755,0.3794566,43.11594,7.96836,2.038176,1007.645
12.289646149,72.90168,7.83514,-19.74574,-1.126428,0.0280626,0.3858739,43.83402,8.37396,0.7252157,1007.645
12.324947357,42.77311,12.208,-10.15476,-1.025349,0.0003649031,0.4135948,43.81977,9.096889,0.2786438,1007.645
12.357727051,1.338547,4.762321,-0.2583414,-0.9655461,-0.03732239,0.3851094,43.81977,9.096889,0.2786438,1007.645
12.390506267,-42.70508,-6.288011,4.262246,-0.9563695,-0.02538783,0.3393403,43.44144,9.820694,-0.1674578,1007.647
12.423285961,-74.7594,-19.87933,3.162643,-0.9922169,-0.07386822,0.2745146,43.09235,9.104578,0.7146955,1007.647
12.458586693,-73.57911,-29.68871,-2.21319,-0.9628958,-0.1555595,0.2582019,43.09235,9.104578,0.7146955,1007.647
12.491365909,-36.12028,-25.07948,-7.100311,-0.9024817,-0.2306716,0.3101588,44.89775,9.817204,-0.1693373,1007.649
12.524145603,-5.432618,-18.40201,-6.917044,-0.8179914,-0.2137758,0.3970595,44.18095,9.072243,-1.462272,1007.649
12.556924820,0.1582519,-10.01085,-0.5637865,-0.7453666,-0.1154314,0.4443938,44.18095,9.072243,-1.462272,1007.647
12.589704513,-18.78859,0.1530916,10.85986,-0.653209,-0.06218148,0.4970448,43.80334,9.801989,-1.473263,1007.647
12.625005722,-59.85042,13.09439,24.17727,-0.6702747,-0.01948323,0.5644116,43.80189,9.7901,-2.343486,1007.647
12.657784939,-94.01685,18.76729,32.91299,-0.6944191,-0.07264781,0.5823593,43.80189,9.7901,-2.343486,1007.647
12.690564632,-104.5153,21.01281,36.33398,-0.7243612,-0.141066,0.5849402,44.16815,9.80706,-1.038621,1007.645
12.723344326,-99.11075,16.04902,38.04447,-0.7680286,-0.1530255,0.5985399,45.27681,9.099342,0.7118762,1007.645
12.758644581,-86.87296,8.012418,40.91566,-0.776853,-0.117035,0.6018762,45.27681,9.099342,0.7118762,1007.647
12.791424274,-93.20927,0.9803893,45.80278,-0.8371544,-0.07046809,0.6471971,44.58504,7.230052,1.612644,1007.647
12.824203968,-104.0183,-5.460713,48.55178,-0.8380651,-0.09832375,0.6347258,45.34773,5.412066,2.075466,1007.645
12.856983185,-104.7016,-7.115308,52.03386,-0.8365979,-0.1047133,0.6246233,45.34773,5.412066,2.075466,1007.647
12.889762878,-107.3107,-5.697084,58.38712,-0.834271,-0.06434681,0.6134856,45.75237,3.224572,2.109376,1007.647
12.925064087,-124.6424,0.09399892,64.25166,-0.8198328,-0.01623396,0.5811276,46.1435,1.765951,2.131826,1007.647
12.957843304,-139.6135,14.80808,70.54383,-0.8274879,0.1304391,0.5308632,46.1435,1.765951,2.131826,1007.645
12.990622997,-163.7785,42.40436,77.9356,-1.043874,0.2480731,0.4777679,46.19871,-1.210285,2.178621,1007.647
13.023402214,-195.5843,37.79513,79.46283,-0.9917706,0.1750442,0.4190283,45.88945,-4.118964,2.660043,1007.647
13.058702946,-192.7889,31.23584,73.35393,-1.091947,0.2203548,0.3315898,44.50188,-7.820583,2.720177,1007.647
13.091482639,-183.9677,20.3037,60.40305,-1.018865,0.3081558,0.2629307,44.50188,-7.820583,2.720177,1007.647
13.124261856,-136.4453,25.1493,48.67396,-1.01019,0.3365065,0.2671997,44.92463,-11.11922,1.465943,1007.647
13.157041550,-98.42742,21.30827,52.21712,-1.055071,0.4248061,0.2719867,43.52845,-14.40161,1.08428,1007.647
13.189820766,-141.2286,2.634984,48.91832,-1.053469,0.3488001,0.1960422,43.52845,-14.40161,1.08428,1007.645
13.225121975,-125.2015,-1.85606,54.41633,-0.991462,0.4051225,0.1664472,43.19712,-16.30149,-0.1909797,1007.645
13.257901669,-133.712,-3.451562,57.10424,-1.037231,0.2573192,0.1884398,42.86998,-18.51696,-2.331688,1007.645
13.290680885,-90.35172,0.8031111,47.20782,-1.011888,0.2185778,0.1898822,42.86998,-18.51696,-2.331688,1007.645
13.323460579,-64.13675,13.92169,40.48803,-0.9487079,0.4078791,0.2313255,42.15702,-19.65013,-5.359341,1007.645
13.356239796,-98.0547,25.20839,35.53982,-0.9788275,0.4114438,0.2198389,41.08362,-20.75271,-6.210964,1007.645
13.391540527,-143.5892,30.34945,32.24102,-1.014699,0.3863324,0.2238127,41.08362,-20.75271,-6.210964,1007.645
13.424320221,-159.927,33.71774,28.94221,-1.015885,0.2728565,0.225912,40.40174,-23.3806,-7.474295,1007.647
13.457099438,-160.1755,31.82677,25.88776,-1.031226,0.1980194,0.268421,40.01189,-22.26134,-10.10264,1007.643
13.489879131,-155.9513,25.38567,21.06173,-1.099676,0.192131,0.2743686,40.01189,-22.26134,-10.10264,1007.644
13.525180340,-155.2058,10.43522,16.1746,-1.085876,0.104009,0.2624346,39.65167,-22.64868,-11.83689,1007.644
13.557959556,-142.968,-9.301738,10.00461,-1.122604,0.01754244,0.1991123,40.0039,-22.32672,-14.88887,1007.644
13.590739250,-99.11075,-26.08406,6.278183,-1.023,-0.02510812,0.109407,40.0039,-22.32672,-14.88887,1007.644
13.623518944,-57.67619,-32.2297,4.01789,-0.9798382,0.0001745008,0.1213006,39.1769,-20.53831,-17.52717,1007.644
13.656298160,-48.54443,-36.54346,1.268884,-1.056585,0.01022554,0.118098,38.04722,-18.74322,-19.72997,1007.644
13.691598892,-37.23845,-38.55262,-0.0750744,-1.037295,0.05931946,0.08091336,38.04722,-18.74322,-19.72997,1007.644
13.724378109,-38.35663,-39.55719,2.246308,-0.965308,0.01487335,0.1164304,37.65861,-17.68386,-22.2952,1007.64
13.757157803,-30.77789,-37.54804,7.866498,-0.9239903,0.006315764,0.1668883,37.28413,-17.34826,-24.47602,1007.64
13.789937496,-34.56726,-36.248,14.89173,-0.911014,0.07050351,0.2067138,37.28413,-17.34826,-24.47602,1007.64
13.825238228,-46.30809,-31.10694,22.8944,-0.8755364,0.06825545,0.2610269,35.79787,-15.9108,-26.2375,1007.64
13.858017921,-65.87613,-22.4794,27.47607,-0.8634604,0.1077809,0.3273666,34.70274,-15.93196,-27.97654,1007.64
13.890797615,-77.98969,-12.25637,32.11884,-0.8293654,0.06778525,0.3480446,34.70274,-15.93196,-27.97654,1007.64
13.923576832,-78.11392,-4.397045,35.96745,-0.8565818,0.08283364,0.3735986,33.60905,-15.94123,-28.84536,1007.64
13.956356525,-71.52912,-4.928879,40.24368,-0.7977749,0.05889887,0.3629053,32.4925,-14.80834,-30.60254,1007.64
13.991657734,-70.84579,6.535101,46.04713,-0.8893573,0.1929282,0.4163516,32.46473,-13.35653,-31.06057,1007.642
14.024436474,-106.2546,19.41731,44.51991,-1.064814,0.2656444,0.4383194,32.46473,-13.35653,-31.06057,1007.642
14.057216167,-120.9773,15.04445,36.45616,-1.046152,0.171598,0.4090539,30.9388,-13.00629,-32.36967,1007.642
14.089995384,-104.5774,2.457706,35.78418,-1.019278,0.09765881,0.3898471,31.70059,-11.55043,-32.39362,1007.642
14.125296593,-93.39564,-6.997123,36.63942,-1.000271,0.07213833,0.409095,31.70059,-11.55043,-32.39362,1007.644
14.158076286,-91.34565,-10.95633,30.77488,-1.006636,0.09904288,0.4336189,30.85548,-8.650879,-33.74377,1007.644
14.190855503,-81.71693,-17.22016,22.34459,-0.9565133,0.04510224,0.3907402,31.19066,-7.139208,-34.20323,1007.644
14.223635197,-65.87613,-22.95215,16.41896,-0.9121974,-0.005039227,0.4109278,31.19066,-7.139208,-34.20323,1007.645
14.256414414,-35.31271,-23.3067,11.40966,-0.865536,-0.01856649,0.4406819,29.6916,-4.966927,-35.54106,1007.645
14.291715145,-24.37946,-20.76572,6.094916,-0.8924361,0.07011402,0.4786397,28.94316,-3.871871,-35.55731,1007.645
14.324494839,-40.77934,-21.17937,3.406999,-0.9147784,0.07690339,0.5013065,28.94316,-3.871871,-35.55731,1007.645
14.357274055,-40.28237,-18.99294,-0.1972524,-0.9102299,0.001434003,0.4990026,28.55735,-2.789575,-36.44426,1007.643
14.390053749,-19.78252,-16.57014,-1.174677,-0.8824737,-0.03144953,0.4994676,28.17903,-2.065772,-36.89036,1007.645
14.425354957,-14.37801,-12.02,3.284822,-0.8844723,-0.005069207,0.5133922,28.17903,-2.065772,-36.89036,1007.646
14.458134174,-24.37946,-2.978821,5.606205,-0.9122355,0.0297256,0.5076293,26.68818,-0.2460403,-37.35224,1007.646
14.490913868,-31.21274,5.471433,4.62878,-0.9407362,-0.04043611,0.4678495,26.68102,0.1850796,-36.92381,1007.648
14.523693085,-22.26735,22.25376,7.13343,-1.118079,0.003338445,0.4624278,26.68102,0.1850796,-36.92381,1007.648
14.556472778,-14.56437,28.87214,6.644718,-1.162102,-0.0788257,0.3962282,27.03085,0.9071374,-37.37086,1007.648
14.591773510,-1.208405,31.35403,5.056403,-1.072891,-0.02411071,0.3829374,27.40459,0.5656033,-35.62515,1007.65
14.624552727,-8.725019,29.10851,0.3525487,-1.080558,-0.07763641,0.3291237,27.40459,0.5656033,-35.62515,1007.65
14.657332420,-2.885666,20.12642,-8.871893,-1.039276,-0.09129374,0.2765779,28.12068,1.30462,-34.76733,1007.648
14.690112114,25.68989,8.662437,-17.24109,-1.029133,-0.07841719,0.2250288,28.84956,1.308818,-34.33316,1007.65
14.722891331,45.07158,-6.169826,-23.2889,-1.006726,-0.1079327,0.2259828,28.84956,1.308818,-34.33316,1007.65
14.758192539,64.26689,-14.97464,-25.24375,-0.9757577,-0.06491892,0.2109223,29.57771,1.307073,-34.3341,1007.652
14.790971756,62.65176,-19.87933,-24.63286,-0.9783091,-0.01231688,0.2142186,28.85632,0.9443812,-34.32742,1007.652
14.823751450,52.46395,-20.76572,-23.47217,-0.8870528,0.00160788,0.2159066,28.85632,0.9443812,-34.32742,1007.653
14.856531143,40.661,-16.09739,-21.02861,-0.7933138,-0.008341541,0.2132925,28.87773,-0.2096691,-34.30928,1007.653
14.891831398,31.83985,-4.574323,-18.2796,-0.7617141,-0.0231459,0.2175721,28.1759,-1.671616,-34.72053,1007.653
14.924611092,23.57779,8.544252,-16.32475,-0.7660767,-0.0225614,0.2368361,28.18266,-2.036053,-34.7148,1007.652
14.957391262,21.15508,22.43103,-15.77495,-0.7757649,-0.0258139,0.2710406,28.18266,-2.036053,-34.7148,1007.652
14.990170002,22.58385,33.48136,-14.67535,-0.7956081,-0.05122838,0.2821973,28.18942,-2.40049,-34.70907,1007.652
15.022949696,22.02477,41.16341,-13.39248,-0.8319928,-0.05859321,0.3174341,28.92579,-2.754784,-33.83406,1007.653
15.058250904,17.24146,45.06353,-13.69793,-0.8406509,-0.08566842,0.3564858,28.92579,-2.754784,-33.83406,1007.653
15.091030121,15.19148,50.44096,-11.55981,-0.8493125,-0.1138081,0.3825423,29.66216,-3.109078,-32.95905,1007.653
15.123809814,9.476368,56.76388,-9.116249,-0.9492755,-0.1318241,0.4333495,31.1221,-3.08285,-30.78536,1007.653
15.156589031,10.40818,62.55497,-8.871893,-1.077388,-0.1619913,0.4515092,31.1221,-3.08285,-30.78536,1007.658
15.191889763,33.33075,66.04144,-10.94892,-1.203648,-0.159202,0.4441027,32.64876,-3.427147,-29.04115,1007.653
15.224669933,71.22442,59.95488,-9.910406,-1.225941,-0.175887,0.4528452,33.73787,-3.035608,-26.87273,1007.658
15.257448673,90.66823,49.96822,-6.306154,-1.401006,-0.06219964,0.4829335,33.73787,-3.035608,-26.87273,1007.659
15.290228367,69.17444,20.77644,-1.480122,-1.246632,-0.04532648,0.4825419,35.21881,-4.096747,-24.24675,1007.659
15.323007583,50.35184,-11.01543,7.499964,-1.16192,0.0528061,0.4148025,36.69614,-5.187604,-23.79633,1007.659
15.358308792,1.64915,-41.8618,20.02321,-1.081356,0.06194041,0.3707937,36.69614,-5.187604,-23.79633,1007.658
15.391088486,-34.50514,-63.48972,25.33796,-1.013335,0.04395707,0.3644017,37.09402,-7.010662,-23.76814,1007.656
15.423867702,-53.5141,-73.77185,25.88776,-0.9745251,0.05181244,0.3267516,35.99888,-7.03182,-25.50718,1007.654
15.456647396,-69.23065,-79.0311,23.4442,-0.9288085,0.01898841,0.3141772,35.99888,-7.03182,-25.50718,1007.654
15.491948604,-62.89433,-81.69027,15.56371,-0.8879253,-0.02413383,0.2972976,34.18006,-7.43435,-28.60704,1007.654
15.524727344,-43.38841,-79.26746,7.622142,-0.8442323,-0.0198529,0.3000757,32.34262,-6.729983,-30.72955,1007.652
15.557507038,-29.5976,-73.65366,0.4747268,-0.7996355,0.01722426,0.3254263,32.34262,-6.729983,-30.72955,1007.652
15.623065948,-25.80823,-61.42148,-10.46021,-0.8584991,0.06754886,0.3490767,27.86518,-4.592183,-35.10933,1007.652
15.658367157,-17.85677,-55.09857,-11.43763,-0.8530943,0.04131074,0.3515103,27.86518,-4.592183,-35.10933,1007.652
15.691146374,-6.861395,-46.23466,-11.25436,-0.9637833,0.03565405,0.3715172,25.65004,-3.158918,-37.30499,1007.652
15.723926067,-1.58113,-39.4981,-9.482783,-0.992459,0.04660993,0.3706059,23.39741,-2.795044,-37.74294,1007.651
15.756705284,0.2824935,-32.87972,-6.489421,-0.9778761,0.03232981,0.3306398,23.39741,-2.795044,-37.74294,1007.651
15.792006016,5.873364,-21.65211,-3.618237,-0.9462798,0.01595723,0.3195183,21.92612,-2.074568,-38.62274,1007.649
15.824785709,6.246089,-8.297162,-1.541211,-0.916107,-0.01759061,0.2915783,20.83316,-2.077894,-39.05644,1007.649
15.857564926,9.66273,9.13518,-0.01398538,-0.8553449,-0.04383047,0.29725,20.83316,-2.077894,-39.05644,1007.649
15.890344620,12.02332,41.75434,-0.1972524,-1.090449,-0.001224135,0.3333642,19.38289,-2.444784,-39.48394,1007.651
15.923123836,4.506707,70.23701,-4.840017,-1.116083,-0.043293,0.3378207,19.74769,-2.439713,-39.0493,1007.649
15.958425045,8.358194,93.28316,-8.932982,-1.114424,-0.1275097,0.3417946,20.493,-3.140613,-36.86322,1007.647
15.991204739,2.767324,85.24656,-7.894468,-1.086535,-0.2174088,0.3375317,20.493,-3.140613,-36.86322,1007.649
16.023983955,7.799108,60.01398,-7.894468,-1.061724,-0.2508289,0.2643562,24.18166,-2.414667,-36.44435,1007.649
16.056763649,33.39287,31.53131,-12.53723,-1.053604,-0.2205278,0.12951,25.66261,-3.475805,-33.81837,1007.649
16.089543343,68.11839,11.73526,-21.6395,-0.9561273,-0.1726393,0.1051385,25.66261,-3.475805,-33.81837,1007.651
16.124843597,108.6833,7.480584,-34.28492,-0.9119412,-0.1672263,0.1300564,27.47624,-3.115731,-33.82645,1007.651
16.157623291,133.8422,7.244213,-44.30352,-0.8552271,-0.1167508,0.1765379,27.8763,-4.920957,-32.49293,1007.651
16.190402985,149.3102,12.44437,-49.19064,-0.8436784,-0.06879102,0.1956927,27.8763,-4.920957,-32.49293,1007.651
16.223182201,148.1299,20.65825,-48.8852,-0.8481516,-0.02598924,0.1927506,28.28916,-7.461,-31.58307,1007.651
16.258483410,131.2331,31.29494,-44.05917,-0.8608821,0.02326921,0.2177374,28.70533,-10.04395,-29.36692,1007.651
16.291262626,105.7636,40.39521,-36.42304,-0.9100389,0.08067736,0.2678291,28.70533,-10.04395,-29.36692,1007.651
16.324042320,70.97594,44.05895,-27.13751,-0.917805,0.08368871,0.2899856,29.835,-11.83904,-27.16412,1007.651
16.356822014,46.31399,43.40893,-16.99673,-0.9342129,0.04472947,0.3103004,31.761,-13.9945,-24.5215,1007.651
16.389601230,39.72919,42.93619,-7.894468,-0.9501356,0.005260461,0.326764,31.761,-13.9945,-24.5215,1007.651
16.424901962,40.78524,47.36814,-0.1361634,-0.984128,0.01706058,0.3836275,33.23301,-14.70904,-23.20658,1007.649
16.457682133,39.97767,54.63654,2.979376,-0.9966802,-0.009186823,0.4063208,33.25722,-15.84016,-21.51015,1007.649
16.490460873,39.85343,62.2595,6.094916,-1.026756,-0.01907809,0.4208479,33.25722,-15.84016,-21.51015,1007.647
16.523240566,41.71705,60.54581,9.882435,-1.037373,-0.04794531,0.4146589,34.36057,-16.17155,-18.89516,1007.647
16.558541298,57.9927,58.95031,14.58629,-1.202988,-0.04636962,0.3500655,35.10661,-16.86651,-16.27397,1007.647
16.591320991,45.56854,44.5317,11.04313,-1.42696,0.0003147109,0.3288651,35.10661,-16.86651,-16.27397,1007.647
16.624100685,67.37293,7.185121,2.185219,-1.277669,-0.1247825,0.1597416,35.13198,-17.91821,-13.21099,1007.647
16.656879902,124.7104,-32.58426,3.956801,-1.125796,-0.1156504,-0.04039753,35.15663,-18.97586,-10.58313,1007.647
16.689659595,152.1678,-57.2259,10.85986,-1.088516,-0.08976225,-0.1444991,35.15663,-18.97586,-10.58313,1007.647
16.724960804,154.7769,-56.22133,9.027188,-1.066493,0.058082,-0.06197996,35.90579,-20.06497,-10.13177,1007.647
16.757739544,120.4862,-53.32579,0.1692817,-1.100119,0.09782723,-0.1192422,34.84278,-21.50227,-8.802108,1007.649
16.790519237,91.66216,-47.77108,-0.6248755,-0.9994277,0.02871483,-0.09338327,34.84278,-21.50227,-8.802108,1007.649
16.823298454,89.05309,-49.13021,-1.846656,-1.012837,-0.04627346,-0.0749467,33.76625,-22.21069,-7.483904,1007.647
16.858599663,121.1695,-57.99411,-5.756353,-1.025633,0.02925094,-0.05481299,33.79588,-23.71729,-6.589806,1007.647
16.891379356,145.3966,-72.11725,-9.604961,-1.007834,0.1076063,-0.01453891,33.43325,-23.70453,-5.719111,1007.647
16.924158573,159.8708,-81.21752,-14.55317,-0.9414617,0.1830882,0.04439739,33.43325,-23.70453,-5.719111,1007.647
16.956938267,152.4163,-81.63117,-24.75504,-0.8764175,0.2075374,0.1202614,33.08415,-24.42065,-4.836959,1007.645
16.989717484,135.8922,-66.68073,-37.82809,-0.7166905,0.2398025,0.2257335,33.08561,-24.40876,-3.966735,1007.644
17.025018215,115.9514,-33.76611,-53.40578,-0.8128188,0.242254,0.2736126,33.08561,-24.40876,-3.966735,1007.644
17.057797909,124.9589,-18.04745,-70.26635,-0.9457626,0.1922236,0.2427149,33.81667,-24.38673,-2.227228,1007.644
17.090577126,177.1404,-4.928879,-77.41376,-0.9520488,0.1743936,0.2076172,34.51883,-22.85216,-0.946708,1007.644
17.123356819,223.5446,4.230486,-74.23714,-1.030944,0.2670756,0.1831152,34.51883,-22.85216,-0.946708,1007.646
17.158658028,209.6295,9.430642,-67.27299,-1.026883,0.3971448,0.1824282,36.28418,-19.52903,2.480266,1007.646
17.191437244,155.6466,25.79932,-57.37657,-0.9693539,0.5002422,0.1609564,36.98486,-17.6568,6.242364,1007.646
17.224216938,93.83639,45.06353,-46.13619,-0.9896966,0.4847082,0.192798,36.98486,-17.6568,6.242364,1007.646
17.256996155,59.11087,58.41848,-41.49343,-0.9956995,0.3596805,0.2204383,37.6501,-13.90588,9.664063,1007.644
17.289775848,37.86557,68.70061,-43.81481,-0.9357113,0.261254,0.2820587,37.24981,-11.68273,12.24082,1007.643
17.325076580,24.38535,84.59654,-52.36727,-1.017102,0.190219,0.3203863,37.24981,-11.68273,12.24082,1007.643
17.357855797,42.95947,85.42384,-50.5346,-0.9970874,0.1369879,0.2756524,36.84276,-9.09513,14.81185,1007.643
17.390635490,87.06522,86.07386,-38.74442,-0.970939,0.1724466,0.3005677,35.36667,-7.574453,19.14193,1007.643
17.423414707,37.80344,80.0464,-11.68199,-1.027009,0.2673877,0.2933373,35.36667,-7.574453,19.14193,1007.643
17.458715916,-35.37483,77.80088,12.69253,-0.9636173,0.1256187,0.1412903,33.86554,-4.929445,21.2783,1007.643
17.491495609,-43.01569,78.92365,30.04181,-0.9309399,0.04934816,0.05997758,31.22688,-3.065343,23.86369,1007.643
17.524274826,-74.07607,68.46424,41.70981,-0.9501745,-0.05344617,-0.06112503,31.22688,-3.065343,23.86369,1007.644
17.557054520,-65.1928,55.8184,40.6713,-0.9647065,-0.3000175,-0.2022393,29.41616,-3.401641,25.61222,1007.644
17.589833736,4.382465,61.19584,34.31804,-0.9764614,-0.247648,-0.151266,27.27444,-5.565196,26.95475,1007.644
17.625134468,42.40038,55.22747,28.94221,-0.9509077,-0.1765249,-0.1798341,27.27444,-5.565196,26.95475,1007.646
17.657914162,-3.817478,52.5683,32.48537,-1.044471,0.1599261,-0.221035,25.47048,-6.265931,28.70901,1007.644
17.690693378,-48.23383,25.20839,29.30874,-0.8871129,-0.2822031,-0.3251975,23.2193,-5.890169,29.14128,1007.644
17.756252289,-24.44158,19.65368,12.99797,-0.9719059,-0.1290542,-0.1918899,21.77048,-6.245172,29.58401,1007.643
17.791553497,26.93231,8.544252,1.268884,-0.9457673,-0.09476034,-0.1944104,20.32156,-6.601024,29.96457,1007.644
17.824333191,46.9352,10.37613,1.940863,-0.9128588,0.1517939,-0.2179654,19.23867,-7.011694,30.84289,1007.644
17.857112408,16.62026,-6.406196,4.873136,-0.9581079,0.182319,-0.2564131,19.23867,-7.011694,30.84289,1007.646
17.889892101,-2.3887,-19.17021,12.99797,-1.071869,0.4342773,-0.3070659,18.83893,-5.133841,30.37864,1007.642
17.957972050,-60.28526,-16.74742,15.50262,-0.8443211,0.1141025,-0.2575428,17.73245,-4.408293,29.93348,1007.646
17.990751743,-32.14455,-15.97921,-10.03258,-0.9147798,-0.2640841,-0.2077069,17.73858,-4.777825,29.56626,1007.646
18.023530960,57.68209,-29.39325,-32.57443,-1.186243,-0.05267734,-0.2271174,17.38585,-5.523658,28.27285,1007.648
18.056310654,12.70665,-26.08406,-27.25969,-1.161835,0.5167728,-0.1721956,17.38585,-5.523658,28.27285,1007.65
18.091611862,-21.64614,-54.8031,-31.23047,-1.272555,-0.0444507,0.07922095,17.72215,-4.072726,27.81435,1007.65
18.124391079,32.02621,-76.84467,-24.14415,-0.8681626,0.2818313,-0.5523325,17.32344,-2.256462,27.2889,1007.647
18.157170773,-71.96397,-56.16224,-23.65543,-0.6245199,-0.0002193969,-0.1524737,17.32344,-2.256462,27.2889,1007.651
18.189949513,-37.42482,-73.2991,-31.16938,-1.208241,-0.1010935,0.2611085,18.7627,-1.559948,25.16216,1007.649
18.225250721,-29.84608,-89.31322,-35.62888,-1.13589,0.4111569,-0.2630754,19.85348,-1.574454,24.29053,1007.649
18.258030415,-73.76547,-76.01737,-45.58639,-1.036422,-0.07705036,0.2202304,19.85348,-1.574454,24.29053,1007.649
18.290809631,-11.33409,-93.03606,-55.60499,-1.208167,0.01217293,-0.05002205,20.93459,-1.248299,21.67272,1007.651
18.323589325,-28.04458,-87.00861,-63.60765,-0.9226453,0.02074093,-0.00161328,22.01112,-0.5398741,20.35451,1007.651
18.356368542,-43.20205,-87.895,-69.96091,-1.204512,-0.02268153,0.3264467,22.01112,-0.5398741,20.35451,1007.654
18.391669750,-24.8143,-94.92702,-73.93169,-0.704095,0.03033995,0.1355233,23.869,0.5251532,18.59445,1007.654
18.424449444,-21.14917,-91.20419,-88.65414,-1.279068,-0.2784491,0.5460287,24.22082,0.9137931,15.97662,1007.654
18.457228184,2.456721,-102.6091,-97.08443,-1.12733,-0.1971616,0.4266498,24.22082,0.9137931,15.97662,1007.656
18.525309086,-8.725019,-82.04482,-85.41643,-0.9588215,-0.394495,0.4924942,26.67275,5.57404,10.6775,1007.659
18.558088303,-1.705371,-63.667,-70.32744,-0.8639502,-0.4726334,0.4880546,26.67275,5.57404,10.6775,1007.659
18.590867996,13.26574,-39.08445,-55.11628,-0.7284392,-0.4855632,0.4968986,26.98514,8.088562,8.026253,1007.659
18.623647213,3.823378,-23.89763,-40.516,-0.7583746,-0.3477977,0.5232368,28.02601,10.67397,6.243331,1007.659
18.656426907,-7.544724,-12.37456,-28.23711,-0.7142223,-0.3449388,0.4610322,28.02601,10.67397,6.243331,1007.657
18.691728115,-31.70971,-2.210616,-14.85862,-0.6623178,-0.3286377,0.4315214,28.00573,11.76728,6.226141,1007.661
18.724506855,-39.41268,8.603345,-10.09367,-0.6835215,-0.3929695,0.4509231,27.99606,12.10794,4.479964,1007.663
18.757287025,-37.11421,16.63995,-10.27694,-0.7625222,-0.4453801,0.5031766,27.99606,12.10794,4.479964,1007.657
18.790065765,-23.3234,17.40816,-13.45357,-0.8138134,-0.5106961,0.5573092,27.2498,13.22083,5.769049,1007.657
18.822845459,-17.29769,14.45352,-22.37256,-0.8818364,-0.4876952,0.5848734,27.25801,12.86828,6.645002,1007.659
18.858146667,-3.19627,11.97163,-30.43632,-0.9235506,-0.5262444,0.4844259,27.62282,12.87335,7.079644,1007.657
18.890925884,5.438519,10.67159,-31.16938,-0.9150052,-0.4590071,0.4077677,27.62282,12.87335,7.079644,1007.657
18.923705578,21.40356,12.79893,-27.07642,-0.8640914,-0.4344347,0.3782469,27.24522,13.6031,7.068654,1007.657
18.956484795,19.78842,18.29455,-21.15078,-0.844395,-0.3491862,0.3568918,27.58152,15.05403,6.610152,1007.657
18.991786003,3.94762,27.86756,-14.67535,-0.8531011,-0.3598365,0.3766643,27.58152,15.05403,6.610152,1007.651
19.024565697,5.749122,36.96783,-14.30882,-0.8484008,-0.5016285,0.3619446,26.48253,15.42108,6.605832,1007.651
19.057344437,16.37177,42.75891,-20.90643,-0.932361,-0.5238824,0.344367,27.19073,16.58528,7.456971,1007.649
19.090124607,36.1883,44.23623,-24.63286,-0.9437061,-0.4484497,0.3495752,27.19073,16.58528,7.456971,1007.649
19.122903347,42.1519,48.13635,-25.91573,-0.9361451,-0.3723369,0.2897537,27.19145,16.59122,7.892082,1007.649
19.158204556,27.67776,55.34565,-29.21453,-0.9351707,-0.3849062,0.2320069,27.16368,18.04302,7.434051,1007.649
19.190984249,42.64886,69.587,-28.72582,-0.9241467,-0.3163481,0.2723118,27.16368,18.04302,7.434051,1007.649
19.223763466,15.06724,76.55994,-33.79621,-0.92932,-0.3900408,0.2570315,27.15016,18.7719,7.422591,1007.649
19.256543160,34.0762,80.99189,-35.93433,-0.8646846,-0.4123855,0.2578747,26.75445,20.61279,8.699746,1007.649
19.291844368,63.27296,85.83749,-32.45225,-0.7983275,-0.3401673,0.267717,26.75445,20.61279,8.699746,1007.649
19.324623108,50.35184,89.7967,-36.23977,-0.8244665,-0.367395,0.3058476,26.38362,20.9781,8.694486,1007.653
19.357403278,44.63673,91.68766,-46.56382,-0.8703827,-0.4589108,0.2979113,25.63132,22.46137,10.41295,1007.653
19.390182018,69.73352,88.61485,-54.74974,-0.8656806,-0.3971217,0.2828848,25.63132,22.46137,10.41295,1007.653
19.422961712,80.54254,78.4509,-61.95825,-0.8630407,-0.4852131,0.2887877,24.50488,24.35285,10.81987,1007.654
19.458262920,95.45152,66.21872,-67.88388,-0.778486,-0.5107539,0.2963274,22.95481,26.18462,11.22829,1007.656
19.491042137,102.5333,59.89579,-70.81615,-0.6922221,-0.444455,0.2714734,22.95481,26.18462,11.22829,1007.656
19.523821831,78.36831,56.88206,-73.44298,-0.6842284,-0.5338189,0.2980641,21.44369,29.09766,10.74922,1007.656
19.556601047,73.8335,51.44554,-77.10832,-0.6179216,-0.6437158,0.313476,20.29479,32.06462,9.833607,1007.658
19.591901779,91.28944,37.55876,-79.36861,-0.5721377,-0.7042769,0.3043128,20.29479,32.06462,9.833607,1007.658
19.624680996,101.353,25.38567,-77.65812,-0.5439221,-0.7138242,0.3682814,17.3259,34.96927,8.486191,1007.658
19.657460689,90.54398,14.98535,-75.58109,-0.5108227,-0.7355201,0.4303312,14.67851,36.76204,5.850239,1007.658
19.690240383,87.37582,5.235062,-72.28229,-0.4263651,-0.7186328,0.4459904,14.67851,36.76204,5.850239,1007.655
19.723019600,73.89561,-3.569747,-70.63288,-0.4583085,-0.7617249,0.4509447,13.178,38.92244,3.642179,1007.654
19.758320808,76.69105,-17.81108,-69.71655,-0.4689443,-0.771183,0.5044154,10.21881,41.13688,0.6891394,1007.654
19.791100025,90.10914,-32.93881,-69.4111,-0.4175216,-0.7467453,0.5249552,7.651657,41.83025,-2.364814,1007.654
19.823879719,89.86066,-38.13897,-68.25041,-0.3452342,-0.7193318,0.5281119,7.651657,41.83025,-2.364814,1007.654
19.856659412,58.67603,-39.73447,-63.91309,-0.255784,-0.7527969,0.5809,4.644773,43.24162,-6.299902,1007.654
19.891959667,60.35329,-35.77526,-54.62757,-0.1960199,-0.7673428,0.588482,2.469471,42.48233,-8.896293,1007.655
19.924739361,24.01263,-30.45692,-48.70193,-0.2072661,-0.724206,0.6418747,2.469471,42.48233,-8.896293,1007.655
19.957518578,-17.67041,-32.34789,-47.05253,-0.2394238,-0.8741837,0.6850182,-0.8910958,43.55986,-10.64962,1007.655
19.990298271,6.618813,-37.0753,-50.77896,-0.2398577,-0.8966144,0.6816835,-2.35344,43.93373,-10.21836,1007.655
20.023077488,44.88521,-40.91632,-57.25439,-0.173326,-0.9034987,0.6622816,-2.35344,43.93373,-10.21836,1007.654
20.058378696,62.46539,-41.03451,-61.71389,-0.09494556,-0.7779326,0.6951204,-5.275,44.28732,-11.52567,1007.654
20.091158390,67.06233,-35.83435,-56.88786,-0.02323234,-0.702406,0.754044,-7.807619,43.16445,-14.11586,1007.654
20.123937607,56.5018,-29.03869,-39.35531,0.00936795,-0.7192658,0.8117555,-7.807619,43.16445,-14.11586,1007.652
20.156717300,31.96409,-31.04784,-25.12157,0.1357563,-0.7665234,0.8678463,-9.676616,42.4282,-14.97219,1007.652
20.189496040,6.121847,-30.69329,-6.367243,0.02946386,-0.5671632,0.9486667,-12.93594,41.31897,-16.69122,1007.652
20.224797249,-49.91109,-24.9613,-2.946258,0.0351515,-0.7374878,0.8218304,-12.93594,41.31897,-16.69122,1007.654
20.257576943,-62.58373,-23.07033,-4.168038,-0.0170438,-0.8593507,0.7297165,-13.29325,40.9554,-16.68502,1007.654
20.290356159,-5.432618,-15.09282,-12.78159,-0.07005004,-0.8585123,0.5637711,-13.30314,41.714,-14.52092,1007.654
20.323135853,27.802,-6.406196,-17.66871,-0.1044029,-0.4871587,0.6379039,-13.30314,41.714,-14.52092,1007.654
20.358437061,-53.45198,-10.48359,-9.971496,-0.0801603,-0.6839967,0.5981901,-14.0366,42.09207,-13.65549,1007.655
20.391216278,-12.01742,-2.09243,-9.116249,0.01419414,-0.7595987,0.5388728,-14.38716,41.36407,-13.64356,1007.657
20.423995972,20.96871,3.403189,-3.679327,-0.003104496,-0.6099203,0.6522896,-14.38716,41.36407,-13.64356,1007.657
20.456774711,11.6506,13.21257,-0.3805195,-0.03957739,-0.5620886,0.7808276,-14.0209,41.38102,-12.33869,1007.657
20.489554882,-9.843193,13.33076,-2.091012,-0.02902586,-0.7079943,0.7978702,-15.12135,41.73619,-13.21324,1007.657
20.524855614,9.538489,4.112301,-5.206552,-0.06396165,-0.7169855,0.8075938,-15.12135,41.73619,-13.21324,1007.657
20.557634830,20.47175,-1.20604,-12.29288,0.04108547,-0.7802138,0.8339148,-15.11459,41.37175,-13.20751,1007.657
20.590414524,6.991538,0.271277,-9.543872,0.04838653,-0.7920024,0.8108099,-14.75196,41.359,-14.0782,1007.659
20.623193741,9.849093,4.821414,-5.511997,0.02837555,-0.7599328,0.7540083,-14.75196,41.359,-14.0782,1007.656
20.658494949,17.55207,7.362399,-2.396457,-0.007865249,-0.6382768,0.7125138,-15.1228,41.7243,-14.08346,1007.656
20.691274643,10.53242,8.603345,2.73502,-0.0294929,-0.5243638,0.7306852,-15.09648,40.26061,-14.49565,1007.656
20.724053383,-28.60367,5.530526,7.988676,-0.05161817,-0.6121746,0.7366464,-15.10397,40.6191,-14.93649,1007.658
20.756833553,-25.74611,5.825989,5.972738,-0.03137433,-0.7603191,0.7002381,-15.10397,40.6191,-14.93649,1007.658
20.789612293,-12.82499,5.825989,1.696507,-0.0225797,-0.7891983,0.6689723,-15.10928,40.99543,-14.072,1007.658
20.824913502,-13.50832,4.053208,0.1692817,-0.04729874,-0.804866,0.6868649,-14.75124,41.36494,-13.64309,1007.658
20.857693195,-0.4629558,3.107726,-0.01398538,-0.03608738,-0.8207642,0.6984149,-14.75124,41.36494,-13.64309,1007.658
20.890472412,4.133982,0.271277,-0.4416085,-0.01540604,-0.7337754,0.7160452,-14.74447,41.0005,-13.63736,1007.66
20.923252106,-0.1523519,-0.08327911,1.146706,0.007803612,-0.6987394,0.6836861,-14.75051,41.37088,-13.20798,1007.662
20.958552361,1.959754,0.8031111,2.001952,0.005824862,-0.6826569,0.6875174,-14.75051,41.37088,-13.20798,1007.662
20.991332054,-4.687168,-1.324225,0.5969048,-0.03295016,-0.7081457,0.7107532,-14.73771,40.63607,-13.63163,1007.662
21.024111271,0.2203727,-4.633416,-3.984771,-0.03151955,-0.7009655,0.6910031,-15.10855,41.00137,-13.63689,1007.662
21.056890965,2.021875,-8.947182,-3.007347,-0.03639881,-0.6983449,0.6534645,-15.10855,41.00137,-13.63689,1007.662
21.089670658,-9.905313,-7.647142,-0.5637865,-0.02713705,-0.7032604,0.7059184,-15.10855,41.00137,-13.63689,1007.662
21.124971390,-24.13097,-9.951757,2.612842,-0.02963721,-0.882708,0.6777945,-15.47794,41.37857,-12.77193,1007.662
21.157751083,6.432451,-10.95633,1.635418,-0.007406876,-0.8402306,0.6661251,-15.47794,41.37857,-12.77193,1007.663
21.190530300,8.544557,-8.710811,2.307397,-0.03401357,-0.676765,0.6721995,-15.47118,41.01413,-12.7662,1007.663
21.223309994,-7.793207,-6.93803,4.078979,-0.04755776,-0.6967795,0.6818889,-15.10637,41.0192,-12.33156,1007.663
21.258610725,-16.92496,-6.228918,0.9023499,-0.02841212,-0.7913558,0.645884,-15.10637,41.0192,-12.33156,1007.663
21.291389942,-1.953855,-3.569747,-1.296855,0.004110417,-0.7897338,0.6299194,-15.10637,41.0192,-12.33156,1007.663
21.324169636,5.873364,0.9803893,-1.541211,0.00567258,-0.8254502,0.6747362,-15.11241,41.38958,-11.90217,1007.663
21.356948852,10.53242,0.271277,-2.82408,-0.01054479,-0.7397099,0.6972695,-15.11241,41.38958,-11.90217,1007.663
21.389728546,5.935484,1.689501,-2.274279,0.02295399,-0.7379993,0.6928552,-15.09888,40.66071,-11.89071,1007.663
21.425029755,2.456721,8.780623,-0.6248755,0.04377881,-0.7149383,0.6922897,-15.47045,41.02008,-12.33109,1007.663
21.457808971,-6.488671,9.962477,1.207795,0.007795362,-0.6933118,0.6937865,-15.47045,41.02008,-12.33109,1007.663
21.490588665,-6.115946,6.180545,-0.01398538,-0.008604567,-0.7437673,0.6717588,-15.83525,41.01501,-12.76573,1007.665
21.523367882,-3.879599,4.821414,0.6579938,0.01277899,-0.7528961,0.6640201,-15.46441,40.6497,-12.76047,1007.665
21.558668613,0.965822,3.816838,-0.9303206,-0.02511263,-0.7448959,0.6693929,-15.46441,40.6497,-12.76047,1007.665
21.591448307,1.214305,-0.9105766,-0.9303206,-0.03011115,-0.684535,0.6707578,-15.10565,41.02515,-11.89644,1007.665
21.624227524,-12.45227,-3.392469,4.323335,-0.04367203,-0.6997597,0.6688875,-15.46972,41.02602,-11.89597,1007.663
21.657007217,-20.96281,-4.751601,6.033827,-0.04153777,-0.7836225,0.6531239,-15.46972,41.02602,-11.89597,1007.663
21.689786434,-7.855328,-6.228918,4.995314,-0.02740033,-0.810412,0.6358017,-14.37146,40.65302,-12.32677,1007.668
21.725087643,-1.519009,-5.933455,2.918287,-0.040599,-0.7689668,0.6583945,-14.7476,41.39466,-11.46753,1007.668
21.757867336,-12.20378,-5.933455,4.078979,-0.02556345,-0.7620362,0.656423,-15.46827,41.03791,-11.02575,1007.663
21.790646553,-8.973502,-4.27886,4.140068,0.0002589449,-0.8023819,0.6366867,-15.46827,41.03791,-11.02575,1007.663
21.823426247,1.090063,-4.574323,3.406999,-0.01139836,-0.7974851,0.6545174,-15.46682,41.0498,-10.15553,1007.663
21.856204987,3.015808,-4.810694,2.796109,-0.01141225,-0.7916408,0.6545086,-14.75218,41.77693,-10.16793,1007.667
21.891506195,3.637015,-2.978821,0.4136378,-0.02024726,-0.7522812,0.6520634,-14.75218,41.77693,-10.16793,1007.667
21.924285412,-0.711439,-2.033338,-0.5026975,-0.01246877,-0.7581311,0.6419452,-14.7319,40.68362,-10.15074,1007.667
21.957065105,-2.326579,-2.033338,-0.0750744,0.003123573,-0.7773586,0.6597476,-15.10347,41.04298,-10.59111,1007.667
21.989844799,-0.711439,-1.146947,0.6579938,-0.0007165748,-0.7994277,0.6424609,-15.10347,41.04298,-10.59111,1007.671
22.025145054,8.979403,-0.08327911,-0.3805195,-0.01926039,-0.7601091,0.6458151,-14.74011,41.03617,-11.02669,1007.671
22.057925224,2.953687,-0.08327911,-0.2583414,-0.0241107,-0.759055,0.6631541,-15.11023,41.40742,-10.59684,1007.669
22.090703964,0.5309766,-0.6742059,0.9023499,-0.0003069177,-0.7627259,0.6669541,-15.11023,41.40742,-10.59684,1007.669
22.123483658,-1.891734,-0.7332986,0.3525487,-0.01486144,-0.7717445,0.6482291,-14.75291,41.77098,-10.60304,1007.673
22.156262875,-1.829613,-0.6742059,0.3525487,-0.0182747,-0.7684608,0.6342727,-15.10274,41.04892,-10.156,1007.673
22.191564083,-0.2144727,0.3894624,0.4136378,-0.0143464,-0.7834023,0.6520963,-15.10274,41.04892,-10.156,1007.675
22.224343777,0.7794597,-0.08327911,0.04710364,-0.01970664,-0.7741466,0.6588342,-15.11095,41.40147,-11.03195,1007.676
22.257122994,0.7794597,-0.3196498,-0.1361634,0.001637969,-0.7677206,0.6467398,-15.0967,40.67854,-10.58538,1007.676
22.289902687,0.4067351,-0.1423718,-0.6859645,-0.009029173,-0.7711051,0.6631365,-15.0967,40.67854,-10.58538,1007.674
22.325203895,-1.643251,-0.4378352,-0.5637865,-0.001748641,-0.7710911,0.6563801,-15.10492,41.03109,-11.46133,1007.674
22.357982635,-0.0281104,-0.02418643,-0.1972524,-0.01294006,-0.7614472,0.6559108,-15.10347,41.04298,-10.59111,1007.674
22.390762329,-0.2765935,-0.2605571,0.2914597,-0.009519554,-0.77169,0.6496604,-15.10347,41.04298,-10.59111,1007.674
22.423541546,-1.022043,-0.3196498,0.2303707,-0.008537943,-0.7740433,0.6602516,-15.47503,41.40235,-11.03148,1007.674
22.456321239,-0.2144727,-0.5560206,0.1081927,-0.01633157,-0.7648948,0.65448,-15.46754,41.04385,-10.59064,1007.674
22.491622448,-0.9599221,-0.2605571,0.04710364,-0.01440395,-0.7595515,0.6501351,-15.46754,41.04385,-10.59064,1007.674
22.524401665,-2.326579,-0.02418643,0.1692817,-0.006597013,-0.7760689,0.6467719,-15.10347,41.04298,-10.59111,1007.674
22.557181358,-1.767492,-0.02418643,0.2303707,-0.00563425,-0.7711403,0.6539826,-15.4743,41.40829,-10.59637,1007.674
22.589960575,-0.8978013,0.09399892,0.2303707,-0.0124396,-0.7692925,0.6477383,-15.4743,41.40829,-10.59637,1007.674
22.625261307,-0.400835,-0.2605571,0.04710364,-0.009520103,-0.7722037,0.6458103,-14.73335,40.67173,-11.02096,1007.674
22.658041477,-0.400835,-0.02418643,0.04710364,-0.0128967,-0.7824898,0.6415015,-15.46078,40.67942,-10.58491,1007.674
22.690820217,-0.09023117,-0.2605571,-0.4416085,-0.01971115,-0.7752277,0.6434322,-15.11023,41.40742,-10.59684,1007.672
22.723599911,-0.5871974,-0.1423718,-1.113588,-0.002205098,-0.7842785,0.6515875,-15.11023,41.40742,-10.59684,1007.672
22.756379127,-6.42655,-1.087855,-3.373881,-0.06226997,-0.837562,0.6956142,-15.11023,41.40742,-10.59684,1007.672
22.791680336,33.76559,-28.03412,-15.04188,-0.133009,-1.085768,0.8073506,-14.74542,41.41249,-10.1622,1007.67
22.824459553,43.08371,-57.2259,-16.0804,-0.146382,-0.5131521,1.082821,-14.74542,41.41249,-10.1622,1007.67
22.857239246,-50.96714,-113.3048,-32.39116,-0.2517667,-1.100191,1.187449,-15.11168,41.39553,-11.46706,1007.67
22.890017986,102.2227,-168.9702,-77.7803,-0.06986518,-1.213709,1.243507,-16.25419,41.06358,-9.284285,1007.669
22.922798157,48.23973,-208.4441,-86.1495,0.0577227,-0.4775183,1.619483,-16.25419,41.06358,-9.284285,1007.67
22.958098888,-80.78512,-259.3229,-108.7524,-0.05977421,-1.194069,1.113968,-18.81095,41.42223,-10.15695,1007.67
22.990878105,127.8786,-296.2558,-110.7684,-0.1460257,-0.7298443,0.7380103,-23.14557,40.0344,-5.777274,1007.669
23.023657799,134.1528,-316.761,-69.28893,0.2445271,0.224919,0.7120582,-23.14557,40.0344,-5.777274,1007.669
23.056437016,-118.4303,-333.6024,-65.74577,0.008862934,-0.213496,0.2136245,-27.55617,39.29106,-3.148472,1007.667
23.091738224,-32.5794,-306.9516,-82.05653,0.2263101,-0.6898698,-0.3349256,-30.78691,37.57608,4.156988,1007.667
23.124517918,91.7864,-251.0499,-65.25705,0.6476452,-0.05917013,-0.5640783,-30.78691,37.57608,4.156988,1007.667
23.157296658,-93.20927,-213.7624,-48.39648,0.4156214,-0.08716838,-0.5293092,-31.89825,36.23997,12.88363,1007.665
23.190076828,-68.73369,-178.6023,-34.71255,0.6263409,-0.5377424,-0.7914719,-31.49767,34.85862,18.56253,1007.665
23.222855568,15.06724,-137.8283,-14.49208,0.7617847,-0.2976553,-0.677591,-31.49767,34.85862,18.56253,1007.663
23.258156776,38.92162,-100.8363,4.384424,0.7636364,-0.4753326,-0.736535,-30.28726,32.38801,24.69272,1007.663
23.290936470,11.02939,-69.16262,15.68589,0.8228023,-0.2567788,-0.8260567,-28.08462,31.62203,26.81571,1007.663
23.323715687,62.09267,-54.68492,72.9874,0.7920121,-0.1000183,-0.448351,-28.08462,31.62203,26.81571,1007.662
23.356495380,172.9783,-44.10733,221.4337,0.945501,-0.004542948,-0.9109662,-26.28346,32.78955,28.10055,1007.662
23.391795635,-524.7623,147.412,-8.627537,-3.276305,0.1024855,2.397177,-22.26348,34.92567,25.0773,1007.662
23.424575329,113.2181,-41.68453,-12.7205,2.064804,-3.22118,-1.587493,-22.26348,34.92567,25.0773,1007.66
23.457354545,296.2258,24.20381,21.1839,0.5833101,1.330105,-0.2430259,-15.03932,41.98737,31.85763,1007.66
23.490134239,-204.0949,32.00405,-4.840017,0.6243124,-0.9073161,-0.7759879,-14.52795,33.46729,26.39561,1007.66
23.522913933,56.37756,31.17675,-14.61426,0.5189139,-0.7859071,-0.2093581,-14.52795,33.46729,26.39561,1007.66
23.558214664,60.72601,13.44895,-13.51466,0.5557435,-0.5821924,-0.3748596,-14.65474,40.47526,27.96408,1007.66
23.590994358,26.55958,32.83134,-5.267641,0.5806792,-0.4671792,-0.4646254,-15.71567,38.56523,25.81953,1007.658
23.623773575,-43.88538,54.22289,-3.312792,0.5196022,-0.7125408,-0.4458189,-16.89207,39.70506,24.5597,1007.658
23.656553268,11.27787,57.65027,0.1081927,0.5498512,-0.9696595,-0.4065129,-16.89207,39.70506,24.5597,1007.658
23.691854477,118.6226,68.28696,0.1081927,0.7421769,-0.5491974,-0.2665638,-17.61161,39.28757,25.00243,1007.656
23.724633217,31.28076,71.24159,-3.618237,0.6140572,-0.5915989,-0.3268476,-18.35089,39.61809,22.38697,1007.656
23.757412910,-1.022043,87.78754,-4.534573,0.5838541,-0.7787521,-0.4492411,-18.35089,39.61809,22.38697,1007.655
23.790192127,18.17328,106.4608,1.452151,0.7213849,-0.6050851,-0.3641467,-20.21057,41.46972,19.74905,1007.653
23.822971821,-59.04285,120.8794,-7.527934,0.8977985,-0.6785146,-0.419811,-21.31319,41.80705,17.56917,1007.653
23.858273029,-52.89289,152.494,-21.08969,0.8804427,-0.9363317,-0.4237135,-21.31319,41.80705,17.56917,1007.651
23.891052246,-14.81286,175.1265,-25.67137,0.6125786,-0.7631755,-0.2048009,-23.11402,40.71216,17.1536,1007.651
23.923831940,44.264,196.6363,-17.18,0.5350906,-0.4343647,-0.1733428,-26.07743,39.96069,14.99334,1007.651
23.956611156,64.32902,213.655,-10.15476,0.5332074,-0.4566937,-0.160308,-26.07743,39.96069,14.99334,1007.65
23.991911888,79.05164,233.3919,4.078979,0.536294,-0.2842459,0.05122398,-27.8791,38.3693,9.363109,1007.65
24.024691105,50.72457,230.9691,30.83597,0.629466,-0.1984805,0.3661656,-29.35296,38.64891,2.894742,1007.65
24.057470799,25.87625,240.0103,57.28751,0.6952143,-0.251933,0.5148311,-29.35296,38.64891,2.894742,1007.65
24.090250015,-44.2581,228.4281,88.13747,0.5603198,-0.6440454,0.8108168,-28.99437,38.18341,-4.434738,1007.65
24.123029709,-64.13675,205.6183,94.55182,0.2210706,-0.6796868,0.9960366,-25.37221,38.86195,-7.496678,1007.651
24.158330917,-5.61898,171.4628,74.82006,0.04876787,-0.9072616,1.044924,-25.37221,38.86195,-7.496678,1007.651
24.191109657,65.13659,153.6168,53.19455,-0.07851287,-0.670886,1.080972,-20.96692,39.98161,-9.260986,1007.649
24.223889828,6.121847,128.7979,53.25564,-0.1065839,-0.5338225,0.9340169,-16.60308,39.92953,-12.31241,1007.65
24.256668568,-38.54299,109.8882,66.14542,-0.1317661,-0.5895578,0.793603,-16.60308,39.92953,-12.31241,1007.655
24.291969776,-5.370497,91.3922,71.09364,-0.2753704,-0.6605508,0.7025918,-12.54649,40.26639,-13.62872,1007.656
24.324749470,-20.09312,66.21872,70.1773,-0.3341241,-0.4291988,0.8443843,-9.256269,39.52966,-13.62149,1007.656
24.357528686,-96.06683,39.80428,75.98076,-0.3821364,-0.6797149,0.7365693,-9.256269,39.52966,-13.62149,1007.654
24.390308380,-89.23354,18.70819,77.75233,-0.3420445,-0.8210607,0.6033501,-5.189284,39.53181,-12.75651,1007.656
24.423087597,-94.38956,5.41234,74.88116,-0.3534044,-0.7418187,0.5960372,-2.64169,39.93769,-9.284636,1007.657
24.458388328,-100.8501,-9.597201,67.3672,-0.3408816,-0.9185769,0.5163679,-2.64169,39.93769,-9.284636,1007.657
24.491168499,-64.57159,-12.37456,62.54117,-0.3825722,-0.9527109,0.4905246,0.7000459,39.96535,-6.678274,1007.657
24.523947239,-46.86718,-12.72911,57.40969,-0.3650283,-0.7833805,0.4464239,2.176092,39.21385,-3.621957,1007.657
24.556726932,-66.06249,-21.65211,52.64475,-0.4514392,-0.7933852,0.4423116,2.176092,39.21385,-3.621957,1007.659
24.589506149,-36.493,-30.45692,50.32336,-0.4065795,-0.8815091,0.3927578,4.719652,39.6567,-1.891484,1007.659
24.624807358,-5.929584,-29.09779,51.42297,-0.4813106,-0.6950305,0.4042067,6.920946,38.87968,-0.5765536,1007.659
24.657586574,-49.66261,-29.27506,55.88247,-0.4313248,-0.4778556,0.4076117,8.81626,38.15224,-0.1324096,1007.659
24.690366268,-90.72444,-31.34331,57.77623,-0.4522834,-0.8712207,0.3163142,8.81626,38.15224,-0.1324096,1007.659
24.723145485,-13.13559,-26.08406,61.2583,-0.4031071,-0.717697,0.3424411,9.92347,37.43264,0.7478642,1007.659
24.758446217,-48.10959,-18.10655,60.34196,-0.4967775,-0.7076805,0.4947584,12.13716,35.98748,2.0733,1007.659
24.791225910,-6.178067,-14.79736,55.6992,-0.5874407,-0.9891385,0.4010508,12.13716,35.98748,2.0733,1007.661
24.824005127,91.66216,-4.633416,54.47742,-0.5553706,-0.5975783,0.3594688,13.97856,34.89575,2.523252,1007.661
24.856784821,70.91382,7.303306,46.10822,-0.6520671,-0.3453909,0.4613668,15.51365,33.78098,1.23315,1007.661
24.889564037,9.352127,10.5534,43.84793,-0.7038097,-0.451598,0.3788553,15.51365,33.78098,1.23315,1007.657
24.957644939,50.78669,25.32657,13.4256,-0.6385526,-1.146111,0.3715642,17.36784,31.95443,1.25945,1007.659
24.990424156,-10.40228,29.52216,36.33398,-0.5999648,-0.5936962,0.5511507,17.36784,31.95443,1.25945,1007.66
25.023203850,-12.94923,40.74976,42.25961,-0.4849434,-0.8118506,0.3485534,17.74657,31.16394,1.271395,1007.66
25.058504105,16.80662,50.44096,33.58498,-0.7757324,-0.4313962,0.3587783,18.12635,30.45202,2.58772,1007.662
25.091283798,-27.29913,29.28578,25.58231,-0.7777259,-0.6327376,0.2632955,18.12635,30.45202,2.58772,1007.662
25.124063492,6.991538,29.34488,21.36717,-0.6925976,-0.6937704,0.2790705,18.8673,29.71546,2.163129,1007.66
25.156842709,-16.61436,31.53131,22.58895,-0.7770411,-0.6821455,0.4414722,19.61168,29.00692,3.789778,1007.662
25.189622402,-5.743221,36.31781,18.49599,-0.7454805,-0.701606,0.3364898,19.61168,29.00692,3.789778,1007.662
25.224922657,4.941552,36.19963,11.22639,-0.8288755,-0.5625005,0.2695687,20.35481,28.28819,4.670522,1007.66
25.257702828,17.80055,32.53588,7.74432,-0.6841691,-0.5839126,0.1681717,20.3623,27.9297,5.111363,1007.66
25.290481567,-10.83713,32.83134,11.10422,-0.7303861,-0.713959,0.3629475,20.3623,27.9297,5.111363,1007.662
25.323261261,-3.258391,32.59497,14.70847,-0.7820078,-0.6667521,0.2797232,21.09867,27.5754,5.986377,1007.664
25.358562469,-3.444753,28.22212,16.90767,-0.8151193,-0.6472688,0.1796492,20.37124,27.58309,6.422429,1007.664
25.391341686,-2.3887,24.61746,18.61817,-0.7915137,-0.5696833,0.1722558,20.37124,27.58309,6.422429,1007.664
25.424121380,-10.40228,22.13557,24.23836,-0.7610745,-0.6935183,0.2575713,20.37945,27.23054,7.298382,1007.666
25.456900596,-3.382632,26.86298,29.12548,-0.797418,-0.5436668,0.1385353,20.02214,26.86698,7.304582,1007.667
25.489680290,-19.16131,30.11308,30.59161,-0.8337327,-0.5746884,0.203652,20.02214,26.86698,7.304582,1007.667
25.524981499,-18.16738,24.02654,31.87448,-0.887156,-0.5894504,0.1060845,21.49342,26.1465,8.184386,1007.667
25.557760239,-8.78714,37.08602,31.38577,-0.8044957,-0.4268707,0.1335624,21.50163,25.79395,9.060339,1007.667
25.590539932,-8.165933,31.76768,28.20914,-0.8781077,-0.5138543,0.1102814,22.61488,24.70397,9.511231,1007.667
25.623319149,-16.30375,29.52216,36.70052,-0.907511,-0.6071971,0.09990184,22.61488,24.70397,9.511231,1007.663
25.658620357,-19.59616,37.32239,41.2211,-0.8724179,-0.4593759,0.09333811,22.25298,24.72267,10.81704,1007.667
25.691399574,-35.12635,36.436,46.16931,-0.9252384,-0.5010875,0.111818,22.28864,22.84569,11.28175,1007.665
25.724179268,-24.19309,33.06771,53.9887,-1.033923,-0.5582961,4.727859E-06,22.28864,22.84569,11.28175,1007.665
25.756958485,-30.96426,41.57706,60.40305,-0.8984236,-0.3814909,-0.09156051,23.03322,22.13885,13.03272,1007.667
25.789738178,-52.52016,47.07268,64.37384,-0.919197,-0.4067778,0.009131486,23.85877,20.33855,14.8008,1007.668
25.825038910,-45.00355,38.09059,68.28354,-0.9721735,-0.5787119,0.07161194,23.85877,20.33855,14.8008,1007.671
25.857818127,-18.85071,38.79971,75.06442,-1.012369,-0.2657486,-0.1896625,24.61688,18.90283,16.56322,1007.671
25.890597820,-49.91109,34.89959,76.22511,-1.042366,-0.3037066,-0.1490997,23.93823,16.37135,17.90961,1007.671
25.923377037,-37.36269,30.05399,76.16402,-0.9948179,-0.2730853,-0.07512896,23.93823,16.37135,17.90961,1007.673
25.956156731,-34.93998,28.63577,72.68195,-0.9540304,-0.08839408,-0.1794782,25.08037,13.76882,18.81949,1007.674
25.991457939,-32.26879,34.60412,74.69788,-0.9445864,-0.1788572,-0.1726252,24.75759,11.58901,19.28945,1007.67
26.024237156,-39.72329,41.87252,67.85592,-0.9647481,-0.06781715,-0.149158,24.75759,11.58901,19.28945,1007.67
26.057016850,-63.88827,42.34526,50.50663,-1.029395,-0.04413523,-0.1678135,25.52922,9.424419,21.06334,1007.67
26.089795589,-41.95963,41.16341,39.38843,-1.136314,-0.02023684,-0.2446138,24.85242,6.838143,22.84579,1007.668
26.125096798,-15.62043,16.28539,37.00596,-1.016315,-0.03793557,-0.2025119,24.85242,6.838143,22.84579,1007.67
26.157876015,-3.879599,-1.678782,32.72973,-0.9342136,-0.0568257,-0.2161563,24.87344,5.750775,23.29809,1007.668
26.190655708,4.693069,-21.23846,27.59825,-1.043253,-0.1443141,-0.1993995,24.17305,4.300716,23.75706,1007.667
26.223434925,9.414248,-44.81644,15.31936,-1.042409,-0.07203682,-0.1022754,24.17305,4.300716,23.75706,1007.668
26.256214619,-21.70826,-58.8805,7.499964,-0.9684828,-0.1266258,-0.1269179,24.56418,2.842096,23.77951,1007.668
26.291515827,-26.18096,-63.60791,-5.206552,-0.9059069,-0.09323465,-0.09293993,24.55378,3.176814,21.59822,1007.667
26.324294567,-48.54443,-68.80806,-8.138824,-0.9654104,0.02539015,-0.05206183,24.55378,3.176814,21.59822,1007.667
26.357074261,-48.7308,-79.74021,-9.910406,-1.034315,0.01190621,-0.01722004,25.64456,3.162308,20.72659,1007.667
26.389853477,-8.911382,-89.19504,-13.33139,-0.9840293,0.1049563,-0.004001423,26.73243,3.124027,18.11451,1007.667
26.425154686,-47.30202,-106.1546,-21.33405,-0.9806096,-0.1037997,0.01844774,27.47796,2.005195,16.39031,1007.667
26.457934379,-169.5557,-124.237,-33.55185,-0.8812028,0.2182001,0.3286863,27.47796,2.005195,16.39031,1007.667
26.490713596,-197.0752,-139.8966,-42.16541,-0.7940308,-0.05690113,0.5151812,27.45332,3.062843,13.76245,1007.668
26.523493290,-170.9845,-146.1604,-52.67272,-0.7241122,-0.2553717,0.536013,28.56075,1.925307,10.73245,1007.668
26.556272507,-123.4621,-140.2511,-53.10034,-0.7889695,-0.1612368,0.4233863,28.56075,1.925307,10.73245,1007.67
26.591573238,-142.4089,-125.7734,-39.78294,-0.7975073,-0.05612644,0.3505626,28.9265,1.51839,7.691932,1007.67
26.624352455,-157.9391,-103.7909,-37.52264,-0.8649179,-0.2917701,0.3737016,28.53175,2.947292,5.493923,1007.67
26.657132149,-105.5092,-78.08561,-40.08838,-1.037608,0.03879384,0.3514703,28.53175,2.947292,5.493923,1007.672
26.689911365,-144.3347,-70.40356,-31.35265,-0.9722158,-0.08840977,0.4006059,27.81566,2.208274,4.636099,1007.672
26.725212574,-118.3061,-39.67538,-22.06712,-1.141275,-0.04462479,0.4567788,27.81566,2.208274,4.636099,1007.666
26.757992268,-72.83366,-37.0753,-5.511997,-1.018364,-0.07091348,0.4507506,27.81566,2.208274,4.636099,1007.666
26.790771484,-64.01251,-31.87514,11.47075,-1.000191,0.03096026,0.3706479,27.45907,1.850654,5.077411,1007.666
26.823551178,-72.70942,-17.81108,29.79745,-0.9320108,-0.04716327,0.4004483,27.49328,-0.03821421,4.671904,1007.668
26.856329918,13.07937,4.230486,51.91168,-0.9845923,0.02395706,0.4654497,27.49328,-0.03821421,4.671904,1007.668
26.891631126,15.93693,18.94456,54.53851,-1.258549,0.03632954,0.3327436,27.16373,-1.853583,5.136136,1007.671
26.924410343,9.786972,33.89501,57.3486,-0.7974359,-0.1009782,0.2740935,26.82743,-3.304514,5.594637,1007.667
26.957190037,-10.40228,35.54961,35.72309,-0.8209652,-0.5395046,0.6955204,26.82743,-3.304514,5.594637,1007.667
26.989969254,52.65031,44.70897,31.87448,-0.836776,-0.2878231,0.347154,26.14951,-5.830052,7.376134,1007.669
27.025269985,0.3446143,45.24081,31.50795,-0.9311639,-0.1890027,0.4536099,24.70287,-6.167223,9.12419,1007.671
27.058050156,12.70665,41.10432,38.22774,-1.036928,-0.4354752,0.4364218,24.70287,-6.167223,9.12419,1007.671
27.090828896,24.69596,38.0315,44.51991,-0.9885559,-0.1742995,0.3256816,23.9983,-7.301697,10.44861,1007.671
27.123608589,3.699136,37.26329,53.80544,-0.913682,-0.2075263,0.3602122,22.86785,-8.374413,11.77262,1007.671
27.156387806,19.16721,40.92704,63.57969,-0.9011842,-0.1750599,0.2513458,22.86785,-8.374413,11.77262,1007.671
27.191689014,3.512774,47.95907,65.83998,-0.9944114,-0.1712637,0.2789988,21.42652,-9.087909,12.65619,1007.672
27.224468708,19.7263,55.05019,64.00731,-1.039565,0.0350035,0.2990122,21.4572,-10.51594,14.85466,1007.672
27.257247925,6.805175,55.93658,63.02988,-1.122851,-0.06410617,0.2945456,21.4572,-10.51594,14.85466,1007.673
27.290027618,13.70058,54.04562,60.03652,-1.183838,0.04803272,0.2449409,19.30196,-11.95062,16.18574,1007.673
27.322806835,-2.885666,56.11386,57.95949,-1.144781,-0.03723932,0.2623058,17.13923,-13.0268,17.07597,1007.675
27.358107567,10.4703,55.34565,55.88247,-1.134415,0.0690314,0.1234889,17.13923,-13.0268,17.07597,1007.675
27.390886783,9.414248,56.46842,55.45484,-0.9645678,0.1057277,0.08355908,16.43354,-14.10054,18.39944,1007.675
27.423666477,0.6552181,54.34108,47.39109,-1.111255,0.1199485,0.06366839,15.65219,-14.45714,18.8413,1007.675
27.456445694,2.3946,52.74558,44.39773,-1.069284,0.2246266,0.008054468,15.65219,-14.45714,18.8413,1007.675
27.491746902,13.94906,56.35023,42.99268,-1.138562,0.1664125,0.05451725,14.2202,-15.58393,20.60177,1007.675
27.524526596,-1.953855,60.30944,46.65802,-1.243291,0.09622232,0.03224744,13.87037,-16.30598,21.04881,1007.671
27.557305336,-1.767492,73.72349,49.28485,-1.275799,0.2822115,-0.00742744,13.16999,-17.75604,21.50778,1007.671
27.590085506,-2.264458,62.67315,39.44952,-1.434282,-0.04530452,0.01077111,13.16999,-17.75604,21.50778,1007.673
27.622864246,78.80315,37.61785,12.8758,-1.512245,-0.1431396,-0.0269241,12.81413,-18.10772,22.3842,1007.673
27.658165455,116.5105,4.880506,-24.9383,-1.247934,0.1863692,-0.09591965,13.21201,-19.93078,22.41238,1007.673
27.690944672,147.0118,-0.8514839,-31.59701,-1.043641,0.3900638,-0.3956368,13.21201,-19.93078,22.41238,1007.667
27.723724365,154.9011,-27.20682,-41.85996,-1.005005,0.08811559,-0.2994824,15.40084,-19.90035,25.02024,1007.667
27.756503582,226.5264,-51.96666,-45.89183,-0.8807845,0.3343119,-0.2741546,18.67954,-16.61058,26.26969,1007.665
27.791804314,117.1938,-61.65785,-57.07113,-0.6732578,0.2460573,-0.3279449,18.67954,-16.61058,26.26969,1007.663
27.824584484,98.86816,-62.60333,-50.16807,-0.6836725,-0.02461299,-0.08731276,21.86856,-11.80898,26.99808,1007.663
27.857363224,162.4798,-84.40853,-40.94363,-0.6970469,-0.1101619,-0.04671771,24.7729,-8.182774,26.12888,1007.663
27.890142918,244.7278,-88.48592,-36.0565,-0.7448026,-0.06675018,-0.1901157,24.7729,-8.182774,26.12888,1007.66
27.922922134,264.6685,-95.63614,-27.50404,-0.9521805,-0.03627763,-0.1112078,28.34952,-4.868659,24.76632,1007.658
27.958223343,251.8716,-103.4364,-25.12157,-0.7819136,0.02061339,-0.1891966,30.78439,0.9813008,22.05973,1007.656
27.991002560,208.4492,-83.58123,-16.87455,-0.7506985,0.198312,-0.02683819,30.78439,0.9813008,22.05973,1007.656
28.023782253,107.4408,-70.46265,-9.910406,-0.8235793,0.2510449,0.149915,32.57778,5.296541,18.07253,1007.654
28.056560993,31.0944,-54.8622,-3.557148,-0.8065856,0.04761559,0.1516253,34.31082,9.684555,14.95469,1007.65
28.091862202,-40.6551,-38.84808,3.34591,-0.8762328,-0.04616037,0.2674587,34.31082,9.684555,14.95469,1007.652
28.124641895,-66.12462,-30.27964,3.590266,-0.8613762,-0.1728432,0.2421022,34.64349,11.10577,12.32063,1007.65
28.157421112,-43.88538,-18.69747,4.01789,-0.8633147,-0.1702736,0.2637642,36.10583,10.7319,11.88937,1007.65
28.190200806,-21.27342,-9.36083,2.185219,-0.8650671,-0.2486442,0.2720696,36.10583,10.7319,11.88937,1007.65
28.222980022,24.13687,-5.519806,0.2303707,-0.8714434,-0.2168626,0.297549,36.83326,10.72421,11.45332,1007.649
28.258281231,47.68065,-6.110733,2.063041,-0.8731424,-0.1115565,0.3147234,36.85282,9.62495,11.03539,1007.65
28.291059971,38.05193,-6.05164,5.606205,-0.8756428,-0.078869,0.3257514,36.85282,9.62495,11.03539,1007.652
28.323839664,21.96264,-3.097006,7.866498,-0.9018061,-0.09940562,0.3455802,37.21087,9.994461,11.46431,1007.652
28.356618881,18.17328,1.748594,8.416299,-0.9206507,-0.1324638,0.3769633,36.48198,9.990261,11.03013,1007.65
28.391920090,20.09902,10.96705,6.400362,-0.9779195,-0.1420983,0.3910731,37.20338,10.35295,11.02346,1007.649
28.424699783,28.60957,20.95372,3.773534,-1.023563,-0.1414682,0.3964753,37.20338,10.35295,11.02346,1007.647
28.457479000,42.21402,35.84507,4.750958,-1.127552,-0.1051571,0.420254,37.21014,9.988516,11.02919,1007.647
28.523037910,6.618813,49.96822,3.223732,-1.263461,-0.1176319,0.4706568,36.84752,10.00128,11.89989,1007.647
28.558338642,18.04904,35.01777,6.950162,-1.170727,-0.1220531,0.4237514,36.85718,9.660614,13.64606,1007.647
28.591117859,9.476368,10.43522,15.13609,-1.055321,-0.05994121,0.3920955,36.48997,10.05564,15.81636,1007.647
28.623897552,-20.15524,-9.656294,21.24499,-0.9025292,0.008004022,0.383929,36.48997,10.05564,15.81636,1007.647
28.656676769,-62.89433,-22.77487,25.03251,-0.8079678,0.06291758,0.3927678,36.86612,9.314009,14.95713,1007.647
28.689456463,-98.80014,-23.72035,25.0936,-0.8255045,0.07805526,0.349464,37.61496,8.152269,14.53922,1007.647
28.724757671,-143.3407,-16.09739,19.04579,-0.8848264,0.1141549,0.3591775,37.61496,8.152269,14.53922,1007.647
28.757536888,-172.3512,-10.30631,7.683231,-0.9287359,-0.002099248,0.3633078,38.74776,5.963029,14.57219,1007.647
28.790316582,-149.6771,-9.538109,-5.93962,-0.9392715,-0.06959892,0.3345528,39.58996,3.0397,14.1819,1007.647
28.823095322,-107.1243,-13.79278,-17.11891,-0.9800705,-0.06658027,0.3274246,39.58996,3.0397,14.1819,1007.649
28.858396530,-61.96252,-23.72035,-27.87058,-1.015088,-0.04200013,0.3322842,39.63696,0.4160128,13.35275,1007.649
28.891175747,-25.68399,-35.59798,-35.68997,-0.9952605,-0.008746358,0.3278548,40.01987,-0.6900582,12.49924,1007.644
28.923955441,3.450653,-46.05739,-37.767,-0.9895312,0.03018738,0.3167112,40.01987,-0.6900582,12.49924,1007.649
28.956734657,24.88232,-51.90756,-34.52928,-0.9784249,0.05810803,0.3262701,41.10243,-0.3520145,10.75166,1007.644
28.989514351,30.03835,-54.38945,-28.11493,-0.9799946,0.1048203,0.3218711,41.07063,1.136753,8.552222,1007.646
29.024815559,24.88232,-53.91671,-20.90643,-0.9548085,0.1308099,0.3169586,41.07063,1.136753,8.552222,1007.646
29.057594299,16.55814,-50.19387,-12.65941,-1.001932,0.1386428,0.3093568,41.77486,2.198599,6.358534,1007.646
29.090373993,13.32786,-45.46646,-4.168038,-1.081523,0.1163985,0.2879178,41.75095,3.262191,4.165786,1007.646
29.123153210,19.29145,-36.66165,6.400362,-1.068386,0.103795,0.2806852,41.75095,3.262191,4.165786,1007.646
29.158454418,13.14149,-21.17937,19.16797,-1.028964,0.0742389,0.3254029,42.83445,3.607876,2.977629,1007.642
29.191233635,-7.047758,-0.7332986,27.72043,-1.098909,0.09045882,0.3606838,42.83154,3.5841,1.237182,1007.642
29.224013329,-30.77789,24.02654,35.90636,-0.9982318,0.02063172,0.3538111,42.83154,3.5841,1.237182,1007.642
29.256792069,-66.93218,32.83134,40.91566,-0.8727874,-0.04439124,0.3776797,42.84433,2.849284,0.8135302,1007.642
29.289572239,-95.01077,29.52216,42.80941,-0.7539876,-0.1813283,0.3636448,43.23764,1.408494,2.141315,1007.637
29.324872970,-84.20176,26.03569,42.74833,-0.863733,-0.1863979,0.3268479,43.25189,0.6855636,2.587887,1007.636
29.357652187,-73.70335,17.17179,35.23438,-1.00658,-0.1541516,0.30307,43.25189,0.6855636,2.587887,1007.636
29.390431881,-54.50803,5.944174,22.10024,-0.9788255,-0.1905916,0.2823606,42.92471,-1.180354,3.79898,1007.636
29.423211098,-10.83713,0.448555,12.50926,-0.861151,-0.2607472,0.2778549,43.32812,-3.378038,3.086984,1007.633
29.458512306,30.47319,3.166818,9.271544,-0.7417635,-0.2213206,0.3410521,43.32812,-3.378038,3.086984,1007.635
29.491291046,38.23829,10.49431,8.477387,-0.7078724,-0.1740883,0.3688195,42.24326,-3.734762,3.467076,1007.637
29.524071216,38.98374,21.42646,8.660655,-0.7580991,-0.08338135,0.3760223,42.62149,-4.459414,3.851019,1007.637
29.556849956,23.76415,32.3586,9.943524,-0.8051804,-0.08701611,0.4002076,42.62149,-4.459414,3.851019,1007.637
29.589629650,39.48071,31.82677,6.644718,-0.853271,-0.2806636,0.4160171,42.97422,-3.713581,5.144424,1007.636
29.624930859,44.76097,27.80847,4.262246,-0.7975587,-0.2129963,0.4846177,42.26104,-4.428823,6.027048,1007.636
29.657710075,18.98085,28.99032,3.162643,-0.8270625,-0.2568917,0.5112287,42.26104,-4.428823,6.027048,1007.638
29.690489769,-58.17316,29.87671,5.667293,-0.8999008,-0.044904,0.5467027,42.26322,-4.410991,7.332383,1007.638
29.723268986,-124.456,16.34449,9.332634,-0.8929369,-0.3503679,0.385409,41.90133,-4.392286,8.638187,1007.638
29.758569717,-99.42135,2.871355,8.355209,-0.8299289,-0.5218679,0.3007984,41.90133,-4.392286,8.638187,1007.637
29.791348934,-15.80679,-10.66087,5.667293,-0.8183371,-0.491421,0.3228677,41.92088,-5.491541,8.220265,1007.637
29.824128628,59.54572,-40.91632,12.02055,-0.974272,-0.4099197,0.60423,42.30379,-6.597612,7.366763,1007.637
29.856907845,-10.71288,-56.87135,9.088278,-0.9653013,0.1978598,1.076953,42.30379,-6.597612,7.366763,1007.639
29.889687538,-137.7499,-89.31322,14.15867,-0.3608643,-0.1743676,1.032276,41.93077,-6.250134,6.056168,1007.639
29.924987793,-152.2861,-129.9099,6.033827,-0.3468479,-0.7409652,1.131295,42.30349,-7.01979,3.145693,1007.636
29.957767963,-53.45198,-168.0838,-34.89581,-0.3557578,-0.930583,0.8389336,42.30349,-7.01979,3.145693,1007.64
29.990546703,-16.24163,-224.1627,-51.14549,-0.1595631,-0.417922,0.3649983,41.95211,-8.244294,-2.057032,1007.643
30.023326397,-70.28671,-238.9359,-51.87856,-0.1564382,0.2738348,0.1738104,42.29031,-7.617339,-9.46586,1007.643
30.056105614,-241.8643,-244.2542,-107.8361,-0.4071043,-0.1765399,-0.2754708,42.29031,-7.617339,-9.46586,1007.643
30.091406822,-99.04863,-217.2489,-174.7897,-0.4332193,-0.4594828,-0.4501981,40.80555,-6.937169,-17.74352,1007.644
30.124186039,-44.69295,-203.6576,-246.9358,-1.199705,0.5660799,1.151083,38.06768,-0.8475704,-26.04252,1007.651
30.156965733,-10.27804,-155.2016,-379.1324,-0.9648262,1.335103,-0.4646388,38.06768,-0.8475704,-26.04252,1007.655
30.189744949,-193.5965,-129.4372,-393.1218,-2.629373,2.525074,0.4347741,33.20625,5.318896,-33.53168,1007.656
30.225045681,-285.8458,-11.07452,-191.7113,-3.978391,-10.73516,-4.885156,26.76916,14.78676,-39.76511,1007.657
30.257824898,-1164.358,-240.0587,54.53851,-0.4127676,3.258403,8.325632,26.76916,14.78676,-39.76511,1007.657
30.290604591,1071.431,-85.53129,44.45882,2.490529,-1.069275,-1.306299,17.98682,33.1584,-43.89743,1007.67
30.323383808,-383.127,109.0018,58.38712,2.058235,1.115084,0.1913577,10.67059,32.12939,-40.45204,1007.682
30.356163502,54.57605,17.11269,101.4549,1.05925,-1.443533,2.486459,10.49499,20.93981,-50.22316,1007.685
30.424243450,110.609,42.10889,48.4907,0.08057206,-0.1410227,1.304592,13.44237,18.69866,-53.67344,1007.687
30.457022667,38.48677,85.95567,39.93823,-0.5483193,0.203485,0.824203,13.50892,14.97572,-54.92052,1007.688
30.489802360,52.0291,52.15465,31.08032,-0.2447664,-0.08176656,0.5514621,13.50892,14.97572,-54.92052,1007.692
30.525103569,17.24146,30.70401,6.217094,-0.0114166,-0.2179335,0.4404007,15.37882,12.43813,-53.57742,1007.697
30.557882786,79.30013,19.89005,-2.518635,-0.01895886,-0.118492,0.3916512,18.03006,10.25714,-52.67619,1007.697
30.590661526,6.805175,11.91253,-8.749715,0.1435305,0.4332089,0.7399029,18.03006,10.25714,-52.67619,1007.697
30.623441696,3.015808,-12.02,-2.640813,-0.05578046,-0.8367488,1.085019,18.42722,8.428139,-53.08312,1007.702
30.656220436,-48.66868,-45.58464,-8.688626,0.1307535,-0.2748764,0.9759049,18.80482,7.698393,-53.07213,1007.706
30.691521645,-65.31705,-12.90639,-6.855955,0.1272756,-0.2478523,0.9441025,18.80482,7.698393,-53.07213,1007.706
30.724301338,-48.91716,-2.683357,-12.35397,0.09162649,-0.5483015,1.06498,17.68409,9.146872,-53.96386,1007.709
30.757080555,-63.88827,20.65825,-19.44029,0.1949745,-0.5208764,1.032443,16.55129,11.33611,-53.99683,1007.709
30.789859772,-35.12635,5.707804,-15.16406,0.276691,-0.5720364,1.071316,16.55129,11.33611,-53.99683,1007.712
30.825160503,-30.52941,7.126028,-18.21851,0.1620274,-0.5700438,0.9353599,17.59692,13.8905,-53.60324,1007.711
30.857940197,-30.09457,12.08981,-8.138824,0.1049242,-0.4775965,0.7808388,16.81573,16.88631,-52.34376,1007.712
30.890719414,-24.44158,4.703228,-14.12555,0.1933047,-0.484829,0.7551279,16.81573,16.88631,-52.34376,1007.714
30.923498631,-29.03851,-1.619689,-14.73644,0.1614521,-0.5648884,0.7668769,17.88986,17.99483,-51.05703,1007.714
30.956278324,-29.5976,-4.456138,-10.39912,0.1889898,-0.509764,0.7465113,18.23583,19.1051,-49.76935,1007.714
30.991579533,-28.23094,3.107726,-9.238427,0.3339819,-0.6145962,0.8353772,18.23583,19.1051,-49.76935,1007.715
31.024358749,-31.77183,4.407764,-2.029923,0.2504422,-0.6201851,0.7624169,17.11655,20.56547,-49.79086,1007.716
31.057137489,-15.74467,-6.05164,-4.840017,0.265793,-0.5487338,0.7232825,17.08493,22.40549,-48.51417,1007.716
31.089917183,-9.159864,-7.883513,-5.634175,0.2428392,-0.4934065,0.7227722,17.08493,22.40549,-48.51417,1007.716
31.125218391,-10.89925,-3.62884,-0.0750744,0.2143887,-0.5799564,0.7075665,17.07028,23.1951,-48.52659,1007.723
31.157997608,-9.843193,-3.392469,-0.3194304,0.1533362,-0.6370423,0.6962447,17.05217,24.30624,-47.23845,1007.722
31.190777302,8.606677,-9.006274,-2.701902,0.2305371,-0.6167646,0.7879711,17.05217,24.30624,-47.23845,1007.721
31.223556519,18.79449,-4.219767,1.757596,0.1766782,-0.637313,0.7693567,17.4148,24.29348,-48.10914,1007.725
31.256335259,20.90659,-3.451562,-2.82408,0.2184097,-0.6171856,0.8120685,16.31581,24.66054,-48.11346,1007.722
31.291636467,21.71416,-5.460713,-7.527934,0.1648417,-0.5473253,0.8371212,16.69195,23.9189,-48.97269,1007.722
31.324416160,12.33392,-7.647142,-18.03524,0.1437237,-0.6406242,0.8931499,16.69195,23.9189,-48.97269,1007.724
31.357195377,25.62777,1.984965,-14.24773,0.2887857,-0.8130646,0.7847592,15.98448,22.76065,-49.38872,1007.722
31.389974594,136.6376,21.54464,-3.007347,0.2132113,-0.4659967,0.8479552,15.18703,23.18178,-49.82949,1007.725
31.425275326,26.37322,-13.20185,-10.5213,0.1661621,-0.2766913,0.8824395,15.18703,23.18178,-49.82949,1007.727
31.458055496,3.20217,-14.79736,-13.63684,0.2355915,-0.4691608,0.9263688,16.04773,19.08062,-51.94209,1007.727
31.490834236,18.04904,-19.05203,-10.39912,0.2921776,-0.4110959,0.7336023,15.29198,17.25438,-52.34753,1007.729
31.523613453,-26.92641,-19.93842,-6.855955,0.3016357,-0.2806087,0.8566119,15.29198,17.25438,-52.34753,1007.726
31.556393146,-24.75218,-17.51562,-9.238427,0.2533596,-0.5948386,0.9019667,14.5631,17.25018,-52.7817,1007.728
31.591694355,-11.20985,-17.45653,-5.93962,0.2753442,-0.4481075,0.8944729,13.82963,17.62825,-51.91627,1007.73
31.624473572,-38.66723,-18.93384,-1.785567,0.3371637,-0.3088399,0.8864146,13.82963,17.62825,-51.91627,1007.73
31.657252312,-40.28237,-11.84272,-2.152101,0.2200642,-0.7019728,0.8040093,13.43924,19.09282,-51.50361,1007.73
31.690032482,-4.376565,-9.597201,-2.946258,0.3617727,-0.4747069,0.7474927,11.96941,19.82518,-51.51319,1007.73
31.722811222,-50.03534,-3.865211,6.278183,0.3012134,-0.5190406,0.8184633,11.96941,19.82518,-51.51319,1007.732
31.758112431,-10.71288,2.98954,0.7190828,0.3057703,-0.6171092,0.7179957,11.96192,20.18367,-51.95403,1007.733
31.790892124,-30.46729,3.87593,6.52254,0.2900946,-0.5340207,0.848838,11.22169,20.92618,-51.09433,1007.733
31.823671341,-2.823545,4.230486,3.956801,0.3141586,-0.4866656,0.6258391,11.22169,20.92618,-51.09433,1007.733
31.856450558,-15.62043,12.56255,6.400362,0.2365477,-0.6774854,0.8737307,11.56694,22.03051,-50.24176,1007.729
31.891751289,6.121847,0.09399892,2.796109,0.2720068,-0.5214329,0.6495782,11.55945,22.389,-50.68261,1007.733
31.924530506,8.233953,5.885082,1.391062,0.2487504,-0.7269071,0.7558427,11.55945,22.389,-50.68261,1007.733
31.957310200,38.11405,5.530526,2.063041,0.2579966,-0.5360925,0.7295396,12.28157,22.75764,-50.25417,1007.734
31.990089417,36.80951,1.039482,4.445513,0.2207412,-0.5949346,0.7172012,13.37911,22.37869,-51.12007,1007.734
32.022869110,39.85343,8.662437,3.773534,0.2439179,-0.6886929,1.004179,13.37911,22.37869,-51.12007,1007.734
32.058169365,52.0291,-17.04288,-6.611599,0.2080403,-0.5285396,0.8952351,13.40543,20.915,-51.53226,1007.734
32.090949059,0.7794597,10.19885,4.567691,0.5314466,0.07954135,0.8930702,13.05946,19.80473,-52.81993,1007.734
32.123728275,8.730919,-10.4245,-1.663389,0.2059007,-0.7841668,1.258091,13.05946,19.80473,-52.81993,1007.736
32.156507969,34.01408,-15.97921,-0.5637865,0.5751263,0.1947118,0.383031,12.74874,16.88416,-53.20874,1007.736
32.191808701,-53.32774,2.280428,11.95946,0.04026443,-0.9799012,1.18513,12.74053,17.23672,-54.08469,1007.736
32.224588394,41.84129,-22.42031,2.857198,0.2346607,-0.523097,0.7353517,13.4769,16.88242,-53.20968,1007.736
32.257367611,-11.14773,-6.406196,9.638079,0.5859461,-0.02629771,0.595619,13.4769,16.88242,-53.20968,1007.734
32.290147304,-48.29595,-14.50189,15.80807,0.1309483,-0.7405553,1.106093,12.74125,17.24266,-53.64957,1007.734
32.322926044,11.71272,-10.89724,6.094916,0.4013569,-0.4057812,0.5961473,12.3779,17.24947,-53.214,1007.734
32.358227253,-23.75825,3.63956,16.11352,0.2559963,-0.4753857,0.9171839,12.3779,17.24947,-53.214,1007.736
32.391006470,2.643083,4.52595,9.393723,0.2448331,-0.5294589,0.6486921,11.99354,18.34366,-53.23072,1007.736
32.423786163,8.544557,27.45391,5.545115,0.4089066,-0.310142,0.6128329,11.61667,19.07935,-52.80659,1007.736
32.456565380,1.090063,44.41351,9.882435,0.3267109,-0.4038356,0.8957284,11.61667,19.07935,-52.80659,1007.736
32.491866112,-42.89145,51.741,19.10688,0.3070891,-0.7359219,0.8601733,13.07298,19.07586,-52.80848,1007.736
32.524645328,-3.631115,65.68688,18.00727,0.3198181,-0.7639853,0.9415357,14.53678,18.71387,-52.36951,1007.736
32.557425022,13.63846,82.94195,22.03915,0.1679385,-0.3610782,1.142016,14.53678,18.71387,-52.36951,1007.74
32.590204239,-43.88538,93.40135,34.80676,0.1365341,-0.6765944,0.9119942,17.86281,19.45258,-51.07994,1007.74
32.622983932,-8.228053,106.2836,36.33398,0.06902493,-0.6839643,0.843812,21.14387,19.48039,-48.4735,1007.74
32.658284187,-1.58113,122.8295,31.44686,-0.1120496,-0.2393137,1.129019,21.14387,19.48039,-48.4735,1007.74
32.691064358,-132.656,124.1295,34.50131,-0.2619194,-0.5460125,0.978689,25.20773,19.87669,-45.4387,1007.74
32.723843098,-108.8637,125.4887,22.28351,-0.1501302,-0.8509982,0.6900665,29.94727,19.91884,-41.5288,1007.738
32.756622791,-114.2682,109.9473,8.599566,-0.4661661,-0.8318427,0.9531293,29.94727,19.91884,-41.5288,1007.738
32.789402008,-70.97003,100.0197,26.49865,-0.490269,-1.292974,1.066039,33.59794,23.27227,-35.55574,1007.738
32.824703217,180.3706,82.05556,67.3672,-0.9212787,-0.7377378,1.165385,36.10893,25.96712,-29.07343,1007.738
32.857482433,25.1308,6.830564,90.21449,-2.078245,-0.06028418,0.8022357,36.10893,25.96712,-29.07343,1007.738
32.890261173,-45.25203,-91.67693,109.8241,-1.444975,0.03274047,0.3909546,38.30982,25.25678,-27.32434,1007.738
32.923041344,4.506707,-99.1226,147.2105,-1.330236,0.3647704,0.3040183,39.55924,20.09711,-26.80954,1007.737
32.958342075,20.65811,-75.84009,169.6913,-1.30714,0.2399506,0.2564968,39.55924,20.09711,-26.80954,1007.735
32.991121292,57.24725,-36.18891,186.8573,-0.9406986,0.1025776,0.232248,37.74361,16.43941,-28.05515,1007.735
33.023900509,22.27325,4.171394,200.9078,-0.5922238,0.2186193,0.4618189,36.39661,10.55117,-27.96063,1007.735
33.056680202,-0.1523519,52.92286,191.2557,-0.3479785,0.02728184,0.5284372,36.39661,10.55117,-27.96063,1007.736
33.089459419,-5.805342,98.54241,167.0645,-0.5167125,0.1539341,0.6643905,35.78067,4.68496,-26.12661,1007.732
33.124760151,-73.08215,103.4471,147.8825,-0.6890283,-0.692585,0.6554852,36.27193,-1.900856,-23.41231,1007.729
33.157539368,108.9317,97.24237,137.1919,-0.447808,-1.291285,0.4873388,36.3386,-5.133237,-19.87985,1007.725
33.190319061,179.6252,165.7308,92.4137,-0.3142754,-0.6613053,0.5707922,36.3386,-5.133237,-19.87985,1007.725
33.223098278,192.4221,178.2584,83.12817,-0.4586342,-1.227954,0.5026726,36.7793,-8.774686,-15.098,1007.722
33.258399487,205.778,165.258,59.73107,-0.7069992,-0.9226324,0.5133914,37.97252,-13.40799,-7.192905,1007.722
33.291178226,144.2785,155.3305,38.77754,-0.8534569,-0.776527,0.6184554,37.97252,-13.40799,-7.192905,1007.719
33.323957920,-99.23499,113.9656,24.97142,-1.159883,-0.03911289,1.201963,38.41238,-16.63661,1.126272,1007.715
33.356737137,-162.1012,4.407764,12.50926,-0.8307503,-1.894372,0.9291206,37.34073,-17.30512,5.365941,1007.715
33.389516830,135.5815,39.15426,-48.39648,-1.109233,-0.6545837,0.4619544,37.34073,-17.30512,5.365941,1007.714
33.424817562,74.51682,33.24499,-52.7949,-1.322643,0.4333152,0.2764594,36.64565,-19.13151,4.960419,1007.712
33.457597256,1.897634,8.72153,-43.3261,-1.287359,0.2537681,0.04848081,37.70168,-16.91184,7.535299,1007.71
33.490376472,10.03546,10.67159,-49.25173,-1.084742,0.1590711,-0.1554731,37.70168,-16.91184,7.535299,1007.714
33.523155212,-25.99459,26.98117,-59.02597,-1.037846,0.07446501,0.01831482,38.03944,-15.44902,7.947021,1007.714
33.558456421,-39.41268,24.14472,-59.33142,-1.083972,-0.07689495,0.2997676,38.36473,-13.17875,9.651663,1007.714
33.591236114,10.34606,18.35364,-67.94497,-1.26406,-0.3209564,0.2283583,38.36473,-13.17875,9.651663,1007.716
33.624015331,55.69423,8.48516,-81.68999,-1.533307,-0.2739481,-0.04208057,39.43064,-11.71768,10.06245,1007.714
33.656794548,59.73208,-11.07452,-105.1482,-1.846865,-0.3701935,-0.2683945,39.80734,-9.173583,9.586675,1007.713
33.689574242,116.4483,-22.12485,-104.5984,-1.649093,-0.03542225,-0.3410911,39.80734,-9.173583,9.586675,1007.713
33.724874973,65.44719,-18.40201,-99.77235,-1.246203,-0.2528296,-0.7123675,40.8533,-6.546571,10.84954,1007.713
33.757654190,235.3475,18.47182,-71.73248,-1.005443,0.4661542,-0.3554077,40.76322,-1.826722,9.46971,1007.711
33.790433407,108.8696,38.8588,-74.60367,-0.7253155,-0.1863189,-0.6689366,40.76322,-1.826722,9.46971,1007.711
33.823213100,253.0519,91.09673,-86.33276,-0.4541654,-0.4399902,-0.4935004,41.39632,3.340334,9.822708,1007.711
33.858513355,236.5278,134.7071,-69.47219,-0.2485795,-0.03727251,-0.1196142,40.96004,7.367845,11.06548,1007.709
33.891293049,222.1779,153.4395,-54.07776,-0.4405701,0.3248538,0.2880088,40.96004,7.367845,11.06548,1007.709
33.924072266,81.84708,105.2199,-33.06314,-0.6865034,0.09437097,0.7077242,38.62951,12.20137,13.16849,1007.707
33.956851959,68.42899,50.02731,-34.4071,-0.9375417,0.09126891,0.7035107,36.73653,16.29905,14.8473,1007.706
33.989631176,134.3391,4.407764,6.461451,-0.8328019,0.2404519,1.159368,36.73653,16.29905,14.8473,1007.701
34.024932384,50.35184,-88.07227,84.59431,-1.038149,0.4117253,1.102315,35.22831,19.23587,16.10868,1007.703
34.057711124,-235.9007,-113.3048,44.09229,-1.308583,-1.50396,-0.2756643,34.82534,21.01732,13.03472,1007.703
34.090491295,143.2224,-42.98457,11.1653,-1.217266,-0.5097089,-0.356804,34.82534,21.01732,13.03472,1007.703
34.123270035,74.39258,-31.10694,46.84129,-1.389035,1.006051,0.3527715,37.04819,18.80763,11.76094,1007.703
34.156049252,-301.6245,-102.7864,27.04845,-1.234692,-0.7882951,0.4350159,38.51897,17.66328,8.29536,1007.705
34.191350460,193.9129,1.334945,-16.69129,-0.5043989,-0.6049337,0.2910057,39.69072,16.55532,7.440839,1007.705
34.224129677,-103.3971,-31.93423,-1.846656,-1.298141,0.3456199,1.36393,39.69072,16.55532,7.440839,1007.705
34.256909370,-45.749,-48.48019,-12.7205,-0.9182519,-1.21128,0.02093173,40.06654,15.74105,5.712337,1007.707
34.289688110,15.68845,12.26709,5.117492,-1.076098,-0.2908544,0.479138,40.06726,15.747,6.147449,1007.71
34.324989319,-23.94461,-16.15649,6.033827,-0.9972782,-0.3508688,0.5088859,40.06726,15.747,6.147449,1007.71
34.357768535,9.60061,-5.16525,-3.557148,-0.8215247,-0.2285445,0.02836702,39.70246,15.74193,5.712807,1007.706
34.390548229,3.574895,-1.442411,-5.695264,-0.8487116,-0.3236274,0.6057276,39.70849,15.37155,5.283425,1007.708
34.423327446,-32.64152,-6.406196,-4.901106,-0.7645525,-0.4533448,0.2706957,39.70849,15.37155,5.283425,1007.708
34.456106186,-7.793207,24.20381,-6.672688,-0.8955615,-0.33226,0.05084158,40.05978,16.10549,5.706607,1007.708
34.491407394,14.69451,21.54464,-14.73644,-1.00243,-0.2196648,0.5423958,40.07402,15.38256,6.153179,1007.71
34.524187088,-31.21274,-1.501503,-9.727139,-0.8672086,-0.3659206,0.2890991,40.07402,15.38256,6.153179,1007.71
34.556966305,-8.352295,27.74937,-8.077736,-0.9471019,-0.3186344,-0.02896275,39.32591,16.55025,7.006197,1007.71
34.589745521,18.48388,16.28539,-8.016646,-0.9454159,-0.098841,0.5492988,39.69144,16.56126,7.87595,1007.71
34.625046253,-25.49763,0.271277,-5.450908,-0.8316391,-0.4445234,0.149057,39.69144,16.56126,7.87595,1007.711
34.657825470,-14.99922,22.84468,-3.129525,-0.8745071,-0.3813723,0.1769824,39.32061,16.92657,7.87069,1007.711
34.690605164,-18.85071,19.24003,-2.274279,-0.9316379,-0.3878296,0.5078232,38.16842,16.93528,8.30729,1007.711
34.723384380,-34.44302,11.55798,-4.04586,-0.8743333,-0.429668,0.3055784,38.16842,16.93528,8.30729,1007.711
34.756164074,-32.95212,25.74022,-1.357944,-0.9001013,-0.403625,0.3696214,38.53395,16.94629,9.177043,1007.711
34.791464806,-86.62447,15.28082,-16.93564,-1.300615,-0.8335319,0.4525694,38.54362,16.60563,10.92322,1007.711
34.824244499,15.12936,10.43522,-26.77097,-1.609099,-0.8015526,0.3093258,38.54362,16.60563,10.92322,1007.711
34.857023239,90.17126,-12.78821,-23.2889,-1.481209,-0.704663,0.1509897,38.54507,16.61752,11.79344,1007.71
34.889802456,215.4067,-33.23428,-2.029923,-1.516326,-0.03562257,0.1009657,38.16747,17.34727,11.78245,1007.71
34.925103664,128.9346,-54.56673,33.03517,-1.401782,0.6019898,0.1141739,38.16747,17.34727,11.78245,1007.71
34.957882881,16.24753,-62.72152,40.06041,-1.436756,0.212571,0.1870481,37.76305,19.11683,7.838268,1007.704
34.990662575,0.9037012,-74.48096,51.42297,-1.354614,-0.220375,0.2332351,38.10176,20.16766,4.774826,1007.705
35.023441315,-31.64758,-67.15347,73.23175,-1.10207,-0.00787189,0.3719108,38.10176,20.16766,4.774826,1007.705
35.056221485,-118.8652,-61.95332,91.92499,-1.042021,-0.1356674,0.4123953,39.64912,18.31382,2.750278,1007.707
35.091521740,-103.2107,-73.59457,107.5638,-1.114594,-0.2397639,0.4483451,40.03661,16.82548,0.5971694,1007.705
35.124301434,-61.65192,-75.781,113.7949,-1.036049,-0.1959732,0.417767,41.56021,13.10499,-0.2166784,1007.705
35.157080650,-67.18067,-69.93082,119.2929,-0.9310063,-0.04814751,0.467838,41.56021,13.10499,-0.2166784,1007.704
35.189859867,-102.9001,-69.87173,118.682,-0.8864527,-0.2163086,0.3953002,41.98753,9.424084,-2.770519,1007.702
35.225160599,-83.39419,-65.55797,106.7085,-0.7597024,-0.2458002,0.2742223,43.16516,4.593325,-4.872042,1007.7
35.257939816,-51.09139,-55.80768,105.3035,-0.6204189,-0.2276201,0.1997348,43.16516,4.593325,-4.872042,1007.697
35.290719509,-28.66579,-48.24382,109.7019,-0.644646,-0.2482343,0.206081,42.49495,1.291361,-6.559978,1007.697
35.323498726,-22.76431,-47.77108,111.3513,-0.5689589,-0.222297,0.2029742,41.81765,-1.718791,-9.122914,1007.697
35.356278419,-42.20811,-40.85723,110.8626,-0.4764536,-0.1206886,0.2054898,41.81765,-1.718791,-9.122914,1007.695
35.391578674,-79.72906,-26.26134,107.747,-0.4410962,-0.08188089,0.2106425,41.16023,-5.755572,-11.2345,1007.691
35.424358368,-109.2364,-14.38371,104.3871,-0.5322663,-0.1192046,0.2758988,40.49791,-9.482712,-12.91576,1007.688
35.457137585,-117.9333,0.3303697,99.56112,-0.5763931,-0.1302526,0.3511125,40.49791,-9.482712,-12.91576,1007.688
35.489916801,-126.9409,17.0536,95.04053,-0.6527113,-0.07764689,0.4436357,38.662,-12.04709,-14.17855,1007.686
35.525218010,-152.224,30.88129,92.71915,-0.7458104,-0.1203374,0.5098674,37.97015,-14.26678,-16.69174,1007.684
35.557997703,-169.183,44.35442,89.48143,-0.8433635,-0.1310377,0.5592139,37.97015,-14.26678,-16.69174,1007.683
35.590776443,-175.0223,56.23204,78.91302,-0.951054,-0.1550347,0.6697373,36.89072,-14.99899,-17.11399,1007.681
35.623555660,-172.4754,57.59118,61.19721,-1.114181,-0.1676444,0.6634041,36.54056,-15.79367,-17.53621,1007.681
35.656335354,-153.5907,52.80467,39.63279,-1.104326,-0.2431079,0.5855139,36.54056,-15.79367,-17.53621,1007.681
35.691636085,-72.08821,50.73643,21.30608,-0.8856354,-0.3242601,0.559124,35.46113,-16.52587,-17.95845,1007.679
35.724415779,21.96264,48.60909,9.149366,-0.754536,-0.3227227,0.552553,35.06888,-15.00651,-17.98186,1007.677
35.757194519,66.68961,43.7044,5.545115,-0.707298,-0.1696587,0.5849428,35.06888,-15.00651,-17.98186,1007.679
35.789974689,58.24118,39.74519,6.644718,-0.7149105,-0.0248416,0.6179566,36.52809,-14.98622,-16.24329,1007.679
35.822753429,24.26111,35.19505,9.454812,-0.7870349,0.09222349,0.6598297,36.91638,-16.11822,-14.54733,1007.679
35.858054638,-27.98246,23.61289,10.85986,-1.073552,0.1156039,0.7244952,36.91638,-16.11822,-14.54733,1007.679
35.890833855,-16.36588,-6.347104,10.6155,-0.9741502,-0.05142329,0.6089843,36.92605,-16.45888,-12.80115,1007.679
35.923613071,23.88839,-16.62923,17.15203,-0.9878449,-0.01065329,0.6051044,37.29158,-16.44787,-11.9314,1007.677
35.956392765,30.53531,-35.30252,19.29014,-0.9622991,0.07904218,0.655933,37.29158,-16.44787,-11.9314,1007.677
35.991693020,20.53387,-44.75735,13.4256,-0.7852318,0.1284502,0.5442441,37.31114,-17.54712,-12.34932,1007.676
36.024472713,32.52318,-37.19349,18.19054,-0.8256246,0.1817556,0.6241655,35.8669,-18.28439,-13.2062,1007.672
36.057251930,25.81413,-45.99829,25.21578,-0.8286695,0.2584775,0.7347704,35.87824,-19.0311,-14.50008,1007.672
36.090031624,10.4703,-47.88926,18.06836,-0.6335309,0.2566431,0.5865322,35.87824,-19.0311,-14.50008,1007.672
36.122810841,10.34606,-35.95254,9.027188,-0.4979778,0.2034539,0.4789472,34.81233,-20.49217,-14.91086,1007.67
36.158111572,2.332479,-14.73826,-1.480122,-0.5579163,0.3132698,0.5843421,33.72478,-20.87098,-16.1469,1007.67
36.190890789,-53.45198,-11.66545,-1.235766,-1.172839,0.01267859,0.7508793,33.72478,-20.87098,-16.1469,1007.67
36.223670006,37.74133,-19.76114,8.110853,-1.1783,0.05924795,0.7306049,33.00256,-21.24046,-16.6375,1007.67
36.256449699,84.51826,-19.82023,19.04579,-1.053838,0.1576824,0.5183622,32.9831,-20.14036,-16.15742,1007.666
36.291749954,66.13052,-3.865211,34.99002,-1.229692,0.226209,0.7088139,32.9831,-20.14036,-16.15742,1007.664
36.324529648,0.2203727,-17.22016,35.29547,-0.965841,0.1222369,0.5682685,32.64815,-21.58025,-14.89085,1007.664
36.357308864,9.352127,-7.58805,24.23836,-0.9019245,0.1411878,0.274939,32.31112,-23.03712,-14.86746,1007.663
36.390088081,-135.6999,-4.810694,-7.1614,-0.9237593,-0.02491525,0.5082203,32.31112,-23.03712,-14.86746,1007.663
36.422867775,-65.56553,-10.30631,-33.73512,-0.6063643,-0.3774184,0.423279,30.82157,-24.55792,-15.27674,1007.661
36.458168030,68.55323,1.512223,-45.34203,-0.4863593,-0.2096615,0.3799004,30.78914,-23.07425,-17.84913,1007.657
36.490948200,-11.08561,3.63956,-43.50937,-0.3747612,0.06677937,0.5674315,30.78914,-23.07425,-17.84913,1007.657
36.523726940,25.19292,7.953325,-37.09502,-0.2802102,0.1265833,0.5791512,31.49171,-21.60636,-17.00276,1007.653
36.556506634,-72.21245,13.68532,-4.656751,-0.3854616,0.07196718,0.5558963,32.62434,-20.51581,-17.02144,1007.651
36.591807365,-32.51727,1.512223,26.62083,-0.6183638,-0.4293838,0.4590066,32.62434,-20.51581,-17.02144,1007.65
36.624587059,92.34549,11.79435,33.64606,-0.7875529,-0.1411427,0.439719,32.9674,-19.42931,-17.47421,1007.65
36.657366276,38.54889,18.41273,25.39905,-0.9650308,0.1752889,0.4921315,32.96282,-19.04704,-16.17461,1007.65
36.690145016,16.30965,6.239638,10.55441,-0.7374094,0.2113326,0.4289602,32.96282,-19.04704,-16.17461,1007.65
36.722924709,16.12329,6.476008,-6.855955,-0.6321629,-0.1760907,0.2699638,32.64211,-21.20987,-14.46147,1007.648
36.758225441,138.7497,18.82638,-28.05384,-0.5056245,0.101744,0.2196646,31.86077,-21.56647,-14.01961,1007.648
36.791005135,204.722,55.22747,-28.11493,-0.4072238,0.5656111,0.1306429,31.86077,-21.56647,-14.01961,1007.646
