Time (s),Gyroscope X (deg/s),Gyroscope Y (deg/s),Gyroscope Z (deg/s),Accelerometer X (g),Accelerometer Y (g),Accelerometer Z (g),Magnetometer X (uT),Magnetometer Y (uT),Magnetometer Z (uT),Barometer (hPa)
0.022593498,1.855103,-0.0234961,-0.08490203,0.02841078,-0.7325568,-0.6865855,-0.935338,32.83688,18.44458,1007.518
0.055154324,2.16274,-0.2019389,0.4046931,0.02562232,-0.7423503,-0.6785148,-0.935338,32.83688,18.44458,1007.52
0.087715626,1.732048,-0.3209008,0.09869616,0.02793346,-0.7325807,-0.6827183,-0.933707,32.83946,18.89065,1007.518
0.120277405,0.6245534,-0.4398627,0.2822943,0.02114443,-0.7350991,-0.6827502,-0.933707,32.83946,18.89065,1007.518
0.155343056,-1.282798,-0.9751912,0.7106901,0.01969095,-0.7379851,-0.6934271,-0.933707,32.83946,18.89065,1007.516
0.187904358,-1.098215,-0.3209008,-0.02370263,0.01871383,-0.7375163,-0.6924523,-1.298547,32.83939,19.33791,1007.516
0.220465660,1.055246,1.166123,-0.8192948,0.007451139,-0.7289863,-0.6768432,-1.296127,32.47042,18.44838,1007.516
0.255531311,-0.4214134,1.225604,-0.8804942,0.02306484,-0.7331212,-0.6846554,-1.296127,32.47042,18.44838,1007.516
0.288092613,1.301355,0.6307942,-0.696896,0.02020697,-0.7423125,-0.7021945,-1.286951,32.11214,19.40686,1007.516
0.320653438,-3.805423,0.3333895,-0.5132978,0.03082484,-0.7282067,-0.674437,-1.294496,32.473,18.89445,1007.518
0.355719566,-6.081939,-0.7967483,0.5270919,0.02733661,-0.7238252,-0.6859678,-1.294496,32.473,18.89445,1007.518
0.388280392,-8.666093,-1.034672,0.03749677,0.0299416,-0.736946,-0.6789199,-0.9207134,32.11442,19.34195,1007.516
0.420841694,-11.43483,-1.213115,0.4046931,0.02293043,-0.7233635,-0.6932072,-1.287184,32.11177,19.34313,1007.516
0.455907345,-11.92705,-0.9751912,-0.08490203,0.01749563,-0.7190096,-0.7042531,-1.287184,32.11177,19.34313,1007.514
0.488468647,-14.26509,-0.08297704,-1.30889,0.0190172,-0.7229064,-0.6980302,-0.9134014,31.75319,19.79063,1007.514
0.521030426,-11.06566,1.047161,-2.28808,0.01925426,-0.7053216,-0.7166138,-0.9134014,31.75319,19.79063,1007.514
0.553591728,-12.60385,-3.354429,-1.125292,0.03566696,-0.6748802,-0.6310909,-0.9134014,31.75319,19.79063,1007.512
0.588657379,-27.30891,-5.138857,2.485473,-0.04797504,-0.6952022,-0.6767577,-1.278241,31.75312,20.23789,1007.512
0.621218681,-30.26223,-5.079376,3.648261,-0.1955221,-0.753663,-0.7480801,-0.5436685,31.761,20.68158,1007.512
0.653779507,-2.144182,-19.23584,5.851439,-0.1451862,-0.7562482,-0.8893142,-0.5436685,31.761,20.68158,1007.511
0.688845634,63.81325,-24.0538,14.66415,-0.2561719,-0.8300576,-1.219513,-0.9068773,31.76352,21.57491,1007.511
0.721406460,-21.40228,-68.3671,30.3924,-0.1045468,-0.06547649,-0.6985152,-0.5306752,31.03596,21.13288,1007.503
0.753967762,-157.501,-20.06857,21.27369,-0.0879433,-0.5546727,-1.018256,-0.5306752,31.03596,21.13288,1007.501
0.789033413,-103.5414,-7.458613,16.80613,-0.1346515,-0.6594006,-1.100049,0.5460119,32.49915,21.11887,1007.506
0.821594715,-11.43483,5.151346,10.31899,-0.1999665,-0.6610849,-1.130465,1.686878,30.70869,24.69693,1007.504
0.854156017,32.06508,10.80204,13.92976,-0.2184281,-0.480417,-1.048417,2.079335,29.26126,25.59833,1007.504
0.889221668,32.61883,16.63117,24.33366,-0.2252507,-0.4177709,-0.9507791,2.079335,29.26126,25.59833,1007.504
0.921783447,29.66551,19.36729,31.92238,-0.2688802,-0.3864133,-0.9178723,2.864412,29.62564,24.701,1007.5
0.954344749,12.68394,21.09224,36.87953,-0.2856468,-0.3890429,-0.8159037,2.836794,31.07313,23.35234,1007.5
0.986905575,11.08422,19.18885,36.32874,-0.2835461,-0.5579171,-0.7604769,2.836794,31.07313,23.35234,1007.5
1.021971703,32.74188,19.48625,37.30793,-0.2633691,-0.5167217,-0.6776938,3.919162,32.17251,23.34094,1007.5
1.054532528,45.84723,19.24833,36.94073,-0.2441586,-0.5235339,-0.6212612,4.269377,32.89503,21.99631,1007.5
1.087093830,39.26379,17.52338,40.5515,-0.2232082,-0.413527,-0.4919917,4.269377,32.89503,21.99631,1007.501
1.122159481,34.52618,9.671898,45.20265,-0.215278,-0.4459654,-0.3905017,4.9747,34.34782,20.64528,1007.497
1.154720783,35.94131,-2.8191,47.89542,-0.1803439,-0.4580645,-0.3022621,6.060276,34.70666,18.40874,1007.497
1.187282085,20.62098,-16.02387,54.13776,-0.1366905,-0.4338747,-0.2598814,6.060276,34.70666,18.40874,1007.497
1.222347736,30.77301,-29.10968,63.68487,-0.06106631,-0.5162815,-0.1978892,8.225801,36.53384,17.05033,1007.499
1.254909038,38.34088,-38.26974,78.49512,-0.1520029,-0.4041869,-0.2062422,10.0622,36.18068,16.60093,1007.499
1.287469864,-0.7290507,-51.11762,91.4082,-0.2241078,-0.4516133,-0.2436328,10.0622,36.18068,16.60093,1007.503
1.322535992,-45.70562,-72.76868,93.91737,-0.1906907,-0.6185117,-0.3182345,13.71634,36.56321,15.24821,1007.5
1.355097771,-58.01112,-82.34512,79.41312,-0.09464963,-0.9566659,-0.4941182,17.77615,34.77364,15.31192,1007.5
1.387658596,7.700211,-81.15549,65.45966,-0.05883341,-1.046054,-0.612977,17.77615,34.77364,15.31192,1007.5
1.420219898,36.92575,-79.96587,58.11572,-0.1938206,-0.9136674,-0.6142107,20.4307,32.97319,15.25273,1007.504
1.455285549,24.37415,-67.47488,45.81464,-0.3681085,-1.096101,-0.8594809,23.01811,31.16269,13.5369,1007.505
1.487846851,-1.898072,-70.62737,42.38748,-0.4490498,-0.9102073,-0.6105278,23.01811,31.16269,13.5369,1007.507
1.520408153,37.78714,-56.53039,26.16964,-0.4833066,-1.124088,-0.7007657,23.38047,30.78603,10.86189,1007.506
1.555473804,29.35788,-41.95756,13.31777,-0.5837291,-0.9475344,-0.696525,24.1353,28.96194,9.088284,1007.506
1.588035107,38.58699,-36.24739,0.4046931,-0.7349352,-0.8744246,-0.6416089,24.1353,28.96194,9.088284,1007.508
1.620595932,11.45339,-35.05777,-2.165682,-0.8317709,-0.8154618,-0.526539,22.6499,29.66606,6.857456,1007.51
1.655662060,-4.420698,-29.82345,-2.28808,-0.8973287,-0.7891172,-0.5226901,19.68967,30.71824,3.736629,1007.512
1.688222885,3.147179,-25.24342,1.567482,-0.8860556,-0.7620507,-0.5638584,19.68967,30.71824,3.736629,1007.512
1.720784187,12.06866,-12.03864,1.812279,-0.9186828,-0.72115,-0.5670699,18.06771,36.14887,1.025984,1007.512
1.755849838,14.89892,-6.031071,-1.186491,-0.9095543,-0.6960719,-0.49854,20.92651,44.96775,1.845317,1007.513
1.788411617,9.915199,-3.354429,-4.001663,-0.847961,-0.6534331,-0.4007903,20.92651,44.96775,1.845317,1007.511
1.820972919,-203.4005,-49.6306,-10.55,-1.006319,-0.5312889,-0.2484438,25.23,50.81532,0.897131,1007.514
1.853534222,-180.5123,-28.69331,-40.8437,-0.7056937,-0.5700302,-0.3783866,24.78157,56.275,1.751296,1007.516
1.888599873,-128.2755,-13.64463,-20.09711,-0.6243638,-0.5547756,-0.5063272,24.78157,56.275,1.751296,1007.516
1.921161175,-45.39799,-4.900933,-7.857225,-0.6324991,-0.5437851,-0.5946096,22.96222,57.4629,10.22434,1007.518
1.953722000,4.808421,-1.629481,1.016687,-0.6137369,-0.5188638,-0.5705621,21.53064,56.32608,14.69808,1007.52
1.988788128,50.09263,-5.912109,3.158666,-0.6701121,-0.5188505,-0.5216864,21.53064,56.32608,14.69808,1007.52
2.021348953,73.16543,6.103041,12.58337,-0.4962148,-0.5446956,-0.4323404,20.07043,55.95168,14.70545,1007.52
2.053910255,136.7848,17.52338,26.72043,-0.5982286,-0.577866,-0.483986,20.04523,57.03019,12.46725,1007.52
2.088975906,139.7381,6.757331,13.68496,-0.7273703,-0.2453964,-0.3284589,20.04523,57.03019,12.46725,1007.521
2.121537208,-8.419983,-1.570001,7.259026,-0.6413398,-0.4890659,-0.3636789,24.04374,58.18814,8.431263,1007.521
2.154098511,-3.497786,-4.72249,8.605412,-0.6226015,-0.5078014,-0.3581823,29.52376,59.31926,8.405598,1007.521
2.189164161,-16.35703,-6.863804,8.054617,-0.6112633,-0.6072004,-0.3771113,29.52376,59.31926,8.405598,1007.521
2.221725941,-18.57201,-7.042247,11.72658,-0.6416743,-0.6271114,-0.3609509,31.17649,48.00659,11.15866,1007.521
2.254287243,-15.06495,-8.529269,12.76697,-0.6543213,-0.6690996,-0.3552954,30.93517,40.31103,12.55333,1007.521
2.286848068,-4.543753,-9.778369,10.68619,-0.6845664,-0.6698694,-0.3794468,30.93517,40.31103,12.55333,1007.521
2.321914196,-2.513347,-11.74124,7.320225,-0.7250391,-0.6579276,-0.3429722,31.76064,34.49793,13.0388,1007.521
2.354475021,-3.436259,-15.54802,2.424273,-0.7826262,-0.6465533,-0.337426,32.54308,31.22634,12.61385,1007.521
2.387036323,-7.127906,-19.29532,-2.043283,-0.8450378,-0.6438856,-0.3547266,32.54308,31.22634,12.61385,1007.521
2.422101974,4.869948,-21.91248,-4.736056,-0.8733701,-0.6355295,-0.3497381,31.51021,26.85009,12.20268,1007.519
2.454663277,11.45339,-24.70809,-3.512068,-0.8755959,-0.6155469,-0.3682827,31.53457,25.39743,12.65919,1007.523
2.487224579,20.55945,-25.18394,-4.307661,-0.8653807,-0.6196747,-0.3930078,31.53457,25.39743,12.65919,1007.525
2.522290230,30.0962,-22.03144,-5.654047,-0.8289118,-0.5725492,-0.3913572,31.57202,22.78495,11.78576,1007.52
2.554851532,23.08208,-19.53325,-10.1828,-0.8437318,-0.5917976,-0.3694013,31.60043,20.9659,11.79882,1007.527
2.587412357,34.09549,-12.15761,-14.46676,-0.7665817,-0.5627019,-0.3477633,31.60448,20.59951,11.35536,1007.527
2.622478485,26.83525,-3.057024,-17.40433,-0.7544037,-0.6504285,-0.3660316,31.60448,20.59951,11.35536,1007.527
2.655040264,42.95544,7.530583,-22.97348,-0.7580634,-0.6689835,-0.3576103,31.98394,19.87711,11.80547,1007.528
2.687601089,51.01554,11.45633,-27.62463,-0.7230129,-0.6186251,-0.3230396,32.71447,20.25139,12.69262,1007.53
2.720162392,45.04737,13.89504,-28.84862,-0.6982046,-0.6068394,-0.2788964,32.71447,20.25139,12.69262,1007.53
2.755228043,42.52475,13.18127,-25.36025,-0.6797972,-0.6368055,-0.2629365,33.07121,20.98424,13.13228,1007.53
2.787789345,35.38757,10.20723,-21.32109,-0.6436021,-0.6803311,-0.2070804,33.41821,22.44729,14.01279,1007.532
2.820350647,42.6478,8.065912,-15.93555,-0.632441,-0.6758337,-0.2021888,33.41821,22.44729,14.01279,1007.534
2.855416298,34.89534,4.913422,-11.77399,-0.6124657,-0.6727393,-0.1842759,34.1187,24.63803,14.44082,1007.534
2.887977600,37.17186,1.404046,-9.754407,-0.6293322,-0.690406,-0.1951635,34.46718,25.79274,14.43136,1007.534
2.920538425,33.04952,-2.16481,-8.775217,-0.6416166,-0.6813257,-0.1964632,34.46718,25.79274,14.43136,1007.534
2.955604553,25.54317,-5.3173,-7.306431,-0.6129503,-0.6698961,-0.1697308,35.24821,26.52352,13.97749,1007.537
3.020726681,-5.035973,-7.042247,1.567482,-0.5680929,-0.6323765,-0.1692017,34.81902,26.51785,13.53281,1007.533
3.055793285,-22.44824,-6.982766,5.545443,-0.590142,-0.7791551,-0.1254989,34.81902,26.51785,13.53281,1007.533
3.088354111,-6.943324,-4.365605,2.607871,-0.6108093,-0.8877766,-0.1319699,34.09418,25.77977,12.64826,1007.533
3.120915413,21.17472,-5.912109,-1.125292,-0.7289357,-0.8203583,-0.1197096,34.09418,25.77977,12.64826,1007.533
3.153476715,13.97601,-8.172384,-5.715247,-0.771939,-0.7987608,-0.07631808,32.28955,23.88426,12.22162,1007.533
3.188542366,9.299925,-12.03864,-7.796026,-0.7613534,-0.7466028,-0.07988295,31.56066,23.51258,11.78054,1007.534
3.221103668,2.470377,-14.53684,-8.714018,-0.7280074,-0.7703785,-0.09961294,31.56066,23.51258,11.78054,1007.536
3.253664493,12.93004,-12.27657,-10.0604,-0.6808202,-0.7825195,-0.1796009,30.49292,21.69075,12.68931,1007.536
3.288730621,20.25181,-7.280171,-10.3664,-0.6136534,-0.6975133,-0.1904533,30.14107,20.96564,13.58786,1007.538
3.321291447,7.577156,-3.354429,-8.163223,-0.5641517,-0.7107741,-0.1254475,30.14107,20.96564,13.58786,1007.538
3.353852749,2.470377,1.879894,-11.52919,-0.6322392,-0.7987437,-0.1069054,30.51485,20.60706,14.03536,1007.539
3.388918400,19.20584,0.4523514,-14.71156,-0.6776382,-0.7402074,-0.07068202,29.79491,19.87673,14.48903,1007.541
3.421479702,25.72776,-5.138857,-12.44718,-0.6805605,-0.7772864,-0.0480428,29.79491,19.87673,14.48903,1007.541
3.454041004,34.64923,-10.6111,-8.714018,-0.6557171,-0.7698453,-0.01024986,29.79654,19.87931,14.9351,1007.541
3.489107132,33.9109,-13.88255,-4.062863,-0.6213819,-0.7865021,0.01024808,28.69308,20.23777,15.38213,1007.541
3.521668434,36.37201,-10.90851,-2.471678,-0.6249247,-0.7901064,-0.06182664,28.69308,20.23777,15.38213,1007.541
3.554229736,32.12661,-7.874979,-2.716476,-0.6121078,-0.7964098,-0.02858217,28.69852,19.87359,15.32101,1007.541
3.586790562,30.0962,-5.138857,-6.204842,-0.6003497,-0.800193,-0.01801695,29.07822,19.15157,15.83484,1007.541
3.621856689,24.00499,-4.900933,-7.734827,-0.6141941,-0.7329813,0.01782495,29.07822,19.15157,15.83484,1007.541
3.654417515,8.130903,-6.209514,-7.673627,-0.5948387,-0.8027835,0.03269278,29.45932,18.43176,16.73102,1007.541
3.686978817,15.02198,-7.993942,-1.982083,-0.6102209,-0.6869936,0.06927729,28.34831,19.15107,16.66564,1007.539
3.722044468,-5.897357,-10.3137,5.361844,-0.5552577,-0.8053758,0.07466881,28.34831,19.15107,16.66564,1007.539
3.754605770,21.66694,-6.328476,10.0742,-0.5833194,-0.6968507,0.06958432,28.36153,18.4264,17.18066,1007.539
3.787167072,11.76102,-11.02747,17.66292,-0.6123295,-0.6273293,0.08855791,27.64238,17.32451,16.29873,1007.541
3.822232723,-8.173873,-11.74124,18.88691,-0.6217386,-0.786271,0.06487353,27.64238,17.32451,16.29873,1007.539
3.854794025,14.4067,-7.874979,13.37896,-0.6610622,-0.8402152,0.05828797,25.45486,15.8353,13.1938,1007.539
3.887354851,16.80627,-7.934461,13.01177,-0.6739185,-0.7701633,0.1135073,22.54166,13.23388,7.422653,1007.539
3.922421455,8.43854,-7.042247,12.64457,-0.6770462,-0.7655447,0.05122519,22.54166,13.23388,7.422653,1007.539
3.954982758,14.4067,-6.209514,9.890599,-0.6343129,-0.7495511,0.07656355,22.14347,14.29942,3.401361,1007.539
3.987543583,21.85153,-2.224291,5.851439,-0.6329974,-0.7397546,0.06366057,23.56711,16.47995,1.150579,1007.539
4.022609711,22.09764,2.177299,5.423044,-0.6477474,-0.6850464,0.06789309,25.38242,17.58462,1.136803,1007.539
4.055170536,14.16059,4.972903,7.381424,-0.6303675,-0.6645678,0.1029919,25.38242,17.58462,1.136803,1007.541
4.087731838,9.053815,7.530583,12.76697,-0.5991554,-0.6647242,0.1198775,27.56015,19.05832,1.565297,1007.541
4.120293140,7.515629,14.01401,14.84775,-0.6173137,-0.7017429,0.0859773,27.56015,19.05832,1.565297,1007.541
4.155358791,12.99157,19.36729,19.49891,-0.6902602,-0.6259311,0.09203809,28.64819,19.79388,1.556509,1007.539
4.187920093,0.5014985,24.30421,22.86487,-0.720728,-0.6519217,0.0559011,28.67013,18.7102,2.902557,1007.541
4.220480919,-6.943324,31.02555,26.10844,-0.7518244,-0.6999579,0.056165,27.94771,17.60314,1.128481,1007.541
4.255547046,-6.943324,36.85469,28.37282,-0.8174613,-0.7181211,0.01486422,27.94771,17.60314,1.128481,1007.542
4.288107872,-3.805423,42.50537,27.57722,-0.8934771,-0.6824489,-0.03140574,27.95986,16.50396,-0.2019014,1007.542
4.320669174,-3.805423,44.9441,26.96523,-0.9313555,-0.6517979,-0.04008571,27.23013,15.75813,-2.424662,1007.542
4.355735779,-3.190149,48.9888,29.47441,-1.001218,-0.552519,-0.05542184,27.23013,15.75813,-2.424662,1007.542
4.388296604,-23.98643,50.71375,35.34955,-1.014035,-0.5386059,-0.05229694,27.24228,14.65895,-3.755044,1007.544
4.420857906,-20.72548,51.90337,36.32874,-1.027701,-0.6370667,-0.1349932,28.32381,15.38418,-5.54812,1007.544
4.455923557,18.95974,59.75485,36.75713,-1.05017,-0.5004211,-0.1092013,28.32381,15.38418,-5.54812,1007.544
4.488484859,23.94346,58.44627,33.94196,-1.031966,-0.4207371,-0.05241489,29.41832,15.38437,-6.889902,1007.544
4.521046162,33.54174,58.08938,31.49399,-0.9951664,-0.4079838,-0.07932494,30.148,15.3845,-7.784424,1007.544
4.553606987,50.33874,59.69537,30.0864,-1.025669,-0.3417532,-0.08891936,30.148,15.3845,-7.784424,1007.544
4.588673115,57.35287,60.88499,29.9028,-1.019835,-0.2903489,-0.04753709,30.52094,14.65178,-9.118606,1007.544
4.621233940,55.38399,61.83668,29.7804,-0.941543,-0.3237973,-0.05585698,31.26525,13.92945,-9.115761,1007.544
4.653795242,66.45893,58.92212,30.3312,-0.8876806,-0.3445711,-0.03592408,31.26525,13.92945,-9.115761,1007.544
4.688860893,75.44194,62.60993,28.74001,-0.7965351,-0.3492498,-0.0283494,32.40606,11.3933,-8.654978,1007.544
4.721422195,79.81039,62.78837,26.96523,-0.6855094,-0.3824706,0.006806492,33.88898,10.31245,-8.651899,1007.544
4.753983498,88.7934,63.02629,26.35324,-0.6819409,-0.3798645,0.08466648,33.88898,10.31245,-8.651899,1007.544
4.789049625,80.4872,57.13769,28.67881,-0.6593636,-0.3846534,0.1333927,35.02506,8.079475,-8.193292,1007.544
4.821610928,75.01125,47.97762,33.81956,-0.6615651,-0.3898674,0.2043717,35.06078,5.899193,-7.731553,1007.544
4.854172230,62.5827,33.9996,41.22469,-0.647939,-0.4271922,0.221674,35.06078,5.899193,-7.731553,1007.544
4.889237881,53.59969,19.66469,51.50619,-0.6107562,-0.438444,0.2374179,36.63078,3.368713,-6.826084,1007.544
4.921799183,36.8027,4.437574,60.6249,-0.6359426,-0.5326047,0.2442231,37.3978,1.191143,-6.812795,1007.544
4.954360008,24.9279,-10.78955,66.19405,-0.6637236,-0.6203221,0.2163259,37.3978,1.191143,-6.812795,1007.544
4.986921310,13.48379,-25.77874,71.2124,-0.7676899,-0.6036257,0.2012129,37.08162,-2.459944,-8.569782,1007.546
5.021986961,-4.482225,-38.86455,75.31276,-0.9201211,-0.6065321,0.1897147,38.23132,-6.100444,-10.33153,1007.548
5.054548264,-19.4334,-56.1735,70.9676,-1.068195,-0.6511344,0.1683919,38.23132,-6.100444,-10.33153,1007.548
5.087109566,-48.10519,-75.98065,61.78769,-1.152673,-0.5981104,0.1296455,38.63892,-9.450071,-13.30383,1007.548
5.122175216,-78.31517,-87.93633,46.05944,-1.139063,-0.5941405,-0.06172431,38.68673,-13.47524,-17.28976,1007.548
5.154736519,-66.80954,-72.17387,29.22961,-1.084385,-0.5961189,-0.2169712,38.68673,-13.47524,-17.28976,1007.548
5.187298298,-23.80185,-52.00983,17.11213,-1.106526,-0.492414,-0.2139176,37.21669,-14.61084,-23.07611,1007.549
5.222363949,-50.8124,-61.05094,6.708231,-1.153625,-0.4281175,0.1515749,36.48775,-15.72823,-26.63447,1007.549
5.254925251,-74.37742,-11.68176,31.31039,-0.8696393,-0.3022732,-0.6245325,36.48775,-15.72823,-26.63447,1007.549
5.287486553,79.99497,-2.878581,-0.7580954,-1.055901,-0.3967115,-0.1665855,34.938,-15.02971,-29.75724,1007.549
5.322552204,56.55301,-4.484567,7.80982,-1.161197,0.1550769,0.02948457,33.45508,-13.94887,-29.76032,1007.545
5.355113506,17.66766,3.485879,1.322684,-1.087482,0.07067022,0.09821533,33.45508,-13.94887,-29.76032,1007.547
5.387674332,10.22284,3.664322,-1.553687,-1.008058,0.07969538,0.1577317,33.48838,-15.76017,-28.40905,1007.547
5.420235634,2.039685,0.3928705,-3.32847,-0.9672714,0.05433956,0.1858248,33.85974,-15.74978,-27.07202,1007.551
5.455301285,-7.620126,-0.6777865,-7.36763,-0.9356018,-0.02792649,0.1980736,33.85974,-15.74978,-27.07202,1007.551
5.487862587,-2.390292,-3.41391,-9.020015,-0.9449593,-0.060616,0.1990341,33.50058,-16.11365,-26.62215,1007.551
5.520423889,-10.14275,-7.339652,-12.14118,-0.9466335,-0.05311126,0.1474289,33.85406,-15.38597,-27.07463,1007.553
5.555489540,-9.46595,-5.614705,-12.44718,-0.9793623,-0.1393224,0.09490725,33.85406,-15.38597,-27.07463,1007.556
5.588050365,-12.17316,-1.748443,-13.42637,-1.017041,-0.1997666,0.1326916,34.57401,-14.65563,-27.52831,1007.556
5.620612621,-5.282082,-1.094153,-13.24277,-1.049774,-0.2394164,0.1011822,34.5537,-13.56937,-28.42828,1007.554
5.655678272,-4.482225,2.593665,-15.26235,-1.069802,-0.2780304,0.0919116,34.5537,-13.56937,-28.42828,1007.554
5.688239574,2.285795,2.415222,-12.81438,-1.042226,-0.313907,0.04493346,34.92585,-13.93053,-28.42686,1007.554
5.720800400,5.669805,0.3333895,-8.46922,-0.965703,-0.2166036,0.1348021,35.65148,-13.56401,-28.87792,1007.554
5.755866528,1.055246,0.809237,-3.634467,-0.8967677,-0.2395179,0.1343859,34.90554,-12.84426,-29.32684,1007.556
5.788427353,0.5630259,1.225604,1.628681,-0.8896697,-0.2665761,0.1199484,34.90554,-12.84426,-29.32684,1007.556
5.820988655,0.6245534,2.177299,5.851439,-0.920072,-0.2499367,0.114431,35.69147,-12.10574,-28.44249,1007.556
5.853549957,1.547465,2.415222,6.769431,-0.9996438,-0.2372893,0.09778259,35.69147,-12.10574,-28.44249,1007.556
5.888615608,0.07080628,0.03598484,5.912639,-1.046332,-0.2009634,0.09838185,36.43414,-12.83065,-28.88572,1007.556
5.921176910,0.439971,-2.283772,4.505053,-0.9859535,-0.1958908,0.117736,35.64175,-12.83381,-28.43707,1007.556
5.953737736,0.6245534,-1.153634,3.403464,-0.939054,-0.2060239,0.1291372,35.71419,-13.56099,-28.43205,1007.556
5.988803864,1.547465,0.6902751,1.200285,-0.9625991,-0.1936489,0.1191978,35.71419,-13.56099,-28.43205,1007.556
6.021364689,0.5630259,0.809237,-0.7580954,-0.9809499,-0.2089138,0.1102819,36.07498,-13.19453,-28.43585,1007.556
6.053926468,0.6245534,0.868718,-1.737286,-0.9737204,-0.2010726,0.1166784,35.71419,-13.56099,-28.43205,1007.556
6.088992596,-0.4829409,1.047161,-1.859684,-0.953058,-0.2192639,0.1149308,35.71419,-13.56099,-28.43205,1007.556
6.121553421,0.6245534,0.809237,-0.8192948,-0.9618388,-0.2179226,0.1154431,35.70525,-13.20234,-29.3268,1007.557
6.154114723,-0.7905781,0.9876798,0.2822943,-0.9606433,-0.2378146,0.1112715,35.70851,-13.19718,-28.43466,1007.557
6.189180374,-0.5444683,1.047161,1.016687,-0.956884,-0.224198,0.1201764,35.70851,-13.19718,-28.43466,1007.559
6.221741676,-0.7905781,1.701451,0.9554878,-0.9600525,-0.2028582,0.1209884,36.0693,-12.83072,-28.43846,1007.559
6.254302978,-0.6059958,2.177299,-0.3296996,-0.9460914,-0.1890642,0.1202186,35.6458,-13.2002,-28.88053,1007.559
6.286863804,-0.1753035,1.225604,-1.553687,-0.9849126,-0.2055127,0.09921992,35.6458,-13.2002,-28.88053,1007.559
6.321929931,-1.098215,-1.748443,-1.920884,-0.993071,-0.215827,0.09955382,35.70688,-13.19976,-28.88073,1007.559
6.354490757,-2.882512,-3.473391,-1.002893,-0.9607831,-0.2242422,0.1187293,35.64906,-13.19503,-27.98839,1007.561
6.387052059,-1.098215,-4.0682,0.2210949,-0.9497031,-0.2138898,0.1183932,35.64906,-13.19503,-27.98839,1007.561
6.422117710,-0.6059958,-2.938062,0.4046931,-0.95941,-0.2193069,0.1062355,35.62876,-12.10877,-28.88836,1007.561
6.454679012,1.301355,-2.700139,-0.1461014,-0.9744162,-0.2272761,0.105645,35.7012,-12.83595,-28.88334,1007.561
6.487240791,1.116773,-2.521696,-0.8192948,-0.9780868,-0.2021104,0.1186003,35.7012,-12.83595,-28.88334,1007.561
6.522306442,0.1938612,-1.867405,-0.5744972,-0.9683747,-0.2038369,0.09874615,35.26633,-12.47781,-29.33064,1007.557
6.554867744,-2.267237,-2.16481,0.4046931,-0.9545801,-0.2144151,0.1130728,35.70283,-12.83336,-28.43727,1007.557
6.587429047,-2.636402,-1.272596,2.057077,-0.9701242,-0.2151635,0.1261275,35.70283,-12.83336,-28.43727,1007.557
6.622494697,-1.159743,-2.640657,4.137856,-1.006063,-0.1825698,0.1232758,35.69957,-12.83853,-29.32941,1007.558
6.655056000,-6.574159,-4.781971,5.973838,-0.9939758,-0.1295153,0.1405084,35.2777,-13.20543,-29.32541,1007.558
6.687616825,-11.61941,-4.544047,6.524633,-0.9678638,-0.1558928,0.1376639,35.2777,-13.20543,-29.32541,1007.558
6.720178127,-15.06495,-4.127681,5.973838,-0.9652604,-0.1694863,0.1418044,35.69794,-12.84111,-29.77549,1007.56
6.755243778,-16.9723,-2.045848,5.300645,-1.002988,-0.1970804,0.1167676,35.69062,-12.47989,-30.22417,1007.562
6.787805080,-18.38743,-1.272596,6.463433,-1.064384,-0.2400796,0.09828588,35.69062,-12.47989,-30.22417,1007.562
6.887993336,-8.48151,-3.592353,6.218636,-0.7778724,-0.2015498,0.1416177,35.25981,-12.48814,-31.11493,1007.564
6.920555115,-1.344325,1.047161,5.117047,-0.8025532,-0.2135684,0.1487088,34.53255,-12.85724,-31.10994,1007.564
6.955620766,-11.55788,6.281483,5.851439,-0.9188991,-0.1714467,0.1712157,34.5366,-13.22364,-31.5534,1007.565
6.988182068,-10.57344,12.11062,-0.5744972,-1.01909,-0.3292829,0.07222903,34.5366,-13.22364,-31.5534,1007.565
7.020742893,3.577871,1.047161,1.628681,-1.234741,-0.2752518,-0.02921439,34.53255,-12.85724,-31.10994,1007.565
7.055809021,-0.236831,-9.837851,-1.064092,-1.008562,-0.1364053,0.1176986,34.89902,-12.8546,-31.11113,1007.565
7.088369846,2.901069,-5.436262,-4.001663,-0.8347089,-0.1678769,0.1620047,34.89902,-12.8546,-31.11113,1007.565
7.120931148,2.16274,-2.581177,-0.696896,-0.8806841,-0.1865972,0.1922163,35.26549,-12.85195,-31.11231,1007.567
7.153492451,8.807705,0.868718,-0.696896,-1.058402,-0.1637931,0.1192624,34.89739,-12.85718,-31.5572,1007.563
7.188558101,9.361452,-5.793147,-3.756866,-1.019982,-0.1660575,0.08632117,34.89739,-12.85718,-31.5572,1007.563
7.221119404,10.22284,-4.841452,-3.695667,-0.9189706,-0.2126388,0.1449684,34.89902,-12.8546,-31.11113,1007.563
7.253680229,8.930759,-2.521696,-1.676086,-0.9612752,-0.1643674,0.2027841,34.53092,-12.85983,-31.55601,1007.569
7.288746357,9.422979,2.29626,-0.7580954,-0.9966779,-0.1427961,0.1673775,34.53092,-12.85983,-31.55601,1007.565
7.321307182,9.299925,2.950551,0.03749677,-0.9476316,-0.2174196,0.1521737,34.5366,-13.22364,-31.5534,1007.563
7.353868961,10.53047,2.712627,-0.3296996,-0.9708206,-0.1967141,0.1283432,34.91202,-13.57964,-30.65983,1007.563
7.388935089,5.608278,2.355741,-1.798485,-0.968021,-0.1821844,0.1474138,34.91202,-13.57964,-30.65983,1007.567
7.421495914,6.285079,3.54536,-2.410479,-0.9601989,-0.1840418,0.1507616,34.53823,-13.22105,-31.10732,1007.567
7.454057217,4.623838,4.259131,-1.24769,-0.9620343,-0.1956873,0.1414015,34.54554,-13.58228,-30.65864,1007.569
7.489122867,3.331762,5.091865,1.445083,-0.9648234,-0.2092847,0.1310458,34.9177,-13.94345,-30.65722,1007.565
7.521684170,2.531904,5.865117,2.79147,-0.9673482,-0.2029689,0.1243774,34.9177,-13.94345,-30.65722,1007.565
7.554245472,4.254673,6.222003,3.70946,-0.9631022,-0.1912477,0.1240687,35.28012,-13.57441,-30.21495,1007.565
7.586806297,6.162025,6.578888,4.321455,-0.9622175,-0.1820357,0.1314591,35.28012,-13.57441,-30.21495,1007.569
7.621872425,5.79286,8.065912,4.321455,-0.9642315,-0.1805133,0.1116658,35.71335,-13.93513,-30.21372,1007.565
7.654433250,3.762454,8.720202,3.893059,-0.9661993,-0.1785994,0.1126636,35.29474,-14.29686,-29.31758,1007.565
7.686994553,6.100497,8.482279,2.118276,-0.9718443,-0.1505569,0.128565,36.08714,-14.29371,-29.76623,1007.565
7.722060203,7.946321,9.850341,0.7718895,-0.9761953,-0.156379,0.113979,36.08714,-14.29371,-29.76623,1007.567
7.754621506,8.623122,9.790859,-0.6356966,-0.9775825,-0.1684227,0.08672753,35.73692,-15.01623,-28.4216,1007.567
7.787182808,7.207992,10.50463,0.2822943,-0.9649722,-0.1572267,0.118789,36.82497,-14.28067,-28.43039,1007.565
7.822248936,9.176869,11.39684,-0.5132978,-0.9677542,-0.1755931,0.08854216,36.82497,-14.28067,-28.43039,1007.565
7.854810238,8.561595,10.80204,-0.08490203,-0.9765176,-0.1766617,0.0846673,36.83796,-15.0057,-27.9791,1007.565
7.887371540,9.053815,10.62359,0.8330889,-0.9707205,-0.171269,0.09102787,36.47149,-15.00835,-27.97791,1007.565
7.922437191,6.408134,9.612417,0.1598955,-0.9745446,-0.1828652,0.06523568,36.47149,-15.00835,-27.97791,1007.565
7.954998493,4.070091,7.649545,0.03749677,-0.9848679,-0.1737838,0.06925121,37.21011,-15.36687,-27.97767,1007.563
7.987559319,3.024124,6.578888,0.3434937,-0.9799802,-0.1766072,0.06291952,37.22474,-16.08932,-27.08031,1007.563
8.020120621,4.131618,5.627193,1.934678,-0.9792075,-0.1567272,0.07530648,37.22474,-16.08932,-27.08031,1007.563
8.055186272,1.116773,4.080688,1.812279,-0.9818794,-0.1790995,0.07110073,37.22879,-16.45572,-27.52377,1007.565
8.087747574,4.931476,2.89107,2.240675,-0.9854963,-0.1621174,0.06701291,37.5831,-15.35389,-26.19458,1007.567
8.120308876,1.485938,0.809237,1.934678,-0.9829471,-0.174185,0.05619206,37.5831,-15.35389,-26.19458,1007.567
8.155374527,1.547465,0.1549467,3.70946,-0.9705178,-0.1498168,0.07685366,37.58879,-15.7177,-26.19196,1007.571
8.187935829,2.224267,-0.6183055,2.73027,-0.9787607,-0.1571232,0.0569317,37.59284,-16.0841,-26.63543,1007.565
8.220496654,7.023409,-1.391558,2.852669,-0.9739963,-0.1483068,0.05561147,37.59284,-16.0841,-26.63543,1007.565
8.255563259,7.023409,0.5118323,3.219865,-0.9728188,-0.161983,0.07377,37.59852,-16.44791,-26.63281,1007.569
8.288124561,3.270234,0.1549467,2.913868,-0.9717444,-0.1673857,0.0891546,37.23205,-16.45055,-26.63163,1007.569
8.320685386,3.270234,-0.2614199,5.973838,-0.9755253,-0.1823898,0.0647605,37.23205,-16.45055,-26.63163,1007.571
8.355751514,2.839542,-0.08297704,8.360614,-0.9768644,-0.1522475,0.05893775,37.24504,-17.17559,-26.18033,1007.571
8.388312340,1.978158,-1.688962,9.707001,-0.9865186,-0.1625171,0.04525585,36.87694,-17.18082,-26.62521,1007.571
8.420873642,2.285795,-4.0682,9.584602,-0.9844213,-0.1276252,0.07333863,36.87694,-17.18082,-26.62521,1007.572
8.453434944,-2.451819,-3.949238,9.890599,-0.9735691,-0.138679,0.07702652,37.60988,-17.17553,-26.62759,1007.571
8.488500595,-3.251676,-1.688962,10.2578,-0.9751828,-0.1203455,0.10196,37.62288,-17.90057,-26.1763,1007.572
8.521061897,0.1323337,-0.2019389,11.60418,-0.9716051,-0.1377323,0.08815674,37.62288,-17.90057,-26.1763,1007.57
8.553622723,1.362883,2.177299,11.54298,-0.9798173,-0.100918,0.09162658,36.88425,-17.54205,-26.17653,1007.57
8.588688850,5.054531,4.675498,10.50259,-0.9865858,-0.1063277,0.08623344,36.52914,-18.27232,-26.17012,1007.57
8.621249676,5.054531,5.686674,9.462203,-0.9861656,-0.1038215,0.07080321,36.52914,-18.27232,-26.17012,1007.57
8.653811455,-0.7905781,4.14017,10.013,-0.9771928,-0.1212087,0.07246279,36.16835,-18.63877,-26.16632,1007.568
8.688876629,-1.22127,3.783284,13.25657,-0.9920311,-0.05635132,0.08893466,36.17403,-19.00259,-26.16371,1007.57
8.721437931,6.03897,1.879894,12.46097,-1.001585,-0.07393809,0.08142492,36.17403,-19.00259,-26.16371,1007.57
8.753999710,4.623838,-1.867405,9.951798,-1.002732,-0.05841488,0.08456311,36.19271,-20.09143,-25.7098,1007.57
8.789065361,-6.389576,-6.387957,7.442624,-0.9887251,-0.04755831,0.08858224,35.82056,-19.73027,-25.71123,1007.57
8.821626663,-14.08051,-2.581177,9.462203,-0.9820341,-0.03487314,0.09698671,35.82056,-19.73027,-25.71123,1007.57
8.854187965,-4.60528,-3.057024,8.421814,-0.9968886,-0.07022928,0.02782214,35.77084,-20.45833,-25.70581,1007.57
8.889253616,-0.9751604,-4.246643,6.463433,-0.9869502,-0.03294905,0.08735328,35.40274,-20.46356,-26.15069,1007.57
8.921814918,-4.236115,-5.079376,3.954258,-0.9807768,-0.02116512,0.07882632,35.40274,-20.46356,-26.15069,1007.57
8.954375744,-9.527477,-7.101728,2.975068,-0.9854695,-0.03677112,0.07714262,35.04195,-20.83002,-26.14689,1007.57
8.986937046,-2.882512,-5.97159,0.4046931,-0.9810609,-0.03581028,0.09213771,35.04358,-20.82744,-25.70082,1007.566
9.022002697,-2.20571,-2.997543,-2.532878,-0.9709061,-0.02793755,0.09998205,35.04358,-20.82744,-25.70082,1007.566
9.054563999,-12.29621,-1.867405,-3.389669,-0.9791107,-0.02960651,0.1226832,34.6698,-20.46886,-26.14831,1007.566
9.087125301,-12.91149,1.166123,-4.613657,-0.9859595,-0.03011319,0.1076974,34.29276,-20.11544,-27.48795,1007.566
9.122190952,-23.80185,4.497055,-6.266041,-0.9724863,-0.05812228,0.1067737,35.02002,-19.74634,-27.49294,1007.566
9.154752254,-31.00056,8.006432,-4.858455,-0.981775,-0.05912684,0.08743229,35.02002,-19.74634,-27.49294,1007.566
9.187313080,-26.93975,10.26671,-4.980854,-0.9804953,-0.04450854,0.0828203,35.02002,-19.74634,-27.49294,1007.566
9.222379684,-19.80256,12.82439,-7.306431,-0.9873732,-0.04353551,0.06302333,35.00055,-18.28593,-26.61124,1007.566
9.254940986,-13.28065,10.62359,-9.203612,-0.9960462,-0.05665947,0.03866264,35.00055,-18.28593,-26.61124,1007.566
9.287501812,-7.866236,4.378093,-9.509609,-1.00245,-0.0960279,0.02066663,35.79294,-18.28278,-27.05989,1007.566
9.320063114,-8.050818,-5.912109,-8.958815,-1.021099,-0.07888194,0.04414831,35.79294,-18.28278,-27.05989,1007.566
9.355128765,-15.37259,-14.53684,-11.34559,-0.9969481,-0.06013287,0.05166169,35.7759,-17.19134,-27.06772,1007.567
9.387690067,-15.68022,-13.70411,-12.69198,-0.9786814,-0.07462244,0.08380925,36.4999,-16.82741,-27.96485,1007.567
9.420251369,-6.635686,-10.19474,-12.99798,-0.9755458,-0.1386516,0.06542781,35.75233,-16.11024,-28.85984,1007.567
9.455317020,-4.60528,-9.540445,-9.509609,-0.982016,-0.1660085,0.07758448,35.75233,-16.11024,-28.85984,1007.563
9.487878322,-0.5444683,-9.302522,-4.001663,-0.9884198,-0.1645301,0.05489451,35.68394,-15.74946,-29.30832,1007.567
9.520439148,0.1938612,-8.529269,-1.002893,-0.9723856,-0.1537932,0.09081272,36.0985,-15.02133,-29.76101,1007.563
9.555505276,3.947036,-5.97159,0.4658925,-0.9717799,-0.1122054,0.1383342,36.0985,-15.02133,-29.76101,1007.563
9.588066101,0.7476083,-2.521696,3.342264,-0.9675763,-0.1445831,0.1098003,35.67094,-15.02442,-29.75962,1007.563
9.620627403,1.978158,-1.272596,6.096237,-0.9710034,-0.1450695,0.1001286,36.0985,-15.02133,-29.76101,1007.563
9.655693054,4.808421,-0.6777865,7.197826,-0.9820418,-0.1184556,0.09426143,36.0985,-15.02133,-29.76101,1007.569
9.688254356,4.931476,-1.688962,9.278605,-0.9848813,-0.1272049,0.08639666,35.30447,-15.02707,-29.75843,1007.567
9.720815659,7.577156,-4.960414,12.15498,-0.9898315,-0.1228403,0.0743836,34.94531,-15.39094,-29.30856,1007.567
9.755881786,8.007848,-8.588751,15.82694,-0.9913582,-0.1146538,0.0865944,34.94531,-15.39094,-29.30856,1007.567
9.788443088,10.16131,-10.73006,19.13171,-0.9904657,-0.1064071,0.09251986,34.58289,-15.75998,-29.75083,1007.567
9.821004391,16.43711,-13.88255,20.84529,-0.9844836,-0.07905425,0.07988022,34.59994,-16.85141,-29.743,1007.568
9.853565216,28.80413,-15.07217,22.19168,-0.9891405,-0.04531752,0.1287371,34.59994,-16.85141,-29.743,1007.568
9.888631344,23.94346,-14.061,25.43525,-1.026569,-0.07963942,0.1939889,33.87268,-17.22052,-29.73801,1007.568
9.921192169,36.74117,-19.3548,33.94196,-1.044835,-0.131682,0.04433244,33.16814,-19.04486,-29.72258,1007.568
9.953753471,42.46322,-27.02784,32.16718,-1.139465,0.06596727,0.1281631,33.16814,-19.04486,-29.72258,1007.57
9.988819122,34.77229,-38.15078,29.04601,-1.165751,0.02333515,0.1294716,32.45551,-20.13642,-28.82022,1007.572
10.021380425,21.42083,-48.3815,28.18922,-1.220186,0.05044142,0.1048021,30.65561,-22.3351,-29.24468,1007.572
10.053941727,12.86852,-63.78707,28.55642,-1.244056,0.0439651,0.0713733,30.65561,-22.3351,-29.24468,1007.574
10.089007378,-7.989291,-76.75391,32.90157,-1.174771,0.08498381,0.1202699,28.82894,-22.71215,-29.23613,1007.574
10.121568680,-29.95459,-79.60899,32.53437,-1.083032,-0.09468515,0.1348418,25.54612,-23.82999,-29.66367,1007.569
10.154129505,-40.84496,-80.56068,29.04601,-1.100338,-0.2606698,0.03468409,25.54612,-23.82999,-29.66367,1007.569
10.189195633,-13.77287,-65.45253,13.01177,-0.7751693,-0.272819,0.1110418,22.61772,-24.28077,-30.54326,1007.569
10.221756458,36.12589,-33.98711,15.70454,-0.6405316,-0.1552037,-0.03617383,20.02144,-22.42219,-30.9945,1007.569
10.254317760,-197.1247,6.876293,3.831859,-0.6405969,0.1398821,-0.05245703,20.02144,-22.42219,-30.9945,1007.569
10.286879539,-50.99699,42.86226,-7.122833,-0.5939205,-0.5757151,-0.3046245,19.20874,-21.33908,-31.44583,1007.569
10.321945190,-36.72261,80.63266,-21.87189,-0.6672862,-0.3066811,-0.1472188,20.32215,-18.42279,-31.91655,1007.569
10.354506492,6.531189,108.2318,-35.33575,-0.8061236,-0.2067141,-0.08465417,20.32215,-18.42279,-31.91655,1007.571
10.387067795,20.55945,122.6262,-45.31126,-0.9868721,-0.1148413,-0.0719604,22.83958,-15.1248,-31.05623,1007.571
10.422133446,38.27935,132.6785,-58.71392,-1.140766,0.036644,0.05376035,27.58266,-12.88687,-27.51877,1007.571
10.454694748,14.59129,130.1803,-63.12028,-1.234901,0.2285786,0.1133345,27.58266,-12.88687,-27.51877,1007.571
10.487255573,-20.35631,123.6374,-59.50952,-1.187975,0.3134084,0.1895068,31.23038,-11.02327,-24.42122,1007.573
10.522321701,-67.48634,114.8342,-47.26964,-1.163306,0.3354356,0.2255889,34.15572,-9.521019,-19.98045,1007.575
10.554882526,-89.69775,99.60708,-29.58301,-1.102606,0.311915,0.4402742,34.15572,-9.521019,-19.98045,1007.57
10.587443828,-114.6164,82.65501,-14.46676,-1.161805,0.06615368,0.5545259,36.38796,-6.876723,-16.43792,1007.57
10.622509479,-74.25436,36.85469,-12.26358,-1.132861,-0.3352014,0.7223904,36.73255,-5.044691,-14.66787,1007.569
10.655070782,7.331047,-21.19871,-1.859684,-1.172827,-0.04538918,0.8950656,36.73255,-5.044691,-14.66787,1007.569
10.687632084,-9.650532,-50.22541,1.628681,-1.434437,-0.01609296,-0.1976334,38.17329,-3.209884,-13.79354,1007.569
10.720192909,-38.19928,-66.64214,-14.52796,-0.9242669,0.1201972,0.3608036,37.79624,-2.856469,-15.13318,1007.567
10.755259037,-68.90147,-58.07689,-16.85354,-1.043382,-0.2632272,0.01235477,37.79624,-2.856469,-15.13318,1007.567
10.787819862,-46.87465,-48.3815,-13.18157,-0.9469467,-0.03773971,0.2921934,37.05515,-2.874677,-17.36116,1007.567
10.820381165,-32.23111,-39.9352,-3.144872,-0.8966612,-0.3670655,-0.03142483,35.9208,-1.073895,-19.15494,1007.567
10.855447769,30.64995,-22.98314,-6.572038,-0.9521044,-0.03067372,0.008080558,35.52509,0.3683677,-20.94848,1007.565
10.888008594,-1.22127,-20.42546,-13.91597,-1.000483,-0.1003185,0.00803148,35.52509,0.3683677,-20.94848,1007.567
10.920569897,-15.188,-26.31407,-9.081214,-0.9637852,-0.2479142,-0.02712534,34.36701,-0.008989811,-21.83425,1007.567
10.988196850,13.66837,-25.42186,4.627451,-0.9886873,-0.138834,0.06785459,33.9916,0.3470082,-22.72782,1007.561
11.020758152,6.346607,-23.63743,6.341034,-0.9617671,-0.1886211,0.08495399,33.61456,0.7004228,-24.06746,1007.563
11.055823803,13.97601,-20.66338,8.299415,-0.9598914,-0.1822811,0.08553228,32.89703,-0.3988857,-24.50331,1007.561
11.088385105,15.20656,-20.48494,9.156206,-0.964506,-0.1619388,0.08778059,32.89703,-0.3988857,-24.50331,1007.561
11.120945930,16.49864,-22.26937,10.44139,-0.9840734,-0.1553703,0.08354929,32.5346,-0.7679262,-24.94559,1007.561
11.153507232,17.11391,-24.23224,12.09378,-0.9791418,-0.155896,0.1062552,32.54029,-1.131737,-24.94298,1007.563
11.188572883,25.11248,-25.83822,15.03135,-0.9913601,-0.1502656,0.1155371,32.54029,-1.131737,-24.94298,1007.563
11.221134186,26.21997,-28.87175,17.41813,-0.9916562,-0.121188,0.1328992,32.17624,-1.50336,-25.83132,1007.565
11.253695488,28.55802,-33.33282,19.6213,-1.01652,-0.119555,0.1300478,31.82518,-2.600022,-26.26837,1007.56
11.288761139,30.34232,-41.30327,22.13048,-1.065686,-0.1140421,0.1659493,31.82518,-2.600022,-26.26837,1007.56
11.321322441,28.0658,-50.22541,22.62007,-1.13706,-0.04792716,0.1713772,30.00902,-4.078831,-28.03627,1007.56
11.353883266,21.91305,-62.65693,28.06682,-1.35278,0.107479,0.3262201,29.65229,-4.811682,-28.47593,1007.56
11.388949394,43.50919,-81.51238,25.06805,-1.427017,-0.03036702,0.1811091,29.65229,-4.811682,-28.47593,1007.56
11.421511173,7.884794,-102.866,26.53683,-1.414161,0.01926999,0.09774645,27.83287,-6.295657,-31.13597,1007.56
11.454071998,-10.26581,-121.2457,29.29081,-1.348273,0.005107977,0.08779926,26.01104,-7.410655,-32.90649,1007.56
11.489138126,-9.158313,-131.179,27.14883,-1.284785,-0.2523847,-0.07087101,26.01104,-7.410655,-32.90649,1007.562
11.521698952,24.62026,-133.8556,21.39609,-1.139778,-0.3501284,-0.389114,22.70801,-7.877002,-36.01524,1007.562
11.554260254,23.20513,-109.8848,3.831859,-0.5143883,-0.2233528,0.240123,18.61329,-8.283283,-38.22972,1007.56
11.586821556,17.17544,-45.46693,13.68496,-0.3918216,-0.3498509,-0.2308007,18.61329,-8.283283,-38.22972,1007.562
11.621887207,-18.69507,48.69139,7.626222,-0.5117707,-0.1335664,-0.2554211,14.20748,-8.32796,-40.44581,1007.562
11.654448509,29.8501,87.11608,-20.8315,-0.3415544,-0.5332412,-0.2645832,12.74728,-8.702357,-40.43845,1007.56
11.687009334,65.90519,132.619,-35.51935,-0.5492874,-0.2308734,-0.1273244,12.74728,-8.702357,-40.43845,1007.558
11.722075462,91.00839,182.0477,-56.87794,-0.7647263,-0.09030454,-0.1278722,15.31421,-8.681247,-40.00069,1007.557
11.754636288,71.07349,200.0704,-76.40054,-1.127229,0.2293459,-0.0660905,21.26564,-9.714392,-37.33565,1007.557
11.787197590,19.75959,198.048,-84.17287,-1.294974,0.3088668,0.02760958,21.26564,-9.714392,-37.33565,1007.557
11.822263241,-29.15474,196.0257,-83.62208,-1.476009,0.3509598,0.08449821,28.28225,-11.81597,-31.9897,1007.555
11.854824543,-76.96157,187.163,-70.21941,-1.515066,0.4760866,0.2435424,36.04258,-10.26338,-24.88816,1007.555
11.887385845,-108.7713,168.0696,-37.84493,-1.36705,0.378918,0.7634807,36.04258,-10.26338,-24.88816,1007.555
11.922451496,-179.774,140.9463,-21.19869,-1.339483,-0.2543738,1.05687,42.60497,-6.106689,-16.90942,1007.555
11.955012798,37.17186,32.09621,-15.13995,-1.522287,-0.6196222,1.440109,44.78155,-2.770756,-9.038207,1007.547
11.987573624,10.28436,-86.27086,13.74616,-1.070969,0.1111383,1.072338,44.78155,-2.770756,-9.038207,1007.547
12.020134926,-14.26509,-120.4724,-6.694437,-1.598155,0.08525965,-1.145281,44.38752,-0.5802069,-7.268398,1007.547
12.055201530,-127.4141,-63.6681,-29.21581,-1.225536,-0.08485804,0.6610433,42.55432,-0.9675832,-9.04413,1007.549
12.087762356,29.60398,-61.52679,-18.26112,-0.8731506,-0.1513055,0.2546196,42.55432,-0.9675832,-9.04413,1007.551
12.120323658,-129.6291,-47.60825,-10.6724,-0.7539698,-0.4046558,-0.01328435,41.80591,-0.6245642,-11.7208,1007.551
12.155389309,68.73545,-38.0913,-1.676086,-0.9850252,-0.1473936,-0.06907517,41.04498,0.4442315,-14.72131,1007.551
12.187950611,26.71219,-30.41826,-8.102023,-1.026584,-0.03977163,-0.02147234,41.04498,0.4442315,-14.72131,1007.552
12.220511913,18.59057,-35.83102,-7.551229,-0.9908262,-0.2211558,-0.003972292,40.65657,1.525268,-16.06617,1007.554
12.255577564,15.76031,-34.93881,4.74985,-0.9291459,-0.2912851,-0.009452134,39.55553,1.514745,-16.50867,1007.554
12.288138866,44.80127,-27.56317,6.585832,-0.9639738,-0.1297286,0.06023562,39.55553,1.514745,-16.50867,1007.554
12.320699692,14.71434,-23.99432,2.852669,-0.9765078,-0.09070457,0.09951323,38.82174,1.135309,-18.28797,1007.554
12.355765819,4.808421,-23.39951,4.015458,-0.969851,-0.2128641,0.04930542,38.81685,1.12756,-19.62619,1007.552
12.388326645,16.56017,-24.76757,6.83063,-0.9681693,-0.185243,0.07196053,38.81685,1.12756,-19.62619,1007.552
12.420887947,13.11463,-27.26577,8.544212,-0.9822478,-0.1422803,0.09583166,38.46742,0.03348064,-19.61716,1007.552
12.453449249,5.300641,-28.27694,10.38019,-0.9693667,-0.1586889,0.1071699,37.37206,-0.3408532,-20.05706,1007.555
12.488514900,9.484507,-31.25099,12.88937,-0.990104,-0.1740735,0.1175895,37.37206,-0.3408532,-20.05706,1007.555
12.521076202,13.42226,-32.79749,17.54052,-1.01144,-0.1768945,0.1422193,37.37853,-1.076224,-21.39005,1007.559
12.553637028,23.8204,-41.71964,19.9273,-1.04888,-0.1475762,0.1074162,36.28154,-1.453141,-22.27602,1007.561
12.588703155,21.35931,-54.03219,23.84406,-1.081846,-0.1501757,0.1567128,35.12752,-2.196893,-23.60525,1007.562
12.621263981,23.51277,-60.75353,22.25288,-1.145134,-0.0987672,0.2126632,35.12752,-2.196893,-23.60525,1007.566
12.653825283,41.54031,-69.79464,25.86364,-1.429427,0.05315294,0.1906031,34.03536,-3.311763,-26.27028,1007.566
12.688890934,20.99014,-97.15587,22.49767,-1.587175,-0.417343,-0.03925943,32.94647,-4.421468,-28.04317,1007.568
12.721452236,6.285079,-125.1119,26.65923,-1.632566,0.07771115,0.08676443,32.94647,-4.421468,-28.04317,1007.571
12.754014015,17.91377,-148.5474,23.29327,-1.499336,-0.109743,-0.09700695,30.39575,-5.908153,-30.25476,1007.573
12.789079666,-2.697929,-148.1905,11.23699,-1.066652,-0.4524279,-0.4477838,25.99478,-6.690783,-34.24992,1007.573
12.821640968,69.22767,-117.0225,-0.8804942,-0.6140621,-0.1822895,-0.09558459,25.99478,-6.690783,-34.24992,1007.573
12.854202270,40.37129,-58.07689,0.3434937,-0.3592057,-0.4154073,-0.1501417,21.22493,-7.107082,-37.35436,1007.573
12.886763096,33.11105,22.40082,15.64334,-0.575482,-0.004865592,-0.2040917,17.15145,-8.660264,-38.66843,1007.573
12.921829224,-25.52462,61.06343,-20.2195,-0.4247956,-0.1970787,-0.04185469,17.15145,-8.660264,-38.66843,1007.575
12.954390049,-32.96944,100.6183,-25.48265,-0.4542258,-0.1842281,-0.06628244,16.0764,-10.12086,-38.20834,1007.575
12.986951351,-15.92633,155.2813,-40.41531,-0.5663113,-0.186003,-0.1039047,18.63522,-9.366967,-36.88367,1007.575
13.022017002,7.392574,186.2113,-50.8192,-0.8377293,0.03834815,-0.09248595,18.63522,-9.366967,-36.88367,1007.571
13.054578304,13.23768,202.0927,-50.02361,-1.073105,0.08977751,-0.1064588,22.3447,-7.439705,-33.34067,1007.571
13.087139606,26.34303,210.9554,-47.75923,-1.194831,0.1551774,0.01791753,28.21481,-6.641323,-28.45812,1007.569
13.122205257,-0.236831,207.3866,-44.45446,-1.474959,0.347028,0.09700501,28.21481,-6.641323,-28.45812,1007.568
13.154766559,-33.46166,179.9658,-34.41776,-1.606499,0.2144411,0.4445906,33.00908,-6.931981,-21.77988,1007.568
13.187327385,-52.96586,177.2892,-12.63078,-1.527326,0.1831877,0.8085036,36.3685,-5.416314,-15.55622,1007.569
13.222393513,-117.3236,108.7671,-10.0604,-1.413373,-0.5615288,0.8448862,36.3685,-5.416314,-15.55622,1007.565
13.254954338,140.538,24.36369,-12.38598,-1.369441,-0.1938924,1.242955,37.83644,-4.284037,-10.34339,1007.563
13.287515640,46.33945,-56.23298,9.095007,-1.249179,0.3063712,1.02135,37.83323,-3.5435,-8.118255,1007.565
13.320076942,-74.68505,-99.17822,-9.081214,-1.430277,-0.06853364,-0.939454,37.83323,-3.5435,-8.118255,1007.565
13.355142593,-123.784,-96.68002,-8.836416,-1.23774,-0.07597859,0.4915253,37.83807,-4.281454,-9.897321,1007.565
13.387703895,-53.2735,-84.66487,-14.46676,-1.12011,-0.1264868,-0.2431249,35.55422,-3.59008,-13.33634,1007.565
13.420264721,-129.6291,-61.94316,-4.430059,-0.9028769,-0.4604664,-0.0304269,35.55422,-3.59008,-13.33634,1007.563
13.455331325,69.65836,-35.05777,-1.370089,-0.9935628,-0.1631427,-0.05045551,35.14956,-1.789171,-16.02464,1007.563
13.487892628,11.08422,-28.99072,-11.95759,-1.007113,0.02464652,0.08245092,34.39468,-0.7107811,-17.36831,1007.565
13.520453453,3.700926,-32.02424,-9.387211,-0.9793907,-0.2970072,-0.07039642,34.39468,-0.7107811,-17.36831,1007.565
13.555519581,9.915199,-31.96476,1.077887,-0.9728443,-0.261704,-0.01330905,34.40847,-1.807379,-18.25262,1007.565
13.588080406,20.74403,-31.19151,3.648261,-0.9895673,-0.1466279,0.06918667,33.30011,-1.456675,-19.14381,1007.559
13.620641708,10.53047,-27.50369,3.525862,-0.9533268,-0.1574746,0.09992232,33.30011,-1.456675,-19.14381,1007.559
13.655707359,11.39186,-22.38833,4.382654,-0.9550048,-0.1817734,0.09471946,33.30253,-1.825652,-20.03334,1007.559
13.688268661,16.37558,-21.07975,4.81105,-0.9654404,-0.162499,0.1013075,32.5647,-1.838694,-21.36918,1007.559
13.720829964,11.33033,-21.13923,5.667841,-0.9809003,-0.171011,0.1118268,32.5647,-1.838694,-21.36918,1007.561
13.753390789,15.94489,-22.15041,6.83063,-0.9766555,-0.1592876,0.1110348,32.57443,-2.568899,-21.81003,1007.561
13.788456917,16.191,-22.98314,8.605412,-0.9753844,-0.1855008,0.1077334,31.83986,-2.576775,-22.25372,1007.563
13.821017742,16.62169,-25.36238,11.78778,-0.9988131,-0.1780948,0.121887,31.83986,-2.576775,-22.25372,1007.563
13.853579044,28.25038,-30.71566,14.78655,-1.015002,-0.1704749,0.1099344,31.48148,-3.31221,-23.13946,1007.563
13.888644695,21.05167,-38.92403,15.70454,-1.052628,-0.150749,0.1528089,30.75423,-3.681314,-23.13447,1007.566
13.921205997,27.57358,-46.1807,15.52094,-1.069926,-0.1272012,0.1618856,30.75423,-3.681314,-23.13447,1007.568
13.953767300,28.7426,-55.75713,18.39732,-1.125096,-0.06778055,0.1894311,30.40154,-4.780559,-24.01759,1007.57
13.988832951,-40.84496,-75.38584,26.78163,-1.441264,-0.1020277,0.1877636,28.57729,-5.52658,-24.89857,1007.573
14.021394253,70.39669,-94.00338,19.25411,-1.396055,0.02885391,0.1790825,28.57729,-5.52658,-24.89857,1007.573
14.053955078,9.238398,-113.0373,19.9885,-1.344923,0.01762564,0.1232735,27.48513,-6.64145,-27.5636,1007.575
14.089021206,15.94489,-119.5802,21.02889,-1.259371,-0.1116096,0.03856184,24.92467,-7.397931,-29.33434,1007.572
14.121582031,45.04737,-119.8181,20.41689,-1.172646,-0.110148,-0.1398656,24.92467,-7.397931,-29.33434,1007.572
14.154143333,52.55373,-116.9035,16.92853,-0.7181617,-0.1605933,-0.1415573,22.3619,-8.220213,-31.9968,1007.572
14.186704635,-73.39297,-82.10719,15.88814,-0.3056394,-0.2648399,0.7666528,18.65069,-9.71528,-34.20463,1007.572
14.221770286,35.14145,35.90299,20.96769,-0.3803097,-0.5066402,-0.452657,15.35892,-10.47447,-35.52692,1007.574
14.254332065,62.15201,81.28695,2.669071,-0.4703001,-0.1863307,-0.07741668,15.35892,-10.47447,-35.52692,1007.574
14.286893368,65.84366,105.0793,-6.572038,-0.6154028,-0.1963208,-0.1131989,14.99408,-10.47453,-35.07966,1007.572
14.321959019,66.76657,140.2921,-30.6846,-0.7020573,-0.003187,0.02420999,16.85,-11.5424,-33.29348,1007.571
14.354520321,21.17472,161.2293,-44.39326,-0.9528719,0.112825,-0.02114893,16.85,-11.5424,-33.29348,1007.571
14.387081146,13.97601,170.6273,-60.9171,-1.081921,0.08505536,0.05057512,20.26292,-14.41571,-31.05313,1007.569
14.422147274,-34.81527,177.4082,-61.5903,-1.17189,0.2109661,0.1057543,25.03114,-14.00199,-28.39476,1007.567
14.454708099,-54.50405,176.6349,-59.99911,-1.340721,0.2246259,0.03845295,25.03114,-14.00199,-28.39476,1007.567
14.487269401,-83.91417,166.3447,-46.78004,-1.36032,0.3091972,0.1939593,30.88011,-12.49149,-26.19387,1007.565
14.522335052,-110.494,149.2142,-25.54385,-1.367752,0.198319,0.611846,37.51504,-9.496758,-19.99135,1007.565
14.554896355,-207.2152,118.7005,-10.4888,-1.234196,-0.2960579,0.6950496,37.51504,-9.496758,-19.99135,1007.565
14.587457657,-34.69221,68.32011,-18.19992,-1.424348,-0.7298099,0.7335697,42.26291,-6.816294,-13.33443,1007.561
14.622523308,-15.8648,-32.50009,-3.022473,-1.17622,0.02439882,1.034863,41.86031,-3.893695,-10.80515,1007.561
14.655084610,-10.88108,-67.77229,-1.24769,-1.025794,-0.29623,0.4768428,41.86031,-3.893695,-10.80515,1007.563
14.687645435,38.27935,-44.09887,-3.144872,-2.215615,0.8291294,-1.156538,40.37272,-2.82023,-12.08272,1007.563
14.720206737,-169.0682,-65.33356,-33.68337,-0.809515,-0.08830696,0.6881416,39.26944,-3.20711,-14.68925,1007.563
14.755272388,41.17115,-90.13712,-15.99675,-1.201271,-0.1447361,0.5392622,39.26944,-3.20711,-14.68925,1007.563
14.787833691,-82.8682,-52.36672,-26.03345,-0.77737,-0.03918986,-0.07584222,37.03647,-1.785828,-17.81507,1007.561
14.820394993,-6.143466,-33.86815,-7.490029,-0.9141682,-0.3868362,-0.1153338,37.01453,-0.7021446,-19.16112,1007.561
14.855460644,12.74546,-21.5556,-11.40679,-0.9791679,-0.01243534,-0.01868417,37.01453,-0.7021446,-19.16112,1007.559
14.888021946,-5.651247,-17.92726,-19.54631,-0.9868305,-0.05361898,0.03773338,35.09348,0.7316737,-20.50363,1007.559
14.920582771,-9.281367,-16.26179,-17.03714,-0.9883913,-0.1802772,-0.008668127,35.50399,1.826194,-20.51286,1007.559
14.955648899,2.039685,-21.19871,-5.776446,-0.9788404,-0.2975922,-0.04720379,35.50399,1.826194,-20.51286,1007.555
14.988209724,12.56088,-21.61508,0.5270919,-0.9863064,-0.1007104,0.02783027,35.07155,1.815358,-21.84968,1007.555
15.020771027,4.070091,-21.31767,0.8942884,-0.9700618,-0.1554611,0.03713021,34.70018,1.804962,-23.18671,1007.559
15.055836678,4.500783,-20.3065,2.79147,-0.9605209,-0.1767952,0.05323033,34.70018,1.804962,-23.18671,1007.559
15.088397980,11.08422,-19.59273,3.70946,-0.9871889,-0.143164,0.06246994,33.96887,1.802251,-22.73826,1007.557
15.120959759,10.03825,-20.12805,4.566252,-0.9734462,-0.1493668,0.07637998,33.59588,1.789273,-24.52136,1007.559
15.153521061,9.115342,-22.03144,6.035038,-0.9833238,-0.1359235,0.08432863,33.59588,1.789273,-24.52136,1007.561
15.188586712,11.02269,-24.52964,10.0742,-0.9883519,-0.1656052,0.07759675,32.87025,1.422751,-24.0703,1007.563
15.221148014,12.93004,-28.93123,14.41935,-1.004767,-0.1371219,0.07273,32.87672,0.6873803,-25.40329,1007.563
15.253708839,16.00642,-38.15078,17.41813,-1.015643,-0.1250721,0.06374018,32.87672,0.6873803,-25.40329,1007.565
15.288774967,14.22212,-48.02461,20.90649,-1.030009,-0.1380721,0.1022259,31.77568,0.6768565,-25.8458,1007.566
15.321335792,33.60327,-56.29247,26.10844,-1.274983,-0.01056376,0.1102081,31.41241,-0.06632566,-28.06975,1007.568
15.353897095,-75.48491,-83.59422,39.8171,-1.384724,-0.00310544,0.07949173,31.41241,-0.06632566,-28.06975,1007.564
15.388962746,37.78714,-106.9702,32.77917,-1.538408,0.1531726,0.1144105,29.95868,-1.176094,-29.39537,1007.564
15.421524048,-32.23111,-128.6213,37.49153,-1.50723,-0.04170083,-0.01330383,27.75007,-1.207472,-32.06467,1007.567
15.454085350,-16.9723,-139.9821,42.26508,-1.114345,0.04103702,0.1248583,27.75007,-1.207472,-32.06467,1007.569
15.489151001,-41.76787,-116.5467,46.67144,-0.7370687,0.07510778,0.02060451,24.802,-1.254477,-36.51588,1007.571
15.521712303,-75.05421,-69.9136,63.80727,-0.1519425,0.3495556,0.02132657,20.39378,-0.9301758,-37.84245,1007.571
15.554273128,-169.3758,28.52735,62.52208,-0.3805586,-0.02695899,-0.6618913,20.39378,-0.9301758,-37.84245,1007.571
15.586834431,-112.2783,105.3767,75.00676,-0.4300682,-0.2373085,-0.3991955,16.64302,0.1218019,-40.00483,1007.571
15.621900082,-93.45093,134.8793,82.84029,-0.6447872,0.01687708,-0.1611559,16.96707,3.039732,-39.19849,1007.569
15.654461384,-115.5393,168.3076,81.73869,-0.9434775,0.2157267,-0.07130941,16.96707,3.039732,-39.19849,1007.569
15.687022686,-208.9995,179.7279,75.98595,-1.216043,0.3169445,0.08034471,20.28099,6.720181,-36.11299,1007.563
15.722088337,-345.5905,156.3519,63.25647,-1.528436,0.2901028,0.06428529,26.86279,8.670759,-32.13323,1007.563
15.754649639,-492.518,99.13123,55.05576,-1.505811,0.1602528,-0.06532908,26.86279,8.670759,-32.13323,1007.563
15.787210464,-569.4889,41.91057,49.9762,-1.47815,-0.5042377,-0.2818954,31.94646,13.85282,-23.26499,1007.563
15.822276592,-538.1714,-34.10608,9.462203,-1.268907,-1.790391,-0.5018374,37.08348,20.14152,-11.8558,1007.563
15.854837418,-189.2492,9.077088,5.239446,-1.144355,-2.446352,-0.2886451,37.08348,20.14152,-11.8558,1007.565
15.887398720,146.5677,13.65712,-24.31986,-0.6992626,-0.5248932,0.07812019,38.53901,23.49098,-0.7322569,1007.565
15.922464371,46.27792,18.713,-20.4643,-0.8637363,-0.7015188,0.290687,38.9209,22.39961,-1.171684,1007.563
15.987586975,6.531189,24.48265,-22.78988,-1.311458,0.6809547,0.2368038,38.54711,22.75819,-1.619178,1007.567
16.020147800,-33.40013,18.35611,-36.19255,-1.015352,-0.2002208,0.02440663,38.16765,23.48059,-2.069283,1007.567
16.055213928,-55.24238,12.64594,-23.83027,-0.9792902,-0.365568,0.0431178,37.80039,23.8495,-0.7324905,1007.561
16.087774754,1.239828,11.39684,-12.20238,-1.01972,-0.06920185,0.05686246,37.80039,23.8495,-0.7324905,1007.561
16.120336056,-35.86123,3.664322,-17.89393,-1.016984,-0.003245175,0.09556947,37.79392,24.58487,0.600503,1007.561
16.155402660,-55.7346,-5.436262,-11.83519,-0.968491,-0.2468496,0.04540197,37.42408,25.01184,1.490789,1007.561
16.187963486,-47.18228,-14.83425,-2.471678,-0.979991,-0.1689777,0.09493879,37.42408,25.01184,1.490789,1007.561
16.220524788,-39.12218,-16.5592,-1.064092,-1.029281,-0.03974577,0.07133901,37.77919,25.7421,1.484379,1007.563
16.255590439,-46.38243,-16.61868,-0.08490203,-0.9583527,-0.1828798,0.1145243,36.32225,25.37287,2.383889,1007.563
16.288151741,-27.43197,-12.57397,3.158666,-0.9836949,-0.1356658,0.133154,36.32225,25.37287,2.383889,1007.564
16.320713043,-14.44967,-10.07577,3.587062,-0.9811936,-0.1006159,0.1278858,37.41356,26.1136,3.267243,1007.564
16.355778694,-20.04867,-8.291346,3.648261,-0.9665551,-0.1441812,0.131074,37.41762,25.7472,2.823783,1007.564
16.388339996,-11.68094,-8.588751,5.667841,-0.9798332,-0.1388824,0.1036152,37.41762,25.7472,2.823783,1007.566
16.420900822,-18.07979,-8.172384,6.769431,-0.9721985,-0.1156659,0.1498828,37.78735,25.75502,3.714739,1007.566
16.453462124,-12.0501,-7.22069,8.727811,-0.964085,-0.1451652,0.1407242,37.06672,24.96147,3.722774,1007.566
16.488527775,-10.26581,-8.350827,13.37896,-0.9722111,-0.1645755,0.1109499,37.06672,24.96147,3.722774,1007.564
16.521089077,-3.251676,-9.778369,17.72412,-0.9798983,-0.1283,0.1274622,37.80613,24.23139,2.387403,1007.566
16.553650379,-4.420698,-11.02747,21.21249,-0.9771109,-0.1123214,0.1484885,37.07482,24.22868,2.835852,1007.566
16.588716030,-1.9596,-9.183559,25.68004,-0.966704,-0.1253604,0.1598805,37.07482,24.22868,2.835852,1007.566
16.621277332,1.547465,-7.815499,26.59803,-0.9662888,-0.07486368,0.1717682,38.18396,23.50641,2.391436,1007.562
16.653838158,6.838827,-7.458613,26.41444,-1.00005,-0.07024933,0.129334,38.92663,22.7815,1.948208,1007.562
16.688904285,9.238398,-10.49214,26.47564,-1.021991,-0.02012383,0.1586392,38.92663,22.7815,1.948208,1007.56
16.721465111,9.607562,-12.15761,26.78163,-1.037879,0.009243111,0.1745706,38.93636,22.0513,1.507359,1007.56
16.754026413,-7.189434,-14.061,26.59803,-1.050253,0.02847458,0.1850269,40.05445,20.97039,1.957697,1007.56
16.821653366,-24.29407,-20.48494,22.43648,-1.050856,0.03153533,0.1517211,40.42902,20.24025,1.069588,1007.56
16.854214668,-27.18586,-22.20989,21.27369,-0.9997731,0.08930393,0.2057246,40.43065,20.24283,1.515659,1007.56
16.886775494,-27.55502,-26.13563,23.29327,-1.016179,0.08072869,0.2273616,40.43065,20.24283,1.515659,1007.56
16.921841621,-27.24739,-33.68971,25.86364,-1.038641,0.03352123,0.1773586,40.44281,19.14365,0.185277,1007.56
16.954402447,-36.9072,-35.35518,28.86241,-1.032419,0.006270039,0.2025558,40.82064,18.41868,0.1893101,1007.56
16.986963749,-51.05851,-40.17313,32.35078,-0.7358523,0.02437369,0.2774692,40.82064,18.41868,0.1893101,1007.562
17.022029400,-34.50763,-34.46296,30.0252,-0.8731076,0.2157647,0.2268668,40.82874,17.68589,-0.6976118,1007.562
17.054590702,-109.4481,-12.33605,37.61393,-0.7052249,0.329764,0.1148504,41.58278,16.23336,-1.135616,1007.562
17.087152004,-288.3084,28.7058,31.55519,-0.7973241,-0.171103,-0.3006722,41.58278,16.23336,-1.135616,1007.562
17.122217655,-133.5053,54.04468,25.74124,-0.7649598,-0.3596928,-0.3113146,41.5974,15.5109,-0.2382498,1007.562
17.154778957,-172.2676,80.27577,20.53929,-0.7572173,-0.3224045,-0.1536558,41.62912,14.44272,3.784231,1007.56
17.187339783,-143.7804,107.9939,5.851439,-0.9272085,-0.4580141,-0.2106656,41.62912,14.44272,3.784231,1007.558
17.222405910,-121.8766,114.0015,-21.74949,-0.9517796,-0.360002,-0.03271399,41.29195,13.74086,8.697433,1007.554
17.254967689,-151.779,111.6817,-43.72007,-1.099675,-0.2244183,0.08019055,40.98645,11.22512,14.51583,1007.554
17.287528515,-58.62639,-103.8772,1.077887,-3.107284,0.7215819,3.552222,40.98645,11.22512,14.51583,1007.554
17.320089817,-58.68792,13.89504,3.831859,-0.3621388,-1.404959,-0.6843825,39.16939,11.6089,20.25438,1007.556
17.355155468,-21.34075,14.13297,-25.11546,-1.19441,1.038047,0.81059,38.45512,10.51476,20.71066,1007.554
17.387716770,3.947036,11.51581,-7.061633,-1.049078,-0.8935674,-0.5396052,38.45512,10.51476,20.71066,1007.552
17.420278072,-10.08122,-9.005117,5.79024,-0.9319,-0.0788324,0.07499909,37.70374,11.59869,20.32286,1007.552
17.455343723,32.37272,-13.52567,7.687421,-0.978717,-0.06789883,0.1013134,38.44781,10.87599,20.26198,1007.554
17.487905025,-11.86552,-8.767193,0.3434937,-0.9621793,0.07819698,0.1910176,38.44781,10.87599,20.26198,1007.556
17.520465851,5.177586,-5.495743,-1.859684,-0.9713595,-0.1111262,0.1161149,38.0724,11.23199,19.36841,1007.559
17.555531979,1.239828,-3.711314,0.9554878,-0.9568162,-0.1454812,0.1242775,38.80697,11.23986,19.81211,1007.561
17.588092804,10.65353,-1.034672,0.4046931,-0.9799883,-0.03740475,0.124982,38.80697,11.23986,19.81211,1007.561
17.620654106,3.947036,-2.462215,-0.5744972,-0.9814734,-0.07537282,0.1335883,38.07077,11.2294,18.92234,1007.561
17.655719757,1.732048,-0.9751912,0.6494907,-0.9689576,-0.1039003,0.137008,38.0724,11.23199,19.36841,1007.561
17.688281059,11.76102,-0.6777865,1.200285,-1.012037,-0.09215092,0.1019423,38.42992,11.59328,18.47247,1007.561
17.720842361,6.838827,-3.770795,3.464663,-0.9926908,-0.1215657,0.1063087,38.42992,11.59328,18.47247,1007.563
17.753403187,10.77658,-7.458613,8.115817,-1.024859,-0.1219299,0.09424975,38.43156,11.59586,18.91854,1007.563
17.788469315,8.069375,-16.49972,12.15498,-1.050201,-0.1250766,0.07247424,38.80371,11.2347,18.91996,1007.563
17.821030140,5.669805,-24.70809,16.31654,-1.073484,-0.08850308,0.08562249,38.80371,11.2347,18.91996,1007.564
17.853591442,23.5743,-41.1843,20.0497,-1.214123,-0.06344419,0.05037066,39.16552,11.22996,17.64428,1007.566
17.888657093,16.8678,-62.89485,13.01177,-1.377532,-0.09829209,-0.02202642,39.16607,10.85804,16.24495,1007.568
17.921218395,30.40384,-85.67605,9.584602,-1.378233,-0.06746836,0.03741649,39.16607,10.85804,16.24495,1007.565
17.953779697,20.37487,-89.89919,7.259026,-1.137368,-0.0169813,-0.006999789,40.99051,10.85872,14.07237,1007.565
17.988845348,-15.55717,-48.26254,2.607871,-0.5152162,0.1228987,-0.4443724,41.33825,11.20452,10.5,1007.57
18.021406651,-47.42839,21.56808,0.09869616,-0.5400638,-0.1866912,-0.72798,41.33825,11.20452,10.5,1007.571
18.053967476,22.40527,75.21989,-3.083673,-0.6049275,-0.05952404,-0.5572788,41.70551,10.83561,9.163206,1007.567
18.089033604,23.45124,110.4326,-9.326012,-0.8611819,0.03670582,-0.3312765,41.35287,10.48206,11.39737,1007.567
18.121594429,-3.743896,128.8717,-13.36517,-1.054006,0.03708987,-0.1150151,41.35287,10.48206,11.39737,1007.567
18.154155731,-24.41712,138.1507,-17.03714,-1.144558,-0.006821685,0.08887076,39.88704,11.21718,14.5194,1007.565
18.186717033,-67.05565,132.2621,-21.87189,-1.222747,-0.007749275,0.1749732,37.70266,11.22417,18.47746,1007.564
18.221782684,-106.0641,117.6893,-25.84985,-1.208015,-0.1274719,0.2524062,37.70266,11.22417,18.47746,1007.564
18.254343986,-88.52873,89.79272,-17.83273,-1.138695,-0.1210698,0.7498317,35.45907,11.23368,22.9455,1007.562
18.286904812,-49.82796,78.72927,-3.144872,-1.097845,-0.1474941,0.7991771,32.91735,10.13406,24.74595,1007.562
18.321970939,-75.85407,5.567712,-2.961274,-1.107474,-0.5772195,0.7906967,32.91735,10.13406,24.74595,1007.564
18.354531765,40.43282,-49.80904,-6.082443,-0.9219419,-0.1402377,0.6705397,32.22191,8.26199,26.99218,1007.562
18.387093067,16.62169,-44.75316,-17.03714,-1.851214,-0.09323366,-1.51996,31.87411,7.170493,27.44727,1007.56
18.422158718,-9.158313,-56.88727,-27.01264,-1.19586,0.1449134,0.3459748,31.87411,7.170493,27.44727,1007.56
18.454720020,30.0962,-72.59024,-12.32478,-1.108054,-0.3550248,-0.1847509,32.95969,7.529329,25.21074,1007.56
18.487281322,-78.25365,-45.22901,-26.70664,-1.01247,0.04788296,0.1935039,33.67475,8.251911,23.41885,1007.56
18.522346973,-40.7219,-37.02064,-5.715247,-0.9789783,-0.3871201,-0.1317103,33.67475,8.251911,23.41885,1007.56
18.554908276,-3.436259,-32.50009,-8.224422,-0.953791,-0.04021269,0.06980889,34.76522,8.618496,22.52052,1007.558
18.587469101,4.931476,-18.81947,-16.91474,-0.9735267,-0.06609875,0.04139715,35.9265,8.255318,21.18116,1007.558
18.620030403,-7.927763,-13.58515,-20.2807,-0.9758742,-0.1123685,0.05616157,35.9265,8.255318,21.18116,1007.558
18.655096054,-4.482225,-13.76359,-13.67117,-0.9758308,-0.2568676,-0.01661602,35.93055,7.888924,20.73769,1007.554
18.687657356,9.422979,-14.3584,-7.490029,-0.9842875,-0.1910702,0.02499963,35.92891,7.886342,20.29162,1007.554
18.720218658,-0.4829409,-13.88255,-4.001663,-0.9667695,-0.1846369,0.04973309,35.92891,7.886342,20.29162,1007.553
18.755284786,1.301355,-14.12048,-0.2073008,-0.987686,-0.1949382,0.01092597,36.63655,9.404928,19.83229,1007.553
18.787846088,3.331762,-18.1057,1.261485,-0.9659532,-0.1662629,0.07273133,36.6406,9.038536,19.38883,1007.553
18.820407391,3.947036,-17.8083,2.607871,-0.9638419,-0.1803289,0.0725147,36.6406,9.038536,19.38883,1007.554
18.855473042,7.269519,-17.86778,3.954258,-0.9876651,-0.1883179,0.05114723,36.99976,9.402411,18.93896,1007.556
18.888034344,7.084937,-22.03144,6.157436,-0.9845274,-0.1563881,0.09223498,37.37528,8.611635,18.05129,1007.558
18.920595169,4.685366,-22.03144,7.626222,-0.9642816,-0.1737633,0.1233699,37.37528,8.611635,18.05129,1007.561
18.955661297,12.00713,-22.44781,9.339805,-0.9867555,-0.1739191,0.09341981,38.09265,9.400019,17.15111,1007.563
18.988222122,16.12947,-23.75639,9.095007,-0.97084,-0.1486972,0.149861,37.73186,9.033562,17.15491,1007.563
19.020783424,24.80484,-23.28054,10.50259,-0.982797,-0.1749346,0.1141857,37.73186,9.033562,17.15491,1007.565
19.055849075,23.63582,-32.20268,14.35816,-1.018324,-0.1849471,0.07684722,38.46653,8.606661,15.81736,1007.567
19.088410378,31.75744,-44.39627,19.31531,-1.022235,-0.1740308,0.1229383,38.45827,9.028524,15.36824,1007.57
19.120971679,34.77229,-52.24776,23.96646,-1.032363,-0.1230316,0.2073504,38.45827,9.028524,15.36824,1007.573
19.153532505,30.03468,-55.75713,23.35447,-1.226401,-0.1008741,0.2291443,39.18969,8.596457,13.13855,1007.573
19.188598633,-2.451819,-71.04374,20.84529,-1.185892,-0.3081375,0.07416276,40.28687,8.228039,10.97096,1007.575
19.221159458,71.44266,-91.32674,18.88691,-1.456516,0.2234672,0.2802354,40.28687,8.228039,10.97096,1007.573
19.253720760,12.25324,-109.171,20.60049,-1.385298,0.05549178,0.1238902,40.65491,7.487566,8.298563,1007.575
19.288786411,-16.11092,-121.8999,28.00562,-1.298325,0.03562905,0.1452551,41.36912,7.836007,4.724998,1007.575
19.321347713,-22.94046,-127.4911,20.60049,-1.086789,-0.3985732,-0.06024124,41.36912,7.836007,4.724998,1007.575
19.353909016,87.31674,-115.0002,13.86856,-0.7878564,-0.1015169,-0.08016662,42.09306,7.454243,0.7105846,1007.575
19.388974666,-25.46309,-86.50878,12.58337,-0.3087676,-0.2474344,0.5653532,41.73301,5.970522,-3.738502,1007.573
19.421535492,49.78499,23.05511,17.35693,-0.3111845,-0.2286406,0.06293029,41.35512,5.949795,-6.859816,1007.571
19.454096794,25.78928,61.00394,6.218636,-0.4833046,-0.2893848,-0.1103958,41.35512,5.949795,-6.859816,1007.571
19.489162445,63.19798,86.1049,-14.65036,-0.4578947,-0.1343335,0.06547742,40.25329,6.310833,-5.966717,1007.571
19.521723747,50.76943,128.8122,-28.11423,-0.6902264,0.1938035,0.02430368,40.99034,6.695435,-3.295274,1007.569
19.554285049,-0.4214134,159.6234,-37.60013,-0.8389594,0.2441013,0.1856957,40.99034,6.695435,-3.295274,1007.564
19.586845875,-42.93689,168.3671,-37.41653,-1.171344,0.134404,0.1635577,40.25993,7.812568,2.052134,1007.562
19.621912002,-41.70634,163.7275,-41.3333,-1.312082,-0.01034876,0.2760455,38.78831,9.346272,6.952801,1007.562
19.654472828,-32.78486,149.0358,-41.1497,-1.311947,0.1689641,0.3885076,38.78831,9.346272,6.952801,1007.562
19.687034130,-49.88949,141.2437,-33.86697,-1.236549,0.1729451,0.3706106,36.58633,10.81663,12.30235,1007.562
19.722099781,-79.66878,124.8865,-26.52304,-1.214698,0.0004415836,0.31962,33.57408,13.00113,16.31104,1007.561
19.754661083,-74.43894,106.8043,-24.80946,-1.195048,-0.1748969,0.3507624,33.57408,13.00113,16.31104,1007.561
19.787222385,-30.38528,93.00469,-23.03468,-1.093328,-0.2703351,0.4671521,31.39617,12.27275,18.9361,1007.561
19.822288036,-5.0975,47.62074,-16.42514,-1.148631,-0.1379599,0.5891026,29.92708,13.0027,21.16599,1007.561
19.854849338,18.34446,-3.235467,-8.714018,-1.101965,-0.07067309,0.674675,29.92708,13.0027,21.16599,1007.561
19.887410164,10.46895,-47.19188,8.115817,-1.137872,0.2316224,0.5739454,29.9417,12.28025,22.06336,1007.561
19.922476292,-78.25365,-68.90242,-21.44349,-1.225936,0.03237502,-0.7423442,29.9214,13.36651,21.16338,1007.564
19.955037117,-23.80185,-70.03256,-7.918425,-1.093622,-0.04415996,0.4275825,29.9214,13.36651,21.16338,1007.564
19.987598419,-29.64696,-56.23298,-15.26235,-1.002007,-0.2441662,-0.1053383,31.37508,13.73058,19.37173,1007.564
20.020159721,-31.55431,-35.41465,-14.40556,-0.8904707,-0.1424606,0.1841983,32.46391,14.09458,18.02734,1007.564
20.055225372,-4.60528,-24.94601,-0.6356966,-1.018972,-0.1917938,-0.02186549,32.46391,14.09458,18.02734,1007.562
20.087786675,-16.23397,-26.43303,-7.673627,-0.978088,-0.05917076,0.001386977,32.84012,13.36703,17.5853,1007.56
20.120347500,-19.37187,-19.17636,-12.32478,-0.9905261,-0.1186627,0.009192136,33.57306,13.37232,17.58292,1007.562
20.155413627,-24.29407,-26.37355,-8.46922,-1.000744,-0.2000281,0.02391209,33.57306,13.37232,17.58292,1007.562
20.187974453,2.593432,-31.48891,2.546672,-0.9680017,-0.2558843,0.003209876,33.56412,13.73096,16.68817,1007.562
20.220535755,33.54174,-26.37355,5.055847,-0.9726169,-0.09635282,0.0704207,34.30353,13.00089,15.35279,1007.56
20.255601406,14.22212,-21.73404,3.158666,-0.9683679,-0.1231061,0.08741,34.30353,13.00089,15.35279,1007.564
20.288162708,9.053815,-20.06857,3.158666,-0.9633376,-0.1328487,0.1065916,33.57324,12.62699,14.52936,1007.56
20.320724010,11.2688,-19.53325,5.239446,-0.9719108,-0.1523379,0.09276798,34.6651,12.99578,14.01339,1007.562
20.355789661,7.454102,-21.853,7.197826,-0.9861647,-0.1403897,0.09634766,34.6651,12.99578,14.01339,1007.562
20.388350963,10.89964,-22.62625,9.584602,-0.9691412,-0.1329975,0.1225464,35.39338,12.9937,12.73652,1007.563
20.420911789,12.49935,-21.49612,11.35938,-0.9616289,-0.1485019,0.1334202,35.01392,13.71609,12.28642,1007.563
20.453473091,21.42083,-23.34002,15.27615,-1.004593,-0.1431462,0.1151751,35.01392,13.71609,12.28642,1007.567
20.488538742,25.29706,-31.78632,20.1721,-1.022092,-0.1496147,0.09817509,36.17278,13.72189,11.83658,1007.569
20.521100044,40.49434,-40.70846,23.59926,-1.027806,-0.06347647,0.1633005,36.55304,12.62794,10.95108,1007.569
20.553661346,28.92718,-43.20666,25.06805,-1.092161,-0.04895234,0.2046712,36.55304,12.62794,10.95108,1007.569
20.588726997,-21.70991,-55.75713,30.3924,-1.325975,-0.1886633,0.1186579,36.9154,12.25127,8.276072,1007.572
20.621288299,45.04737,-71.69803,27.94442,-1.460254,0.05445238,0.1374812,38.01155,12.25405,7.38036,1007.574
20.653849125,14.4067,-91.86207,28.12802,-1.377028,0.09979085,0.1318087,38.01155,12.25405,7.38036,1007.572
20.688915253,-12.54232,-105.7211,31.00439,-1.202912,0.04263199,0.1612213,38.38854,11.15493,5.602718,1007.572
20.721476078,-21.64839,-107.9814,28.06682,-1.074742,-0.1886607,0.09037957,40.21921,10.41988,2.03342,1007.566
20.754037380,4.131618,-108.1598,21.51848,-0.9660811,-0.2553335,-0.005484357,40.21921,10.41988,2.03342,1007.57
20.789103985,-9.035257,-85.08124,6.83063,-0.5982505,-0.2612903,0.2198067,40.22726,8.941389,-1.970782,1007.57
20.821664810,67.56643,-40.41105,9.584602,-0.4944717,-0.3271082,-0.07664084,40.6003,7.773887,-5.086206,1007.565
20.854225635,1.116773,33.40479,5.361844,-0.4582055,0.0405618,-0.02611249,40.6003,7.773887,-5.086206,1007.565
20.886786461,18.83668,74.2682,-10.0604,-0.5077017,-0.2934159,-0.1486206,40.97324,7.041164,-6.420389,1007.565
20.921853065,26.46609,104.0681,-25.23785,-0.6089907,-0.185924,-0.03038906,41.35028,6.687749,-5.08075,1007.563
20.954414368,38.52546,139.043,-38.21213,-0.8355503,-0.1050414,-0.08307461,41.35028,6.687749,-5.08075,1007.561
20.986975193,43.87835,146.8349,-53.08358,-1.071069,0.0725746,0.04747397,41.72412,7.07487,-1.515975,1007.559
21.022041321,14.16059,150.9986,-57.97953,-1.223601,0.1824624,0.1334053,41.36828,7.461864,2.943322,1007.559
21.054602146,-4.789863,153.1399,-61.5903,-1.278171,0.1466693,0.1527303,41.36828,7.461864,2.943322,1007.557
21.087163448,-31.985,145.11,-58.16313,-1.307302,0.2662962,0.1613508,40.25746,9.362024,7.840189,1007.557
21.122229099,-76.10018,130.7751,-46.22925,-1.30528,0.2975206,0.14104,39.88783,10.84562,13.1838,1007.556
21.154790401,-117.139,115.7264,-29.64421,-1.168579,0.1500028,0.3735786,36.94131,13.03793,18.46678,1007.556
21.187351703,-116.6468,109.4809,-19.30151,-1.188151,-0.08232066,0.4256414,36.94131,13.03793,18.46678,1007.556
21.222417354,-65.39441,68.91492,-16.24154,-1.180955,-0.3698043,0.6063818,34.34993,11.95595,23.38992,1007.556
21.254978657,4.746893,3.961727,-6.939234,-1.13984,-0.1364113,0.8066372,32.18361,10.50032,26.08393,1007.556
21.287539482,6.777299,-36.66375,-3.450869,-0.9815167,-0.2043274,0.6991054,32.18361,10.50032,26.08393,1007.554
21.320100784,52.30761,-58.55274,19.13171,-1.543551,0.5996528,0.1366952,31.44904,10.49244,25.64024,1007.554
21.355166435,-101.6341,-90.7914,-11.59039,-0.9107303,0.02221279,0.2515026,31.80736,10.48218,23.40869,1007.554
21.387727737,-38.01469,-70.15152,-18.26112,-0.9622178,-0.5140437,0.1442788,31.80736,10.48218,23.40869,1007.552
21.420289039,-48.84352,-61.11042,-17.52673,-0.9226119,0.1986466,0.2155357,34.0167,9.396294,21.6251,1007.552
21.455354690,-40.29121,-45.40745,-1.24769,-0.8821773,-0.5903835,-0.1508563,34.74475,9.393837,20.28451,1007.551
21.487915993,39.9406,-28.3959,-5.40925,-0.9912756,0.0366937,0.04394928,34.74475,9.393837,20.28451,1007.551
21.520476818,8.500068,-22.86418,-12.93678,-0.988658,-0.06765662,0.02011941,35.91834,8.242403,18.9508,1007.551
21.555542946,-0.3598859,-21.67456,-12.63078,-0.986808,-0.1823842,0.03141847,36.25788,9.755762,18.04658,1007.554
21.588103771,0.2553886,-21.5556,-3.450869,-0.9681863,-0.2787966,0.01784518,36.25788,9.755762,18.04658,1007.554
21.620665073,21.23625,-17.86778,0.7106901,-0.9738566,-0.1138976,0.07740488,36.98942,9.758841,17.66186,1007.554
21.655730724,4.623838,-15.72646,-0.02370263,-0.9628381,-0.1366703,0.09348162,37.35239,9.755953,16.7048,1007.554
21.688292026,2.224267,-14.29892,1.139086,-0.9725643,-0.1828991,0.07828442,37.35239,9.755953,16.7048,1007.556
21.720853329,13.97601,-15.6075,2.79147,-0.9859295,-0.1674533,0.06354829,37.34369,10.11497,15.87377,1007.556
21.788480282,13.36074,-25.36238,8.605412,-0.980594,-0.1602113,0.0892726,37.34773,9.748573,15.43031,1007.557
21.821041107,11.33033,-26.13563,11.48178,-0.9693506,-0.1582425,0.1158775,37.70526,10.10987,14.53437,1007.561
21.853602409,15.14503,-27.02784,14.17456,-0.9886841,-0.164943,0.1443132,38.06116,10.46857,13.19235,1007.558
21.888668060,23.08208,-32.44061,17.78532,-1.005924,-0.1548183,0.1130648,38.06116,10.46857,13.19235,1007.558
21.921229362,35.51062,-38.56714,21.39609,-1.022803,-0.1235292,0.13096,38.43005,10.10225,12.30163,1007.561
21.953790665,32.74188,-42.49289,22.62007,-1.029163,-0.06416163,0.2029283,38.80299,9.369518,10.96745,1007.563
21.988856316,34.15702,-49.6306,28.31162,-1.384276,0.03311796,0.236658,38.80299,9.369518,10.96745,1007.565
22.021417618,-4.297643,-64.50083,25.80244,-1.384189,-0.3437568,0.07091047,40.26235,9.369774,9.178406,1007.567
22.053978443,28.98871,-85.85449,25.49644,-1.436738,0.09867358,0.2058059,40.27787,7.840981,6.958925,1007.567
22.089044571,32.74188,-103.2824,22.92607,-1.259166,0.01674022,0.1362284,40.27787,7.840981,6.958925,1007.567
22.121605396,-4.236115,-107.5056,26.59803,-1.152353,0.04772488,0.1481991,41.73801,7.469676,3.834278,1007.567
22.154166698,-2.451819,-107.9219,22.00808,-1.02463,-0.1504095,0.05224463,42.10848,6.360228,0.2723465,1007.567
22.186728000,37.54103,-101.5575,13.56256,-0.8583826,-0.2108581,0.03472713,42.10848,6.360228,0.2723465,1007.567
22.221793651,-28.23182,-80.62017,5.79024,-0.5061904,-0.3759681,0.4770583,42.84378,5.250842,-3.736845,1007.567
22.254354954,79.19511,-1.867405,6.096237,-0.4058266,-0.1939932,-0.2371102,42.474,4.497326,-7.745082,1007.565
22.286915779,17.9753,47.56126,1.139086,-0.5234922,-0.222428,-0.09386748,42.474,4.497326,-7.745082,1007.565
22.321981907,56.73759,86.75919,-7.796026,-0.6581861,-0.1257725,-0.1454343,42.84047,4.499973,-7.746271,1007.565
22.354542732,30.77301,108.1723,-27.44103,-0.7030123,-0.1333853,0.009656769,43.95371,4.157017,-5.516866,1007.563
22.387104034,30.71148,135.593,-41.3945,-0.889751,-0.04132058,-0.03661273,43.95371,4.157017,-5.516866,1007.563
22.422169685,12.31477,147.9056,-55.34796,-1.060032,0.04976888,0.07080085,44.6997,4.182975,-1.950667,1007.561
22.454730987,-1.528908,149.9874,-62.99788,-1.187031,0.08973911,0.1082699,46.17301,5.32374,4.727823,1007.561
22.487292290,-27.86266,149.3926,-64.16067,-1.25336,0.1460851,0.1386795,46.17301,5.32374,4.727823,1007.561
22.522357941,-46.81312,149.2142,-57.67353,-1.251895,0.1499013,0.1585548,45.7945,7.911679,12.29396,1007.561
22.554919243,-62.81026,139.7567,-49.10562,-1.3176,0.1328133,0.09455174,43.22003,10.17761,19.3596,1007.561
22.587480068,-85.39083,125.8382,-37.90613,-1.254367,0.09107308,0.262069,43.22003,10.17761,19.3596,1007.561
22.620041370,-104.5874,100.0234,-29.52181,-1.230343,-0.01808435,0.605995,38.08792,11.62938,25.16474,1007.561
22.655107021,-78.25365,70.28297,-15.62955,-1.221499,-0.2009474,0.7636777,33.65524,10.8928,29.19907,1007.563
22.687668323,-51.67379,-10.13525,-7.918425,-1.17725,-0.09240126,0.853749,33.65524,10.8928,29.19907,1007.561
22.720229626,-45.15188,-49.98748,-0.5132978,-0.9824381,-0.1417662,0.6198202,30.01331,10.15679,32.33868,1007.561
22.755295277,-67.67092,-98.64289,1.567482,-1.804183,0.5000862,0.2292029,28.55958,9.047026,31.01305,1007.561
22.787856579,-127.8448,-60.99146,-18.19992,-1.090325,-0.2638978,0.1313005,30.39771,8.261671,29.22848,1007.561
22.820417404,28.86566,-64.38187,-16.24154,-1.1473,-0.01194304,0.1380997,30.39771,8.261671,29.22848,1007.561
22.855483532,-69.6398,-51.23658,-11.59039,-0.8246428,-0.1398663,0.2296118,31.89279,6.081644,27.90118,1007.561
22.888044357,-11.18872,-35.71206,0.4046931,-0.8850461,-0.3344962,-0.1058626,34.08751,5.718215,25.22022,1007.56
22.920605659,22.58986,-20.54442,-8.224422,-0.9808324,0.01027126,0.006316074,34.08751,5.718215,25.22022,1007.56
22.955671310,3.700926,-19.3548,-13.54877,-0.9752929,-0.1253763,0.03276047,34.09887,4.990594,25.22544,1007.56
22.988232613,-2.082655,-19.23584,-7.245232,-0.9940655,-0.1935037,-0.002097164,35.17635,6.082217,23.87583,1007.561
23.020793915,10.71506,-20.18754,1.445083,-1.002003,-0.2213436,0.00521979,35.17635,6.082217,23.87583,1007.557
23.053354740,19.75959,-21.31767,3.954258,-1.0037,-0.1064203,0.05772931,35.96143,6.446597,22.9785,1007.559
23.088420868,5.79286,-21.07975,4.994648,-0.9552166,-0.17235,0.05280965,35.53224,6.440926,22.53381,1007.559
23.120981693,11.45339,-19.47376,6.341034,-0.9642438,-0.1448751,0.076923,35.53224,6.440926,22.53381,1007.559
23.153542995,10.34589,-18.16518,6.647032,-0.9742572,-0.118818,0.08941462,36.323,6.441495,21.6391,1007.561
23.188608646,11.08422,-18.99792,6.708231,-0.9869478,-0.1175011,0.08412981,37.05268,6.441622,20.74457,1007.563
23.221169948,9.607562,-22.03144,7.748621,-0.9947314,-0.115714,0.09624901,37.05268,6.441622,20.74457,1007.564
23.253731251,13.54532,-26.25459,11.17579,-0.9976382,-0.1604314,0.08880232,37.78399,6.444334,20.29612,1007.564
23.288796902,20.74403,-31.01307,14.72535,-0.9970369,-0.1259697,0.1004452,37.04779,6.433874,19.40636,1007.566
23.321357727,17.91377,-36.00946,17.47932,-1.001093,-0.1052758,0.1336344,37.04779,6.433874,19.40636,1007.568
23.353919029,21.05167,-41.30327,19.49891,-1.010396,-0.1010233,0.1337083,37.77584,6.431418,18.06576,1007.571
23.388984680,34.40313,-47.78669,25.25165,-1.320201,0.05382567,0.2485131,38.51929,5.334947,16.28693,1007.573
23.421545982,-36.29192,-69.08086,32.22838,-1.269417,-0.2930586,0.04595419,38.51929,5.334947,16.28693,1007.573
23.454107284,50.83096,-85.37864,27.08763,-1.426764,0.1482,0.1383958,39.96753,6.063192,14.55639,1007.575
23.486668110,0.6245534,-107.9219,30.1476,-1.302226,0.114904,0.1222995,40.35425,4.23387,12.3379,1007.578
23.521734238,-11.25025,-117.4389,35.34955,-1.200013,0.03367516,0.1088772,40.35425,4.23387,12.3379,1007.578
23.554295063,-20.72548,-113.5726,38.65432,-0.877858,-0.0182399,0.157562,41.44872,3.488359,7.878836,1007.578
23.586856365,-19.55645,-96.4421,36.81833,-0.7022658,-0.03170746,0.2021411,42.18807,2.01258,3.426183,1007.578
23.621922016,-27.00128,-46.24018,48.14022,-0.263683,0.02697685,-0.008139177,42.18807,2.01258,3.426183,1007.572
23.654483318,-70.80882,27.57566,49.30301,-0.4619417,-0.13559,-0.2023286,42.92337,0.903193,-0.5830088,1007.572
23.687044620,-58.25723,58.68419,45.14145,-0.7668385,-0.2116753,-0.3752773,42.94447,-0.5546317,-1.018636,1007.571
23.722110271,-24.17101,84.91528,34.49276,-0.6341398,-0.09631291,0.07009461,42.94447,-0.5546317,-1.018636,1007.569
23.754671574,-43.98286,111.7412,28.18922,-0.8222506,0.03736902,0.0592645,42.6113,-2.368583,0.3338251,1007.569
23.787232399,-73.39297,139.5783,21.57968,-0.9271458,0.02881894,0.1418927,41.53872,-3.452458,3.021656,1007.565
23.822298527,-110.0018,139.4593,16.68373,-1.181654,-0.07028715,0.1512607,41.53872,-3.452458,3.021656,1007.564
23.854859352,-128.0294,129.5855,9.339805,-1.247787,-0.06608701,0.2132608,41.21128,-4.884518,7.494009,1007.564
23.887420654,-157.7471,111.6817,3.342264,-1.232475,-0.08103027,0.2299363,39.76413,-5.238252,11.06995,1007.564
23.919981956,-177.0667,98.47694,1.261485,-1.180081,-0.1531183,0.2012334,39.76413,-5.238252,11.06995,1007.564
23.955047607,-187.0957,84.5584,2.240675,-1.162356,-0.1813078,0.1456813,38.70049,-6.68077,14.65254,1007.57
23.987608910,-179.5278,71.05623,4.872249,-1.129082,-0.1536412,0.1422042,38.00156,-8.558372,15.9429,1007.57
24.020169735,-204.6926,59.21952,8.360614,-0.9796314,-0.1695792,0.439577,38.00156,-8.558372,15.9429,1007.567
24.055235863,-219.09,59.69537,7.932219,-1.050087,-0.1974654,0.1728789,36.57466,-10.74408,17.30153,1007.573
24.087796688,-249.8537,37.33054,-6.32724,-0.9862334,-0.3814864,0.3155062,35.47666,-14.75437,17.33402,1007.573
24.155423641,-142.3037,-33.03542,-26.95144,-1.022543,-1.031512,0.8972774,34.80863,-19.13056,16.47559,1007.571
24.187984943,69.71989,-38.3887,-3.144872,-1.034169,-0.6045557,-0.0358821,34.49021,-23.15801,12.55457,1007.572
24.220546245,4.931476,-69.73515,-34.17297,-1.085224,0.6858016,0.5653557,34.49021,-23.15801,12.55457,1007.574
24.255611896,-5.035973,-24.17276,-22.11669,-1.002373,-0.244448,-0.2571226,35.6003,-23.94091,12.1106,1007.574
24.288173199,-24.72476,-14.00152,-32.88778,-0.9277055,0.2075537,0.1663721,36.36576,-22.42704,10.75892,1007.574
24.320734024,-11.86552,-4.484567,-28.17543,-0.9806091,-0.2575731,0.01769759,36.36576,-22.42704,10.75892,1007.574
24.355800152,-27.0628,-4.484567,-28.66502,-0.9814391,-0.002302326,0.09699968,36.72328,-22.06575,9.86298,1007.57
24.388360977,-40.29121,-6.328476,-24.13626,-0.9781763,-0.1739413,0.01655427,37.81538,-21.69658,9.41073,1007.572
24.420922279,-68.28619,-9.718888,-18.13873,-0.9844974,-0.1279616,0.04046394,37.81538,-21.69658,9.41073,1007.57
24.453483581,-64.53302,-9.540445,-12.20238,-0.9952165,-0.1314192,0.02205322,38.16723,-20.97148,8.512177,1007.57
24.488549232,-56.16529,-9.599926,-9.754407,-0.9922471,-0.12909,0.05253863,38.5288,-20.97658,7.172771,1007.568
24.521110535,-42.26009,-11.50332,-8.285622,-0.9979262,-0.09860687,0.06606035,39.24549,-20.25142,5.826956,1007.568
24.553671360,-42.19856,-11.38435,-7.734827,-0.9763396,-0.1561153,0.05597798,39.24549,-20.25142,5.826956,1007.566
24.588737488,-30.56987,-9.005117,-8.040824,-0.9778512,-0.1503342,0.06283492,39.97759,-20.62027,4.042902,1007.565
24.621298313,-24.29407,-7.22069,-8.530419,-0.9768767,-0.1479447,0.07447147,39.24302,-20.62814,3.599207,1007.565
24.653859615,-22.63283,-5.019895,-8.591619,-0.9674555,-0.1638283,0.06745277,39.24302,-20.62814,3.599207,1007.565
24.688925266,-15.80328,-2.8191,-9.142413,-0.9825796,-0.1639724,0.05586413,39.60622,-20.63066,2.705874,1007.563
24.721486568,-14.94189,-2.938062,-9.44841,-0.9777099,-0.162007,0.06507358,39.97107,-20.6306,2.258614,1007.563
24.754047871,-16.48008,-2.759619,-8.714018,-0.9813886,-0.1848076,0.0453942,39.97107,-20.6306,2.258614,1007.563
24.789113522,-13.52676,-4.187162,-8.163223,-0.9833925,-0.1766451,0.0614721,39.59728,-20.27202,1.811119,1007.563
24.821674824,-20.97158,-6.387957,-5.837646,-0.974143,-0.1703373,0.09007864,40.32454,-19.90291,1.806131,1007.565
24.854235649,-18.87965,-8.172384,-3.818065,-0.9689687,-0.2022207,0.06251812,40.32454,-19.90291,1.806131,1007.565
24.886796951,-17.46452,-8.410308,-2.716476,-0.9787657,-0.1965344,0.06648134,40.30992,-19.18046,0.9087648,1007.566
24.921862602,-14.26509,-8.231865,-1.798485,-0.9690704,-0.1906204,0.07622974,40.31965,-19.91066,0.4679155,1007.568
24.954423904,-9.158313,-7.101728,-2.28808,-0.9631607,-0.193519,0.08923099,40.31965,-19.91066,0.4679155,1007.568
24.986985207,-8.2354,-5.138857,-2.104482,-0.9661208,-0.1920598,0.08055533,39.94423,-19.55466,-0.4256516,1007.57
25.022050858,-4.236115,-3.592353,-1.553687,-0.8743967,-0.2747892,0.1526779,40.67718,-19.54937,-0.4280291,1007.573
25.054612160,-8.850676,2.474703,1.322684,-0.9478747,-0.207939,0.09769703,40.67718,-19.54937,-0.4280291,1007.575
25.087172985,-8.912203,7.94695,3.648261,-0.9628429,-0.1775084,0.09624222,40.66987,-19.18814,-0.8767118,1007.577
25.122239113,-16.17244,14.31141,3.648261,-0.9689997,-0.1503781,0.09762882,41.04365,-19.54672,-0.4292173,1007.577
25.154799938,-9.589005,22.81718,0.2210949,-0.9563608,-0.1986301,0.05724358,41.04365,-19.54672,-0.4292173,1007.58
25.187361240,-19.74104,19.54573,1.995878,-0.9719201,-0.1323451,0.1844312,40.32207,-20.27964,-0.4216175,1007.582
25.222426891,-3.928478,16.63117,3.342264,-1.019006,-0.2092729,0.08034376,39.95481,-19.91072,0.9151754,1007.58
25.254988193,15.63725,3.604841,8.666612,-1.046569,0.07689387,0.1292069,39.95481,-19.91072,0.9151754,1007.581
25.287549496,-162.054,-6.150033,11.17579,-0.996374,0.1891331,0.2787841,40.32128,-19.90808,0.9139872,1007.581
25.320110321,-196.3864,-0.5588246,26.59803,-1.014715,-0.1662999,0.04812561,40.31639,-19.91583,-0.4242287,1007.581
25.355176449,-233.4259,-6.031071,14.17456,-0.9743245,0.1191982,-0.2003638,40.31639,-19.91583,-0.4242287,1007.583
25.387737274,-287.6931,-20.54442,2.363074,-1.000313,-0.1710756,-0.4599902,39.58744,-21.03322,-3.982593,1007.583
25.420298576,-273.0496,-36.54479,-8.46922,-0.9980714,-0.1464896,-0.6220319,39.9457,-21.78919,-9.331423,1007.583
25.455364227,-256.0065,-64.97668,-16.36394,-0.8398653,-0.6158389,-0.09666388,39.9457,-21.78919,-9.331423,1007.585
25.487925529,40.12518,-4.425086,35.77794,-1.182221,-0.8474718,-0.7959299,38.79226,-20.01866,-16.35061,1007.585
25.520486832,-51.98143,-2.938062,-6.755636,-1.191417,0.6265195,0.4727122,39.06451,-14.94591,-20.40301,1007.582
25.555552483,83.93273,-4.127681,-10.7336,-1.097676,-0.07061142,0.03661437,39.06451,-14.94591,-20.40301,1007.584
25.588113785,-17.46452,0.868718,-16.73114,-0.9853153,-0.2570391,-0.1123181,39.08318,-16.03476,-19.9491,1007.59
25.620674610,-3.497786,-1.570001,-17.83273,-0.9816142,-0.07796961,0.06345919,38.32915,-14.58223,-19.5111,1007.592
25.655740738,2.16274,-0.7372674,-15.07875,-0.9917606,-0.1808691,0.004860646,38.32915,-14.58223,-19.5111,1007.592
25.688301563,-7.866236,-3.770795,-8.102023,-0.9768137,-0.2606688,-0.03842502,38.69073,-14.58733,-20.8505,1007.589
25.720862865,-3.005567,-7.934461,-1.492488,-0.9775631,-0.1865312,0.008144196,38.31615,-13.85719,-19.96239,1007.593
25.753424168,-11.86552,-8.767193,0.4658925,-0.9615343,-0.1900529,-0.02624476,38.31615,-13.85719,-19.96239,1007.594
25.788489819,-18.3259,-8.945636,3.464663,-0.9737632,-0.1748911,0.02426955,38.67368,-13.4959,-20.85833,1007.594
25.821051121,-16.72619,-6.804323,5.973838,-0.9698821,-0.1838506,-0.02469195,38.30558,-13.50113,-21.30322,1007.594
25.853611946,-18.81812,-10.25422,5.239446,-0.9972764,-0.1692331,-0.004624046,38.30558,-13.50113,-21.30322,1007.596
25.888678074,-7.743181,-11.74124,3.036267,-0.9980821,-0.1714554,0.05383142,38.65906,-12.77345,-21.7557,1007.598
25.921238899,-5.958884,-9.718888,1.261485,-0.9773084,-0.1604176,0.03754496,38.6558,-12.77861,-22.64784,1007.6
25.953800201,-2.820984,-7.399133,1.75108,-0.9629605,-0.1844279,0.01492947,38.6558,-12.77861,-22.64784,1007.601
25.988865852,-7.374016,-9.005117,3.587062,-0.9839544,-0.1708073,0.05866144,38.28933,-12.78126,-22.64666,1007.601
26.021427155,-3.928478,-8.410308,3.158666,-0.9802731,-0.1584747,0.02936005,38.29501,-13.14507,-22.64404,1007.603
26.053988457,-4.420698,-6.506918,3.036267,-0.9706395,-0.1890147,0.03951912,38.29501,-13.14507,-22.64404,1007.605
26.089054108,-3.682369,-5.674185,2.913868,-0.9718061,-0.1691755,0.05529098,37.92122,-12.78649,-23.09154,1007.608
26.121615410,-4.174588,-4.72249,2.424273,-0.9739451,-0.153632,0.05117979,37.91959,-12.78907,-23.53761,1007.608
26.154176235,-2.144182,-3.235467,0.8330889,-0.973843,-0.1571476,0.07626165,37.91959,-12.78907,-23.53761,1007.608
26.186737537,-0.7290507,-2.105329,0.7718895,-0.9754298,-0.1488513,0.06430534,37.1826,-12.42797,-23.09177,1007.608
26.221803188,-1.775017,-2.8191,-2.226881,-0.9890539,-0.1466699,0.07981982,37.1826,-12.42797,-23.09177,1007.61
26.254364490,-3.067094,-4.306124,-4.430059,-0.9851373,-0.1504624,0.07009064,36.81855,-12.79959,-23.98012,1007.61
26.286925793,-6.020412,-5.495743,-6.510839,-0.9793591,-0.1474136,0.05756379,36.81855,-12.79959,-23.98012,1007.612
26.321991443,-7.497071,-5.019895,-6.694437,-0.9740755,-0.180924,0.06719834,36.80556,-12.07456,-24.43141,1007.612
26.354552746,-16.72619,-11.68176,-6.021244,-0.9903637,-0.1702699,0.02918984,36.43909,-12.0772,-24.43022,1007.61
26.387113571,-19.61798,-11.26539,-4.613657,-0.9716219,-0.1799754,0.07929488,36.43909,-12.0772,-24.43022,1007.608
26.422179699,-8.97373,-10.6111,-2.28808,-0.9605895,-0.1690602,0.06204918,37.53119,-11.70803,-24.88247,1007.608
26.454740524,-14.57273,-8.886155,-0.3296996,-0.972864,-0.1989427,0.07852333,36.79093,-11.3521,-25.32878,1007.608
26.487301826,-10.32733,-11.32487,1.383884,-0.9806861,-0.1970852,0.07517558,36.79093,-11.3521,-25.32878,1007.608
26.522367477,-1.159743,-11.38435,0.7718895,-0.9827402,-0.1821727,0.1029575,36.05068,-10.99617,-25.77508,1007.61
26.554928779,7.946321,-10.3137,-1.064092,-0.996618,-0.1628812,0.09601461,36.05068,-10.99617,-25.77508,1007.612
26.587490082,6.654244,-9.362002,-2.532878,-0.9720241,-0.1810876,0.1087643,36.05068,-10.99617,-25.77508,1007.614
26.620050907,10.28436,-6.982766,-3.634467,-0.960972,-0.1649769,0.1244675,35.6215,-11.00184,-26.21977,1007.614
26.655116558,11.88408,-3.41391,-3.083673,-0.9377445,-0.1496616,0.1362797,34.88856,-11.00713,-26.21739,1007.614
26.687677860,9.053815,3.485879,-2.594077,-0.8897221,-0.1724201,0.148454,34.88856,-11.00713,-26.21739,1007.614
26.720239162,8.43854,12.22958,-1.676086,-0.8938274,-0.1981909,0.139364,34.88856,-11.00713,-26.21739,1007.614
26.755304813,11.39186,17.16649,-1.676086,-1.001027,-0.2023099,0.09686745,35.26965,-11.72694,-25.32121,1007.615
26.787866116,13.66837,14.31141,-1.676086,-1.014991,-0.1771545,0.0827634,35.26965,-11.72694,-25.32121,1007.615
26.820426941,8.623122,11.09944,-2.165682,-0.979243,-0.1951313,0.0771375,36.05231,-10.99358,-25.32901,1007.615
26.855493069,7.146464,6.876293,-0.8804942,-0.9777302,-0.2023416,0.06397486,36.44477,-12.44101,-24.42761,1007.614
26.888053894,5.54675,2.534184,0.7718895,-0.9841358,-0.1942011,0.07232265,36.44477,-12.44101,-24.42761,1007.612
26.920615196,3.085652,-1.153634,2.301874,-0.9855915,-0.192327,0.08347031,36.79987,-11.71074,-24.43402,1007.612
26.955680847,1.67052,-3.41391,3.525862,-0.970425,-0.1965407,0.09160879,36.80961,-12.44095,-24.87487,1007.612
26.988242149,1.362883,-3.711314,4.382654,-0.9794598,-0.1738085,0.09003081,36.80961,-12.44095,-24.87487,1007.61
27.020803452,1.362883,-3.175986,4.505053,-0.9710712,-0.1815125,0.09812259,36.07262,-12.07985,-24.42903,1007.61
27.053364277,0.2553886,-0.9751912,3.831859,-0.9662983,-0.1727114,0.1001858,36.79419,-11.34693,-24.43663,1007.604
27.088430405,0.8091357,1.225604,2.852669,-0.9697847,-0.1659553,0.1007756,36.79419,-11.34693,-24.43663,1007.607
27.120991230,0.3169161,2.534184,1.200285,-0.9742143,-0.1630728,0.09550669,36.81124,-12.43837,-24.4288,1007.601
27.153552532,0.6860808,3.247956,-0.02370263,-0.9791078,-0.1616654,0.09263262,36.45045,-12.80482,-24.425,1007.601
27.188618183,0.8091357,3.426398,-1.186491,-0.9761563,-0.1650111,0.08871171,36.45045,-12.80482,-24.425,1007.601
27.221179485,0.7476083,3.188474,-1.920884,-0.977056,-0.1718177,0.08667523,36.08398,-12.80747,-24.42381,1007.599
27.253740787,0.5630259,2.058337,-2.28808,-0.9809388,-0.1737946,0.0827818,36.80393,-12.07714,-24.87748,1007.599
27.288806438,0.3169161,1.106642,-1.859684,-0.9759566,-0.1834493,0.0826297,36.80393,-12.07714,-24.87748,1007.599
27.321367740,0.5630259,0.3928705,-1.492488,-0.9764177,-0.1858808,0.0816263,36.43909,-12.0772,-24.43022,1007.597
27.353928566,0.439971,0.09546578,-0.5744972,-0.9793848,-0.1810796,0.0860528,36.4464,-12.43843,-23.98154,1007.597
27.388994694,-1.528908,-2.343253,0.2210949,-0.9930333,-0.180756,0.08268727,36.4464,-12.43843,-23.98154,1007.597
27.421555519,-19.74104,-11.08695,1.567482,-1.027018,-0.1989836,0.03942145,36.81124,-12.43837,-24.4288,1007.595
27.454116821,-32.60028,-3.057024,2.607871,-1.015052,-0.2972063,0.08383217,36.43909,-12.0772,-24.43022,1007.594
27.486678123,-9.650532,25.13694,-17.83273,-1.125067,-0.7543171,-0.2797676,36.43909,-12.0772,-24.43022,1007.592
27.521743774,66.08977,-1.034672,-19.48511,-1.117799,-0.6001687,0.04160585,36.06693,-11.71604,-24.43164,1007.592
27.554305076,108.6668,-1.807924,-33.07138,-0.6966756,-0.07666118,0.4827752,36.42936,-11.347,-23.98937,1007.59
27.586865902,-71.79326,38.63911,-54.18517,-1.13039,-0.2532316,0.1290851,36.42936,-11.347,-23.98937,1007.59
27.621932030,34.21854,-15.07217,-66.73104,-0.8385568,-0.06158854,0.2897914,35.70699,-11.70835,-22.64617,1007.588
27.654492855,-63.48706,-15.6075,-69.17902,-0.8936315,-0.1943239,0.03839704,37.15504,-10.23477,-21.32315,1007.587
27.687054157,-65.1483,-27.62265,-62.01869,-0.759432,-0.1285349,0.06344005,37.15504,-10.23477,-21.32315,1007.587
27.722119808,-81.08391,-26.19511,-51.85959,-0.8179931,-0.2801416,-0.1099318,37.11932,-8.054493,-21.78489,1007.585
27.754681110,-31.67736,-35.41465,-37.17174,-0.7347192,-0.3493471,-0.04339524,37.06398,-4.724727,-22.70097,1007.585
27.787244320,-61.88734,1.939375,5.300645,-0.9111269,-0.1937198,-0.1433265,37.06398,-4.724727,-22.70097,1007.589
27.822308063,16.68322,20.20002,20.3557,-1.626527,-0.2293708,0.2986265,35.91586,-1.827347,-23.61044,1007.583
27.854869366,72.67321,-20.12805,10.2578,-0.9570227,-0.008769985,0.09301042,36.25392,-0.005647182,-23.62468,1007.583
27.887430191,3.700926,-5.912109,4.627451,-0.809284,-0.512642,-0.0448478,36.6277,-0.3642278,-23.17719,1007.583
27.919991493,-20.66395,-1.748443,-1.920884,-0.7418428,-0.3616069,0.1724941,36.6277,-0.3642278,-23.17719,1007.583
27.955057144,-0.1137761,1.64197,-7.000434,-0.796077,-0.3082882,0.1554749,35.90855,-1.46612,-24.05912,1007.583
27.987618446,-7.127906,4.913422,-14.34436,-1.10505,-0.3508018,0.06908344,36.27828,-1.458307,-23.16816,1007.583
28.020179749,7.515629,-0.0234961,-22.60628,-0.9883161,-0.3860771,0.03846323,36.27828,-1.458307,-23.16816,1007.583
28.055245399,11.14575,1.998856,-23.40187,-0.8795946,-0.4247998,0.1010899,35.89882,-0.7359152,-23.61827,1007.582
28.087806702,12.19172,2.831589,-22.17789,-0.8172297,-0.4753635,0.07028891,36.62608,-0.3668108,-23.62326,1007.583
28.120367527,10.03825,5.865117,-20.2807,-0.8353885,-0.5038206,0.07712294,36.62608,-0.3668108,-23.62326,1007.583
28.155433655,13.91448,5.746155,-16.79234,-0.8965046,-0.4832343,0.07749601,36.26123,-0.3668747,-23.176,1007.583
28.187994480,16.25253,4.497055,-14.40556,-0.907885,-0.4711601,0.06173976,36.24014,1.090952,-22.74037,1007.583
28.220555782,9.422979,2.534184,-11.59039,-0.8785134,-0.4805742,0.07848597,36.24014,1.090952,-22.74037,1007.583
28.255621433,7.269519,1.701451,-10.9172,-0.8551014,-0.4846206,0.07356787,36.5993,1.454826,-23.19024,1007.582
28.288182735,5.300641,3.902246,-12.38598,-0.8460684,-0.5049716,0.08581647,36.59525,1.82122,-22.74678,1007.582
28.320744037,12.19172,6.222003,-13.54877,-0.8774433,-0.489774,0.0739942,36.59525,1.82122,-22.74678,1007.58
28.355809688,10.09978,5.389269,-13.48757,-0.9001135,-0.4638885,0.08794555,36.9674,1.460056,-22.74536,1007.578
28.388370991,11.6995,1.64197,-12.56958,-0.9065892,-0.4513396,0.08862662,36.23609,1.457345,-22.29691,1007.578
28.420931816,6.100497,-1.034672,-10.4276,-0.8954439,-0.4439599,0.1008129,36.23609,1.457345,-22.29691,1007.578
28.453492641,0.439971,-3.41391,-7.551229,-0.8728097,-0.4635966,0.1019416,36.59851,1.826386,-21.85464,1007.578
28.488558769,-3.005567,-4.008719,-4.613657,-0.8486991,-0.481816,0.1161416,36.22473,2.184967,-22.30213,1007.578
28.521119594,-3.005567,-3.473391,-3.389669,-0.8412273,-0.4996246,0.09942792,36.22473,2.184967,-22.30213,1007.578
28.553680420,-2.082655,-3.532872,-2.410479,-0.8653463,-0.479963,0.08863351,36.58147,2.917819,-21.86247,1007.578
28.588746548,-8.666093,-6.387957,-2.961274,-0.8812999,-0.4908471,0.08509921,36.57983,2.915235,-22.30854,1007.576
28.621307373,-13.71134,-4.781971,-4.736056,-0.8567618,-0.5517012,0.07109594,36.57983,2.915235,-22.30854,1007.576
28.653868675,-6.204994,-2.16481,-8.102023,-0.82653,-0.5946081,0.08104645,36.21336,2.912589,-22.30735,1007.576
28.688934326,11.45339,0.1549467,-10.1216,-0.8495766,-0.5375959,0.08918914,36.20768,3.276399,-22.30996,1007.576
28.721495628,9.792144,2.058337,-10.244,-0.854088,-0.5255273,0.09421139,36.20768,3.276399,-22.30996,1007.576
28.754056930,7.331047,2.29626,-10.3052,-0.8619202,-0.5212733,0.09815087,36.56442,4.00925,-21.8703,1007.575
28.786617756,7.454102,1.820413,-11.28439,-0.832327,-0.554873,0.09035904,35.83148,4.003956,-21.86793,1007.575
28.821683884,8.315485,2.177299,-9.570809,-0.8294614,-0.5480739,0.09964416,35.83148,4.003956,-21.86793,1007.573
28.854244709,9.053815,0.809237,-8.040824,-0.8127101,-0.5164038,0.1300805,36.19064,4.367831,-22.3178,1007.571
28.886806011,3.516344,0.5118323,-7.673627,-0.8037252,-0.5366669,0.1229954,35.82417,4.365183,-22.31661,1007.571
28.921871662,0.6245534,-0.4398627,-8.102023,-0.7967396,-0.5958059,0.1090353,35.82417,4.365183,-22.31661,1007.571
28.954432964,5.54675,0.09546578,-9.509609,-0.8091267,-0.6216781,0.09850161,36.1939,4.372997,-21.42565,1007.565
28.986994267,-4.297643,-2.462215,-11.28439,-0.8116106,-0.6049733,0.1582142,35.81444,5.095389,-21.87576,1007.565
29.022059917,-32.60028,-4.127681,-26.52304,-0.8253461,-0.6258381,0.2178479,35.81444,5.095389,-21.87576,1007.565
29.054621220,-56.65751,-3.889757,-49.77881,-0.8500046,-0.9129439,0.119233,35.02205,5.092237,-21.42711,1007.565
29.087182045,-36.29192,-5.495743,-71.2598,-0.8643693,-1.110261,0.07708299,35.36742,6.552709,-20.99267,1007.565
29.122248173,-6.204994,-5.376781,-86.25365,-0.9339522,-1.039554,0.04004212,35.36742,6.552709,-20.99267,1007.563
29.154808998,3.516344,-9.956812,-97.33074,-0.925897,-0.9383203,0.03191127,34.24124,8.366405,-20.55609,1007.562
29.187370300,-8.48151,-11.80072,-106.7554,-0.8549104,-0.925307,0.04557584,33.4538,12.06502,-19.68811,1007.563
29.222435951,-13.21912,-8.707712,-113.977,-0.7353192,-0.9817742,0.08713609,33.4538,12.06502,-19.68811,1007.563
29.254997253,-11.00414,-2.581177,-119.8521,-0.6846682,-1.033392,0.04086228,30.85036,14.59575,-19.252,1007.563
29.287558555,10.96117,3.307436,-128.2976,-0.6716445,-1.12325,-0.04027837,29.32525,18.59225,-18.38382,1007.562
29.320119381,36.37201,4.853941,-136.07,-0.6567225,-1.053352,0.02167908,29.32525,18.59225,-18.38382,1007.562
29.355185032,48.98513,3.426398,-141.5167,-0.6122176,-1.010377,0.1034991,26.70804,22.21958,-17.0634,1007.56
29.387746334,44.00141,-3.116505,-142.8631,-0.564729,-0.9636726,0.2283936,22.99125,25.52804,-17.07545,1007.56
29.420307636,35.20298,-10.55162,-140.1091,-0.5123673,-0.9197649,0.3411564,22.99125,25.52804,-17.07545,1007.558
29.455373287,27.01983,-24.94601,-125.7885,-0.4837829,-0.7514002,0.4843601,19.27052,28.76812,-18.42527,1007.558
29.487934589,-7.866236,-41.48171,-108.6526,-0.4126211,-0.7467924,0.5297991,14.76713,31.27485,-19.7673,1007.556
29.520495415,-8.543038,-62.24056,-87.60004,-0.3275653,-0.6451469,0.5448023,14.76713,31.27485,-19.7673,1007.549
29.555561542,-23.00199,-78.35989,-67.15944,-0.1995993,-0.6499521,0.4725823,10.70755,33.06479,-19.76728,1007.547
29.588122368,-18.26438,-91.50518,-49.71761,-0.07084277,-0.5855017,0.4560398,6.646338,34.85215,-20.21334,1007.547
29.620683670,-15.49564,-102.2117,-33.68337,0.02984319,-0.5488439,0.3791616,3.697529,35.92241,-20.21166,1007.545
29.655749321,-30.26223,-111.6692,-21.0763,0.1532378,-0.5908793,0.2517564,3.697529,35.92241,-20.21166,1007.545
29.688310623,-30.56987,-114.5243,-10.6112,0.245568,-0.6862411,0.1124501,0.30739,38.08617,-19.32428,1007.544
29.720871925,-28.8471,-113.5726,-3.022473,0.2450102,-0.7778003,0.04579786,-2.270055,39.16682,-17.98558,1007.542
29.753432751,-33.7693,-115.476,2.975068,0.2402411,-0.8469552,-0.04322717,-2.270055,39.16682,-17.98558,1007.542
29.788498878,-205.9846,-69.43775,-13.18157,0.1881922,-1.184245,-0.8294597,-3.758767,41.04626,-16.21003,1007.542
29.821059704,57.16829,-70.74633,-7.306431,0.2405581,-0.8534635,-0.7437398,-5.592319,42.14955,-11.87865,1007.544
29.853621006,9.176869,-46.71603,3.097466,0.2052046,-0.6932145,-0.4961888,-5.592319,42.14955,-11.87865,1007.549
29.888686657,-34.13846,-18.1057,25.31285,0.1335998,-0.7315663,-0.2849858,-6.343703,43.23347,-12.26645,1007.551
29.921247959,-50.19713,-6.090552,50.7106,0.02092547,-0.7312033,-0.1543597,-6.708776,43.23304,-11.88292,1007.551
29.953809261,-23.49421,-9.778369,69.98841,-0.08226532,-0.673229,-0.05380001,-6.708776,43.23304,-11.88292,1007.551
29.988874912,-84.83708,-14.23944,74.76196,-0.157252,-0.7084005,-0.01607745,-5.245313,43.61261,-10.99814,1007.551
30.021436214,-109.9403,-16.26179,60.8697,-0.01632047,-1.458945,-0.3283245,-3.040752,44.01038,-7.885378,1007.551
30.053997040,-56.53446,-9.183559,63.07288,0.005944231,-1.336341,-0.398982,-3.040752,44.01038,-7.885378,1007.547
30.089063168,-23.98643,-5.3173,75.06796,-0.03402773,-1.100682,-0.2875551,-0.4835043,45.5074,-3.889496,1007.547
30.121623993,-39.61441,1.404046,83.39108,-0.09821945,-0.9244943,-0.2064981,2.085052,45.53109,-3.005673,1007.545
30.154185295,-56.04224,-0.8562293,84.98226,-0.1325541,-1.005228,-0.2922876,2.085052,45.53109,-3.005673,1007.54
30.186746597,-54.381,-6.387957,86.26745,-0.1400161,-1.104802,-0.4325287,5.084419,45.56303,-1.231094,1007.538
30.221812248,-73.45451,-5.793147,85.90025,-0.170571,-0.9458428,-0.4204065,8.031651,45.2359,1.438438,1007.535
30.254373550,-113.2012,-12.09813,77.82193,-0.1729334,-0.9640798,-0.4777209,8.031651,45.2359,1.438438,1007.535
30.286934376,-142.919,-13.88255,63.56247,-0.1339467,-1.090506,-0.6715879,11.72319,44.18643,4.110817,1007.537
30.322000503,-120.4615,-8.588751,41.89788,0.00443802,-1.078464,-0.7846479,14.69399,42.77819,8.572472,1007.531
30.354561329,-21.8945,16.80961,5.117047,0.2497083,-1.155258,-0.8285935,14.69399,42.77819,8.572472,1007.53
30.387122631,-17.83368,29.77645,-5.225651,0.1351946,-0.823585,-0.669709,16.57037,40.93498,12.59466,1007.528
30.422188282,-46.56701,36.2004,-11.83519,-0.02046551,-0.6078845,-0.5623419,16.94579,40.57898,13.48823,1007.528
30.454749584,-32.96944,21.09224,-11.59039,-0.1298385,-0.3151682,-0.4784967,16.94579,40.57898,13.48823,1007.528
30.487310886,-90.9283,12.05114,-8.46922,-0.2217382,-0.2981174,-0.5366365,15.50324,39.48693,15.22138,1007.526
30.522376537,-91.35899,6.162521,5.300645,-0.2327892,-0.3460962,-0.7041228,14.05119,39.12544,17.45911,1007.524
30.554937839,-111.6015,16.09584,13.80736,-0.2578888,-0.3046125,-0.8131922,14.05119,39.12544,17.45911,1007.523
30.587498665,-96.03508,28.05151,22.86487,-0.2446216,-0.4125127,-0.8805905,14.10159,36.96841,21.93549,1007.523
30.620059967,-95.78897,43.695,25.98604,-0.2516038,-0.4032638,-0.9036447,13.04605,34.79311,24.63116,1007.523
30.655125618,-73.2084,62.66941,33.69717,-0.2994158,-0.4279195,-0.8561205,13.04605,34.79311,24.63116,1007.521
30.687686920,-69.70133,78.66978,28.49522,-0.3057218,-0.5121188,-0.8482147,12.00514,31.89534,28.22419,1007.519
30.720248222,-36.04581,81.16798,23.47687,-0.3071933,-0.5857272,-0.8043823,10.60827,27.89317,30.04195,1007.517
30.755313873,-10.45039,83.01189,19.19291,-0.3924165,-0.2818694,-0.7498764,10.60827,27.89317,30.04195,1007.516
30.787875175,-37.52247,65.94086,9.156206,-0.445787,-0.2154397,-0.5496601,8.809219,26.06863,31.39917,1007.516
30.820436001,-41.70634,39.9477,12.46097,-0.4863834,-0.1485765,-0.3015954,6.259337,24.95609,30.96925,1007.516
30.855502129,-50.56629,3.426398,20.90649,-0.5673273,-0.03539166,-0.2011816,6.259337,24.95609,30.96925,1007.514
30.888062954,-47.92061,-46.24018,36.69593,-0.7241318,0.4405454,0.2799401,4.089079,23.43208,32.32548,1007.514
30.920623779,-15.8648,-115.7734,30.88199,-0.4782708,-0.07304371,-1.808103,3.403219,20.51888,32.79482,1007.514
30.955689430,114.758,-4.66301,0.2210949,-0.3499787,-0.4482489,-2.716416,3.403219,20.51888,32.79482,1007.514
30.988250732,82.9483,74.56561,-3.267271,-0.3311898,-0.2679381,-0.5399374,3.880107,13.98585,35.07099,1007.514
31.020811558,27.81969,32.15569,-0.696896,-0.4463899,-0.2233197,-0.6348542,4.946219,15.80509,33.71615,1007.512
31.053372860,3.639399,-0.6183055,2.607871,-0.2097631,-0.2948534,-1.003057,4.946219,15.80509,33.71615,1007.514
31.088438511,-8.296928,-1.451039,1.383884,-0.005194349,-0.2148681,-1.012185,3.078148,17.97214,33.26036,1007.512
31.120999813,-13.28065,4.79446,1.139086,-0.1278824,-0.1951056,-0.9010718,1.917657,17.96376,33.26412,1007.512
31.153561115,-25.40156,-7.280171,3.954258,-0.1328287,-0.2339735,-0.9180948,1.917657,17.96376,33.26412,1007.512
31.188626766,-23.2481,-8.291346,3.403464,-0.1129268,-0.2445374,-0.9956155,2.643286,18.33028,32.81306,1007.51
31.221188068,-26.87822,-4.544047,4.137856,-0.083962,-0.2032695,-0.9036555,3.08951,17.24452,33.26558,1007.512
31.253748894,-31.3082,-6.387957,5.912639,-0.1711664,-0.1763249,-0.9863011,3.08951,17.24452,33.26558,1007.514
31.288815021,-31.3082,-7.042247,6.096237,-0.1162961,-0.1154538,-0.9622234,2.674955,16.51639,33.71826,1007.514
31.321375847,-33.40013,-6.685361,4.872249,-0.148117,-0.1967755,-1.018538,3.48523,15.80226,35.05912,1007.51
31.353937149,-50.01255,-6.387957,7.565022,-0.1604728,-0.141486,-1.028317,3.494962,15.07205,34.61827,1007.514
31.389002800,-63.61012,-7.161209,9.217406,-0.2252007,-0.1595177,-1.095719,3.494962,15.07205,34.61827,1007.516
31.421564102,-89.63622,-10.78955,11.23699,-0.1428561,-0.1248248,-1.114121,3.52663,13.25816,35.52348,1007.516
31.454125404,-140.8271,-14.00152,31.06559,-0.08685455,-0.08420414,-1.122256,4.656079,11.44963,35.97903,1007.516
31.486686230,-211.7682,-15.42906,54.01537,0.19175,0.1425003,-1.226376,4.656079,11.44963,35.97903,1007.516
31.521752357,-265.9739,56.42392,-7.000434,0.3037888,-0.1971053,-1.039765,5.450041,7.76135,36.89535,1007.516
31.554313183,148.5366,131.7863,-45.67845,-0.28503,-0.7631364,-0.9506732,5.185833,1.21011,36.94353,1007.516
31.586874485,320.7519,120.4254,-47.75923,-0.3290731,-0.2816492,-0.9360343,5.185833,1.21011,36.94353,1007.516
31.621940136,128.1095,51.36803,-20.03591,-0.3271401,1.17116,0.001644118,2.245752,-2.083219,37.42282,1007.516
31.654501438,-189.6183,-40.35157,13.80736,0.04395729,0.2705634,-0.1076791,-0.4445298,5.902091,37.37369,1007.516
31.687062740,138.7537,-65.27409,-14.34436,-0.1023828,0.3123289,-2.003188,-0.4445298,5.902091,37.37369,1007.517
31.722128391,126.8789,13.95452,2.057077,-0.08906582,0.06811457,-1.701916,-1.107665,1.533651,37.85348,1007.517
31.754689693,69.65836,24.89902,-2.594077,0.01820307,-0.00651121,-0.8079441,0.313556,4.083165,36.49223,1007.517
31.787250519,13.66837,10.38567,1.139086,-0.04865955,0.002407379,-0.8232115,0.313556,4.083165,36.49223,1007.517
31.822316647,48.92361,2.29626,-0.02370263,-0.01985159,0.01024889,-0.7554469,0.2526932,8.087666,36.90958,1007.516
31.854877472,45.97029,-1.570001,-0.02370263,0.001473639,-0.03203809,-0.8000999,-0.4891915,8.441017,36.0172,1007.514
31.887438774,21.85153,-2.105329,0.9554878,-0.001392796,-0.05363512,-1.080302,-0.4891915,8.441017,36.0172,1007.512
31.920000076,9.484507,1.820413,0.5270919,-0.03709248,-0.07189291,-1.227976,-0.8906965,10.68187,36.00229,1007.512
31.955065727,9.976727,5.686674,-0.6356966,-0.03984563,-0.09168337,-1.053293,-0.17643,11.77601,35.54601,1007.512
31.987627029,13.42226,1.701451,-0.9416936,-0.018992,-0.1026143,-0.9418195,-0.17643,11.77601,35.54601,1007.512
32.020187855,10.09978,-1.451039,-0.5132978,-0.002077375,-0.08360866,-0.9048093,-0.531538,11.04574,35.55241,1007.512
32.055253506,0.5014985,-0.2019389,-0.390899,-0.001739324,-0.08142792,-0.9555309,-0.5372193,11.40955,35.5498,1007.512
32.087814808,0.1323337,0.2739086,-0.1461014,-0.02285948,-0.08422304,-1.042078,-0.5372193,11.40955,35.5498,1007.508
32.120376110,7.515629,1.523008,-0.2685002,-0.02066079,-0.1065341,-1.045804,-0.5429006,11.77337,35.54719,1007.508
32.155441761,11.57644,2.415222,-0.4520984,-0.01114187,-0.1206938,-1.004459,-0.5412695,11.77595,35.99326,1007.512
32.188003063,11.57644,1.760932,-0.3296996,-0.004852539,-0.1114999,-0.9777387,-0.5412695,11.77595,35.99326,1007.506
32.220563888,6.408134,0.9876798,-0.2073008,-0.007756912,-0.1125208,-0.9753345,-0.5518439,12.13201,34.65244,1007.506
32.255630016,2.285795,-0.3209008,0.09869616,-0.01353916,-0.1236476,-1.003051,-0.9207337,12.49834,35.54316,1007.505
32.288190842,1.608993,-0.2614199,0.1598955,-0.009102002,-0.1260683,-0.9924582,-0.9207337,12.49834,35.54316,1007.506
32.320752144,1.055246,0.3928705,-0.02370263,-0.01055885,-0.1256191,-0.9885828,-0.9150524,12.13453,35.54577,1007.506
32.353313446,-0.4214134,0.2144276,-0.02370263,-0.007234289,-0.120665,-0.9996282,-0.5615754,12.86221,35.09329,1007.506
32.388379097,-2.20571,0.4523514,-0.2073008,-0.007760698,-0.11727,-0.9995759,-0.5615754,12.86221,35.09329,1007.505
32.420940399,-1.282798,0.2739086,-0.1461014,-0.007706726,-0.1221247,-1.000617,-0.9223647,12.49576,35.09709,1007.505
32.453501224,-0.3598859,-0.2019389,-0.02370263,-0.007302389,-0.113882,-0.9951742,-0.9166834,12.13194,35.0997,1007.505
32.488567352,1.178301,0.2144276,-0.02370263,-0.008717294,-0.1182655,-0.9971731,-0.9166834,12.13194,35.0997,1007.505
32.521127701,2.285795,0.3333895,0.03749677,-0.01119065,-0.115373,-0.9990602,-0.9223647,12.49576,35.09709,1007.505
32.553689003,3.147179,0.3333895,-0.08490203,-0.009641646,-0.1226492,-0.9977226,-0.1894236,12.50105,35.09471,1007.505
32.588754654,2.285795,0.3333895,-0.1461014,-0.01007139,-0.1279917,-0.9997373,-0.1894236,12.50105,35.09471,1007.506
32.621315956,1.178301,0.3333895,-0.08490203,-0.01103489,-0.1270722,-0.9910215,-0.5632064,12.85963,34.64722,1007.506
32.653876781,0.1938612,0.3333895,-0.08490203,-0.008582056,-0.1285003,-0.9905622,-0.5558941,12.4984,35.0959,1007.506
32.688942909,-0.1753035,-0.0234961,0.09869616,-0.007650037,-0.1250819,-0.9914777,-0.5558941,12.4984,35.0959,1007.508
32.721503735,0.2553886,-0.08297704,0.09869616,-0.005694528,-0.1274487,-0.9997332,-0.2024171,13.22609,34.64342,1007.508
32.754065037,0.5014985,0.09546578,-0.02370263,-0.004280447,-0.1225881,-0.9957933,-0.928046,12.85957,35.09448,1007.504
32.786626339,-0.236831,-0.0234961,0.03749677,-0.0115117,-0.1294751,-0.9983084,-0.928046,12.85957,35.09448,1007.504
32.821691990,0.1938612,0.1549467,-0.02370263,-0.0106417,-0.1207116,-0.9991422,-0.926415,12.86215,35.54055,1007.504
32.854253292,-0.1137761,0.5713133,-0.1461014,-0.010117,-0.1217254,-0.9885239,-0.5688877,13.22344,34.6446,1007.505
32.886814117,0.6860808,0.4523514,-0.08490203,-0.01157612,-0.1241257,-0.9991933,-0.5688877,13.22344,34.6446,1007.505
32.921880245,2.224267,0.5713133,-0.1461014,-0.005238247,-0.1235814,-0.9938741,-0.928046,12.85957,35.09448,1007.507
32.954441071,2.654959,0.5118323,-0.1461014,-0.006637442,-0.1294204,-0.9963787,-0.928046,12.85957,35.09448,1007.507
32.987002373,0.8706632,0.4523514,-0.08490203,-0.008038355,-0.1328782,-0.9882127,-0.928046,12.85957,35.09448,1007.507
33.022068024,0.1938612,0.4523514,-0.1461014,-0.01105535,-0.1270348,-0.9992383,-0.928046,12.85957,35.09448,1007.507
33.054629326,0.8706632,0.1549467,-0.2073008,-0.0090778,-0.1289662,-0.9963694,-0.929677,12.85698,34.64841,1007.509
33.087190628,0.9937181,0.03598484,-0.02370263,-0.005110985,-0.1347529,-0.9950113,-0.928046,12.85957,35.09448,1007.511
33.122256279,0.6860808,0.1549467,-0.08490203,-0.003690441,-0.1308554,-0.9930198,-0.928046,12.85957,35.09448,1007.511
33.154817581,0.6860808,-0.142458,-0.02370263,-0.008064894,-0.1314029,-0.9920571,-0.5688877,13.22344,34.6446,1007.511
33.187378406,-0.05224863,-0.4398627,-0.02370263,-0.008517187,-0.1348018,-0.9940421,-0.572938,13.58984,35.08807,1007.511
33.219939709,-0.4214134,-0.2019389,-0.02370263,-0.009547832,-0.1304303,-0.9963913,-0.572938,13.58984,35.08807,1007.511
33.255005359,-0.236831,-0.08297704,-0.02370263,-0.009540234,-0.1299686,-0.9910671,-0.9353583,13.22079,34.64579,1007.511
33.287566662,-0.1753035,-0.0234961,-0.08490203,-0.01205705,-0.124143,-0.9967763,-0.5656257,13.22861,35.53675,1007.514
33.320127964,0.3169161,0.1549467,0.09869616,-0.01053059,-0.1294756,-0.995409,-0.5656257,13.22861,35.53675,1007.514
33.355193615,0.6245534,0.1549467,-0.1461014,-0.007073647,-0.1337999,-0.9964451,-0.5542631,12.50099,35.54197,1007.514
33.387754917,0.1938612,0.2739086,-0.08490203,-0.004121833,-0.1352437,-0.9911528,-0.1991551,13.23125,35.53556,1007.514
33.420315742,0.2553886,0.3928705,-0.390899,-0.006604373,-0.1332857,-1.001271,-0.1991551,13.23125,35.53556,1007.512
33.455381870,0.5014985,0.09546578,-0.1461014,-0.004673198,-0.1299007,-0.9920375,-0.5632064,12.85963,34.64722,1007.51
33.487942695,0.5014985,0.03598484,0.03749677,-0.009983658,-0.1343349,-0.9940336,-0.9353583,13.22079,34.64579,1007.51
33.520503998,0.5014985,-0.2019389,-0.08490203,-0.008492608,-0.1372247,-0.9955292,-0.9353583,13.22079,34.64579,1007.51
33.555569649,0.07080628,0.03598484,0.03749677,-0.004677565,-0.1308439,-0.9983358,-0.5615754,12.86221,35.09329,1007.512
33.588130951,-0.1137761,0.1549467,-0.02370263,-0.005677615,-0.1289064,-0.9997554,-0.9369893,13.21821,34.19972,1007.51
33.620692253,0.07080628,0.2144276,-0.1461014,-0.007116342,-0.129917,-0.995419,-0.9369893,13.21821,34.19972,1007.508
33.653253078,0.07080628,0.03598484,-0.02370263,-0.006582714,-0.1333252,-0.9925713,-0.9223647,12.49576,35.09709,1007.508
33.688319206,0.07080628,0.4523514,-0.2685002,-0.007113557,-0.1294465,-0.9920282,-0.929677,12.85698,34.64841,1007.508
33.720880032,0.3169161,0.3928705,-0.02370263,-0.005138349,-0.1328005,-0.996915,-0.929677,12.85698,34.64841,1007.504
33.753440857,0.6860808,0.3333895,0.03749677,-0.005095274,-0.1362084,-0.9955169,-0.9337273,13.22338,35.09187,1007.504
33.788506508,0.5630259,0.1549467,-0.1461014,-0.001750263,-0.1312917,-0.9983455,-1.300198,13.22073,35.09306,1007.502
33.821067810,0.6860808,0.3333895,-0.1461014,-0.002694827,-0.1323092,-0.9911094,-1.300198,13.22073,35.09306,1007.502
33.853628635,0.8091357,0.2144276,-0.08490203,-0.004619606,-0.1352303,-0.9955025,-1.292886,12.8595,35.54174,1007.502
33.888694763,0.6245534,0.03598484,0.03749677,-0.004588253,-0.1367144,-0.9897246,-0.9410396,13.58461,34.64318,1007.504
33.921255589,0.3784435,0.03598484,0.03749677,-0.007609303,-0.1299124,-0.9978354,-0.9410396,13.58461,34.64318,1007.504
33.953816891,0.7476083,-0.0234961,-0.1461014,-0.007089735,-0.1328193,-0.9983636,-0.9353583,13.22079,34.64579,1007.504
33.988882542,0.009278819,0.09546578,-0.02370263,-0.00700283,-0.1386854,-0.9907191,-0.9353583,13.22079,34.64579,1007.506
34.021443844,0.1938612,0.2144276,0.03749677,-0.005552448,-0.1381716,-0.9926462,-0.9353583,13.22079,34.64579,1007.506
34.054005146,0.07080628,0.09546578,-0.02370263,-0.003139454,-0.1366734,-0.9945592,-0.9410396,13.58461,34.64318,1007.508
34.089070797,-0.3598859,-0.2019389,-0.08490203,-0.001766419,-0.1288842,-0.9934748,-0.9353583,13.22079,34.64579,1007.506
34.121631622,-0.4214134,0.03598484,-0.08490203,-0.006068784,-0.1357462,-0.9930921,-0.9353583,13.22079,34.64579,1007.508
34.154192924,-0.2983584,-0.142458,-0.02370263,-0.006169885,-0.1265249,-0.9905344,-0.9337273,13.22338,35.09187,1007.508
34.186754226,0.3784435,-0.2019389,0.09869616,-0.006576252,-0.1342883,-0.9945195,-0.5615754,12.86221,35.09329,1007.508
34.221819877,0.6860808,-0.08297704,-0.1461014,-0.003073828,-0.142025,-0.9931908,-0.5615754,12.86221,35.09329,1007.508
34.254381180,0.2553886,0.03598484,-0.02370263,-0.008521621,-0.1343181,-0.9935513,-0.1877925,12.50363,35.54078,1007.508
34.286942005,0.439971,0.09546578,-0.02370263,-0.00846043,-0.1391859,-0.9916921,-1.300198,13.22073,35.09306,1007.508
34.322008133,-0.05224863,0.1549467,0.09869616,-0.005090461,-0.1362172,-0.9935835,-1.300198,13.22073,35.09306,1007.508
34.354568958,-0.4829409,0.1549467,-0.2073008,-0.004596676,-0.136699,-0.993108,-0.929677,12.85698,34.64841,1007.508
34.387130260,-0.05224863,-0.08297704,-0.390899,-0.008401268,-0.1435745,-0.9883755,-0.5705187,13.22086,34.19853,1007.509
34.422195911,-0.236831,0.3333895,-0.1461014,-0.006085698,-0.1342885,-0.9930698,-0.5705187,13.22086,34.19853,1007.511
34.454757213,0.8091357,0.03598484,-0.02370263,-0.002659283,-0.1376059,-1.001825,-0.9394085,13.58719,35.08926,1007.511
34.487318516,0.5630259,-0.142458,-0.08490203,-0.006014813,-0.1406009,-0.994133,-0.928046,12.85957,35.09448,1007.513
34.522384167,0.5630259,-0.2019389,-0.1461014,-0.004098078,-0.1371895,-0.9906991,-0.5672567,13.22602,35.09068,1007.513
34.554945469,-0.1753035,0.03598484,-0.1461014,-0.00169959,-0.1342379,-0.9916231,-0.5672567,13.22602,35.09068,1007.515
34.587506294,-0.1753035,-0.142458,0.03749677,-0.006537612,-0.1372125,-0.9926307,-0.9353583,13.22079,34.64579,1007.51
34.620067596,-0.1137761,-0.0234961,-0.08490203,-0.00599986,-0.1430063,-0.9994867,-0.9353583,13.22079,34.64579,1007.515
34.655133247,0.1323337,0.1549467,-0.02370263,-0.007140853,-0.128921,-1.000721,-0.5632064,12.85963,34.64722,1007.509
34.687694549,0.3169161,0.2739086,0.03749677,-0.0005843117,-0.147325,-0.9961743,-0.929677,12.85698,34.64841,1007.509
34.720254898,0.2553886,0.3928705,-0.1461014,-0.001646065,-0.1381406,-0.9882991,-0.574569,13.58725,34.64199,1007.507
34.755321026,0.1938612,-0.08297704,-0.02370263,-0.005056635,-0.1391327,-0.993628,-0.574569,13.58725,34.64199,1007.505
34.787881851,-0.2983584,-0.0234961,-0.02370263,-0.006568586,-0.1352535,-0.9959844,-0.5632064,12.85963,34.64722,1007.505
34.820443153,-0.2983584,0.09546578,-0.2685002,-0.005088366,-0.1381235,-1.00183,-0.9394085,13.58719,35.08926,1007.505
34.855508804,0.1323337,-0.0234961,-0.08490203,-0.001169193,-0.1371646,-0.9878013,-0.9394085,13.58719,35.08926,1007.505
34.888070106,0.1938612,0.1549467,-0.2685002,-0.007951383,-0.1401712,-0.9873573,-0.9353583,13.22079,34.64579,1007.505
34.920631409,0.3784435,0.1549467,-0.02370263,-0.004577735,-0.1386361,-0.9945878,-0.928046,12.85957,35.09448,1007.505
34.955697060,0.5630259,0.2144276,0.03749677,-0.005506143,-0.1420611,-0.9922222,-0.928046,12.85957,35.09448,1007.505
34.988258362,-0.1137761,0.09546578,-0.02370263,0.001820192,-0.1443844,-0.9946817,-1.305879,13.58454,35.09044,1007.503
35.020819187,-0.5444683,0.03598484,0.1598955,-0.007058761,-0.1347783,-0.9950098,-1.305879,13.58454,35.09044,1007.506
35.053380489,-0.5444683,-0.2019389,-0.02370263,-0.006530325,-0.1386527,-0.9965196,-1.305879,13.58454,35.09044,1007.506
35.088446140,0.009278819,-0.142458,-0.1461014,-0.003590989,-0.1391224,-0.9916958,-0.9353583,13.22079,34.64579,1007.506
35.121007442,0.5630259,-0.0234961,-0.3296996,-0.005574175,-0.1367051,-0.9945574,-0.574569,13.58725,34.64199,1007.506
35.153568744,-0.2983584,0.2144276,-0.02370263,-0.006059158,-0.1357638,-0.9892253,-0.574569,13.58725,34.64199,1007.506
35.188634395,0.009278819,0.3928705,-0.08490203,-0.002606204,-0.1405565,-0.9941356,-1.296147,12.85434,34.64959,1007.506
35.221195698,0.7476083,0.2739086,-0.2073008,0.003637098,-0.1331809,-0.9949958,-0.5615754,12.86221,35.09329,1007.506
35.253756523,1.239828,-0.3803818,0.09869616,-0.002625524,-0.1390944,-0.99508,-0.5615754,12.86221,35.09329,1007.506
35.288822651,0.9321907,-0.7372674,0.03749677,-0.004002993,-0.1463999,-0.9956735,-0.574569,13.58725,34.64199,1007.508
35.321383476,0.009278819,-0.2614199,0.09869616,-0.008445546,-0.1401644,-0.990257,-0.9410396,13.58461,34.64318,1007.51
35.353944778,-1.036688,-0.0234961,-0.2073008,-0.007915907,-0.1440409,-0.9912833,-0.9410396,13.58461,34.64318,1007.51
35.389010429,-0.913633,-0.4398627,0.2210949,-0.005521785,-0.1420325,-0.9985057,-0.58025,13.95106,34.63938,1007.51
35.421571731,-0.4214134,-0.4398627,0.03749677,-0.01143751,-0.137696,-1.007135,-0.9394085,13.58719,35.08926,1007.511
35.454133034,-0.913633,0.1549467,-0.02370263,-0.00993577,-0.1377517,-0.990702,-0.9394085,13.58719,35.08926,1007.511
35.486693382,-0.9751604,0.5118323,-0.390899,-0.005596793,-0.1333345,-0.9877385,-0.5688877,13.22344,34.6446,1007.51
35.521759033,0.1323337,0.1549467,-0.2073008,-0.004156795,-0.133753,-0.9983807,-1.313191,13.94577,34.64176,1007.511
35.554320335,1.239828,0.5118323,-0.02370263,0.001242287,-0.1375661,-0.9994107,-1.313191,13.94577,34.64176,1007.511
35.586881637,1.732048,0.809237,-0.08490203,-0.002572756,-0.1439469,-0.9966042,-1.301829,13.21815,34.64698,1007.511
35.621947288,2.40885,0.09546578,-0.02370263,-0.00601196,-0.1415574,-0.9975311,-1.30751,13.58196,34.64437,1007.509
35.654508591,2.16274,-0.3209008,-0.2073008,-0.005450969,-0.146918,-0.9927797,-1.30751,13.58196,34.64437,1007.511
35.687069416,0.7476083,-0.2019389,-0.02370263,-0.006459887,-0.144013,-0.9932178,-0.5615754,12.86221,35.09329,1007.511
35.722135544,-1.46738,-0.4398627,-0.08490203,-0.006936759,-0.144989,-0.9937156,-0.9337273,13.22338,35.09187,1007.511
35.754696369,-2.328765,-0.4398627,-0.2685002,-0.01280707,-0.1426379,-0.9931907,-0.9337273,13.22338,35.09187,1007.512
35.787257671,-1.71349,0.3928705,-0.08490203,-0.007984316,-0.1391598,-0.9960426,-0.929677,12.85698,34.64841,1007.512
35.822323322,0.2553886,0.5713133,-0.1461014,-0.005528694,-0.1401175,-0.9921926,-0.58025,13.95106,34.63938,1007.514
35.854884624,1.91663,0.4523514,-0.2685002,-0.0030718,-0.1425043,-0.9946483,-0.58025,13.95106,34.63938,1007.514
35.887445927,3.024124,0.6307942,0.03749677,-0.004497156,-0.146393,-0.9985732,-0.928046,12.85957,35.09448,1007.514
35.920006752,1.732048,0.868718,-0.08490203,-0.01227059,-0.1470025,-0.9937412,-0.9410396,13.58461,34.64318,1007.514
35.955072880,0.7476083,0.5118323,-0.02370263,-0.0006121218,-0.1444205,-0.993713,-0.9410396,13.58461,34.64318,1007.514
35.987633705,-0.1137761,0.2739086,-0.02370263,-0.006416812,-0.147421,-0.9918197,-0.928046,12.85957,35.09448,1007.514
36.020195007,-0.4829409,-0.08297704,-0.08490203,0.001844704,-0.1453804,-0.9893797,-0.9337273,13.22338,35.09187,1007.514
36.055260658,-0.3598859,-0.2019389,-0.02370263,-0.005996318,-0.1415859,-0.9912477,-0.9337273,13.22338,35.09187,1007.516
36.087821960,0.009278819,-0.6777865,0.03749677,-0.00693999,-0.1445075,-0.9927415,-0.9353583,13.22079,34.64579,1007.516
36.120383262,0.439971,-0.4398627,-0.1461014,-0.009415757,-0.1416106,-0.9955952,-0.9369893,13.21821,34.19972,1007.512
36.155448913,1.855103,-0.4398627,-0.08490203,-0.003035946,-0.145899,-0.9961502,-0.9394085,13.58719,35.08926,1007.512
36.188009262,1.301355,-0.142458,0.03749677,-0.01234877,-0.1392499,-0.9887891,-0.9394085,13.58719,35.08926,1007.512
36.220570564,0.1938612,0.03598484,0.09869616,0.0003510045,-0.145815,-1.004853,-0.9410396,13.58461,34.64318,1007.513
36.255636215,-0.913633,0.3333895,-0.02370263,-0.007333255,-0.1494411,-0.9778317,-0.9337273,13.22338,35.09187,1007.513
