Time (s),Gyroscope X (deg/s),Gyroscope Y (deg/s),Gyroscope Z (deg/s),Accelerometer X (g),Accelerometer Y (g),Accelerometer Z (g),Magnetometer X (uT),Magnetometer Y (uT),Magnetometer Z (uT),Barometer (hPa)
0.004516602,1.046842,-0.0373548,0.01194927,0.4799894,0.06971779,0.8729899,-19.5784,21.20555,-36.01212,1008.15
0.037294388,0.2981977,0.08089076,-0.04846043,0.4794856,0.07750951,0.8734607,-19.5784,21.20555,-36.01212,1008.15
0.072594166,0.3592041,-0.2732415,-0.1089348,0.4790117,0.07314231,0.8763566,-20.29979,20.84286,-36.00544,1008.148
0.105371952,-1.192823,0.02279787,0.1962261,0.4760925,0.07454224,0.8710664,-19.57913,21.19961,-36.44722,1008.148
0.138149738,-0.939595,-0.1541838,0.01258109,0.4746511,0.06769833,0.8691548,-19.57913,21.19961,-36.44722,1008.146
0.170928001,0.1806351,0.02281423,-0.1093799,0.4800045,0.06288268,0.8705934,-19.21432,21.20468,-36.01258,1008.146
0.206226826,1.357817,0.08178803,-0.170046,0.4761,0.0721339,0.8749209,-19.57164,20.84111,-36.00639,1008.146
0.239004612,0.4209395,-0.03628588,-0.04723242,0.4770547,0.07996791,0.8797205,-19.57164,20.84111,-36.00639,1008.145
0.271783352,-1.749897,0.02293649,-0.04704026,0.4765729,0.07800236,0.8777991,-19.93644,20.83604,-36.44102,1008.145
0.304561138,-1.246597,0.02249053,0.07511881,0.4722269,0.06520946,0.8643506,-19.58589,21.56404,-36.45295,1008.149
0.337338924,-0.06342356,0.08130626,0.07502344,0.4795185,0.0633757,0.8720378,-19.58589,21.56404,-36.45295,1008.149
0.372638702,1.422901,-0.03686504,0.01417993,0.4780487,0.06972502,0.8763641,-19.57913,21.19961,-36.44722,1008.149
0.405416489,0.1144758,-0.09515907,-0.1686468,0.4809436,0.07754175,0.8763454,-19.93644,20.83604,-36.44102,1008.147
0.438193798,-1.559237,0.02304348,0.1371213,0.4770675,0.07309597,0.872029,-19.93644,20.83604,-36.44102,1008.147
0.470971584,-0.3737563,-0.03649484,-0.1076213,0.4765971,0.06625681,0.8696336,-19.57913,21.19961,-36.44722,1008.147
0.506271362,1.053777,-0.09559363,-0.3513705,0.4795132,0.06430288,0.8652973,-19.58589,21.56404,-36.45295,1008.15
0.539049148,0.6762699,-0.2135563,0.01573372,0.4765629,0.08138141,0.8734618,-19.58589,21.56404,-36.45295,1008.15
0.571826935,-1.123916,-0.2722417,0.07656665,0.4809577,0.07119701,0.8744294,-19.21432,21.20468,-36.01258,1008.148
0.604605675,-0.3136743,0.1414789,0.07619742,0.4756219,0.06820685,0.8710771,-19.57985,21.19366,-36.88234,1008.148
0.637382984,0.06005571,-0.3312085,-0.04579322,0.4775702,0.06579127,0.8715574,-19.57985,21.19366,-36.88234,1008.146
0.672682285,1.051639,-0.09440325,-0.167272,0.4780472,0.06970159,0.8729945,-19.21432,21.20468,-36.01258,1008.146
0.705460548,1.109551,-0.1529072,-0.2276793,0.4726955,0.07404026,0.8730007,-19.93644,20.83604,-36.44102,1008.146
0.738238335,-0.570673,-0.4470615,0.1392269,0.4789885,0.08187195,0.8710485,-19.93644,20.83604,-36.44102,1008.146
0.771016121,-2.179647,-0.150647,0.2605117,0.4814499,0.06675756,0.8657705,-19.57236,20.83517,-36.44149,1008.144
0.806315899,-0.1236618,0.203421,-0.1061311,0.4785668,0.05407391,0.8662778,-19.57913,21.19961,-36.44722,1008.142
0.839093685,1.673803,-0.1513524,-0.2885438,0.4765905,0.06968943,0.872998,-19.94393,21.19454,-36.88187,1008.146
0.871871471,1.108342,0.2039691,0.01748354,0.4785195,0.07657088,0.8797222,-19.94393,21.19454,-36.88187,1008.146
0.904649258,-0.7559985,-0.2683434,-0.04346628,0.4731665,0.0788677,0.8662533,-19.57767,21.21149,-35.577,1008.14
0.937427521,-0.8155049,0.2044346,0.01770397,0.4780439,0.07116601,0.8734737,-19.5784,21.20555,-36.01212,1008.145
0.972726822,-0.501147,0.02709357,0.2001844,0.4727266,0.06038342,0.870133,-19.5784,21.20555,-36.01212,1008.14
1.005504608,1.050524,-0.3272204,0.01629323,0.4717432,0.06573931,0.8710899,-19.93717,20.8301,-36.87614,1008.139
1.038282871,1.231727,0.1465766,-0.1663118,0.4770625,0.0745336,0.8686573,-19.22181,21.56317,-36.45342,1008.139
1.071060658,-0.5716583,0.1465902,0.07826208,0.4785163,0.07652065,0.8725018,-19.22181,21.56317,-36.45342,1008.14
1.106359482,-0.5684284,0.08674273,0.07747789,0.4736774,0.0691647,0.8710802,-19.22857,21.92761,-36.45915,1008.14
1.139138222,0.3019616,-0.03172201,0.1379829,0.4761017,0.07064603,0.8710722,-19.9432,21.20048,-36.44675,1008.139
1.171916008,0.2994451,-0.03175983,-0.04553964,0.4789951,0.07995398,0.8753836,-19.9432,21.20048,-36.44675,1008.139
1.204693794,-0.7547492,-0.2091493,0.1375107,0.4770893,0.06383912,0.8715615,-19.94924,21.57086,-36.01738,1008.14
1.237471581,-0.7527055,0.145351,0.1980582,0.4731912,0.0691506,0.8696373,-19.21505,21.19873,-36.44769,1008.14
1.272771359,-0.3149269,0.08626913,-0.1079115,0.4824324,0.06290293,0.8705876,-19.21505,21.19873,-36.44769,1008.139
1.305549145,0.8018804,-0.03197125,-0.1074333,0.476095,0.07357153,0.8715492,-19.20756,20.84024,-36.00686,1008.143
1.338326454,1.542852,-0.3863595,0.07611846,0.4751195,0.07652578,0.8773234,-19.5785,21.2047,-36.07427,1008.143
1.371105194,-0.9441939,-0.2078586,0.4417287,0.4848111,0.08387537,0.8719944,-19.5785,21.2047,-36.07427,1008.141
1.406404018,-1.743859,0.1471832,0.2570215,0.482918,0.0618961,0.8652929,-19.57913,21.19961,-36.44722,1008.141
1.439181805,0.991203,0.5596943,-0.1091612,0.4790477,0.05602607,0.8662737,-19.94404,21.19369,-36.94403,1008.141
1.471960545,2.288366,-0.1498459,-0.2308174,0.4736699,0.07258393,0.8725192,-19.94404,21.19369,-36.94403,1008.139
1.504738331,0.851878,0.02769084,-0.1689983,0.479473,0.08287014,0.873934,-19.5784,21.20555,-36.01212,1008.139
1.537515640,-1.01093,0.0275596,0.07550964,0.4760871,0.07698407,0.8720254,-19.57164,20.84111,-36.00639,1008.139
1.572815418,-1.253884,0.2041232,0.3803169,0.4722408,0.06037603,0.8696528,-19.57164,20.84111,-36.00639,1008.139
1.605593204,0.3015951,0.02627264,0.01265397,0.4702877,0.06473637,0.8686881,-20.30728,21.20135,-36.44628,1008.138
1.638370991,1.230501,-0.09192701,-0.04875465,0.4760956,0.0725707,0.8676999,-19.22784,21.93355,-36.02404,1008.136
1.671149731,0.4800755,0.1449296,-0.3536942,0.479492,0.07458065,0.8725024,-19.22784,21.93355,-36.02404,1008.136
1.706448555,-0.7001623,0.02658959,0.01316602,0.4780342,0.07404464,0.8672116,-19.94248,21.20642,-36.01165,1008.134
1.739226341,-1.006821,0.08516638,0.1955746,0.4785345,0.06720688,0.8638512,-19.93644,20.83604,-36.44102,1008.134
1.772004604,0.5475734,-0.03310653,0.1949117,0.4833969,0.06533278,0.8686562,-19.57236,20.83517,-36.44149,1008.134
1.804782391,0.6063907,0.1439539,-0.1102549,0.4731732,0.07745684,0.8734758,-19.57236,20.83517,-36.44149,1008.136
1.837560177,-0.6969147,-0.09216949,-0.04886964,0.4785225,0.07409222,0.8734682,-19.57913,21.19961,-36.44722,1008.134
1.872859955,-0.1365998,-0.03339463,0.07329295,0.4766017,0.06279404,0.861937,-19.94997,21.56492,-36.45248,1008.134
1.905637741,1.103059,0.3802043,-0.04901102,0.4751301,0.071135,0.8725179,-19.94997,21.56492,-36.45248,1008.136
1.938415527,0.6657065,-0.03314123,-0.1707404,0.4780467,0.07019866,0.8744379,-20.67739,21.57261,-36.01643,1008.136
1.971193314,0.1659687,-0.2686538,0.1958,0.4794872,0.07804006,0.8797176,-19.94997,21.56492,-36.45248,1008.134
2.003971577,-1.322624,-0.1508745,0.1950209,0.4775596,0.07017116,0.8710695,-19.94997,21.56492,-36.45248,1008.138
2.039270878,-0.3854365,0.08560236,0.1335169,0.478077,0.05602466,0.8672387,-19.94248,21.20642,-36.01165,1008.138
2.072048664,0.8555291,-0.2098761,-0.3551647,0.4751463,0.06431664,0.8725281,-19.57913,21.19961,-36.44722,1008.138
2.104826927,1.284841,-0.09189154,-0.1711394,0.4760943,0.07507614,0.8778047,-19.57913,21.19961,-36.44722,1008.138
2.137604713,-0.08533762,0.1445571,-0.04847432,0.4750989,0.08479183,0.8753855,-19.94924,21.57086,-36.01738,1008.137
2.172904015,-1.385718,0.1444972,0.2567042,0.4751264,0.07259274,0.8720344,-19.21505,21.19873,-36.44769,1008.135
2.205682278,-1.132269,0.1437046,-0.04942334,0.4770834,0.06526337,0.8662645,-19.21505,21.19873,-36.44769,1008.135
2.238460064,0.7321884,0.02524859,0.1335088,0.4746552,0.0662473,0.870601,-19.9432,21.20048,-36.44675,1008.135
2.271237850,0.7902337,-0.151539,-0.04961255,0.4746461,0.07065062,0.8734825,-19.9432,21.20048,-36.44675,1008.135
2.304016113,0.1045808,0.2032825,-0.04939104,0.4770705,0.07162819,0.8710685,-19.9432,21.20048,-36.44675,1008.135
2.339315415,-1.074009,0.143705,0.07285053,0.4780273,0.07797768,0.8725007,-19.9432,21.20048,-36.44675,1008.135
2.372093201,-0.1392424,0.379768,0.1333553,0.4732051,0.06330629,0.8696461,-19.57236,20.83517,-36.44149,1008.135
2.404871464,0.605098,0.02490578,-0.05003374,0.4809579,0.07170413,0.8773168,-19.57236,20.83517,-36.44149,1008.135
2.437649250,-0.3900144,-0.1524737,0.01124055,0.4780309,0.07601283,0.8700969,-19.57985,21.19366,-36.88234,1008.135
2.472948074,-0.200031,0.0250657,0.1332542,0.4756359,0.06185877,0.8686798,-19.93655,20.83519,-36.50319,1008.135
2.505726814,0.3591893,0.1430745,0.1943173,0.4770862,0.06328513,0.8619351,-19.93655,20.83519,-36.50319,1008.137
2.538504600,1.348325,0.2018061,-0.2944202,0.4746332,0.0755008,0.8705871,-19.57236,20.83517,-36.44149,1008.138
2.571282387,-0.1447752,-0.211757,-0.1718661,0.4804716,0.07118292,0.8729866,-19.57913,21.19961,-36.44722,1008.14
2.604060173,0.3515336,-0.1516157,0.1948896,0.4785269,0.07264452,0.8753957,-19.57913,21.19961,-36.44722,1008.144
2.639359474,-1.508994,-0.2694321,0.1328683,0.4794881,0.07502415,0.8662441,-19.57913,21.19961,-36.44722,1008.144
2.672137260,-0.4483104,0.1444252,0.01009148,0.476116,0.06379753,0.8667503,-19.94175,21.21237,-35.57653,1008.144
2.704915047,0.4831069,0.1440773,0.1321901,0.4814485,0.06825212,0.8705819,-19.94393,21.19454,-36.88187,1008.144
2.737693787,0.9769927,0.2616752,-0.1122447,0.4804612,0.07556616,0.8729799,-19.94393,21.19454,-36.88187,1008.142
2.772992611,-0.888696,-0.03451037,-0.1118288,0.4770608,0.07703235,0.8777995,-20.30728,21.20135,-36.44628,1008.147
2.805770397,-1.194624,-0.2704993,0.1323313,0.4804756,0.068721,0.8691394,-19.94248,21.20642,-36.01165,1008.147
2.838548660,-0.8801247,-0.09337912,0.1319453,0.4790322,0.06386537,0.873001,-19.94248,21.20642,-36.01165,1008.147
2.871326447,0.4254261,0.08366768,0.009785307,0.4770806,0.06673449,0.8677063,-19.94248,21.20642,-36.01165,1008.147
2.904104233,0.4849554,-0.3299699,0.1319237,0.4731884,0.07163261,0.8763727,-19.5784,21.20555,-36.01212,1008.147
2.939404011,-0.447873,0.3204043,-0.1123982,0.4799812,0.07363073,0.8753908,-19.5784,21.20555,-36.01212,1008.147
2.972181797,-1.06591,0.3200435,0.1323584,0.4814378,0.0721249,0.8672065,-19.93644,20.83604,-36.44102,1008.147
3.004959583,-0.1309818,-0.09392761,0.07078736,0.4775739,0.06433354,0.872041,-19.22181,21.56317,-36.45342,1008.145
3.037737846,0.2414391,-0.1527117,-0.05143009,0.4761057,0.06868789,0.8696311,-19.22181,21.56317,-36.45342,1008.143
3.073037148,-0.3802238,0.143051,-0.1734204,0.4770589,0.07548758,0.8657677,-19.58589,21.56404,-36.45295,1008.137
3.105814934,-0.5634969,0.08407978,0.07085684,0.4795159,0.06333552,0.8662616,-19.57913,21.19961,-36.44722,1008.14
3.138593197,-0.3144119,-0.09346692,-0.05076713,0.479022,0.06825195,0.8734758,-19.57913,21.19961,-36.44722,1008.14
3.171370983,0.4918481,-0.09297464,-0.2949928,0.4785464,0.06486885,0.8778142,-19.57236,20.83517,-36.44149,1008.14
3.204148769,0.05480314,0.02531181,-0.29402,0.4765889,0.07016976,0.8720345,-19.9432,21.20048,-36.44675,1008.135
3.239448547,0.9839581,-0.2107621,-0.04889083,0.4770635,0.076065,0.8787636,-19.9432,21.20048,-36.44675,1008.138
3.272226334,-0.756627,-0.03223573,0.3782606,0.4794798,0.07842999,0.8657576,-20.31404,21.56579,-36.45201,1008.138
3.305004120,-1.744299,0.08704419,-0.2333474,0.4834014,0.06287755,0.8657717,-19.58589,21.56404,-36.45295,1008.138
3.337781906,0.5568165,-0.09086679,-0.1723416,0.4785539,0.06043874,0.8710818,-19.58589,21.56404,-36.45295,1008.138
3.373081684,1.731978,-0.1502092,-0.1107642,0.476111,0.06776071,0.8763716,-19.94248,21.20642,-36.01165,1008.136
3.405859470,0.4839061,-0.09070835,-0.2321455,0.4760812,0.07992297,0.8744279,-19.21505,21.19873,-36.44769,1008.136
3.438637257,-0.880397,-0.09024563,-0.04848823,0.4819208,0.07411054,0.872016,-19.21505,21.19873,-36.44769,1008.136
3.471415520,-1.373306,0.08667724,0.1345167,0.4751394,0.06673503,0.8701177,-19.93644,20.83604,-36.44102,1008.136
3.504193306,0.1211045,-0.03165773,-0.0492988,0.4795201,0.06289537,0.8730013,-20.29979,20.84286,-36.00544,1008.136
3.539492130,1.111387,-0.2084999,0.01215995,0.4761175,0.06483185,0.8754132,-20.29979,20.84286,-36.00544,1008.135
3.572270870,0.1766245,-0.08955753,-0.1099527,0.4809379,0.080484,0.8792291,-19.94851,21.57681,-35.58226,1008.135
3.605048656,-1.373431,0.02871482,0.1342958,0.4765929,0.06821161,0.8705934,-19.9432,21.20048,-36.44675,1008.135
3.637826443,-0.3757717,-0.09001392,-0.04925038,0.4790311,0.06384863,0.8705942,-19.9432,21.20048,-36.44675,1008.135
3.670604706,1.175603,-0.2080362,-0.0489729,0.4824181,0.06874055,0.869616,-19.58443,21.57593,-35.58273,1008.135
3.705904007,-0.008584529,-0.0300121,-0.1706867,0.4799733,0.07704327,0.8758671,-19.93644,20.83604,-36.44102,1008.135
3.738681316,-0.4418164,-0.3250196,0.01285447,0.4790132,0.0716511,0.8720266,-19.95069,21.55897,-36.8876,1008.135
3.771460056,-0.5019994,-0.08884373,0.1350947,0.4722305,0.0642555,0.8672402,-19.95069,21.55897,-36.8876,1008.133
3.804237843,0.8028482,0.02929568,-0.2929445,0.4766119,0.05992211,0.8691618,-19.57236,20.83517,-36.44149,1008.133
3.839536667,1.108214,-0.2662591,-0.2306464,0.475125,0.0740873,0.8768457,-19.58589,21.56404,-36.45295,1008.131
3.872315407,0.4824111,-0.3245812,0.4411802,0.4750997,0.08530899,0.8797171,-19.58589,21.56404,-36.45295,1008.131
3.905093193,-2.184336,-0.2642955,0.5001068,0.4819208,0.07309965,0.8667225,-19.93644,20.83604,-36.44102,1008.131
3.937870502,-1.182416,0.5035033,-0.1110973,0.4804946,0.05942063,0.8624142,-19.9432,21.20048,-36.44675,1008.128
3.970649242,1.550026,0.1476734,-0.1716184,0.4746632,0.06233099,0.8677187,-19.9432,21.20048,-36.44675,1008.128
4.005948067,1.604252,-0.2067526,-0.2927175,0.4775561,0.07264312,0.8763608,-19.21505,21.19873,-36.44769,1008.126
4.038725853,-0.5112156,-0.08835508,-0.1696529,0.4760903,0.07602341,0.8739523,-19.94997,21.56492,-36.45248,1008.126
4.071504593,-1.252866,0.2664683,0.2576652,0.4731905,0.06914056,0.8681932,-19.94997,21.56492,-36.45248,1008.128
4.104282379,-0.7512407,-0.2068585,0.3175889,0.4766039,0.06282753,0.8667506,-19.57913,21.19961,-36.44722,1008.129
4.139581203,0.8637668,0.02921566,0.1337521,0.4731933,0.06918409,0.8744509,-19.9432,21.20048,-36.44675,1008.128
4.172359467,0.7360043,-0.324996,0.1337433,0.4799748,0.07504494,0.8686496,-19.9432,21.20048,-36.44675,1008.129
4.205137253,-0.4451077,0.2070508,0.07264556,0.4799804,0.07361734,0.8734654,-19.94997,21.56492,-36.45248,1008.129
4.237915039,-1.125082,0.2063363,0.1945276,0.4824255,0.06582509,0.8705832,-19.21505,21.19873,-36.44769,1008.129
4.270693779,0.3676155,0.2645513,0.01102327,0.4795239,0.06043009,0.8686727,-19.21505,21.19873,-36.44769,1008.133
4.305992603,1.17098,-0.09029466,-0.2333616,0.4790108,0.07211804,0.8691378,-19.94248,21.20642,-36.01165,1008.133
4.338770390,-0.8802308,-0.09044528,-0.04925819,0.4765759,0.0755237,0.8715451,-19.94997,21.56492,-36.45248,1008.133
4.371548653,-0.4423045,0.02799736,0.1948196,0.478538,0.06776758,0.8744403,-19.94997,21.56492,-36.45248,1008.133
4.404326439,0.2421056,0.02793897,0.1335687,0.4751598,0.05695097,0.8638747,-19.58516,21.56999,-36.01785,1008.135
4.439625740,0.9846407,-0.2083321,-0.4158222,0.4731816,0.07354723,0.8715562,-19.94248,21.20642,-36.01165,1008.135
4.472404003,0.6716012,-0.08977932,-0.1099277,0.4702654,0.07449028,0.870599,-19.94248,21.20642,-36.01165,1008.135
4.505181790,-0.6967984,-0.2071725,0.3172235,0.4794899,0.07606182,0.8753883,-20.29979,20.84286,-36.00544,1008.135
4.537959576,-1.994674,-0.02927237,0.1324146,0.4804894,0.06236957,0.8662608,-19.94997,21.56492,-36.45248,1008.135
4.570737839,-0.00199293,0.1469202,-0.05091294,0.4785663,0.05457098,0.8677211,-19.94997,21.56492,-36.45248,1008.137
4.606037140,1.8578,-0.09000246,-0.1113571,0.477571,0.06580466,0.8734829,-19.93717,20.8301,-36.87614,1008.143
4.638814926,1.477132,-0.03050581,-0.2936144,0.4775341,0.08189663,0.8763469,-19.21432,21.20468,-36.01258,1008.143
4.671593189,-1.257057,-0.0896963,-0.04863674,0.4760722,0.08382253,0.8749034,-20.30728,21.20135,-36.44628,1008.143
4.704370975,-2.181796,0.3242064,0.3171178,0.4760959,0.07358493,0.8734747,-20.30728,21.20135,-36.44628,1008.143
4.739670277,-2.295311,0.3230613,0.5592966,0.4732143,0.05941008,0.869652,-19.57913,21.19961,-36.44722,1008.143
4.772448540,-1.731682,-0.4457184,0.2520508,0.4683169,0.07841716,0.8773367,-19.95673,21.92936,-36.45821,1008.141
4.805226326,-1.357557,0.2045996,0.1297721,0.478535,0.06923535,0.8754008,-19.95673,21.92936,-36.45821,1008.141
4.838004112,-0.7984702,-0.03177107,0.3130391,0.4805097,0.05410016,0.8677172,-19.21432,21.20468,-36.01258,1008.141
4.870782375,-0.0530209,0.02732161,0.007594019,0.4756524,0.05605463,0.8744648,-19.94248,21.20642,-36.01165,1008.141
4.906081676,0.8166699,0.5000631,-0.175673,0.4732023,0.06528453,0.8739753,-19.94248,21.20642,-36.01165,1008.141
4.938859463,0.9409115,0.2636923,-0.236762,0.4756199,0.06918425,0.8715569,-19.58516,21.56999,-36.01785,1008.141
4.971637726,0.1954622,0.145507,-0.6032962,0.4780471,0.07020535,0.8754005,-19.93644,20.83604,-36.44102,1008.139
5.004415512,-0.6121079,0.2636923,-0.2978511,0.4824191,0.06926107,0.8744289,-19.93644,20.83604,-36.44102,1008.138
5.039714336,-0.9227118,-0.2681418,0.1908611,0.4800305,0.05167102,0.8691661,-19.57767,21.21149,-35.577,1008.136
5.072493076,1.003032,0.2636923,-0.175673,0.4741814,0.0618801,0.8734968,-19.94997,21.56492,-36.45248,1008.136
5.105270863,1.189395,-0.2090491,-0.2978511,0.4746512,0.06820545,0.8720421,-19.94997,21.56492,-36.45248,1008.136
5.138048649,1.065153,0.4409704,-0.175673,0.477549,0.07657282,0.8811685,-19.94997,21.56492,-36.45248,1008.136
5.170826912,-1.54392,-0.1499564,0.06868304,0.4790165,0.07119755,0.8768408,-19.22181,21.56317,-36.45342,1008.134
5.206126213,0.4439453,-0.3863271,0.3741281,0.4751805,0.04616273,0.8533009,-19.22181,21.56317,-36.45342,1008.134
5.238903523,2.307569,-1.095439,0.06868304,0.4741668,0.06670349,0.8667505,-19.94248,21.20642,-36.01165,1008.134
5.271682262,1.065153,-0.3863271,-0.053495,0.4819317,0.07074487,0.8782787,-19.2136,21.21062,-35.57747,1008.134
5.304460049,1.996965,-0.8590686,-0.053495,0.4756312,0.06431064,0.8710829,-19.2136,21.21062,-35.57747,1008.136
5.339758873,4.916641,-0.8590686,-0.175673,0.4736985,0.05888692,0.8638753,-19.94248,21.20642,-36.01165,1008.134
5.372537613,6.469661,0.3818777,0.2519501,0.4819279,0.0706846,0.8696143,-19.92968,20.47161,-36.43529,1008.134
5.405315399,7.090868,-1.095439,0.4963062,0.4688014,0.07739359,0.8696353,-19.92968,20.47161,-36.43529,1008.134
5.438092709,5.289366,-0.4454198,0.2519501,0.4848413,0.06969804,0.8643139,-19.95142,21.55303,-37.32271,1008.134
5.470871449,8.02268,-1.33181,0.9850183,0.4833621,0.08145822,0.8763338,-19.93644,20.83604,-36.44102,1008.134
5.506170273,3.053018,-0.5636052,0.9239293,0.4809027,0.09306633,0.8676575,-19.56633,20.46479,-36.87088,1008.134
5.538948059,2.245448,-0.2681418,1.290463,0.48045,0.07892846,0.8662359,-19.56633,20.46479,-36.87088,1008.132
5.571726799,-1.046953,0.02732161,0.3741281,0.4823947,0.07746685,0.8638266,-20.30125,20.83097,-36.87566,1008.137
5.604504585,1.127274,-0.1499564,-0.236762,0.478985,0.08030039,0.8551659,-19.56571,20.46988,-36.49792,1008.137
5.637281895,1.499998,-0.1499564,-0.114584,0.4779991,0.08965962,0.8715205,-19.56571,20.46988,-36.49792,1008.131
5.672581673,0.8787907,-0.03177107,0.1908611,0.4848055,0.08530296,0.8671786,-19.57913,21.19961,-36.44722,1008.135
5.705359459,1.189395,-0.03177107,-0.053495,0.4775089,0.09109992,0.8691127,-19.93041,20.46566,-36.8704,1008.135
5.738137245,-0.9227118,-0.09086375,0.007594019,0.4712017,0.08910583,0.8700933,-19.93041,20.46566,-36.8704,1008.133
5.770915985,-0.4257456,-0.09086375,0.007594019,0.4750901,0.08768386,0.8710489,-19.92365,20.10123,-36.86467,1008.133
5.806214809,-0.860591,0.322785,0.2519501,0.4794535,0.0881203,0.8585225,-20.29303,20.47842,-35.99971,1008.133
5.838992596,-0.5499871,0.145507,-0.053495,0.4857915,0.0779655,0.861411,-20.29303,20.47842,-35.99971,1008.135
5.871770859,-0.0530209,0.322785,0.2519501,0.4838398,0.08234927,0.8638158,-19.9379,20.82416,-37.31125,1008.135
5.904548645,0.6303076,0.3818777,-0.114584,0.4833587,0.08241553,0.8739254,-19.92365,20.10123,-36.86467,1008.135
5.937326431,-1.668161,2.213751,-0.9087412,0.4784988,0.08230805,0.8643099,-19.92365,20.10123,-36.86467,1008.135
5.972626209,1.748482,1.859195,-0.053495,0.4901435,0.08125378,0.8387718,-19.93041,20.46566,-36.8704,1008.133
6.005403996,-5.146924,3.159234,-0.114584,0.4691519,0.1338793,0.8676239,-19.55884,20.1063,-36.43003,1008.133
6.038181782,-15.76958,2.391029,1.229374,0.4784721,0.1010863,0.903272,-19.55884,20.1063,-36.43003,1008.137
6.070960045,-19.18622,0.8546191,1.351552,0.4513996,0.04412995,0.8697267,-19.92968,20.47161,-36.43529,1008.137
6.106259346,-9.61962,-1.568181,1.779176,0.4819284,0.07271306,0.881164,-19.57164,20.84111,-36.00639,1008.137
6.139037132,-20.24227,-1.449995,0.7406622,0.4800801,0.03072553,0.8687162,-19.57164,20.84111,-36.00639,1008.137
6.171815395,-8.190843,-0.5636052,-0.8476522,0.4893399,0.01517078,0.8619786,-19.94997,21.56492,-36.45248,1008.135
6.204593182,-5.706011,-0.1499564,-1.763987,0.4737667,0.03267789,0.8769113,-19.59119,21.94037,-35.58846,1008.135
6.237370968,-1.357557,-2.2182,-1.275275,0.4553046,0.03741094,0.8793548,-19.59119,21.94037,-35.58846,1008.135
6.272670746,-7.445393,-1.922737,-1.519631,0.485832,0.06546687,0.8850164,-19.59796,22.30481,-35.59419,1008.135
6.305448532,-0.9848326,-2.277293,0.3741281,0.4854061,0.03709809,0.8682125,-19.95527,21.94124,-35.58799,1008.135
6.338226318,-2.786335,-0.2090491,0.3741281,0.4770528,0.07892689,0.8700948,-19.95527,21.94124,-35.58799,1008.135
6.371004582,-10.73779,-1.804551,1.168285,0.4713496,0.03029951,0.887992,-19.60472,22.66924,-35.59992,1008.135
6.406303883,-1.978765,-4.109166,1.656997,0.4840491,-0.003280346,0.8764598,-19.60544,22.6633,-36.03503,1008.135
6.439081669,3.860588,-4.345537,0.9850183,0.4864385,0.009272024,0.8576621,-19.60544,22.6633,-36.03503,1008.135
6.471859932,4.606038,-3.045498,1.046107,0.4868816,0.02629187,0.8533031,-19.59119,21.94037,-35.58846,1008.135
6.504637718,9.699941,-2.513664,1.595908,0.4907357,0.04100204,0.8628991,-19.96203,22.30568,-35.59372,1008.135
6.537415504,9.513578,-0.2090491,0.2519501,0.5019417,0.02603088,0.8677087,-19.96203,22.30568,-35.59372,1008.135
6.572715282,17.09231,-2.336385,0.06868304,0.4776249,0.04138973,0.8643737,-19.97483,23.0405,-35.17007,1008.135
6.605493069,7.774197,-1.922737,0.1908611,0.4886886,0.08632283,0.8690934,-19.59119,21.94037,-35.58846,1008.135
6.638270855,0.07122065,-0.3863271,0.06868304,0.497562,0.02988393,0.8667505,-19.93572,20.84199,-36.00592,1008.135
6.671049118,18.02413,-0.977254,-1.641809,0.4816129,0.004652531,0.899559,-19.93572,20.84199,-36.00592,1008.135
6.706348419,43.0588,-6.118318,-2.2527,0.4752972,0.01616642,0.9520251,-19.93572,20.84199,-36.00592,1008.135
6.739126682,80.45551,-10.90482,-0.9698303,0.4510994,-0.0181347,0.9511714,-20.30728,21.20135,-36.44628,1008.134
6.804682255,346.643,-55.63799,8.376789,0.5350918,-0.06205996,0.6968794,-20.26777,18.93616,-37.71629,1008.14
6.837460041,496.4162,-91.27087,32.8124,0.5276741,0.5696666,0.5005121,-21.28312,14.53072,-40.19463,1008.14
6.872759819,507.8464,-101.7303,70.44323,0.6891162,1.04691,0.2982006,-21.28312,14.53072,-40.19463,1008.138
6.905537605,418.9516,-73.42488,97.93329,0.6957015,1.10223,0.1209605,-23.93979,0.9609237,-37.86355,1008.138
6.938315868,312.8493,-38.38292,116.4433,0.701729,1.007928,0.07006397,-27.00083,-13.21061,-30.73519,1008.138
6.971093655,204.6349,-15.33678,114.183,0.6356836,0.7986439,0.03010166,-27.00083,-13.21061,-30.73519,1008.138
7.006392479,119.2189,5.345663,95.48973,0.7495075,0.4845183,-0.1044762,-29.75205,-21.18773,-23.70479,1008.138
7.039171219,86.85394,20.05974,76.36887,0.8387275,0.3156253,-0.1958919,-31.90448,-22.59948,-20.69543,1008.138
7.071949005,70.39194,35.06928,58.28652,0.9024029,0.2914282,-0.1801216,-31.90448,-22.59948,-20.69543,1008.136
7.104726791,61.57079,43.46044,40.14308,0.8501344,0.2184304,-0.1789249,-34.08532,-22.56453,-18.51705,1008.138
7.137505055,59.76929,52.85618,15.58529,0.8650833,0.2634059,-0.1727704,-34.82772,-21.83985,-18.96268,1008.138
7.172803879,45.41939,64.61562,-8.850313,0.8496403,0.2162706,-0.2087649,-34.82772,-21.83985,-18.96268,1008.138
7.205581665,56.72537,77.91148,-29.13187,0.8345454,0.2301316,-0.2284858,-34.82772,-21.83985,-18.96268,1008.136
7.238360405,40.57397,95.87565,-42.14383,0.849708,0.392595,-0.206624,-34.08073,-22.94679,-19.81665,1008.135
7.271138191,40.94669,114.8444,-48.3749,0.7937025,0.4491496,-0.2710788,-34.08073,-22.94679,-19.81665,1008.135
7.303915978,27.71497,153.491,-53.50638,0.8040626,0.5548128,-0.4272239,-32.2361,-24.43183,-21.47437,1008.133
7.339215279,-5.271166,212.7019,-64.74677,0.6171753,0.3233055,-0.4360589,-29.6495,-26.71502,-23.61788,1008.133
7.371993065,133.0097,246.4438,-28.21553,1.210067,2.043263,0.002795368,-29.6495,-26.71502,-23.61788,1008.133
7.404770851,259.8603,-89.79356,1.656997,-1.078171,-0.621256,-0.4561264,-24.47186,-28.24372,-27.89058,1008.133
7.437549591,92.32057,-133.463,-18.68565,1.954447,1.108079,0.4294072,-17.88589,-30.51143,-32.65088,1008.133
7.472848415,30.63464,12.20041,-13.67635,0.3475064,0.5071926,0.1376054,-20.81756,-28.98132,-27.88382,1008.133
7.505626202,-17.13623,-34.12825,0.1908611,0.775263,0.7411446,0.2084425,-20.81756,-28.98132,-27.88382,1008.133
7.538404465,-22.7271,-10.19571,4.955804,0.7731036,0.8650275,0.3762561,-20.78989,-30.43397,-27.48794,1008.133
7.571182251,-111.9947,-33.30095,7.09392,0.5690585,0.7439858,0.5848708,-21.16812,-29.70932,-27.87189,1008.133
7.603960037,-192.8138,-54.39704,-1.947255,0.6388897,0.7704266,0.5211256,-21.16812,-29.70932,-27.87189,1008.137
7.639259815,-376.6913,-69.28839,-17.21951,0.6964332,0.8550587,0.4356605,-21.92695,-28.27955,-30.06943,1008.133
7.672037601,-462.3558,-67.22015,-60.104,0.6916923,0.1607887,0.2672788,-23.12286,-23.17861,-34.87326,1008.135
7.704815388,-370.355,-58.53353,-107.2036,0.6611557,-0.06187094,0.2922363,-23.12286,-23.17861,-34.87326,1008.135
7.737593651,-316.869,-36.07831,-138.6034,0.7205071,0.08987836,0.2610596,-24.80319,-11.50589,-38.9717,1008.135
7.772892952,-239.6528,10.07308,-148.6831,0.7950402,0.1892213,0.2395532,-25.35699,-1.234096,-38.69751,1008.135
7.805671215,-167.717,49.07425,-146.606,0.7331091,0.3234895,0.3617636,-25.35699,-1.234096,-38.69751,1008.135
7.838449001,-104.1674,68.57483,-131.3338,0.603957,0.3432672,0.489601,-26.21859,6.140905,-37.07168,1008.133
7.871226788,-67.08134,60.12458,-110.0137,0.5867444,0.4740874,0.6925793,-25.53245,8.313892,-37.97722,1008.133
7.904005527,-60.86926,67.68844,-86.43336,0.5990669,0.6144381,0.7597292,-25.53245,8.313892,-37.97722,1008.133
7.939304352,-74.03886,65.85657,-57.17173,0.4676706,0.5557407,0.8814324,-24.82458,9.405458,-37.99535,1008.133
7.972082138,-55.8996,54.74715,-35.54621,0.4632524,0.3796878,0.9235868,-22.64978,9.740885,-39.74435,1008.133
8.004860401,-3.718147,37.90573,-20.6405,0.438591,0.3396656,0.9410346,-22.64978,9.740885,-39.74435,1008.132
8.037638187,41.2573,8.654853,-8.239423,0.3833619,0.3159171,1.094274,-21.94907,11.26357,-39.33405,1008.132
8.072937489,33.55432,-9.900249,3.123134,0.4571466,0.512673,1.004269,-19.77886,11.98127,-39.78344,1008.132
8.105715752,-9.309016,-7.950191,4.283825,0.4104167,0.3074255,0.7510121,-19.77886,11.98127,-39.78344,1008.136
8.138493538,8.706009,-6.236503,3.489668,0.4499373,0.2132285,0.6750052,-20.46532,9.735649,-39.74717,1008.138
8.171271324,18.64533,1.031897,4.161647,0.4661465,0.3536451,0.7469594,-20.8455,10.51425,-40.62934,1008.136
8.204049587,9.078733,1.918288,2.939867,0.455055,0.3456593,0.8726332,-20.8455,10.51425,-40.62934,1008.136
8.239348888,9.5757,-1.154532,1.595908,0.4764118,0.3421738,0.8360043,-20.84477,10.52019,-40.19423,1008.136
8.272126675,12.93022,-0.3272345,3.428579,0.4593654,0.3573892,0.8032891,-20.46594,9.730555,-40.12012,1008.134
8.304904938,10.38327,0.4409704,4.222736,0.4836075,0.366621,0.7709665,-20.46594,9.730555,-40.12012,1008.134
8.337682724,9.078733,4.518365,4.955804,0.4699748,0.3785593,0.7531704,-20.45918,9.366117,-40.11439,1008.132
8.372982502,5.227245,5.93659,6.544119,0.4398673,0.3873659,0.7951071,-20.8166,9.001703,-40.17035,1008.131
8.405760288,-3.904509,4.40018,9.59857,0.4888752,0.4094621,0.8320224,-20.8166,9.001703,-40.17035,1008.131
8.438538075,-14.6514,3.927438,10.94253,0.4690602,0.370851,0.8364598,-20.44576,8.636395,-40.16509,1008.131
8.471315861,-16.32866,3.100141,9.109858,0.4531464,0.3234389,0.831274,-20.08699,9.011845,-39.30107,1008.132
8.504094124,-13.03626,-1.213625,7.826988,0.4225964,0.3036156,0.818861,-20.08699,9.011845,-39.30107,1008.132
8.539393425,-6.699944,-2.159107,6.727386,0.4649316,0.2629574,0.804381,-19.36695,9.363499,-40.1158,1008.132
8.572171688,-2.662094,-2.277293,1.046107,0.4065561,0.3239354,0.8886658,-20.47997,10.52526,-39.75958,1008.132
8.604949474,0.8166699,-6.531966,-3.535569,0.443533,0.2854904,0.8486831,-20.12411,10.87694,-40.63601,1008.137
8.637727261,19.51502,-6.295596,-9.64447,0.4790769,0.2337662,0.7918761,-20.12411,10.87694,-40.63601,1008.137
8.673027038,33.4922,-5.586483,-14.95922,0.4506975,0.3256128,0.7966185,-20.11589,10.52439,-39.76006,1008.137
8.705804825,14.98021,-4.995556,-16.85298,0.4641269,0.3968722,0.8022556,-20.10124,9.734776,-39.74764,1008.138
8.738582611,14.48324,1.09099,-19.66307,0.4725327,0.3265648,0.7672023,-20.10124,9.734776,-39.74764,1008.138
8.771360874,18.21049,2.509214,-29.25405,0.4371746,0.2953237,0.7995844,-20.81129,8.625378,-41.03484,1008.138
8.804138660,30.821,-1.627273,-35.54621,0.4877468,0.2741603,0.8471512,-20.79632,7.908393,-40.15316,1008.14
8.839437485,45.29515,-4.759186,-44.5263,0.4857554,0.2915599,0.830282,-20.79632,7.908393,-40.15316,1008.138
8.872216225,56.91173,-8.304747,-47.64184,0.3975205,0.4177378,0.7311406,-20.78279,7.179519,-40.1417,1008.14
8.904994011,53.37085,-7.0638,-46.1757,0.486612,0.518076,0.6951573,-21.1063,4.99377,-40.10685,1008.138
8.937771797,59.83141,0.9137118,-39.08937,0.4647838,0.501574,0.6596132,-21.1063,4.99377,-40.10685,1008.138
8.970550060,79.21309,8.654853,-34.14117,0.4552491,0.619913,0.5992872,-20.68803,2.07825,-39.99932,1008.138
9.005849361,28.02557,22.42345,-40.86096,0.4222607,0.8165912,0.6265066,-21.73868,-0.1673427,-40.02474,1008.138
9.038627625,-38.87851,31.05098,-54.97252,0.3912807,0.5875176,0.710201,-21.73868,-0.1673427,-40.02474,1008.14
9.071405411,10.32115,26.8554,-65.1133,0.2740129,0.2604494,0.603147,-20.59235,-3.085456,-39.9803,1008.14
9.104183197,76.54189,10.42763,-66.94597,0.2420097,0.6588858,0.6469077,-20.229,-3.092273,-40.41589,1008.14
9.139482975,34.48613,10.01398,-74.39883,0.2475299,0.8268971,0.8478506,-20.229,-3.092273,-40.41589,1008.14
9.172260761,52.00419,-3.045498,-75.1319,0.2240877,0.6528599,0.7124245,-19.10296,-4.917076,-40.38865,1008.14
9.205038548,48.96027,-4.463722,-80.87426,0.2810438,0.794492,0.7000419,-18.69759,-7.098627,-39.91962,1008.14
9.237816811,-16.63927,9.068501,-76.41476,0.2114575,0.8622839,0.727061,-18.69759,-7.098627,-39.91962,1008.14
9.270594597,-74.90855,26.0281,-69.26735,0.1936401,0.8043486,0.75174,-17.54942,-10.07154,-39.43913,1008.14
9.305893421,-97.769,39.7376,-64.01369,0.1735934,0.6580704,0.7520081,-16.75309,-10.43192,-38.99931,1008.14
9.338672161,-82.98426,42.33768,-52.10134,0.1152843,0.6771491,0.7641517,-16.75309,-10.43192,-38.99931,1008.142
9.371449947,-104.975,58.23361,-45.32045,0.1637967,0.6879708,0.7211791,-15.32528,-8.98955,-39.89433,1008.142
9.404227734,-116.6537,74.89775,-39.517,0.06640778,0.5980071,0.7181761,-13.19676,-6.024494,-40.37906,1008.142
9.439527035,-132.3082,88.90272,-31.51434,-0.01713647,0.620132,0.7785112,-10.33282,-3.491455,-41.23099,1008.144
9.472304821,-111.7462,102.7304,-29.19296,-0.1157479,0.4141015,0.6851901,-10.33282,-3.491455,-41.23099,1008.144
9.505083561,-61.17987,116.3217,-36.1571,-0.2744077,0.3591034,0.6712084,-7.440036,0.8797565,-40.93063,1008.144
9.537861347,-34.77853,129.8539,-46.78659,-0.4622363,0.4992909,0.5352172,-4.608226,5.318648,-40.13388,1008.144
9.570639133,-177.9669,156.3275,-73.66576,-0.569912,1.074561,0.6053658,-4.608226,5.318648,-40.13388,1008.144
9.605938911,-46.39512,116.9717,-49.47451,-0.9627486,-0.5835485,1.536381,0.5367407,6.041103,-39.71689,1008.145
9.638716221,162.0201,58.88363,-52.95658,-0.5700634,0.1291941,0.6727375,4.792508,12.31058,-38.08044,1008.145
9.671494007,7.587835,87.12994,-49.35233,-0.3825741,0.5549715,0.8824875,4.792508,12.31058,-38.08044,1008.144
9.704272747,-25.14981,78.79787,-43.73214,-0.7120943,0.2656173,0.8509726,6.633178,11.2129,-38.0656,1008.142
9.739571571,-13.96807,67.92481,-38.35631,-0.6946185,0.2439673,0.7282166,9.272751,9.705992,-36.73976,1008.146
9.772349358,-7.755997,49.19243,-36.89017,-0.7893147,0.2369512,0.6735765,9.272751,9.705992,-36.73976,1008.144
9.805128097,-5.271166,33.65106,-41.04422,-0.6926329,0.2158681,0.6772298,11.06497,11.22012,-36.76598,1008.144
9.837905407,-6.451461,29.33729,-42.266,-0.7718509,0.2575473,0.7428201,11.41697,11.96001,-35.90769,1008.146
9.870683193,-5.768132,23.78258,-43.18234,-0.723321,0.06307417,0.7338523,11.41697,11.96001,-35.90769,1008.146
9.905982971,2.245448,30.22368,-42.266,-0.6773509,0.1382587,0.7745457,12.50317,12.32777,-35.47972,1008.146
9.938760757,-14.0302,40.5649,-37.62324,-0.7928758,0.1106468,0.7247996,13.58937,12.69553,-35.05175,1008.144
9.971539497,-24.46649,50.49247,-36.40146,-0.8234155,0.08239673,0.6912193,13.58937,12.69553,-35.05175,1008.144
10.004317284,-42.48151,53.74257,-33.4081,-0.8529726,0.04726269,0.6470571,13.94127,13.43457,-34.25561,1008.144
10.039616108,-73.04494,63.55196,-34.5077,-0.8401843,-0.03291615,0.5879401,15.0154,14.5431,-32.96888,1008.144
10.072394371,-83.72971,71.47038,-31.26998,-0.8858129,-0.02750777,0.6501359,15.0154,14.5431,-32.96888,1008.147
10.105172157,-100.0053,74.83865,-20.27396,-0.8975136,-0.01823946,0.5962372,16.80416,16.37875,-31.69454,1008.147
10.137949944,-114.9143,85.77081,-11.59932,-0.9134627,-0.05963828,0.545313,17.89946,19.75232,-29.13788,1008.147
10.170728684,-132.6187,91.38461,0.2519501,-1.022154,-0.07451039,0.638496,17.89946,19.75232,-29.13788,1008.147
10.206027508,-127.8976,79.74335,20.71677,-1.025991,-0.07480705,0.7405543,18.96432,21.62453,-25.3141,1008.145
10.238805771,-135.9733,70.52489,28.53616,-0.7698245,-0.1866128,0.7434847,21.46593,24.59251,-21.07427,1008.145
10.271583557,-141.0051,73.06588,33.85091,-0.9898109,-0.2191394,0.5327377,21.46593,24.59251,-21.07427,1008.143
10.304361343,-141.2535,53.44711,27.13112,-1.078334,-0.3858667,0.4061195,23.27465,25.75193,-15.93463,1008.143
10.339661121,-90.93571,21.06432,18.63974,-1.066043,-0.4374386,0.4692265,25.45286,26.53502,-11.59779,1008.143
10.372438908,-25.58466,-17.10956,8.682235,-0.9407015,-0.2146463,0.699647,26.18069,26.95035,-7.750613,1008.143
10.405216694,-64.41015,-56.11073,-7.933978,-0.7579769,-0.2501568,0.8364552,26.18069,26.95035,-7.750613,1008.141
10.437994957,0.8787907,-86.66164,7.216098,-0.40662,-0.2265265,0.5202944,27.34785,26.22466,-7.305531,1008.14
10.470772743,21.75137,-89.49809,46.19089,-0.3717513,0.8289745,0.4902205,27.35992,25.48389,-8.164293,1008.136
10.506072044,-207.1637,-56.22891,57.37018,-0.6862813,0.4089748,0.70388,27.35992,25.48389,-8.164293,1008.136
10.538850307,-99.63263,-101.8485,74.53619,-0.7871981,-0.08004269,0.4709146,26.59668,24.01615,-9.010578,1008.136
10.571628094,-42.17091,-129.0311,88.83102,-0.7819337,0.3834921,0.5862117,26.62591,22.57623,-7.682323,1008.135
10.604406834,-85.90393,-117.7444,117.7261,-0.8180779,0.4475565,0.4571959,26.62591,22.57623,-7.682323,1008.135
10.639705658,-90.62511,-107.5805,129.2719,-0.8395362,0.2777249,0.433916,25.92657,20.71504,-10.63636,1008.135
10.672483444,-117.7098,-92.98456,127.256,-0.9500577,0.3964096,0.4046362,26.35335,17.37944,-10.14919,1008.135
10.705261707,-165.8534,-66.86559,122.43,-0.8949743,0.3052562,0.3974225,26.35335,17.37944,-10.14919,1008.137
10.738039493,-172.5003,-48.90142,102.7593,-1.02964,0.1687365,0.3979477,26.03119,15.20473,-9.306275,1008.137
10.770817280,-166.6609,-34.30553,85.16569,-0.9655232,0.1448646,0.319851,25.33299,13.7725,-7.541969,1008.137
10.806117058,-110.7522,-13.91855,71.1763,-1.117568,-0.03618056,0.31182,25.33299,13.7725,-7.541969,1008.139
10.838894844,-73.29342,-5.645576,65.6172,-1.130385,0.05314799,0.356001,25.34411,13.44373,-4.925569,1008.139
10.871672630,-71.42979,10.42763,56.39276,-1.148758,0.01937247,0.3536887,25.38821,11.28597,-2.777789,1008.139
10.904450893,-34.21945,20.70976,56.75929,-1.150463,-0.106747,0.2191015,25.38821,11.28597,-2.777789,1008.139
10.937228680,-9.122654,27.03268,55.29316,-1.183639,-0.005926535,0.3995389,25.78409,9.796331,-0.5788257,1008.139
10.972528458,12.93022,32.70557,47.71812,-0.953104,0.01245605,0.2444473,26.17885,8.367432,1.619183,1008.139
11.005306244,43.68,49.01516,48.39009,-0.9679814,0.1671021,0.3689222,26.17885,8.367432,1.619183,1008.141
11.038084030,36.474,38.37847,38.49368,-0.8913383,0.3090043,0.9322011,25.47919,6.923316,2.513266,1008.141
11.070862293,39.08307,20.17793,22.06073,-0.9237143,-0.02976698,0.5809131,25.13737,5.847011,3.711943,1008.141
11.106161594,71.32375,23.48712,19.12846,-0.8667929,0.1290047,0.5819829,25.13737,5.847011,3.711943,1008.141
11.138939381,58.77536,18.99607,11.43124,-0.846219,0.05015942,0.5652053,25.15838,4.759644,4.164245,1008.143
11.171717644,68.21771,19.88246,-2.924679,-0.876785,0.2442452,0.5669106,24.80855,4.037586,4.611287,1008.143
11.204495430,39.58004,28.33272,-14.4705,-0.8276874,0.219252,0.5557606,24.80855,4.037586,4.611287,1008.143
11.237273216,26.28619,37.84664,-20.6405,-0.8776143,0.1949354,0.6208994,24.08258,4.057163,5.917562,1008.145
11.272572994,8.830251,49.84245,-22.04554,-0.9052286,0.1537623,0.5464159,24.0623,5.150474,5.900372,1008.145
11.305350781,9.824183,65.67929,-19.84634,-0.7871648,0.1119067,0.4788083,24.0623,5.150474,5.900372,1008.147
11.338129044,-9.930224,77.32055,-19.11327,-0.9769784,0.09079807,0.4730327,22.60141,5.536233,7.201856,1008.147
11.370906830,-0.4878663,80.21609,-15.0203,-1.064469,0.1038426,0.3528801,21.49928,6.297445,9.367364,1008.147
11.406206131,3.674226,87.89814,-20.15178,-0.9582298,0.1415463,0.3241709,20.77393,6.322116,11.04659,1008.147
11.438984394,1.996965,89.19818,-26.19959,-1.04562,0.12433,0.2647153,20.77393,6.322116,11.04659,1008.151
11.471762180,4.419675,96.23021,-25.52762,-1.085303,0.06699899,0.2624891,19.67254,7.089271,13.64721,1008.153
11.504539967,-0.7363495,104.385,-20.76267,-1.173659,0.04782986,0.20352,19.30533,7.4843,15.81751,1008.153
11.537318230,4.730279,110.5306,-14.77595,-1.165444,0.04828352,0.1187802,19.30533,7.4843,15.81751,1008.153
11.572617531,8.146922,111.2988,-18.56347,-1.104845,0.07657877,0.05264723,17.77159,8.610117,17.91568,1008.153
11.605395794,10.75599,109.9988,-26.87157,-1.124307,0.0783195,-0.02384575,15.94807,9.008636,20.08785,1008.154
11.638173580,10.44539,108.3442,-31.39216,-1.153947,0.07725053,-0.07191002,15.94807,9.008636,20.08785,1008.154
11.670951366,-2.227248,108.0487,-36.40146,-1.19901,0.04046396,-0.05490002,14.85802,9.029085,21.3946,1008.154
11.706251144,-23.28619,107.9897,-38.47849,-1.27237,0.04125792,-0.1327078,13.02088,10.15563,23.49316,1008.154
11.739028931,-44.96634,105.7441,-33.34701,-1.295872,0.1208622,-0.143362,13.02088,10.15563,23.49316,1008.154
11.771806717,-63.35409,69.52032,-16.05882,-1.382277,0.07912005,-0.2990554,11.91836,10.98352,26.09282,1008.154
11.804584980,-36.26943,10.78219,6.48303,-1.210106,-0.02921579,-0.2564593,11.56435,10.57705,27.40531,1008.154
11.837362766,-11.54536,-28.51444,16.44054,-1.024959,-0.05771363,-0.09463655,11.56435,10.57705,27.40531,1008.154
11.872662544,1.996965,-61.60634,10.20946,-1.025853,-0.08985209,-0.09266054,12.31424,9.493885,28.29179,1008.153
11.905440330,12.37113,-71.7112,5.200161,-0.9863463,-0.1766968,-0.1619394,15.59301,9.503014,29.53073,1008.153
11.938218117,93.74935,-73.48398,3.856202,-1.01341,-0.2648364,-0.3374394,15.59301,9.503014,29.53073,1008.153
11.970996380,133.9415,-80.81147,5.566695,-0.9914716,-0.1011498,-0.3579554,18.9357,9.118689,28.66193,1008.149
12.006295681,128.4749,-75.49313,3.672935,-0.874622,-0.2422705,-0.4109696,22.53052,11.32251,26.07339,1008.147
12.039073467,173.5124,-82.46606,13.69153,-0.8397495,-0.1984024,-0.3779045,22.53052,11.32251,26.07339,1008.147
12.071851730,150.155,-88.67079,19.49499,-0.7400039,-0.04840689,-0.2195178,25.76833,13.09524,22.99473,1008.147
12.104629517,123.1946,-81.69786,28.23072,-0.6795065,-0.1505013,-0.1256419,28.70065,14.8517,18.67328,1008.146
12.137407780,151.9565,-81.81604,28.9027,-0.6857041,-0.1896716,-0.0779133,28.70065,14.8517,18.67328,1008.142
12.172707081,164.8155,-78.68413,22.54944,-0.7354804,-0.06263433,0.04042829,30.83063,17.33894,14.3414,1008.142
12.205484867,172.27,-76.43861,20.77786,-0.7583083,-0.055849,0.06309621,32.62273,18.3625,9.535627,1008.14
12.238263130,193.9502,-73.12942,22.12182,-0.8098961,-0.004069509,0.07710002,32.62273,18.3625,9.535627,1008.14
12.271040917,204.0759,-69.40658,20.77786,-0.8886209,0.02662133,0.1027526,33.69428,19.03017,5.2338,1008.137
12.306340218,191.6517,-65.62465,22.244,-0.9058141,0.1198565,0.1536773,34.78477,18.59349,0.1410975,1008.137
12.339118481,162.2686,-53.74702,18.08994,-0.9152117,0.2049875,0.2204805,35.51783,17.79239,-5.007564,1008.135
12.371896267,108.4099,-40.33298,10.27055,-0.9886765,0.2824391,0.3105527,35.51783,17.79239,-5.007564,1008.133
12.404674530,67.5965,-35.42829,3.672935,-0.9429375,0.2479482,0.3384151,35.16822,16.6524,-8.470798,1008.133
12.437452316,48.02846,-25.44162,-3.596658,-0.8389061,0.2047234,0.3709662,34.8209,15.53109,-10.56654,1008.133
12.472751618,34.48613,-14.80494,-8.117245,-0.7524173,0.1866481,0.3991886,34.8209,15.53109,-10.56654,1008.132
12.505529881,23.73924,0.2636923,-16.54753,-0.7576991,0.1587425,0.3848023,34.81944,15.5192,-11.43676,1008.13
12.538307667,65.29803,9.009409,-29.92603,-0.844899,0.07934605,0.4183428,34.46816,14.78526,-11.85994,1008.132
12.571085453,97.84932,6.645702,-44.89283,-0.9798809,0.2894445,0.4669638,34.46816,14.78526,-11.85994,1008.131
12.603863716,72.69041,8.241204,-60.28727,-1.031687,0.423677,0.431745,34.44715,15.87263,-12.31224,1008.131
12.639163017,2.866656,16.27781,-66.15181,-1.040607,0.4930312,0.4003731,33.71681,15.85654,-13.61664,1008.131
12.671941280,-56.52081,28.27362,-59.73746,-1.058222,0.3488553,0.4198866,33.71681,15.85654,-13.61664,1008.131
12.704719067,-72.92069,42.33768,-54.30054,-1.297277,0.2035015,0.3961233,33.32184,17.70337,-11.90437,1008.129
12.737496853,-32.41795,25.49627,-36.03492,-1.281473,0.08353806,0.3553509,31.8206,20.34753,-9.830159,1008.129
12.772796631,13.55143,10.42763,-14.34832,-1.077145,0.1266744,0.3596148,31.8206,20.34753,-9.830159,1008.129
12.805574417,15.72566,0.5591557,8.621145,-0.9010425,0.1953681,0.361019,32.14629,22.55111,-8.559673,1008.127
12.838352203,-7.880239,-2.513664,21.38875,-0.9040689,0.2420682,0.3566236,31.77545,22.91642,-8.564934,1008.125
12.871130466,-18.25441,-17.22774,32.8124,-0.939559,0.2441187,0.2739104,31.77545,22.91642,-8.564934,1008.124
12.903908253,-23.28619,-26.91894,38.79912,-0.8857186,0.262354,0.2400599,33.2535,21.83151,-7.679399,1008.124
12.939208031,-29.99524,-32.35547,37.88279,-0.9570434,0.2368364,0.2282335,33.99445,21.09495,-8.103992,1008.124
12.971985817,-8.81205,-42.87397,39.22674,-0.976297,0.1529408,0.1634218,33.99445,21.09495,-8.103992,1008.124
13.004763603,36.10127,-50.85148,42.95317,-0.8796577,0.1463479,0.1497244,35.47708,19.62776,-8.518063,1008.122
13.037541866,66.16772,-47.95594,49.00099,-0.8326983,0.2107121,0.1740655,36.27848,18.81928,-9.749842,1008.122
13.072841167,67.47227,-37.20107,52.60524,-0.8745751,0.2630731,0.1899708,36.27848,18.81928,-9.749842,1008.12
13.105619431,62.56472,-31.64636,53.39939,-0.8765887,0.2907337,0.1778998,37.05033,16.23675,-11.88623,1008.12
13.138397217,42.31335,-20.30056,47.16832,-0.8607005,0.3528972,0.2032806,37.80867,14.3831,-14.03408,1008.12
13.171175003,7.339352,-11.61394,40.14308,-0.886462,0.3633837,0.2014005,37.80867,14.3831,-14.03408,1008.12
13.203953266,-22.66498,-4.109166,32.14042,-0.8800439,0.32266,0.2207011,38.23817,10.72003,-15.28258,1008.12
13.239252567,-44.46938,1.741009,22.48835,-0.956199,0.2889095,0.221414,38.63042,9.20067,-15.25918,1008.124
13.272030354,-55.09203,8.418482,10.94253,-1.061492,0.2558665,0.2188254,38.63042,9.20067,-15.25918,1008.124
13.304808617,-47.01633,8.891224,-2.619234,-1.149757,0.2164148,0.2547149,39.01478,8.106485,-15.24246,1008.124
13.337586403,-30.61644,22.42345,-25.89415,-1.346409,0.218364,0.2811719,39.02227,7.747992,-14.80162,1008.124
13.372886181,22.49682,13.9141,-42.44927,-1.384541,0.1034068,0.1846819,39.00948,8.482809,-14.37796,1008.124
13.405663967,73.00101,4.695643,-51.7348,-1.068944,0.1400385,0.3104763,39.00948,8.482809,-14.37796,1008.123
13.438441753,87.28879,-5.645576,-37.68433,-0.8238173,0.1912726,0.3796152,38.97527,10.37168,-13.97246,1008.121
13.471220017,60.26625,1.504639,-25.58871,-0.7088779,0.2521704,0.3840643,38.97454,10.36573,-14.40757,1008.121
13.503997803,25.16801,6.645702,-18.01367,-0.8821679,0.1995961,0.2459224,38.97454,10.36573,-14.40757,1008.119
13.539297581,17.58928,5.168385,-11.84368,-0.8768468,0.1993226,0.2001809,38.97495,10.29905,-14.84173,1008.121
13.572075367,15.8499,9.718521,-19.35763,-0.9259059,0.2133017,0.2383037,38.59694,11.09548,-14.41856,1008.121
13.604853153,33.11947,7.945741,-26.68831,-0.8840557,0.1792152,0.2589544,38.59694,11.09548,-14.41856,1008.119
13.637631416,59.45868,7.05935,-30.78127,-0.7943107,0.2200549,0.2808226,38.96633,10.71828,-15.28352,1008.119
13.672930717,57.28445,12.85043,-31.39216,-0.7735935,0.2949785,0.3143559,38.94604,11.8116,-15.30071,1008.119
13.705708504,21.50289,18.93698,-31.88087,-0.8071851,0.3372779,0.3442163,38.94604,11.8116,-15.30071,1008.119
13.738486767,-19.62107,24.31441,-32.49176,-0.8504459,0.3569189,0.3491029,38.9528,11.44716,-15.29498,1008.119
13.771264553,-50.99206,26.97359,-34.01899,-0.8881963,0.306009,0.3574523,38.57666,12.18879,-14.43575,1008.119
13.804042339,-61.49047,26.08719,-31.33107,-0.9414592,0.2427403,0.3581553,38.57666,12.18879,-14.43575,1008.119
13.839342117,-47.63754,24.31441,-26.13851,-0.9830956,0.1872274,0.3395647,38.91587,13.6635,-13.1538,1008.117
13.872119904,-31.85886,22.89619,-22.47317,-1.052551,0.2020103,0.3777347,38.8857,15.5154,-11.0069,1008.119
13.904898167,-18.06805,14.62321,-16.97515,-1.093817,0.1977329,0.372544,38.8857,15.5154,-11.0069,1008.119
13.937675953,4.916641,3.277419,-9.400114,-1.030279,0.2279589,0.3704223,38.50279,16.62148,-10.15339,1008.119
13.972974777,-26.14375,15.5687,-14.83704,-1.487491,0.3574798,0.4252241,38.84731,17.71986,-9.73594,1008.117
14.005753517,1.810602,-25.14616,7.643721,-1.387064,0.152414,0.2313062,38.84731,17.71986,-9.73594,1008.117
14.038531303,43.49364,-44.58765,33.54546,-0.9403443,0.1530616,0.2076216,38.11843,17.71566,-10.17011,1008.119
14.071309567,27.09376,-30.34632,62.74602,-0.8570218,0.2532476,0.2968063,39.21597,17.33672,-11.03602,1008.121
14.104087353,-14.77565,-23.07792,73.86421,-1.044966,0.2532428,0.2418955,39.21597,17.33672,-11.03602,1008.12
14.139386177,-25.83314,-28.63263,73.92531,-1.020765,0.2719205,0.1671988,38.51268,15.86288,-12.31749,1008.118
14.172164917,-27.88313,-25.79618,66.41135,-1.047125,0.3271189,0.152256,38.93012,12.94057,-12.70723,1008.118
14.204942703,-30.1816,-30.93724,62.80711,-0.9707392,0.2604147,0.1334022,38.93012,12.94057,-12.70723,1008.118
14.237720490,-22.85135,-28.51444,63.05146,-0.8297814,0.2042243,0.1480748,39.67565,11.82174,-14.43143,1008.117
14.273020268,-18.00593,-21.00967,63.35691,-0.7972969,0.2249509,0.1479665,38.9945,9.199797,-15.25965,1008.117
14.305798054,-26.64071,-14.15492,59.56939,-0.8148929,0.2704783,0.132536,39.0202,7.731009,-16.04479,1008.117
14.338576317,-41.67394,-10.37299,48.69554,-0.8329048,0.2867869,0.1181133,39.0202,7.731009,-16.04479,1008.117
14.371354103,-46.6436,-8.186562,34.70616,-0.8818916,0.2599678,0.102385,39.42339,5.531627,-16.88111,1008.121
14.404131889,-39.49971,-11.1412,21.99964,-0.836193,0.2374718,0.104236,39.80629,4.425556,-17.73461,1008.121
14.439431667,-29.99524,-6.059225,8.132433,-0.8749923,0.2242323,0.1380433,39.80629,4.425556,-17.73461,1008.121
14.472209454,-12.66354,-2.809127,-3.230124,-0.9715975,0.212668,0.1320321,39.0849,4.062864,-17.72794,1008.121
14.504987717,9.078733,1.563731,-16.91406,-1.015795,0.2222307,0.1595602,39.06462,5.156175,-17.74513,1008.121
14.537765503,24.48469,6.17296,-30.23147,-1.018754,0.2512958,0.2105477,39.06462,5.156175,-17.74513,1008.118
14.570543289,13.30295,27.20996,-52.46787,-1.179214,0.3651903,0.3229139,39.79277,5.15443,-17.74607,1008.118
14.605843067,1.065153,30.28277,-68.4121,-1.351012,0.3091404,0.2434998,39.05182,5.890993,-17.32148,1008.12
14.638620853,3.612105,25.14171,-71.03893,-1.073192,0.2959684,0.3266177,39.05182,5.890993,-17.32148,1008.12
14.671398640,-6.824185,20.00065,-50.94064,-0.8215271,0.2517745,0.3925153,39.7341,8.452194,-16.4923,1008.122
14.704176903,-33.03915,29.51457,-30.78127,-0.7651218,0.2201509,0.3996496,39.68699,11.07503,-15.7253,1008.122
14.739475727,-42.41939,28.98273,-12.94328,-0.9126956,0.1796173,0.2811644,39.68699,11.07503,-15.7253,1008.122
14.772254467,-45.64967,28.86455,-4.757349,-1.04004,0.2281053,0.2631016,39.6614,12.54467,-14.878,1008.122
14.805032253,-35.71035,19.88246,-2.069432,-1.079224,0.1608737,0.2373023,40.0081,13.66088,-13.15521,1008.124
14.837810039,12.68174,6.586609,-0.7865632,-0.9023101,0.09374793,0.2470925,40.0081,13.66088,-13.15521,1008.124
14.870588303,52.6254,4.222902,-0.4811181,-0.7922345,0.1660982,0.2934144,40.72492,14.40584,-11.86228,1008.124
14.905887604,54.92387,7.70937,2.023532,-0.7924601,0.2666266,0.3221452,40.37363,13.6719,-12.28546,1008.125
14.938664913,27.77709,11.07765,2.573333,-0.8144627,0.3337744,0.3394252,40.37363,13.6719,-12.28546,1008.124
14.971443653,-11.359,15.5687,-1.275275,-0.863516,0.3397602,0.3486784,40.74448,13.30659,-12.2802,1008.124
15.004221439,-27.1998,14.44594,-3.596658,-0.866726,0.2568168,0.331482,41.11531,12.94128,-12.27494,1008.125
15.039521217,-22.16802,15.62779,-7.261999,-0.8720118,0.236928,0.3493349,41.11531,12.94128,-12.27494,1008.125
15.072299004,-20.42863,15.80507,-9.400114,-0.9507146,0.2543252,0.3543089,41.83743,13.30991,-11.8465,1008.125
15.105076790,-28.44221,16.86874,-13.12654,-1.062049,0.3133519,0.3617045,41.83212,13.68624,-10.982,1008.125
15.137855053,-36.82852,11.90495,-12.33239,-1.166915,0.300107,0.3340542,41.83212,13.68624,-10.982,1008.125
15.170632839,-22.78922,-1.98183,-0.6032962,-1.05263,0.215918,0.2766279,42.19152,14.06678,-9.745028,1008.125
15.205932617,-22.60286,3.986531,7.521543,-1.20235,0.2913945,0.3144155,42.1781,14.7965,-9.694329,1008.127
15.238710403,-10.79992,-12.08668,26.0926,-1.163305,0.1923065,0.2360103,42.17134,15.16094,-9.700059,1008.127
15.271488190,12.74386,-15.27768,36.59991,-1.047349,0.2246168,0.1904385,42.17134,15.16094,-9.700059,1008.129
15.304266453,18.45897,-17.75957,52.2387,-0.9318571,0.2603039,0.2108094,42.90553,14.78882,-10.13038,1008.127
15.339565277,-25.77102,-4.995556,51.26128,-0.9348777,0.3076015,0.222298,42.93788,12.95475,-10.97195,1008.127
15.372343063,-53.35265,-0.7408833,48.26792,-1.057762,0.3044926,0.1330608,42.93788,12.95475,-10.97195,1008.127
15.405121803,-59.99957,-1.449995,42.64773,-1.078392,0.4051939,0.1411411,42.96492,11.497,-10.94903,1008.127
15.437899590,-85.2206,3.809253,38.24932,-1.004427,0.3284845,0.0871688,43.36466,9.619144,-10.48479,1008.127
15.470677376,-87.82968,6.054775,39.83764,-0.9018057,0.2541531,0.06056253,43.36466,9.619144,-10.48479,1008.127
15.505977154,-76.2131,11.31402,41.6703,-0.8735541,0.2168804,0.05958897,43.74298,8.89534,-10.03869,1008.127
15.538754463,-58.44655,11.07765,39.10456,-0.8769448,0.2134462,0.06008355,44.47853,8.534252,-9.660943,1008.127
15.571533203,-41.98455,10.95947,32.62913,-0.8604736,0.2326884,0.07590041,44.47853,8.534252,-9.660943,1008.127
15.604310989,-36.7664,12.79134,23.40469,-0.8542517,0.2737551,0.09074598,44.92575,7.457756,-8.338966,1008.127
15.639610767,-45.58755,15.92325,9.842926,-0.9067489,0.305279,0.1346269,45.31084,6.369517,-7.887134,1008.125
15.672388554,-49.06631,12.49588,-0.6032962,-0.9425758,0.269751,0.1814575,45.31084,6.369517,-7.887134,1008.124
15.705166340,-34.09521,7.886648,-3.902103,-0.9177372,0.2413235,0.1958823,45.70341,4.922783,-6.994461,1008.124
15.737944603,-11.42112,4.991107,-4.574082,-0.9138199,0.2307552,0.2122552,45.31301,6.387349,-6.581799,1008.124
15.770722389,2.307569,6.82298,-7.323088,-0.9571263,0.277971,0.260423,45.31301,6.387349,-6.581799,1008.124
15.806021213,-4.898441,15.5096,-21.31247,-1.250604,0.3679503,0.3153773,46.04262,6.397491,-5.712516,1008.122
15.838799953,2.245448,3.336512,-21.67901,-1.139215,0.3021974,0.3912674,45.30698,6.757728,-6.152417,1008.124
15.871577740,-8.190843,3.572883,-13.98179,-0.9776132,0.3475731,0.4187347,45.30698,6.757728,-6.152417,1008.128
15.904355526,-30.30584,2.509214,4.100558,-0.9536818,0.2706321,0.3215588,45.65899,7.497618,-5.294124,1008.128
15.939654827,-12.72566,-15.1595,26.27587,-0.8633176,0.2519414,0.3266676,45.65222,7.862055,-5.299854,1008.126
15.972432613,-9.433258,-25.55981,32.20151,-0.8939136,0.2738319,0.4297186,45.65222,7.862055,-5.299854,1008.128
16.005211353,6.40754,-20.65512,29.69686,-0.9520972,0.2292053,0.3856386,45.28066,8.22142,-5.740226,1008.126
16.037989140,25.97558,-19.35508,22.85489,-0.9528521,0.3260106,0.2998121,45.65681,7.479786,-6.599459,1008.126
16.070766926,42.7482,-13.09125,20.04479,-0.8936328,0.3251826,0.2496113,45.65681,7.479786,-6.599459,1008.126
16.106066704,61.13594,-11.31847,26.21478,-0.8457326,0.3966561,0.2445763,45.68313,6.016095,-7.011651,1008.126
16.138844013,30.1998,-1.213625,31.04081,-0.7688414,0.5403907,0.3004966,45.69447,5.269389,-8.305526,1008.128
16.171622753,-26.39223,19.46881,30.79646,-0.7518002,0.5175151,0.2821989,45.69447,5.269389,-8.305526,1008.128
16.204400539,-58.19807,34.0647,29.75794,-0.7600208,0.4992889,0.2625101,45.37096,3.08364,-8.270676,1008.128
16.239699364,-83.85395,48.83788,25.23736,-0.7463987,0.4887011,0.2644192,46.10806,2.735289,-6.96055,1008.128
16.272478104,-96.65083,60.71551,22.73271,-0.8002239,0.4535253,0.2434199,46.13197,1.671697,-4.767801,1008.128
16.305255890,-83.54334,64.85199,20.71677,-0.843787,0.3947041,0.2416865,46.13197,1.671697,-4.767801,1008.124
16.338033199,-50.30873,61.30643,20.59459,-0.8826752,0.4179581,0.2706253,46.14339,1.275391,-2.647717,1008.122
16.370811939,-31.79674,57.46541,23.28251,-0.8286368,0.56455,0.2746085,46.51859,0.945745,-0.03178668,1008.126
16.406110764,-90.8736,73.95226,19.55608,-0.8006657,0.6360364,0.2253355,46.51859,0.945745,-0.03178668,1008.124
16.438889504,-164.9216,93.0983,7.888077,-0.8869435,0.5523449,0.1303567,46.17843,-0.1169739,2.161431,1008.124
16.471667290,-202.0077,108.876,-5.184972,-1.047918,0.4374672,0.052931,45.84773,-1.522052,5.976509,1008.126
16.504445076,-228.8438,109.1124,-16.05882,-1.155403,0.5090987,0.04730164,45.84773,-1.522052,5.976509,1008.126
16.537223339,-270.0299,107.0442,-15.14248,-0.9790958,0.4915987,0.05027938,45.88059,-2.93225,9.480322,1008.126
16.572522163,-289.101,105.2714,-7.017643,-0.8997879,0.4179866,0.01506281,44.02479,-3.980294,12.48356,1008.126
16.605300903,-280.9011,88.1936,1.962443,-0.8967496,0.3563175,-0.0320249,44.02479,-3.980294,12.48356,1008.126
16.638078689,-237.4165,68.51574,-0.3589401,-0.9097339,0.2930167,-0.08436714,43.71167,-6.500761,14.6997,1008.126
16.670856476,-188.0305,46.41508,-15.44793,-0.9554836,0.3303728,-0.1204171,42.69567,-10.56175,15.20021,1008.126
16.706156254,-152.4974,29.45548,-31.39216,-0.976432,0.3609416,-0.1117489,42.69567,-10.56175,15.20021,1008.126
16.738933563,-133.3642,16.98692,-33.28592,-1.009977,0.3867992,-0.06501625,41.64182,-12.76358,13.93066,1008.126
16.771711349,-130.0097,9.836707,-21.31247,-1.016789,0.3976345,-0.03950425,41.68166,-14.95615,13.52993,1008.126
16.804490089,-133.3642,9.304873,-1.214186,-1.008934,0.3636811,-0.02888174,41.68166,-14.95615,13.52993,1008.126
16.837267876,-131.6248,12.49588,18.39539,-1.053016,0.3164575,-0.04314687,41.67803,-14.98587,11.35437,1008.126
16.872567654,-118.5173,12.90953,37.45516,-1.060199,0.2765576,-0.02911021,42.06094,-16.09194,10.50087,1008.124
16.905345440,-105.6583,14.03229,51.20019,-1.079169,0.2970991,0.006043237,42.06094,-16.09194,10.50087,1008.124
16.938122749,-100.316,12.96862,59.38612,-1.059779,0.3149348,0.02618756,41.72826,-18.00286,8.417544,1008.124
16.970901489,-94.53872,13.61864,61.03552,-1.01806,0.3298103,0.01403214,41.04526,-20.57001,7.153258,1008.124
17.006200314,-95.9675,13.38227,56.45385,-0.9894508,0.3476191,0.01923243,41.04526,-20.57001,7.153258,1008.124
17.038979054,-97.4584,11.84586,48.02356,-0.9554014,0.3266108,0.03891916,39.6341,-23.1354,5.889913,1008.123
17.071756840,-93.35843,7.354814,40.69288,-0.9708554,0.2904177,0.03564083,38.95087,-25.77433,3.818518,1008.121
17.104534626,-87.02211,2.450122,34.58398,-1.007712,0.2731577,0.04923239,38.95087,-25.77433,3.818518,1008.119
17.137312889,-78.3252,-1.922737,26.33696,-1.154311,0.2523862,0.03998417,37.53087,-27.99228,1.306267,1008.119
17.172611713,-53.60113,-15.80952,24.62647,-1.120683,0.2051145,0.06548782,36.40064,-29.48292,-1.279996,1008.119
17.205389500,-21.79529,-24.43705,27.13112,-1.019512,0.1409702,0.1048162,36.04052,-29.86941,-2.952083,1008.119
17.238168240,10.01054,-27.03713,33.85091,-0.8912238,0.1082191,0.1435516,36.04052,-29.86941,-2.952083,1008.117
17.270946026,29.82707,-20.65512,34.82833,-0.8394284,0.1839359,0.183749,34.95963,-30.6135,-4.244549,1008.116
17.306245804,18.27261,-6.354688,28.84161,-0.9095516,0.2771864,0.2304669,33.88841,-31.69825,-3.790838,1008.114
17.339023113,-17.44684,5.28657,16.92925,-1.021854,0.3377632,0.2518219,33.88841,-31.69825,-3.790838,1008.114
17.371800900,-50.99206,11.60949,5.749961,-1.035406,0.322172,0.2672811,33.18054,-32.78982,-3.772708,1008.114
17.404579640,-71.18131,17.57785,-1.519631,-0.9580733,0.2702609,0.2734336,32.82781,-33.53565,-5.066113,1008.112
17.437357426,-83.91607,24.13714,2.7566,-0.9114041,0.246752,0.2685447,32.82781,-33.53565,-5.066113,1008.112
17.472657204,-94.91145,30.16459,7.460454,-0.8958143,0.2234441,0.2598784,32.08395,-32.82286,-6.381969,1008.114
17.505434990,-92.55086,29.04183,8.071344,-0.90789,0.1935237,0.2440671,32.06679,-32.12371,-8.568987,1008.114
17.538212299,-75.52976,26.20538,5.627784,-0.8558893,0.1749598,0.2434904,32.06679,-32.12371,-8.568987,1008.112
17.570991039,-51.79963,25.61445,0.3741281,-0.8393654,0.1682524,0.2396104,32.42879,-32.14156,-9.812634,1008.11
17.606289863,-26.45435,25.31899,-6.651109,-0.8786949,0.1805787,0.3085199,32.78997,-32.16621,-11.55355,1008.11
17.639067650,-31.36189,19.52791,-16.79189,-0.9079481,0.2325211,0.3191009,32.78997,-32.16621,-11.55355,1008.113
17.671846390,-34.03308,16.80964,-27.54355,-0.9428697,0.2136488,0.3086222,32.76968,-31.0729,-11.57074,1008.113
17.704624176,-25.7089,13.38227,-30.53691,-0.9689918,0.1684997,0.2909419,33.11203,-29.99235,-12.45862,1008.113
17.737402439,-12.5393,11.43221,-26.87157,-0.9767519,0.1695863,0.3164708,33.11203,-29.99235,-12.45862,1008.113
17.772701263,4.730279,8.536668,-20.21287,-1.035114,0.2110749,0.3295435,34.19291,-29.24826,-11.16616,1008.111
17.805479050,13.24083,2.686492,-15.57011,-1.034253,0.2512886,0.2981923,34.90682,-28.52707,-11.61367,1008.109
17.838257790,16.22262,6.645702,-15.75337,-1.148941,0.2963339,0.3301663,34.90682,-28.52707,-11.61367,1008.109
17.871035576,19.39078,-2.159107,-13.85961,-1.307684,0.2693355,0.2805219,34.8933,-27.7982,-11.62513,1008.109
17.906335354,51.19662,-18.46869,-0.236762,-1.052577,0.1849307,0.2328706,35.25207,-27.42275,-10.76111,1008.109
17.939112663,69.39801,-23.90521,20.22806,-0.8069365,0.2133671,0.2447605,35.25207,-27.42275,-10.76111,1008.109
17.971890450,35.66643,-3.577332,33.24002,-0.8557575,0.3335957,0.2933126,34.51715,-27.05657,-10.7659,1008.108
18.004669189,-12.72566,-0.9181613,39.4711,-1.01074,0.3617709,0.2589797,35.25352,-27.41086,-9.890882,1008.108
18.037446976,-50.12237,2.686492,34.88942,-1.048147,0.3642003,0.2330713,35.25352,-27.41086,-9.890882,1008.108
18.072745800,-65.71468,-1.272717,29.26923,-1.048467,0.2915188,0.2172966,34.20113,-29.60081,-10.2902,1008.108
18.105524540,-61.42835,-3.636425,35.68358,-0.9006714,0.2163073,0.2199476,33.10744,-29.61008,-11.15902,1008.106
18.138301849,-39.06487,-4.463722,42.40337,-0.8136027,0.1502094,0.2053999,33.10744,-29.61008,-11.15902,1008.106
18.171080589,-17.69532,-2.809127,49.00099,-0.7972242,0.2058849,0.2076839,32.00627,-29.26086,-12.46867,1008.108
18.203858376,-22.16802,1.268268,48.63445,-0.8391631,0.2825302,0.2139256,30.5613,-30.00407,-13.76067,1008.108
18.239157200,-33.7846,2.86377,38.55476,-0.8775225,0.2842387,0.2255667,29.49684,-31.45326,-13.30123,1008.106
18.271935940,-33.59824,0.322785,26.58132,-0.9022268,0.2602146,0.2324005,29.49684,-31.45326,-13.30123,1008.106
18.304713726,-29.12554,-3.281868,13.08064,-0.9002258,0.2343782,0.2266584,28.03086,-31.10911,-15.04552,1008.106
18.337491989,-18.50289,-6.236503,-1.030919,-0.9696113,0.2143848,0.2364803,27.61828,-31.848,-15.84158,1008.106
18.372790814,3.922709,-12.38214,-13.67635,-1.06521,0.1826663,0.2025782,27.61828,-31.848,-15.84158,1008.106
18.405568600,36.7846,-19.29599,-24.73346,-1.10207,0.1618196,0.190663,26.51856,-31.48689,-16.28101,1008.106
18.438347340,64.05562,-23.66884,-34.69097,-1.08464,0.2000859,0.2796159,27.23995,-31.1242,-16.28768,1008.106
18.471125126,76.29341,-15.51405,-49.71886,-1.338756,0.2550009,0.2175588,27.23995,-31.1242,-16.28768,1008.104
18.503902912,102.2599,-26.15074,-54.11728,-1.091019,0.2191862,0.2324288,27.23464,-30.74787,-15.42319,1008.107
18.539202213,109.0311,-20.41875,-54.36163,-0.9789279,0.2583511,0.266762,29.11321,-30.35313,-12.88284,1008.107
18.571979999,93.50087,-15.80952,-37.92868,-0.7983117,0.2712407,0.2923077,29.11321,-30.35313,-12.88284,1008.105
18.604758739,56.60113,1.681917,-29.07078,-0.8756278,0.3128104,0.2698044,30.21656,-30.68452,-10.26785,1008.101
18.637536526,15.78778,8.300297,-19.96852,-0.8781342,0.3479297,0.2803473,31.66153,-29.94131,-8.97585,1008.102
18.672835350,-21.85741,17.87331,-19.78525,-0.9052506,0.3130168,0.2650607,31.66153,-29.94131,-8.97585,1008.105
18.705614090,-29.49827,15.92325,-18.68565,-0.8448443,0.2327331,0.2737029,31.29204,-29.56496,-8.173045,1008.105
18.738391399,-20.18015,15.68688,-20.09069,-0.7971759,0.1975504,0.269792,31.99315,-28.10896,-8.196905,1008.105
18.771170139,-5.084804,14.91868,-21.06812,-0.8307146,0.2128959,0.2756248,31.99315,-28.10896,-8.196905,1008.105
18.803947926,2.680293,12.20041,-20.5794,-0.8414375,0.2323782,0.2886176,32.71319,-27.7573,-9.01164,1008.107
18.839246750,6.656023,11.37312,-18.44129,-0.8613345,0.2323895,0.314177,33.43666,-27.37763,-7.775134,1008.107
18.872025490,6.780265,9.659429,-15.20357,-0.8894762,0.2284459,0.3412059,33.43666,-27.37763,-7.775134,1008.105
18.904803276,9.699941,9.718521,-10.74407,-0.9229771,0.2312492,0.3643865,34.15275,-26.63861,-6.91731,1008.105
18.937581539,5.848453,11.37312,-8.483779,-1.009961,0.2648301,0.3953494,34.1385,-25.91568,-7.363881,1008.105
18.972880363,-4.712079,9.009409,-5.795863,-1.068615,0.2254883,0.4114327,34.1385,-25.91568,-7.363881,1008.105
19.005658150,4.7924,1.150083,0.9239293,-1.024911,0.2183232,0.3790886,34.51006,-26.27505,-6.92351,1008.105
19.038436890,14.42112,-1.33181,8.010255,-0.9724569,0.211385,0.3688661,34.50403,-25.90467,-6.494128,1008.105
19.071214676,-2.227248,9.009409,3.428579,-1.371442,0.3548849,0.4028101,34.50403,-25.90467,-6.494128,1008.105
19.103992462,-3.656026,-13.44581,7.399365,-1.332363,0.2386338,0.307583,34.13319,-25.53936,-6.499389,1008.105
19.139291763,22.7453,-31.58726,24.13775,-0.8971719,0.1840665,0.271975,34.86134,-25.5411,-6.500328,1008.105
19.172069550,-12.72566,-17.34593,38.61585,-0.8764135,0.243976,0.3175648,34.14671,-26.26823,-6.487928,1008.107
19.204848290,-36.26943,-20.95058,48.32901,-1.053555,0.1848188,0.2179509,34.14671,-26.26823,-6.487928,1008.107
19.237626076,-24.09376,-30.70087,44.54149,-1.038729,0.2834241,0.232208,32.70102,-27.01739,-8.215035,1008.107
19.272924900,-30.92705,-28.869,44.23604,-1.077531,0.2580206,0.1976802,31.99242,-28.1149,-8.632017,1008.107
19.305703640,-15.14837,-36.43286,47.96247,-0.9622218,0.1529612,0.1494289,31.99242,-28.1149,-8.632017,1008.108
19.338480949,15.91202,-38.26474,51.87217,-0.7917692,0.144062,0.1355599,30.197,-29.58527,-9.849924,1008.108
19.371259689,28.95738,-28.98718,53.39939,-0.7487022,0.2153427,0.1786729,28.75807,-30.69886,-11.5713,1008.108
19.404037476,21.37865,-22.4279,50.22277,-0.8396047,0.2534099,0.1590953,28.75807,-30.69886,-11.5713,1008.108
19.439336300,9.202975,-16.45954,40.08199,-0.841625,0.2865216,0.1604943,26.90478,-32.14616,-11.11084,1008.108
19.472115040,-12.47718,-9.427507,25.66498,-0.8746626,0.298072,0.180291,25.10467,-33.23511,-11.0913,1008.108
19.504892826,-22.4165,-6.236503,8.92659,-0.9138979,0.2598428,0.1929571,25.10467,-33.23511,-11.0913,1008.112
19.537671089,-17.38472,-4.700093,-7.933978,-0.9410173,0.2269048,0.1815184,23.6597,-33.97832,-12.3833,1008.112
19.572969913,1.996965,-0.7999759,-25.0389,-0.9997074,0.1955846,0.1605249,23.6597,-33.97832,-12.3833,1008.114
19.605747700,25.66498,2.745585,-39.70026,-1.041472,0.2082873,0.2164427,23.6597,-33.97832,-12.3833,1008.114
19.638526440,30.13768,23.84167,-64.44131,-1.347138,0.3115276,0.2319344,24.02378,-33.97919,-12.38377,1008.112
19.671304226,49.51936,10.54582,-73.72684,-1.228927,0.2174314,0.2159109,25.11143,-33.59954,-11.08557,1008.114
19.704082012,55.35871,14.97777,-77.45328,-1.000311,0.2775921,0.3279166,25.11143,-33.59954,-11.08557,1008.114
19.739381313,35.91491,8.300297,-54.72816,-0.7816988,0.2431996,0.3722166,26.90768,-32.12238,-9.370395,1008.116
19.772159100,10.94236,16.75055,-39.45591,-0.7534851,0.2174548,0.3481204,29.12858,-30.64709,-7.717925,1008.116
19.804937839,-7.507514,17.9324,-26.32177,-0.9919877,0.2368059,0.2658626,29.12858,-30.64709,-7.717925,1008.118
19.837715626,-17.44684,14.91868,-19.96852,-1.108509,0.225452,0.2440135,30.56606,-29.54538,-6.866771,1008.118
19.870493412,8.830251,3.277419,-21.61792,-1.11118,0.1191052,0.2225188,31.64477,-28.81913,-6.879641,1008.116
19.905793190,70.70255,-8.895674,-18.19693,-0.918305,0.0839641,0.2601419,31.64477,-28.81913,-6.879641,1008.116
19.938570499,106.919,-10.60936,-14.04288,-0.8024197,0.1601353,0.288634,32.3541,-27.71567,-6.027547,1008.116
19.971349239,115.1189,-8.363839,-9.827738,-0.7603582,0.2364271,0.2831242,32.35628,-27.69784,-4.722212,1008.12
20.004127026,98.78114,-3.813703,-10.07209,-0.7943811,0.2543142,0.3048393,32.35628,-27.69784,-4.722212,1008.118
20.039425850,87.47515,-2.927312,-15.69228,-0.8604349,0.2625966,0.3146107,31.64059,-28.01383,-1.296808,1008.12
20.072204590,59.33444,-3.163683,-21.7401,-0.8601633,0.3547224,0.3250611,32.72221,-27.2638,0.4307699,1008.122
20.104982376,26.47255,6.409331,-25.77197,-0.8571373,0.3044791,0.3102075,33.09595,-27.60533,2.176477,1008.118
20.137760639,14.23476,13.1459,-26.93266,-0.8910555,0.2760184,0.3204394,33.09595,-27.60533,2.176477,1008.118
20.170538425,6.283298,18.99607,-27.849,-0.9643364,0.2608761,0.3321887,33.43444,-26.13657,3.02331,1008.12
20.205837250,3.98483,16.27781,-26.99375,-1.02261,0.2603029,0.3198124,33.77846,-24.97235,3.81276,1008.122
20.238615990,9.265096,14.91868,-25.58871,-1.058053,0.2590532,0.3227865,33.77846,-24.97235,3.81276,1008.124
20.271393776,-10.86204,23.84167,-31.14781,-1.503504,0.3322415,0.3169937,35.2226,-24.23593,4.607485,1008.125
20.304172039,31.50433,-14.03674,-12.8211,-1.430205,0.09865433,0.116444,34.48913,-23.85786,5.472918,1008.125
20.339470863,109.5901,-38.08746,16.01291,-0.9280387,0.06686034,0.1234841,34.48913,-23.85786,5.472918,1008.127
20.372248650,119.5916,-34.01006,48.14574,-0.7505233,0.1778239,0.2485312,35.55432,-22.40273,5.448588,1008.127
20.405027390,85.98425,-19.47326,61.95186,-0.9657371,0.2182967,0.2340584,34.8351,-22.74759,6.760593,1008.127
20.437805176,61.38443,-26.85985,62.44057,-1.121701,0.2442712,0.1645918,34.8351,-22.74759,6.760593,1008.127
20.470582962,70.20557,-36.31468,62.01295,-1.242229,0.2688695,0.06471731,34.13087,-23.80944,8.954282,1008.127
20.505882740,79.39945,-54.45613,55.0488,-1.090524,0.177401,0.036095,33.4155,-24.54251,8.531569,1008.127
20.538660049,100.9554,-55.04706,55.10989,-0.912104,0.09338206,0.06612423,33.4155,-24.54251,8.531569,1008.125
20.571438789,119.1567,-52.50607,55.78187,-0.8995163,0.1105869,0.07377025,31.98955,-26.03967,9.862659,1008.125
20.604216576,129.2203,-55.81526,52.97177,-0.8903947,0.1484343,0.04240305,30.90615,-26.38451,11.11298,1008.127
20.639516354,131.084,-57.88351,38.98239,-0.9231124,0.2164955,-0.006239464,30.90615,-26.38451,11.11298,1008.127
20.672294140,125.4931,-65.32919,16.99034,-0.9518269,0.2344186,-0.05577863,30.54571,-26.35392,13.289,1008.127
20.705071926,131.5809,-75.19766,-7.750711,-0.9106018,0.2506775,-0.07852492,30.53968,-25.98354,13.71838,1008.127
20.737850189,139.7187,-80.98875,-32.91938,-0.9024081,0.273029,-0.09590706,30.53968,-25.98354,13.71838,1008.125
20.770627975,154.5035,-90.20721,-53.93401,-0.9248048,0.2915923,-0.1310213,30.51972,-24.8176,14.57046,1008.125
20.805926800,156.305,-96.35284,-73.05487,-0.9333131,0.3926207,-0.1605165,32.29496,-22.25307,15.83334,1008.125
20.838705540,155.6838,-99.54385,-83.74545,-0.9343113,0.4113874,-0.1220335,32.29496,-22.25307,15.83334,1008.125
20.871483326,159.6595,-98.95292,-96.26869,-1.0261,0.4240092,-0.08765808,34.03349,-17.89014,15.32712,1008.125
20.904261589,170.0337,-94.2846,-106.2873,-1.175697,0.4291746,-0.1455558,36.141,-13.83771,14.39009,1008.124
20.939560413,178.0473,-89.439,-105.6764,-1.0878,0.4345858,-0.1034126,36.141,-13.83771,14.39009,1008.122
20.972338200,173.9473,-70.35207,-102.5609,-1.003221,0.4139872,-0.01549299,38.65193,-8.771568,12.13094,1008.122
21.005116940,156.4292,-49.66962,-98.83443,-0.9526758,0.4090631,0.05611745,39.62518,-2.541794,10.29072,1008.122
21.037894726,119.4674,-22.90064,-100.3006,-0.9522677,0.4568545,0.1345064,39.62518,-2.541794,10.29072,1008.126
21.070672989,57.53294,6.17296,-102.4387,-0.9775895,0.4933985,0.167244,40.97614,2.959084,8.523651,1008.122
21.105971813,-27.57253,26.91449,-102.9274,-0.8882176,0.4864921,0.1872596,39.79383,7.681551,7.145235,1008.126
21.138749599,-103.919,52.50162,-100.9725,-0.8049065,0.3586985,0.1299726,38.62079,12.13004,7.947153,1008.122
21.171528339,-152.311,74.83865,-90.89286,-0.8080263,0.2367561,0.1075398,38.62079,12.13004,7.947153,1008.122
21.204306126,-169.0836,82.63889,-76.84238,-0.8358015,0.06376891,0.05828611,36.74454,15.45509,10.88156,1008.126
21.239605904,-143.3035,84.35258,-56.86628,-0.8719954,-0.04921731,-0.03724875,34.11554,16.97853,15.21312,1008.126
21.272383690,-114.9143,82.04797,-38.29522,-0.8486625,-0.05569391,-0.01611441,34.11554,16.97853,15.21312,1008.126
21.305161476,-101.7447,80.62974,-18.99109,-0.8403752,-0.07481327,-0.04402423,31.58914,16.32625,20.38705,1008.126
21.337939739,-71.61616,74.07045,-9.766648,-0.8467193,-0.0753648,-0.1157313,28.6815,16.37398,23.37443,1008.126
21.370717526,-61.42835,71.05672,-3.107946,-0.9409366,-0.07136755,-0.1280292,28.6815,16.37398,23.37443,1008.128
21.406017304,-51.17842,66.09294,6.910653,-0.9783275,-0.08434398,-0.1981998,26.46849,14.96323,26.44603,1008.128
21.438795090,-36.02095,63.2565,9.354214,-1.071131,-0.06990122,-0.2509512,23.9499,13.53536,28.21269,1008.128
21.471572876,-19.4347,56.40174,11.30906,-1.062893,-0.06805834,-0.2760043,23.9499,13.53536,28.21269,1008.128
21.504351139,-13.47111,51.20158,14.91331,-1.036849,-0.002415761,-0.3228571,20.32472,12.8322,29.47202,1008.128
21.537128925,-0.0530209,31.81919,18.8841,-1.164283,-0.283624,-0.1262168,18.51255,12.48401,30.35032,1008.13
21.572428703,102.9432,-24.43705,27.98636,-1.063093,-0.1004648,0.1770064,18.51255,12.48401,30.35032,1008.131
21.605206489,29.45435,-38.02837,23.64904,-0.9063532,0.1023409,-0.05328061,15.89511,12.84282,29.47774,1008.131
21.637984276,-31.42401,-29.04628,0.5573952,-0.9535396,-0.3398525,-0.4111167,15.15136,13.55645,28.22404,1008.131
21.670762539,16.22262,-49.90599,2.878778,-1.048758,-0.2656105,-0.1260366,15.15136,13.55645,28.22404,1008.129
21.706061363,49.20876,-88.67079,17.84559,-0.8968306,0.3954604,-0.00609017,14.77907,13.90987,27.34856,1008.129
21.738840103,40.32549,-99.1302,35.31705,-1.000127,0.07436535,-0.3216159,13.6832,13.88277,25.17441,1008.135
21.804395676,19.32866,-124.3037,22.06073,-1.225009,-0.2330676,0.07313476,15.47291,15.30643,22.97358,1008.138
21.837173939,20.9438,-119.2808,31.77388,-1.212176,0.1086943,0.1775261,15.82597,15.63519,20.41887,1008.14
21.872473240,4.109071,-104.0349,42.89209,-1.157057,0.01405989,0.2300064,15.82597,15.63519,20.41887,1008.14
21.905251026,19.1423,-105.394,49.18425,-1.088211,0.03320555,0.09888387,15.44328,16.32332,17.3621,1008.142
21.938029289,30.13768,-111.8942,42.89209,-1.153087,0.1876687,0.257173,16.91707,15.2036,15.69912,1008.138
21.970807075,1.003032,-98.36199,34.27853,-1.235711,0.2347572,0.3343158,16.91707,15.2036,15.69912,1008.141
22.006106853,0.8166699,-81.57967,21.57202,-1.263545,0.3144172,0.4069474,16.55758,14.8222,14.39999,1008.141
22.038884640,-10.92416,-67.10197,11.18688,-1.18509,0.2032508,0.4353292,17.66574,13.69061,11.8051,1008.141
22.071662426,-10.17871,-59.95175,4.528181,-1.057789,0.1712581,0.4442213,18.45166,13.66494,10.06363,1008.147
22.104440689,14.42112,-62.19727,4.100558,-0.8847408,0.09630082,0.4530698,18.45166,13.66494,10.06363,1008.149
22.137218475,12.8681,-64.67917,11.24797,-0.8056991,0.1488505,0.4908307,20.28349,12.91472,8.829567,1008.151
22.172518253,2.369689,-73.66125,21.99964,-0.8248085,0.2172193,0.4700744,21.3774,12.50606,5.788105,1008.151
22.205296040,-19.93167,-84.47521,28.10854,-0.8023387,0.1497875,0.4113966,21.3774,12.50606,5.788105,1008.154
22.238073826,-17.6332,-100.6666,33.97309,-0.7386225,0.1034967,0.401688,22.1041,12.49243,4.916943,1008.154
22.270852089,51.19662,-107.285,30.85755,-0.7130198,0.1657915,0.434266,22.48286,11.35239,1.577087,1008.156
22.306150913,19.63927,-97.65289,28.23072,-0.828062,0.4068613,0.7104772,22.48286,11.35239,1.577087,1008.157
22.338929653,4.916641,-97.88925,24.01558,-0.7204524,0.2679648,0.638227,23.57894,10.96156,-0.1590395,1008.156
22.371707440,35.48006,-80.87056,7.643721,-0.6170518,0.2972277,0.7298778,23.23265,9.778664,-2.315983,1008.156
22.404485226,20.01199,-61.48816,-10.62189,-0.6162235,0.388454,0.8905131,23.23265,9.778664,-2.315983,1008.156
22.437263489,3.736346,-44.05582,-17.09733,-0.6481273,0.3272949,0.8887556,22.50096,9.751539,-4.428443,1008.156
22.472562790,1.810602,-30.93724,-24.00039,-0.6183884,0.2571707,0.7843352,22.86213,9.726892,-6.169359,1008.154
22.505341053,1.189395,-19.65054,-27.42138,-0.5546741,0.2098389,0.7650009,22.86213,9.726892,-6.169359,1008.154
22.538118839,-18.44077,-6.413781,-16.11991,-0.5216884,0.2323319,0.8082113,22.49587,9.709932,-7.474225,1008.154
22.570896625,-11.11052,1.031897,-9.216847,-0.5483209,0.1938599,0.7707863,21.74631,10.86573,-7.49143,1008.154
22.606196403,-9.743862,6.763887,4.833626,-0.5124211,0.213358,0.8000348,21.74631,10.86573,-7.49143,1008.151
22.638974190,-15.95594,11.84586,15.34094,-0.5474309,0.2274527,0.7678454,21.75234,10.49535,-7.920812,1008.155
22.671752453,-18.31653,13.32317,21.44984,-0.5911626,0.2377223,0.756381,22.8453,10.49867,-7.48711,1008.155
22.704530239,-12.04233,8.950316,22.48835,-0.6401569,0.2188698,0.7656714,22.8453,10.49867,-7.48711,1008.155
22.737308025,-2.786335,5.109292,18.76192,-0.6465806,0.2686009,0.7810153,22.1186,10.51231,-6.615947,1008.155
22.772607803,-6.637823,6.704794,13.8748,-0.6286896,0.297882,0.7679319,22.49129,10.0922,-6.17462,1008.155
22.805385590,-12.60142,8.713945,9.659658,-0.6253266,0.3119973,0.7626077,22.49129,10.0922,-6.17462,1008.155
22.838163853,-16.26654,10.07308,3.306401,-0.6518555,0.2372662,0.763746,22.86213,9.726892,-6.169359,1008.153
22.870941639,-2.475731,5.818404,-2.313789,-0.657661,0.2259322,0.7517428,22.87493,8.992073,-6.593012,1008.153
22.906240463,0.5060661,3.51379,-6.834376,-0.6246853,0.2462461,0.7617426,22.86962,9.368399,-5.728518,1008.153
22.939019203,-0.9227118,3.51379,-7.20091,-0.6154835,0.2560502,0.7597805,22.86962,9.368399,-5.728518,1008.153
22.971796989,-2.165128,4.104716,-5.673685,-0.6154531,0.2449089,0.7684617,23.22694,9.731962,-5.734718,1008.153
23.004575253,-2.662094,3.986531,-3.596658,-0.6198013,0.2335971,0.7578992,22.85682,10.10322,-5.304867,1008.153
23.037353039,-1.233316,2.686492,-1.947255,-0.6251209,0.2227777,0.7492635,22.85682,10.10322,-5.304867,1008.151
23.072652817,2.121206,0.145507,-0.7254742,-0.6440461,0.2167453,0.7449853,23.22839,9.743851,-4.864494,1008.151
23.105430603,5.972694,-2.2182,0.2519501,-0.6421477,0.2357756,0.7478403,22.48413,10.52332,-5.746194,1008.151
23.138208389,5.227245,-3.281868,0.06868304,-0.6436232,0.245571,0.7574562,22.48413,10.52332,-5.746194,1008.151
23.170986652,4.543917,-3.75461,-0.2978511,-0.634413,0.2514654,0.7535747,23.2209,10.10234,-5.305337,1008.153
23.206285954,5.848453,-4.522815,-1.030919,-0.645067,0.2386868,0.7497683,22.85682,10.10322,-5.304867,1008.153
23.239063740,4.543917,-3.636425,-1.58072,-0.6348779,0.2431987,0.755995,22.85682,10.10322,-5.304867,1008.153
23.271842003,1.065153,-1.627273,-1.641809,-0.6334192,0.2452627,0.7709107,22.86213,9.726892,-6.169359,1008.153
23.304619789,-0.6121079,0.08641429,-0.9698303,-0.6241858,0.2424276,0.7723371,22.49951,9.739651,-5.298667,1008.151
23.337398052,-2.227248,1.681917,0.1908611,-0.610581,0.2381344,0.7689418,22.49951,9.739651,-5.298667,1008.151
23.372697353,-0.9848326,3.868346,1.901353,-0.602807,0.2342327,0.7588206,22.49878,9.733707,-5.733779,1008.153
23.405475617,-2.662094,4.932014,4.039469,-0.6173646,0.2292074,0.7540491,22.85537,10.09133,-6.17509,1008.153
23.438253403,-2.040886,4.045624,5.627784,-0.6401977,0.2333868,0.7521715,22.85537,10.09133,-6.17509,1008.153
23.471031189,1.003032,2.509214,5.566695,-0.6455575,0.2406276,0.7492851,22.85682,10.10322,-5.304867,1008.153
23.503809452,4.730279,0.9728046,3.917291,-0.6402486,0.2538051,0.7468459,23.2209,10.10234,-5.305337,1008.153
23.539108753,4.916641,0.6773411,2.08462,-0.6368972,0.2748091,0.7516199,23.2209,10.10234,-5.305337,1008.153
23.571886539,6.159057,-0.09086375,0.5573952,-0.6281141,0.2553474,0.7439266,22.49878,9.733707,-5.733779,1008.153
23.604664802,6.221178,-0.6817906,-0.5422071,-0.6392788,0.2553077,0.7516549,22.86962,9.368399,-5.728518,1008.159
23.637442589,8.084801,-1.33181,-1.214186,-0.6378298,0.2582287,0.7497216,22.86962,9.368399,-5.728518,1008.159
23.672742367,8.892371,-1.509088,-1.519631,-0.6358908,0.2602164,0.7530836,22.86962,9.368399,-5.728518,1008.161
23.705520153,4.357554,-1.804551,-0.7865632,-0.636394,0.2690291,0.7602919,22.86358,9.738779,-5.299137,1008.161
23.738297939,3.23938,-2.159107,0.1297721,-0.6290876,0.2583351,0.7545144,22.86358,9.738779,-5.299137,1008.161
23.771076202,4.171192,-1.33181,0.6184842,-0.6184264,0.2676878,0.755919,23.22766,9.737906,-5.299606,1008.162
23.803853989,2.369689,-0.7999759,0.2519501,-0.6262286,0.2807425,0.7515857,22.49129,10.0922,-6.17462,1008.162
23.839153767,0.009099871,-0.09086375,0.1908611,-0.6286433,0.2753717,0.7525622,22.49129,10.0922,-6.17462,1008.162
23.871931553,-1.54392,0.6773411,0.3130391,-0.6286266,0.2680562,0.7511291,23.2337,9.367525,-5.728989,1008.164
23.904709339,-2.227248,1.504639,1.046107,-0.6310281,0.2573347,0.7530764,22.49805,9.727764,-6.16889,1008.164
23.937487602,1.251515,1.859195,1.107196,-0.6223102,0.2661507,0.7496729,22.49805,9.727764,-6.16889,1008.164
23.972786903,-0.6121079,3.277419,1.47373,-0.6247495,0.2725188,0.7578523,22.86431,9.744724,-4.864025,1008.164
24.005565166,-0.1772625,4.222902,1.229374,-0.627665,0.2709463,0.7453461,23.24118,9.009031,-5.288147,1008.164
24.038342953,0.009099871,3.986531,0.9239293,-0.6393265,0.2742616,0.7458501,22.14823,9.005707,-5.721848,1008.164
24.071121216,1.251515,3.277419,0.3741281,-0.6368805,0.265979,0.7424873,22.14823,9.005707,-5.721848,1008.162
24.103899002,1.189395,1.97738,0.3741281,-0.6422412,0.2721955,0.732382,23.24191,9.014977,-4.853035,1008.164
24.139198303,1.748482,-0.03177107,0.8017513,-0.6446905,0.2804279,0.7285245,22.51303,9.010777,-5.287207,1008.164
24.171976566,3.301501,-0.977254,0.3130391,-0.6451693,0.2800238,0.7410417,22.51303,9.010777,-5.287207,1008.164
24.204754353,3.115139,-1.509088,-0.2978511,-0.6470898,0.2707508,0.7405788,22.87711,9.009905,-5.287677,1008.164
24.237532139,1.748482,-2.100015,-0.4200291,-0.6354574,0.2816295,0.7501621,22.50023,9.745596,-4.863555,1008.162
24.272831917,0.009099871,-1.33181,-0.236762,-0.6267215,0.2831502,0.7482136,22.50023,9.745596,-4.863555,1008.164
24.305609703,-1.419678,0.08641429,0.4352171,-0.6271731,0.2680182,0.7439053,22.507,9.381159,-4.857824,1008.164
24.338387966,-1.916644,1.327361,1.229374,-0.6291406,0.2797308,0.7496687,22.87035,9.374342,-5.293406,1008.164
24.371165752,-3.469664,2.213751,1.47373,-0.6344491,0.265549,0.7477771,22.87035,9.374342,-5.293406,1008.164
24.403944492,-1.792403,2.745585,1.412641,-0.6378719,0.2742403,0.7410331,22.50554,9.36927,-5.728048,1008.164
24.439243317,-2.35149,2.922863,1.534819,-0.6407919,0.2776486,0.7444044,23.24118,9.009031,-5.288147,1008.164
24.472021103,-1.233316,1.918288,1.656997,-0.6402984,0.2712108,0.728528,23.24118,9.009031,-5.288147,1008.162
24.504799366,0.4439453,0.9137118,1.595908,-0.6393452,0.2810398,0.7400637,22.87107,9.380287,-4.858294,1008.162
24.537577152,1.499998,-0.03177107,1.046107,-0.6432071,0.2702493,0.7338313,22.51303,9.010777,-5.287207,1008.164
24.572876930,2.618172,-1.213625,0.007594019,-0.6451822,0.2838631,0.7328528,22.51303,9.010777,-5.287207,1008.164
24.605654716,2.990897,-2.395478,-1.336364,-0.651477,0.2765084,0.7333602,22.87783,9.01585,-4.852565,1008.164
24.638432503,3.674226,-3.163683,-1.763987,-0.6461496,0.2834082,0.7386321,23.24867,8.650537,-4.847304,1008.162
24.671210766,5.724211,-3.163683,-2.435967,-0.6271632,0.25807,0.7140758,23.24867,8.650537,-4.847304,1008.162
24.703988552,33.67856,0.02732161,-4.024281,-0.6043164,0.2470354,0.7106687,23.24191,9.014977,-4.853035,1008.162
24.739288330,6.718144,4.813829,-5.30715,-0.6463444,0.3778529,0.8029927,22.87638,9.003962,-5.722789,1008.162
24.772066116,-0.6742287,7.236629,-6.345664,-0.6431566,0.245277,0.7146144,22.87638,9.003962,-5.722789,1008.161
24.804843903,21.56501,11.84586,-7.995067,-0.6144693,0.2284433,0.7107208,22.87035,9.374342,-5.293406,1008.162
24.837622166,-1.854523,16.15962,-10.80516,-0.6817573,0.3588862,0.7795185,22.86358,9.738779,-5.299137,1008.162
24.872921467,9.265096,19.88246,-14.34832,-0.6383516,0.2632136,0.6967656,22.86504,9.750668,-4.428913,1008.164
24.905699730,19.51502,24.49169,-20.39614,-0.6859031,0.2547648,0.7296237,22.86504,9.750668,-4.428913,1008.162
24.938477516,-11.17264,23.30984,-22.96188,-0.7305266,0.4506261,0.7934554,22.507,9.381159,-4.857824,1008.164
24.971256256,-24.03164,19.587,-25.34435,-0.7437437,0.2675177,0.6719782,22.14437,9.393919,-3.987132,1008.164
25.004034042,-10.30295,13.9141,-29.55949,-0.7691288,0.3303477,0.7027509,22.14437,9.393919,-3.987132,1008.164
25.039332867,-19.1241,4.104716,-34.01899,-0.8093839,0.3070073,0.6865153,22.48776,10.55304,-3.570635,1008.167
25.072111130,-9.681741,-9.427507,-41.65511,-0.7863452,0.2191632,0.7034407,22.1034,11.64723,-3.587354,1008.167
25.104888916,-2.662094,-25.55981,-45.99244,-0.8326053,0.2829002,0.749665,22.1034,11.64723,-3.587354,1008.165
25.137666702,-8.128722,-39.15113,-48.49709,-0.8571607,0.2036196,0.7946095,22.45999,12.00484,-4.028666,1008.165
25.170445442,15.91202,-41.92848,-42.75471,-0.8904645,0.3115258,0.7333929,22.80837,12.71502,-5.345932,1008.165
25.205744267,-31.17553,-34.95555,-34.38552,-0.8932152,0.220091,0.6151222,22.80837,12.71502,-5.345932,1008.165
25.238522530,-39.06487,-35.3101,-31.20889,-0.9241632,0.1657684,0.6147961,22.41434,14.14986,-7.108829,1008.165
25.271300316,-34.53005,-41.21937,-33.77463,-0.8349881,0.03962016,0.647026,22.76875,14.48965,-8.855474,1008.163
25.304078102,19.82563,-41.57393,-34.5077,-0.8143744,-0.04870454,0.6678088,22.76875,14.48965,-8.855474,1008.163
25.339377880,46.78605,-46.71499,-39.27264,-0.7621767,0.06764042,0.7368257,22.01002,15.92027,-10.99085,1008.161
25.372155666,15.16657,-46.77408,-53.87292,-0.6922855,0.0839091,0.7510762,21.62806,16.61436,-13.61251,1008.161
25.404933930,58.8996,-50.31964,-69.63388,-0.7080238,-0.2319941,0.7968377,21.62806,16.61436,-13.61251,1008.16
25.437711716,113.5659,-74.66582,-68.28992,-0.6916828,0.05544154,0.8589427,21.2589,16.57362,-16.65783,1008.16
25.470489502,75.73433,-76.61589,-72.19962,-0.6717049,0.2319588,0.8648871,20.519,16.89905,-19.64624,1008.154
25.505789280,25.4165,-80.81147,-72.26071,-0.6348971,0.2605794,0.804105,20.519,16.89905,-19.64624,1008.158
25.538567066,0.5060661,-78.62504,-75.25407,-0.6075218,0.1757825,0.7637336,19.06977,16.12102,-23.48675,1008.158
25.571345806,-7.818118,-81.04784,-80.38555,-0.5934233,0.1625259,0.7314689,17.19038,15.71948,-26.52437,1008.158
25.604123592,8.643888,-88.07986,-83.31783,-0.5641298,0.09050489,0.7050329,17.19038,15.71948,-26.52437,1008.156
25.639422893,42.18911,-105.9849,-86.00574,-0.486928,0.09261013,0.7048467,14.61802,16.79003,-28.65167,1008.154
25.704978466,106.1735,-136.5359,-76.53694,-0.422968,0.1430609,0.6689982,12.03059,18.57672,-31.72281,1008.153
25.737757206,122.0764,-152.6091,-72.74942,-0.4071932,0.24184,0.637042,7.610871,17.82874,-33.8812,1008.153
25.770534992,126.1764,-152.9636,-69.26735,-0.2437441,0.3125086,0.587449,3.270039,15.97032,-37.26564,1008.149
25.805834293,125.99,-144.9861,-69.87824,-0.05508941,0.4079568,0.5690473,3.270039,15.97032,-37.26564,1008.147
25.838612080,102.5084,-130.5084,-69.63388,0.1577567,0.5527623,0.6154975,-2.543684,11.95779,-38.50035,1008.147
25.871389866,54.11629,-106.044,-73.72684,0.3120816,0.5890796,0.6097819,-7.198062,7.505434,-40.60009,1008.147
25.904168606,13.98627,-81.93423,-78.49179,0.4145555,0.5897287,0.6499723,-7.198062,7.505434,-40.60009,1008.147
25.939467430,-21.85741,-59.30173,-77.20892,0.5159786,0.6290288,0.7165817,-12.30101,4.608244,-40.11248,1008.146
25.972246170,-47.26481,-39.68296,-75.00972,0.634622,0.5649098,0.7385395,-15.89976,2.442236,-39.20317,1008.146
26.005023479,-71.74039,-12.97307,-73.4214,0.6681895,0.540418,0.7481241,-17.77479,2.076364,-39.63013,1008.15
26.037801266,-93.42055,9.600336,-71.772,0.5903589,0.4037398,0.7976137,-17.77479,2.076364,-39.63013,1008.148
26.070580006,-44.15877,10.19126,-48.31382,0.4419746,0.3253072,0.8332232,-20.33685,2.811347,-39.6383,1008.148
26.105878830,91.63725,-9.25023,-17.76931,0.497068,0.6631355,0.9514797,-21.1063,4.99377,-40.10685,1008.148
26.171435356,30.94525,-12.91398,7.826988,0.4059427,0.8027855,0.9721838,-21.44407,3.53095,-40.51857,1008.148
26.204213142,-31.42401,-0.8590686,14.91331,0.3380945,0.5481873,1.00161,-22.13696,1.722398,-39.61876,1008.15
26.239512444,-12.29081,3.041049,20.90004,0.2518744,0.2173933,0.8116941,-22.13696,1.722398,-39.61876,1008.15
26.272290230,6.283298,12.49588,19.80043,0.2024891,0.3722503,0.8678972,-22.86511,1.724144,-39.61782,1008.15
26.305068970,-5.457529,19.29154,15.46311,0.04556197,0.4357299,1.010175,-22.51383,2.458089,-39.19464,1008.15
26.337846756,24.04984,-0.5636052,19.4339,0.03151513,0.435651,1.085783,-22.51383,2.458089,-39.19464,1008.152
26.370624542,66.35409,-18.3505,35.0116,0.1211306,0.4951698,0.9222987,-22.17004,3.550527,-39.2123,1008.153
26.405923843,70.95103,-17.81867,34.76725,0.2050438,0.511129,0.8051047,-22.16182,3.197978,-38.33635,1008.153
26.438701630,92.32057,-28.75081,27.31438,0.1502583,0.666532,0.7361657,-22.16182,3.197978,-38.33635,1008.153
26.471480370,25.47862,-10.43208,24.25993,0.203449,0.7771646,0.8229993,-22.86293,1.741975,-38.31248,1008.152
26.504258156,15.35293,-11.25938,17.7845,0.269547,0.561984,0.8968152,-23.92554,0.2379928,-37.41698,1008.152
26.539557934,17.3408,-12.91398,17.54014,0.2658139,0.6976586,0.8711073,-23.92554,0.2379928,-37.41698,1008.152
26.572335720,-2.41361,-13.97764,21.14439,0.2858699,0.6258803,0.8206249,-24.6409,-0.4950795,-37.83969,1008.152
26.605113029,-9.5575,-14.39129,18.76192,0.2666618,0.5280485,0.7827904,-25.00425,-0.4882631,-37.40411,1008.152
26.637891769,-3.096939,-16.81409,12.53084,0.2409729,0.5053199,0.7670007,-25.00425,-0.4882631,-37.40411,1008.153
26.670669556,-13.78171,-14.15492,6.910653,0.2574438,0.5265772,0.7924417,-25.36229,-0.8577709,-37.83302,1008.155
26.705969334,-17.9438,-12.91398,0.6184842,0.2920469,0.4722911,0.7885906,-24.99749,-0.8526998,-37.39838,1008.155
26.738747120,-2.972697,-17.16865,-2.558145,0.2885888,0.5011413,0.8092539,-24.99749,-0.8526998,-37.39838,1008.157
26.771524906,-11.23476,-14.09583,-3.535569,0.3477549,0.524735,0.7691249,-25.3804,0.2533712,-36.54487,1008.157
26.804303169,-2.41361,-9.900249,-3.718836,0.3050976,0.4830832,0.7139323,-26.12207,0.9839902,-36.55539,1008.157
26.839601994,-12.16657,-3.931888,0.8017513,0.3169834,0.597927,0.7556095,-26.90342,0.6273885,-36.11353,1008.157
26.872380733,-24.59073,-2.809127,3.550757,0.3925542,0.467995,0.7503312,-26.90342,0.6273885,-36.11353,1008.157
26.905158520,-7.383273,1.622824,0.9850183,0.378007,0.4656593,0.782139,-26.91091,0.9858813,-36.55437,1008.157
26.937936306,-4.898441,2.745585,-9.277937,0.2712974,0.4170696,0.7867976,-26.49935,1.786365,-35.69712,1008.157
26.970714569,0.5681869,-2.809127,-17.03624,0.2201067,0.5063642,0.802188,-26.49935,1.786365,-35.69712,1008.157
27.006013393,7.712076,-4.877371,-14.16506,0.2996601,0.5507389,0.8544008,-26.91599,1.433984,-34.88277,1008.157
27.038792133,11.50144,-7.71382,-7.995067,0.3016197,0.5293041,0.7812616,-27.27291,1.003737,-35.31073,1008.159
27.071569920,18.89382,-15.45496,-2.130522,0.3199411,0.5743966,0.7301258,-27.27291,1.003737,-35.31073,1008.159
27.104347706,3.301501,-12.44123,-0.4200291,0.3018924,0.6093227,0.7315601,-26.90945,0.9977698,-35.68415,1008.157
27.137125969,6.780265,-12.32305,3.428579,0.3487582,0.5040302,0.7320889,-27.97995,-0.08103609,-34.79533,1008.157
27.172425270,29.51647,-11.73212,9.904015,0.379108,0.5954781,0.6789293,-27.97995,-0.08103609,-34.79533,1008.157
27.205203533,13.1787,-4.286444,8.560057,0.3877413,0.6544964,0.7510242,-27.24369,-0.4361801,-33.98247,1008.157
27.237981319,-9.61962,2.036473,5.016893,0.369451,0.5846307,0.7415456,-28.33665,-0.4395061,-34.41618,1008.157
27.270759106,-13.84383,10.78219,-0.8476522,0.2677542,0.4733789,0.7640972,-28.33665,-0.4395061,-34.41618,1008.157
27.306058884,-4.960562,11.37312,-5.612596,0.3711706,0.4882368,0.8153352,-27.97329,-0.4463224,-34.85176,1008.157
27.338836670,8.02268,10.36854,-12.02694,0.2830355,0.5887013,0.8004705,-27.60922,-0.4471951,-34.85223,1008.157
27.371614933,-17.01199,19.23244,-8.42269,0.3130426,0.6323748,0.8114049,-27.60922,-0.4471951,-34.85223,1008.157
27.404392719,-11.79385,14.32775,-5.123883,0.226812,0.5282047,0.7130872,-27.25263,-0.08957434,-35.29354,1008.157
27.437170982,-20.42863,20.88704,-0.6032962,0.3752871,0.5863413,0.7704109,-27.25325,-0.09466934,-35.66649,1008.159
27.472470284,-21.36045,21.53706,-7.323088,0.2614035,0.4934383,0.7847806,-27.25325,-0.09466934,-35.66649,1008.159
27.505248070,-29.06342,15.09595,-1.825076,0.2692123,0.4855384,0.8300219,-26.48615,0.9848628,-36.55492,1008.157
27.538026333,-51.55114,18.58242,-5.612596,0.2541211,0.2984307,0.8361161,-26.49404,1.410039,-36.56161,1008.159
27.570804119,-1.171195,9.068501,-18.07476,0.3086815,0.2172933,0.7990441,-26.49404,1.410039,-36.56161,1008.157
27.606103897,22.86954,14.26866,-39.27264,0.3158388,0.2532616,0.7099209,-25.41533,2.136296,-36.57448,1008.157
27.638881683,74.30555,8.59576,-46.1757,0.1893024,0.3967081,0.8289012,-24.69394,2.498988,-36.58115,1008.157
27.671659470,101.3902,0.2045996,-43.9765,0.1727299,0.6279255,0.8305175,-24.69394,2.498988,-36.58115,1008.157
27.704437733,107.1053,-6.413781,-28.88751,0.1862798,0.8424868,0.7820258,-24.65911,0.6152139,-36.6137,1008.155
27.737215519,54.67538,-6.295596,-11.7215,0.2184341,0.9919071,0.7287745,-24.2191,-3.381729,-35.61876,1008.157
27.772515297,2.121206,3.159234,-5.123883,0.1927297,0.7638686,0.6747853,-24.16574,-6.303168,-36.00803,1008.155
27.805293083,4.916641,3.277419,-3.169035,0.1653525,0.6359898,0.668304,-24.16574,-6.303168,-36.00803,1008.155
27.838070869,7.836318,4.932014,-5.429328,0.1667667,0.6535215,0.6663488,-24.86499,-7.813967,-35.54811,1008.155
27.870849133,-3.656026,8.004833,-5.062794,0.1665931,0.7291011,0.6792319,-24.49488,-8.18522,-35.97795,1008.155
27.906148434,-11.359,7.532092,-3.169035,0.1580071,0.6829499,0.776557,-24.49488,-8.18522,-35.97795,1008.155
27.938926697,-0.301504,3.218327,-3.596658,0.1939812,0.657136,0.733188,-24.49415,-8.179276,-35.54285,1008.155
27.971704483,3.115139,1.504639,-1.947255,0.1842442,0.6632189,0.7091339,-24.14545,-7.396479,-35.99084,1008.155
28.004482269,-34.15733,9.777614,1.656997,0.1950481,0.8121848,0.6862597,-24.14545,-7.396479,-35.99084,1008.155
28.037260532,-59.68896,19.88246,2.939867,0.2445526,0.6162553,0.6768104,-23.77276,-7.816585,-35.54951,1008.155
28.072559834,-34.40581,15.86416,2.390066,0.1747486,0.5861995,0.7809954,-23.0682,-6.682111,-36.87393,1008.155
28.105338097,-26.70283,13.38227,3.611846,0.1707853,0.618274,0.7756614,-23.0682,-6.682111,-36.87393,1008.155
28.138115883,-34.59217,14.56412,3.428579,0.1406971,0.6081852,0.7617885,-22.73116,-5.225236,-36.89732,1008.157
28.170893669,-38.63002,14.91868,2.023532,0.1120795,0.6038843,0.8080736,-22.38133,-4.503178,-37.34436,1008.157
28.206193447,-47.14057,12.67316,2.451155,0.09612229,0.5855986,0.8591634,-22.38133,-4.503178,-37.34436,1008.157
28.238971233,-56.14808,11.55039,4.039469,0.09429723,0.5369031,0.8626106,-22.05324,-2.699697,-38.67882,1008.157
28.271749497,-55.21627,10.7231,2.267888,0.1115713,0.4176565,0.8531222,-21.70872,-1.601315,-38.26137,1008.157
28.304527283,-27.32404,4.222902,-0.114584,0.1223514,0.3773458,0.8565269,-21.70872,-1.601315,-38.26137,1008.159
28.337305546,-18.93774,1.859195,-2.313789,0.1225883,0.4881258,0.8881292,-21.75002,0.5793629,-38.73086,1008.159
28.372604847,-43.78605,10.48673,-16.91406,0.1361393,0.4885437,0.7918241,-21.02862,0.9420543,-38.73753,1008.16
28.405382633,-97.39628,37.01934,-59.92073,0.159493,0.4349072,0.6147084,-21.02862,0.9420543,-38.73753,1008.16
28.438160896,-176.4139,66.15203,-50.6352,0.07675568,0.7883534,0.9734678,-21.41484,2.091034,-39.19032,1008.16
28.470938683,-228.7196,56.63811,-8.911403,0.06472091,0.5868454,1.216406,-19.62899,3.902912,-39.65643,1008.162
28.539016247,-61.36623,-5.113742,4.344914,-0.0422985,-0.4313213,0.8186645,-18.64991,10.18024,-38.01575,1008.162
28.571794033,-39.49971,-9.072951,14.4246,0.008476211,0.06889851,0.8317496,-18.04128,16.75619,-36.8145,1008.166
28.604572296,-49.936,-0.3272345,17.66232,0.002270375,-0.1537458,0.9697694,-18.04128,16.75619,-36.8145,1008.168
28.637350082,0.8166699,-5.94104,20.96113,0.0686992,-0.07332979,1.17792,-17.28563,18.58158,-36.47121,1008.166
28.672649860,-47.38905,3.986531,13.01955,0.04280222,0.1961718,1.163135,-17.33253,21.20611,-35.5799,1008.166
28.705427647,-108.2674,8.182112,14.73005,-0.0006051582,0.06957356,1.14995,-17.33253,21.20611,-35.5799,1008.166
28.738205433,-118.0204,-0.9181613,18.45648,0.04192664,-0.2695574,1.077193,-16.59689,20.84587,-35.14,1008.164
28.770983696,-64.41015,-8.186562,19.55608,0.005536654,-0.5088482,0.9587442,-17.00549,23.42073,-33.50135,1008.163
28.803761482,-12.91202,-12.32305,10.39273,-0.07378163,-0.472279,0.7798107,-17.00549,23.42073,-33.50135,1008.159
28.839061260,44.05273,-23.66884,17.05143,-0.1428296,-0.2506225,0.6602626,-15.61244,27.09728,-30.94986,1008.163
28.871839046,48.89815,-26.62348,29.20814,-0.1933694,-0.2395594,0.6310027,-15.27049,28.24451,-31.40359,1008.163
28.904617310,149.2232,-48.07412,29.4525,-0.2392221,-0.4063638,0.3719089,-15.24981,27.08451,-31.82055,1008.163
28.937395096,190.7199,-43.11034,24.01558,0.2273751,0.1157564,0.8634111,-15.24981,27.08451,-31.82055,1008.163
28.972694397,33.4922,10.48673,-7.750711,0.4379856,0.5186408,1.605527,-16.66388,24.49534,-34.82434,1008.161
29.005472660,-7.010548,16.10053,-22.90079,0.2316428,0.2697847,1.436471,-16.57878,19.73473,-36.42814,1008.161
29.038250446,12.37113,-4.700093,-10.31645,0.1011877,0.3267782,1.034276,-16.57878,19.73473,-36.42814,1008.161
29.071029186,9.5757,-17.64139,8.621145,0.01684299,0.2328534,0.8661407,-16.22074,20.10424,-35.99923,1008.161
29.103806496,-34.65429,-11.37757,15.64638,0.05529031,0.2047402,0.9094145,-17.30018,19.37204,-36.42147,1008.161
29.139105797,-91.74329,4.932014,18.08994,0.05092329,0.01736706,1.004535,-17.30018,19.37204,-36.42147,1008.161
29.171884060,-87.33271,7.886648,14.79114,0.03265787,-0.2637416,1.014148,-17.30559,19.74752,-35.61914,1008.163
29.204661846,-21.48469,1.445546,7.216098,0.0756794,-0.3941995,0.9723645,-16.98063,21.94516,-34.78376,1008.163
29.237440586,39.7664,-6.709244,0.06868304,0.1169629,-0.1987309,0.9464598,-16.98063,21.94516,-34.78376,1008.163
29.272739410,32.74675,-3.281868,-5.246061,0.09900593,0.01137987,0.9962473,-17.01974,24.14367,-33.94792,1008.163
29.305517197,9.265096,-0.7999759,-2.191611,0.0819504,0.04160783,1.021273,-16.65639,24.13685,-34.3835,1008.163
29.338295460,-0.1151417,-0.2681418,0.6184842,0.08155037,0.006067577,1.023734,-16.65639,24.13685,-34.3835,1008.16
29.371073246,0.8166699,-1.272717,1.168285,0.09081602,-0.01444784,1.004007,-17.3575,22.68085,-34.35964,1008.16
29.403851986,-2.662094,-1.390903,0.6795732,0.08065438,-0.03115543,0.9949108,-16.99415,22.67403,-34.79522,1008.16
29.439150810,-2.848456,-1.272717,0.4352171,0.07732422,-0.05940454,0.9988123,-16.99415,22.67403,-34.79522,1008.163
29.471928597,0.1954622,-0.8590686,0.4352171,0.08461085,-0.0623262,0.9901349,-17.00018,23.04441,-34.36584,1008.164
29.504706860,2.307569,0.2636923,0.007594019,0.08455856,-0.04041335,0.9896206,-17.35677,22.68679,-33.92453,1008.164
29.537484646,3.425742,-0.2681418,0.06868304,0.07918403,-0.02430903,1.00068,-17.35677,22.68679,-33.92453,1008.164
29.572784424,-0.2393832,-0.2090491,-0.3589401,0.08693235,-0.01345597,1.011236,-16.99342,22.67997,-34.36011,1008.164
29.605562210,-2.972697,0.02732161,0.06868304,0.09280265,-0.03394282,0.9996999,-16.25923,22.30785,-34.79043,1008.164
29.638340950,-2.910577,0.6773411,0.3741281,0.09139568,-0.05590801,0.9944414,-16.25923,22.30785,-34.79043,1008.164
29.671118736,1.251515,0.2045996,0.2519501,0.0821757,-0.05740923,0.9997604,-16.99342,22.67997,-34.36011,1008.163
29.703896046,3.922709,-0.5636052,-0.3589401,0.08453295,-0.02768035,0.9997101,-17.00018,23.04441,-34.36584,1008.161
29.739195824,0.5060661,-0.3272345,-0.236762,0.08836543,-0.005731747,0.9996679,-16.6361,23.04354,-34.36631,1008.159
29.771973610,-2.599973,0.145507,0.007594019,0.08793919,-0.03107457,0.9977817,-16.6361,23.04354,-34.36631,1008.159
29.804752350,-1.109074,0.02732161,-0.053495,0.08895597,-0.05055757,0.9963645,-16.99415,22.67403,-34.79522,1008.159
29.837530136,0.07122065,0.02732161,0.007594019,0.08214014,-0.04281182,0.9978131,-16.99269,22.68592,-33.925,1008.161
29.872828960,1.748482,-0.5636052,0.3741281,0.08602113,-0.04081457,1.000208,-16.99269,22.68592,-33.925,1008.159
29.905607223,0.6924284,-0.1499564,-0.236762,0.07724724,-0.02625995,1.002613,-17.3575,22.68085,-34.35964,1008.159
29.938385010,-0.2393832,0.2045996,-0.053495,0.08405601,-0.03159066,0.998273,-16.63683,23.03759,-34.80142,1008.159
29.971163750,-0.3636248,-0.03177107,0.007594019,0.09086806,-0.03737491,0.9987469,-16.63683,23.03759,-34.80142,1008.159
30.003941536,0.4439453,-0.3863271,0.06868304,0.08893815,-0.04073334,1.008384,-16.62934,22.6791,-34.36058,1008.159
30.039241314,0.1333414,-0.1499564,0.06868304,0.08600818,-0.03546062,0.9997183,-16.99342,22.67997,-34.36011,1008.157
30.072019100,-0.7363495,0.2045996,0.007594019,0.08697099,-0.03204668,0.9992294,-16.99342,22.67997,-34.36011,1008.157
30.104796410,-0.6121079,0.322785,-0.114584,0.08408318,-0.04227846,1.00214,-16.99415,22.67403,-34.79522,1008.157
30.137575150,0.5681869,-0.2090491,-0.053495,0.08552197,-0.03547472,0.9982753,-17.00091,23.03847,-34.80095,1008.157
30.172873974,1.375757,-0.5045125,-0.053495,0.0835635,-0.02867255,0.9982697,-17.00091,23.03847,-34.80095,1008.157
30.205652714,-0.1151417,0.2045996,0.1297721,0.08451831,-0.02235319,0.9953699,-16.27879,23.4071,-34.37251,1008.157
30.238430500,-1.792403,0.2045996,0.1297721,0.08599292,-0.02913262,0.9992273,-16.98739,22.30959,-34.78949,1008.157
30.271208286,-1.109074,0.2636923,-0.053495,0.08748005,-0.0412727,1.002612,-16.98739,22.30959,-34.78949,1008.157
30.303986549,0.07122065,-0.03177107,-0.2978511,0.09331603,-0.04461652,1.00501,-16.99342,22.67997,-34.36011,1008.159
30.339285374,0.8787907,-0.2681418,0.2519501,0.09183636,-0.03589568,1.000186,-16.62331,22.30872,-34.78996,1008.161
30.372064114,1.437878,-0.1499564,0.007594019,0.08940008,-0.03301722,0.9968184,-16.62331,22.30872,-34.78996,1008.161
30.404841900,-0.301504,0.02732161,0.06868304,0.08939993,-0.0309988,1.006924,-16.99415,22.67403,-34.79522,1008.167
30.437619686,0.07122065,-0.3272345,0.06868304,0.08553113,-0.03886716,1.000687,-16.99342,22.67997,-34.36011,1008.167
30.470397949,-0.301504,0.2636923,-0.114584,0.0787115,-0.03017079,0.9987649,-16.99342,22.67997,-34.36011,1008.164
30.505696774,-0.7984702,0.3818777,-0.053495,0.09038681,-0.03882665,1.000676,-16.99269,22.68592,-33.925,1008.169
30.538475513,0.6924284,0.08641429,0.1297721,0.09329739,-0.03733122,1.002111,-16.62331,22.30872,-34.78996,1008.169
30.571253300,0.6924284,-0.09086375,-0.114584,0.09086367,-0.03441257,1.004519,-16.62331,22.30872,-34.78996,1008.169
30.604031086,0.257583,0.02732161,0.1908611,0.08891979,-0.03495933,0.9982665,-16.99415,22.67403,-34.79522,1008.169
30.639330864,-0.0530209,0.08641429,0.007594019,0.08357005,-0.03059052,1.002605,-16.99415,22.67403,-34.79522,1008.169
30.672108650,-0.3636248,0.3818777,0.1297721,0.08454441,-0.03305773,0.99683,-16.64214,23.41392,-33.93693,1008.171
30.704886913,-0.5499871,0.2045996,0.1908611,0.08699691,-0.04174368,1.005502,-16.64214,23.41392,-33.93693,1008.166
30.737664699,0.5681869,-0.2681418,-0.053495,0.08649911,-0.0378984,0.9987581,-16.6361,23.04354,-34.36631,1008.166
30.770442486,0.6924284,0.08641429,-0.114584,0.08210405,-0.02771735,0.9973091,-17.3575,22.68085,-34.35964,1008.164
30.805742264,-0.6742287,0.2636923,0.06868304,0.08988398,-0.03202907,0.9982598,-17.3575,22.68085,-34.35964,1008.164
30.838520050,0.009099871,0.08641429,-0.053495,0.08649984,-0.03839212,0.9977961,-16.98666,22.31554,-34.35438,1008.164
30.871298313,-0.2393832,-0.09086375,0.2519501,0.09232055,-0.03540795,0.9997032,-17.36426,23.04528,-34.36537,1008.164
30.904076099,-0.0530209,0.02732161,0.06868304,0.07970398,-0.03942624,0.9973324,-17.36426,23.04528,-34.36537,1008.164
30.939375877,1.003032,-0.2090491,-0.175673,0.09134132,-0.03200687,0.9997004,-16.62331,22.30872,-34.78996,1008.164
30.972153664,0.5681869,0.02732161,0.3130391,0.09087241,-0.03781172,1.005968,-17.00018,23.04441,-34.36584,1008.164
31.004931450,-0.1772625,0.08641429,-0.053495,0.07969423,-0.03402207,1.004063,-17.00018,23.04441,-34.36584,1008.169
31.037709713,1.065153,-0.1499564,-0.053495,0.0932723,-0.0286317,0.9924703,-17.36426,23.04528,-34.36537,1008.166
31.070487499,-0.7363495,0.2636923,0.007594019,0.08309291,-0.0334933,1.00598,-17.00018,23.04441,-34.36584,1008.166
31.105787277,0.5060661,0.02732161,0.007594019,0.09039321,-0.04226262,0.99683,-17.00018,23.04441,-34.36584,1008.166
31.138565064,1.127274,-0.1499564,-0.236762,0.08942167,-0.04126653,1.001163,-16.63007,22.67316,-34.79569,1008.166
31.171342850,0.8166699,-0.03177107,-0.4811181,0.09085104,-0.02955905,1.002105,-17.00767,23.4029,-34.80668,1008.164
31.204121113,0.5681869,-0.09086375,-0.4200291,0.08842371,-0.03007638,1.000667,-17.00767,23.4029,-34.80668,1008.164
31.239420414,0.4439453,0.145507,-0.3589401,0.08210271,-0.02622279,1.00212,-16.2585,22.31379,-34.35532,1008.164
31.272198677,-0.5499871,0.2636923,-0.175673,0.08162945,-0.03159082,1.001167,-16.63683,23.03759,-34.80142,1008.166
31.304976463,-0.2393832,-0.1499564,-0.4811181,0.09038892,-0.03980405,1.000196,-16.63683,23.03759,-34.80142,1008.166
31.337754250,0.5681869,0.02732161,-0.5422071,0.0913553,-0.03835496,0.9973032,-17.35074,22.31641,-34.35391,1008.166
31.370532513,0.1954622,0.2045996,-0.5422071,0.08648121,-0.03110681,0.9948969,-17.35822,22.6749,-34.79475,1008.166
31.405831814,0.8166699,0.08641429,-0.4811181,0.08600638,-0.03498364,0.9982734,-17.35822,22.6749,-34.79475,1008.164
31.438610077,1.313636,-0.3272345,-0.4200291,0.08696625,-0.03060569,0.9963391,-16.98666,22.31554,-34.35438,1008.163
31.471387863,-0.0530209,0.08641429,-0.236762,0.08744679,-0.02764935,1.000666,-17.36353,23.05123,-33.93026,1008.161
31.504166126,0.8166699,0.2636923,-0.2978511,0.08697979,-0.03696047,0.9929792,-17.36353,23.05123,-33.93026,1008.161
31.539465427,0.8787907,0.6182484,-0.4200291,0.08356529,-0.02914953,0.9997146,-16.62934,22.6791,-34.36058,1008.161
31.572243214,0.1954622,0.6182484,-0.3589401,0.08600529,-0.03247485,1.00886,-17.34398,21.95197,-34.34818,1008.161
31.605021477,0.7545492,-0.2090491,-0.2978511,0.08260152,-0.0320731,1.000684,-17.34398,21.95197,-34.34818,1008.163
31.637799263,1.127274,-0.3272345,-0.4811181,0.08258931,-0.02721287,0.9992325,-16.98739,22.30959,-34.78949,1008.163
31.670577526,0.5060661,-0.03177107,-0.236762,0.08502221,-0.02913403,1.000192,-16.62331,22.30872,-34.78996,1008.163
31.705876827,0.4439453,0.02732161,-0.053495,0.09327087,-0.02663337,0.9996877,-16.62331,22.30872,-34.78996,1008.163
31.738654613,-0.4878663,0.02732161,0.007594019,0.09085356,-0.03052975,1.002587,-16.62331,22.30872,-34.78996,1008.161
31.771432877,0.1333414,-0.1499564,0.007594019,0.08745246,-0.03059159,0.9977821,-16.63007,22.67316,-34.79569,1008.161
31.804210663,-0.1772625,-0.4454198,0.1908611,0.08696902,-0.03056217,1.002597,-16.99342,22.67997,-34.36011,1008.161
31.839510441,-0.4878663,-0.1499564,0.1908611,0.0855118,-0.03007725,1.004044,-16.99342,22.67997,-34.36011,1008.159
31.872288227,-0.7363495,-0.09086375,0.007594019,0.08649113,-0.0339821,1.00164,-16.62934,22.6791,-34.36058,1008.159
31.905066490,-0.3636248,-0.3272345,-0.236762,0.08262013,-0.04036929,0.9982896,-16.62331,22.30872,-34.78996,1008.159
31.937844276,0.8787907,-0.5045125,-0.6032962,0.08502599,-0.03109553,0.9982699,-16.62331,22.30872,-34.78996,1008.159
31.970622063,0.3818245,-0.09086375,-0.175673,0.08500495,-0.0223324,0.9977754,-16.98739,22.30959,-34.78949,1008.159
32.005921841,-0.301504,0.145507,-0.114584,0.09036735,-0.03054385,1.001145,-16.98739,22.30959,-34.78949,1008.159
32.038699627,-0.4878663,-0.09086375,-0.2978511,0.08599831,-0.03056357,1.003562,-16.98739,22.30959,-34.78949,1008.159
32.071477890,-0.3636248,-0.09086375,-0.114584,0.08405957,-0.03355551,0.9958691,-16.98063,21.94516,-34.78376,1008.159
32.104255676,-0.5499871,-0.2090491,-0.236762,0.08792637,-0.02521351,1.00018,-17.00018,23.04441,-34.36584,1008.159
32.139554977,-1.481799,0.4409704,-0.236762,0.08404209,-0.02675722,0.9929708,-17.00018,23.04441,-34.36584,1008.159
32.172333241,-2.41361,0.145507,-0.114584,0.09281752,-0.03926663,1.004521,-16.6361,23.04354,-34.36631,1008.159
32.205111027,1.562119,-0.5636052,0.1297721,0.09089446,-0.04857987,0.9982824,-16.98666,22.31554,-34.35438,1008.159
32.237889290,1.872723,-0.3863271,0.007594019,0.08646841,-0.02423487,1.002588,-16.98666,22.31554,-34.35438,1008.161
32.270667076,0.8166699,0.145507,0.007594019,0.07920231,-0.03311569,0.9949172,-17.36426,23.04528,-34.36537,1008.163
32.305966854,-0.301504,0.08641429,0.06868304,0.08355196,-0.02279141,1.003556,-16.99342,22.67997,-34.36011,1008.161
32.338744640,-0.4878663,-0.2681418,0.1908611,0.08796248,-0.0392971,1.005977,-16.99342,22.67997,-34.36011,1008.163
32.371522427,1.189395,-0.5636052,0.1908611,0.08697898,-0.03596298,0.9963472,-16.63538,23.04948,-33.9312,1008.163
32.404300690,0.5681869,-0.2090491,0.06868304,0.0913293,-0.02815418,0.993437,-16.98739,22.30959,-34.78949,1008.163
32.437078476,1.003032,0.02732161,0.007594019,0.08646871,-0.02473529,1.000664,-16.98739,22.30959,-34.78949,1008.163
32.472378254,-0.860591,0.145507,0.1297721,0.087428,-0.01834562,1.007872,-16.98593,22.32148,-33.91927,1008.164
32.505156040,-1.481799,-0.09086375,-0.114584,0.08261627,-0.03790402,1.002618,-17.3575,22.68085,-34.35964,1008.163
32.537933826,1.934844,-0.6226979,-1.825076,0.07735385,-0.07308482,0.992575,-17.3575,22.68085,-34.35964,1008.163
32.570712566,19.70139,-1.568181,-2.741412,0.08754338,-0.07109515,0.9862902,-16.99269,22.68592,-33.925,1008.164
32.606011391,33.30584,-1.095439,-3.230124,0.07978866,-0.07143942,1.016153,-17.35822,22.6749,-34.79475,1008.167
32.638789654,70.2677,-10.96392,-1.336364,0.08224078,-0.0826576,1.01087,-16.9671,21.21628,-34.7723,1008.167
32.671567440,137.7309,-17.99595,3.062045,0.09361719,0.03281805,1.00393,-16.9671,21.21628,-34.7723,1008.163
32.704345226,164.6292,-28.69172,14.30242,-0.0161695,0.2720793,1.083735,-16.95566,20.47042,-36.00402,1008.167
32.737123966,196.1865,-46.47862,34.64507,0.06191438,0.316241,1.10707,-17.61122,16.37885,-37.67954,1008.167
32.772422790,246.2559,-70.70662,64.27324,0.2021663,0.550064,1.084724,-17.61122,16.37885,-37.67954,1008.167
32.805201054,300.7979,-99.36657,101.9041,0.3094592,0.7486776,1.011485,-18.30081,10.89635,-38.89791,1008.166
32.837978840,423.1758,-121.5854,153.8297,0.3627549,0.918508,0.5759512,-20.34892,3.552107,-38.77953,1008.166
32.870756626,457.7771,-95.8801,196.531,0.4808769,1.23314,0.3643604,-20.34892,3.552107,-38.77953,1008.167
32.906056404,396.8366,-43.4058,229.4579,0.4530921,1.244357,0.1896751,-24.18322,-5.186931,-34.34693,1008.167
32.938834190,238.0559,14.91868,233.5509,0.4913127,1.288464,0.1129814,-28.4326,-14.26561,-28.16761,1008.167
32.971612930,72.31768,48.12877,223.0436,0.4134186,0.7507586,0.0648777,-28.4326,-14.26561,-28.16761,1008.166
33.004390240,66.9753,55.86991,206.4885,0.5278928,0.3619278,-0.09750805,-32.73977,-17.17788,-24.19917,1008.164
33.037168980,77.47371,84.58895,173.5615,0.7281832,0.2526301,-0.1570259,-34.97414,-14.57274,-25.10764,1008.162
33.072467804,42.93456,124.7129,134.2202,0.7204406,0.05650225,-0.0561073,-34.97414,-14.57274,-25.10764,1008.162
33.105245590,57.47082,141.6725,99.70487,0.738924,-0.1595307,-0.04764239,-36.19081,-11.31382,-26.89817,1008.162
33.138024330,93.00391,152.3683,65.12849,0.8387688,-0.06203207,0.05546661,-35.46178,-8.446912,-30.36376,1008.16
33.170802116,123.2567,164.6004,35.5614,0.7625651,-0.05006545,0.1870411,-35.46178,-8.446912,-30.36376,1008.159
33.206101418,171.4003,168.5596,6.299763,0.780534,0.1400404,0.1183586,-31.4695,-8.139625,-33.85555,1008.159
33.238879204,170.4685,202.3016,-25.71088,0.7220157,0.2351503,0.06829239,-27.7971,-9.988367,-35.13693,1008.159
33.271656990,154.1929,233.8571,-60.28727,0.4687544,0.3544297,0.08604234,-27.7971,-9.988367,-35.13693,1008.157
33.304435730,-195.2986,241.1846,-197.7986,-0.4608706,1.884466,3.270149,-23.63295,-15.48759,-36.73452,1008.157
33.337213516,20.32259,-87.96169,-6.223485,-0.5641792,-0.02697019,-0.009612022,-15.81952,-21.41563,-37.95716,1008.159
33.372513294,197.4289,-38.79657,-77.57545,1.465932,0.5721303,0.7774727,-15.81952,-21.41563,-37.95716,1008.159
33.405290604,17.52716,-40.1557,-58.51568,0.2302207,1.075892,0.3950363,-10.37865,-20.33541,-37.9814,1008.159
33.438069344,-95.84326,-37.96927,-40.86096,0.5997896,0.8979597,0.6278884,-12.09067,-25.81079,-34.41125,1008.159
33.470847130,-100.9372,-63.85186,-18.99109,0.3158256,0.6404555,0.5692611,-12.09067,-25.81079,-34.41125,1008.16
33.506145954,-144.3596,-74.42946,-15.50902,0.4204357,0.7709284,0.6458343,-10.98783,-26.56605,-36.14165,1008.16
33.538924694,-192.0062,-102.2621,-15.32575,0.2027902,0.4355392,0.7936713,-12.4955,-23.97454,-37.92128,1008.16
33.571702480,-152.0004,-161.7684,-24.91673,0.1480283,0.3988758,0.8400672,-14.77149,-19.26134,-40.16851,1008.159
33.604480743,-262.1406,-203.7242,-63.4028,0.4675561,0.5443444,0.5733783,-14.77149,-19.26134,-40.16851,1008.159
33.637258530,-306.9297,-169.2732,-133.0443,1.42321,0.08142624,0.3720443,-17.86013,-12.9921,-39.82793,1008.163
33.672557354,-288.1071,-57.46986,-194.9886,1.028222,0.3721767,0.3547326,-24.17613,-5.968451,-38.18932,1008.161
33.705336094,-336.934,-18.64597,-231.5809,0.4608082,0.2389675,0.1608463,-24.17613,-5.968451,-38.18932,1008.159
33.738113880,-302.457,16.39599,-256.5663,0.2950806,0.06251148,-0.01130355,-26.89822,0.2502146,-37.04019,1008.159
33.770892143,-184.3654,59.59274,-235.1851,0.2564073,0.2452034,0.2527804,-28.09071,5.798809,-35.75819,1008.159
33.806190968,-129.9476,88.54816,-208.1838,0.3481457,0.5328509,0.6049674,-28.09071,5.798809,-35.75819,1008.157
33.838969707,-143.7384,138.4815,-203.2356,0.3752227,0.6257454,0.8338914,-27.7672,7.984558,-35.79304,1008.159
33.871747494,-151.5035,150.8318,-181.6101,0.1221298,0.6936128,0.952323,-26.23742,7.246103,-36.21865,1008.159
33.904525280,-160.3246,140.9634,-133.1054,0.01670187,0.7448423,1.092091,-26.23742,7.246103,-36.21865,1008.159
33.937303543,-173.8048,124.772,-80.1412,0.06138625,0.588332,1.36419,-23.71061,8.321417,-37.10935,1008.159
33.972602844,-105.8447,83.46619,-62.60864,-0.005452875,0.1201776,1.429075,-20.47634,10.55498,-37.58402,1008.161
34.005381107,4.668158,27.44633,-26.62722,-0.1322437,0.3374275,1.375617,-20.47634,10.55498,-37.58402,1008.161
34.038158894,-66.70861,12.08223,-16.7308,-0.04330253,0.07225484,1.236693,-18.36552,14.5645,-37.21476,1008.161
34.070936680,-23.09983,-5.409205,-13.24872,-0.02267756,-0.2740043,1.005631,-17.59697,15.65592,-37.23297,1008.159
34.103714943,55.11023,-8.60021,-2.680323,0.03634579,-0.01120985,0.8346925,-17.59697,15.65592,-37.23297,1008.159
34.139014244,9.824183,1.209175,3.306401,-0.01262526,0.1935574,0.9938307,-17.25776,17.13062,-35.95103,1008.159
34.171792507,-10.73779,0.3818777,11.1258,0.008579638,0.08113158,1.120067,-17.95356,15.2983,-36.79166,1008.159
34.204570293,24.79529,-4.641,7.032831,0.05566168,0.07366338,1.04006,-17.95356,15.2983,-36.79166,1008.159
34.237348080,18.8317,-6.768337,8.865501,0.01205492,0.2242759,0.9691765,-18.01424,15.29844,-36.79158,1008.159
34.272647858,-7.321152,-3.340961,7.521543,0.01900269,0.16202,0.9731047,-17.96104,15.65679,-37.2325,1008.159
34.305425644,-17.75744,-4.168259,6.971742,0.01137162,0.1141078,1.026145,-17.96104,15.65679,-37.2325,1008.159
34.338203907,-11.85597,-7.241078,10.08728,0.02073018,0.0622136,1.046418,-17.58948,15.29742,-36.79213,1008.157
34.370981693,-0.5499871,-9.368415,10.63708,0.03968718,0.04601179,1.005,-18.38507,15.66375,-36.79684,1008.156
34.403759956,4.854521,-9.959342,9.048768,0.05127785,0.06785446,0.9803904,-18.38507,15.66375,-36.79684,1008.156
34.439059258,0.3197038,-5.704669,5.933228,0.06043159,0.09509108,0.9639614,-18.39111,16.03413,-36.36746,1008.156
34.471837044,-6.38934,-2.572756,2.7566,0.06285521,0.09959167,0.9779084,-17.60904,16.39668,-36.37421,1008.156
34.504615307,-6.762064,-0.5045125,0.1908611,0.05370932,0.06793164,0.9885678,-17.60904,16.39668,-36.37421,1008.154
34.537393093,-3.531785,-0.2090491,0.1908611,0.04101425,0.09956003,0.9996215,-18.40536,16.75706,-36.81403,1008.154
34.572692871,-5.58177,0.5000631,0.8017513,0.05512157,0.08795875,0.9952733,-18.03452,16.39175,-36.80877,1008.154
34.605470657,-6.140857,1.09099,1.840265,0.06288937,0.08800348,0.9923666,-18.3986,16.39263,-36.8083,1008.152
34.638248444,-7.259031,1.445546,2.695511,0.04153809,0.08298844,0.9972385,-18.3986,16.39263,-36.8083,1008.152
34.671026707,-5.892374,1.09099,2.939867,0.05275916,0.06067505,0.9967641,-18.04659,17.13251,-35.95001,1008.152
34.703804493,-1.109074,0.9728046,3.550757,0.05422245,0.0562437,0.9881028,-18.40463,16.76301,-36.37892,1008.154
34.739104271,2.43181,0.5591557,4.711448,0.04547945,0.05966366,1.000152,-18.40463,16.76301,-36.37892,1008.16
34.771882057,6.283298,-1.33181,6.238674,0.05863098,0.04122252,0.9938913,-18.04056,16.76213,-36.37939,1008.16
34.804660320,11.43932,-0.5636052,6.48303,0.07021878,0.06958738,0.9967093,-17.62256,17.12555,-36.38567,1008.16
34.837438106,17.52716,-3.10459,5.139071,0.01161653,0.001253163,0.9757713,-17.62256,17.12555,-36.38567,1008.16
34.872737408,53.92994,-10.37299,5.749961,0.1009336,0.01672324,0.9919025,-18.04128,16.75619,-36.8145,1008.16
34.905515671,67.34802,-13.15035,8.437879,0.04046589,0.1263558,1.001508,-17.603,16.0263,-36.80359,1008.16
34.938293457,77.34946,-19.05961,11.73668,0.08311288,0.1587523,0.9864357,-17.603,16.0263,-36.80359,1008.16
34.971071720,75.3616,-18.17323,13.44718,0.1027936,0.2528476,0.9766199,-18.00893,14.92212,-37.65607,1008.157
35.003849506,63.37229,-15.33678,12.71411,0.05940561,0.3179811,0.9400412,-18.69724,12.7313,-38.05587,1008.157
35.039149284,47.77998,-20.30056,8.376789,0.07646086,0.2963373,0.9588065,-18.69724,12.7313,-38.05587,1008.159
35.071927071,53.30873,-17.5823,5.81105,0.146258,0.3490191,0.9566361,-19.02148,10.5396,-38.45613,1008.159
35.104704857,29.95131,-14.03674,8.743323,0.1411958,0.4341447,0.9473739,-19.36415,9.386425,-38.43751,1008.161
35.137483120,8.084801,-7.0638,10.14837,0.1645675,0.4015041,0.9180046,-19.36415,9.386425,-38.43751,1008.163
35.172782421,3.674226,-2.277293,11.24797,0.1369243,0.3851377,0.908949,-20.05777,7.57193,-37.97281,1008.163
35.205560684,-3.283301,1.09099,10.57599,0.1491061,0.3697412,0.9214587,-19.67944,6.848127,-37.52671,1008.163
35.238338471,-9.805983,5.582034,11.1258,0.1767995,0.3626466,0.9185155,-19.67944,6.848127,-37.52671,1008.163
35.271116257,-14.83777,7.473,6.421941,0.09923724,0.3094564,0.9269629,-20.05849,7.565986,-38.40792,1008.164
35.303894520,-11.359,8.59576,5.200161,0.1172765,0.2839814,0.9539147,-19.70118,7.929551,-38.41412,1008.164
35.339193821,-6.575702,9.541244,2.7566,0.157608,0.2660868,0.9235202,-19.70118,7.929551,-38.41412,1008.166
35.371972084,3.177259,11.60949,-0.053495,0.140548,0.2952335,0.933144,-19.70794,8.293987,-38.41985,1008.166
35.404749870,6.656023,13.02771,-1.153097,0.09923745,0.3059234,0.9091577,-19.35135,8.651606,-38.86116,1008.166
35.437527657,3.549984,16.75055,-3.902103,0.1137468,0.3303996,0.9095678,-19.35135,8.651606,-38.86116,1008.164
35.472827435,2.245448,24.07804,-6.223485,0.1078907,0.3410053,0.9009012,-18.62923,9.020243,-38.43272,1008.16
35.505605221,-4.463596,31.93737,-8.483779,0.1117148,0.3693891,0.9157715,-18.99476,9.009228,-39.30247,1008.162
35.538383484,-11.91809,40.62399,-10.86625,0.06515355,0.3450823,0.9082168,-18.25912,8.648989,-38.86258,1008.162
35.571161270,-11.60748,48.18786,-15.0203,0.06088329,0.303672,0.9116589,-18.25912,8.648989,-38.86258,1008.164
35.603939056,-20.55288,53.26983,-20.0296,0.06416611,0.3655311,0.9784672,-17.10017,8.275845,-39.29345,1008.164
35.639238834,-43.97241,51.37886,-28.9486,-0.0651904,0.2689757,1.116589,-15.29331,9.000357,-39.30725,1008.164
35.672016621,7.21511,34.71473,-21.61792,-0.1126602,0.2082592,1.057104,-15.29331,9.000357,-39.30725,1008.162
35.704794884,20.19835,35.36475,-25.22217,-0.07160929,0.267756,0.8788133,-14.20856,9.356232,-39.7495,1008.162
35.737572670,2.43181,41.21492,-28.9486,-0.06691319,0.355721,0.9860133,-13.4879,9.71298,-40.19129,1008.164
35.770350456,-1.295436,39.02849,-27.48246,-0.1647826,0.2638119,0.9839771,-13.4879,9.71298,-40.19129,1008.166
35.805650234,22.62106,35.7193,-29.55949,-0.1341238,0.2272455,0.9415997,-11.65472,8.973797,-40.61729,1008.166
35.838428020,33.43008,35.06928,-29.98711,-0.1381844,0.311847,0.9958757,-11.65544,8.967854,-41.0524,1008.166
35.871206760,16.53323,35.83749,-24.55019,-0.1882518,0.3247283,0.9473575,-11.65544,8.967854,-41.0524,1008.166
35.903984070,8.643888,35.18747,-19.66307,-0.211492,0.2892135,0.9108827,-9.458805,8.222706,-41.85182,1008.166
35.939283848,13.30295,35.7193,-15.93664,-0.25967,0.3381594,0.9335471,-8.291644,7.497013,-41.40674,1008.166
35.972061634,8.954492,34.892,-11.78259,-0.2760797,0.2966445,0.9365368,-8.291644,7.497013,-41.40674,1008.166
36.004839420,14.29688,33.2965,-9.216847,-0.2965187,0.3109211,0.912977,-7.543309,6.401107,-41.45264,1008.166
36.037618160,14.85597,33.47378,-9.155759,-0.3295925,0.3365551,0.9269764,-6.088349,6.386578,-42.26259,1008.166
36.070395947,5.662091,34.24199,-9.155759,-0.3407903,0.3450878,0.9067728,-6.088349,6.386578,-42.26259,1008.166
36.105695248,4.233313,37.78754,-11.84368,-0.3480963,0.3512412,0.8899332,-4.975833,5.29065,-42.24681,1008.166
36.138473034,3.177259,39.02849,-14.40941,-0.3709259,0.3519378,0.877471,-3.88974,5.657564,-41.881,1008.164
36.171250820,4.668158,41.74675,-17.03624,-0.404406,0.342942,0.8847843,-3.88974,5.657564,-41.881,1008.166
36.204029560,3.736346,44.81957,-18.25802,-0.4238222,0.3383364,0.8761728,-2.070702,5.642162,-42.69141,1008.166
36.239328384,3.98483,47.18328,-17.46387,-0.428159,0.3196255,0.8521432,-0.9635981,4.921709,-41.87329,1008.166
36.272107124,3.674226,50.90612,-15.08139,-0.4398214,0.3219166,0.8454283,-0.9635981,4.921709,-41.87329,1008.166
36.304884434,-7.693876,55.16079,-11.1717,-0.4636225,0.3251239,0.8449986,1.646453,4.922247,-41.37939,1008.166
36.337663174,-20.24227,56.57902,-4.879527,-0.5242862,0.3069372,0.82399,3.102659,4.917908,-41.44343,1008.166
36.370440960,-21.98166,56.99267,1.351552,-0.5479814,0.2607841,0.799085,3.102659,4.917908,-41.44343,1008.164
36.405739784,-26.64071,53.44711,6.360852,-0.5869285,0.3073619,0.820287,4.552934,5.284798,-41.01593,1008.164
36.438518524,-19.55894,49.54699,8.315701,-0.6160061,0.2670837,0.7361784,7.08868,6.013508,-40.59557,1008.166
36.471296311,-4.401475,45.76506,4.894715,-0.6038808,0.2669674,0.7048613,8.889509,7.1084,-40.18,1008.166
