Time (s),Gyroscope X (deg/s),Gyroscope Y (deg/s),Gyroscope Z (deg/s),Accelerometer X (g),Accelerometer Y (g),Accelerometer Z (g),Magnetometer X (uT),Magnetometer Y (uT),Magnetometer Z (uT),Barometer (hPa)
0.014609337,1.156194,-0.2739116,1.627747,-1.027588,-0.02004823,-0.06741177,34.80276,17.82422,-22.04401,1008.283
0.049369335,-0.3311741,0.1957106,1.262103,-1.024237,-0.008448838,-0.07460462,35.15355,17.81459,-22.48526,1008.283
0.081645489,-0.3311741,1.66328,0.2870514,-1.018402,-0.02442482,-0.08147617,35.13063,18.16864,-23.29908,1008.285
0.116405487,1.404088,1.780686,-0.01765209,-1.003867,-0.03159641,-0.06801199,35.13063,18.16864,-23.29908,1008.283
0.148682117,0.8463255,2.367713,-0.444237,-1.00918,-0.0364722,-0.07431297,34.79011,18.1831,-22.48436,1008.285
0.180959225,2.333693,2.250308,-0.2004742,-0.9927106,-0.04461431,-0.06327567,34.77879,17.81295,-22.91547,1008.285
0.215719223,4.130929,1.780686,0.4089328,-1.005324,-0.03211561,-0.07719713,34.77879,17.81295,-22.91547,1008.283
0.247995377,3.883035,1.66328,0.3479922,-1.001926,-0.0344961,-0.0685161,35.52765,18.18075,-22.05966,1008.287
0.282755375,4.31685,1.134955,0.4698736,-1.016463,-0.0219587,-0.06938037,34.80144,18.55325,-22.05325,1008.287
0.315032005,2.209746,1.134955,-0.01765209,-1.015033,-0.01617526,-0.07756902,34.80144,18.55325,-22.05325,1008.288
0.349791527,1.218167,1.428469,-0.444237,-1.012111,-0.02634257,-0.08150063,35.16487,18.18474,-22.05414,1008.29
0.382069111,0.5984308,0.9001439,-0.3832963,-1.0005,-0.02775135,-0.07863304,34.79077,17.81858,-22.47974,1008.29
0.414345265,0.5364571,1.369766,-0.444237,-1.007256,-0.03504273,-0.08252744,34.79077,17.81858,-22.47974,1008.29
0.449105263,1.032246,0.5479273,-0.2614149,-1.00048,-0.03695418,-0.0811026,34.77945,17.44843,-22.91085,1008.293
0.481381893,1.528036,0.60663,-0.2614149,-1.007745,-0.03457984,-0.08832502,35.52831,17.81624,-22.05504,1008.293
0.516141415,1.218167,-0.3913172,-0.3223556,-1.009686,-0.02777269,-0.07716304,35.51566,18.17512,-22.49539,1008.293
0.548418522,0.1026415,-0.5674255,-0.2004742,-1.006307,-0.02583222,-0.07860961,35.51566,18.17512,-22.49539,1008.293
0.583178044,-1.632621,-0.6261283,0.04328861,-1.01598,-0.02488874,-0.07761652,35.89109,17.81225,-22.06056,1008.293
0.615455151,-1.880516,-0.8609394,0.2870514,-1.009672,-0.03113562,-0.06993062,35.51633,17.8106,-22.49077,1008.298
0.647731781,-1.818542,-1.389264,0.7136364,-1.008735,-0.01952841,-0.07276727,35.51633,17.8106,-22.49077,1008.296
0.682491303,-3.491831,-1.447967,0.16517,-1.001936,-0.0340482,-0.07914919,35.50434,17.80497,-22.9265,1008.29
0.714768410,-1.632621,-0.3913172,-0.2004742,-1.001428,-0.04567257,-0.08260044,35.15421,17.45008,-22.48064,1008.29
0.749527931,1.713957,0.07830502,0.4089328,-1.013056,-0.03456065,-0.07816126,35.15421,17.45008,-22.48064,1008.294
0.781805039,1.713957,-0.3913172,0.4089328,-1.01018,-0.02146499,-0.07180829,35.15355,17.81459,-22.48526,1008.292
0.816564083,-0.7649897,0.60663,-0.1395335,-1.005339,-0.02631338,-0.07861444,35.87844,18.17113,-22.5009,1008.294
0.848841190,0.3505361,0.1370078,-0.3832963,-1.005797,-0.03598187,-0.07528435,35.87844,18.17113,-22.5009,1008.296
0.881117821,0.7223781,0.5479273,0.04328861,-1.015975,-0.02829098,-0.08198682,35.51633,17.8106,-22.49077,1008.296
0.915877819,-0.5170951,0.2544134,0.2870514,-1.007755,-0.02728979,-0.07909822,35.50368,18.16948,-22.93111,1008.296
0.948154926,-0.08327948,0.01960224,0.2870514,-1.004357,-0.03260005,-0.07816886,35.50368,18.16948,-22.93111,1008.296
0.982913971,-0.7030161,0.07830502,0.2261107,-1.001447,-0.03597762,-0.07771089,35.52831,17.81624,-22.05504,1008.294
1.015191078,0.7843518,-0.1565061,0.04328861,-1.011152,-0.02246346,-0.08003034,35.51633,17.8106,-22.49077,1008.294
1.049951077,-0.3931478,0.2544134,-0.07859279,-1.014552,-0.0161837,-0.08047074,35.51633,17.8106,-22.49077,1008.293
1.082227230,-1.012884,0.1957106,0.2261107,-1.016483,-0.01910755,-0.08483414,35.1662,17.45571,-22.04491,1008.293
1.114504814,-1.074858,0.5479273,0.16517,-1.006772,-0.03357646,-0.07865264,35.15355,17.81459,-22.48526,1008.294
1.149263859,-0.2072268,0.2544134,0.04328861,-1.003868,-0.03306458,-0.07285472,35.15355,17.81459,-22.48526,1008.294
1.181540966,0.1026415,0.1370078,0.1042293,-1.004342,-0.03644855,-0.07142264,34.79077,17.81858,-22.47974,1008.298
1.216300964,-0.3931478,0.3718189,0.4698736,-1.014528,-0.02439247,-0.07519964,34.80209,18.18873,-22.04863,1008.298
1.248577118,-0.02130582,-0.3326144,0.591755,-1.007745,-0.0301819,-0.07573061,34.80209,18.18873,-22.04863,1008.298
1.280854225,-0.5790688,0.3718189,0.4698736,-1.013087,-0.02344831,-0.08341584,35.16487,18.18474,-22.05414,1008.298
1.315613747,-1.074858,0.60663,0.04328861,-1.007274,-0.0287664,-0.08684267,35.15355,17.81459,-22.48526,1008.298
1.347890854,0.3505361,0.8414412,0.1042293,-1.012564,-0.03794513,-0.07769812,35.15355,17.81459,-22.48526,1008.298
1.382650852,1.528036,0.6653328,-0.01765209,-1.00777,-0.02295245,-0.08439135,35.16422,18.54926,-22.05876,1008.298
1.414927006,-0.9509107,0.4892245,1.566806,-0.9952152,-0.01419433,-0.08098454,35.87844,18.17113,-22.5009,1008.298
1.449687004,-1.384726,1.369766,0.7136364,-1.003924,-0.007399986,-0.06787429,35.87844,18.17113,-22.5009,1008.298
1.481963635,-1.756568,0.9001439,0.7136364,-1.012572,-0.0370002,-0.08446088,34.4878,18.18642,-22.47976,1008.298
1.514240742,-1.570647,1.076252,0.8355178,-1.014997,-0.03313078,-0.08298332,35.15355,17.81459,-22.48526,1008.297
1.549000263,-0.5170951,0.07830502,1.01834,-1.010151,-0.03600414,-0.07817572,35.17752,17.82586,-21.6138,1008.298
1.581276894,0.2885625,0.5479273,0.7136364,-1.005807,-0.03211536,-0.07671267,35.17752,17.82586,-21.6138,1008.298
1.616036892,0.2885625,0.3718189,0.7136364,-1.011139,-0.02729783,-0.07860753,35.16553,17.82023,-22.04953,1008.298
1.648313522,-0.7030161,0.1370078,0.3479922,-1.008229,-0.02920887,-0.07379028,35.15289,18.17911,-22.48987,1008.298
1.683073044,-0.1452532,-0.2739116,-0.01765209,-1.004843,-0.03358895,-0.0839747,35.15289,18.17911,-22.48987,1008.298
1.715350151,1.032246,-0.45002,0.1042293,-1.010195,-0.01663717,-0.07516488,35.16487,18.18474,-22.05414,1008.297
1.747626782,-0.8889371,-0.5087227,0.4089328,-1.004857,-0.02876113,-0.08733129,35.1662,17.45571,-22.04491,1008.297
1.782386780,0.5364571,-0.2739116,-0.01765209,-1.007273,-0.02876149,-0.08539233,35.1662,17.45571,-22.04491,1008.297
1.814662933,0.3505361,-0.6261283,-0.07859279,-1.006299,-0.0282404,-0.07523926,35.15355,17.81459,-22.48526,1008.297
1.849422932,-0.4551215,-0.45002,-0.5051777,-1.004862,-0.02438284,-0.08053824,35.89109,17.81225,-22.06056,1008.295
1.881700039,0.5984308,-0.7435338,-0.444237,-1.011152,-0.02197298,-0.07809379,35.89109,17.81225,-22.06056,1008.295
1.916459560,0.3505361,-1.330562,-0.5661184,-1.007272,-0.02338422,-0.06940828,35.53963,18.18639,-21.62393,1008.293
1.948736668,-1.074858,-0.6848311,-0.6270592,-1.006793,-0.028286,-0.08829129,35.15355,17.81459,-22.48526,1008.293
1.981012821,0.3505361,-1.095751,-0.1395335,-1.016004,-0.01766093,-0.08676071,35.15355,17.81459,-22.48526,1008.292
2.015772820,-2.252357,0.01960224,0.1042293,-1.013562,-0.02585787,-0.08004444,35.16553,17.82023,-22.04953,1008.292
2.048049927,-2.12841,-0.03910053,0.9573992,-1.019412,-0.00847924,-0.08766803,35.52953,17.14796,-22.04658,1008.29
2.082808971,-1.942489,0.7827384,0.2870514,-0.9995269,-0.03065543,-0.07961852,35.52953,17.14796,-22.04658,1008.292
2.115086556,0.5984308,-0.03910053,0.2870514,-0.9990181,-0.03885626,-0.07241467,34.80276,17.82422,-22.04401,1008.292
2.149846077,0.6604044,0.9001439,1.262103,-1.016465,-0.01854335,-0.06114249,35.15289,18.17911,-22.48987,1008.29
2.182122707,-1.322753,-0.8609394,0.8964585,-1.014082,-0.01232891,-0.08576766,35.15289,18.17911,-22.48987,1008.292
2.214399815,-0.3311741,-0.6848311,-0.2614149,-1.019401,-0.01136643,-0.08285008,36.2532,18.17278,-22.07069,1008.29
2.249158859,-0.4551215,-1.095751,-1.419288,-0.9985988,-0.01908588,-0.09357446,35.54151,17.15359,-21.61086,1008.292
2.281435967,-1.756568,-0.8609394,-1.967755,-1.001939,-0.03357083,-0.08108022,35.54151,17.15359,-21.61086,1008.292
2.316195965,0.4125098,-0.6848311,-1.60211,-1.000474,-0.03888334,-0.07917983,35.5403,17.82187,-21.61932,1008.292
2.348472595,1.404088,-1.037048,-0.2614149,-1.011621,-0.02729102,-0.07618926,35.1662,17.45571,-22.04491,1008.292
2.383232594,-1.322753,-0.5087227,0.04328861,-1.000026,-0.02241364,-0.07473621,35.1662,17.45571,-22.04491,1008.292
2.415508747,-2.066437,0.3718189,0.04328861,-1.000492,-0.03260373,-0.08252815,35.15421,17.45008,-22.48064,1008.292
2.447785854,-1.384726,0.2544134,0.16517,-1.003375,-0.03791231,-0.07578398,35.52898,17.45172,-22.05043,1008.29
2.482545853,1.156194,1.487172,1.383984,-1.019354,-0.02778724,-0.07327478,35.52898,17.45172,-22.05043,1008.29
2.514822483,3.015404,1.076252,2.176213,-1.018427,-0.009382087,-0.06930462,34.79011,18.1831,-22.48436,1008.29
2.549582005,-0.3311741,1.076252,1.444925,-1.016507,-0.005034305,-0.07315155,35.51699,17.44609,-22.48616,1008.29
2.581858635,-1.198805,1.839388,0.8355178,-1.005345,-0.02535863,-0.0824765,35.51633,17.8106,-22.49077,1008.288
2.614135742,-1.136832,0.2544134,0.6526957,-1.010661,-0.02927311,-0.09070577,35.51633,17.8106,-22.49077,1008.288
2.648895741,-1.198805,-1.213156,0.1042293,-1.00439,-0.02589876,-0.09988543,35.52831,17.81624,-22.05504,1008.288
2.681172371,1.404088,-0.8609394,-0.5051777,-1.012132,-0.02056491,-0.09016964,35.52898,17.45172,-22.05043,1008.29
2.715931893,-0.3311741,-0.09780331,-1.54117,-1.005823,-0.02533708,-0.07570721,35.52898,17.45172,-22.05043,1008.29
2.748208523,0.6604044,1.076252,-2.333399,-1.004332,-0.04276091,-0.07774324,35.1662,17.45571,-22.04491,1008.292
2.782968521,4.936587,1.017549,-1.54117,-1.005333,-0.02335576,-0.06264415,35.16487,18.18474,-22.05414,1008.292
2.815245628,4.31685,1.839388,-1.54117,-1.000022,-0.02190678,-0.06796519,35.16487,18.18474,-22.05414,1008.292
2.847522259,1.651983,1.311063,-0.8098813,-1.003399,-0.02775145,-0.0762096,35.16487,18.18474,-22.05414,1008.292
2.882281780,-3.677752,1.017549,0.6526957,-1.00193,-0.03939926,-0.08739808,35.52765,18.18075,-22.05966,1008.292
2.914558411,-2.748147,-0.03910053,2.237154,-1.012572,-0.04091258,-0.09656909,35.52765,18.18075,-22.05966,1008.293
2.949318409,-0.5790688,-0.5087227,2.846561,-1.019396,-0.01720961,-0.09351897,35.16553,17.82023,-22.04953,1008.293
2.981595516,-3.429857,-3.385159,0.5308142,-0.9753156,-0.04412811,-0.07733011,35.16487,18.18474,-22.05414,1008.293
3.016354561,0.04066784,5.596366,2.419976,-1.014485,-0.03789661,-0.06174022,35.16487,18.18474,-22.05414,1008.293
3.048631668,3.201325,-5.73327,2.359035,-1.028633,0.01627805,-0.05705075,35.1662,17.45571,-22.04491,1008.293
3.080908299,4.440797,3.483066,0.16517,-1.068846,0.03342584,-0.1037601,35.51633,17.8106,-22.49077,1008.293
3.115668297,1.342115,-2.211103,-2.699043,-0.9938357,0.01630059,-0.07984725,35.51633,17.8106,-22.49077,1008.293
3.147945404,-2.438278,3.893986,-5.9289,-0.975261,-0.08006332,-0.1142759,35.15421,17.45008,-22.48064,1008.295
3.182704449,3.449219,1.487172,-3.552213,-0.978598,-0.08476157,-0.06981907,34.79011,18.1831,-22.48436,1008.295
3.214981556,6.85777,-0.9783449,0.3479922,-1.016925,-0.02773446,-0.05974343,34.79011,18.1831,-22.48436,1008.295
3.249741554,3.139351,-1.91759,2.480917,-1.052854,0.02482136,-0.0859563,35.52898,17.45172,-22.05043,1008.297
3.282018185,-2.252357,-1.330562,2.115273,-1.048466,0.009346447,-0.08653718,35.51566,18.17512,-22.49539,1008.301
3.314295292,-2.686173,0.1370078,0.9573992,-0.9835858,-0.02187944,-0.07380172,35.51566,18.17512,-22.49539,1008.297
3.349054337,-2.562226,2.896038,0.3479922,-0.9830243,-0.04843188,-0.05558323,35.51699,17.44609,-22.48616,1008.297
3.381331444,-2.004463,1.252361,1.140221,-0.9989887,-0.05192888,-0.07442281,35.15421,17.45008,-22.48064,1008.297
3.416091442,-0.4551215,-0.6261283,2.907502,-1.01163,-0.02586217,-0.08294925,35.15421,17.45008,-22.48064,1008.297
3.448367596,3.697114,-1.389264,2.724679,-1.007779,-0.0283674,-0.1114947,35.52765,18.18075,-22.05966,1008.301
3.483127594,2.457641,0.3131161,0.8355178,-0.9908484,-0.02145064,-0.08393584,35.8791,17.80662,-22.49629,1008.299
3.515404225,1.77593,1.545874,-0.7489405,-0.9995425,-0.02827673,-0.09169094,35.8791,17.80662,-22.49629,1008.301
3.547681332,1.590009,1.66328,-1.723992,-0.9985569,-0.03259493,-0.0815654,35.15421,17.45008,-22.48064,1008.301
3.582441330,1.218167,-0.3326144,-2.272458,-0.9927328,-0.03981925,-0.0763012,35.51633,17.8106,-22.49077,1008.301
3.614717484,5.122508,0.5479273,-2.272458,-0.9917424,-0.04998226,-0.077328,35.15476,17.14632,-22.47679,1008.302
3.649477482,5.556323,-0.2739116,-2.820925,-0.9748168,-0.04601822,-0.0642891,35.15476,17.14632,-22.47679,1008.302
3.681754112,4.502771,0.07830502,-3.430332,-0.9840237,-0.0378177,-0.06422263,35.52831,17.81624,-22.05504,1008.304
3.716513634,1.590009,-0.3326144,-3.430332,-0.9738655,-0.03581855,-0.05408094,35.87977,17.4421,-22.49167,1008.304
3.748791218,-13.34564,-5.73327,-3.369391,-1.010903,-0.161193,-0.177024,35.87977,17.4421,-22.49167,1008.304
3.781067372,-3.677752,-2.622023,-1.54117,-0.933195,-0.04916726,-0.02910568,35.89043,18.17677,-22.06518,1008.306
3.815827370,6.17606,-7.787867,-2.028695,-0.9245742,-0.006482948,-0.007126814,35.15289,18.17911,-22.48987,1008.306
3.848104000,29.54013,-5.439756,-3.247509,-0.9954926,-0.109121,-0.1037619,35.15289,18.17911,-22.48987,1008.306
3.882863522,34.49803,-12.24928,-4.344442,-0.9197788,-0.01347672,-0.07582521,35.86778,17.43646,-22.9274,1008.306
3.915140629,42.49263,-14.06907,-4.649146,-0.8486714,-0.008278608,-0.03002223,35.11864,18.16301,-23.7348,1008.306
3.949900150,39.39394,-10.31209,-2.577162,-0.9576173,0.1046571,0.1158863,35.11864,18.16301,-23.7348,1008.308
3.982177258,20.92579,-9.020626,2.115273,-1.40827,0.1986596,-0.181373,35.82155,17.41473,-24.60806,1008.308
4.014453888,-64.78378,3.541769,-21.71254,-1.595785,-0.01549523,-0.6714265,35.78786,17.09487,-25.84915,1008.309
4.049213409,-7.582093,0.4305217,-22.13913,-0.7176703,-0.3021531,0.2484189,35.78786,17.09487,-25.84915,1008.309
4.081490517,25.32592,-7.024731,-12.99802,-0.970521,0.02364155,0.06759306,35.78786,17.09487,-25.84915,1008.309
4.116250038,11.75369,-0.1565061,-9.768166,-1.138271,-0.2624975,-0.1178625,35.4448,18.50663,-25.05212,1008.308
4.148527145,31.08947,-1.624076,-7.574299,-0.9880226,0.04274908,0.0087599,35.4448,18.50663,-25.05212,1008.308
4.180803299,-15.51472,5.185447,-7.147715,-0.9831354,-0.2140154,-0.07972955,35.0591,18.86468,-25.86042,1008.308
4.215563297,29.41618,3.893986,-1.053644,-0.9917303,-0.02452149,0.01031915,35.07175,18.50579,-25.42008,1008.308
4.247840405,2.767509,5.185447,-1.419288,-1.028448,-0.04257614,-0.002757217,35.07175,18.50579,-25.42008,1008.308
4.282599926,6.609876,8.179288,-1.967755,-1.002001,-0.2004178,-0.04963837,34.75679,18.868,-25.85583,1008.308
4.314877033,25.63579,9.05983,-0.6270592,-1.004209,-0.06423958,0.01012021,35.0591,18.86468,-25.86042,1008.308
4.349636555,6.981718,13.75605,-1.114585,-1.01338,-0.08472352,-0.02913503,35.0591,18.86468,-25.86042,1008.308
4.381913185,3.015404,12.99292,-0.444237,-1.010855,-0.1492658,-0.08461947,35.44613,17.7776,-25.04288,1008.309
4.414190292,10.26632,9.412046,2.541857,-1.012359,-0.12457,-0.07867455,35.80891,17.77361,-25.0484,1008.309
4.448949337,17.33132,6.300799,4.674782,-1.011065,-0.05484572,-0.06812868,35.80891,17.77361,-25.0484,1008.309
4.481226921,8.902902,5.713772,4.065375,-1.009627,-0.04902788,-0.06616495,35.80956,17.4091,-25.04379,1008.308
4.515986443,0.1646152,5.009338,2.846561,-1.008516,-0.09631906,-0.02776113,36.16141,17.7648,-25.4274,1008.308
4.548263073,-0.3311741,4.539716,3.943494,-1.015334,-0.1199929,-0.1535751,36.16141,17.7648,-25.4274,1008.308
4.583023071,3.511193,-0.09780331,2.237154,-1.011984,-0.06979458,-0.05177477,35.81012,17.10534,-25.03994,1008.308
4.615299225,8.469086,-2.034995,2.78562,-1.010969,-0.1160189,-0.1269728,36.88762,17.3923,-25.43381,1008.308
4.647576332,6.981718,-6.202892,5.040427,-1.00324,-0.09550636,-0.0780455,36.5254,17.09253,-25.42445,1008.308
4.682336331,7.229612,-6.437704,4.735723,-0.9830043,-0.06936202,-0.09147675,36.5254,17.09253,-25.42445,1008.309
4.714612961,4.936587,-9.020626,3.577849,-1.037126,-0.07767648,-0.0715864,36.5254,17.09253,-25.42445,1008.309
4.749372959,7.601454,-14.12777,3.334087,-1.003823,-0.05096011,-0.07005595,36.15195,16.36185,-25.84543,1008.313
4.781650067,-1.508674,-14.7735,4.126316,-1.003211,-0.1046699,-0.06891233,36.15195,16.36185,-25.84543,1008.313
4.816409111,5.494349,-16.8281,4.674782,-1.011482,-0.05505748,0.01260529,36.50275,16.35223,-26.28667,1008.308
4.848686218,11.5058,-16.65199,3.821612,-1.016848,-0.05477877,-0.04346045,36.12865,15.98606,-26.71227,1008.312
4.880962849,-0.8269634,-12.07317,0.5308142,-1.033722,-0.03360708,0.0780394,36.12865,15.98606,-26.71227,1008.312
4.915722370,12.24948,-17.59123,-2.942806,-1.016401,-0.03880447,-0.04240371,35.74428,15.61507,-27.51134,1008.312
4.947999954,4.502771,-13.07112,-1.784932,-0.9585518,-0.145851,0.02212718,35.01806,15.98757,-27.50493,1008.312
4.982758999,21.29763,-12.24928,-4.16162,-1.082711,-0.006029389,-0.02515409,35.01806,15.98757,-27.50493,1008.313
5.015036106,8.716981,-14.01036,-12.93708,-1.001817,-0.04039403,0.04747542,34.34164,15.62473,-27.92593,1008.313
5.049796104,10.82409,-3.561267,-4.892908,-0.9290276,-0.1573793,0.02248144,34.3074,15.60863,-29.17086,1008.313
5.082072258,4.936587,4.070094,-6.172663,-1.054551,-0.05532138,-0.02887912,34.3074,15.60863,-29.17086,1008.313
5.114349842,6.238034,2.309011,-8.975936,-0.9954242,-0.1088377,-0.0201255,33.59278,15.25692,-28.78173,1008.313
5.149108887,16.58764,-2.093698,-13.36367,-0.9890308,-0.1479573,-0.002474483,33.9549,15.61745,-28.79186,1008.315
5.181385994,13.42698,1.721983,-16.04506,-0.9999892,0.006081737,0.05160325,33.9549,15.61745,-28.79186,1008.315
5.216145992,-11.17657,8.061883,-22.44383,-1.081364,-0.1735331,-0.04593039,33.58013,15.6158,-29.22207,1008.317
5.248422146,19.81026,0.01960224,-28.96449,-1.021957,-0.1267372,0.00400184,33.22934,15.62543,-28.78083,1008.317
5.283182144,16.64961,4.246202,-37.98371,-1.062253,-0.05422167,0.01658697,33.22934,15.62543,-28.78083,1008.317
5.315458775,-7.148277,8.942425,-45.2966,-1.062222,-0.07608364,-0.008676212,33.20576,16.34399,-29.59927,1008.317
5.347735882,-20.10077,12.6407,-56.26592,-1.083024,-0.08644153,-0.04881569,33.2167,15.98431,-29.22118,1008.315
5.382495403,-25.05867,14.754,-74.36532,-1.09882,-0.1742715,-0.1063268,33.2167,15.98431,-29.22118,1008.317
5.414772034,2.209746,29.31229,-89.78332,-1.568462,-0.1638891,-0.2154796,32.13715,17.76373,-28.79121,1008.315
5.449532032,-5.970778,18.51098,-111.9657,-1.256806,-0.0818596,-0.2635453,31.46453,20.7152,-26.70072,1008.313
5.481808663,20.30606,14.8127,-131.9543,-1.521223,0.01052734,-0.4809644,31.46453,20.7152,-26.70072,1008.313
5.516568184,45.83921,-5.615865,-130.9183,-1.173583,-0.1219599,-0.3147137,29.29588,22.93186,-26.2596,1008.312
5.548845291,87.91932,-3.032942,-91.06307,-0.9775494,-0.1440389,-0.1412239,27.49001,25.14454,-25.82399,1008.308
5.581121922,117.3568,-14.12777,-71.68392,-0.5955894,-0.2105063,0.1998496,27.49001,25.14454,-25.82399,1008.307
5.615881920,130.8671,12.87551,55.80404,-0.2370248,0.7974718,-0.1132946,24.18708,26.25708,-27.09538,1008.305
5.648159027,-142.9326,64.82747,66.34677,-0.3284439,0.1136303,0.2325404,23.05252,26.24731,-28.75949,1008.305
5.682918072,0.1646152,80.2076,112.6008,-0.5787366,-0.438962,-0.5421137,24.56647,23.70711,-26.63285,1008.301
5.715195179,40.38552,103.3952,130.5783,-0.8552718,-0.1410034,-0.2057675,24.56647,23.70711,-26.63285,1008.301
5.749955177,30.90355,108.0327,170.1897,-1.031797,-0.3018739,-0.1178324,27.95789,24.82513,-22.02784,1008.3
5.782231808,88.22919,98.17065,185.6077,-1.115921,-0.5243553,-0.1532403,32.77439,20.44256,-18.68283,1008.298
5.814508915,159.9327,98.93378,191.0924,-1.092002,-0.3714261,-0.02769512,32.77439,20.44256,-18.68283,1008.298
5.849267960,143.2618,103.63,165.1926,-1.535821,-0.2698096,-0.225821,36.09317,15.04944,-14.86603,1008.302
5.881545067,147.5999,94.76589,143.4368,-1.23009,-0.2380986,0.0197707,38.71803,6.670665,-12.24636,1008.3
5.916305065,143.3238,68.99537,121.4372,-1.437078,0.07681966,0.3038522,38.71803,6.670665,-12.24636,1008.3
5.948581696,13.48895,40.81803,87.24944,-1.466593,-0.1358679,0.2562963,39.55021,-0.1580868,-8.746893,1008.299
5.980858803,17.64119,9.177236,45.68788,-1.150263,-0.4228545,0.1253881,38.86684,-4.5082,-7.435538,1008.299
6.015617847,39.95171,-11.19263,-9.950988,-1.12271,-0.4335646,0.08320864,38.86684,-4.5082,-7.435538,1008.299
6.047894955,-8.883539,-29.5666,-64.79762,-1.360618,-0.786983,0.2388295,38.54293,-7.039723,-6.152778,1008.299
6.082654953,117.6667,-51.52144,26.12591,-0.8921884,0.09217759,-0.9096991,37.78313,-7.047845,-7.38668,1008.297
6.114931583,-38.63089,-46.76651,8.392165,-0.6451821,0.6495661,-0.002064964,37.78313,-7.047845,-7.38668,1008.297
6.149691105,-26.36011,-10.37079,-26.2831,-1.110271,-0.1165391,-0.3394747,37.73426,-5.611516,-9.085804,1008.295
6.181967735,-21.89801,-29.03827,2.602798,-0.8509085,-0.2381888,-0.4707704,37.36148,-6.706709,-9.502169,1008.295
6.214244843,48.38013,-17.06291,5.527952,-0.8578764,0.04874979,-0.4729914,37.36148,-6.706709,-9.502169,1008.294
6.249004841,55.87894,-12.7189,8.87969,-1.185678,0.06215766,-0.3803554,37.68869,-5.997765,-10.76185,1008.296
6.281280994,36.915,-23.2854,-0.01765209,-1.32557,0.1564403,-0.2862141,36.9638,-6.354303,-10.7462,1008.297
6.316040993,34.62197,-40.36791,-10.49945,-0.8221223,0.1484237,-0.2215971,36.9638,-6.354303,-10.7462,1008.297
6.348318100,22.16526,-20.46767,-19.57962,-0.9705806,0.1670166,-0.1786288,36.95313,-7.088969,-11.1727,1008.297
6.383077145,-24.7488,-26.69016,-22.26101,-1.062176,-0.1892642,-0.2776283,36.18003,-6.373694,-12.85156,1008.296
6.415354729,41.56302,-29.6253,-22.13913,-0.9010862,0.01472274,-0.195598,36.18003,-6.373694,-12.85156,1008.296
6.447630882,24.02447,-25.92703,-23.47982,-1.029187,-0.01187238,-0.223996,36.16673,-5.650297,-13.29652,1008.296
6.482390881,4.750666,-31.03417,-21.16408,-0.988853,-0.06761488,-0.1422153,36.14342,-6.026082,-14.16335,1008.296
6.514667988,16.83553,-32.03212,-21.40784,-0.9318293,-0.04804876,-0.1286906,36.14342,-6.026082,-14.16335,1008.296
6.549427033,20.80184,-23.3441,-24.88146,-1.037778,-0.03586273,-0.155949,35.38229,-5.305172,-15.40649,1008.296
6.581704617,5.990139,-30.21233,-23.72359,-1.075339,-0.09787738,-0.145585,35.7311,-4.221248,-15.86158,1008.3
6.648740769,-1.632621,-21.93524,-16.89823,-0.9567707,-0.1054313,-0.04726201,35.69686,-4.237347,-17.10651,1008.3
6.681017876,3.201325,-27.62941,-13.72931,-0.9242969,-0.1387412,-0.05090547,35.30945,-3.880112,-17.97707,1008.3
6.715776920,7.663428,-2.034995,-8.975936,-1.101794,-0.1555213,-0.1400545,34.93204,-2.423695,-18.42574,1008.3
6.748054028,-5.474988,-27.80552,-9.585343,-1.048594,-0.1172133,-0.01909166,34.93204,-2.423695,-18.42574,1008.296
6.782814026,2.333693,-9.314139,-5.441375,-0.8932737,-0.1705888,-0.05018653,34.93204,-2.423695,-18.42574,1008.296
6.815090656,4.750666,-4.500512,-1.784932,-1.110991,-0.1223603,-0.0571781,34.24535,-2.791362,-19.22022,1008.296
6.849850178,-1.570647,-11.66225,-2.638103,-0.963904,-0.1552885,-0.04511293,34.24535,-2.791362,-19.22022,1008.296
6.882127762,9.21277,-8.785814,-5.07573,-0.9624478,-0.1401122,0.005247851,34.59482,-2.071954,-19.67069,1008.296
6.914403915,4.31685,-10.78171,-3.064687,-0.9972538,-0.1523902,-0.01843544,34.23138,-1.70345,-19.6698,1008.295
6.949163914,0.2265888,-6.261595,-3.430332,-0.9803751,-0.1378699,-0.03192554,34.23138,-1.70345,-19.6698,1008.297
6.981440544,-3.553804,-6.144189,-1.053644,-0.9748224,-0.2302227,-0.01409195,33.49384,-1.701107,-20.09449,1008.295
7.016200066,12.86922,-6.437704,0.4089328,-1.01764,-0.1122101,0.003108258,34.20741,-1.714719,-20.54125,1008.29
7.048477650,4.254877,-4.148295,0.16517,-1.060107,-0.1691545,-0.0570704,34.20741,-1.714719,-20.54125,1008.29
7.083236694,7.663428,-0.6261283,4.674782,-0.9575645,-0.1638453,-0.005049831,33.11079,-2.80113,-20.88434,1008.291
7.115513802,-3.677752,0.7240356,8.514047,-0.9977385,-0.1440895,0.003850979,33.48251,-2.071258,-20.5256,1008.291
7.147790432,-0.8889371,1.134955,10.22039,-0.9981776,-0.1644306,-0.0006146805,33.48251,-2.071258,-20.5256,1008.291
7.182549954,3.883035,6.418205,13.63307,-1.000681,-0.139383,-0.03285726,33.48318,-2.435773,-20.52099,1008.29
7.214827061,1.032246,6.594313,13.69401,-0.9978591,-0.09278976,0.005109803,33.85927,-3.163159,-20.08154,1008.291
7.249587059,-1.570647,7.592261,13.20648,-1.008919,-0.1336141,-0.03715765,33.85927,-3.163159,-20.08154,1008.291
7.314140797,-2.934068,7.35745,17.41139,-0.9906385,-0.09436988,-0.03890767,33.87191,-3.52204,-19.6412,1008.293
7.381176949,-4.297489,6.418205,20.64125,-1.0077,-0.04123363,-0.05258849,33.51046,-4.247083,-19.62645,1008.295
7.415936947,-10.68078,8.179288,20.09278,-1.002774,-0.07260964,-0.03343996,33.51178,-4.976114,-19.61722,1008.295
7.448213577,-8.945513,7.474855,18.6302,-1.000035,-0.008281435,-0.0456495,33.51178,-4.976114,-19.61722,1008.293
7.482973099,-12.10617,9.177236,14.60812,-1.029548,-0.006477551,-0.05959536,33.52377,-4.97048,-19.1815,1008.291
7.515249729,-14.52314,6.183394,11.07356,-1.024212,-0.02056179,-0.07902449,33.90051,-6.062381,-18.73744,1008.29
7.547526837,-5.351041,3.600471,8.270284,-1.009744,-0.00064649,-0.06927367,33.90051,-6.062381,-18.73744,1008.29
7.582286835,-14.08933,3.659174,4.552901,-1.010723,0.01298429,-0.04453867,33.54867,-6.418079,-18.35382,1008.29
7.614563465,-5.413015,1.487172,3.63879,-1.04604,0.002058394,-0.0972195,33.90118,-6.426897,-18.73282,1008.288
7.649322987,-11.23854,0.1957106,1.201162,-0.9979909,-0.06254961,-0.06771721,34.2729,-5.697024,-18.37409,1008.288
7.681600094,-0.9509107,0.07830502,0.2870514,-1.040787,0.03942455,-0.07091268,34.2729,-5.697024,-18.37409,1008.29
7.716359615,-16.63025,-3.032942,-3.125628,-0.9860039,-0.01651236,-0.05877938,33.8772,-6.438166,-19.60427,1008.29
7.748636723,1.528036,-1.095751,-5.867959,-1.079966,0.03731134,-0.0901778,33.90051,-6.062381,-18.73744,1008.288
7.780913353,-9.007486,-8.609706,-9.402521,-0.95457,-0.01347634,-0.04626046,33.90051,-6.062381,-18.73744,1008.288
7.815672874,-8.759592,-3.267753,-11.23074,-1.097259,0.00450513,-0.0458507,34.27357,-6.06154,-18.36947,1008.292
7.847949982,-5.970778,-7.318245,-10.07287,-0.9277802,-0.09371278,-0.04097316,33.88853,-6.068016,-19.17316,1008.292
7.882709503,6.300007,1.487172,-9.219699,-1.10839,-0.005337916,-0.08504122,33.88853,-6.068016,-19.17316,1008.29
7.914986610,-5.908804,-5.381053,-9.402521,-0.9645944,-0.07356165,-0.06108367,33.88721,-5.338984,-19.1824,1008.288
7.949746132,-0.9509107,2.250308,-7.939944,-1.034791,-0.02523821,-0.02198251,33.89787,-4.604318,-18.7559,1008.288
7.982022762,-4.979199,5.009338,-8.244648,-1.017414,-0.01260793,-0.02243159,33.89787,-4.604318,-18.7559,1008.29
8.014299870,-16.63025,8.237991,-7.330536,-0.9806132,-0.06555575,-0.1127316,33.87324,-4.251071,-19.63197,1008.29
8.049059868,-18.24156,9.822966,-6.477366,-1.02982,-0.08330236,-0.02425713,33.1357,-4.248729,-20.05667,1008.29
8.081336498,-12.53999,13.81475,-5.624197,-0.9428779,-0.040937,-0.01985268,33.1357,-4.248729,-20.05667,1008.29
8.116096020,-28.34327,22.79628,-6.172663,-1.003855,-0.06037916,-0.1363405,34.24667,-3.520394,-19.21099,1008.29
8.148372650,-26.91788,19.21541,-5.867959,-0.9950393,-0.09214123,-0.09158033,34.63171,-3.513918,-18.4073,1008.288
8.183132649,-11.85828,23.61812,-5.746078,-0.9936253,-0.07811788,-0.09585459,34.63171,-3.513918,-18.4073,1008.29
8.215409756,-0.8269634,13.93216,-8.427469,-0.9477436,-0.07088488,-0.1423225,34.27894,-2.410748,-17.9799,1008.288
8.247686386,9.460665,21.56352,-9.036877,-0.9970489,-0.07731041,-0.140319,35.33077,-2.41078,-17.12408,1008.286
8.282445908,-12.84985,19.098,-3.552213,-1.02951,-0.07815397,-0.2190543,35.33077,-2.41078,-17.12408,1008.286
8.314723015,-18.11762,23.1485,3.760672,-0.9670308,-0.07413439,-0.0852536,35.33011,-2.046264,-17.12869,1008.286
8.349482536,-16.44433,22.50277,11.07356,-0.954873,-0.1300104,-0.1619808,35.35236,-2.0358,-16.31949,1008.286
8.381759644,-31.5659,29.13618,25.15086,-0.9894046,-0.003393717,-0.04032679,35.35236,-2.0358,-16.31949,1008.286
8.416519165,-71.29102,39.46787,43.79871,-0.9705644,-0.007324255,-0.07374702,36.47533,-1.30183,-15.03808,1008.284
8.448795796,-112.6894,41.63987,48.43021,-1.013127,0.03502607,0.03584266,36.86103,-1.65987,-14.22978,1008.287
8.481072903,-198.337,45.45555,33.62162,-1.211085,-0.08110956,0.0621981,36.86103,-1.65987,-14.22978,1008.287
8.515832424,-260.0628,23.03109,-13.54649,-1.260677,-0.795149,0.02923867,37.28335,-2.365522,-12.10967,1008.287
8.548109532,-138.8423,23.61812,-49.56245,-1.112305,-0.9240509,-0.4349483,37.65612,-1.270329,-11.69331,1008.287
8.582869053,-116.9656,6.711719,-91.91624,-1.18983,-0.5687338,-0.191525,38.77605,0.1918674,-10.48339,1008.285
8.615145683,-36.9576,-22.69837,-108.7359,-1.20945,-0.4682974,-0.239739,38.77605,0.1918674,-10.48339,1008.285
8.649905682,18.38487,-26.74887,-113.0017,-1.135667,-0.1591431,-0.1806109,39.13089,4.562068,-10.54429,1008.285
8.682182789,-9.131433,-35.08466,-111.8438,-1.125099,0.1073622,-0.08678158,39.09212,7.036828,-11.82077,1008.285
8.714459419,-65.58944,-29.27308,-109.3453,-1.073546,0.1516991,-0.1847786,39.09212,7.036828,-11.82077,1008.285
8.749218941,-99.86088,-22.28745,-104.2872,-0.9979961,0.07323164,-0.2699894,38.66254,11.75215,-13.99164,1008.285
8.781495571,-90.99864,-16.71069,-95.20704,-0.9799142,0.0115234,-0.2162341,37.19283,15.40763,-14.45147,1008.283
8.816255569,-77.9222,-15.00831,-75.34037,-0.9586028,-0.04642097,-0.3398864,37.19283,15.40763,-14.45147,1008.283
8.848532677,-43.83668,-21.46562,-58.27697,-0.9272888,0.02893007,-0.2650759,35.3831,19.74664,-14.04279,1008.283
8.880809307,-33.05326,-16.12366,-44.32154,-0.9074818,0.04503666,-0.2413385,34.3373,23.03295,-14.50443,1008.283
8.915568829,-36.27589,-15.53664,-31.15835,-0.876449,0.01860407,-0.2135162,34.3373,23.03295,-14.50443,1008.283
8.947845936,-18.92327,-13.01241,-20.12808,-0.8395933,-0.03167185,-0.2293516,33.24632,24.50298,-14.50635,1008.287
8.982605457,29.35421,-21.70043,-0.8098813,-0.8014357,-0.007794449,-0.2128611,32.14269,26.33189,-14.9486,1008.289
9.014882565,59.34946,-40.2505,18.44738,-0.7370522,0.2550561,0.04229999,32.14269,26.33189,-14.9486,1008.289
9.049642086,-45.26208,-22.28745,45.13941,-0.8326978,0.5395404,0.3907492,31.37157,25.95362,-16.61362,1008.289
9.081918716,-347.3217,-8.492301,28.07601,-1.342167,-1.213712,-0.8934329,31.71408,24.84562,-17.41449,1008.289
9.114195824,267.2711,-89.14992,20.33654,-0.9115332,0.2348487,0.08171967,31.71408,24.84562,-17.41449,1008.287
9.148955822,-178.7534,-16.00626,35.57172,-1.052572,-0.5276231,-0.7431906,32.48255,26.68195,-15.76794,1008.291
9.181232452,111.3454,-35.61298,39.47192,-1.054185,-0.5522006,-0.4257077,32.82599,24.11508,-16.6126,1008.291
9.215991974,118.2244,-36.31742,42.88461,-1.011134,0.06654685,0.1965192,32.82599,24.11508,-16.6126,1008.291
9.248268604,16.8975,-18.17826,42.2752,-1.073012,0.02392249,0.09440467,33.11895,24.80793,-19.11722,1008.293
9.283028603,4.626719,-5.791973,39.22816,-1.176682,-0.1916445,-0.1691048,33.4288,21.86045,-21.20219,1008.293
9.315305710,1.280141,-3.385159,40.14227,-1.225927,-0.2198108,-0.1565894,33.4288,21.86045,-21.20219,1008.293
9.347582340,16.09184,-5.381053,35.02325,-0.9596794,-0.08250332,0.009436954,33.78423,19.29922,-21.61112,1008.293
9.382341862,-22.64169,10.05778,31.48869,-1.009739,0.02771621,0.01790656,34.84991,18.54695,-22.48989,1008.293
9.414618969,-38.383,9.881669,30.02612,-0.9765365,-0.1267432,-0.0362215,34.84991,18.54695,-22.48989,1008.294
9.449378491,-17.12604,11.76016,30.7574,-0.9736152,-0.1505964,-0.08035634,35.17873,17.15759,-21.60534,1008.294
9.481655598,-9.875118,8.766316,30.81834,-0.9796671,-0.02898971,-0.03324174,35.55228,17.82751,-21.18359,1008.296
9.516415119,-6.404593,12.11237,26.12591,-0.955565,0.02061212,0.01774941,35.55228,17.82751,-21.18359,1008.302
9.548691750,-7.02433,13.28643,19.42243,-1.024868,0.04908649,-0.08926272,35.92787,16.43104,-20.79793,1008.302
9.580968857,-10.30893,14.6953,11.56108,-1.076104,0.03436477,-0.1061564,36.31726,14.98026,-19.91353,1008.302
9.615728855,-11.42446,6.124691,9.184394,-1.051366,0.005432324,-0.0967054,37.41758,14.97392,-19.49435,1008.302
9.648005486,-20.34867,11.46664,11.98767,-1.010085,-0.09046131,-0.1543854,37.41758,14.97392,-19.49435,1008.302
9.682765007,-21.34025,7.944478,15.76599,-0.9322269,-0.09265183,-0.1526319,37.42957,14.97956,-19.05862,1008.302
9.715041638,-18.61341,0.60663,17.16763,-0.9879,-0.07646699,-0.1848103,37.80394,14.25137,-18.68143,1008.302
9.749801636,8.03527,14.98881,19.11773,-0.9844393,-0.08542755,-0.1186376,37.80394,14.25137,-18.68143,1008.302
9.782078743,-0.8889371,12.93421,12.7799,-1.008139,0.1255399,-0.105301,38.54147,14.24903,-18.25673,1008.302
9.814355373,-2.500252,1.780686,5.893597,-1.130172,0.1781993,-0.1709696,38.92889,13.89179,-17.38618,1008.302
9.849114895,3.511193,-15.36053,7.234292,-0.9014671,0.03078366,-0.02533539,38.92889,13.89179,-17.38618,1008.3
9.881392002,-5.041173,8.648911,8.087461,-1.071328,0.01654111,-0.2290614,39.29298,13.15877,-17.38246,1008.3
9.916151524,-12.66393,1.956794,9.550038,-0.9895536,0.02433179,-0.1412075,38.9169,13.88616,-17.8219,1008.298
9.948428631,-18.05564,3.717877,10.89073,-1.027074,-0.07709729,-0.1948816,38.9169,13.88616,-17.8219,1008.298
9.983188152,-8.635645,-3.61997,15.40035,-0.9760228,0.05414403,-0.06613417,38.55479,13.52563,-17.81177,1008.298
10.015464783,-17.49788,-2.211103,14.73,-0.9980141,0.1405936,-0.09846906,38.91888,12.79261,-17.80806,1008.298
10.047741890,-5.041173,-3.678673,13.0846,-0.9983714,0.1655487,0.1259892,38.91888,12.79261,-17.80806,1008.298
10.082501888,-17.93169,10.6448,16.3754,-1.049574,-0.02007135,-0.3414743,39.65643,12.79027,-17.38336,1008.298
10.114778519,-45.75787,-0.5674255,9.854742,-1.022432,0.1771547,-0.2848159,39.30326,13.1636,-17.00898,1008.297
10.149538040,51.29289,-21.99394,-4.039739,-0.9300207,0.3677358,0.3266517,39.30326,13.1636,-17.00898,1008.297
10.181814671,-28.2813,2.661227,-4.405383,-1.146321,-0.09869368,-0.6124384,39.65709,12.42575,-17.37875,1008.297
10.216574669,23.65263,-21.40691,-10.43851,-0.9402658,0.3668428,0.2145109,39.64642,11.69109,-17.80524,1008.295
10.248851776,17.26934,-13.71685,-14.21684,-0.953669,0.1508873,-0.2401537,39.64642,11.69109,-17.80524,1008.295
10.281128407,-47.43115,-2.387212,-17.69046,-1.032258,-0.1351921,-0.197618,38.89623,12.05231,-18.67028,1008.295
10.315887928,50.98302,-27.21849,-10.19475,-0.9596942,0.141688,0.04938681,38.53412,11.69178,-18.66015,1008.295
10.348165035,17.45527,-5.850676,-12.5105,-0.9712649,0.1139432,0.01154578,38.53412,11.69178,-18.66015,1008.299
10.382924557,10.01843,-4.206998,-4.710086,-1.065101,-0.1365921,-0.1545291,38.13512,12.77322,-19.91341,1008.299
10.415201664,19.00461,-6.320298,-0.6270592,-0.983416,0.1317304,-0.01298227,38.13577,12.4087,-19.9088,1008.299
10.447477818,-12.84985,-0.8609394,-0.3223556,-1.005865,-0.01964951,-0.1109658,38.13577,12.4087,-19.9088,1008.301
10.482237816,4.750666,-3.61997,2.907502,-1.017969,-0.002156175,-0.07941673,37.4089,13.14571,-19.907,1008.301
10.514514923,16.27777,-6.496406,3.395027,-1.029243,0.06461874,-0.07176118,37.4089,13.14571,-19.907,1008.299
10.549274922,7.787375,-1.91759,0.2261107,-1.022013,0.06845193,-0.08915876,37.4089,13.14571,-19.907,1008.299
10.581551552,9.150796,0.01960224,-2.516221,-0.9911247,0.1029927,-0.06147292,37.74903,12.40142,-20.77473,1008.299
10.616311073,8.03527,5.655069,-5.685137,-1.006098,0.09911118,-0.05179395,37.40022,11.3175,-20.31964,1008.301
10.648587704,6.671849,10.35129,-7.391477,-1.031138,0.03350091,-0.1135098,37.39956,11.68201,-20.32426,1008.302
10.680864811,10.51422,11.23183,-7.147715,-1.060212,0.05759474,-0.1191114,37.39956,11.68201,-20.32426,1008.302
10.715624809,12.86922,8.296694,-6.111722,-1.0834,0.05517753,-0.09877071,37.39956,11.68201,-20.32426,1008.304
10.747901440,9.522638,5.302852,-2.516221,-0.9900275,0.05222392,-0.04967799,37.41088,12.05216,-19.89315,1008.304
10.782660961,7.849349,0.3718189,1.627747,-0.9698539,0.09863429,-0.08039767,37.41088,12.05216,-19.89315,1008.304
10.814938068,0.04066784,-3.091645,3.821612,-1.025853,0.0895725,0.006207035,37.39824,12.41105,-20.33349,1008.306
10.881974697,-15.01893,-2.798131,3.516909,-1.056295,0.03728407,-0.1182684,37.39956,11.68201,-20.32426,1008.307
10.914251804,-7.891961,3.893986,-0.07859279,-1.109905,0.0002537726,-0.1473697,36.69731,12.06577,-19.44639,1008.307
10.949010849,3.263298,2.543822,2.968442,-1.100823,0.06483909,-0.08900945,37.04877,11.69164,-19.88302,1008.307
10.981287956,-11.36249,7.709667,1.566806,-1.067779,0.02993392,0.007408611,37.04877,11.69164,-19.88302,1008.307
11.016047955,-22.64169,3.893986,-7.879003,-1.054426,-0.07923443,0.05461954,37.04943,11.32712,-19.8784,1008.307
11.048324585,-47.24523,-1.741481,-19.7015,-1.060016,-0.1482497,0.1141856,36.69864,11.33674,-19.43716,1008.312
11.083084106,-63.91615,-14.47998,-34.87574,-1.033558,-0.1379941,-0.02359317,36.69864,11.33674,-19.43716,1008.31
11.115361214,-76.4968,-20.81989,-53.21889,-0.9261596,-0.1482238,0.00850759,36.69798,11.70126,-19.44178,1008.31
11.147637844,-69.30786,-22.52227,-67.05243,-0.9116083,-0.2159218,-0.1316225,35.2645,14.27929,-18.64282,1008.312
11.182397842,-66.1472,-10.89911,-60.95836,-0.8011294,-0.320204,-0.152758,35.2645,14.27929,-18.64282,1008.31
11.214674473,69.20327,-45.12283,-36.27737,-0.8681321,0.05812155,0.01680737,33.85829,17.20588,-19.03208,1008.308
11.249433994,-8.38775,-16.29977,-17.99516,-0.7213336,0.3332787,-0.0220699,32.37869,19.70142,-19.91302,1008.313
11.281711102,4.626719,3.189552,15.46129,-0.872501,0.5407035,-0.3754087,32.37869,19.70142,-19.91302,1008.313
11.316471100,-41.41971,31.7778,-26.52686,-1.298924,-0.3445083,0.09376357,30.51791,20.06414,-21.57071,1008.313
11.348747730,36.915,1.545874,9.793801,-1.161699,-0.4608403,-0.3645267,31.27771,20.07226,-20.33681,1008.313
11.381024838,92.13353,-1.271859,8.392165,-0.9063577,0.1297412,0.1918184,31.27771,20.07226,-20.33681,1008.311
11.415783882,6.981718,12.28848,1.566806,-0.9061435,-0.005221768,0.06390612,30.52791,21.16332,-21.14884,1008.308
11.448060989,-17.93169,5.420258,-2.699043,-0.9838971,-0.2439537,0.08302071,31.60756,19.32314,-21.57803,1008.308
11.482820988,18.88066,-6.848623,0.7745771,-1.02101,-0.3359207,-0.03489782,31.60756,19.32314,-21.57803,1008.308
11.515097618,37.65868,-11.54485,6.259241,-0.9709334,-0.03079571,-0.002330753,31.63115,18.60458,-20.75959,1008.306
11.549857140,21.23566,2.074199,1.079281,-1.056152,0.003672798,-0.0406262,31.60889,18.59411,-21.5688,1008.306
11.582134247,10.88606,-1.858887,-1.236466,-1.040537,-0.0406586,0.002114128,31.60889,18.59411,-21.5688,1008.306
11.614410877,2.829483,0.60663,-2.211518,-1.045262,-0.09005607,-0.004924702,30.84738,18.58519,-22.86495,1008.306
11.649170876,-7.458146,-3.267753,-3.247509,-1.03565,-0.06388318,-0.0009290922,31.57426,17.84818,-22.86675,1008.306
11.681447983,-9.813145,-0.9783449,-3.369391,-1.012353,-0.1137909,-0.03945474,30.86003,18.22631,-22.42461,1008.306
11.716207028,-5.660909,-1.50667,-3.856917,-1.03117,-0.122472,-0.01480816,30.86003,18.22631,-22.42461,1008.306
11.748484135,0.4744835,-1.271859,-1.663051,-1.012737,-0.1578494,-0.04550568,31.2095,18.94571,-22.87508,1008.305
11.780760765,4.750666,-1.976292,-1.967755,-0.9924481,-0.1402831,-0.01982728,31.56266,18.57238,-23.24946,1008.303
11.815520763,4.254877,2.132902,-1.967755,-1.017627,-0.1297462,-0.03083219,31.56266,18.57238,-23.24946,1008.303
11.847797871,3.759088,0.7240356,-1.60211,-1.007989,-0.1107962,-0.01624205,30.82512,18.57472,-23.67415,1008.303
11.882557869,2.395667,2.250308,0.3479922,-1.016675,-0.1117267,0.00214205,30.83474,18.94407,-23.30529,1008.307
11.914834023,-4.607357,-0.03910053,1.383984,-1.006503,-0.1223769,-0.007609203,30.83474,18.94407,-23.30529,1008.307
11.949594021,-2.004463,0.7827384,1.627747,-0.9847193,-0.1319867,-0.005777038,31.2095,18.94571,-22.87508,1008.306
11.981870651,-2.500252,-0.8609394,1.688688,-0.9957972,-0.1523615,-0.01118684,31.2095,18.94571,-22.87508,1008.304
12.014147758,2.519614,0.4305217,2.054332,-1.000701,-0.1257822,-0.01779328,31.2095,18.94571,-22.87508,1008.304
12.048907280,4.626719,0.4892245,1.201162,-1.005087,-0.1151859,-0.02884267,31.2095,18.94571,-22.87508,1008.302
12.081183910,5.122508,2.250308,0.2261107,-1.017709,-0.09099428,-0.01949258,30.84672,18.9497,-22.86956,1008.302
12.115943909,-2.12841,1.898091,-0.2004742,-1.010404,-0.109814,-0.009946559,30.84672,18.9497,-22.86956,1008.302
12.148221016,0.2265888,2.015496,-0.3223556,-1.007995,-0.1034931,-0.003147667,31.22214,18.58683,-22.43474,1008.302
12.182981014,-1.508674,2.485119,-0.3223556,-0.9895594,-0.1349516,-0.01980319,31.21016,18.5812,-22.87046,1008.302
12.215257168,-0.7030161,2.71993,-0.3223556,-1.007437,-0.140321,-0.01834487,31.21016,18.5812,-22.87046,1008.299
12.247534752,5.184481,1.311063,0.1042293,-0.9929597,-0.1257404,-0.01200847,32.29915,18.20472,-22.88239,1008.299
12.282293797,4.812639,1.956794,0.2261107,-1.014253,-0.1209849,-0.01870367,31.57294,18.57721,-22.87598,1008.299
12.314570904,1.713957,2.602524,0.2870514,-1.006049,-0.1122327,-0.01335377,31.57294,18.57721,-22.87598,1008.299
12.349330902,0.1026415,1.839388,-0.2004742,-1.011373,-0.1112915,-0.01672101,31.21016,18.5812,-22.87046,1008.299
12.381607056,-3.30591,0.60663,-0.1395335,-1.005047,-0.1291903,-0.02022049,30.87201,18.23194,-21.98888,1008.301
12.416367054,-3.058015,-0.09780331,-0.5051777,-0.994404,-0.131094,-0.01977081,30.87201,18.23194,-21.98888,1008.301
12.448644161,-1.384726,-0.8022366,-1.175525,-0.9997274,-0.1306384,-0.02362426,31.5736,18.21269,-22.87136,1008.301
12.480920792,2.27172,0.2544134,-0.5661184,-1.00409,-0.1282525,-0.02988599,31.94902,17.84982,-22.43654,1008.299
12.515680313,0.04066784,-1.213156,-1.723992,-1.010381,-0.1224272,-0.01920366,31.94902,17.84982,-22.43654,1008.299
12.547957897,4.068955,0.4892245,-1.175525,-0.9978387,-0.1137183,-0.03030026,31.93505,18.93774,-22.88611,1008.299
12.582716942,1.713957,1.66328,-0.9927034,-1.020084,-0.1123235,-0.02831064,31.56266,18.57238,-23.24946,1008.301
12.614994049,2.209746,-0.03910053,-0.870822,-1.001669,-0.1208998,-0.004227153,31.56266,18.57238,-23.24946,1008.301
12.649754048,-0.5790688,0.9001439,-0.9927034,-0.9871651,-0.1218475,-0.0105485,31.22082,19.31586,-22.44397,1008.301
12.682030201,-1.942489,0.9588467,-0.1395335,-0.9943871,-0.1407971,-0.0270776,31.2228,18.22232,-22.43012,1008.299
12.714307785,-3.677752,-0.6848311,-0.2614149,-0.9967778,-0.1485109,-0.01648066,31.2228,18.22232,-22.43012,1008.299
12.749067307,3.201325,-0.2739116,0.1042293,-0.9992597,-0.1223955,-0.01922745,31.22214,18.58683,-22.43474,1008.305
12.781343937,1.09422,-0.45002,0.16517,-1.00843,-0.13066,-0.02263875,31.21016,18.5812,-22.87046,1008.303
12.816103935,3.511193,-0.8609394,-0.444237,-1.004615,-0.1054568,-0.01428521,31.21016,18.5812,-22.87046,1008.303
12.848381042,3.387246,-1.682778,-0.5051777,-0.9813556,-0.1281547,-0.02026566,31.21016,18.5812,-22.87046,1008.303
12.883140087,-3.367883,4.42231,-0.2614149,-1.015715,-0.1234824,-0.04046947,31.57294,18.57721,-22.87598,1008.303
12.915417194,-0.5790688,1.193658,-1.053644,-1.009883,-0.1365368,-0.04200658,31.93439,19.30225,-22.89073,1008.303
12.947693825,-0.6410424,1.839388,0.04328861,-1.000239,-0.1131626,-0.007086874,31.93439,19.30225,-22.89073,1008.302
12.982453823,-1.012884,-0.7435338,0.2870514,-0.9928895,-0.1552584,-0.01169302,31.58426,18.94736,-22.44487,1008.302
13.014730930,-6.838409,-4.148295,0.16517,-1.012221,-0.1557616,-0.00101856,31.57228,18.94172,-22.88059,1008.302
13.049490452,1.218167,-5.146242,0.7136364,-0.9924893,-0.1140658,0.005460695,31.57228,18.94172,-22.88059,1008.302
13.081767082,-3.739725,-6.613812,-0.444237,-0.9992313,-0.1384044,-0.03092106,31.562,18.9369,-23.25407,1008.302
13.116527081,-7.334198,-3.267753,-4.953849,-0.9954544,-0.1118952,-0.06558607,31.1979,19.66991,-23.25779,1008.3
13.148804188,-9.007486,0.8414412,-4.466323,-1.082034,-0.1166438,-0.1084525,31.1979,19.66991,-23.25779,1008.304
13.181080818,-2.810121,-1.154453,-5.441375,-1.05974,-0.1212541,-0.05969946,30.84738,18.58519,-22.86495,1008.304
13.215840340,0.3505361,-1.154453,-6.355485,-1.043266,-0.1288893,-0.04189115,31.56068,19.66593,-23.26331,1008.302
13.248116970,3.077377,-1.800184,-6.538307,-0.9914576,-0.1494684,-0.01794788,31.56068,19.66593,-23.26331,1008.302
13.282876968,4.688692,-1.447967,-5.746078,-0.9812666,-0.1595495,-0.002557129,31.93307,20.03128,-22.89996,1008.301
13.315154076,2.767509,-1.976292,-4.892908,-0.9508137,-0.1384929,0.04487396,30.85739,19.68437,-22.44307,1008.301
13.347430229,0.3505361,-1.389264,-4.649146,-0.9832024,-0.1512545,0.01924895,30.85739,19.68437,-22.44307,1008.299
13.382190228,-0.2072268,-1.565373,-1.967755,-1.043717,-0.1390188,-0.03179556,31.57029,20.03527,-22.89444,1008.299
13.414467335,-1.074858,-0.3913172,-2.577162,-0.9924161,-0.149924,-0.008763072,30.48196,20.04724,-22.8779,1008.299
13.449227333,3.263298,1.134955,-1.845873,-0.9807463,-0.174545,-0.001193197,30.48196,20.04724,-22.8779,1008.297
13.481503964,5.928165,3.248255,-0.3223556,-0.9734672,-0.1802806,0.0137451,30.84408,20.40777,-22.88803,1008.297
13.516263485,2.705535,2.250308,1.01834,-0.9270303,-0.1673741,0.07028073,31.1979,19.66991,-23.25779,1008.297
13.548540115,1.032246,0.4892245,3.455968,-0.9464599,-0.1355409,0.05551701,31.1979,19.66991,-23.25779,1008.296
13.580817223,-7.458146,-1.50667,4.735723,-0.9522454,-0.1530788,0.02594,30.83513,19.6739,-23.25228,1008.296
13.615577221,-0.3311741,-0.2739116,5.162308,-0.9740188,-0.1624831,-0.01757603,30.83513,19.6739,-23.25228,1008.294
13.647853851,10.39027,-2.680726,4.126316,-0.9914565,-0.1504412,-0.01940373,30.83513,19.6739,-23.25228,1008.296
13.682613373,15.59606,-3.737376,1.627747,-0.9861719,-0.1315102,-0.006738075,31.19658,20.39895,-23.26702,1008.294
13.714890480,11.87764,-1.800184,-0.6270592,-1.012785,-0.1267748,-0.01487225,31.19724,20.03443,-23.26241,1008.296
13.749650479,6.733823,-0.2152089,-3.978798,-1.0588,-0.09497502,-0.01700946,31.53604,20.01917,-24.13938,1008.296
13.781927109,-1.260779,-2.269806,-5.197612,-1.068436,-0.1100094,-0.01852449,31.53604,20.01917,-24.13938,1008.296
