Time (s),Gyroscope X (deg/s),Gyroscope Y (deg/s),Gyroscope Z (deg/s),Accelerometer X (g),Accelerometer Y (g),Accelerometer Z (g),Magnetometer X (uT),Magnetometer Y (uT),Magnetometer Z (uT),Barometer (hPa)
0.000000000,-0.2902327,-0.08165179,0.07439566,0.09819628,-0.4381497,0.8881084,-12.45708,34.48159,-31.4228,1008.181
0.034648418,-0.4130936,-0.02246678,0.1356827,0.09623022,-0.4376693,0.8862028,-12.46312,34.09476,-31.86722,1008.18
0.066821098,0.3240714,0.09590325,-0.04817839,0.1069146,-0.4411544,0.8817363,-12.45708,34.48159,-31.4228,1008.182
0.101469517,0.9998059,-0.08165179,-0.1094654,0.0982934,-0.4303243,0.8958841,-12.45708,34.48159,-31.4228,1008.182
0.133642197,-1.641702,-0.1408368,-0.2933265,0.09627456,-0.430859,0.8881865,-12.84658,34.47558,-32.31343,1008.182
0.168290615,-0.9045368,0.03671823,-0.1094654,0.09911366,-0.4454614,0.8846656,-12.09095,34.08371,-32.31543,1008.18
0.200462818,0.8769451,0.09590325,0.1969697,0.1010635,-0.4459566,0.8846433,-12.09095,34.08371,-32.31543,1008.18
0.235110760,1.122667,0.09590325,0.1969697,0.09670389,-0.436234,0.8838001,-12.83554,33.72469,-31.41714,1008.18
0.267283917,0.7540843,-0.08165179,0.01310863,0.1012313,-0.4308134,0.8972986,-12.08492,34.47053,-31.87101,1008.176
0.301931858,0.2012106,-0.02246678,0.01310863,0.1011438,-0.4284751,0.8857507,-12.84683,34.09445,-32.31157,1008.178
0.334105015,-0.3516631,0.1550883,-0.1707524,0.09917219,-0.4381546,0.8880993,-12.84683,34.09445,-32.31157,1008.177
0.366278648,-0.4130936,0.09590325,-0.1707524,0.09959931,-0.4401467,0.8818129,-11.70749,33.70289,-31.86923,1008.177
0.400926113,0.01691934,0.09590325,0.01310863,0.1030089,-0.439686,0.8808209,-12.09095,34.08371,-32.31543,1008.175
0.433099747,1.061236,0.3326433,0.01310863,0.1036085,-0.4391033,0.8938341,-12.09095,34.08371,-32.31543,1008.173
0.467747212,-0.1059415,0.1550883,0.01310863,0.09728303,-0.4318014,0.8925073,-12.46864,34.47021,-32.31536,1008.177
0.499920845,-0.5359544,0.03671823,0.01310863,0.09579302,-0.4371371,0.8919953,-12.84106,34.10013,-31.86529,1008.177
0.534568310,-0.2288023,0.09590325,0.1356827,0.09378844,-0.4381424,0.8862216,-12.84106,34.10013,-31.86529,1008.177
0.566741943,0.7540843,0.3326433,0.2582567,0.1035597,-0.4381805,0.8875761,-12.0907,34.46484,-32.3173,1008.177
0.601389408,0.5083627,0.2142733,0.1969697,0.09820402,-0.4304056,0.8852803,-12.84131,33.719,-31.86343,1008.175
0.633562565,-0.4130936,0.1550883,-0.04817839,0.1001743,-0.4337836,0.88909,-12.84131,33.719,-31.86343,1008.177
0.668210507,0.1397802,0.09590325,0.07439566,0.09725659,-0.4313419,0.8891373,-12.85236,34.4699,-32.75971,1008.177
0.700383663,-0.8431064,0.2734583,0.01310863,0.09322546,-0.4406259,0.8784944,-12.84054,34.8624,-31.86901,1008.177
0.735031605,1.675541,0.5693834,0.1969697,0.09340382,-0.4327267,0.8959099,-12.84054,34.8624,-31.86901,1008.177
0.767204762,-0.1673719,0.03671823,-0.2320395,0.09828464,-0.4177595,0.8887577,-12.08543,33.70826,-31.86729,1008.179
0.801852703,-2.071715,-0.1408368,-0.04817839,0.09821635,-0.4332958,0.8881483,-12.46312,34.09476,-31.86722,1008.179
0.834025860,0.07834975,0.3918283,0.07439566,0.1020068,-0.4440569,0.8798302,-12.46312,34.09476,-31.86722,1008.181
0.868673801,1.55268,0.6285684,0.1969697,0.100626,-0.440589,0.8880657,-12.46337,33.71363,-31.86536,1008.181
0.900846958,1.061236,0.1550883,0.3808308,0.09680501,-0.4274378,0.8915837,-12.45682,34.86272,-31.42466,1008.181
0.933020592,0.1397802,0.3326433,0.07439566,0.09481057,-0.4279503,0.8867781,-12.45682,34.86272,-31.42466,1008.181
0.967668056,-0.04451108,0.3326433,0.01310863,0.1001358,-0.4352694,0.8852221,-12.46889,34.08908,-32.3135,1008.183
0.999841690,-0.4130936,0.09590325,-0.1707524,0.09769605,-0.4362242,0.8857189,-12.08492,34.47053,-31.87101,1008.183
1.034489155,-0.1673719,0.09590325,0.1356827,0.09681519,-0.4279121,0.8930257,-12.08492,34.47053,-31.87101,1008.185
1.066661835,-0.2288023,0.1550883,0.1356827,0.09818836,-0.4420255,0.8890406,-12.07914,34.47622,-31.42473,1008.183
1.101310253,1.122667,0.2734583,0.2582567,0.0981818,-0.4328437,0.8838143,-12.84131,33.719,-31.86343,1008.183
1.133482933,0.01691934,0.1550883,-0.1094654,0.1007372,-0.4293658,0.8958692,-12.84131,33.719,-31.86343,1008.187
1.168131352,-0.474524,0.03671823,0.01310863,0.09433509,-0.4337393,0.8910728,-12.84683,34.09445,-32.31157,1008.187
1.200304031,0.1397802,0.03671823,-0.1094654,0.09568735,-0.436266,0.8789894,-12.08492,34.47053,-31.87101,1008.187
1.234952450,0.6312235,0.2142733,0.01310863,0.09766364,-0.4381879,0.8828111,-12.08492,34.47053,-31.87101,1008.187
1.267125130,-0.04451108,0.2142733,-0.04817839,0.09923293,-0.4342309,0.8934331,-12.46889,34.08908,-32.3135,1008.187
1.301773548,-0.8431064,-0.3183918,0.01310863,0.09046787,-0.4307851,0.8940253,-12.46889,34.08908,-32.3135,1008.187
1.333946228,-0.6588152,0.09590325,-0.04817839,0.09179415,-0.4415561,0.8828381,-12.46889,34.08908,-32.3135,1008.185
1.368594170,1.675541,0.09590325,-0.04817839,0.0938698,-0.4400027,0.8968095,-12.8408,34.48127,-31.86715,1008.183
1.400767326,-0.9659672,-0.1408368,-0.1094654,0.09770775,-0.4265421,0.8824247,-12.08518,34.08939,-31.86915,1008.183
1.432940483,-2.071715,-0.08165179,-0.1094654,0.09323379,-0.4444869,0.8813545,-12.08518,34.08939,-31.86915,1008.182
1.467588425,0.5697931,0.09590325,0.1356827,0.09957136,-0.4498435,0.8831792,-12.0907,34.46484,-32.3173,1008.182
1.499761582,1.429819,0.2142733,0.01310863,0.09624422,-0.4333044,0.8857566,-12.46286,34.4759,-31.86908,1008.182
1.534409523,0.1397802,-0.02246678,0.07439566,0.09667721,-0.430939,0.87806,-12.46889,34.08908,-32.3135,1008.182
1.566582680,0.07834975,-0.02246678,0.2582567,0.09774666,-0.4327931,0.8900848,-12.46889,34.08908,-32.3135,1008.18
1.601230621,-0.2288023,0.1550883,0.01310863,0.09869213,-0.4333093,0.8866977,-12.47467,34.0834,-32.75978,1008.18
1.633403778,-0.5359544,0.1550883,-0.1094654,0.09285713,-0.4361626,0.8905846,-12.46864,34.47021,-32.31536,1008.18
1.668051720,-0.2902327,0.09590325,0.01310863,0.09469564,-0.4449797,0.8813368,-12.46864,34.47021,-32.31536,1008.18
1.700224877,-0.1673719,0.09590325,0.1356827,0.1006683,-0.433297,0.8895714,-12.46312,34.09476,-31.86722,1008.18
1.734872818,-0.4130936,-0.1408368,0.1356827,0.1001257,-0.4376963,0.8852022,-12.46864,34.47021,-32.31536,1008.18
1.767045975,-0.1673719,0.03671823,-0.04817839,0.09773657,-0.434253,0.8895909,-12.46864,34.47021,-32.31536,1008.178
1.801693917,0.262641,0.09590325,0.07439566,0.0982003,-0.4371789,0.8881164,-12.8521,34.85103,-32.76157,1008.182
1.833867073,0.5083627,0.03671823,0.01310863,0.0938208,-0.4352115,0.8886555,-11.70698,34.46516,-31.87295,1008.182
1.868515015,-0.7202456,0.03671823,0.07439566,0.09725273,-0.435214,0.8905514,-11.70698,34.46516,-31.87295,1008.18
1.900688171,-0.2288023,-0.1408368,0.1356827,0.09818014,-0.4400987,0.8871285,-12.46312,34.09476,-31.86722,1008.179
1.935336113,-0.7202456,0.09590325,0.07439566,0.09714745,-0.4420797,0.8813378,-12.09044,34.84598,-32.31916,1008.179
1.967509270,1.675541,0.2734583,0.07439566,0.09529108,-0.4414994,0.8924459,-12.09044,34.84598,-32.31916,1008.179
1.999682426,0.262641,-0.3183918,-0.2320395,0.09290911,-0.419674,0.8887921,-12.45708,34.48159,-31.4228,1008.179
2.034330368,-2.194576,-0.3183918,-0.1094654,0.09816159,-0.4347963,0.8823524,-12.09095,34.08371,-32.31543,1008.179
2.066503525,-0.2902327,0.03671823,-0.04817839,0.1010069,-0.452778,0.8812136,-12.09095,34.08371,-32.31543,1008.179
2.101151466,1.429819,0.3918283,0.07439566,0.1006525,-0.4420156,0.8919097,-12.0907,34.46484,-32.3173,1008.179
2.133324623,0.6926539,-0.08165179,0.1969697,0.09479445,-0.4308664,0.8862723,-12.46312,34.09476,-31.86722,1008.18
2.167972565,-0.474524,-0.08165179,0.01310863,0.09727319,-0.4380968,0.8943835,-12.46312,34.09476,-31.86722,1008.179
2.200145721,-0.4118693,-0.08123546,0.01312929,0.09676453,-0.430376,0.8881859,-12.46889,34.08908,-32.3135,1008.179
2.234793663,-0.1643209,-0.02202824,-0.1091374,0.09382482,-0.4342407,0.8886635,-12.8408,34.48127,-31.86715,1008.179
2.266966820,-0.5316743,-0.08116028,0.07513002,0.09622005,-0.437195,0.8847607,-12.8408,34.48127,-31.86715,1008.177
2.301614761,0.08423088,0.03726885,-0.04746634,0.09624045,-0.4391107,0.8881188,-12.46864,34.47021,-32.31536,1008.177
2.333787918,-0.03883854,-0.1401596,0.07487839,0.0986862,-0.4366997,0.8876338,-12.46889,34.08908,-32.3135,1008.175
2.368435860,-0.2840427,-0.2581929,0.07491485,0.09722013,-0.4333093,0.8857474,-12.46889,34.08908,-32.3135,1008.175
2.400609017,-0.3436409,0.03811634,0.07485943,0.09911366,-0.4454614,0.8846656,-12.46838,34.85135,-32.31722,1008.179
2.435256958,0.8225396,-0.0216628,-0.1091958,0.09669189,-0.4401135,0.8842503,-12.09095,34.08371,-32.31543,1008.177
2.467430115,0.2661785,-0.1402786,0.1970116,0.09481668,-0.4284283,0.8877381,-12.46286,34.4759,-31.86908,1008.176
2.499603272,-1.021495,-0.02183772,0.01284731,0.09774264,-0.4337639,0.8900769,-12.46286,34.4759,-31.86908,1008.176
2.534251213,-1.018052,-0.1396847,-0.1098794,0.09378038,-0.4391169,0.8857316,-12.47467,34.0834,-32.75978,1008.176
2.566424370,1.194894,0.2744185,-0.1706798,0.09423808,-0.4434989,0.8842453,-12.08518,34.08939,-31.86915,1008.172
2.601072312,0.5123937,-0.6133909,-0.3537147,0.09588568,-0.4215786,0.8954966,-12.08518,34.08939,-31.86915,1008.172
2.633245468,-2.800171,-0.4927989,-0.1078552,0.09434918,-0.4313087,0.8915747,-12.46337,33.71363,-31.86536,1008.17
2.667893410,-1.077462,0.0996457,0.1373175,0.09994796,-0.4572008,0.873475,-12.46889,34.08908,-32.3135,1008.169
2.700066567,1.134033,0.2772007,0.1986045,0.1020453,-0.4435383,0.8841721,-12.46889,34.08908,-32.3135,1008.167
2.734714508,0.396868,-0.2554644,0.1373175,0.09435926,-0.4298488,0.8920687,-12.84683,34.09445,-32.31157,1008.167
2.766887665,-3.964691,-2.80042,3.140382,0.08959195,-0.3678627,0.9335942,-12.4626,34.85703,-31.87094,1008.167
2.801535607,-42.05155,-22.09473,-1.640006,0.04230468,-0.4483771,1.036519,-12.4626,34.85703,-31.87094,1008.167
2.833708763,5.18844,-38.78491,-10.03633,0.05049519,-0.7303602,1.04424,-11.32352,34.08435,-31.42674,1008.167
2.868356705,4.758428,-68.19986,-25.23551,0.01067658,-0.409675,1.377425,-12.82873,35.2549,-30.97831,1008.167
2.900529861,-154.5306,-108.0314,-36.88004,0.03584776,-0.2485871,1.449372,-12.82873,35.2549,-30.97831,1008.167
2.935177803,-243.789,-141.3525,-99.08638,0.05351461,-0.8538983,0.824366,-15.07377,34.54759,-29.17786,1008.167
2.967350960,-148.449,-145.9098,-151.8545,0.2961601,-1.584854,0.668102,-18.42219,36.61535,-20.30758,1008.171
2.999523640,24.10901,-146.7975,-187.1558,0.2281441,-1.237186,0.7684847,-18.42219,36.61535,-20.30758,1008.171
3.034172058,13.35869,-172.8981,-222.0894,0.09400211,-0.6520197,0.7827545,-23.60419,38.32143,-11.93612,1008.171
3.066344738,-70.12524,-172.839,-249.117,0.1989306,-0.563331,0.392087,-31.12588,33.51386,-8.749292,1008.171
3.100993156,-41.25295,-140.5831,-259.9035,0.3961824,-0.4411668,-0.003985987,-31.12588,33.51386,-8.749292,1008.169
3.133165836,3.591249,-111.4641,-252.2426,0.5444747,-0.08519448,-0.009183038,-37.84762,26.77103,-2.050224,1008.167
3.167814255,5.434162,-89.21054,-237.4725,0.6539636,0.0825946,0.1049305,-42.70376,18.5176,2.861185,1008.167
3.199986935,62.13443,-83.88389,-224.4183,0.5988675,0.03500068,0.1918121,-42.70376,18.5176,2.861185,1008.17
3.234635353,160.1774,-95.12904,-212.0996,0.7469208,0.3537825,-0.2306189,-45.76781,9.061533,5.1549,1008.168
3.266808033,120.0633,-79.32664,-183.356,0.9450251,0.7888461,-0.2698506,-46.11126,0.2771022,8.323904,1008.168
3.301456451,-37.07568,-54.40975,-156.0833,0.8618994,0.7987405,-0.2362175,-46.11126,0.2771022,8.323904,1008.166
3.333629131,-80.01554,-11.67817,-137.6359,0.8035857,0.5600002,-0.2655975,-45.69807,-6.168554,11.41381,1008.166
3.368277550,20.73034,21.22869,-103.07,0.7161797,0.6339239,-0.3658744,-44.11614,-12.65882,12.32995,1008.164
3.400449753,11.94579,64.84805,-74.69415,0.8424056,1.006833,-0.3919339,-44.11614,-12.65882,12.32995,1008.163
3.435098648,-97.0932,121.0146,-43.74419,0.7538404,0.848482,-0.4015709,-42.62005,-18.7898,11.45943,1008.163
3.467270851,-86.03572,177.6547,-12.24266,0.7985063,0.7842565,-0.4560191,-42.2775,-21.11527,8.854727,1008.161
3.501919747,-82.41133,236.603,28.63578,0.6206442,1.838844,0.168402,-42.36571,-23.48734,2.171682,1008.157
3.534091950,-395.0307,206.5962,101.0157,0.5786827,0.8698761,0.05717537,-42.36571,-23.48734,2.171682,1008.157
3.566265583,-479.1289,-12.86187,-30.75134,-0.3297264,-5.841451,-0.7897961,-42.50248,-23.24102,-8.413404,1008.157
3.600913048,728.3473,40.1679,-107.4214,2.252642,0.5943498,0.08748411,-42.60237,-17.24521,-16.47623,1008.155
3.667734146,-46.96598,-56.36286,-1.027136,0.6480221,0.4634488,0.1428297,-41.76342,-22.50655,-9.759835,1008.155
3.699907780,1.011172,-20.67429,29.30994,0.7370225,0.7874643,0.2984282,-42.1248,-23.62752,-8.413478,1008.155
3.734555245,-69.20379,-29.25612,76.13322,0.5963317,0.9948826,0.354953,-42.1248,-23.62752,-8.413478,1008.155
3.766728878,-54.64478,-20.73348,108.9831,0.3172347,0.8160799,0.2138933,-42.12454,-23.24639,-8.415339,1008.157
3.801376343,28.04055,2.407861,139.504,0.5638038,0.675299,0.18103,-43.2563,-20.18122,-8.424423,1008.157
3.833549499,67.78603,50.99876,166.2252,0.7593095,0.7721038,0.4610095,-43.2563,-20.18122,-8.424423,1008.157
3.868197441,20.48461,63.30924,188.9626,0.8227882,0.7142052,0.6098416,-44.81749,-15.95582,-7.608027,1008.157
3.900370598,-39.28718,59.40303,207.6552,0.7243806,0.4862308,0.5659825,-46.71932,-9.465952,-8.905077,1008.157
3.935018539,-93.83739,61.41532,218.6868,0.5589938,0.1821467,0.428131,-46.71932,-9.465952,-8.905077,1008.157
3.967191696,-114.048,67.68893,222.9769,0.4239873,-0.07852801,0.4002498,-46.37669,-1.888445,-12.06819,1008.155
4.001839638,-88.12436,64.2562,199.3814,0.2147284,-0.4206276,0.4027561,-44.87553,8.04602,-13.46346,1008.155
4.034012795,-36.95282,68.69508,176.3988,0.4258904,-0.759744,0.433658,-44.87553,8.04602,-13.46346,1008.155
4.068660736,10.10287,103.3775,168.8605,0.6682093,-0.5968422,0.5031118,-41.41094,16.75719,-13.97026,1008.155
4.100833893,-4.701856,117.8186,152.8646,0.4096482,-0.6806341,0.6113555,-36.91092,23.13306,-17.08531,1008.155
4.133007526,28.10198,112.8471,122.0985,0.3852928,-0.9624307,0.8112174,-36.91092,23.13306,-17.08531,1008.155
4.167654991,104.3986,99.23454,87.16489,0.2943901,-0.9191404,0.8905064,-32.03398,27.97902,-20.19485,1008.155
4.199828625,127.3735,83.13622,64.73383,0.2830162,-0.6606611,0.9799854,-26.79825,31.34074,-24.70179,1008.155
4.234476090,49.78692,61.53369,43.28338,0.2353704,-0.3311757,1.190406,-26.79825,31.34074,-24.70179,1008.155
4.266649246,-42.78871,37.91887,17.54283,0.1960775,-0.5018374,1.126706,-22.33204,30.38312,-30.01258,1008.153
4.301297188,-25.71106,23.06343,1.363058,0.1701348,-0.6076077,1.05233,-20.45386,30.40843,-30.91512,1008.155
4.333470345,6.109897,9.569248,-8.504153,0.1929145,-0.4511871,0.9579711,-20.45386,30.40843,-30.91512,1008.155
4.368118286,16.06162,1.875196,-20.76156,0.2101499,-0.342811,0.9239997,-19.31374,31.16028,-30.47836,1008.157
4.400291443,11.76149,-2.91879,-27.6257,0.2632853,-0.3673045,0.929086,-19.3253,31.14891,-31.37092,1008.159
4.434939385,21.77465,-1.02487,-19.04552,0.2511212,-0.2922581,0.8970422,-19.3253,31.14891,-31.37092,1008.16
4.467112541,16.49164,-2.504495,-11.01692,0.2503767,-0.1687327,0.8648096,-19.70375,30.39201,-31.36526,1008.16
4.501760483,-21.71808,-3.096345,-4.765644,0.2773411,-0.146992,0.8690752,-20.46597,29.57127,-31.80365,1008.162
4.533933640,-50.34465,-3.2739,6.817603,0.1975105,-0.2372858,0.8787156,-20.46597,29.57127,-31.80365,1008.162
4.568581581,-75.10111,-0.4330194,13.74304,0.3072549,-0.3693366,0.8197271,-20.84417,29.19551,-31.79985,1008.162
4.600754738,-64.35078,3.650746,21.89421,0.2275566,-0.4638622,0.8471655,-20.44178,31.18207,-30.02628,1008.16
4.632928372,-45.55308,5.130372,23.30381,0.2352621,-0.5302058,0.8089506,-20.44178,31.18207,-30.02628,1008.16
4.667575836,-30.62549,7.556957,23.42639,0.2152903,-0.5668249,0.8310071,-20.04548,32.71829,-28.69681,1008.16
4.699748993,-18.58513,2.289491,19.93303,0.1981957,-0.5769458,0.8922971,-19.2715,33.86801,-27.36742,1008.16
4.734396935,-10.10773,8.444733,21.89421,0.2501768,-0.510611,0.7159472,-18.50355,34.63091,-26.48245,1008.16
4.766570091,-38.55001,7.261032,5.162854,0.2149587,-0.5734876,0.9109672,-18.50355,34.63091,-26.48245,1008.16
4.801218033,-37.25998,2.467046,7.369186,0.1588725,-0.6480945,0.8930414,-18.12014,35.39268,-26.10558,1008.16
4.833391190,-21.41093,5.012002,6.020872,0.1806947,-0.5670516,0.7792721,-17.72987,36.54208,-25.22053,1008.159
4.868039131,-26.63251,10.69376,6.572455,0.213621,-0.5123237,0.7220581,-17.72987,36.54208,-25.22053,1008.157
4.900212288,-37.25998,14.8959,12.63987,0.1653709,-0.5628026,0.7539041,-16.96796,36.91816,-24.77998,1008.157
4.934860229,-40.27007,19.74907,19.99431,0.1908206,-0.5406173,0.7519215,-16.57821,37.3053,-23.89121,1008.161
4.967033386,-53.29331,23.1818,26.1843,0.1675968,-0.5518873,0.7231254,-16.57821,37.3053,-23.89121,1008.161
5.001682281,-52.249,19.27559,29.30994,0.1143831,-0.7049349,0.7946602,-16.18768,38.83583,-23.00803,1008.163
5.033854485,-25.34248,8.207993,27.65519,0.1029148,-0.7626835,0.8516489,-14.21714,39.58741,-21.6829,1008.163
5.068503380,4.881288,-6.233151,20.66847,0.02384787,-0.967669,0.717183,-14.21714,39.58741,-21.6829,1008.163
5.100675583,105.9343,16.02041,17.05254,0.1426449,-0.8229923,0.6724412,-13.0647,41.49403,-20.35917,1008.163
5.135324478,81.42358,26.37779,19.19758,0.0730691,-0.465249,0.7565337,-12.33219,41.07942,-22.14629,1008.163
5.167496681,-1.507475,24.7798,25.01985,0.03234208,-0.5189272,0.7559891,-12.33219,41.07942,-22.14629,1008.163
5.199669838,-19.87517,26.43698,34.88706,0.05265767,-0.596043,0.7137119,-11.61201,39.51004,-24.8204,1008.163
5.234317780,-7.036212,24.72061,45.18328,0.01298175,-0.6501414,0.7223121,-10.10603,39.48288,-25.27442,1008.163
5.266490936,9.242848,24.30632,50.63783,0.01742002,-0.6177593,0.7702556,-10.10603,39.48288,-25.27442,1008.168
5.301139832,-3.043235,24.24713,54.9892,-0.05256507,-0.6171501,0.8041716,-8.216076,39.83717,-25.28595,1008.168
5.333312035,1.871198,17.97352,50.2701,-0.04190804,-0.7623458,0.8650531,-5.947925,40.56723,-25.30127,1008.167
5.367960930,9.734291,22.88588,48.79921,-0.0575711,-0.5747238,0.82674,-5.947925,40.56723,-25.30127,1008.167
5.400133133,-38.42715,20.45929,44.32526,-0.07138222,-0.5322358,0.7886592,-3.307611,41.28623,-25.76481,1008.165
5.434782028,-48.31745,24.30632,43.89625,-0.1592848,-0.6812054,0.7371594,-1.040229,40.87289,-25.77456,1008.165
5.466954231,-9.80058,33.59836,40.46418,-0.2099496,-0.6238135,0.7197893,-1.040229,40.87289,-25.77456,1008.165
5.501603127,-15.39075,31.94118,37.21597,-0.250316,-0.5539284,0.818588,0.8786173,41.2556,-23.55468,1008.167
5.533776283,-16.12791,33.71673,37.70626,-0.2084458,-0.6175356,0.779595,3.146768,41.98566,-23.57001,1008.167
5.568424225,-8.510541,37.26783,37.76755,-0.2595951,-0.6215138,0.7342495,5.798121,41.95377,-23.13726,1008.167
5.600597382,4.205554,38.33316,35.49993,-0.3289535,-0.6632977,0.7470842,5.798121,41.95377,-23.13726,1008.167
5.635245323,20.60747,42.06182,36.72567,-0.3193431,-0.6170594,0.7068877,7.327729,42.71161,-21.80988,1008.167
5.667418480,34.24503,45.37618,48.00248,-0.4759253,-0.6616787,0.736419,9.583552,42.2869,-22.71218,1008.165
5.699591637,81.36215,50.64365,41.3222,-0.5484101,-0.6485763,0.8152872,9.583552,42.2869,-22.71218,1008.165
5.734239578,52.12128,58.752,28.45192,-0.5664229,-0.2727518,0.6966078,12.21128,41.47,-24.06084,1008.167
5.766412735,-15.39075,47.98032,28.81964,-0.5668536,-0.3451578,0.622269,14.14535,39.51954,-25.40037,1008.167
5.801060677,-6.72906,41.70671,33.90647,-0.6230938,-0.4648768,0.6078287,14.14535,39.51954,-25.40037,1008.167
5.833233833,16.73736,35.49228,45.12199,-0.6679661,-0.4481914,0.6026011,16.05187,38.74748,-24.06747,1008.169
5.867881775,17.59738,28.62682,57.68583,-0.7764128,-0.4279288,0.5796801,18.32503,38.33982,-23.63094,1008.168
5.900054932,10.65575,25.13491,67.30788,-0.861653,-0.3697781,0.5125109,18.32503,38.33982,-23.63094,1008.168
5.934702873,-16.98794,28.92275,76.1945,-0.9130362,-0.323678,0.4150425,20.21344,36.40731,-23.6313,1008.168
5.966876030,-37.75142,36.79435,75.45906,-0.8858752,-0.3974305,0.3727291,23.248,35.61347,-22.75049,1008.168
6.001523972,-34.61847,43.89656,78.95242,-0.8451591,-0.3389638,0.4277791,23.248,35.61347,-22.75049,1008.168
6.033697128,-40.45436,44.9027,84.52954,-0.7391397,-0.3567475,0.3929033,26.67128,33.68222,-20.97347,1008.166
6.068345070,-35.90851,37.62294,86.06171,-0.6639154,-0.4480026,0.503755,29.72266,32.14317,-18.7501,1008.17
6.100518227,1.256894,47.68439,88.32934,-0.5095112,-0.3876214,0.43967,29.72266,32.14317,-18.7501,1008.168
6.135166168,-68.77378,29.33704,74.41718,-0.4621644,-0.3644876,0.9527484,33.52801,30.21061,-16.65623,1008.17
6.167339325,-125.1055,-16.23542,51.6797,-0.4440265,-0.7145318,1.015727,36.5728,27.45894,-14.87325,1008.17
6.201987267,-67.6066,-46.89325,30.10667,-0.1253838,-0.5569989,0.8786108,36.5728,27.45894,-14.87325,1008.17
6.234160423,-32.77555,-48.78717,27.22618,-0.4249905,-0.5919433,0.4338229,38.47905,26.30576,-13.53849,1008.172
6.266333580,14.09585,-37.48284,35.62251,-0.5083615,-0.2681014,0.5187286,38.85674,25.91926,-13.53857,1008.172
6.300981522,16.43021,-34.52359,34.7032,-1.304336,-0.07531047,0.710905,38.85674,25.91926,-13.53857,1008.172
6.333154678,-42.29727,-32.03782,14.53977,-1.025645,-0.2023424,0.7193072,39.21131,25.51002,-15.32376,1008.172
6.367802620,-25.21961,-26.65198,-6.604255,-0.8230824,-0.3738582,0.5747773,39.95409,23.20111,-16.20903,1008.172
6.399975777,-6.483338,-15.82112,-14.01999,-0.6603221,-0.1786598,0.6269237,39.95409,23.20111,-16.20903,1008.172
6.434623718,-11.33634,-11.91491,-15.61345,-0.6862321,-0.3366632,0.6398409,39.56511,23.95737,-17.10338,1008.172
6.466796875,-0.8931707,-11.44143,-13.52969,-0.7177181,-0.3173966,0.6002876,38.06567,25.13362,-16.20866,1008.172
6.501444817,-9.431997,-16.88645,-10.6492,-0.7413604,-0.3363382,0.583482,38.06567,25.13362,-16.20866,1008.172
6.533617973,-3.84183,-15.17009,-7.094551,-0.7671816,-0.3294012,0.5852262,37.67644,25.50875,-17.10115,1008.172
6.568265915,-7.404794,-15.99868,-0.04654358,-0.6567518,-0.2646116,0.6869138,37.66653,25.499,-17.8662,1008.176
6.600439072,-11.58206,-19.25385,2.77266,-0.6077044,-0.3694883,0.6508875,37.66653,25.499,-17.8662,1008.174
6.635087013,-6.544769,-8.304626,10.43354,-0.6212819,-0.3097882,0.5160645,37.67174,25.88501,-17.48554,1008.173
6.667260170,9.181417,-6.233151,13.86561,-0.7158387,-0.3803736,0.6802447,36.89935,25.8795,-18.75676,1008.173
6.701908112,10.28716,-2.68205,19.07501,-0.6749731,-0.2569354,0.6635291,37.65498,25.48763,-18.75876,1008.173
6.734081268,8.935696,3.946671,25.51015,-0.5957715,-0.2291478,0.6673571,37.65498,25.48763,-18.75876,1008.171
6.766254425,-14.40786,10.10191,31.76142,-0.671495,-0.2839758,0.6839997,38.02688,25.09545,-19.20512,1008.171
6.800902367,13.48155,15.66531,33.10974,-0.688959,-0.2910103,0.6416887,38.02611,23.95205,-19.19954,1008.169
6.833075523,9.61143,15.78368,27.77777,-0.7359509,-0.1782748,0.6281146,38.02611,23.95205,-19.19954,1008.169
6.867723465,-5.131869,19.27559,21.89421,-0.8228256,-0.2788825,0.6174918,39.54839,22.41741,-18.30727,1008.169
6.899896622,3.71411,18.62456,20.91362,-0.8049309,-0.2259634,0.630775,39.55366,21.66082,-17.85726,1008.173
6.934545040,0.396868,15.78368,16.68481,-0.830554,-0.272485,0.6238827,39.55366,21.66082,-17.85726,1008.171
6.966717720,3.284097,11.40398,10.55611,-0.8569828,-0.2327715,0.5955367,40.6867,20.50132,-17.85748,1008.167
7.001366138,-14.22357,11.40398,5.469289,-0.8688728,-0.2324292,0.6322824,40.70264,20.89788,-16.64801,1008.17
7.033539295,5.372732,10.98969,3.630678,-0.780689,-0.1879888,0.5354261,40.70264,20.89788,-16.64801,1008.17
7.068187237,-7.527655,7.142662,-1.885154,-0.7653179,-0.173373,0.615415,41.45852,20.88715,-16.65188,1008.17
7.100360394,0.6425897,7.201847,-6.175246,-0.7074735,-0.1177738,0.5613497,41.08585,20.13593,-16.19994,1008.168
7.135008335,-15.02217,3.709931,-16.34889,-0.8041257,-0.2962037,0.5863266,41.08585,20.13593,-16.19994,1008.166
7.167181492,-13.85499,7.379402,-16.59404,-0.7613626,-0.07811996,0.6335154,41.91653,20.5168,-15.31343,1008.166
7.201829433,-16.98794,4.597706,-23.02918,-0.783788,-0.336102,0.5867718,41.09766,20.52844,-15.30924,1008.166
7.234002590,-4.271843,2.881341,-27.44184,-0.824386,-0.2107423,0.5149202,41.09766,20.52844,-15.30924,1008.166
7.266175747,-31.73124,-0.9656845,-33.81569,-0.8734949,-0.2848048,0.5721259,41.10421,21.67752,-14.86854,1008.166
7.300823689,-7.957668,-1.61672,-42.33459,-0.8919116,-0.2768601,0.5834492,40.73282,22.83198,-14.42591,1008.166
7.332996845,-18.46227,-15.46601,-58.94337,-0.7070751,-0.3290653,0.4786282,40.73282,22.83198,-14.42591,1008.166
7.367644787,-29.94976,-17.00482,-59.7401,-0.7760059,-0.3104977,0.5131645,39.60581,24.3783,-13.98127,1008.168
7.399817944,-14.40786,-19.43141,-65.25594,-0.8003114,-0.360061,0.4903286,38.46724,25.91325,-14.42919,1008.168
7.434465885,-13.54784,-15.5252,-54.77586,-0.6787855,-0.354439,0.6054029,38.46724,25.91325,-14.42919,1008.172
7.466639042,-12.38066,-35.6481,-62.62059,-0.7426745,-0.5982515,0.670023,37.32341,28.20479,-15.32712,1008.172
7.501286984,-3.657539,-42.92786,-61.64,-0.479837,-0.4536943,0.5767003,34.68494,30.21725,-14.87691,1008.172
7.533460140,-10.8449,-36.18077,-56.30803,-0.6540826,-0.4442283,0.684926,34.68494,30.21725,-14.87691,1008.17
7.568108082,-32.52983,-33.39907,-69.30089,-0.5748751,-0.5252011,0.6840014,32.77316,31.74588,-16.65981,1008.17
7.600281239,-45.98309,-32.68885,-71.93623,-0.3693148,-0.4848643,0.4452722,30.5181,33.314,-15.76309,1008.17
7.634929180,-15.94362,12.5285,-38.59608,-0.4467451,-0.519299,0.7137025,30.5181,33.314,-15.76309,1008.17
7.667102337,-14.34643,14.12649,-41.783,-0.5060335,-0.6598688,0.6369409,27.48984,34.87579,-16.20134,1008.17
7.701750279,-38.73431,28.50845,-46.19567,-0.5319276,-0.513805,0.6788747,26.36912,37.19007,-15.31414,1008.17
7.733923435,-62.13929,33.18407,-37.49291,-0.5034909,-0.6365389,0.5797516,26.36912,37.19007,-15.31414,1008.17
7.768571377,-66.68514,32.17792,-33.81569,-0.4986363,-0.7680423,0.5241562,24.88124,38.37769,-13.52687,1008.17
7.800744534,-58.63776,28.50845,-27.99343,-0.4413115,-0.8101504,0.5136343,24.15451,38.79798,-11.29346,1008.168
7.832917690,-49.60749,27.02883,-17.57463,-0.4590684,-0.800489,0.3702437,24.15451,38.79798,-11.29346,1008.17
7.867565632,-42.29727,21.52462,-7.829995,-0.5026507,-0.8405467,0.3717661,22.67712,39.61502,-8.675515,1008.17
7.899738789,-34.31132,11.99583,-0.2916917,-0.49531,-0.821705,0.365105,22.32883,40.79221,-6.44776,1008.174
7.934386730,-14.10071,6.787552,3.569391,-0.471238,-0.8496876,0.3395857,22.34091,41.56585,-5.55892,1008.172
7.966559887,0.2125767,1.342531,9.146509,-0.4837863,-0.8170985,0.3404535,22.34091,41.56585,-5.55892,1008.172
8.001208305,17.41309,-1.912645,12.39472,-0.4662942,-0.7631322,0.3633891,22.73618,41.57754,-4.222013,1008.172
8.033380985,30.25205,-7.771961,14.66234,-0.474866,-0.7967081,0.3468043,23.10256,41.56079,-5.116508,1008.174
8.068029404,36.2108,-15.5252,16.99125,-0.5667251,-0.8080012,0.3967323,23.10256,41.56079,-5.116508,1008.174
8.100202560,46.34682,-26.06013,16.86868,-0.5303747,-0.771212,0.4073004,23.08497,41.16261,-6.453488,1008.174
8.134850502,51.13839,-35.58892,25.20371,-0.5047287,-0.7029464,0.4644998,23.81748,40.748,-8.240618,1008.174
8.167023659,49.5412,-47.24836,27.71648,-0.5030643,-0.7617296,0.4586976,23.81748,40.748,-8.240618,1008.174
8.201671600,47.69828,-47.36673,37.95141,-0.5446367,-0.6838281,0.5262438,24.54478,39.94738,-10.40841,1008.176
8.233844757,45.05678,-53.28524,42.05764,-0.4691681,-0.6239875,0.5930308,24.89357,39.53246,-12.63989,1008.178
8.268492699,37.13226,-56.12612,44.81556,-0.4404856,-0.6019855,0.5693266,24.89357,39.53246,-12.63989,1008.176
8.300665855,44.99535,-45.23607,49.65723,-0.4004131,-0.5073531,0.5302088,24.85235,38.34926,-15.75827,1008.176
8.332839012,44.62677,-34.99707,51.55713,-0.3797067,-0.5460235,0.6902027,25.95187,36.395,-18.30494,1008.176
8.367486954,42.23098,-31.26841,42.30279,-0.4330369,-0.4226502,0.7302774,25.95187,36.395,-18.30494,1008.176
8.399660111,28.22484,-22.09473,38.44171,-0.3574352,-0.3689002,0.6996491,27.43974,35.20739,-20.09222,1008.176
8.434308052,0.2125767,10.9305,41.07705,-0.428928,-0.1295525,0.7871213,28.17726,33.65507,-21.42749,1008.176
8.466481209,-13.60927,28.74519,20.11689,-0.8928155,-0.5622074,0.9045268,28.17726,33.65507,-21.42749,1008.176
8.501129151,-34.80276,22.64914,15.8268,-0.544113,-0.4780218,0.7795393,28.92659,32.49524,-21.87205,1008.176
8.533302307,-44.07875,13.47546,15.52036,-0.5514587,-0.7235125,0.662868,30.44939,31.72287,-20.98351,1008.18
8.567950249,-11.95064,21.93892,40.34161,-0.5610272,-0.6352805,0.6429588,30.44939,31.72287,-20.98351,1008.182
8.600123406,6.724201,7.261032,55.4795,-0.5770145,-0.5529252,0.6751168,30.46724,32.50219,-19.64838,1008.18
8.634771347,26.87337,-8.541366,69.82066,-0.5381989,-0.4933976,0.6776554,31.61184,31.35405,-18.75604,1008.18
8.666944504,37.31655,-8.482181,74.90748,-0.5135886,-0.327984,0.6807174,31.61184,31.35405,-18.75604,1008.18
8.701592446,18.76456,-7.535221,83.05865,-0.5931188,-0.3338636,0.685267,33.48896,29.79131,-19.65083,1008.18
8.733765602,39.71233,-4.457601,85.08112,-0.5444703,-0.2888251,0.7035004,34.99335,27.41383,-20.09337,1008.18
8.768414498,19.93174,1.105791,89.18736,-0.5805325,-0.2185581,0.7916581,34.99335,27.41383,-20.09337,1008.182
8.800586701,10.1643,6.965107,93.78388,-0.5888999,-0.2306337,0.7309048,36.85814,24.69631,-21.87514,1008.182
8.835235596,2.915515,12.23257,95.92892,-0.6451666,-0.1246248,0.7202536,38.37361,21.63145,-21.42171,1008.182
8.867408752,-2.551792,18.447,92.55814,-0.6654523,-0.1721305,0.6520894,39.88331,18.56091,-21.41456,1008.182
8.899580955,11.02433,26.67372,93.78388,-0.6812522,-0.05623863,0.6903062,39.88331,18.56091,-21.41456,1008.182
8.934229851,-1.753196,29.15949,82.56836,-0.690253,0.05088541,0.7288693,41.84525,15.11434,-20.51524,1008.18
8.966403007,-4.456135,32.23711,72.21085,-0.7582609,-0.03159129,0.689782,43.73866,12.04412,-20.06374,1008.18
9.001050949,3.222667,31.94118,61.85335,-0.8435528,-0.001088489,0.6879373,43.73866,12.04412,-20.06374,1008.18
9.033224106,0.3354376,29.15949,54.19247,-0.8620398,0.03000371,0.6796901,45.25992,8.984944,-19.16403,1008.18
9.067872047,8.812835,21.76136,46.71545,-0.907119,0.07986727,0.6337679,46.40979,7.080226,-17.82169,1008.184
9.100045204,2.669793,6.373257,37.70626,-0.9780148,0.04479394,0.6346222,46.40979,7.080226,-17.82169,1008.184
9.134693146,-12.2578,-6.825001,23.91668,-0.8871741,0.2059222,0.5652131,46.79609,4.797801,-17.04741,1008.186
9.166866303,2.485502,-11.73736,14.66234,-0.8394806,0.08709209,0.6071684,47.17325,3.649033,-17.04376,1008.186
9.201514244,-18.46227,-20.49674,5.346714,-0.6921124,0.2420263,0.5892366,47.17325,3.649033,-17.04376,1008.184
9.233687401,-25.21961,-20.37837,-2.681885,-0.7036313,0.01933473,0.7200581,46.80032,2.516686,-16.58996,1008.184
9.268335342,-14.77644,-20.61511,-17.81978,-0.5578722,0.2075854,0.5525141,46.02876,2.511992,-17.79742,1008.19
9.300508499,-21.28807,-13.27617,-31.11906,-0.6735411,0.1462127,0.6388834,46.02876,2.511992,-17.79742,1008.188
9.335156441,-8.26482,-21.85799,-51.52764,-0.713276,0.1027366,0.5771998,45.63952,2.887125,-18.68991,1008.187
9.367329598,-3.166096,-21.0294,-64.21407,-0.7790847,0.142297,0.566572,45.6408,4.792792,-18.69922,1008.187
9.399502754,-23.80672,-33.75418,-84.13235,-0.7685471,0.02065017,0.6599426,45.6408,4.792792,-18.69922,1008.187
9.434150696,-17.84797,-20.91103,-84.68393,-0.6931638,-0.104719,0.6900176,44.87466,6.697827,-19.59721,1008.185
9.466323853,-11.27491,-13.74965,-83.51948,-0.5862896,-0.3068949,0.7880916,43.35892,9.38155,-20.04878,1008.183
9.500971794,35.04362,6.846737,-75.67474,-0.5475197,-0.1095916,0.7185025,43.35892,9.38155,-20.04878,1008.181
9.533144951,-12.56495,21.58381,-70.95564,-0.482134,0.07714501,0.7435318,42.58802,12.80543,-21.40051,1008.18
9.567793369,-46.10596,41.82508,-57.59506,-0.4493743,-0.1882143,0.5308867,41.84525,15.11434,-20.51524,1008.18
9.599966049,-43.64874,58.69281,-33.69312,-0.6341538,-0.1974451,0.7884765,41.84525,15.11434,-20.51524,1008.18
9.634614468,-23.49956,53.66208,-22.10987,-0.723704,-0.5002375,0.6152241,41.04551,17.81096,-19.18523,1008.18
9.666787625,-7.711946,46.14559,-9.362171,-0.8754544,-0.3027313,0.6380303,41.52126,20.50512,-16.65034,1008.182
9.701435566,-15.32932,30.34319,-1.578719,-0.8549863,-0.4159387,0.5732821,41.52126,20.50512,-16.65034,1008.182
9.733608723,-9.186275,21.93892,5.162854,-0.8511921,-0.3087429,0.5664184,41.55014,20.53354,-14.41894,1008.182
9.768256664,-16.61936,7.320217,6.87889,-0.801033,-0.3259751,0.5041124,42.31232,21.29076,-13.98025,1008.182
9.800429821,-8.203389,-0.07790934,7.92077,-0.8185169,-0.350957,0.5262415,42.31232,21.29076,-13.98025,1008.18
9.835077763,3.836971,-8.541366,2.527511,-0.7366143,-0.2503342,0.409663,42.32387,21.30213,-13.08768,1008.18
9.867250919,5.065579,-8.186255,-2.252877,-0.7474928,-0.271725,0.4611621,42.32914,20.54555,-12.63768,1008.176
9.901898861,8.628544,-1.557535,3.569391,-0.6460269,-0.2795536,0.5184727,42.31784,20.91531,-13.5321,1008.176
9.934072018,15.26303,6.491627,7.369186,-0.7138217,-0.3275404,0.5461836,42.31784,20.91531,-13.5321,1008.176
9.966245174,-3.473248,22.88588,10.80126,-0.7734191,-0.2321502,0.667062,42.70181,21.29676,-13.08962,1008.175
10.000893116,-5.377591,25.60839,8.962648,-0.8227263,-0.3856236,0.6228769,42.32914,20.54555,-12.63768,1008.173
10.033066273,-20.61233,25.72676,2.956521,-0.9370633,-0.3271986,0.6355114,42.32914,20.54555,-12.63768,1008.173
10.067714214,-5.131869,26.55535,-4.704357,-0.7965702,-0.2665282,0.5999967,42.72441,20.55723,-11.30077,1008.173
10.099887371,13.17439,22.4124,-9.117023,-0.7945665,-0.3520078,0.5313115,43.49762,20.56355,-9.965801,1008.173
10.134535313,30.68206,29.75134,-1.701293,-0.7748796,-0.2329948,0.4935489,43.49762,20.56355,-9.965801,1008.173
10.166708469,18.0274,33.47999,4.61127,-0.7528862,-0.2045052,0.4256166,43.88738,20.95068,-9.077034,1008.173
10.201356888,21.65179,20.57766,16.07194,-0.8946825,-0.3075764,0.5007999,43.50867,19.81265,-9.069518,1008.173
10.233529568,-12.81067,12.5285,29.43252,-1.056757,-0.1922955,0.5543546,43.50867,19.81265,-9.069518,1008.172
10.268177986,-50.95896,-27.12546,42.48665,-0.8979723,-0.3546849,0.3061965,44.27007,19.42647,-8.625245,1008.172
10.300351143,-58.76062,-35.76647,61.91464,-0.8594211,-0.2577167,0.3172401,44.65245,18.6637,-8.240931,1008.172
10.334999085,-41.31438,-33.33989,64.97898,-0.5039727,-0.577274,0.1449991,44.65245,18.6637,-8.240931,1008.172
10.367172241,31.05064,-14.45987,79.44272,-0.7819153,-0.1235255,0.6487569,45.02466,17.51006,-8.619809,1008.172
10.401820183,-37.25998,-4.516786,73.55917,-0.6177748,-0.1825062,0.4071853,45.76166,15.19547,-9.951353,1008.172
10.433993340,-69.51094,23.06343,66.57244,-0.6858707,0.09058221,0.5922678,45.76166,15.19547,-9.951353,1008.172
10.466166973,-101.9462,21.70218,59.09544,-0.6270398,-0.1264721,0.5552255,47.2774,12.51175,-9.499783,1008.172
10.500814438,-7.281934,32.53303,53.51831,-0.7740536,-0.08322955,0.4031959,47.67582,9.860371,-7.767324,1008.176
10.532987595,2.17835,38.33316,46.10258,-1.072013,0.08657055,0.5784859,47.67582,9.860371,-7.767324,1008.174
10.567635536,4.574136,49.04565,29.92281,-0.8592138,0.0585391,0.4793873,48.82043,8.712234,-6.874982,1008.172
10.599808693,-13.54784,67.62975,9.269084,-0.9961129,0.05221079,0.4516925,48.84199,6.448173,-5.078695,1008.17
10.634456635,-20.18232,80.29533,-5.868811,-1.035907,-0.03290577,0.4031622,48.84199,6.448173,-5.078695,1008.169
10.666629791,-23.80672,90.53434,-8.56544,-0.9218525,-0.08143306,0.3520519,49.25357,4.952379,-2.395502,1008.169
10.701277733,-4.333274,100.2407,0.9953359,-0.9042397,-0.09881318,0.2495604,48.91634,5.378675,0.7285347,1008.167
10.733450890,-7.220503,99.58965,6.817603,-1.032269,-0.1312197,0.2447039,48.91634,5.378675,0.7285347,1008.167
10.768098831,9.427139,92.01397,11.29156,-1.11658,-0.09967554,0.1266968,49.35701,5.435029,5.571932,1008.171
10.800271988,0.6425897,88.3445,11.84314,-1.131706,-0.07880492,0.116888,48.6471,5.110111,9.147907,1008.171
10.834920883,0.8268809,82.13007,14.72363,-1.119639,-0.1050243,-0.002494628,48.6471,5.110111,9.147907,1008.171
10.867094040,4.451275,76.68505,20.5459,-1.067815,-0.04132501,-0.08005497,47.5529,5.165198,12.21392,1008.171
10.901741981,-0.03314489,72.95639,27.65519,-1.019113,-0.05571661,-0.02664411,46.45876,4.077698,15.34927,1008.171
10.933915138,1.256894,66.80116,29.30994,-1.007178,0.02522128,-0.09742415,46.45876,4.077698,15.34927,1008.169
10.968563080,-6.114756,63.30924,31.20984,-1.011539,-0.003222221,-0.1381059,44.98693,3.376699,18.48469,1008.169
11.000736237,4.389845,61.71125,31.27113,-0.9528543,0.07203776,-0.159723,43.88618,2.282701,21.11,1008.169
11.032909393,4.881288,62.3031,39.9126,-0.8665615,0.03091417,-0.1497812,42.39647,0.7388582,22.91061,1008.169
11.067557335,12.86724,65.4399,55.35693,-0.9578406,-0.01697408,-0.1874023,42.39647,0.7388582,22.91061,1008.167
11.099730492,22.75754,64.37457,66.69501,-1.052547,0.03524351,-0.274776,41.22752,-0.7402511,25.15558,1008.167
11.134378433,18.27312,59.10711,63.50809,-1.228335,0.1052033,-0.3795628,39.73759,-2.601705,26.95774,1008.167
11.166551590,26.38193,46.26396,47.51219,-1.35483,0.2387179,-0.4563297,39.73759,-2.601705,26.95774,1008.171
11.201199532,33.13928,23.95121,12.82373,-1.275173,0.3197032,-0.5402732,38.24842,-3.319758,28.75432,1008.171
11.233372688,45.54822,5.248742,-12.0588,-1.249006,0.2907616,-0.3739842,35.99652,-4.414706,30.0466,1008.17
11.268020630,45.05678,-21.97636,-39.27024,-1.159667,0.1379897,-0.2377435,35.99652,-4.414706,30.0466,1008.168
11.300193787,59.98437,-41.09312,-38.0445,-1.157593,0.2115179,-0.1426847,35.63091,-3.254567,30.93551,1008.168
11.334842205,36.39509,-63.46506,-29.95461,-1.018673,0.1802185,-0.146649,35.24296,-0.973767,30.03372,1008.168
11.367014885,3.222667,-80.80627,-22.10987,-0.9501105,0.04377143,-0.1098537,35.24296,-0.973767,30.03372,1008.168
11.401663303,-24.29816,-88.85543,-24.00977,-0.9190439,-0.06771734,-0.1337167,35.61201,1.741763,29.18964,1008.166
11.433836460,-36.46138,-95.66171,-27.99343,-0.8904371,-0.1076437,-0.1945627,36.70615,2.829264,26.05429,1008.166
11.468484402,-7.896238,-83.4696,-21.31314,-0.8818802,0.006786776,-0.393247,36.70615,2.829264,26.05429,1008.164
11.500657559,-29.27402,-65.89165,-11.32336,-0.8431763,0.2160819,-0.4183926,38.19506,3.166184,24.25957,1008.164
11.532830715,-105.4477,-60.09151,-7.952569,-0.8272914,0.2983063,-0.1937332,39.67241,3.491735,21.5723,1008.163
11.567478657,-152.5034,-68.02231,-4.520496,-0.8940565,0.1845606,-0.0696921,39.67241,3.491735,21.5723,1008.163
11.599651814,-174.1269,-72.10607,-6.481681,-0.9666915,0.2028831,-0.06934529,40.7779,3.066884,19.40071,1008.167
11.634299755,-235.2502,-78.08376,-19.84225,-0.8712556,0.171305,-0.1374941,41.50857,-0.07918334,17.62691,1008.165
11.666472912,-289.2475,-66.60187,-35.6543,-0.8124256,0.113753,-0.1356255,41.50857,-0.07918334,17.62691,1008.165
11.701120854,-321.9899,-50.50354,-47.78913,-0.7432945,0.03105297,-0.1152624,42.66891,-2.798227,14.95613,1008.163
11.733294010,-302.0251,-40.3829,-54.40813,-0.7424331,-0.1131597,-0.05910135,43.76074,-5.140928,11.83753,1008.163
11.767941952,-224.1313,-34.70114,-53.18239,-0.7567587,-0.340004,-0.02806183,43.76074,-5.140928,11.83753,1008.159
11.800115109,-121.4811,-30.67656,-41.59914,-0.7911055,-0.3656711,0.020247,44.47019,-6.720866,8.334612,1008.158
11.834763050,-41.25295,-24.75806,-28.05471,-0.7672441,-0.3436288,0.06165802,45.19769,-5.99776,6.095619,1008.156
11.866936207,-5.25473,-19.8457,-19.35196,-0.8238948,-0.2951048,0.1493466,45.19769,-5.99776,6.095619,1008.158
11.901584625,-70.92384,-17.06401,-19.53582,-0.8971668,-0.07258993,0.3817784,45.1801,-6.395948,4.758638,1008.157
11.933758259,-112.8194,-17.12319,-14.32642,-0.8766175,-0.2857476,0.2588476,45.16906,-5.645051,3.862356,1008.157
11.968405724,-88.80009,-14.10476,-2.80446,-0.8660945,-0.2951075,0.1217843,46.29209,-4.529126,2.95841,1008.157
12.000578880,-59.68208,-10.3761,2.77266,-0.889306,-0.4194843,0.0910916,46.29209,-4.529126,2.95841,1008.153
12.035226822,7.522796,-1.912645,10.73997,-0.8855417,-0.5158609,0.1211099,46.2745,-4.927314,1.621429,1008.151
12.067399979,69.81323,1.638456,14.53977,-0.9400316,-0.4516453,0.1679377,46.65771,-5.689264,2.069498,1008.15
12.099573612,103.5385,-3.74738,8.594927,-0.9744914,-0.4164853,0.1733691,46.65771,-5.689264,2.069498,1008.15
12.134221077,127.3735,-6.114781,0.9953359,-1.044695,-0.3634031,0.2139857,45.14621,-5.286657,2.075373,1008.15
12.166394711,129.6465,-8.837291,-7.462273,-1.075417,-0.2636153,0.1683411,45.52992,-5.286341,2.51972,1008.148
12.201042175,107.1015,-7.120926,-15.06186,-1.008544,-0.1860773,0.1326884,45.52992,-5.286341,2.51972,1008.146
12.233215809,95.98259,-6.351521,-16.83919,-0.9601083,-0.1673821,0.1964965,45.90761,-5.672843,2.519648,1008.15
12.267863274,77.92205,-6.765816,-18.92295,-0.9513716,-0.1409097,0.2361572,46.28028,-4.921629,2.067711,1008.15
12.300036907,58.57147,-6.943371,-14.69414,-0.9437375,-0.1411438,0.27368,46.28028,-4.921629,2.067711,1008.148
12.334684372,35.96508,-5.463746,-8.99445,-0.940286,-0.1256543,0.2704014,45.52543,-3.386358,2.064135,1008.145
12.366858006,15.44732,-4.280046,-5.930098,-0.927685,-0.1161249,0.2554204,45.90941,-3.004908,2.506622,1008.145
12.401506424,4.021263,-2.622865,-1.823867,-0.918998,-0.1423694,0.256569,45.90941,-3.004908,2.506622,1008.143
12.433679581,-2.736083,-2.149385,4.182261,-0.9018327,-0.1331887,0.2622685,45.90966,-2.623775,2.504761,1008.143
12.468327522,-16.37363,-1.675905,7.49176,-0.9319211,-0.1382055,0.2846799,46.28208,-2.253695,2.054686,1008.143
12.500500679,-34.12703,-3.924935,10.6174,-0.9373445,-0.1575721,0.2874629,46.28208,-2.253695,2.054686,1008.141
12.535148621,-47.33456,-3.2739,11.96571,-0.9291981,-0.1857963,0.2832982,45.52594,-2.624091,2.060413,1008.141
12.567321777,-50.40609,-2.267755,10.80126,-0.9201218,-0.2309921,0.2818769,45.51965,-3.392043,1.617853,1008.141
12.599494934,-42.42013,-1.912645,9.636806,-0.9310322,-0.2557596,0.2730985,45.51965,-3.392043,1.617853,1008.141
12.634142876,-33.94273,-2.977975,7.553048,-0.9326175,-0.2655339,0.2633927,45.51939,-3.773176,1.619715,1008.141
12.666316033,-28.96687,-3.51064,4.978992,-0.9233281,-0.2650805,0.2652378,45.51939,-3.773176,1.619715,1008.141
12.700963974,-26.01821,-3.2739,2.037215,-0.920783,-0.2601613,0.2753766,45.51939,-3.773176,1.619715,1008.14
12.733137131,-23.31527,-3.333085,0.2598915,-0.9325402,-0.2673979,0.2734986,46.27476,-4.54618,1.619568,1008.138
12.767785073,-15.32932,-4.161675,-0.5981268,-0.9477572,-0.285296,0.2715651,45.88609,-4.551369,0.792696,1008.138
12.799958229,-4.824717,-4.635156,-0.7819878,-0.9194218,-0.2781541,0.2718416,45.88609,-4.551369,0.792696,1008.138
12.834606171,4.819858,-3.096345,-1.027136,-0.9163936,-0.2558334,0.2729613,46.25851,-4.181289,0.3426208,1008.138
12.866779327,14.95588,-2.44531,-1.272284,-0.9221698,-0.2571824,0.2831261,45.49659,-4.557371,-0.09793091,1008.142
12.901427746,19.13314,-0.2554644,-0.1691176,-0.9201254,-0.2387325,0.2851871,45.49659,-4.557371,-0.09793091,1008.143
12.933600903,18.39598,2.407861,1.73078,-0.9392419,-0.2184052,0.2652891,45.88609,-4.551369,0.792696,1008.143
12.968248844,10.9629,4.360967,4.120974,-0.9201252,-0.2034318,0.2681262,46.26403,-4.556738,0.7907619,1008.143
13.000422001,9.795722,8.563103,6.204733,-0.9490353,-0.2227393,0.2634167,46.26403,-4.556738,0.7907619,1008.143
13.035069942,14.52586,12.1142,8.043344,-0.9569192,-0.2343753,0.2600204,46.26377,-4.937871,0.7926235,1008.142
13.067243099,28.40914,13.47546,10.06581,-0.9271134,-0.2364226,0.2655094,45.89104,-4.546497,1.175222,1008.142
13.101891041,54.08705,15.13264,12.45601,-0.9326813,-0.1766527,0.2708741,45.51862,-4.916576,1.625296,1008.14
13.134064198,48.31259,18.447,20.17817,-0.8756647,-0.0464816,0.2564732,45.51862,-4.916576,1.625296,1008.14
13.166237354,3.406958,17.32248,30.22925,-0.8482031,0.02310106,0.2967965,46.28606,-4.915944,2.513992,1008.14
13.200885296,-30.01119,11.22643,35.43864,-0.834067,-0.1127917,0.2444524,45.91942,-5.280339,3.410347,1008.138
13.233058453,-5.930464,15.13264,40.03517,-0.829267,-0.1786167,0.208679,45.91942,-5.280339,3.410347,1008.136
13.267706394,16.06162,4.952816,39.05458,-0.8405172,-0.1689509,0.2589916,45.54623,-6.793821,3.866003,1008.136
13.299879551,83.02077,8.089622,36.48052,-0.7537723,-0.2173257,0.2100654,45.17278,-8.688435,4.323523,1008.136
13.334528446,141.5025,14.8959,33.60003,-0.7770833,-0.006791666,0.1797246,45.17278,-8.688435,4.323523,1008.139
13.366700649,135.5438,11.64072,28.39064,-0.8101699,0.09742869,0.1408866,45.18382,-9.439331,5.219805,1008.139
13.401349545,128.9707,9.983543,28.94222,-0.8066496,0.09322926,0.03911723,44.0613,-9.79299,6.120029,1008.139
13.433522701,135.6052,17.44086,29.92281,-0.8441396,0.1486206,0.02257172,44.0613,-9.79299,6.120029,1008.139
13.468170166,126.4521,26.67372,37.39983,-0.830458,0.15493,-0.09462979,44.84607,-9.775301,8.347565,1008.139
13.500343800,126.6978,39.16175,36.6031,-0.8719391,0.2280414,0.04421185,44.1133,-9.741825,10.13655,1008.139
13.534991264,86.52231,42.77204,39.97388,-0.9199671,0.3150606,0.09405934,44.1133,-9.741825,10.13655,1008.139
13.567164898,46.7154,42.77204,38.38042,-0.9677447,0.2592832,0.06849935,43.3792,-10.47143,11.86551,1008.139
13.601812363,26.25907,41.64753,33.53875,-0.9766098,0.1224402,0.06697193,43.02437,-10.44332,13.65257,1008.139
13.633985996,35.22791,46.02722,26.91975,-0.9556535,0.0929255,-0.09638276,43.02437,-10.44332,13.65257,1008.139
13.666159153,46.7154,32.53303,13.00759,-1.100948,0.1356852,0.1309013,42.29687,-11.16643,15.89156,1008.14
13.700807095,-129.7742,-5.937226,-39.76053,-1.222072,0.483023,0.5320625,41.93023,-11.53082,16.78791,1008.142
13.732980251,-89.47583,-25.70502,-30.07718,-0.8272019,-0.3272759,0.003548369,41.93023,-11.53082,16.78791,1008.142
13.767628670,12.80581,-28.5459,-17.75849,-0.9841922,0.4374128,0.05758935,41.46669,-10.78503,15.00133,1008.142
13.799801350,-65.27225,-43.87482,-19.22938,-1.077355,0.1970986,0.1793873,43.02912,-11.96217,14.10629,1008.144
13.834449768,-11.33634,-41.15231,-35.59302,-1.193418,-0.05512127,0.2531009,43.02912,-11.96217,14.10629,1008.15
13.866622925,8.812835,-45.82792,-48.83101,-1.366413,0.1065794,0.08783042,44.12904,-10.86898,11.41722,1008.15
13.901270866,6.66277,-69.56112,-51.15992,-1.284623,0.184223,0.2014592,45.24578,-10.52101,10.07072,1008.15
13.933444023,-19.26086,-86.6064,-56.18546,-1.192354,0.1175509,0.2381266,45.24578,-10.52101,10.07072,1008.15
13.968091965,-12.13494,-95.78008,-59.24981,-1.033239,-0.01954217,0.2494896,46.71369,-8.30035,6.54533,1008.152
14.000265121,-34.92562,-98.79852,-56.30803,-0.9528089,0.02874256,0.3315591,47.80257,-6.456267,2.959978,1008.152
14.034913063,-49.30033,-91.40039,-53.12111,-0.8691739,-0.08610692,0.4093618,47.80257,-6.456267,2.959978,1008.152
14.067086220,-54.8905,-81.39812,-42.94746,-0.8945604,-0.1536903,0.4408535,48.51484,-3.843737,-0.5634041,1008.152
14.101734161,-58.82205,-69.85704,-32.77381,-0.9053863,-0.2122681,0.5166275,48.84811,-1.607783,-4.146749,1008.152
14.133907318,-21.53379,-54.88323,-21.37443,-0.8904786,-0.1502004,0.518446,48.84811,-1.607783,-4.146749,1008.153
14.168555737,-26.2025,-52.04235,-19.29067,-0.8516548,-0.1738391,0.5622329,48.43126,0.6445922,-7.279943,1008.153
14.200728416,-7.589086,-40.50127,-18.24879,-0.7863562,-0.2158351,0.5713994,48.03236,2.597223,-9.008991,1008.153
14.232901573,7.399935,-31.03167,-25.72581,-0.7656099,-0.1422066,0.5655468,48.03236,2.597223,-9.008991,1008.153
14.267549992,18.76456,-19.43141,-31.60936,-0.7384747,-0.1168882,0.5303164,47.25363,2.966354,-10.79211,1008.153
14.299723148,7.277074,-15.22927,-40.49598,-0.7663383,-0.09603751,0.5726822,47.23707,4.0927,-12.13653,1008.153
14.334371090,2.055489,-14.28231,-51.28249,-0.7607496,-0.2355401,0.5502719,46.47593,4.860019,-12.58266,1008.153
14.366544247,16.73736,-14.93335,-49.62774,-0.7479756,-0.1929707,0.5398998,46.47593,4.860019,-12.58266,1008.159
14.401192188,-15.51361,-25.70502,-51.46635,-0.7648921,-0.2183666,0.5716602,46.47143,6.760002,-13.03825,1008.157
14.433365345,-19.138,-24.93562,-43.80548,-0.6907423,-0.3531528,0.5756412,46.46091,8.273166,-13.93825,1008.157
14.468013287,-8.32625,-27.59894,-35.6543,-0.7224406,-0.3704217,0.6447204,46.46091,8.273166,-13.93825,1008.157
14.500186443,-3.166096,-29.84797,-30.38362,-0.7038563,-0.398524,0.6631134,45.31733,10.94584,-14.83804,1008.157
14.534834385,-13.91642,-26.00094,-22.17116,-0.7053245,-0.3197362,0.6825745,44.55067,12.0886,-15.73231,1008.157
14.567007542,-32.09982,-22.80495,-25.2968,-0.6517726,-0.3389778,0.6766142,44.55067,12.0886,-15.73231,1008.159
14.601656437,-38.98003,-15.5252,-27.74828,-0.6000499,-0.400615,0.6476675,44.16195,13.226,-16.62852,1008.159
14.633829594,-13.42497,-9.133216,-33.14154,-0.6324136,-0.3976955,0.6277495,43.78503,14.75591,-16.63403,1008.159
14.668477535,-7.527655,-4.280046,-46.44082,-0.6534103,-0.5387679,0.6364225,43.78503,14.75591,-16.63403,1008.159
14.700650692,43.70531,5.307927,-50.42448,-0.6401507,-0.4981747,0.6848333,43.01971,16.66175,-17.46828,1008.161
14.732823849,73.74478,7.971252,-67.40099,-0.6819937,-0.4505006,0.7347807,42.2646,17.81589,-17.46999,1008.161
14.767471790,87.07518,16.25715,-90.44491,-0.605102,-0.356892,0.8384649,42.2646,17.81589,-17.46999,1008.163
14.799644947,68.21604,-2.80042,-96.69618,-0.5410342,-0.245452,0.9173517,41.49876,18.95947,-18.30051,1008.163
14.834292889,80.87071,-24.93562,-98.35094,-0.4420825,-0.408487,0.9247243,39.90746,20.10818,-19.63688,1008.164
14.866466045,94.3854,-28.84183,-85.97095,-0.4165166,-0.2358058,0.8637314,39.90746,20.10818,-19.63688,1008.166
14.901113987,62.50301,-36.53588,-79.35196,-0.4441132,-0.09471254,0.7634501,37.62377,22.02901,-20.97342,1008.166
14.933287144,33.63072,-26.11931,-81.19057,-0.3846637,-0.2767962,0.6669225,35.32224,23.17051,-23.64508,1008.17
14.967935085,26.07478,-0.3738344,-74.449,-0.3910604,-0.3308976,0.5706183,35.32224,23.17051,-23.64508,1008.17
15.000108242,9.857152,18.8613,-86.95155,-0.3711935,-0.4529097,0.496645,33.03778,23.94793,-24.97604,1008.17
15.034756660,19.99317,38.27398,-101.1088,-0.3265382,-0.6448818,0.6190016,30.76565,25.88013,-25.42002,1008.168
15.066929817,63.85449,43.12715,-113.4275,-0.3440441,-0.6598411,0.8079854,30.76565,25.88013,-25.42002,1008.17
15.101577759,73.86765,30.99422,-115.3887,-0.2817085,-0.5138581,0.8963313,28.8825,27.05606,-24.96966,1008.17
15.133750916,43.33673,19.09804,-109.3826,-0.290568,-0.4108829,0.8374949,26.60408,28.2203,-25.8562,1008.17
15.168398857,23.86329,15.54694,-100.7411,-0.2870091,-0.5257472,0.7357768,26.60408,28.2203,-25.8562,1008.17
15.200572014,15.93876,13.17953,-99.88311,-0.3329862,-0.5705874,0.7449942,24.70912,29.00372,-26.29653,1008.17
15.235219955,20.54604,11.52235,-98.90252,-0.2924243,-0.5862097,0.7594289,22.05914,29.86222,-26.66955,1008.17
15.267393112,18.15026,4.597706,-95.47044,-0.3347948,-0.5104848,0.7329745,19.79171,31.41815,-26.72914,1008.17
15.299566269,-34.43418,-2.20857,-87.93214,-0.3263911,-0.4161693,0.7582556,19.79171,31.41815,-26.72914,1008.168
15.334214211,-29.15116,-12.03328,-64.45921,-0.1864491,-0.7032026,0.8254375,17.14195,32.59426,-27.10371,1008.168
15.366387367,18.88742,-40.7972,-46.44082,-0.1717023,-0.7668971,0.6946349,14.88004,33.77475,-26.71517,1008.168
15.401035786,37.07082,-59.7364,-24.43878,-0.1766425,-0.7984717,0.8770984,14.88004,33.77475,-26.71517,1008.168
15.433209419,77.06203,-76.36739,-16.22632,-0.1099135,-0.677134,0.9194101,12.5442,33.42184,-27.08391,1008.168
15.467856884,39.77376,-72.04689,-5.378514,-0.1010155,-0.3000768,1.041007,10.24215,33.80108,-29.75185,1008.17
15.500030518,-25.95678,-63.7018,-2.927034,-0.1217244,-0.1658114,1.066889,10.24215,33.80108,-29.75185,1008.17
15.534677982,-83.82423,-51.27295,12.82373,-0.02721511,-0.344716,0.9016169,7.949859,31.52375,-31.5142,1008.17
15.566851139,-111.7751,-35.76647,16.01066,0.07798742,-0.5406378,0.7394782,6.461726,32.33023,-29.72507,1008.17
15.601499081,-60.35781,-23.57436,12.57858,0.06959049,-0.698332,0.8038085,6.461726,32.33023,-29.72507,1008.168
15.633672238,-36.27709,-15.34764,0.6889007,0.04455936,-0.6335405,0.7554123,5.347041,35.03132,-28.39345,1008.17
15.668320179,-60.29638,-16.11705,-1.456145,0.0922834,-0.4903231,0.7903696,5.003716,36.21339,-25.78317,1008.174
15.700493336,-66.00941,-21.85799,-3.907626,-0.0004969328,-0.6740835,0.7559804,5.003716,36.21339,-25.78317,1008.174
15.735142231,-57.59344,-31.91945,-7.033264,0.1496136,-0.6633987,0.7276758,4.649146,36.62263,-23.99797,1008.172
15.767314434,-55.38195,-22.92332,-4.949505,0.1622744,-0.7736654,0.6615787,5.423131,37.77235,-22.66858,1008.172
15.799488068,-24.11387,-11.02714,-5.501089,0.1257879,-0.9159215,0.5696486,5.423131,37.77235,-22.66858,1008.171
15.834136486,-8.203389,-7.061741,-6.29782,0.07971126,-0.6834704,0.7233427,4.318719,38.57914,-20.4351,1008.171
15.866309643,-14.16214,-5.522931,-6.359107,0.1465324,-0.7118431,0.6747673,3.935771,39.72223,-20.88503,1008.171
15.900957584,-4.886147,0.4547558,-2.130302,0.1120373,-0.770974,0.6635157,3.935771,39.72223,-20.88503,1008.171
15.933130741,1.932628,3.236451,-3.294756,0.1064533,-0.7880687,0.646075,3.581201,40.13147,-19.09983,1008.171
15.967778683,11.82293,6.077332,-1.578719,0.05189707,-0.7306459,0.6301874,3.203261,40.13684,-19.0979,1008.175
15.999951839,24.35473,7.556957,-0.04654358,0.098009,-0.7403265,0.6634173,3.203261,40.13684,-19.0979,1008.176
16.034599781,33.56929,9.214138,1.11791,0.04898798,-0.7461258,0.6980488,3.575423,40.12579,-19.54611,1008.176
16.066772938,34.85933,8.385548,2.833946,0.06614267,-0.6567197,0.7217618,3.558089,40.10873,-20.88495,1008.176
16.101420879,25.64477,4.952816,2.956521,0.07644995,-0.6431766,0.7222592,3.558089,40.10873,-20.88495,1008.176
16.133594036,21.83608,4.656891,4.059687,0.07321519,-0.6454127,0.744925,3.162044,38.95364,-22.21628,1008.176
16.168242455,24.41616,0.5731258,4.488697,0.03683804,-0.6459957,0.7717696,3.53369,38.18032,-22.66077,1008.176
16.200415611,7.829948,0.5139408,1.424345,0.02186276,-0.6167304,0.7176846,3.53369,38.18032,-22.66077,1008.176
16.267236710,14.64872,-10.61284,-10.83306,0.1038897,-0.6939852,0.7601443,4.26068,38.14116,-24.89604,1008.176
16.301884651,20.79177,-8.186255,-11.50722,0.06149253,-0.6139324,0.7284239,3.504285,37.38964,-24.88845,1008.175
16.334057808,33.9993,-11.50062,-12.97811,0.04341105,-0.6071334,0.7802227,3.504285,37.38964,-24.88845,1008.175
16.366230965,24.72331,-15.1109,-13.28454,0.103425,-0.4977446,0.8422604,3.86489,37.36721,-26.22923,1008.175
16.400878906,-0.647449,-12.15165,-13.22325,0.1444456,-0.598913,0.7783837,2.34163,36.23473,-27.04472,1008.175
16.433052063,8.997127,-5.463746,-8.075144,0.2302261,-0.6346995,0.7247502,2.34163,36.23473,-27.04472,1008.175
16.467700005,23.86329,2.703786,3.38553,0.1833605,-0.496741,0.7721149,1.958169,36.61554,-27.49092,1008.175
16.499873161,3.898402,21.40625,16.99125,0.1354888,-0.4061946,0.8388599,1.201776,35.86401,-27.48334,1008.173
16.534522057,-33.20557,7.497772,3.201669,-0.02662444,-0.5191562,0.9401792,1.201776,35.86401,-27.48334,1008.173
16.566695213,-39.04146,2.111936,-4.0302,0.09139099,-0.7498068,0.7516068,2.713021,35.08027,-27.48735,1008.177
16.601342678,-16.18934,-0.7289445,-8.136431,0.1488228,-0.7004229,0.7095441,2.347409,36.24041,-26.59844,1008.177
16.633516312,-2.613222,4.834446,-7.584847,0.09223669,-0.6740471,0.7575254,2.347409,36.24041,-26.59844,1008.177
16.668163777,7.522796,6.314072,-4.704357,0.1251221,-0.5928347,0.798858,2.736852,37.389,-25.77715,1008.175
16.700337410,-3.043235,5.544667,-4.581783,0.07206051,-0.6136922,0.7664053,2.358397,36.6321,-25.77149,1008.175
16.734984875,11.94579,3.828301,-7.400986,0.1218317,-0.6521451,0.7844219,2.358397,36.6321,-25.77149,1008.175
16.767158508,7.215644,3.354821,-9.975041,0.06137416,-0.6199176,0.8334516,1.974935,37.01292,-26.2177,1008.173
16.801805973,-3.596109,-2.91879,-32.46738,0.080892,-0.6770026,0.7445929,1.969211,35.86464,-26.59464,1008.173
16.833979607,-0.03314489,-1.37998,-37.92192,0.08546744,-0.6971675,0.7761959,1.969211,35.86464,-26.59464,1008.173
16.866152763,-23.43813,-2.741235,-39.39281,0.1091414,-0.5824505,0.7504109,1.218541,36.26139,-26.21011,1008.172
16.900801182,-16.74222,4.420151,-29.28045,0.2107648,-0.6428074,0.7937909,0.468442,36.27781,-25.75996,1008.172
16.932974339,3.529819,1.697641,-16.41018,0.1815659,-0.5526821,0.8179424,0.468442,36.27781,-25.75996,1008.17
16.967622280,-5.25473,-1.49835,-7.52356,0.2250632,-0.5185046,0.8091422,-1.036767,37.44837,-25.31153,1008.17
16.999795437,-21.9638,2.703786,-1.14971,0.1466907,-0.534825,0.782265,-1.414707,37.45374,-25.30959,1008.168
17.034443378,-19.38373,1.046606,-6.481681,0.2051369,-0.7372385,0.692327,-1.414707,37.45374,-25.30959,1008.168
17.066616535,9.672861,10.57539,-5.868811,0.1293971,-0.6808977,0.7113323,-2.158772,37.85698,-24.41503,1008.166
17.101264477,9.672861,7.142662,-8.688014,0.1599244,-0.5671995,0.7466887,-2.158516,38.23811,-24.41689,1008.164
17.133437634,-3.534678,8.563103,-5.562376,0.1554149,-0.5736084,0.7939139,-2.158516,38.23811,-24.41689,1008.164
17.168085575,-8.940555,6.905922,-5.133366,0.1611904,-0.6307344,0.7538651,-1.408671,37.84056,-24.86517,1008.164
17.200258732,-5.25473,8.681473,-4.397922,0.2031076,-0.6276037,0.7462698,-2.536969,37.48122,-24.41123,1008.164
17.234907150,-0.8931707,8.799843,-2.865747,0.1392391,-0.6407726,0.7597712,-2.536969,37.48122,-24.41123,1008.164
17.267080307,1.134033,7.852882,-3.233469,0.1134464,-0.6367111,0.7663113,-2.158772,37.85698,-24.41503,1008.164
17.301728249,0.396868,4.952816,-5.562376,0.08670285,-0.6471288,0.782863,-1.780576,38.23275,-24.41882,1008.163
17.333901405,4.082693,-1.557535,-9.546032,0.1462925,-0.6135253,0.772944,-1.780576,38.23275,-24.41882,1008.163
17.368549347,-0.2788665,-0.5513894,-9.17831,0.1521477,-0.536705,0.7937667,-2.153253,37.48153,-23.96688,1008.163
17.400722504,-19.62945,-4.22086,-15.24573,0.1470982,-0.6223892,0.7569574,-1.780576,38.23275,-24.41882,1008.163
17.432895661,-15.32932,-3.451455,-19.65839,0.2094702,-0.6455103,0.7571488,-1.780576,38.23275,-24.41882,1008.165
17.467543602,-20.12089,4.775261,-21.43571,0.2609885,-0.6532108,0.7358786,-2.530678,38.24916,-23.96867,1008.165
17.499716759,-21.84094,10.69376,-24.74521,0.247894,-0.7366542,0.6697609,-3.280779,38.26559,-23.51852,1008.165
17.534365654,5.679883,23.06343,-21.68086,0.2185219,-0.6374984,0.6689245,-4.024587,39.04996,-22.62582,1008.167
17.566537857,-4.333274,29.15949,-19.22938,0.181936,-0.5754448,0.6986974,-4.024587,39.04996,-22.62582,1008.165
17.601186752,-4.578995,43.48226,-10.1589,0.300048,-0.7331008,0.6606275,-4.408562,38.66851,-23.0683,1008.165
17.633359909,10.47146,63.30924,-3.968913,0.3138483,-0.8335895,0.6673824,-4.024587,39.04996,-22.62582,1008.167
17.668007851,51.19982,75.08705,-2.069015,0.2346416,-0.7125919,0.8233588,-4.024587,39.04996,-22.62582,1008.167
17.700181008,13.05153,55.91111,-15.42959,0.3436148,-0.6294129,0.9170176,-4.036143,39.03859,-23.51838,1008.167
17.734828949,8.628544,46.97418,-25.48066,0.5207956,-0.9134045,0.7101013,-2.920173,38.24317,-24.8593,1008.167
17.767002106,95.73687,49.34158,-48.58587,0.3668649,-0.8471063,0.7111201,-2.920173,38.24317,-24.8593,1008.167
17.801650047,68.89178,30.81667,-90.5062,0.4315378,-0.6181298,0.8632703,-2.176106,37.83992,-25.75387,1008.166
17.833823204,52.24414,24.60224,-96.51232,0.3430332,-0.4877352,0.7210532,-2.9666,36.67397,-28.35835,1008.166
17.868471622,80.01068,23.77365,-94.91886,0.2977537,-0.542542,0.7600659,-2.9666,36.67397,-28.35835,1008.166
17.900644779,95.73687,16.49389,-82.35503,0.1480566,-0.4223246,0.8323437,-6.014259,35.16964,-30.12056,1008.164
17.932817936,26.87337,3.709931,-90.19976,-0.05784004,-0.4957378,0.8727016,-9.067438,34.04076,-32.33091,1008.162
17.967465878,105.0129,7.793697,-72.73296,-0.1321929,-0.628475,0.8578412,-9.067438,34.04076,-32.33091,1008.16
17.999639034,112.4459,-3.98412,-67.15584,-0.2254115,-0.2636733,1.086812,-12.11587,31.39303,-34.08753,1008.16
18.034286976,83.94223,-35.17462,-39.94439,-0.4349003,-0.2953088,1.31842,-14.79135,28.67155,-36.22831,1008.16
18.066460133,157.9044,-44.28911,-21.497,-0.3654433,-0.1026342,0.605037,-14.79135,28.67155,-36.22831,1008.159
18.101108074,35.59649,-43.87482,-32.52866,-0.3076336,-0.03025377,0.7130621,-17.14767,24.87058,-37.98289,1008.159
18.133281231,36.64081,-29.84797,-20.82284,-0.3669108,0.07993468,0.8649076,-19.42943,21.08008,-38.84525,1008.163
18.167929649,2.854085,-41.09312,-16.16503,0.07260983,0.08664168,1.073905,-19.42943,21.08008,-38.84525,1008.163
18.200102329,-19.50659,-31.50515,-25.72581,0.5136314,-0.042842,1.120779,-21.32594,19.57671,-39.27441,1008.164
18.234750748,15.07874,-20.08244,-24.37749,0.6054499,-0.07075505,1.084988,-23.19933,18.09607,-37.91846,1008.164
18.266923904,45.11821,-5.878041,-19.16809,0.4899923,0.1171398,1.017724,-23.19933,18.09607,-37.91846,1008.164
18.301571846,-4.394704,-5.404561,-11.44593,0.2456361,0.3346267,0.9282895,-24.33918,17.72536,-38.35708,1008.164
18.333745003,-88.80009,-11.02714,-0.3529787,0.2549514,0.2722772,0.9055166,-24.71815,16.20619,-38.3477,1008.164
18.368392944,-138.8044,-16.47216,17.42026,0.3442033,0.03930251,0.8376932,-24.71815,16.20619,-38.3477,1008.164
18.400566101,-124.8597,-11.44143,29.24865,0.3759331,-0.276058,0.8752851,-25.09006,16.59838,-37.90135,1008.164
18.435214043,-61.27927,-3.096345,37.0321,0.4517032,-0.5058604,0.7695358,-25.04761,20.82983,-34.86161,1008.164
18.467387200,0.08971594,19.21641,55.23435,0.4192715,-0.2095137,0.6575656,-24.63846,24.28309,-32.64888,1008.167
18.499560833,-36.33852,34.60451,43.89625,0.3553493,-0.197065,0.5941587,-24.63846,24.28309,-32.64888,1008.167
18.534209252,-73.19677,45.55374,27.83905,0.2565362,-0.5376709,0.6727667,-23.12542,26.16728,-32.66592,1008.167
18.566382408,3.65268,56.79889,20.17817,0.2411704,-0.7564227,0.8084766,-21.22814,28.81406,-32.24234,1008.167
18.601030350,101.2656,64.01945,14.60106,0.139309,-0.5726752,0.9675918,-21.22814,28.81406,-32.24234,1008.167
18.633203507,106.6715,57.50911,-1.088423,0.03684624,-0.2425445,1.100445,-19.73924,29.15097,-34.03706,1008.165
18.667851448,71.9633,31.40852,-4.704357,0.1101771,-0.1403837,1.240865,-16.76818,27.15201,-37.99599,1008.165
18.700024605,24.84617,11.58154,-1.272284,0.09468337,0.04162682,1.167318,-16.76818,27.15201,-37.99599,1008.165
18.734672547,-8.387681,5.899777,2.711372,0.1048004,-0.1169669,0.9379306,-16.043,24.44491,-40.21824,1008.163
18.766845703,-5.500452,4.952816,6.020872,0.09796477,-0.2242513,0.9313259,-15.59732,22.9198,-39.76677,1008.163
18.801494122,25.09189,8.385548,4.733844,0.1466607,-0.2661747,0.939202,-15.59732,22.9198,-39.76677,1008.163
18.833667278,36.8251,8.859028,1.424345,0.1530298,-0.1482672,1.001328,-15.23068,23.2842,-40.66313,1008.163
18.868315220,18.76456,14.4816,2.833946,0.133335,-0.117902,1.023934,-16.05558,22.90901,-41.10336,1008.161
18.900488377,2.976945,11.52235,7.982057,0.08075287,-0.1319996,0.987195,-16.05558,22.90901,-41.10336,1008.161
18.935136318,1.134033,7.971252,9.207797,0.06961261,-0.1599149,1.010687,-14.48687,22.49982,-41.55584,1008.163
18.967309475,1.625476,3.650746,8.778788,0.08529947,-0.1845898,1.031063,-14.49316,21.73187,-41.9984,1008.163
18.999482632,4.942719,-2.20857,4.672557,0.08656619,-0.2224949,1.025919,-14.49316,21.73187,-41.9984,1008.165
19.034130573,22.20466,-0.3738344,7.246613,0.1070407,-0.1495597,0.929929,-14.12074,22.10195,-42.44847,1008.165
19.066303730,10.3486,3.118081,16.56224,0.1157986,-0.067495,1.003306,-13.74306,21.71545,-42.44854,1008.163
19.100952625,-10.96776,4.834446,18.1557,0.1500417,-0.06427845,1.127851,-13.74306,21.71545,-42.44854,1008.163
19.133124828,-71.53815,-5.818856,15.58165,0.1342472,-0.09780436,1.239063,-12.98744,21.32358,-42.45055,1008.163
19.167773724,-118.7167,-25.40909,15.39779,0.1447405,-0.2652437,1.058763,-12.98089,22.47266,-42.00985,1008.167
19.199946880,-106.7992,-35.58892,0.3211785,0.1183218,-0.558588,1.018514,-12.98089,22.47266,-42.00985,1008.163
19.234594822,-24.48245,-28.84183,-7.584847,0.1633902,-0.594251,0.7657133,-13.31054,25.57258,-38.45256,1008.167
19.266767979,52.48986,-21.62125,-6.665542,0.1458127,-0.5023319,0.7782031,-13.66306,29.03089,-36.68225,1008.167
19.301415443,68.33891,-8.955661,-5.501089,0.1310446,-0.1848205,0.8416905,-13.66306,29.03089,-36.68225,1008.167
19.333589077,38.48372,-5.108635,-0.04654358,0.1131632,-0.07870794,0.8692421,-15.54672,29.44455,-36.22816,1008.169
19.368236542,49.11119,-1.675905,-2.865747,0.0446881,-0.1698675,0.8368356,-16.38999,27.52777,-37.99979,1008.169
19.400410175,79.02779,-3.333085,-11.01692,-0.00477639,-0.05134674,0.8165842,-16.38999,27.52777,-37.99979,1008.169
19.435058594,77.92205,-3.62901,-40.06697,-0.02932704,-0.02275751,0.6685932,-16.39679,25.99756,-38.43863,1008.169
19.467231751,99.48412,5.307927,-59.12723,0.02514541,-0.08449648,0.5022501,-17.17681,24.46102,-40.21244,1008.169
19.501879692,163.1875,34.07184,-60.47555,0.2259055,-0.006531479,0.5453634,-17.96993,20.62631,-42.86765,1008.169
19.534052849,215.5876,79.40756,-33.87698,0.3070935,0.432496,0.819109,-17.96993,20.62631,-42.86765,1008.169
19.566226006,175.965,88.93635,-10.52662,0.05996726,0.8445711,1.351637,-18.76904,15.2622,-45.89794,1008.169
19.600873947,-35.41706,35.07799,3.753252,-0.1007789,1.296358,1.865371,-15.72889,6.41249,-48.9949,1008.165
19.633047104,-342.0162,-17.41912,-2.927034,-0.006934724,0.260041,1.164283,-15.72889,6.41249,-48.9949,1008.165
19.667695046,-219.7083,-12.09247,10.24968,0.1418393,-0.368427,0.7051162,-13.07433,2.574946,-48.09727,1008.165
19.699868202,-116.5666,-5.049451,6.572455,-0.02222547,-0.4706652,0.6850783,-13.03143,14.80533,-45.47913,1008.165
19.734516621,4.574136,-2.0902,-1.517432,0.1230819,-0.5484917,0.8831106,-13.03143,14.80533,-45.47913,1008.167
19.766689778,70.98042,2.940526,-2.436738,0.07058485,-0.2880689,1.072281,-12.62105,21.30684,-43.34505,1008.165
19.801337719,74.05193,-3.569825,-4.581783,0.04398507,-0.01647257,1.027532,-13.39401,21.68166,-44.68188,1008.165
19.833510876,55.8071,-2.80042,-0.3529787,0.07570156,0.08253603,0.9210489,-13.39401,21.68166,-44.68188,1008.165
19.868158817,23.98615,1.401716,5.162854,0.03027264,0.1542136,0.9972555,-13.02416,18.2404,-45.11335,1008.165
19.900331974,-16.55793,-2.0902,4.366122,0.03043819,0.05426537,1.065356,-13.79206,16.33491,-45.92899,1008.165
19.934979916,-9.493428,-2.622865,2.527511,0.0635448,-0.02665076,0.9790661,-13.79206,16.33491,-45.92899,1008.165
19.967153072,3.038376,-0.5513894,0.9340488,0.05792886,-0.01427685,0.9435526,-13.03066,15.94873,-45.48471,1008.169
20.001801968,0.9497418,0.2180157,-0.2304046,0.04058333,0.06914905,0.9877821,-13.41412,16.32954,-45.93092,1008.169
20.033975124,-19.81374,-1.439165,-1.701293,0.05278938,0.007197252,1.018487,-13.41412,16.32954,-45.93092,1008.169
20.066148281,-19.69088,-2.0902,-1.823867,0.04412057,-0.07627454,1.014506,-14.16974,16.72141,-45.92891,1008.168
20.100796223,-6.913351,-2.622865,-2.37545,0.05216504,-0.09878857,0.9954475,-13.78081,17.10774,-45.1039,1008.168
20.132969379,2.485502,-1.912645,-2.620599,0.06681702,-0.08192532,0.9887018,-13.78081,17.10774,-45.1039,1008.166
20.167617321,7.952809,-1.202425,-1.885154,0.0689516,-0.04066559,0.990468,-13.78577,17.10287,-45.48643,1008.166
20.199790478,7.338505,-1.37998,-1.394858,0.0527869,-0.01549539,0.9710644,-13.40262,17.4835,-45.10769,1008.166
20.234438419,6.355618,-0.3146494,-0.6594138,0.04795171,-0.008660489,0.973094,-13.40262,17.4835,-45.10769,1008.168
20.266611576,8.751405,0.9874209,0.07603047,0.0632102,-0.006198955,0.9874318,-14.5419,16.73247,-45.4807,1008.168
20.301259995,4.819858,1.401716,0.1986045,0.0634634,0.008054803,1.010683,-13.78602,16.72173,-45.48457,1008.166
20.333433151,0.396868,0.5731258,-0.2916917,0.05701284,-0.002165598,1.002947,-13.78602,16.72173,-45.48457,1008.166
20.368081093,-2.613222,-1.02487,-0.7819878,0.04759552,-0.003218946,0.9861561,-14.16422,16.34597,-45.48077,1008.17
20.400254250,-3.71897,-0.9656845,-0.4755528,0.05495394,-0.01337523,0.9956436,-13.41386,16.71068,-45.93278,1008.17
20.434902191,-0.340297,-0.5513894,-0.5368397,0.06751584,-0.03386269,0.9905375,-13.41386,16.71068,-45.93278,1008.172
20.467075348,5.557023,0.2772007,0.1373175,0.06161902,-0.01936371,0.9786621,-13.78107,16.7266,-45.10204,1008.173
20.501723290,4.574136,0.6914958,1.056623,0.06576034,0.02048541,0.987628,-13.40262,17.4835,-45.10769,1008.173
20.533896446,-4.456135,-0.1370943,1.424345,0.04103668,0.0304296,1.002401,-13.40262,17.4835,-45.10769,1008.175
20.566069603,-11.64349,-1.439165,1.546919,0.05550518,-0.01960654,1.006191,-13.0304,16.32986,-45.48657,1008.175
20.600718022,-7.589086,-1.26161,1.424345,0.06022765,-0.04685384,1.00062,-13.78602,16.72173,-45.48457,1008.175
20.632891655,-6.974782,-2.44531,1.73078,0.05786223,-0.03081615,1.001739,-13.78602,16.72173,-45.48457,1008.173
20.667539120,-5.193299,-1.557535,1.792067,0.07182427,-0.0363783,0.9818006,-14.54794,16.34565,-45.92512,1008.175
20.699712753,-3.043235,-0.3146494,2.650085,0.05860545,-0.04892473,0.9827846,-14.15272,17.49993,-44.65755,1008.175
20.734360218,-0.4631578,-1.675905,3.324243,0.04426201,-0.02150261,1.004834,-13.40262,17.4835,-45.10769,1008.175
20.766533852,-2.981805,-4.10249,4.304835,0.04633933,-0.01269408,1.015492,-13.40262,17.4835,-45.10769,1008.175
20.801182270,-1.876057,-6.055596,4.978992,0.05694931,-0.03123751,1.009456,-14.53592,18.26187,-45.10561,1008.175
20.833354950,2.608363,-10.67203,10.49482,-0.006110149,-0.006882152,1.043021,-14.15824,17.87537,-45.10569,1008.175
20.868003368,-6.72906,-11.73736,8.349778,0.07589133,-0.01448876,0.9906191,-14.15824,17.87537,-45.10569,1008.175
20.900176525,-4.456135,-8.24544,5.285428,0.1381063,-0.09864486,0.9435549,-14.15298,17.11879,-44.65569,1008.173
20.934824467,13.05153,-3.451455,5.040279,0.1340752,-0.108896,0.933386,-14.15824,17.87537,-45.10569,1008.173
20.966997623,19.37887,-0.7289445,1.056623,0.1353024,-0.05693055,0.9381409,-14.15824,17.87537,-45.10569,1008.177
21.001645565,14.34157,3.887486,-2.191589,0.1285266,0.001145313,0.9748329,-14.91907,17.88124,-45.48434,1008.176
21.033818722,13.91156,6.314072,-4.0302,0.09894294,0.02660607,0.9844769,-14.90808,18.27293,-44.6574,1008.176
21.068467140,11.94579,6.905922,0.5050397,0.07448927,0.1204532,0.9907807,-14.90808,18.27293,-44.6574,1008.174
21.100640297,-8.141959,5.012002,-0.04654358,0.06796673,0.01590876,0.9620238,-14.53669,17.11847,-45.10003,1008.174
21.132813454,-13.36354,6.314072,3.446817,0.07339031,0.06328509,1.003816,-14.15375,15.97539,-44.6501,1008.172
21.167461395,-44.01732,3.650746,2.588798,0.05210055,-0.005593129,1.058876,-14.15375,15.97539,-44.6501,1008.174
21.199634552,-37.44427,0.9282359,-1.272284,0.05992939,-0.1738202,1.026569,-13.78577,17.10287,-45.48643,1008.172
21.234282494,-5.131869,0.4547558,-2.559312,0.06634891,-0.1843841,0.9825596,-14.15716,18.25732,-45.04379,1008.172
21.266455650,11.02433,0.2772007,-3.41733,0.078281,-0.09961741,0.967723,-14.15716,18.25732,-45.04379,1008.172
21.301103592,7.707087,1.224161,-2.498024,0.08399639,-0.03017771,0.9754722,-13.01787,19.00835,-44.67079,1008.172
21.333276749,4.512706,2.230306,-0.2916917,0.07247154,-0.01350814,0.9896951,-14.14591,19.03014,-44.21871,1008.172
21.367925644,-1.446044,2.230306,1.485632,0.05206463,-0.009940549,0.9985909,-14.14591,19.03014,-44.21871,1008.17
21.400098801,-9.431997,1.046606,1.363058,0.05688892,-0.04193095,1.00744,-13.39607,18.63259,-44.66699,1008.17
21.434746742,-10.90633,1.520086,0.5050397,0.06104018,-0.06973508,0.9922302,-13.76823,18.64364,-44.21878,1008.17
21.466919899,-1.814627,2.171121,-0.4755528,0.0594448,-0.08000225,0.9815565,-13.76823,18.64364,-44.21878,1008.17
21.501567841,2.055489,1.401716,-0.5981268,0.0625319,-0.05811148,0.9899021,-13.76219,19.03046,-43.77436,1008.17
21.533740997,-0.0945753,1.401716,0.4437526,0.06488816,-0.05384759,0.9778653,-13.39581,19.01372,-44.66885,1008.17
21.568388462,-0.03314489,1.460901,0.7501878,0.06207796,-0.04792314,0.9890264,-13.39581,19.01372,-44.66885,1008.167
21.600562096,-3.964691,1.401716,1.424345,0.05719313,-0.06386112,0.9961705,-13.01787,19.00835,-44.67079,1008.167
21.635210514,-3.227526,2.289491,1.485632,0.05617929,-0.07694705,0.9980001,-13.01184,19.39517,-44.22637,1008.171
21.667383671,-2.428931,2.111936,1.608206,0.05220126,-0.09198567,0.9964673,-13.39003,19.01941,-44.22258,1008.171
21.699556828,1.256894,1.816011,1.363058,0.05705838,-0.09057994,0.9930595,-13.39003,19.01941,-44.22258,1008.171
21.734204769,-0.2788665,0.6914958,0.7501878,0.06506108,-0.0590096,1.000957,-13.01761,19.38949,-44.67265,1008.169
21.766377926,-2.490361,2.526231,1.546919,0.07861423,-0.06111242,0.9887633,-13.01184,19.39517,-44.22637,1008.169
21.801025868,1.379755,-0.2554644,1.240484,0.05515864,-0.07601567,0.9922333,-13.01184,19.39517,-44.22637,1008.169
21.833199024,0.7040201,-1.49835,2.527511,0.03922511,-0.04289815,0.996511,-12.63942,19.76525,-44.67645,1008.169
21.867847443,-2.858944,-0.3146494,2.34365,0.06254095,-0.03634264,0.9804416,-13.39555,19.39485,-44.67072,1008.167
21.900020599,-5.439021,1.164976,1.914641,0.06093813,-0.0601565,0.9754401,-13.39555,19.39485,-44.67072,1008.167
21.934668541,-3.288957,1.105791,3.140382,0.05382004,-0.06235446,1.000552,-13.39447,19.7768,-44.60883,1008.171
21.966841698,-4.148983,1.342531,3.140382,0.0467344,-0.09543394,0.9863678,-13.00631,19.01972,-43.77823,1008.171
22.001489639,-4.394704,1.046606,1.792067,0.03668393,-0.08601571,1.005337,-13.00631,19.01972,-43.77823,1008.171
22.033662796,-2.367501,0.8098659,-0.7819878,0.04094097,-0.1166251,1.004081,-12.63916,20.14639,-44.67831,1008.171
22.068310738,3.959832,-1.37998,-0.7819878,0.05613054,-0.07699139,0.9922162,-13.0171,20.15175,-44.67637,1008.171
22.100483894,-0.8317403,-2.68205,-1.088423,0.05629612,-0.05749805,1.002497,-13.0171,20.15175,-44.67637,1008.17
22.135132790,-5.009008,-1.794275,-1.088423,0.06583333,-0.08869743,0.9910651,-12.63338,20.15207,-44.23203,1008.17
22.167305946,2.055489,-1.320795,-1.14971,0.063343,-0.09308323,0.9871963,-13.01158,19.7763,-44.22823,1008.17
22.199479103,2.362641,-2.20857,-1.517432,0.06196725,-0.06785015,0.9854891,-13.01158,19.7763,-44.22823,1008.17
22.234127045,0.2740072,-1.439165,-0.7819878,0.06439286,-0.06932601,0.9844903,-12.63338,20.15207,-44.23203,1008.175
22.266300201,-1.937488,-1.202425,-0.5368397,0.06634747,-0.08432396,0.9920604,-13.77267,19.40103,-44.60503,1008.171
22.300948143,0.2740072,-0.7881294,-0.5981268,0.05360849,-0.09688024,0.9920757,-13.77267,19.40103,-44.60503,1008.175
22.333121300,3.898402,-0.1962794,-0.5981268,0.05711893,-0.08278778,0.9964972,-13.0171,20.15175,-44.67637,1008.175
22.367769718,0.396868,-0.7881294,-0.6594138,0.05914715,-0.06725393,0.9980524,-12.63364,19.77094,-44.23016,1008.175
22.399942875,-2.674653,-1.912645,-1.027136,0.06640009,-0.08040755,0.9964303,-12.63364,19.77094,-44.23016,1008.177
22.434590817,0.6425897,-0.9064995,-1.272284,0.05938656,-0.09311157,0.980967,-13.40107,19.7703,-45.11886,1008.177
22.466763973,2.546932,-0.01872433,-1.456145,0.07253043,-0.08498541,0.9731994,-13.76194,19.41159,-43.77622,1008.177
22.501411915,5.802744,0.5731258,-1.027136,0.06632467,-0.07515689,0.9849063,-13.76194,19.41159,-43.77622,1008.177
22.533585072,3.65268,0.6914958,0.01474344,0.06802469,-0.0454518,0.9986312,-13.38348,20.16849,-43.78188,1008.177
22.568233013,-2.30607,0.6914958,0.01474344,0.05270071,-0.07843773,0.9912723,-13.39003,19.01941,-44.22258,1008.177
22.600406170,-0.7088794,-0.1370943,-0.1078306,0.0556976,-0.08032387,1.000387,-13.39003,19.01941,-44.22258,1008.179
22.635054588,0.2740072,-0.4330194,-0.1691176,0.06488689,-0.0688394,0.9849718,-13.77349,19.40022,-44.66878,1008.179
22.667228222,-0.954601,-0.1962794,-0.04654358,0.07259901,-0.07525168,0.976653,-13.39447,19.7768,-44.60883,1008.179
22.701875687,1.318324,0.3363858,0.6889007,0.05907407,-0.06828753,0.9898505,-13.39581,19.01372,-44.66885,1008.179
22.734049320,-0.4017274,0.3363858,0.3824656,0.06548991,-0.0547137,0.9918305,-13.39581,19.01372,-44.66885,1008.179
22.766222477,-2.30607,0.2180157,0.1373175,0.05912302,-0.07211157,0.9975305,-13.38952,19.78167,-44.2263,1008.179
22.800869942,-3.7804,-0.07790934,0.1373175,0.06397653,-0.07941338,0.997907,-13.38374,19.78736,-43.78001,1008.179
22.833043575,-2.736083,-0.07790934,-0.2916917,0.06487171,-0.09013022,0.9934723,-13.38374,19.78736,-43.78001,1008.179
22.867691994,-1.753196,0.2772007,-0.04654358,0.06141727,-0.08676327,0.9872663,-13.01679,19.3903,-44.60889,1008.179
22.899865150,-0.1560057,0.7506809,0.3211785,0.05502512,-0.08677562,0.9815419,-13.39003,19.01941,-44.22258,1008.179
22.934513092,-0.2174361,0.6914958,0.3824656,0.05995503,-0.07853375,0.9834919,-13.39003,19.01941,-44.22258,1008.181
22.966686249,0.396868,0.9282359,0.5050397,0.06396615,-0.07507069,0.9945689,-13.01735,19.77062,-44.67451,1008.179
23.001334190,0.6425897,0.3955708,0.2598915,0.06890663,-0.07503988,1.001753,-13.76797,19.02477,-44.22064,1008.178
23.033507347,-0.2788665,-0.07790934,0.1986045,0.06743209,-0.06488726,0.9955845,-13.76797,19.02477,-44.22064,1008.178
23.068155289,-2.797513,0.04046069,-0.04654358,0.06580885,-0.08678541,0.9872252,-13.77323,19.78136,-44.67064,1008.176
23.100328445,-1.200323,-0.1370943,-0.04654358,0.05706377,-0.07655155,0.9869092,-13.00554,20.16312,-43.78381,1008.176
23.134976864,-2.121779,-0.1962794,-0.1691176,0.05557377,-0.0818872,0.986397,-13.00554,20.16312,-43.78381,1008.174
23.167150021,-1.200323,-0.07790934,-0.04654358,0.06133455,-0.09796058,0.9828369,-13.01158,19.7763,-44.22823,1008.174
23.201797962,2.485502,0.3955708,0.6889007,0.06248231,-0.08185145,0.9954908,-13.01158,19.7763,-44.22823,1008.172
23.233971119,-0.03314489,0.2772007,0.6276137,0.06593401,-0.07119739,0.9945825,-13.01158,19.7763,-44.22823,1008.172
23.266144276,-2.551792,0.04046069,0.4437526,0.05761496,-0.08181576,0.9969826,-13.38952,19.78167,-44.2263,1008.172
23.300792217,-1.753196,0.04046069,-0.1078306,0.05361431,-0.09155568,0.9901916,-13.40133,19.38917,-45.117,1008.172
23.332965374,1.256894,0.4547558,-0.04654358,0.06139084,-0.08630373,0.9838964,-13.40133,19.38917,-45.117,1008.172
23.367614269,-0.647449,0.2180157,0.1986045,0.06151791,-0.06829613,0.9903096,-13.39504,20.15712,-44.67444,1008.174
23.399787426,-1.876057,0.04046069,0.3824656,0.05952385,-0.07654538,0.9892963,-13.00529,20.54426,-43.78567,1008.174
23.434435368,-2.736083,0.04046069,0.6276137,0.06977706,-0.07804215,0.9906342,-13.00529,20.54426,-43.78567,1008.174
23.466608524,-2.060349,0.3363858,1.11791,0.06591654,-0.08717106,1.000235,-13.38348,20.16849,-43.78188,1008.174
23.501256466,-1.261753,0.6323109,0.5663267,0.05803826,-0.08864699,0.9925843,-12.6276,20.15775,-43.78574,1008.174
23.533429623,-0.5245882,0.5139408,0.6276137,0.05795691,-0.08678669,0.9819964,-12.6276,20.15775,-43.78574,1008.174
23.568078041,-0.8317403,-0.01872433,0.5663267,0.05751149,-0.08432771,0.9858769,-13.01684,20.53289,-44.67823,1008.176
23.600251198,-1.691766,-0.07790934,0.1373175,0.05854461,-0.09105056,0.9959337,-13.00554,20.16312,-43.78381,1008.176
23.634899140,0.3354376,0.04046069,0.1373175,0.06479032,-0.08730283,0.9824104,-13.00554,20.16312,-43.78381,1008.176
23.667072296,1.072603,0.0996457,-0.1691176,0.06933814,-0.08379792,0.9992667,-13.01132,20.15744,-44.23009,1008.176
23.701720238,-1.016032,-0.2554644,-0.1078306,0.06055076,-0.08085604,0.9974451,-13.00002,19.78767,-43.33567,1008.174
23.733893395,-0.7703098,0.0996457,-0.3529787,0.05554357,-0.08723392,0.9853893,-13.00002,19.78767,-43.33567,1008.178
23.768541336,-0.8931707,0.04046069,-0.2304046,0.0628204,-0.09069444,0.9819188,-13.389,20.54394,-44.23002,1008.178
23.800714493,-0.7088794,0.2180157,0.2598915,0.05560446,-0.08621141,0.9921451,-13.389,20.54394,-44.23002,1008.178
23.832887649,-0.647449,0.2772007,0.3211785,0.05894549,-0.09645146,0.9881734,-13.389,20.54394,-44.23002,1008.178
23.867536068,-0.2788665,0.2772007,0.2598915,0.05703405,-0.0915692,0.9906415,-13.38322,20.54963,-43.78374,1008.178
23.899709702,0.3354376,-0.07790934,0.1373175,0.05699538,-0.09015366,0.9853517,-13.01158,19.7763,-44.22823,1008.176
23.934357166,0.1511464,0.2180157,0.1373175,0.05413433,-0.08282474,0.9897768,-13.38348,20.16849,-43.78188,1008.176
23.966530800,-1.630336,-0.1962794,-0.04654358,0.05263013,-0.08865687,0.9878147,-13.38348,20.16849,-43.78188,1008.176
24.001178265,-0.5245882,0.0996457,-0.1078306,0.06189945,-0.09305738,0.98962,-13.38348,20.16849,-43.78188,1008.176
24.033351898,-0.647449,-0.01872433,0.01474344,0.06531297,-0.09065872,0.9881618,-13.00529,20.54426,-43.78567,1008.175
24.068000317,-0.5860186,0.04046069,0.3824656,0.06633773,-0.0925535,0.9948846,-13.00529,20.54426,-43.78567,1008.175
24.100173473,-0.1560057,0.0996457,0.2598915,0.06044597,-0.09739269,0.9929717,-13.00529,20.54426,-43.78567,1008.175
24.134821415,1.379755,0.2180157,0.2598915,0.06237096,-0.08920625,0.9857913,-13.01106,20.53857,-44.23195,1008.173
24.166994572,0.2740072,0.1588307,0.1986045,0.05708016,-0.07943805,0.9902592,-13.01106,20.53857,-44.23195,1008.173
24.201642513,-1.630336,0.2180157,0.1986045,0.0584917,-0.0891644,0.9887198,-13.38374,19.78736,-43.78001,1008.177
24.233815670,-1.937488,0.2772007,0.01474344,0.05595889,-0.09697382,0.9814491,-13.00554,20.16312,-43.78381,1008.175
24.268464089,0.4582984,0.2772007,0.01474344,0.05903467,-0.09250181,0.9968812,-13.00554,20.16312,-43.78381,1008.173
24.300637245,-0.647449,-0.3146494,-0.2916917,0.05660474,-0.08619417,0.9950278,-13.01132,20.15744,-44.23009,1008.172
24.332810402,-0.7703098,-0.07790934,-0.04654358,0.06380037,-0.09069566,0.9823917,-13.38374,19.78736,-43.78001,1008.173
24.367458344,0.02828553,0.0996457,0.01474344,0.06390178,-0.08770203,0.9930194,-13.38374,19.78736,-43.78001,1008.173
24.399631500,-0.340297,0.7506809,0.1986045,0.06143783,-0.09158026,0.9920464,-12.99976,20.16881,-43.33753,1008.172
24.434279442,0.2125767,0.5731258,0.5050397,0.05601542,-0.09015244,0.9848788,-13.00554,20.16312,-43.78381,1008.173
24.466452599,-0.8931707,0.4547558,0.3211785,0.05456354,-0.08626559,0.9844424,-13.00554,20.16312,-43.78381,1008.173
24.501101494,-1.384614,0.6323109,0.01474344,0.05550323,-0.09307343,0.9834136,-13.01684,20.53289,-44.67823,1008.172
24.533274651,0.02828553,0.2772007,-0.1078306,0.06338167,-0.09449878,0.9924862,-13.01158,19.7763,-44.22823,1008.172
24.567922592,0.5811593,-0.1370943,0.01474344,0.05752182,-0.0877033,0.9887409,-13.01158,19.7763,-44.22823,1008.17
24.600095749,-0.5860186,-0.2554644,-0.1078306,0.05600734,-0.09112692,0.9843889,-13.01684,20.53289,-44.67823,1008.17
24.634743691,-0.5245882,0.2180157,0.1373175,0.0580245,-0.09784731,0.9954005,-13.389,20.54394,-44.23002,1008.17
24.666916847,-0.03314489,0.04046069,-0.1691176,0.06102931,-0.09585769,1.003583,-13.389,20.54394,-44.23002,1008.17
24.701565266,-0.647449,0.2180157,0.1986045,0.06091141,-0.09403064,0.9886572,-13.01106,20.53857,-44.23195,1008.172
24.733738423,0.5811593,0.2772007,-0.1078306,0.05603588,-0.09303525,0.9887108,-12.62157,20.54457,-43.34132,1008.172
24.768386364,-0.7088794,0.4547558,0.1986045,0.05657219,-0.08525662,0.9906979,-12.62157,20.54457,-43.34132,1008.172
24.800559521,-0.5245882,0.2772007,0.2598915,0.05840517,-0.1052009,0.9861784,-13.00529,20.54426,-43.78567,1008.172
24.832732677,-2.183209,0.5139408,0.1373175,0.05068649,-0.08960673,0.989271,-12.63312,20.5332,-44.23389,1008.17
24.867380619,0.5197288,0.3363858,0.1373175,0.0594335,-0.09742101,0.988643,-12.62157,20.54457,-43.34132,1008.17
24.899553776,-1.077462,-0.07790934,-0.1078306,0.05652579,-0.09158522,0.9882361,-12.62157,20.54457,-43.34132,1008.17
24.934201717,1.256894,0.2180157,-0.1078306,0.063785,-0.1081181,0.9889962,-13.00554,20.16312,-43.78381,1008.172
24.966374874,-0.340297,0.1588307,0.3824656,0.05516765,-0.09341597,1.00173,-13.01106,20.53857,-44.23195,1008.17
25.001023293,-1.630336,0.3363858,-0.04654358,0.06186475,-0.08970395,0.9838639,-13.01106,20.53857,-44.23195,1008.17
25.033196449,-1.261753,0.7506809,0.07603047,0.05304164,-0.1032359,0.9857627,-13.00503,20.92539,-43.78753,1008.169
25.067844391,-2.367501,1.520086,0.2598915,0.06244394,-0.08623847,0.993045,-12.62735,20.53889,-43.78761,1008.173
25.100017548,-0.340297,1.224161,0.3211785,0.05791124,-0.1076217,0.9866451,-12.62735,20.53889,-43.78761,1008.173
25.134665489,0.02828553,0.3955708,-0.04654358,0.0511281,-0.09690488,0.9872787,-12.63338,20.15207,-44.23203,1008.171
25.166838646,-0.7703098,-0.1962794,0.1373175,0.05554807,-0.09593407,0.9901375,-13.00529,20.54426,-43.78567,1008.169
25.201487541,0.02828553,-0.2554644,-0.04654358,0.06093177,-0.09497926,0.9915411,-13.00529,20.54426,-43.78567,1008.171
25.233660698,-0.1560057,0.0996457,-0.04654358,0.05211619,-0.09689872,0.9887156,-12.63287,20.91434,-44.23575,1008.171
25.268308640,-1.077462,0.04046069,-0.2304046,0.05545287,-0.1013399,0.9814178,-12.24966,20.15239,-43.78768,1008.171
25.300481796,1.502615,0.3955708,-0.2304046,0.05837291,-0.1100659,0.9846927,-12.24966,20.15239,-43.78768,1008.169
25.335129738,1.994059,0.3363858,-0.3529787,0.05453726,-0.08870735,0.9824945,-13.00529,20.54426,-43.78567,1008.169
25.367302895,-0.5860186,1.697641,-0.5368397,0.05451563,-0.1027505,0.9867169,-13.01081,20.9197,-44.23381,1008.169
25.399476051,0.8883113,2.585416,-0.5981268,0.04519184,-0.1056531,0.98196,-13.01081,20.9197,-44.23381,1008.169
25.434124470,-0.1560057,2.822156,-0.5981268,0.05901607,-0.08623233,0.9916311,-13.37745,20.55531,-43.33746,1008.169
25.466297627,1.256894,4.775261,-1.210997,0.05678355,-0.1188769,0.9740309,-13.38348,20.16849,-43.78188,1008.167
25.500945568,5.741314,4.538521,-0.2916917,0.03435116,-0.07284974,1.011734,-13.38348,20.16849,-43.78188,1008.167
25.533118725,-4.824717,0.8690509,0.8114748,0.02878487,-0.04692809,1.033689,-12.63287,20.91434,-44.23575,1008.169
25.567766667,-33.57415,-2.0902,4.61127,0.02931303,0.06473572,1.100639,-13.01684,20.53289,-44.67823,1008.169
25.599939823,-102.0076,-14.28231,1.608206,0.01184615,-0.01390701,1.150763,-13.01684,20.53289,-44.67823,1008.169
25.634588242,-129.467,-48.13614,-14.878,-0.03523722,-0.2929082,1.257834,-12.24337,20.92034,-43.34512,1008.169
25.666761875,-93.40737,-64.41203,-25.48066,-0.009289225,-0.2833259,1.321295,-12.58484,23.62775,-40.67853,1008.169
25.701409340,-215.7767,-111.5825,-66.8494,-0.04664901,-0.4715351,1.438182,-12.58484,23.62775,-40.67853,1008.169
25.733582974,-160.2437,-154.61,-121.8852,-0.07236547,-1.134393,1.253654,-15.17584,27.52783,-36.66707,1008.167
25.768230438,-116.9352,-180.6514,-184.0302,-0.01612313,-1.078912,1.183214,-18.53424,31.93454,-28.70083,1008.167
25.800404072,-50.09893,-191.3639,-232.5695,0.00273071,-1.14709,0.7882007,-18.53424,31.93454,-28.70083,1008.167
25.835052490,76.57058,-194.3231,-261.1906,-0.04438554,-0.7689136,0.5150904,-25.98933,32.9057,-20.69657,1008.169
25.867225647,126.1449,-191.0087,-267.6257,0.131192,-0.306581,0.2208339,-34.61135,28.84546,-14.95718,1008.173
25.901873589,109.1901,-181.9534,-252.6104,0.3791648,0.07133362,0.1040278,-41.73508,19.48166,-9.964828,1008.171
25.934046745,92.48106,-168.8144,-240.1078,0.4428233,0.1713167,0.08160408,-41.73508,19.48166,-9.964828,1008.171
25.966219902,132.2265,-154.0181,-224.4183,0.4824135,0.2269373,-0.1703925,-45.88254,8.948647,-3.706959,1008.171
26.000867844,164.4161,-148.218,-189.975,0.6400253,0.7431176,-0.4799434,-47.71541,-0.9349701,1.260489,1008.17
26.033041000,80.07211,-103.9476,-153.448,1.014266,1.158458,-0.5715913,-47.71541,-0.9349701,1.260489,1008.166
26.067689419,-57.83916,-19.78652,-113.6114,0.8217659,0.8913058,-0.4693316,-46.87935,-9.246183,7.928011,1008.162
26.099862576,-63.06075,28.80438,-83.82591,0.8160248,0.6328793,-0.5629885,-45.35989,-14.97329,8.840748,1008.162
26.134510517,-35.23277,100.2999,-55.5113,0.7878765,0.8096266,-0.5718727,-45.35989,-14.97329,8.840748,1008.164
26.166683674,-50.34465,157.0583,-26.15482,0.6832117,0.9645624,-0.5002108,-44.25201,-19.2046,7.070293,1008.164
26.201331615,-12.13494,246.1318,8.043344,0.7521707,0.9846685,-0.4920125,-43.5667,-22.33182,1.789698,1008.162
26.233504772,-155.2064,278.0325,-17.08434,0.05497774,2.123786,4.089865,-43.5667,-22.33182,1.789698,1008.162
26.268153668,-308.9667,-36.77262,7.736908,0.4559788,-0.5231349,0.3572439,-44.06541,-22.82615,-7.514647,1008.158
26.300326824,169.3919,-0.8473145,58.48256,0.8244939,0.3765151,0.6277677,-43.6865,-20.60815,-12.43715,1008.16
26.334974766,71.9633,-11.85573,38.68686,0.6920936,0.6214212,0.2005967,-43.6865,-20.60815,-12.43715,1008.16
26.367147923,-19.87517,42.89041,32.19043,0.7719552,1.09045,0.6505317,-44.46993,-19.419,-9.760862,1008.16
26.401795864,-77.00546,17.14493,50.94426,0.2823394,0.6180228,0.6290336,-44.48046,-17.90584,-10.66087,1008.163
26.433969021,37.6237,11.3448,86.42944,0.5908687,0.4900516,0.4718239,-44.48046,-17.90584,-10.66087,1008.159
26.466142178,76.93916,21.46544,134.9688,0.761129,0.9677817,0.4086217,-45.2529,-16.76876,-12.00142,1008.161
26.500790596,-50.22179,39.7536,165.4284,0.7770953,1.03085,0.4779186,-45.62852,-13.33319,-12.01624,1008.161
26.532963753,-139.2345,40.10872,174.6828,0.687263,0.4743732,0.4519972,-45.62852,-13.33319,-12.01624,1008.161
26.567611694,-141.2617,39.7536,188.7175,0.6230302,0.1795479,0.3841321,-46.40969,-8.015005,-14.26982,1008.161
26.599784851,-138.8044,42.29856,200.4846,0.5254152,0.0301864,0.3385036,-46.03161,0.7400116,-14.76083,1008.159
26.634432793,-127.3784,46.73744,213.7226,0.4437861,-0.2107197,0.2649794,-46.03161,0.7400116,-14.76083,1008.159
26.666605950,-120.8053,65.0256,202.8135,0.342516,-0.3424644,0.2985782,-44.51389,9.54813,-14.81168,1008.159
26.701254368,-64.90366,72.66047,202.5071,0.4204575,-0.6306636,0.3634369,-40.66508,19.02189,-14.87786,1008.159
26.733427525,-17.29509,86.50976,197.359,0.3417765,-0.7488887,0.4653803,-40.66508,19.02189,-14.87786,1008.157
26.768075466,27.42625,103.3775,190.6174,0.3004316,-0.7809967,0.5551533,-35.36878,26.5694,-14.94214,1008.157
26.800248623,57.95716,117.8186,174.6828,0.09810201,-0.8436882,0.6664202,-29.35035,32.99381,-17.5552,1008.155
26.834896564,89.34811,111.4858,147.2262,0.0006676,-1.020599,0.8880727,-29.35035,32.99381,-17.5552,1008.155
26.867069721,134.6838,96.03855,111.2507,-0.00610271,-1.096578,1.164659,-22.60264,36.65166,-22.07143,1008.155
26.901718616,154.8944,55.43763,55.23435,-0.02560759,-1.232017,1.464492,-15.0423,38.38734,-26.96506,1008.155
26.933891773,191.384,28.09416,-10.71049,-0.0740791,-0.7120482,1.135688,-15.0423,38.38734,-26.96506,1008.157
26.968539715,125.592,25.9635,-10.83306,0.01175925,0.1312341,0.8376971,-10.58395,35.58109,-32.77689,1008.153
27.000712872,48.7426,-9.961806,-9.913754,0.0528981,-0.01349735,1.041452,-8.765589,31.29437,-38.05771,1008.153
27.032886028,-8.449111,-1.97183,-8.688014,0.05094533,0.1170379,1.03628,-8.765589,31.29437,-38.05771,1008.157
27.067533970,-53.6619,-3.39227,-15.8586,0.08089703,-0.3773721,0.8906989,-8.802872,27.3854,-40.71647,1008.157
27.099707127,62.8716,7.438587,-13.40711,0.0415029,-0.4921065,0.9040986,-9.169514,27.021,-39.82012,1008.157
27.134355545,87.5052,6.077332,-9.362171,0.01554555,0.1594515,1.100584,-9.180298,28.15303,-40.71826,1008.159
27.166528702,-24.05244,-5.108635,-18.12621,0.03870484,0.02522079,1.017803,-9.180298,28.15303,-40.71826,1008.159
27.201176643,-32.83699,-7.476036,-11.62979,0.05646438,-0.1941203,0.9724495,-9.949791,25.10333,-41.59207,1008.159
27.233349800,-23.49956,-8.363811,-8.013857,0.08814979,-0.2837319,0.9535812,-9.943499,25.87129,-41.14951,1008.159
27.267997742,-10.78347,-5.463746,-5.746236,0.0790556,-0.2477401,0.9573367,-9.943499,25.87129,-41.14951,1008.159
27.300170899,-12.07351,-3.51064,-4.397922,0.09943408,-0.2513336,0.945067,-10.31014,25.50689,-40.25315,1008.161
27.334819317,-67.97518,4.005857,-5.194654,-0.00365024,-0.1552945,1.059126,-10.30911,27.03143,-40.2606,1008.165
27.366992951,-104.8949,-7.771961,-17.02305,0.1136428,-0.4176252,0.9160895,-10.30911,27.03143,-40.2606,1008.166
27.401640415,-56.67199,-2.32694,-18.73908,0.1213232,-0.4322495,0.8498633,-11.03584,27.45172,-38.02719,1008.166
27.433814049,-32.4684,-0.1370943,-17.20691,0.04614871,-0.337639,0.8595388,-11.76677,30.21665,-36.25153,1008.166
27.468461514,-26.38679,1.875196,-16.22632,0.09583486,-0.3491268,0.9124823,-11.76677,30.21665,-36.25153,1008.168
27.500635147,-29.21259,-3.451455,-4.336635,0.04493915,-0.2818646,0.9790637,-11.75475,32.13288,-35.43203,1008.17
27.532808304,-61.40213,-6.233151,-3.172182,0.03889067,-0.3124382,0.9128342,-12.49907,32.15499,-34.5356,1008.172
27.567456722,-59.19063,-3.096345,-5.010792,0.1210458,-0.4968539,0.9062093,-12.49907,32.15499,-34.5356,1008.172
27.599629879,-45.73737,-3.688195,-3.968913,0.1061011,-0.4792037,0.9195082,-12.85261,34.08876,-32.75785,1008.172
27.634277821,-48.8089,-4.516786,-6.359107,0.0928223,-0.4617861,0.8407277,-13.2127,34.87346,-31.42079,1008.17
27.666450977,-42.66585,-3.924935,-4.704357,0.1261786,-0.5081791,0.825574,-13.2127,34.87346,-31.42079,1008.17
27.701098919,-38.73431,0.8098659,1.240484,0.1391521,-0.5060107,0.8004069,-12.8164,36.40967,-30.09133,1008.174
27.733272553,-34.06559,4.479336,6.204733,0.0958799,-0.5626739,0.7887756,-12.79303,36.81355,-28.30807,1008.174
27.767920494,-29.70403,3.769116,14.41719,0.01512619,-0.5799332,0.8274648,-12.79303,36.81355,-28.30807,1008.174
27.800093651,-34.31132,4.301782,15.64293,0.09250029,-0.5930887,0.8078364,-12.77493,37.974,-26.97481,1008.174
27.834741592,-28.96687,9.036583,18.70729,0.1381641,-0.6510127,0.7529488,-12.0078,38.73609,-26.15359,1008.17
27.866914749,-7.589086,14.59997,21.9555,0.09632935,-0.6279185,0.6995456,-12.0078,38.73609,-26.15359,1008.169
27.901562691,2.731224,17.85515,25.14242,0.09209757,-0.5828165,0.7549049,-11.23382,39.88581,-24.8242,1008.167
27.933735847,5.864175,20.93277,32.86459,0.08760843,-0.7023246,0.8011975,-10.86114,40.63702,-25.27613,1008.165
27.968384743,17.2288,15.19182,37.58369,-0.04369379,-0.6321049,0.8217995,-8.977476,40.22336,-25.73022,1008.165
28.000557899,4.328414,7.261032,37.70626,-0.05925399,-0.661958,0.8429066,-8.977476,40.22336,-25.73022,1008.167
28.035205841,16.06162,16.90819,46.34773,-0.09195595,-0.7473184,0.767316,-7.854957,40.57702,-26.63045,1008.167
28.067378998,30.06776,12.82442,48.43149,-0.1118619,-0.6480321,0.7895283,-6.725833,40.93717,-27.02063,1008.167
28.099552155,9.918583,17.14493,51.98614,-0.0957716,-0.6481244,0.7879314,-6.725833,40.93717,-27.02063,1008.169
28.134200096,-7.896238,21.28788,62.71137,-0.05953104,-0.5747213,0.8257944,-4.08077,40.13733,-27.03045,1008.169
28.166373730,-34.12703,20.69603,67.61433,-0.04935029,-0.5178095,0.8483405,-2.196851,40.1048,-27.4864,1008.169
28.201021671,-36.21566,26.25942,63.07909,-0.07705241,-0.6122729,0.7914263,-2.196851,40.1048,-27.4864,1008.169
28.233194828,-18.70799,30.22482,59.2793,-0.1173896,-0.5804885,0.7959208,1.221629,40.83499,-26.23244,1008.167
28.267842770,-10.72204,26.85127,51.98614,-0.144796,-0.6037104,0.9140749,4.6349,41.17918,-25.35914,1008.171
28.300015926,-23.99101,24.72061,46.53159,-0.254378,-0.5569541,0.801249,4.6349,41.17918,-25.35914,1008.169
28.334664345,-24.7896,24.89817,45.30585,-0.2320397,-0.5885599,0.7453501,6.530633,41.53916,-24.92439,1008.169
28.366837978,2.669793,21.40625,41.13834,-0.3382916,-0.6647626,0.7399293,8.43163,41.14255,-24.03964,1008.169
28.401485443,28.28628,16.55308,36.78696,-0.4005858,-0.6120731,0.7346789,8.43163,41.14255,-24.03964,1008.167
28.433659077,32.5864,14.77753,40.70933,-0.4819328,-0.5157869,0.7058658,10.71134,41.88398,-23.1624,1008.166
28.468306542,22.94183,9.095768,47.08318,-0.6056269,-0.4438535,0.701829,13.02989,41.07723,-24.06317,1008.166
28.500480175,10.04144,7.852882,49.16693,-0.6240092,-0.4252015,0.6539544,13.02989,41.07723,-24.06317,1008.166
28.535128594,3.591249,6.609997,51.80228,-0.6237735,-0.3858181,0.6629528,15.2852,39.89025,-24.96175,1008.166
28.567301750,-5.500452,4.065042,55.90851,-0.5930493,-0.3753499,0.6555225,16.79093,39.48196,-25.41391,1008.166
28.599474907,-4.640426,3.414006,65.40799,-0.584749,-0.3927957,0.6644592,16.79093,39.48196,-25.41391,1008.166
28.634122849,4.082693,-2.267755,68.16591,-0.5797549,-0.4894299,0.7248298,18.69115,37.94195,-24.52357,1008.166
28.666296005,-0.5860186,-0.1370943,75.15263,-0.5511912,-0.423606,0.7819819,20.95224,36.76066,-24.97587,1008.166
28.700943947,-35.84708,-6.706631,79.19757,-0.5344946,-0.4588189,0.695258,20.95224,36.76066,-24.97587,1008.166
28.733117104,-44.87735,-9.369956,84.10053,-0.5387257,-0.3871199,0.7378224,23.98076,35.57999,-24.53948,1008.166
28.767765522,-51.94184,-13.33535,81.77162,-0.5104467,-0.5381191,0.7498097,26.63135,34.4047,-24.10115,1008.167
28.799938679,-32.22268,-11.67817,78.27827,-0.4680363,-0.5199953,0.7355854,26.63135,34.4047,-24.10115,1008.167
28.834586620,-47.76458,-12.44758,71.65926,-0.4377467,-0.4050627,0.7420343,28.15916,32.49461,-22.76075,1008.171
28.866759777,-52.61758,-12.27002,67.00145,-0.4003957,-0.434914,0.6715497,30.81552,31.325,-21.87614,1008.171
28.901407719,-40.39293,-10.84958,60.07603,-0.356299,-0.4682998,0.6506191,30.81552,31.325,-21.87614,1008.17
28.933580875,-35.35563,-13.1578,52.17,-0.3513262,-0.4726291,0.7218729,32.33806,30.17149,-20.98573,1008.171
28.968229771,-44.75449,-14.3415,37.0321,-0.2422119,-0.5038155,0.7133676,33.85508,29.39344,-20.54346,1008.173
29.000402927,-66.93086,-17.65586,26.1843,-0.1139403,-0.4842448,0.753302,33.85508,29.39344,-20.54346,1008.173
29.035050869,-28.72115,-10.67203,37.21597,-0.2967193,-0.54295,0.5757018,34.99438,28.93836,-20.10081,1008.171
29.067224026,-7.281934,-2.91879,41.19962,-0.43625,-0.4210353,0.8117785,34.99964,28.18178,-19.65081,1008.171
29.101871967,0.02828553,-0.6105744,43.52853,-0.94687,-0.4327975,0.97165,35.3718,28.17072,-20.09903,1008.17
29.134045124,-0.4631578,-1.794275,21.52649,-0.7033578,-0.3512392,0.8158103,35.3718,28.17072,-20.09903,1008.168
29.166218758,-1.814627,8.622288,16.62353,-0.7607369,-0.2206127,0.6607729,37.26599,26.2439,-19.65311,1008.166
29.200866699,-9.923441,14.59997,0.6276137,-0.7686765,-0.3686284,0.6586626,37.26574,25.86276,-19.65125,1008.168
29.233039856,-6.544769,19.68989,-7.400986,-0.6809371,-0.3193849,0.6809039,37.26574,25.86276,-19.65125,1008.168
29.267687798,-14.96073,15.07345,-9.423458,-0.6057655,-0.3550028,0.6423128,38.40508,25.47121,-19.20891,1008.168
29.299860954,-5.131869,13.12035,-11.99751,-0.6104627,-0.4181225,0.6365343,37.28307,25.87982,-18.31241,1008.168
29.334509373,-2.490361,14.4816,-9.729894,-0.6490098,-0.3000109,0.6961897,37.28307,25.87982,-18.31241,1008.166
29.366683006,-9.923441,6.550812,-12.85553,-0.6252644,-0.3664551,0.5922725,38.04968,25.87964,-17.48747,1008.168
29.401330471,-17.23366,0.3955708,-16.59404,-0.7688712,-0.4055193,0.5952184,37.68299,26.65784,-16.66045,1008.168
29.433503628,-18.64656,-6.469891,-25.2968,-0.6975172,-0.4657386,0.6369541,37.68299,26.65784,-16.66045,1008.168
29.468151569,-14.83787,-14.51905,-35.16401,-0.6467818,-0.4316719,0.6184456,37.68324,27.03897,-16.66231,1008.172
29.500324726,-9.186275,-15.34764,-35.77688,-0.5545785,-0.3659435,0.6412631,37.30637,28.63239,-16.66813,1008.174
29.534973621,-25.52677,-20.79266,-48.03428,-0.6442856,-0.5032011,0.6597666,37.30637,28.63239,-16.66813,1008.172
29.567146778,-5.193299,-22.92332,-58.14664,-0.5678575,-0.4650662,0.6188798,35.78935,29.41045,-17.1104,1008.172
29.601794720,-15.6979,-29.49286,-67.64613,-0.5512574,-0.3829717,0.6381997,34.27914,31.71872,-17.11383,1008.172
29.633967877,-8.449111,-28.42753,-62.19159,-0.3217187,-0.4225193,0.504146,34.27914,31.71872,-17.11383,1008.172
29.666141033,-33.75844,-5.818856,-54.65328,-0.5131243,-0.6244357,0.821423,32.38057,33.26035,-17.87665,1008.172
29.700788975,-10.66061,-5.759671,-51.77279,-0.369533,-0.5814425,0.6984918,30.1137,34.43597,-17.87063,1008.17
29.732962132,-29.0283,8.030437,-48.09557,-0.3998483,-0.6785437,0.7384621,30.1137,34.43597,-17.87063,1008.17
29.767610550,-31.73124,13.35709,-39.4541,-0.353809,-0.6804785,0.6430626,28.61261,35.61058,-17.10343,1008.17
29.799783707,-37.75142,23.35936,-34.55114,-0.5064276,-0.6684853,0.6522976,27.11948,37.55478,-15.76615,1008.168
29.834431648,-41.62154,28.50845,-35.16401,-0.3797213,-0.6726198,0.5754073,27.11948,37.55478,-15.76615,1008.168
29.866604805,-36.46138,44.96189,-12.97811,-0.3797861,-0.6775144,0.5700656,25.63134,38.36126,-13.97702,1008.172
29.901252747,-43.64874,32.76977,-23.21304,-0.3783104,-0.854906,0.5411153,24.52142,39.54351,-12.19167,1008.172
29.933425903,-27.06253,44.31085,-14.57157,-0.4320484,-0.6917301,0.4552381,24.52142,39.54351,-12.19167,1008.172
29.968074799,-19.50659,41.46997,-8.259005,-0.4395983,-0.791518,0.4761759,24.17891,40.72639,-9.517639,1008.172
30.000247955,-26.32536,32.29629,1.792067,-0.4259458,-0.8210567,0.430979,24.95213,40.7327,-8.182666,1008.171
30.034895420,-24.11387,26.25942,5.101567,-0.4662544,-0.8680305,0.4189179,24.95213,40.7327,-8.182666,1008.172
30.067069054,-9.677719,19.45315,17.29768,-0.4293526,-0.7881112,0.3580185,24.20723,41.13513,-7.351851,1008.172
30.101717472,-2.24464,12.17339,27.90034,-0.5241109,-0.8733122,0.3890482,24.60829,41.1525,-5.568663,1008.172
30.133890629,23.74043,1.105791,29.73895,-0.5110096,-0.8284734,0.3584477,24.60829,41.1525,-5.568663,1008.172
30.168538570,26.56622,-11.32306,31.884,-0.5284491,-0.7736636,0.4053342,25.74762,40.76095,-5.126324,1008.174
30.200711727,36.51795,-22.2131,33.47746,-0.5215694,-0.7668841,0.4077359,26.86963,40.35234,-6.022825,1008.18
30.232884884,38.05371,-31.44597,36.41924,-0.5394093,-0.6733068,0.4462698,27.98534,39.17578,-7.361887,1008.178
30.267532826,36.8251,-39.67268,35.56122,-0.5372558,-0.6861895,0.4765095,27.98534,39.17578,-7.361887,1008.178
30.299705982,41.0638,-44.17074,40.15775,-0.4895434,-0.6348608,0.5545713,29.09033,37.98866,-9.529755,1008.178
30.334354401,41.24809,-46.59733,44.69299,-0.5101395,-0.5541316,0.561695,29.80576,37.93813,-12.65759,1008.178
30.366527557,32.34068,-49.14228,42.48665,-0.5405629,-0.6020073,0.5649582,29.80576,37.93813,-12.65759,1008.178
30.401175499,18.58027,-47.84021,44.57041,-0.4881061,-0.567751,0.6351231,30.53724,35.99899,-14.43727,1008.176
30.433348656,17.04451,-47.30755,43.89625,-0.4950373,-0.5233189,0.6018141,30.89707,34.83316,-15.77247,1008.176
30.467996597,19.56316,-42.04008,47.38961,-0.4840551,-0.5198007,0.6875365,30.89707,34.83316,-15.77247,1008.175
30.500169754,12.92867,-38.25224,50.88297,-0.5036525,-0.4883797,0.7212364,31.62469,33.27109,-17.87279,1008.175
30.534818649,-2.30607,-33.16233,54.92792,-0.4893531,-0.4863442,0.6796678,32.74617,32.10022,-18.76557,1008.173
30.566991806,-1.446044,-26.88872,60.50504,-0.5054111,-0.45241,0.7268513,32.74617,32.10022,-18.76557,1008.173
30.601639748,-2.551792,-23.92947,61.42434,-0.4320648,-0.4284614,0.7326303,33.48343,30.16676,-20.09897,1008.171
30.633812905,-0.4631578,-11.5598,65.22413,-0.486105,-0.4116727,0.7978609,34.60493,28.99588,-20.99175,1008.171
30.668460846,0.2740072,-2.56368,65.77571,-0.4656172,-0.4001388,0.7331769,34.60493,28.99588,-20.99175,1008.171
30.700634003,-9.616289,6.195702,65.28542,-0.4905693,-0.3401485,0.7546303,35.35973,27.39709,-20.98787,1008.169
30.732807636,-20.7352,13.53464,68.16591,-0.5637348,-0.3551912,0.707953,37.62609,25.45921,-20.99017,1008.169
30.767455578,-15.88219,18.21026,70.31095,-0.6070697,-0.3790287,0.6729749,37.62609,25.45921,-20.99017,1008.169
30.799628735,-11.09062,24.30632,66.57244,-0.6417156,-0.3247327,0.7050758,38.39223,23.55417,-20.09217,1008.168
30.834276676,9.488569,31.58607,54.92792,-0.6532072,-0.3461601,0.6254765,40.73339,22.0079,-19.20409,1008.166
30.866449833,23.06469,42.83123,45.18328,-0.6694525,-0.1650199,0.7534053,40.73339,22.0079,-19.20409,1008.166
30.901098251,2.976945,48.8681,36.17409,-0.68866,-0.2269446,0.704392,41.87671,18.9541,-18.30244,1008.17
30.933271885,10.04144,49.93343,32.98716,-0.7032553,-0.2635079,0.6112009,44.15899,17.41279,-17.09527,1008.17
30.967919350,-0.7088794,53.1886,31.94528,-0.7845896,-0.2880652,0.5842834,44.15899,17.41279,-17.09527,1008.164
31.000092983,8.812835,51.94572,33.72261,-0.8143688,-0.2502096,0.5646294,45.30964,16.65147,-15.75851,1008.164
31.034740448,7.399935,48.51299,34.15162,-0.8559006,-0.2041493,0.5943165,46.09338,15.14462,-13.52353,1008.164
31.066914082,21.89751,40.22709,36.1128,-0.7854366,-0.1689103,0.4257318,46.09338,15.14462,-13.52353,1008.164
31.101562500,4.144123,41.64753,33.78389,-0.8430107,-0.1957705,0.5561874,46.87712,13.63778,-11.28855,1008.162
31.133735657,18.27312,39.99035,35.56122,-0.8098917,-0.1591681,0.4144723,47.27136,12.12493,-9.944202,1008.166
31.168383598,-3.288957,43.36389,35.13221,-0.8249559,-0.12526,0.5218962,48.42123,10.22021,-8.601859,1008.166
31.200556755,19.19457,46.91499,32.92588,-0.866084,-0.192322,0.4219533,48.42123,10.22021,-8.601859,1008.166
31.232729912,1.318324,52.53757,26.1843,-0.8592286,0.02028638,0.5542639,48.82646,9.099052,-6.430562,1008.166
31.267378330,19.80888,55.85193,21.34263,-0.8250069,-0.06430194,0.3700875,49.22649,7.59189,-4.639931,1008.166
31.299551487,6.724201,66.03175,15.15264,-0.8761593,-0.06303853,0.4380551,49.22649,7.59189,-4.639931,1008.166
31.334199429,19.31743,70.35225,15.8268,-0.948369,-0.0644898,0.2661611,49.24882,6.471229,-2.849226,1008.166
31.366372585,15.93876,71.18084,13.74304,-0.9805821,-0.001545548,0.3513305,50.04464,5.738019,0.2745914,1008.166
31.401020527,17.2288,71.77269,13.31403,-1.027503,-0.06223463,0.2558321,50.04464,5.738019,0.2745914,1008.166
31.433193684,17.53595,67.51138,13.25274,-0.9622788,0.07313418,0.2283835,50.07822,5.390182,2.890383,1008.166
31.467842579,14.15728,71.77269,16.07194,-0.9994048,-0.09057185,0.1868924,49.73443,4.667393,5.573721,1008.166
31.500015736,2.792654,72.00943,19.44273,-0.9605421,0.03718198,0.162037,49.73443,4.667393,5.573721,1008.166
31.534663677,11.20862,75.79727,24.40698,-1.003208,-0.02852623,0.1108015,49.39116,4.706871,8.25334,1008.17
31.566836834,10.90147,79.52593,26.98104,-1.029961,0.03116476,0.09226324,48.66892,3.227183,10.94233,1008.17
31.601484776,18.6417,86.50976,30.22925,-1.058085,0.0619712,0.04072369,48.66892,3.227183,10.94233,1008.17
31.633657932,12.68295,88.40368,32.49687,-1.085503,0.06834786,-0.03126782,47.57999,2.525688,14.45835,1008.17
31.668306351,16.98308,93.78952,32.49687,-1.106539,0.1230483,-0.06387854,46.10817,1.82469,17.59377,1008.174
31.700479508,10.71718,98.52432,33.2936,-1.172352,0.05581108,-0.1394927,46.10817,1.82469,17.59377,1008.174
31.735127449,11.33148,94.67729,31.45499,-1.189748,0.0870773,-0.2504144,45.02445,0.3030908,21.56009,1008.174
31.767300606,13.29726,90.17923,22.8748,-1.118062,0.02526273,-0.226529,42.42433,-0.7572513,25.14946,1008.174
31.799473763,27.7334,80.35452,16.80739,-1.153639,0.1192947,-0.2663918,42.42433,-0.7572513,25.14946,1008.174
31.834122181,13.23582,60.23162,5.530576,-1.124072,0.01548093,-0.2400495,39.37775,-1.435881,28.29294,1008.172
31.866295814,-3.227526,38.09642,-7.462273,-1.039706,0.03286445,-0.1973135,37.52189,-1.375742,30.91653,1008.17
31.900943279,-5.561882,23.47773,-15.00058,-0.9795105,0.0312719,-0.1761983,37.52189,-1.375742,30.91653,1008.169
31.933116913,8.874266,7.497772,-20.27126,-0.9605993,0.005884787,-0.1201902,36.02824,-0.1938126,32.25753,1008.169
31.967764378,-2.490361,-6.055596,-23.64205,-0.95171,0.09725691,-0.03565191,33.76612,-0.5370502,32.71728,1008.169
31.999938011,-45.12307,-30.32145,-22.60017,-0.9712459,0.07989327,0.02897516,33.76612,-0.5370502,32.71728,1008.169
32.034586430,-77.80405,-42.80949,-26.52254,-1.041779,0.1500839,0.02201797,32.62704,0.2356374,32.27308,1008.169
32.066759586,-140.0945,-76.01228,-37.67678,-1.145961,0.0917961,0.1381894,33.00498,0.230269,32.27114,1008.167
32.101407528,-116.3209,-104.5395,-41.10885,-1.140615,-9.109639E-05,0.1219581,33.00498,0.230269,32.27114,1008.167
32.133580685,-76.45258,-88.91462,-34.12213,-1.137449,0.3522244,-0.1364107,33.73151,-1.713748,30.10893,1008.167
32.168228626,-126.0884,-108.86,-39.39281,-1.276703,0.1275987,-0.3389209,35.20102,-4.44295,26.99025,1008.171
32.200401783,-24.1753,-118.3296,-47.17626,-1.121309,0.09298434,-0.006630642,35.20102,-4.44295,26.99025,1008.171
32.235050201,-96.17175,-126.142,-92.03838,-1.002358,0.1671245,0.1172265,37.7996,-5.669409,23.41206,1008.169
32.267223358,-149.5548,-119.2173,-90.44491,-0.8327701,0.2859562,0.08963177,40.01555,-6.514239,19.4514,1008.169
32.301871300,-254.1093,-124.8399,-141.7421,-0.827291,0.1453867,0.05468182,41.91097,-5.836558,14.97488,1008.169
32.334044457,-256.3823,-110.3396,-159.2702,-0.6348485,-0.1425391,0.03990846,41.91097,-5.836558,14.97488,1008.169
32.366217613,-205.8865,-81.51649,-174.4694,-0.6437808,-0.2799266,0.03066518,44.11113,-4.411642,9.664225,1008.169
32.400866509,-143.166,-61.98543,-174.163,-0.7117015,-0.3280279,0.04343439,45.96321,-0.2858098,6.510122,1008.169
32.433039665,-85.35999,-56.42204,-153.8157,-0.7706841,-0.3518918,0.1209079,45.96321,-0.2858098,6.510122,1008.166
32.467687607,-38.42715,-63.93854,-124.9495,-0.7497804,-0.3482749,0.2258186,45.93771,4.704023,4.254219,1008.166
32.499860764,-23.56099,-58.84863,-94.98015,-0.5955831,-0.3021427,0.2021061,45.16835,10.41471,2.891333,1008.164
32.534508705,1.932628,-55.17916,-68.07515,-0.4082233,-0.2330579,0.2809393,45.16835,10.41471,2.891333,1008.164
32.566681862,-18.64656,-41.27068,-63.96891,-0.2156799,-0.3024682,0.4048543,44.38698,14.20917,0.7089443,1008.16
32.601330280,-51.75755,-30.32145,-60.78198,-0.2456881,-0.5722585,0.3325382,43.6103,17.62737,-1.089056,1008.158
32.633503437,-14.65358,-26.00094,-55.45001,0.1153434,-0.7801291,0.4224097,43.6103,17.62737,-1.089056,1008.156
32.668151379,22.8804,-27.77649,-55.45001,0.6039112,-0.7570705,0.01364333,42.47199,19.54346,-1.53884,1008.156
32.700324536,68.64606,21.46544,-53.73397,0.8274933,-0.8744979,-0.1528088,40.95022,21.84036,-2.43483,1008.156
32.734972477,179.5894,45.61292,-38.10579,0.5626541,-0.4144074,0.04866521,40.95022,21.84036,-2.43483,1008.156
32.767145634,203.8544,27.73905,-24.13234,0.6274032,-0.1877047,0.09475594,39.74263,22.98939,-3.326849,1008.156
32.801794052,242.1255,51.11713,15.45907,0.264332,-0.4275769,0.0368803,39.32475,23.71723,-6.452601,1008.156
32.833967209,280.0281,43.719,63.87582,0.08065694,-0.4118843,0.06523353,39.32475,23.71723,-6.452601,1008.156
32.866140842,295.2628,40.93731,117.8697,-0.5116633,-0.1967465,0.2653339,39.28462,22.91598,-9.50909,1008.158
32.900788307,233.771,21.64299,153.9678,-1.412716,-0.2470739,0.2077748,40.82239,19.4293,-12.17808,1008.154
32.932961464,174.0607,58.39688,138.4621,-2.143858,-0.1205468,0.5978658,40.82239,19.4293,-12.17808,1008.156
32.967610359,181.1252,87.87102,152.0066,-1.281593,-1.157189,-0.531663,41.92718,10.62439,-13.92621,1008.158
32.999783516,768.8299,416.6438,167.8186,-1.881884,0.7347531,-4.010263,42.70732,3.781673,-11.66518,1008.158
33.034431458,-185.6144,33.77592,13.9269,-3.507207,4.382207,0.4674405,42.70732,3.781673,-11.66518,1008.161
33.066604614,-947.7202,-51.56887,-77.81979,-2.626631,-0.3937328,1.178518,42.8505,-5.282058,-0.08067322,1008.165
33.101252556,228.1194,83.66888,-211.7319,-3.215902,0.2084288,1.844982,42.8374,-7.580229,-0.9620686,1008.17
33.133425713,42.53813,-23.10088,-236.2467,-1.727832,-0.1864353,1.00796,42.8374,-7.580229,-0.9620686,1008.177
33.168074131,-123.6311,41.23323,-132.4878,0.8239201,-0.708874,0.678111,43.60664,-4.911662,-0.08640099,1008.179
33.200247288,138.9225,187.9529,46.28645,1.443726,-0.805193,-0.08375963,43.61311,4.680198,-0.1332302,1008.179
33.234895229,67.54031,91.06701,80.36202,-1.828449,0.4330995,0.4650091,43.61311,4.680198,-0.1332302,1008.178
33.267068386,-66.93086,91.54049,50.08624,-1.208621,0.05736981,0.4802279,42.90469,7.78467,3.362242,1008.182
33.301716328,-36.15423,55.14171,42.60923,-1.937797,-0.4465972,0.3055014,42.93807,5.913111,6.049229,1008.183
33.333889484,-10.10773,44.42922,62.34365,0.3416512,0.07109309,0.1116058,42.59903,3.671473,9.186293,1008.187
33.366062641,-32.59126,26.61453,86.73588,-1.707935,-0.3422304,0.1403371,42.59903,3.671473,9.186293,1008.187
33.400711537,-99.42755,14.18568,65.65314,-1.139992,0.06709589,0.3379599,42.61452,0.9570711,10.53847,1008.189
33.432884693,-22.20952,17.20411,105.1833,-0.8984072,0.3280158,0.2144648,41.86205,-1.31412,10.93603,1008.188
33.467532635,-122.8325,2.822156,127.124,-0.7853722,-0.523455,0.08203465,41.86205,-1.31412,10.93603,1008.19
33.499705792,-37.99714,11.87746,155.6838,-0.3411658,0.1225513,0.3651852,42.24346,-4.744006,11.39712,1008.19
33.534354210,7.584227,9.095768,180.8728,-1.497952,0.5487077,0.2488706,41.46721,-10.46651,10.15381,1008.192
33.566527367,-80.87557,-21.73962,183.0791,-1.432807,-0.007124862,-0.03443332,41.46721,-10.46651,10.15381,1008.192
33.601175308,-10.59918,-57.96085,179.3406,-1.131323,0.5847752,0.189835,38.75453,-16.52618,10.19744,1008.192
33.633348465,-94.69741,-92.88001,143.1199,-0.7147171,0.3868438,0.09369993,35.33187,-22.21192,8.903917,1008.193
33.667996407,-220.1383,-102.468,51.74099,-0.3736552,0.2860881,-0.03804303,35.33187,-22.21192,8.903917,1008.195
33.700169563,-136.7772,-98.91689,43.58982,-0.1761965,0.4935092,0.362848,32.24142,-27.24976,4.034801,1008.193
33.734817982,-63.18361,-111.109,29.9841,-0.2874545,0.8186508,0.7873523,30.62994,-30.75432,-3.463731,1008.193
33.766991139,-132.5385,-63.64261,-9.423458,-0.1902685,0.685851,0.6860586,30.62994,-30.75432,-3.463731,1008.195
33.801639080,-92.54735,8.148808,-36.02203,-0.8392141,0.6192955,1.078611,29.06097,-31.17002,-7.853187,1008.195
33.833812237,-68.4052,-17.8926,-27.6257,-0.7406366,-0.1249186,0.6835462,28.24783,-30.45386,-12.31585,1008.195
33.868460178,43.091,3.650746,-18.00364,-0.679481,0.3365422,0.7692017,28.24783,-30.45386,-12.31585,1008.195
33.900633335,-40.14721,-8.896476,-23.02918,-0.8015327,0.5256169,0.7878053,30.13303,-28.58072,-12.7811,1008.195
33.932806492,-78.7255,-26.47442,-41.59914,-0.5668854,0.1033037,0.8081622,29.74931,-28.58103,-13.22545,1008.195
33.967455387,-83.20992,-52.98931,-65.56238,-0.5506769,-0.0156017,0.8200447,29.74931,-28.58103,-13.22545,1008.197
33.999628544,-114.4166,-80.74709,-94.735,-0.4755301,0.02657523,0.7989652,30.48315,-27.02645,-15.02219,1008.197
34.034276485,-125.7198,-95.78008,-110.3632,-0.4128685,0.03715857,0.7011039,31.56894,-23.6619,-18.93376,1008.197
34.066449642,-90.15156,-88.08603,-107.6666,-0.5812612,0.1041749,0.7229896,31.56894,-23.6619,-18.93376,1008.197
34.101097584,-93.34594,-108.3865,-109.3213,-0.6021557,0.1347876,0.7769389,31.90348,-19.52028,-22.5264,1008.197
34.133271217,-80.1384,-114.0682,-88.54501,-0.4755821,0.08210101,0.8240055,31.47193,-14.61621,-26.94771,1008.195
34.167919159,-118.471,-110.0437,-101.5991,-0.484637,-0.1027131,0.7068865,31.47193,-14.61621,-26.94771,1008.197
34.200092316,-45.55308,-125.1358,-96.1446,-0.6151404,-0.6418441,0.8270514,29.91703,-10.06661,-30.53255,1008.197
34.234740257,13.60441,-27.42138,-37.79935,-0.09507794,-0.3740925,1.202776,27.23486,-4.351825,-33.67089,1008.199
34.266913414,43.70531,65.61745,23.30381,-0.2294735,-0.3469715,1.108335,27.23486,-4.351825,-33.67089,1008.199
34.301561832,4.881288,39.69442,21.03619,-0.2769568,-0.0996924,0.8548753,23.82288,-2.790345,-34.55349,1008.2
34.333734989,-27.92255,11.81828,11.16898,-0.2922574,-0.248118,0.7318486,24.21212,-3.165476,-33.661,1008.2
34.368382931,12.62152,-18.07015,-7.400986,-0.4027164,-0.3487554,0.7021657,25.72966,-3.181266,-33.22245,1008.205
34.400556088,20.8532,-28.48672,-15.79731,-0.2618878,-0.2241729,1.024336,25.72966,-3.181266,-33.22245,1008.206
34.435204029,-19.138,-2.149385,-5.684949,-0.1510328,-0.4161062,1.068473,25.72388,-3.186951,-33.66873,1008.206
34.467377186,12.06865,12.05502,5.775724,-0.2466594,-0.3956742,0.8868565,25.3462,-2.800448,-33.66866,1008.206
34.499550820,16.24591,8.918213,5.162854,-0.2895249,-0.3020611,0.8509142,25.3462,-2.800448,-33.66866,1008.208
34.534199238,8.01424,0.6914958,1.485632,-0.2531134,-0.1613239,0.9346387,25.3575,-3.170212,-32.77424,1008.208
34.566372395,5.311301,-0.7289445,-0.5981268,-0.2274532,-0.2694359,0.904588,25.33965,-3.949533,-34.10936,1008.208
34.601020336,0.2125767,19.39396,7.982057,-0.2187003,-0.3840763,0.8982592,25.33965,-3.949533,-34.10936,1008.208
34.633193493,27.61054,32.88814,12.5173,-0.2794366,-0.3521395,0.972353,25.72311,-4.330351,-33.66315,1008.208
34.667841911,23.55613,43.48226,13.98818,-0.2605332,-0.2948061,0.9292694,25.73492,-3.937847,-32.77245,1008.208
34.700015068,27.67197,59.58059,14.78492,-0.3505013,-0.1660039,1.020341,25.73492,-3.937847,-32.77245,1008.208
34.734663010,-4.271843,58.87037,10.49482,-0.3039669,-0.149559,0.9168942,26.89686,-5.068929,-30.54127,1008.206
34.766836167,-6.360477,73.07476,11.96571,-0.3809966,-0.2627106,0.9224641,28.04121,-6.598199,-29.64706,1008.208
34.801484108,10.47146,73.19313,9.391658,-0.4369192,-0.267014,0.8318526,28.04121,-6.598199,-29.64706,1008.21
34.833657265,33.20071,75.97483,9.759379,-0.4899736,-0.3013675,0.7486784,30.70438,-6.237591,-28.32362,1008.21
34.868306160,41.98526,81.95251,6.388594,-0.5624813,-0.1988256,0.7815304,32.62766,-6.61227,-25.7175,1008.212
34.900479317,32.34068,92.42826,0.6276137,-0.7382326,-0.2608463,0.7450631,32.62766,-6.61227,-25.7175,1008.214
34.935126781,43.02958,102.4897,-9.423458,-0.72192,-0.2075812,0.8022259,33.78986,-7.362217,-23.48818,1008.214
34.967300415,17.84311,100.2999,-14.20385,-0.6473314,-0.131095,0.6980485,35.72552,-7.724716,-19.92574,1008.214
34.999473572,8.07567,101.8979,-14.69414,-0.7043973,-0.2249311,0.5146477,35.72552,-7.724716,-19.92574,1008.214
35.034121990,39.77376,118.1737,-22.29373,-0.8074585,-0.2951814,0.653846,38.40468,-8.11013,-17.32349,1008.214
35.066295147,97.88693,111.9593,-35.89945,-0.7578759,-0.2062557,0.7620844,39.58968,-8.075884,-13.37652,1008.214
35.100943089,105.2586,91.4813,-45.88924,-0.6569424,0.05857309,0.7401899,39.58968,-8.075884,-13.37652,1008.214
35.133116245,80.80928,74.61357,-43.31518,-0.6093644,0.2534743,0.6165149,41.22298,-6.898004,-8.927352,1008.214
35.167764187,31.41922,57.80503,-25.41937,-0.5476731,0.4245752,0.4997419,42.39642,-6.875128,-5.872944,1008.214
35.199937344,-49.66892,58.39688,-43.92805,-0.4451114,-0.2843595,0.2133806,42.39642,-6.875128,-5.872944,1008.218
35.234585762,37.25512,91.00782,-53.42754,-0.9603829,-0.05860679,0.5179255,43.5599,-5.719408,-3.652925,1008.218
35.266758919,-26.38679,85.68117,-65.4398,-0.9518725,-0.1521532,0.414409,43.60137,-4.15508,-0.5364037,1008.218
35.301406860,-47.39599,93.02011,-62.43673,-1.093927,-0.2540083,0.4582747,43.60137,-4.15508,-0.5364037,1008.218
35.333580017,-37.25998,93.0793,-48.95359,-0.9527271,-0.4202318,0.268089,44.01445,-2.221483,2.066288,1008.216
35.368227959,-19.26086,86.33221,-43.25389,-1.045015,-0.5894091,0.1109056,43.68453,0.4972985,5.625441,1008.216
35.400401116,21.09892,67.33382,-40.92499,-0.9731214,-0.248296,0.08075298,43.68453,0.4972985,5.625441,1008.216
35.435050011,-3.964691,43.60063,-36.94133,-0.8635521,-0.410971,0.01572955,43.33681,2.500281,7.849165,1008.216
35.467223168,20.36175,18.68374,-33.01896,-0.946413,-0.3370046,0.04988847,42.23265,3.688211,10.08079,1008.216
35.499396324,2.854085,2.230306,-31.05778,-0.896964,-0.4391355,0.118475,42.23265,3.688211,10.08079,1008.216
35.534044266,-0.8931707,-6.765816,-25.05165,-0.9522301,-0.4118934,0.09077732,41.87173,4.472089,11.35409,1008.216
35.566217423,28.34771,-15.5252,-17.88107,-0.8568458,-0.3421182,0.1998764,41.42606,5.997201,10.90262,1008.216
35.600865841,2.608363,-17.59667,-11.32336,-0.8610854,-0.5096443,0.1247889,41.11136,6.382809,10.90237,1008.216
35.633038998,0.8268809,-19.01711,-5.991385,-0.8904706,-0.4816225,0.214946,41.11136,6.382809,10.90237,1008.216
35.667686939,14.77159,-19.78652,1.792067,-0.8993485,-0.4236735,0.2338226,41.03815,7.135413,10.07016,1008.22
35.699860096,30.74349,-23.45599,7.185325,-0.8592615,-0.4165537,0.2388092,41.47357,7.504599,9.619768,1008.22
35.734508038,28.532,-20.08244,11.47542,-0.8378028,-0.4031696,0.2888473,41.47357,7.504599,9.619768,1008.22
35.766681194,13.91156,-18.54363,16.37838,-0.896363,-0.5140256,0.2263019,41.46175,7.112095,8.729065,1008.22
35.801329613,7.154213,-18.18852,23.3651,-0.9026592,-0.3791098,0.2829028,41.07226,7.106094,7.838438,1008.218
35.833503246,10.90147,-20.20081,26.30688,-0.9082119,-0.4029087,0.2143145,41.07226,7.106094,7.838438,1008.218
35.868150711,18.39598,-23.33762,32.19043,-0.9236491,-0.3137667,0.3087013,41.82184,6.327405,7.392012,1008.218
35.900324345,3.099806,-21.62125,39.17715,-0.8473294,-0.347336,0.3477184,42.18168,5.161581,6.056818,1008.218
35.934971809,-3.411818,-21.14777,36.05151,-0.9147496,-0.2808226,0.3064799,42.18168,5.161581,6.056818,1008.22
35.967145920,8.444253,-14.10476,34.45805,-0.8982818,-0.3404593,0.2624547,42.16987,4.769078,5.166119,1008.218
36.001793861,5.372732,-16.76808,34.64191,-0.8728157,-0.257404,0.3491797,42.16306,3.238859,4.72728,1008.218
36.033967018,18.33455,-22.27229,32.19043,-0.8795356,-0.28286,0.3167385,42.16306,3.238859,4.72728,1008.218
36.066140175,7.645657,-19.49059,28.26806,-0.950184,-0.2708022,0.3242452,42.52841,1.697587,3.840227,1008.218
36.100788116,17.2288,-21.14777,21.34263,-0.9204072,-0.1863545,0.3424975,42.89925,-0.2826558,3.401628,1008.218
36.132961273,7.461366,-22.98251,14.78492,-0.9265898,-0.1934298,0.3651508,42.89925,-0.2826558,3.401628,1008.218
36.167609692,24.78474,-29.01938,6.633742,-0.8760875,-0.1315279,0.3054219,42.88191,-0.2997105,2.062786,1008.218
36.199782848,9.857152,-33.99092,-0.2304046,-0.9060302,-0.1712667,0.4200896,42.89295,-1.050608,2.959068,1008.217
36.234430790,0.5811593,-36.29914,-3.172182,-0.9291263,-0.2892521,0.4000525,42.89295,-1.050608,2.959068,1008.218
36.266603947,15.63161,-41.27068,-5.010792,-0.8967659,-0.1273522,0.4560332,42.48695,-1.072852,0.793354,1008.218
