Time (s),Gyroscope X (deg/s),Gyroscope Y (deg/s),Gyroscope Z (deg/s),Accelerometer X (g),Accelerometer Y (g),Accelerometer Z (g),Magnetometer X (uT),Magnetometer Y (uT),Magnetometer Z (uT),Barometer (hPa)
0.010380268,-0.9847348,0.04089832,-0.01843338,-0.9761655,-0.08620926,-0.1382399,20.80133,-31.6286,-40.48965,1007.903
0.042940140,0.6765064,0.2788221,-0.07963277,-0.9781085,-0.08481649,-0.129516,20.80133,-31.6286,-40.48965,1007.903
0.075499058,-0.7386251,0.2193411,-0.07963277,-0.9776216,-0.08481014,-0.1295164,20.79565,-31.26478,-40.49226,1007.903
0.110563755,0.06123182,0.2788221,-0.07963277,-0.9786985,-0.0765492,-0.1322896,20.42592,-31.2726,-41.38322,1007.901
0.143123627,-0.4925153,0.338303,0.04276602,-0.9824733,-0.08680848,-0.1314757,20.42592,-31.2726,-41.38322,1007.901
0.175683022,0.4303966,0.6357077,0.4711618,-0.9776002,-0.08675158,-0.1300294,20.42592,-31.2726,-41.38322,1007.9
0.210747242,0.3073416,0.9331124,0.5323611,-0.9811199,-0.07660512,-0.1269709,20.06271,-31.27008,-40.48988,1007.901
0.243306637,-0.4309878,0.6357077,0.1651648,-0.9786058,-0.08432814,-0.1314416,20.06271,-31.27008,-40.48988,1007.901
0.275866508,0.5534515,0.5762267,0.348763,-0.9796003,-0.08430348,-0.1396576,20.07244,-32.00028,-40.93073,1007.9
0.308426380,0.9226162,0.5762267,0.6547599,-0.9766291,-0.08578245,-0.1266319,20.42755,-31.27001,-40.93714,1007.9
0.343491077,0.9226162,0.6951886,0.8995575,-0.9782433,-0.07410671,-0.1337029,20.42755,-31.27001,-40.93714,1007.898
0.376049995,0.3073416,0.3977839,0.6547599,-0.9776843,-0.08184195,-0.1410721,20.42092,-30.84557,-40.94019,1007.9
0.408609867,0.8610888,-0.07806356,0.6547599,-0.9820999,-0.07660683,-0.1293869,20.42918,-31.26743,-40.49107,1007.9
0.443674564,0.2458142,-0.01858262,0.5935606,-0.9781604,-0.08044111,-0.1299326,20.42918,-31.26743,-40.49107,1007.904
0.476233959,0.3688691,-0.07806356,0.7159594,-0.976619,-0.08675206,-0.1271301,20.79239,-31.26995,-41.3844,1007.905
0.508793831,0.1842867,0.338303,0.7159594,-0.9796596,-0.07706099,-0.1293962,20.79807,-31.63376,-41.38179,1007.905
0.543857574,0.1227593,0.338303,0.5935606,-0.9821377,-0.07558667,-0.1400056,20.79807,-31.63376,-41.38179,1007.905
0.576417446,-1.10779,-0.7918349,0.1039654,-0.9801573,-0.07847452,-0.1405349,20.79402,-31.26737,-40.93833,1007.905
0.608977318,-0.184878,-0.9702777,0.1651648,-0.9751743,-0.08717936,-0.1358388,20.06676,-31.63647,-40.93334,1007.905
0.644042015,-0.4925153,-0.6133921,0.2875636,-0.9786803,-0.07800912,-0.1318285,20.80943,-32.36138,-41.37657,1007.905
0.676600933,-0.0002956353,-0.7323539,0.5935606,-0.9781193,-0.08479671,-0.1338661,20.80943,-32.36138,-41.37657,1007.904
0.709160805,0.8610888,-0.3754683,0.8383582,-0.9717842,-0.08472294,-0.1319376,20.42755,-31.27001,-40.93714,1007.904
0.741720676,1.107199,-0.3754683,0.8383582,-0.9786574,-0.07947784,-0.129434,20.42755,-31.27001,-40.93714,1007.904
0.776784897,0.7380339,-0.01858262,0.6547599,-0.9801908,-0.07365718,-0.1312772,20.7997,-31.63118,-40.93572,1007.908
0.809344768,0.6765064,0.1598602,0.5935606,-0.9757615,-0.07844155,-0.1352215,20.44054,-31.99505,-40.48585,1007.906
0.841904163,1.107199,0.1598602,0.4099624,-0.9826638,-0.07028977,-0.1307401,20.44054,-31.99505,-40.48585,1007.906
0.876968384,1.045671,0.2193411,0.1651648,-0.9777504,-0.07411134,-0.1312865,20.44054,-31.99505,-40.48585,1007.906
0.909528255,-0.06182309,-0.07806356,0.1039654,-0.9801819,-0.07462461,-0.1322588,20.42755,-31.27001,-40.93714,1007.904
0.942088127,0.3073416,-0.2565064,-0.01843338,-0.9787,-0.07702192,-0.135197,20.44054,-31.99505,-40.48585,1007.904
0.977151871,-0.4309878,-0.4349492,-0.2020316,-0.979699,-0.07508659,-0.1361333,20.44054,-31.99505,-40.48585,1007.909
1.009711742,0.2458142,-0.3754683,-0.1408322,-0.9732773,-0.08135382,-0.1289845,20.06676,-31.63647,-40.93334,1007.907
1.042271614,-0.3694604,-0.4349492,-0.2632309,-0.9792123,-0.0741282,-0.1317688,20.06676,-31.63647,-40.93334,1007.907
1.077335835,0.1227593,-0.2565064,-0.07963277,-0.9816317,-0.0760904,-0.1346966,20.06676,-31.63647,-40.93334,1007.905
1.109895706,-0.06182309,-0.07806356,0.2263642,-0.9782135,-0.07606353,-0.1308325,20.80375,-31.99757,-41.37918,1007.905
1.142455101,0.6765064,0.3977839,-0.1408322,-0.9811413,-0.07466368,-0.1264579,20.42755,-31.27001,-40.93714,1007.907
1.175014973,0.3073416,0.4572648,-0.5080286,-0.9836316,-0.07031345,-0.1283227,20.42755,-31.27001,-40.93714,1007.906
1.210079193,-0.0002956353,0.6357077,-0.6304274,-0.9772367,-0.07700726,-0.1342315,20.06676,-31.63647,-40.93334,1007.907
1.242639065,-0.0002956353,0.5762267,-0.3244304,-0.9801787,-0.07510612,-0.1332329,20.43323,-31.63383,-40.93453,1007.904
1.275198936,-0.2464055,0.4572648,-0.5080286,-0.9733325,-0.07792389,-0.135216,20.43323,-31.63383,-40.93453,1007.904
1.310262680,-0.184878,0.2193411,-0.4468292,-0.9757051,-0.0847276,-0.1420848,20.06271,-31.27008,-40.48988,1007.904
1.342822552,-0.1233505,-0.1375445,-0.3244304,-0.9791978,-0.07700849,-0.1395467,20.07002,-31.63131,-40.0412,1007.9
1.375382423,0.1842867,0.2193411,-0.6916268,-0.9772255,-0.07797909,-0.1342463,20.07002,-31.63131,-40.0412,1007.9
1.410446644,-0.06182309,0.4572648,-0.569228,-0.9844469,-0.08298177,-0.1236814,20.44054,-31.99505,-40.48585,1007.897
1.443006039,0.1227593,0.9331124,-0.2020316,-0.9805955,-0.08237474,-0.1391439,20.43323,-31.63383,-40.93453,1007.897
1.475565910,0.3073416,0.8141505,-0.569228,-0.9841521,-0.07025827,-0.1418559,20.43323,-31.63383,-40.93453,1007.902
1.510630131,0.06123182,0.6357077,-0.8752249,-0.9767059,-0.08088599,-0.1347745,21.16212,-31.26214,-40.49345,1007.902
1.543190002,0.2458142,0.8736314,-0.569228,-0.9756258,-0.09105541,-0.1397645,20.42092,-30.84557,-40.94019,1007.9
1.575749874,0.6765064,1.052074,-0.5080286,-0.9801421,-0.07755105,-0.1298866,20.42092,-30.84557,-40.94019,1007.898
1.610813618,-0.2464055,1.111555,-0.8140256,-0.9776887,-0.07993127,-0.1337923,20.79065,-30.83776,-40.04923,1007.898
1.643373489,-0.7386251,0.8141505,-1.36482,-0.9792497,-0.07406007,-0.1467524,20.43323,-31.63383,-40.93453,1007.9
1.675933361,-1.600009,0.1003793,-1.670817,-0.9776838,-0.08279398,-0.145437,20.43323,-31.63383,-40.93453,1007.899
1.708493233,-0.7386251,0.1598602,-0.9976237,-0.9721994,-0.09151885,-0.1349411,20.43323,-31.63383,-40.93453,1007.899
1.743557453,-0.4309878,0.7546695,-0.8140256,-0.9830319,-0.08145225,-0.1352605,20.05945,-31.27524,-41.38203,1007.899
1.776116848,-0.3079329,0.6357077,-0.9976237,-0.976219,-0.08087964,-0.1347749,20.05945,-31.27524,-41.38203,1007.899
1.808676720,-0.1233505,0.6951886,-0.9364244,-0.9771441,-0.08621316,-0.1401725,20.06108,-31.27266,-40.93595,1007.899
1.843740940,0.3073416,1.171036,-0.5080286,-0.9757217,-0.081368,-0.1328493,20.42418,-30.8404,-40.04804,1007.9
1.876300812,0.4303966,1.468441,-0.4468292,-0.9766503,-0.08669493,-0.139697,20.42418,-30.8404,-40.04804,1007.899
1.908860683,0.4303966,1.468441,-0.7528262,-0.9743071,-0.07888643,-0.1400635,20.7997,-31.63118,-40.93572,1007.897
1.943924427,0.2458142,1.230517,-0.7528262,-0.9761319,-0.0910266,-0.1474976,20.7997,-31.63118,-40.93572,1007.895
1.976484299,0.3688691,0.9925933,-0.8140256,-0.9820507,-0.0828797,-0.1391502,20.7997,-31.63118,-40.93572,1007.895
2.009044170,-0.184878,0.8736314,-0.6304274,-0.9736337,-0.09444017,-0.1378846,20.79565,-31.26478,-40.49226,1007.893
2.044108391,0.6765064,0.8141505,-0.4468292,-0.9743061,-0.08079051,-0.1487933,20.79565,-31.26478,-40.49226,1007.893
2.076667786,-0.3694604,0.4572648,-0.8752249,-0.9757348,-0.08277078,-0.1449551,20.79565,-31.26478,-40.49226,1007.893
2.109227657,-1.10779,-0.07806356,-0.9364244,-0.974149,-0.09534581,-0.1538493,20.05608,-30.84563,-40.49293,1007.896
2.141787052,0.06123182,0.2193411,-0.6916268,-0.9765947,-0.09250386,-0.1446194,20.78902,-30.84034,-40.49531,1007.896
2.176851749,-0.6155702,0.4572648,-0.5080286,-0.9746413,-0.09296437,-0.1446283,20.78902,-30.84034,-40.49531,1007.892
2.209411621,0.1842867,0.4572648,-0.5080286,-0.9717711,-0.08807597,-0.142623,20.42418,-30.8404,-40.04804,1007.894
2.241971493,-0.7386251,0.2193411,-0.6304274,-0.9790564,-0.09010826,-0.1440971,20.80133,-31.6286,-40.48965,1007.894
2.277035236,-2.092229,-0.07806356,-1.548418,-0.9772719,-0.08169933,-0.1710397,20.80133,-31.6286,-40.48965,1007.896
2.309595108,-2.030702,-1.386644,-1.732016,-0.978563,-0.09106493,-0.1460457,19.68961,-30.84828,-40.49174,1007.896
2.342154980,-2.276812,-1.267682,-1.670817,-0.969705,-0.09825467,-0.1427803,20.42418,-30.8404,-40.04804,1007.896
2.377219200,-0.3694604,-0.2565064,-0.8140256,-0.9691216,-0.104132,-0.1312695,20.42418,-30.8404,-40.04804,1007.896
2.409778595,-0.2464055,0.338303,-0.3244304,-0.9800953,-0.08381952,-0.1406165,20.42255,-30.84299,-40.49412,1007.896
2.442337990,-0.4925153,0.3977839,-0.6916268,-0.9707289,-0.0943713,-0.1446536,20.41282,-30.11278,-40.05327,1007.898
2.477402687,0.7380339,0.3977839,-0.2020316,-0.9731056,-0.1002164,-0.1486075,21.15644,-30.89832,-40.49606,1007.898
2.509962559,0.2458142,-0.1375445,-0.1408322,-0.9775746,-0.09250558,-0.1470354,21.15644,-30.89832,-40.49606,1007.902
2.542522430,0.5534515,0.1003793,-0.2632309,-0.9789658,-0.09740788,-0.1417917,20.78497,-30.47395,-40.05184,1007.902
2.575082302,-0.1233505,0.2788221,-0.3244304,-0.9750662,-0.09831572,-0.1447096,20.78497,-30.47395,-40.05184,1007.9
2.610146046,0.614979,0.04089832,-0.01843338,-0.9726864,-0.09295215,-0.1417298,20.4235,-30.90362,-40.49368,1007.9
2.642705917,0.1842867,0.338303,0.2263642,-0.9760447,-0.09641775,-0.137429,20.05608,-30.84563,-40.49293,1007.9
2.675265312,0.6765064,0.2788221,0.1651648,-0.9741777,-0.09196423,-0.1494473,20.78497,-30.47395,-40.05184,1007.9
2.710330009,0.3073416,0.1598602,-0.07963277,-0.9707092,-0.0953585,-0.141285,20.78497,-30.47395,-40.05184,1007.9
2.742889881,0.3073416,-0.07806356,0.2263642,-0.9741313,-0.09585369,-0.1490233,20.78497,-30.47395,-40.05184,1007.9
2.775448799,0.5534515,0.2788221,0.2263642,-0.9727541,-0.08712124,-0.1416408,20.41119,-30.11536,-40.49934,1007.902
2.810513496,0.06123182,0.338303,-0.01843338,-0.9829137,-0.09498518,-0.1514185,20.41119,-30.11536,-40.49934,1007.902
2.843073368,0.1227593,-0.3159873,0.04276602,-0.9746109,-0.09730019,-0.1529119,20.42755,-31.27001,-40.93714,1007.902
2.875633240,0.2458142,-0.07806356,0.2875636,-0.9765395,-0.09736075,-0.145177,21.15644,-30.89832,-40.49606,1007.906
2.910697460,-0.184878,-0.1375445,0.2263642,-0.9761316,-0.09055167,-0.1450735,21.15644,-30.89832,-40.49606,1007.906
2.943256855,-0.06182309,-0.2565064,0.1039654,-0.9770982,-0.09057756,-0.1421727,20.78576,-30.8455,-41.38745,1007.906
2.975816250,-0.4925153,-0.3754683,0.2263642,-0.9732163,-0.0909775,-0.1499166,20.78902,-30.84034,-40.49531,1007.906
3.008376122,0.06123182,-0.3754683,0.1039654,-0.9755594,-0.09688412,-0.1403369,20.78902,-30.84034,-40.49531,1007.906
3.043440819,-0.3079329,-0.1970254,0.04276602,-0.9770969,-0.09200672,-0.1484784,20.78334,-30.47653,-40.49792,1007.906
3.076000690,0.4303966,-0.1970254,-0.01843338,-0.9760358,-0.09738517,-0.1384106,20.78834,-30.90355,-40.94094,1007.906
3.108559608,-0.1233505,0.04089832,-0.1408322,-0.9774933,-0.09931269,-0.1461726,20.78834,-30.90355,-40.94094,1007.906
3.143624306,0.1842867,0.1598602,-0.2632309,-0.9708075,-0.08566669,-0.1353365,20.41687,-30.47918,-40.49673,1007.906
3.176184177,-0.3079329,0.5762267,-0.2632309,-0.9794863,-0.09545082,-0.1461117,20.42418,-30.8404,-40.04804,1007.906
3.208743572,-0.86168,0.2193411,-0.8752249,-0.9815547,-0.08526774,-0.1469211,20.42418,-30.8404,-40.04804,1007.91
3.243808269,-1.230845,0.2788221,-0.8752249,-0.9745924,-0.0982852,-0.1500267,20.78334,-30.47653,-40.49792,1007.91
3.276367187,-0.8001525,0.3977839,-0.8140256,-0.9794702,-0.09500447,-0.1374042,20.42255,-30.84299,-40.49412,1007.91
3.308927059,-0.86168,1.171036,-0.7528262,-0.9746035,-0.09398454,-0.1340097,20.42255,-30.84299,-40.49412,1007.91
3.343991756,-1.230845,1.40896,-0.6304274,-0.9706902,-0.09872251,-0.1495538,20.79065,-30.83776,-40.04923,1007.91
3.376551628,-0.4309878,1.40896,-0.5080286,-0.973667,-0.09390371,-0.148994,20.41282,-30.11278,-40.05327,1007.91
3.409111500,0.491924,1.825327,-0.3856298,-0.9735978,-0.09783494,-0.1393865,20.41282,-30.11278,-40.05327,1007.915
3.441670894,-0.184878,1.230517,-0.3244304,-0.9770791,-0.09394156,-0.1504414,20.0504,-30.48182,-40.49554,1007.915
3.476735115,-0.06182309,1.052074,-0.2632309,-0.9745784,-0.1002134,-0.1534398,20.42092,-30.84557,-40.94019,1007.915
3.509294510,0.2458142,0.6357077,0.2263642,-0.9701393,-0.1045405,-0.1510932,20.42092,-30.84557,-40.94019,1007.915
3.541854381,0.8610888,0.3977839,0.1651648,-0.9765692,-0.09683089,-0.1548364,21.15644,-30.89832,-40.49606,1007.913
3.576919079,-0.4925153,-0.4944302,0.1039654,-0.9780293,-0.09732705,-0.156776,20.78334,-30.47653,-40.49792,1007.913
3.609478950,0.5534515,-0.1375445,0.348763,-0.9691238,-0.1084084,-0.1526033,20.78334,-30.47653,-40.49792,1007.913
3.642037868,1.291781,0.2193411,0.7159594,-0.9741334,-0.09394742,-0.1407768,20.78171,-30.47911,-40.94399,1007.913
3.677102566,0.491924,0.7546695,0.4711618,-0.978107,-0.08909957,-0.1493998,20.78497,-30.47395,-40.05184,1007.915
3.709662437,-0.1233505,0.3977839,-0.01843338,-0.974674,-0.09480691,-0.1668918,20.78497,-30.47395,-40.05184,1007.915
3.742221832,0.491924,-0.2565064,-0.01843338,-0.9746251,-0.09537194,-0.1494989,21.14739,-30.1049,-39.60957,1007.915
3.777286529,0.2458142,0.1003793,-0.3244304,-0.9727295,-0.08811724,-0.1363388,20.78497,-30.47395,-40.05184,1007.915
3.809845447,-0.4925153,0.6357077,-0.4468292,-0.9774848,-0.100755,-0.1495782,20.78497,-30.47395,-40.05184,1007.915
3.842405319,0.2458142,0.6357077,0.04276602,-0.972644,-0.09873692,-0.151969,21.14576,-30.10749,-40.05564,1007.915
3.877470016,-0.3694604,0.4572648,0.2263642,-0.9750707,-0.09925897,-0.1510079,20.42418,-30.8404,-40.04804,1007.915
3.910029888,0.06123182,0.2788221,0.2875636,-0.9740841,-0.1016472,-0.1573291,20.42418,-30.8404,-40.04804,1007.915
3.942589760,0.5534515,0.1003793,0.5935606,-0.973093,-0.1026174,-0.154928,21.5106,-30.10742,-40.50291,1007.918
3.975149155,0.6765064,0.1003793,0.4099624,-0.9737705,-0.08467803,-0.147403,20.77766,-30.11272,-40.50053,1007.916
4.010213375,0.3073416,0.3977839,0.5935606,-0.9755382,-0.1021544,-0.1568521,20.77766,-30.11272,-40.50053,1007.916
4.042772770,0.9841437,0.3977839,0.7771587,-0.9775484,-0.09730972,-0.1591931,21.15712,-30.83511,-40.05042,1007.916
4.075332642,0.9226162,0.04089832,0.5935606,-0.9766213,-0.09102855,-0.1484639,20.78497,-30.47395,-40.05184,1007.914
4.110397339,-0.184878,-0.3159873,0.4711618,-0.9781429,-0.08713175,-0.1546869,20.78497,-30.47395,-40.05184,1007.914
4.142957211,-0.9847348,-0.6133921,0.4099624,-0.9764858,-0.1055443,-0.16222,20.4185,-30.47659,-40.05066,1007.912
4.175517082,-0.0002956353,-1.208201,0.8383582,-0.9717505,-0.09239422,-0.1547733,21.15549,-30.83769,-40.49649,1007.912
4.210580826,-0.7386251,-1.267682,0.8995575,-0.9742369,-0.08614869,-0.1459749,21.15549,-30.83769,-40.49649,1007.912
4.243140697,-0.06182309,-1.446125,1.266754,-0.9750871,-0.09875328,-0.1553505,20.79065,-30.83776,-40.04923,1007.917
4.275700092,-0.06182309,-1.624568,0.8995575,-0.9760531,-0.09640237,-0.1408124,20.79728,-31.2622,-40.04619,1007.915
4.310764789,0.1227593,-1.446125,1.817549,-0.9681833,-0.1050054,-0.1501354,20.78902,-30.84034,-40.49531,1007.915
4.343324661,1.476363,-1.029759,2.245944,-0.9765585,-0.09399675,-0.1369082,20.78902,-30.84034,-40.49531,1007.913
4.375883579,0.6729386,-0.1353114,2.359756,-0.9742385,-0.08519446,-0.1420933,20.05608,-30.84563,-40.49293,1007.913
4.408443451,1.593507,1.232297,2.902456,-0.9751082,-0.09348299,-0.1388353,20.05608,-30.84563,-40.49293,1007.911
4.443508148,2.331837,2.183992,2.963656,-0.974284,-0.08178211,-0.1444581,20.4235,-30.90362,-40.49368,1007.911
4.476068020,2.147254,3.195168,2.780057,-0.9738064,-0.0798563,-0.139112,20.43407,-31.25968,-39.15285,1007.91
4.508627415,1.408925,3.671016,1.739668,-0.9822361,-0.06922369,-0.1500593,21.16538,-31.25697,-39.6013,1007.911
4.543692112,0.7936503,3.31413,1.311272,-0.9689276,-0.08313922,-0.1512512,21.16538,-31.25697,-39.6013,1007.911
4.576251030,1.655035,3.373611,1.739668,-0.9802067,-0.07695746,-0.1535629,20.79728,-31.2622,-40.04619,1007.911
4.608810902,0.609068,3.492573,2.168063,-0.9782581,-0.07598222,-0.1487162,20.79065,-30.83776,-40.04923,1007.91
4.643875599,-0.4368988,3.135687,2.718858,-0.9713589,-0.0865064,-0.1658016,20.79065,-30.83776,-40.04923,1007.914
4.676435471,-0.06773406,2.005549,2.412861,-0.979334,-0.07247927,-0.1737973,20.44054,-31.99505,-40.48585,1007.914
4.708995342,-0.6214812,0.9348923,2.718858,-0.9744126,-0.07679115,-0.1733844,20.81596,-32.35105,-39.59228,1007.914
4.744059086,1.162815,0.3995638,2.841257,-0.9754636,-0.06762653,-0.1611592,20.81596,-32.35105,-39.59228,1007.912
4.776618957,0.5475405,0.6969685,2.229263,-0.9720645,-0.06756449,-0.1650285,21.16375,-31.25955,-40.04737,1007.911
4.809178352,0.7936503,0.3995638,2.229263,-0.975826,-0.07927492,-0.1656869,20.43975,-31.62349,-39.15025,1007.911
4.841738224,0.7936503,0.7564495,2.53526,-0.9787671,-0.07499696,-0.153051,20.43975,-31.62349,-39.15025,1007.911
4.876802921,0.7321229,0.8159304,3.024855,-0.9705236,-0.07577733,-0.1714392,20.80459,-31.62343,-39.5975,1007.909
4.909362793,2.454892,0.221121,2.841257,-0.9765074,-0.06465784,-0.1756142,21.17675,-31.98459,-39.59608,1007.909
4.941922665,2.024199,0.5780066,2.168063,-0.968731,-0.05882203,-0.1542641,21.17675,-31.98459,-39.59608,1007.913
4.976986408,2.516419,0.6969685,1.617269,-0.9795246,-0.0545336,-0.1662727,20.8119,-31.98466,-39.14882,1007.912
5.009546280,1.716562,0.8754113,1.311272,-0.9692025,-0.06075883,-0.1571934,21.18406,-32.34582,-39.1474,1007.912
5.042105675,0.4860131,0.1021592,1.556069,-0.9769105,-0.07147571,-0.1737843,21.18406,-32.34582,-39.1474,1007.908
5.077170372,1.53198,0.5780066,2.474061,-0.9720312,-0.06952791,-0.1607081,20.81922,-32.34588,-38.70014,1007.908
5.109730244,2.024199,0.9348923,2.902456,-0.9760484,-0.06032006,-0.1663643,20.0887,-32.72015,-39.58729,1007.907
5.142290115,2.577947,0.9348923,2.657659,-0.969704,-0.05931184,-0.1562041,20.0887,-32.72015,-39.58729,1007.907
5.177353859,1.839617,0.4590448,2.351662,-0.9776924,-0.04383358,-0.1627275,21.19542,-33.07344,-39.14217,1007.907
5.209913730,0.7321229,0.1021592,1.311272,-0.9767135,-0.04668359,-0.174373,20.82732,-33.07867,-39.58706,1007.905
5.242473602,1.716562,-0.8495359,1.372471,-0.9784749,-0.06226907,-0.1721922,20.82732,-33.07867,-39.58706,1007.905
5.275032997,2.454892,-1.14694,0.9440755,-0.9742978,-0.0447148,-0.1728952,20.46411,-33.07615,-38.69373,1007.905
5.310097694,-0.4368988,-0.8495359,0.8216767,-0.9756702,-0.04870024,-0.1555531,20.82895,-33.07609,-39.14099,1007.907
5.342656612,0.6705954,-0.1952455,1.250072,-0.9795539,-0.05210186,-0.1667189,20.82895,-33.07609,-39.14099,1007.905
5.375216484,0.8551778,-0.01680271,1.49487,-0.9746112,-0.05692822,-0.16003,20.46956,-33.44033,-38.75484,1007.905
5.410281181,0.9167053,-0.07628365,1.372471,-0.9757659,-0.04329371,-0.1690051,20.46085,-33.08132,-39.58587,1007.905
5.442841053,0.3014307,-0.730574,0.6380785,-0.9782598,-0.03893689,-0.1723198,20.46085,-33.08132,-39.58587,1007.905
5.475400925,0.3014307,-1.08746,0.08728392,-0.9702763,-0.0529794,-0.1609407,20.46653,-33.44513,-39.58326,1007.905
5.510465145,1.408925,-0.9684978,0.3320815,-0.9780642,-0.05356251,-0.1619089,20.82327,-32.71228,-39.1436,1007.904
5.543025017,1.101288,-0.3736883,0.08728392,-0.9751896,-0.04915782,-0.1603943,20.82327,-32.71228,-39.1436,1007.908
5.575583935,-0.4368988,-0.1952455,0.02608453,-0.9732403,-0.0486597,-0.1574883,20.46816,-33.44255,-39.13719,1007.908
5.610648632,-0.6214812,-0.01680271,-0.1575137,-0.9844596,-0.04781855,-0.1608483,20.833,-33.44248,-39.58445,1007.906
5.643208504,-0.7445361,-0.3142074,0.2096827,-0.9770761,-0.05547806,-0.1653227,20.833,-33.44248,-39.58445,1007.906
5.675768375,0.3014307,0.1021592,0.2096827,-0.9770782,-0.05357179,-0.1570762,21.55621,-32.70698,-39.14597,1007.906
5.710832596,0.2399032,0.4590448,0.3932809,-0.9733487,-0.03942523,-0.1578307,21.2011,-33.43725,-39.13956,1007.906
5.743392467,-0.7445361,0.280602,0.08728392,-0.9741903,-0.05347215,-0.170612,21.2011,-33.43725,-39.13956,1007.904
5.775951862,-0.1292615,-0.4926502,-0.03511487,-0.9704167,-0.04321067,-0.1719092,20.10169,-33.44519,-39.136,1007.904
5.808511734,0.6705954,-0.730574,-0.09631427,-0.9780192,-0.05602282,-0.1551792,21.19379,-33.07602,-39.58825,1007.91
5.843575954,0.3014307,-0.07628365,0.3320815,-0.9776493,-0.04581458,-0.1545404,21.19379,-33.07602,-39.58825,1007.91
5.876135826,-0.006206609,0.3995638,-0.5247101,-0.9811784,-0.03517562,-0.1529246,20.82732,-33.07867,-39.58706,1007.909
5.908695698,-0.9906458,0.4590448,-0.4635107,-0.9746152,-0.0588235,-0.1706932,21.19379,-33.07602,-39.58825,1007.907
5.943759918,0.4244856,-0.1357646,-0.2187131,-0.9782152,-0.04044516,-0.1612252,21.19379,-33.07602,-39.58825,1007.907
5.976319313,-1.359811,-0.3142074,-0.2799125,-0.9736994,-0.05299748,-0.1667382,20.47384,-33.80635,-39.13457,1007.905
6.008879185,0.1783758,-0.07628365,-0.1575137,-0.9742495,-0.04765663,-0.1671396,20.10169,-33.44519,-39.136,1007.903
6.043943405,-0.4984263,0.4590448,-0.2187131,-0.9717569,-0.04915733,-0.1507301,20.82732,-33.07867,-39.58706,1007.902
6.076503277,0.2399032,0.4590448,0.02608453,-0.9791664,-0.04382846,-0.1680432,20.82732,-33.07867,-39.58706,1007.906
6.109063149,-0.3753713,0.221121,-0.1575137,-0.9751734,-0.05299235,-0.1720539,20.4568,-32.71492,-39.14241,1007.906
6.144127369,0.9782327,-0.4926502,0.02608453,-0.9747098,-0.05056525,-0.1700838,20.45517,-32.71751,-39.58848,1007.907
6.176687241,-0.3138439,-0.5521312,-0.3411119,-0.9810681,-0.04488941,-0.1540396,20.45517,-32.71751,-39.58848,1007.906
6.209246635,-1.052173,-0.3142074,-0.6471089,-0.9751006,-0.05693017,-0.1609963,20.83463,-33.4399,-39.13837,1007.906
6.241806507,-0.006206609,-0.671093,-0.2187131,-0.9722686,-0.05006957,-0.1652448,20.833,-33.44248,-39.58445,1007.906
6.276870727,-0.006206609,-0.5521312,-0.4023113,-0.9819182,-0.05749399,-0.1634153,20.833,-33.44248,-39.58445,1007.906
6.309430599,0.2399032,-0.2547265,0.1484833,-0.9746492,-0.05162717,-0.1502816,20.09601,-33.08138,-39.13861,1007.906
6.341990471,-0.3138439,-0.01680271,-0.1575137,-0.9771816,-0.04577307,-0.1622743,20.4568,-32.71492,-39.14241,1007.906
6.377054691,-0.4984263,-0.07628365,-0.1575137,-0.9721619,-0.06120372,-0.1745989,20.4568,-32.71492,-39.14241,1007.906
6.409614086,-0.1292615,-0.8495359,-0.1575137,-0.9786409,-0.04674635,-0.1661547,20.82895,-33.07609,-39.14099,1007.906
6.442173958,-0.7445361,-0.9684978,-0.6471089,-0.979067,-0.05066855,-0.1599302,20.82895,-33.07609,-39.14099,1007.906
6.477238178,-0.5599537,-0.6116121,-0.2187131,-0.9726737,-0.05450624,-0.1527443,20.82895,-33.07609,-39.14099,1007.907
6.509798050,-0.06773406,-0.1357646,0.08728392,-0.9717774,-0.04911997,-0.1589469,20.09438,-33.08397,-39.58468,1007.912
6.542357921,0.4860131,0.1021592,-0.1575137,-0.9717822,-0.04911118,-0.1608803,20.09601,-33.08138,-39.13861,1007.912
6.577422619,-0.2523164,0.1616401,-0.2799125,-0.9728345,-0.04327319,-0.1651406,20.09601,-33.08138,-39.13861,1007.91
6.609982014,0.1168483,0.1616401,-0.4635107,-0.9785792,-0.05256628,-0.1686604,20.82895,-33.07609,-39.14099,1007.909
6.642541408,0.5475405,-0.07628365,-0.4023113,-0.9746926,-0.04869413,-0.1541038,21.18648,-32.71479,-40.03693,1007.909
6.675101280,-0.3753713,-0.2547265,-0.5859095,-0.9741775,-0.05254429,-0.1609303,21.18648,-32.71479,-40.03693,1007.909
6.710165501,0.1783758,-0.4926502,-0.2187131,-0.972645,-0.05788783,-0.1571463,20.46248,-33.07874,-39.1398,1007.909
6.742725372,0.1168483,-0.4926502,-0.6471089,-0.9757181,-0.0452835,-0.1588846,20.82895,-33.07609,-39.14099,1007.914
6.775285244,-0.6830086,-0.790055,-0.5859095,-0.9751343,-0.05544167,-0.1677409,20.82895,-33.07609,-39.14099,1007.913
6.810349941,-0.6214812,-0.790055,-0.5247101,-0.9780626,-0.05308979,-0.1590014,20.81758,-32.34846,-39.14621,1007.913
6.842909336,-0.8060635,-0.6116121,-0.2799125,-0.9678243,-0.05393046,-0.1585407,20.46816,-33.44255,-39.13719,1007.914
6.875468731,-0.4368988,-0.8495359,-0.1575137,-0.9751103,-0.05548563,-0.158074,20.46816,-33.44255,-39.13719,1007.914
6.910532951,-0.4368988,-0.790055,-0.1575137,-0.9757136,-0.04719417,-0.1661644,20.46248,-33.07874,-39.1398,1007.913
6.943092823,-0.06773406,-1.206421,-0.1575137,-0.979059,-0.05115885,-0.158971,20.46816,-33.44255,-39.13719,1007.913
6.975652695,-0.06773406,-1.265902,-0.2799125,-0.9692985,-0.05107141,-0.1502783,20.46816,-33.44255,-39.13719,1007.913
7.010717392,0.609068,-0.9684978,-0.4023113,-0.9742403,-0.04672217,-0.1589079,20.82001,-32.71744,-40.03574,1007.913
7.043277264,-0.3138439,-0.8495359,0.02608453,-0.9745365,-0.06134535,-0.1504299,20.45922,-33.0839,-40.03194,1007.911
7.075836658,1.224343,-0.671093,0.1484833,-0.9766237,-0.0487503,-0.1473355,20.45922,-33.0839,-40.03194,1007.909
7.108396053,-0.3753713,-0.730574,-0.2187131,-0.9806004,-0.04484789,-0.1617735,20.46085,-33.08132,-39.58587,1007.909
7.143460274,0.9782327,-1.14694,-0.2799125,-0.9745731,-0.05747346,-0.1469872,20.82001,-32.71744,-40.03574,1007.909
7.176020145,0.3014307,-0.4926502,-0.2187131,-0.9790023,-0.05411606,-0.149832,20.82001,-32.71744,-40.03574,1007.912
7.208580017,0.8551778,-0.790055,-0.3411119,-0.977586,-0.05258874,-0.1609277,20.46248,-33.07874,-39.1398,1007.913
7.243644714,-0.190789,-0.730574,-0.5859095,-0.9731615,-0.05403547,-0.1508031,20.82164,-32.71486,-39.58967,1007.912
7.276204586,-0.006206609,-0.2547265,-0.5247101,-0.9761596,-0.04727524,-0.1497304,20.82164,-32.71486,-39.58967,1007.912
7.308763981,-0.3753713,-0.01680271,-0.4635107,-0.9779946,-0.05701882,-0.1498772,20.46248,-33.07874,-39.1398,1007.912
7.343828201,0.2399032,-0.2547265,-0.4635107,-0.9751031,-0.05549881,-0.155174,20.45922,-33.0839,-40.03194,1007.912
7.376387596,0.1783758,-0.1952455,-0.2187131,-0.9809682,-0.05268154,-0.1502916,20.45922,-33.0839,-40.03194,1007.912
7.408947468,-0.190789,-0.01680271,-0.5247101,-0.9732138,-0.05013501,-0.1536438,20.46816,-33.44255,-39.13719,1007.91
7.444012165,0.1783758,-0.2547265,-0.3411119,-0.9770585,-0.05455899,-0.1537076,20.82001,-32.71744,-40.03574,1007.911
7.476572037,0.1783758,-0.1952455,-0.4635107,-0.9809172,-0.05657979,-0.1479342,20.82001,-32.71744,-40.03574,1007.911
7.509131908,-0.190789,-0.3142074,-0.4635107,-0.9711435,-0.06127233,-0.156716,20.82732,-33.07867,-39.58706,1007.911
7.541691303,0.6705954,-0.07628365,-0.5247101,-0.9794558,-0.05751279,-0.1523003,20.82732,-33.07867,-39.58706,1007.911
7.576755524,-0.5599537,0.04267823,-0.5859095,-0.9770191,-0.05796035,-0.1537595,20.82732,-33.07867,-39.58706,1007.911
7.609314918,0.1168483,0.1021592,-0.7695076,-0.9721045,-0.06035717,-0.1470336,20.45922,-33.0839,-40.03194,1007.911
7.641874790,-0.5599537,0.280602,-0.5859095,-0.9789338,-0.06042409,-0.1518618,20.46085,-33.08132,-39.58587,1007.911
7.676939487,0.3629581,0.3995638,-0.03511487,-0.9804084,-0.05946693,-0.1528125,20.46085,-33.08132,-39.58587,1007.909
7.709499359,-0.1292615,0.4590448,-0.1575137,-0.980974,-0.05076867,-0.1434951,20.46653,-33.44513,-39.58326,1007.907
7.742059231,-0.2523164,0.3995638,-0.2799125,-0.9740925,-0.05935801,-0.1586175,20.45517,-32.71751,-39.58848,1007.911
7.777123451,0.05532085,0.280602,-0.5247101,-0.9760312,-0.05702199,-0.1435953,20.45517,-32.71751,-39.58848,1007.908
7.809682846,-0.3753713,0.1616401,-0.5247101,-0.9760569,-0.05887772,-0.1629586,21.18974,-32.70963,-39.14479,1007.906
7.842242241,0.1168483,0.04267823,-0.4635107,-0.9779728,-0.05991229,-0.1547551,20.45517,-32.71751,-39.58848,1007.906
7.877306938,-0.190789,0.221121,-0.7695076,-0.9741269,-0.05406355,-0.147419,20.4568,-32.71492,-39.14241,1007.906
7.909866810,-0.2523164,0.3995638,-0.2799125,-0.9768745,-0.07011467,-0.152495,20.4568,-32.71492,-39.14241,1007.906
7.942426682,0.4244856,0.8754113,-0.09631427,-0.9770896,-0.05117301,-0.1502723,20.82164,-32.71486,-39.58967,1007.904
7.974986553,-0.4984263,0.4590448,-0.03511487,-0.9760371,-0.05986492,-0.1595901,20.82164,-32.71486,-39.58967,1007.904
8.010050774,0.4244856,0.5185257,-0.03511487,-0.9784199,-0.06284509,-0.1523826,20.82164,-32.71486,-39.58967,1007.904
8.042610645,0.05532085,0.9943733,-0.09631427,-0.9775608,-0.05263489,-0.1507775,20.82164,-32.71486,-39.58967,1007.903
8.075169563,-0.06773406,0.6969685,-0.2187131,-0.9755124,-0.06087874,-0.1489718,20.45517,-32.71751,-39.58848,1007.907
8.110234261,0.4244856,0.8754113,0.02608453,-0.9751582,-0.05064192,-0.1546164,20.45517,-32.71751,-39.58848,1007.907
8.142794132,-0.06773406,0.6374876,-0.2187131,-0.9774963,-0.05941124,-0.1566815,20.82732,-33.07867,-39.58706,1007.905
8.175354004,0.1168483,0.5780066,-0.2799125,-0.9760106,-0.06134023,-0.1557456,20.46248,-33.07874,-39.1398,1007.905
8.210418224,0.609068,0.7564495,-0.4023113,-0.9746372,-0.05164915,-0.1454482,20.46248,-33.07874,-39.1398,1007.903
8.242978096,-0.9906458,0.6969685,-0.09631427,-0.9744868,-0.06857026,-0.1645582,20.4568,-32.71492,-39.14241,1007.903
8.275537968,0.9782327,0.3400829,-0.03511487,-0.9712272,-0.05588778,-0.1653346,20.82164,-32.71486,-39.58967,1007.905
8.310602665,-0.5599537,-0.07628365,-0.09631427,-0.9775486,-0.05551079,-0.1595222,20.82164,-32.71486,-39.58967,1007.909
8.343161583,0.1783758,0.1616401,-0.03511487,-0.9774403,-0.0633183,-0.1523908,20.82327,-32.71228,-39.1436,1007.909
8.375721454,-0.06773406,0.280602,0.2096827,-0.9760678,-0.05457706,-0.1469416,20.4568,-32.71492,-39.14241,1007.909
8.410785675,-0.006206609,0.5185257,-0.2187131,-0.9770618,-0.05407748,-0.1527335,20.4568,-32.71492,-39.14241,1007.911
8.443345547,-0.1292615,0.280602,-0.2799125,-0.9726381,-0.05980289,-0.1634594,20.45922,-33.0839,-40.03194,1007.911
8.475905418,-0.2523164,0.1616401,0.08728392,-0.9755494,-0.05890873,-0.1547422,20.45517,-32.71751,-39.58848,1007.913
8.508465290,-0.8060635,0.1616401,-0.09631427,-0.9741534,-0.0540152,-0.1580525,20.45517,-32.71751,-39.58848,1007.913
8.543529987,-0.8060635,-0.2547265,0.2096827,-0.9768717,-0.07107111,-0.1558932,20.45111,-32.35111,-39.14502,1007.913
8.576089382,0.3014307,0.1021592,0.2096827,-0.9765957,-0.05450869,-0.1633748,21.19379,-33.07602,-39.58825,1007.911
8.608648777,-0.5599537,-0.1952455,0.4544803,-0.9725693,-0.06420904,-0.1562761,21.19379,-33.07602,-39.58825,1007.913
8.643712997,-0.3138439,-0.6116121,0.4544803,-0.9790613,-0.05258142,-0.1667267,20.45517,-32.71751,-39.58848,1007.911
8.676272869,-0.8060635,-0.790055,0.3320815,-0.9754829,-0.0661644,-0.1621036,21.19379,-33.07602,-39.58825,1007.915
8.708832741,0.05532085,-1.08746,0.8216767,-0.9749919,-0.06426276,-0.1514408,21.19379,-33.07602,-39.58825,1007.915
8.743897438,-0.4368988,-1.325383,0.5768791,-0.9751489,-0.05256139,-0.1599629,20.45111,-32.35111,-39.14502,1007.914
8.776457310,0.4860131,-1.265902,0.4544803,-0.9804945,-0.05407797,-0.1623978,20.45517,-32.71751,-39.58848,1007.914
8.809016705,-0.006206609,-0.730574,0.2708821,-0.9750322,-0.06038428,-0.1494481,20.45517,-32.71751,-39.58848,1007.914
8.844080925,0.9167053,-0.4331693,0.6380785,-0.9775463,-0.05408822,-0.1517665,20.4568,-32.71492,-39.14241,1007.914
8.876640320,0.3014307,-0.6116121,0.2708821,-0.9785077,-0.05507494,-0.1512972,21.19379,-33.07602,-39.58825,1007.914
8.909200191,-0.4368988,-0.790055,0.1484833,-0.9785221,-0.05504857,-0.1570973,21.19379,-33.07602,-39.58825,1007.914
8.941760063,-0.6214812,-1.027979,0.1484833,-0.9789523,-0.05943909,-0.154747,20.45517,-32.71751,-39.58848,1007.914
8.976824760,-0.06773406,-1.027979,0.1484833,-0.9731836,-0.05161691,-0.1483493,20.4568,-32.71492,-39.14241,1007.914
9.009384632,-0.190789,-0.790055,0.1484833,-0.9739827,-0.0666928,-0.1485786,20.4568,-32.71492,-39.14241,1007.916
9.041944027,0.1783758,-0.4926502,0.2708821,-0.9784292,-0.06235258,-0.1538252,20.45922,-33.0839,-40.03194,1007.916
9.077008724,1.28587,0.5185257,0.3320815,-0.9746646,-0.04826976,-0.1405628,21.19379,-33.07602,-39.58825,1007.918
9.109568596,-0.6214812,0.3995638,0.02608453,-0.9771161,-0.0496977,-0.1541168,21.19379,-33.07602,-39.58825,1007.918
9.142127514,-0.4984263,0.280602,-0.7083083,-0.9824762,-0.04976096,-0.1555627,20.83463,-33.4399,-39.13837,1007.916
9.177192211,-3.144107,-0.730574,-1.259103,-0.9736168,-0.0598068,-0.1653921,20.82164,-32.71486,-39.58967,1007.916
9.209752083,-0.1292615,-1.265902,-0.5859095,-0.9773457,-0.07157656,-0.1530002,20.82164,-32.71486,-39.58967,1007.916
9.242311954,-1.544393,-1.682269,-0.7083083,-0.9854543,-0.04208604,-0.1419082,20.09033,-32.71757,-39.14122,1007.914
9.277376175,-1.85203,-1.325383,-0.8307071,-0.9755229,-0.06038404,-0.1508977,19.72059,-32.72538,-40.03217,1007.914
9.309936046,-1.913558,-1.08746,-0.6471089,-0.9743983,-0.07253665,-0.1472172,19.72059,-32.72538,-40.03217,1007.913
9.342495918,-1.175228,-0.2547265,-0.7083083,-0.9863759,-0.04457224,-0.1322777,20.45354,-32.72009,-40.03455,1007.914
9.375055790,-4.928403,-0.671093,-1.381502,-0.9755489,-0.05986077,-0.1591071,20.81596,-32.35105,-39.59228,1007.914
9.410120010,-0.6214812,-0.2547265,-0.4023113,-0.9631193,-0.07871841,-0.1449055,20.81596,-32.35105,-39.59228,1007.913
9.442679405,0.4244856,0.280602,-0.03511487,-0.9844682,-0.04352228,-0.1438646,20.82164,-32.71486,-39.58967,1007.915
9.475239277,-0.6830086,0.3400829,-0.5859095,-0.9813687,-0.05902888,-0.1450709,20.44785,-32.35628,-40.03716,1007.913
9.510303497,-1.236756,0.1616401,-0.6471089,-0.9789922,-0.05508569,-0.1503302,20.44785,-32.35628,-40.03716,1007.912
9.542863369,-1.113701,0.280602,-0.7695076,-0.9780297,-0.05410117,-0.1503161,20.08707,-32.72274,-40.03336,1007.912
9.575423241,-1.85203,-0.730574,-0.7083083,-0.9804124,-0.05993525,-0.1566867,20.45354,-32.72009,-40.03455,1007.912
9.610487461,-0.867591,-1.325383,-0.6471089,-0.9750624,-0.05890238,-0.1547426,20.45354,-32.72009,-40.03455,1007.91
9.643047333,-1.359811,-1.622788,-0.7083083,-0.975539,-0.05797647,-0.1460272,20.44785,-32.35628,-40.03716,1007.908
9.675607204,-0.6830086,-1.860712,-0.6471089,-0.9769849,-0.05897393,-0.1445909,20.44785,-32.35628,-40.03716,1007.912
9.710671902,-1.359811,-1.801231,-0.2187131,-0.9793274,-0.06725954,-0.1461652,20.44217,-31.99247,-40.03978,1007.912
9.743230820,-0.4984263,-1.682269,0.5768791,-0.9773636,-0.06678779,-0.1374591,20.44217,-31.99247,-40.03978,1007.912
9.775790691,-0.4368988,-0.790055,0.4544803,-0.9794431,-0.05515797,-0.1358295,20.08138,-32.35892,-40.03597,1007.912
9.808350563,-0.3753713,-0.5521312,0.4544803,-0.9765519,-0.05553984,-0.1503394,20.08138,-32.35892,-40.03597,1007.91
9.843414783,-0.3753713,-0.9090168,0.3932809,-0.9848277,-0.05422522,-0.1425774,20.44381,-31.98989,-39.5937,1007.91
9.875974655,-0.5599537,-0.790055,0.5156797,-0.9725328,-0.06380004,-0.1393517,20.81269,-32.35622,-40.48443,1007.915
9.908534527,-0.006206609,-0.9090168,0.6992779,-0.9765302,-0.05700636,-0.1484283,20.44785,-32.35628,-40.03716,1007.915
9.943599224,0.1783758,-0.5521312,0.882876,-0.9778457,-0.06822989,-0.1423144,20.44785,-32.35628,-40.03716,1007.915
9.976159096,1.224343,-0.1357646,0.9440755,-0.9809365,-0.05369071,-0.1420896,20.08138,-32.35892,-40.03597,1007.915
10.008718491,-0.1292615,0.3995638,0.3932809,-0.9867983,-0.05135494,-0.1381813,20.44622,-32.35886,-40.48324,1007.915
10.043782711,1.470452,0.8754113,0.9440755,-0.9729377,-0.07109064,-0.1404293,20.44622,-32.35886,-40.48324,1007.915
10.076342106,1.839617,1.351259,1.250072,-0.9805157,-0.04738073,-0.1390935,20.81837,-32.72002,-40.48182,1007.915
10.108901978,1.655035,1.291778,1.005275,-0.9785175,-0.05220344,-0.1415859,20.08138,-32.35892,-40.03597,1007.915
10.143966675,1.655035,1.172816,0.8216767,-0.981845,-0.06095689,-0.1499336,20.08138,-32.35892,-40.03597,1007.919
10.176526547,3.070166,1.351259,0.882876,-0.9819542,-0.05124529,-0.1483352,21.18648,-32.71479,-40.03693,1007.919
10.209086418,1.901145,1.41074,0.6992779,-0.9722568,-0.04581066,-0.1400442,20.44622,-32.35886,-40.48324,1007.919
10.241645813,1.03976,1.648664,0.02608453,-0.9829583,-0.0497761,-0.1536289,20.44622,-32.35886,-40.48324,1007.919
10.276710510,0.05532085,1.053854,0.3320815,-0.9691724,-0.06224073,-0.1518989,20.46225,-33.07911,-39.20352,1007.919
10.309270382,-0.4368988,0.9348923,0.6380785,-0.9823007,-0.06244734,-0.1441554,20.4519,-32.72267,-40.48063,1007.917
10.341830253,-0.190789,0.3995638,0.9440755,-0.9678307,-0.05296743,-0.1565925,20.4519,-32.72267,-40.48063,1007.919
10.376893997,2.639474,0.3400829,0.6992779,-0.9790483,-0.04832471,-0.1410428,20.09275,-33.08655,-40.03075,1007.919
10.409453869,0.5475405,0.6374876,-0.5247101,-0.9718964,-0.03510991,-0.1408481,20.82732,-33.07867,-39.58706,1007.919
10.442013740,-0.006206609,1.113335,-0.2799125,-0.9755374,-0.05893071,-0.1499088,20.82732,-33.07867,-39.58706,1007.923
10.477077961,1.470452,1.172816,-0.2799125,-0.9834419,-0.05026396,-0.1546027,20.45517,-32.71751,-39.58848,1007.923
10.509637833,0.7936503,0.9943733,-0.5247101,-0.974679,-0.04967035,-0.153152,20.08707,-32.72274,-40.03336,1007.923
10.542197704,1.162815,0.9348923,-0.6471089,-0.9780334,-0.05266761,-0.144977,20.08707,-32.72274,-40.03336,1007.923
10.577261925,-0.190789,1.172816,-0.9531059,-0.9742557,-0.04336476,-0.1491892,20.82001,-32.71744,-40.03574,1007.923
10.609821796,-0.4368988,0.9348923,-0.8919064,-0.9784698,-0.06037598,-0.1610457,20.44785,-32.35628,-40.03716,1007.923
10.642381668,0.1168483,0.3995638,-0.5859095,-0.9808868,-0.06091562,-0.1562178,20.44785,-32.35628,-40.03716,1007.923
10.677445412,0.3629581,0.5780066,-0.7695076,-0.9746765,-0.04967474,-0.1521853,20.08302,-32.35634,-39.5899,1007.922
10.710005283,0.05532085,0.3995638,-0.8919064,-0.9745114,-0.06329339,-0.1494929,20.82164,-32.71486,-39.58967,1007.922
10.742565155,1.28587,0.7564495,-0.2799125,-0.9808785,-0.05950404,-0.1460453,20.82164,-32.71486,-39.58967,1007.922
10.775125027,-1.790503,0.8754113,-1.075505,-0.9816102,-0.04003887,-0.1534817,20.82001,-32.71744,-40.03574,1007.922
10.810189247,-1.359811,0.3400829,-0.6471089,-0.9711036,-0.06562574,-0.1611329,20.82164,-32.71486,-39.58967,1007.922
10.842749119,0.3014307,0.5185257,-0.3411119,-0.9740681,-0.05892704,-0.1465265,20.82164,-32.71486,-39.58967,1007.92
10.875308990,-0.4984263,0.3400829,-0.5247101,-0.9736599,-0.05497188,-0.1600011,20.44381,-31.98989,-39.5937,1007.92
10.910373688,-0.6214812,-0.1357646,-0.4635107,-0.9745657,-0.06176753,-0.1644543,20.45657,-32.71529,-39.20613,1007.922
10.942933083,0.4244856,-0.5521312,-0.2799125,-0.9721138,-0.05986467,-0.1484762,20.45657,-32.71529,-39.20613,1007.922
10.975492954,0.5475405,-0.3142074,-0.2799125,-0.9810053,-0.04928456,-0.1492729,20.82164,-32.71486,-39.58967,1007.922
11.010557652,-1.359811,-0.5521312,-0.7695076,-0.9745303,-0.0627833,-0.1548023,21.18811,-32.71221,-39.59086,1007.92
11.043116570,-0.7445361,-0.8495359,-0.4023113,-0.9739907,-0.06762945,-0.1563269,21.18811,-32.71221,-39.59086,1007.92
11.075676441,-0.6214812,-0.790055,-0.09631427,-0.9799851,-0.0545883,-0.1556388,21.17511,-31.98717,-40.04215,1007.919
11.110741138,-1.113701,-0.8495359,-0.3411119,-0.9746431,-0.05306511,-0.1546539,20.08302,-32.35634,-39.5899,1007.919
11.143301010,-2.528832,-0.9090168,-0.2799125,-0.9842772,-0.06384695,-0.1625431,20.08302,-32.35634,-39.5899,1007.919
11.175860405,-1.359811,-1.206421,0.5156797,-0.9719905,-0.07150451,-0.1534877,21.55458,-32.70957,-39.59205,1007.919
11.208420276,-0.6830086,-0.8495359,0.5156797,-0.9780547,-0.05072618,-0.144464,20.81596,-32.35105,-39.59228,1007.923
11.243484974,-0.4984263,-1.027979,0.4544803,-0.9750254,-0.06087239,-0.1489721,20.81596,-32.35105,-39.59228,1007.921
11.276044845,0.1783758,-0.9090168,0.6380785,-0.9769949,-0.05943127,-0.1508818,20.81596,-32.35105,-39.59228,1007.921
11.308604717,0.5475405,-1.206421,0.6380785,-0.9755559,-0.0579457,-0.152794,21.17675,-31.98459,-39.59608,1007.923
11.343668938,0.4860131,-1.027979,0.5768791,-0.9770066,-0.05750741,-0.146502,21.17675,-31.98459,-39.59608,1007.923
11.376228809,0.3629581,-0.730574,0.3932809,-0.9779959,-0.05558966,-0.1435715,20.45517,-32.71751,-39.58848,1007.921
11.408787727,-0.1292615,-0.671093,0.08728392,-0.9794937,-0.0536387,-0.1493408,20.81269,-32.35622,-40.48443,1007.921
11.443852424,-0.190789,-0.8495359,0.08728392,-0.9785371,-0.0526432,-0.1517435,20.44785,-32.35628,-40.03716,1007.921
11.476412296,0.05532085,-0.671093,0.02608453,-0.9740323,-0.06089485,-0.1412394,20.44785,-32.35628,-40.03716,1007.921
11.508972168,-0.06773406,-0.4926502,0.2096827,-0.9780136,-0.05365481,-0.1416085,20.45354,-32.72009,-40.03455,1007.921
11.544036388,-0.7445361,-0.4926502,-0.03511487,-0.9814536,-0.05221516,-0.1473837,20.45354,-32.72009,-40.03455,1007.919
11.576596260,-0.3138439,0.1616401,-0.03511487,-0.9780288,-0.05457829,-0.1522569,20.45354,-32.72009,-40.03455,1007.922
11.609156132,0.1783758,0.04267823,0.2096827,-0.9750448,-0.05798331,-0.1431275,20.08138,-32.35892,-40.03597,1007.922
11.641716003,0.1168483,0.221121,0.02608453,-0.9731071,-0.05841524,-0.1494199,20.45517,-32.71751,-39.58848,1007.922
11.676780224,0.5475405,0.5185257,-0.1575137,-0.978538,-0.05073912,-0.1430136,20.45517,-32.71751,-39.58848,1007.922
11.709340095,-0.3753713,0.6374876,-0.2187131,-0.9750899,-0.05409603,-0.1430682,21.18484,-32.71738,-40.483,1007.922
11.741899967,0.3014307,0.7564495,-0.4023113,-0.9794534,-0.05609022,-0.1445445,20.44217,-31.99247,-40.03978,1007.92
11.776963711,-0.5599537,0.9348923,-0.4635107,-0.978451,-0.05945911,-0.1489473,20.44217,-31.99247,-40.03978,1007.919
11.809523582,0.7321229,1.41074,0.08728392,-0.9779938,-0.05749594,-0.151818,20.0887,-32.72015,-39.58729,1007.919
11.842083454,0.3014307,1.291778,0.08728392,-0.9780337,-0.05456949,-0.1541902,20.81977,-32.71781,-40.09946,1007.917
11.877148151,0.4244856,0.3995638,0.08728392,-0.9794989,-0.05553179,-0.1604874,20.81977,-32.71781,-40.09946,1007.921
11.909707546,-0.3138439,0.04267823,-0.2799125,-0.9804551,-0.05605238,-0.1556606,20.82243,-33.08642,-40.92528,1007.921
11.942267418,0.4244856,0.04267823,-0.03511487,-0.975477,-0.06332146,-0.1461088,20.81596,-32.35105,-39.59228,1007.919
11.977332115,0.1168483,0.1021592,-0.09631427,-0.9795219,-0.05120915,-0.1493037,20.81596,-32.35105,-39.59228,1007.919
12.009891987,-0.006206609,-0.07628365,-0.09631427,-0.9740322,-0.06374877,-0.1548175,20.82001,-32.71744,-40.03574,1007.918
12.042451859,0.3014307,-0.2547265,-0.03511487,-0.9750382,-0.06037329,-0.1518648,20.82001,-32.71744,-40.03574,1007.916
12.075011253,0.609068,-0.1357646,0.1484833,-0.9755652,-0.05602624,-0.1474476,20.82001,-32.71744,-40.03574,1007.916
12.110075951,0.7321229,-0.07628365,0.1484833,-0.9814934,-0.05071568,-0.156545,20.44785,-32.35628,-40.03716,1007.916
12.142635822,0.6705954,-0.2547265,-0.1575137,-0.9828037,-0.06290004,-0.1528626,20.81432,-32.35363,-40.03835,1007.916
12.175195694,1.162815,-0.5521312,0.3320815,-0.9779584,-0.06136563,-0.1557441,20.81432,-32.35363,-40.03835,1007.916
12.210259437,2.947111,-0.671093,0.6380785,-0.9750891,-0.05457315,-0.145009,20.44949,-32.3537,-39.59109,1007.914
12.242819309,2.147254,-0.6116121,0.08728392,-0.9845431,-0.03767819,-0.1466756,20.82164,-32.71486,-39.58967,1007.912
12.275379181,-2.09814,-0.4926502,-0.7695076,-0.9798588,-0.06385574,-0.1480462,20.82164,-32.71486,-39.58967,1007.915
12.310443401,1.53198,0.04267823,0.5156797,-0.9715048,-0.07149597,-0.1539714,21.18382,-32.34619,-39.21112,1007.915
12.343003273,1.408925,0.5780066,0.5768791,-0.9844357,-0.04500858,-0.1376034,20.81596,-32.35105,-39.59228,1007.913
12.375563145,0.05532085,1.529702,0.08728392,-0.9779697,-0.05896685,-0.1489402,20.81596,-32.35105,-39.59228,1007.911
12.410627365,0.9167053,1.41074,-0.03511487,-0.9731759,-0.05258214,-0.1498142,20.08683,-32.7231,-40.09709,1007.91
12.443187237,0.2399032,1.172816,-0.1575137,-0.9776343,-0.04964691,-0.1666833,20.44785,-32.35628,-40.03716,1007.91
12.475747108,0.9167053,1.113335,-0.09631427,-0.9740778,-0.0574825,-0.1436042,20.44785,-32.35628,-40.03716,1007.91
12.508306980,0.9167053,1.41074,-0.6471089,-0.9810326,-0.0487591,-0.1579657,21.18811,-32.71221,-39.59086,1007.91
12.543371677,0.3629581,1.470221,-1.259103,-0.97705,-0.05600134,-0.1571133,20.82872,-33.07646,-39.20471,1007.908
12.575931072,0.7936503,1.351259,-1.381502,-0.9785314,-0.05455607,-0.1585399,20.82872,-33.07646,-39.20471,1007.908
12.608490944,-0.3138439,1.648664,-1.5651,-0.9798869,-0.06142619,-0.1480091,20.4568,-32.71492,-39.14241,1007.912
12.643554687,-0.06773406,2.778801,-1.075505,-0.9779858,-0.05798624,-0.1508588,21.18811,-32.71221,-39.59086,1007.912
12.676114559,0.8551778,2.897763,-0.8919064,-0.9720722,-0.06517231,-0.1567746,21.18811,-32.71221,-39.59086,1007.912
12.708674431,1.655035,2.540878,-1.197903,-0.9770278,-0.05841989,-0.1595671,20.08683,-32.7231,-40.09709,1007.912
12.743739128,-1.052173,1.648664,-2.54429,-0.9780903,-0.05303924,-0.1701182,20.44949,-32.3537,-39.59109,1007.91
12.776299000,1.655035,2.421916,-1.932296,-0.9729134,-0.07541548,-0.1511296,20.44949,-32.3537,-39.59109,1007.91
12.808858395,0.3629581,3.254649,-1.626299,-0.9740583,-0.06179854,-0.1562378,20.82732,-33.07867,-39.58706,1007.91
12.843923092,0.4244856,3.433092,-1.809897,-0.9834439,-0.05406553,-0.1735124,20.81596,-32.35105,-39.59228,1007.91
12.876482964,-3.390217,1.232297,-1.626299,-0.9758865,-0.08106691,-0.1990672,20.81596,-32.35105,-39.59228,1007.91
12.909042835,1.03976,0.8754113,-1.259103,-0.975876,-0.07395189,-0.1607719,21.55029,-32.34354,-39.21231,1007.909
12.941602707,-1.359811,0.5780066,-1.5651,-0.9722241,-0.0530048,-0.1609392,20.82304,-32.71265,-39.20732,1007.909
12.976666927,-0.6830086,0.9943733,-1.442701,-0.9745503,-0.06512494,-0.1741731,20.82304,-32.71265,-39.20732,1007.913
13.009226799,-1.236756,0.7564495,-1.075505,-0.9674903,-0.08688217,-0.1788622,20.4452,-31.98767,-39.21136,1007.913
13.041786671,0.9782327,1.113335,-0.8307071,-0.9754864,-0.06758477,-0.1703427,20.44683,-31.98509,-38.76529,1007.911
13.076850414,-0.7445361,0.4590448,-1.197903,-0.974479,-0.07096244,-0.1728121,20.44683,-31.98509,-38.76529,1007.911
13.109410286,1.655035,1.053854,-1.075505,-0.9764274,-0.06860885,-0.1616566,21.18382,-32.34619,-39.21112,1007.911
13.141970158,-0.3138439,1.41074,-1.381502,-0.9760005,-0.06373681,-0.1630328,20.81167,-31.98503,-39.21255,1007.911
13.177034378,-3.144107,0.7564495,-1.626299,-0.9735264,-0.07328919,-0.1926669,20.81167,-31.98503,-39.21255,1007.911
13.209594250,-1.544393,-0.671093,-1.075505,-0.9717607,-0.09760734,-0.1838555,20.81028,-31.98724,-39.59489,1007.909
13.242154121,-1.236756,-0.4331693,-1.136704,-0.9750119,-0.06517745,-0.1640225,21.18382,-32.34619,-39.21112,1007.909
13.277218342,-1.359811,0.5780066,-1.320302,-0.971541,-0.07000308,-0.1616826,20.81167,-31.98503,-39.21255,1007.912
13.309778213,-0.3138439,1.648664,-1.442701,-0.9763823,-0.07249612,-0.161716,20.81167,-31.98503,-39.21255,1007.912
13.342338085,-0.1292615,2.540878,-2.115894,-0.9701687,-0.06316371,-0.1654466,20.80599,-31.62122,-39.21516,1007.912
13.377402782,-1.544393,2.897763,-0.8919064,-0.9659054,-0.09898009,-0.1858156,21.17246,-31.61857,-39.21635,1007.91
13.409962654,-0.006206609,2.600358,-0.6471089,-0.9735245,-0.07091458,-0.1805463,21.17246,-31.61857,-39.21635,1007.91
13.442522049,-0.9291185,1.946068,-1.5039,-0.974373,-0.08304644,-0.1870144,20.81028,-31.98724,-39.59489,1007.91
13.475081921,-1.359811,0.7564495,-1.687499,-0.9744726,-0.07810824,-0.2043406,21.16678,-31.25476,-39.21896,1007.91
13.510146618,-1.60592,-1.265902,-1.993495,-0.9685763,-0.08098266,-0.1966561,21.16678,-31.25476,-39.21896,1007.914
13.542706489,-1.236756,-1.979674,-2.115894,-0.9690393,-0.07817903,-0.1734108,20.79463,-30.89359,-39.22038,1007.914
13.575266361,-2.897997,-1.503826,-2.54429,-0.9680002,-0.08256589,-0.1676782,21.53488,-31.24953,-38.77407,1007.913
13.610330105,-0.06773406,-0.8495359,-1.381502,-0.9639112,-0.1028442,-0.1853931,21.53488,-31.24953,-38.77407,1007.911
13.642889976,0.6705954,-0.5521312,-0.8307071,-0.9690821,-0.0728692,-0.1655957,21.53893,-31.61592,-39.21753,1007.909
13.675449371,-0.4984263,0.04267823,-1.075505,-0.9739434,-0.07484996,-0.1714218,21.5373,-31.61851,-39.6636,1007.909
13.710514069,-0.6830086,0.1021592,-1.197903,-0.9674684,-0.08977566,-0.1837401,21.5373,-31.61851,-39.6636,1007.909
13.743073940,0.7936503,0.280602,0.4544803,-0.969393,-0.08936788,-0.172131,20.79868,-31.25999,-39.66384,1007.909
13.775633812,0.9167053,1.41074,0.7604772,-0.9710371,-0.07145446,-0.1617052,21.1611,-30.89095,-39.22157,1007.909
13.810698032,2.147254,2.302954,0.6992779,-0.9649476,-0.09513286,-0.1741568,21.1611,-30.89095,-39.22157,1007.907
13.843257904,3.193221,2.481397,1.005275,-0.9693405,-0.09754923,-0.1896574,21.16678,-31.25476,-39.21896,1007.912
13.875817776,4.239188,1.41074,1.250072,-0.9758974,-0.07962018,-0.1966283,21.1611,-30.89095,-39.22157,1007.912
13.908377647,1.839617,1.172816,0.5156797,-0.9718788,-0.08550137,-0.1744865,21.1611,-30.89095,-39.22157,1007.912
13.943441868,1.839617,0.9348923,0.2708821,-0.968021,-0.08300345,-0.1783191,20.79323,-30.89581,-39.60273,1007.91
13.976001739,-0.3753713,0.4590448,0.02608453,-0.9720196,-0.07763453,-0.1946682,21.5292,-30.88572,-38.77668,1007.916
14.008561611,0.1168483,-0.1952455,-0.03511487,-0.9697738,-0.1014582,-0.186333,21.5292,-30.88572,-38.77668,1007.914
14.043626308,-0.4368988,0.280602,-0.03511487,-0.9744049,-0.07918335,-0.1816383,21.17167,-31.24701,-37.88074,1007.914
14.076186180,-0.6830086,0.8159304,0.08728392,-0.9673742,-0.09850883,-0.1867737,21.16841,-31.25217,-38.77288,1007.914
14.108745575,-0.06773406,0.6374876,0.3932809,-0.9754545,-0.07144787,-0.1757188,21.16841,-31.25217,-38.77288,1007.914
14.143810272,-1.544393,-0.01680271,0.2708821,-0.9713365,-0.0946328,-0.1954116,20.80031,-31.2574,-39.21777,1007.912
14.176369190,0.05532085,-0.671093,0.5768791,-0.9695363,-0.07864273,-0.1797013,20.79789,-30.88843,-38.32824,1007.911
14.208929062,-0.6830086,0.8159304,0.2096827,-0.9719051,-0.08212418,-0.1691178,20.79789,-30.88843,-38.32824,1007.911
14.243993759,0.4244856,0.6969685,0.08728392,-0.9749118,-0.08010437,-0.1942197,20.80357,-31.25224,-38.32562,1007.909
14.276553631,0.8551778,0.3400829,0.7604772,-0.9675533,-0.08296193,-0.186053,21.16436,-30.88578,-38.32942,1007.909
14.309113502,1.347397,0.221121,0.3932809,-0.9724129,-0.08114114,-0.1729694,21.16436,-30.88578,-38.32942,1007.909
14.341672897,0.4860131,-0.2547265,0.5768791,-0.9679459,-0.09455538,-0.2026643,21.17246,-31.61857,-39.21635,1007.911
14.376737594,2.270309,-0.07628365,0.7604772,-0.9695247,-0.07771266,-0.1705029,21.53488,-31.24953,-38.77407,1007.911
14.409297466,-0.06773406,0.221121,0.4544803,-0.974394,-0.08063008,-0.1840773,21.53488,-31.24953,-38.77407,1007.911
14.441857338,0.4244856,-0.4926502,0.8216767,-0.9674767,-0.09118723,-0.1939126,21.17004,-31.24959,-38.32681,1007.913
14.476921558,0.8551778,-0.9090168,0.7604772,-0.9680971,-0.07715715,-0.1816135,20.80194,-31.25482,-38.7717,1007.913
14.509481430,-0.4984263,-0.4926502,0.08728392,-0.9714828,-0.08009728,-0.1860055,20.80194,-31.25482,-38.7717,1007.913
14.542041302,-0.06773406,-0.5521312,0.7604772,-0.9659964,-0.09072842,-0.1837561,21.17004,-31.24959,-38.32681,1007.913
14.577105522,-0.06773406,-0.1952455,0.882876,-0.9744121,-0.07917016,-0.1845384,21.17572,-31.6134,-38.3242,1007.913
14.609665394,-0.006206609,-0.4331693,0.5156797,-0.9660752,-0.08535267,-0.1904413,21.17572,-31.6134,-38.3242,1007.913
14.642225265,-0.1292615,-0.6116121,0.4544803,-0.9709818,-0.08201919,-0.1894189,21.17978,-31.9798,-38.76766,1007.913
14.677289963,-0.1292615,-0.9684978,0.4544803,-0.9725046,-0.07526628,-0.1825472,20.44278,-31.6187,-38.32182,1007.913
14.709849834,-0.867591,-1.08746,-0.03511487,-0.9690219,-0.0805888,-0.177798,20.44278,-31.6187,-38.32182,1007.913
14.742409229,-0.06773406,-0.790055,0.1484833,-0.9757482,-0.08750241,-0.1730632,21.16273,-30.88836,-38.7755,1007.913
14.774969101,-0.190789,-0.1952455,0.4544803,-0.9705403,-0.07717352,-0.184995,20.81493,-31.97986,-38.3204,1007.915
14.810032844,0.6705954,-0.07628365,0.5156797,-0.9675595,-0.08009703,-0.1748916,20.81493,-31.97986,-38.3204,1007.915
14.842592716,-0.1292615,0.1616401,0.6992779,-0.970447,-0.08400263,-0.1792988,20.80925,-31.61605,-38.32301,1007.915
14.875152588,0.4860131,0.3400829,0.5156797,-0.9729816,-0.07624225,-0.183045,20.81898,-32.34625,-38.76386,1007.914
14.910217285,0.1783758,0.1616401,0.3932809,-0.9744089,-0.07822471,-0.1787235,20.81898,-32.34625,-38.76386,1007.914
14.942777157,0.3629581,0.1021592,0.1484833,-0.9777177,-0.08748825,-0.1817618,20.8133,-31.98244,-38.76647,1007.914
14.975336552,0.2399032,0.221121,0.5768791,-0.9675651,-0.08103808,-0.1816732,21.16841,-31.25217,-38.77288,1007.912
15.010401249,0.5475405,-0.1357646,0.5156797,-0.9706157,-0.07037739,-0.1834412,20.8133,-31.98244,-38.76647,1007.915
15.042961121,-0.4368988,-0.730574,0.08728392,-0.9744306,-0.07818515,-0.1874236,20.8133,-31.98244,-38.76647,1007.915
15.075520992,-0.3753713,-0.6116121,-0.03511487,-0.9671543,-0.07375848,-0.1781789,21.91108,-31.97709,-39.21611,1007.915
15.110585213,-0.9906458,-0.4331693,-0.09631427,-0.973827,-0.0860017,-0.1769091,20.8133,-31.98244,-38.76647,1007.915
15.143145084,-0.006206609,-1.206421,0.6380785,-0.9675393,-0.08489019,-0.1894661,20.8133,-31.98244,-38.76647,1007.915
15.175704956,-0.3138439,-1.206421,0.4544803,-0.9725462,-0.06995863,-0.1742487,21.17409,-31.61599,-38.77027,1007.915
15.210769653,-0.2523164,-1.08746,-0.03511487,-0.972379,-0.08548356,-0.1798029,21.17572,-31.6134,-38.3242,1007.913
15.243329048,-0.2523164,-0.790055,0.2096827,-0.9680958,-0.07715935,-0.1811302,21.17572,-31.6134,-38.3242,1007.913
15.275888920,0.1783758,-0.8495359,0.4544803,-0.9694498,-0.08355676,-0.1676919,20.80762,-31.61863,-38.76908,1007.913
15.308448791,-0.5599537,-1.206421,0.6992779,-0.9691149,-0.07328478,-0.1810701,21.17814,-31.98238,-39.21373,1007.911
15.343513489,-0.06773406,-2.574483,0.3932809,-0.9749687,-0.07286628,-0.1829916,21.17814,-31.98238,-39.21373,1007.911
15.376073360,-0.6830086,-2.574483,0.6992779,-0.9753367,-0.07927296,-0.1647206,21.17651,-31.98496,-39.65981,1007.909
15.408632755,0.1168483,-2.277078,0.2096827,-0.9734964,-0.07191716,-0.1737943,21.16678,-31.25476,-39.21896,1007.909
15.443697452,-0.006206609,-1.682269,0.1484833,-0.9719453,-0.07681873,-0.1603361,21.16678,-31.25476,-39.21896,1007.914
15.476257324,0.1783758,-0.9684978,0.4544803,-0.9700398,-0.07386251,-0.1636764,21.17978,-31.9798,-38.76766,1007.914
15.508817196,0.1783758,0.1021592,-0.03511487,-0.9774601,-0.0623311,-0.1557593,20.81004,-31.98761,-39.65862,1007.912
15.543880939,-1.60592,-0.2547265,0.02608453,-0.9704639,-0.0825449,-0.1792765,20.81004,-31.98761,-39.65862,1007.912
15.576440811,-0.6214812,-0.4331693,-0.03511487,-0.9706001,-0.068979,-0.1703687,20.44683,-31.98509,-38.76529,1007.912
15.609000683,-1.544393,-0.4926502,-0.03511487,-0.972081,-0.06563185,-0.1625821,20.8133,-31.98244,-38.76647,1007.912
15.641560078,-1.359811,-0.730574,-0.4023113,-0.9719976,-0.07434524,-0.1699658,20.8133,-31.98244,-38.76647,1007.912
15.676624775,-0.7445361,-0.4331693,0.1484833,-0.9713968,-0.08263232,-0.1628422,20.44683,-31.98509,-38.76529,1007.914
15.709184647,-1.60592,-0.07628365,-0.2799125,-0.9735742,-0.06226272,-0.159629,21.54461,-31.97973,-39.21492,1007.914
15.741744518,-1.113701,0.221121,-0.4635107,-0.9699633,-0.08066083,-0.164747,21.54461,-31.97973,-39.21492,1007.914
15.776808739,-0.1292615,0.221121,0.2096827,-0.9779176,-0.06762311,-0.1688908,20.81167,-31.98503,-39.21255,1007.914
15.809368610,-0.06773406,0.3995638,-0.3411119,-0.9754634,-0.07048044,-0.1747373,21.17814,-31.98238,-39.21373,1007.913
15.841928482,-0.06773406,0.9348923,0.1484833,-0.9715076,-0.07196648,-0.1573622,21.17814,-31.98238,-39.21373,1007.913
15.876992702,-0.06773406,0.7564495,-0.03511487,-0.9726033,-0.06604939,-0.1790228,20.43812,-31.62608,-39.59631,1007.918
15.909552574,0.3014307,0.221121,0.02608453,-0.9728951,-0.08115628,-0.1710356,20.43952,-31.62386,-39.21397,1007.918
15.942112446,0.3014307,0.04267823,0.6992779,-0.9696153,-0.07041304,-0.1728084,20.43952,-31.62386,-39.21397,1007.918
15.977177143,-0.5599537,-0.8495359,1.005275,-0.9690682,-0.07669933,-0.178222,21.17083,-31.62115,-39.66241,1007.918
16.009737015,0.3629581,-1.027979,1.188873,-0.9748996,-0.07537055,-0.166595,21.17978,-31.9798,-38.76766,1007.918
16.042296886,-0.3138439,-1.325383,1.127674,-0.9740143,-0.06853754,-0.1703586,21.17978,-31.9798,-38.76766,1007.918
16.077361107,1.28587,-0.4926502,1.066474,-0.9710472,-0.07191179,-0.1679961,20.81572,-32.35142,-39.65601,1007.918
16.109920979,1.28587,-0.3736883,0.3932809,-0.9731987,-0.0553943,-0.1725758,21.17814,-31.98238,-39.21373,1007.918
16.142480850,2.085727,0.1616401,-0.03511487,-0.974535,-0.06562843,-0.1703137,21.17814,-31.98238,-39.21373,1007.923
16.175040722,1.655035,1.351259,0.2096827,-0.9752554,-0.08465312,-0.1570687,21.17651,-31.98496,-39.65981,1007.923
16.210104942,3.131694,3.195168,0.882876,-0.9730285,-0.06711985,-0.1587369,20.8133,-31.98244,-38.76647,1007.921
16.242664814,0.8551778,2.897763,-0.4023113,-0.9703957,-0.04562703,-0.1748464,20.8133,-31.98244,-38.76647,1007.921
16.275224686,-0.190789,2.06503,-0.1575137,-0.9909087,-0.08187273,-0.1719959,20.81167,-31.98503,-39.21255,1007.921
16.310288906,-1.60592,1.886587,1.739668,-0.971927,-0.08398651,-0.1870311,20.81735,-32.34883,-39.20993,1007.921
16.375408649,-2.959524,1.529702,1.556069,-0.9805713,-0.05060848,-0.1773294,20.81735,-32.34883,-39.20993,1007.919
16.410473347,-3.574799,-0.4926502,1.800867,-0.9745202,-0.07421657,-0.2052479,21.18546,-32.34361,-38.76505,1007.917
16.443033218,-1.667448,-2.99085,1.739668,-0.9696164,-0.07944752,-0.2164501,21.18546,-32.34361,-38.76505,1007.916
16.475592613,0.5475405,-4.656316,1.739668,-0.9804541,-0.05938341,-0.1711795,21.18219,-32.34877,-39.6572,1007.916
16.510657310,-1.85203,-3.883064,0.6380785,-0.9750604,-0.05795473,-0.149411,20.82304,-32.71265,-39.20732,1007.918
16.543217182,-1.913558,-1.860712,0.3932809,-0.9696181,-0.0694566,-0.1694101,20.82304,-32.71265,-39.20732,1007.917
16.575777054,-1.544393,-0.4926502,1.250072,-0.9734814,-0.06671281,-0.1427788,20.81004,-31.98761,-39.65862,1007.917
16.608336925,-0.867591,0.1021592,0.6380785,-0.9798262,-0.02782398,-0.1624812,21.55434,-32.70993,-39.65577,1007.917
16.643401146,0.1783758,-0.1357646,-0.5247101,-0.9804278,-0.06418756,-0.1833373,21.55434,-32.70993,-39.65577,1007.917
16.675961018,2.208782,-0.01680271,0.6992779,-0.9617664,-0.07802664,-0.1859833,21.19114,-32.70742,-38.76244,1007.915
16.708520889,4.054605,1.053854,0.6992779,-0.9853781,-0.0493593,-0.1454029,20.45251,-32.3489,-38.76267,1007.919
16.743584633,-0.1292615,1.41074,-0.4023113,-0.9708385,-0.04761658,-0.1661755,20.45251,-32.3489,-38.76267,1007.919
16.776144504,2.024199,0.8159304,-0.4023113,-0.9780096,-0.06365012,-0.1876818,20.81735,-32.34883,-39.20993,1007.919
16.808704376,2.824057,0.6969685,-0.03511487,-0.9608873,-0.06547482,-0.1650074,21.18951,-32.71,-39.20851,1007.919
16.843768597,2.577947,0.3995638,-0.2187131,-0.9888492,-0.05071643,-0.1773231,20.45088,-32.35148,-39.20875,1007.919
16.876328468,1.593507,0.3400829,-0.09631427,-0.9599087,-0.0654709,-0.1630748,20.45088,-32.35148,-39.20875,1007.919
16.908888340,2.208782,0.8754113,-0.2187131,-0.9741455,-0.05783435,-0.1730955,20.81735,-32.34883,-39.20993,1007.917
16.943953037,0.05532085,0.4590448,-0.4635107,-0.9863951,-0.05357376,-0.1831696,20.81898,-32.34625,-38.76386,1007.916
16.976512432,2.885584,-0.3736883,-0.8307071,-0.9628982,-0.06443389,-0.1857748,20.81898,-32.34625,-38.76386,1007.916
17.009072304,2.947111,0.04267823,-0.6471089,-0.9784826,-0.05987689,-0.1639383,20.82467,-32.71006,-38.76125,1007.914
17.041632175,1.53198,0.9348923,-0.4023113,-0.9774306,-0.0661898,-0.1621021,21.18787,-32.71258,-39.65458,1007.918
17.076696873,3.070166,1.41074,-0.2799125,-0.9687533,-0.05973231,-0.1678125,21.18787,-32.71258,-39.65458,1007.916
17.109256744,3.254749,1.589183,-0.8307071,-0.9692612,-0.06017622,-0.1784531,21.19355,-33.07639,-39.65197,1007.916
17.141816139,0.3014307,1.053854,-1.014305,-0.9652443,-0.07128596,-0.1820101,20.81898,-32.34625,-38.76386,1007.916
17.176880837,3.316276,0.221121,-1.381502,-0.9798568,-0.06909085,-0.1722949,20.81898,-32.34625,-38.76386,1007.916
17.209440708,0.9167053,1.291778,-1.5039,-0.9662589,-0.06171233,-0.1528604,21.18872,-32.33844,-37.87291,1007.914
17.242000580,-0.9291185,1.589183,-2.177094,-0.9776548,-0.04960955,-0.1749001,21.18546,-32.34361,-38.76505,1007.916
17.277064800,-1.544393,2.600358,-2.299492,-0.969592,-0.06997988,-0.1612007,21.18546,-32.34361,-38.76505,1007.914
17.309624672,-1.60592,2.600358,-2.605489,-0.9829262,-0.05934704,-0.1861612,21.19277,-32.70483,-38.31637,1007.914
17.342184543,-3.021052,1.708145,-2.360692,-0.9666875,-0.07323985,-0.183972,21.18546,-32.34361,-38.76505,1007.914
17.377248764,-1.544393,-0.01680271,-2.483091,-0.9809759,-0.06075299,-0.1919851,21.18546,-32.34361,-38.76505,1007.919
17.409808636,-2.836469,-0.3142074,-3.401082,-0.975906,-0.07675087,-0.1864336,21.55761,-32.70477,-38.76363,1007.919
17.442368507,-2.774942,-1.444345,-3.095085,-0.9709901,-0.08343076,-0.1995914,21.18546,-32.34361,-38.76505,1007.917
17.474928379,-2.651887,-1.979674,-2.911486,-0.9671813,-0.07275809,-0.1844475,21.18546,-32.34361,-38.76505,1007.917
17.509993076,-3.021052,-2.871888,-4.56387,-0.9845483,-0.04575403,-0.1874024,21.17814,-31.98238,-39.21373,1007.915
17.542552471,-5.72826,-3.288254,-5.237064,-0.9679459,-0.08694566,-0.1662949,21.17409,-31.61599,-38.77027,1007.915
17.575112343,-3.574799,-2.039155,-3.890677,-0.9641534,-0.122322,-0.177956,21.17409,-31.61599,-38.77027,1007.914
17.610177040,-2.528832,-1.384864,-2.789088,-0.9729282,-0.07729098,-0.1661429,21.54625,-31.97715,-38.76885,1007.914
17.642736912,-6.097425,-1.503826,-3.52348,-0.9806641,-0.08082251,-0.1599053,21.17246,-31.61857,-39.21635,1007.916
17.675296783,-5.912843,-1.325383,-3.52348,-0.9620964,-0.08973438,-0.1774608,21.17246,-31.61857,-39.21635,1007.916
17.710361004,-2.836469,-0.8495359,-2.360692,-0.9769854,-0.1079055,-0.1786904,20.80031,-31.2574,-39.21777,1007.916
17.742920875,-0.6830086,-0.4331693,-2.115894,-0.9606134,-0.09213389,-0.1799157,20.79868,-31.25999,-39.66384,1007.914
17.775480747,-0.190789,0.04267823,-2.360692,-0.9732287,-0.09285741,-0.1639632,20.79868,-31.25999,-39.66384,1007.914
17.810544968,-1.113701,-0.2547265,-3.278683,-0.977312,-0.08210173,-0.1894141,21.16678,-31.25476,-39.21896,1007.914
17.843104839,-2.221195,-2.098636,-3.52348,-0.9697361,-0.1024784,-0.1757144,21.16273,-30.88836,-38.7755,1007.914
17.875664711,-0.8060635,-1.563307,-2.850287,-0.9608359,-0.1140259,-0.1758991,21.16273,-30.88836,-38.7755,1007.914
17.910729408,0.9167053,-0.9090168,-1.993495,-0.9750468,-0.1026318,-0.1573432,21.15379,-30.52972,-39.67025,1007.914
17.943289280,0.7936503,-0.2547265,-1.871097,-0.9722137,-0.09577335,-0.1611083,20.78164,-30.16855,-39.67167,1007.914
17.975848675,-0.4984263,-0.2547265,-1.993495,-0.9673792,-0.09421916,-0.16834,20.78164,-30.16855,-39.67167,1007.914
18.008408546,-1.052173,-1.206421,-2.605489,-0.9731516,-0.1034617,-0.1829767,20.79463,-30.89359,-39.22038,1007.914
18.043473244,-0.190789,-1.801231,-2.238293,-0.9691844,-0.1073465,-0.1724055,21.52026,-30.52707,-39.67144,1007.918
18.076033115,0.1783758,-1.801231,-1.5039,-0.9602458,-0.1208663,-0.1663365,21.52026,-30.52707,-39.67144,1007.918
18.108592987,0.4244856,-1.503826,-1.136704,-0.9780252,-0.09828569,-0.1596909,21.51723,-30.53187,-40.49986,1007.92
18.143657208,-0.9906458,-1.325383,-0.7695076,-0.9652018,-0.1145888,-0.1715531,21.14148,-29.74146,-39.67591,1007.918
18.176217079,-0.4368988,-1.444345,-0.5859095,-0.9779168,-0.1103741,-0.1729266,21.14148,-29.74146,-39.67591,1007.918
18.208776951,-0.9906458,-2.039155,-1.259103,-0.9703102,-0.09233781,-0.1629913,21.14974,-30.16332,-39.22679,1007.918
18.243841171,-2.221195,-2.693445,-1.932296,-0.9746265,-0.1001255,-0.1727735,21.15705,-30.52455,-38.77811,1007.92
18.276401043,-2.59036,-2.871888,-1.687499,-0.9807899,-0.1100252,-0.1511666,21.15705,-30.52455,-38.77811,1007.92
18.308960914,-3.144107,-2.574483,-1.5651,-0.9657216,-0.1088279,-0.1574468,21.14647,-30.16849,-40.11893,1007.924
18.344025612,-2.221195,-2.277078,-1.381502,-0.968068,-0.1190088,-0.1696843,21.14148,-29.74146,-39.67591,1007.924
18.376585007,-2.159667,-2.277078,-0.9531059,-0.9846544,-0.1148889,-0.161388,21.14148,-29.74146,-39.67591,1007.924
18.409144878,-1.85203,-2.812407,-0.4635107,-0.9716072,-0.1031194,-0.1472031,20.77861,-30.17335,-40.50009,1007.926
18.441704750,-2.651887,-1.979674,-0.4635107,-0.9593108,-0.1136484,-0.147859,21.13845,-29.74626,-40.50433,1007.924
18.476769447,-0.9906458,-1.08746,-0.4023113,-0.9696565,-0.1054774,-0.1573919,21.13845,-29.74626,-40.50433,1007.924
18.509329319,-1.60592,-1.563307,-0.8307071,-0.9896608,-0.1009094,-0.1505356,20.77338,-29.74669,-40.12079,1007.924
18.541888714,-2.467305,-0.9090168,-0.4635107,-0.9572053,-0.1258015,-0.1412791,21.14647,-30.16849,-40.11893,1007.924
18.576953411,-0.8060635,0.9348923,0.5156797,-0.9837784,-0.1047095,-0.1530161,21.14647,-30.16849,-40.11893,1007.929
18.609513283,-2.959524,0.04267823,-0.5859095,-0.9727116,-0.09433296,-0.158669,20.39983,-29.38774,-40.50456,1007.927
18.642073154,-3.021052,-0.9684978,-0.7083083,-0.97292,-0.1229091,-0.1808567,21.13277,-29.38245,-40.50694,1007.927
18.677137375,-0.5599537,-1.682269,-0.4635107,-0.9754057,-0.1142867,-0.160421,21.14508,-30.1707,-40.50128,1007.927
18.709697246,-1.421338,-0.9684978,-0.09631427,-0.97185,-0.1202183,-0.128612,21.14508,-30.1707,-40.50128,1007.927
18.742257118,0.1783758,2.005549,0.5768791,-0.9577192,-0.1219536,-0.1339693,20.76061,-29.02128,-40.50836,1007.925
18.777321815,0.4244856,3.730496,1.311272,-0.9793034,-0.1124313,-0.1521715,20.39554,-29.02172,-40.12482,1007.927
18.809881210,1.347397,4.146863,1.066474,-0.9760059,-0.1036229,-0.1559073,20.39554,-29.02172,-40.12482,1007.925
18.842441082,0.609068,3.195168,0.6380785,-0.9696692,-0.1106861,-0.1874407,21.50063,-29.37759,-40.12578,1007.925
18.875000954,3.993078,2.243473,0.5768791,-0.9802881,-0.1186069,-0.1861011,21.13416,-29.38023,-40.12459,1007.925
18.910065651,2.762529,1.41074,0.5156797,-0.9666831,-0.1055338,-0.1366104,21.13416,-29.38023,-40.12459,1007.928
18.942625523,1.655035,2.481397,0.3320815,-0.9642059,-0.1141407,-0.1604296,20.76061,-29.02128,-40.50836,1007.928
18.975184917,1.101288,1.946068,0.5768791,-0.9808992,-0.1064963,-0.1791485,20.7663,-29.3851,-40.50575,1007.926
19.010249615,-2.959524,-0.8495359,-0.2799125,-0.9766855,-0.08853307,-0.1629271,20.7663,-29.3851,-40.50575,1007.928
19.042809486,-2.221195,-1.801231,-0.03511487,-0.9689918,-0.1257715,-0.1813876,20.77338,-29.74669,-40.12079,1007.928
19.075369358,-0.6214812,-2.039155,0.1484833,-0.9633065,-0.107809,-0.1608172,21.14148,-29.74146,-39.67591,1007.928
19.110433579,-0.06773406,-0.730574,0.02608453,-0.9675703,-0.1161683,-0.1517565,21.14148,-29.74146,-39.67591,1007.928
19.142993450,0.2399032,-0.1952455,-0.4023113,-0.9801359,-0.08041596,-0.141048,20.77338,-29.74669,-40.12079,1007.928
19.175553322,-2.836469,-0.4331693,-0.9531059,-0.9646452,-0.1208926,-0.1730999,20.39983,-29.38774,-40.50456,1007.931
19.210617542,0.609068,-0.1952455,-0.5247101,-0.9652702,-0.1097077,-0.1763123,20.39983,-29.38774,-40.50456,1007.931
19.243177414,0.3629581,0.04267823,-0.2799125,-0.9773299,-0.1119771,-0.1395987,21.13416,-29.38023,-40.12459,1007.931
19.275737285,-1.298283,1.232297,-0.5859095,-0.961853,-0.1049228,-0.1501403,21.50632,-29.7414,-40.12317,1007.929
19.308297157,-0.190789,1.708145,-0.1575137,-0.9621864,-0.1223318,-0.170224,21.50632,-29.7414,-40.12317,1007.929
19.343361854,0.9782327,1.529702,0.4544803,-0.9808473,-0.1080178,-0.1651538,21.50063,-29.37759,-40.12578,1007.929
19.375921249,1.28587,1.648664,-0.03511487,-0.9745505,-0.1045449,-0.1626901,21.13011,-29.01384,-39.68113,1007.927
19.408481121,0.9782327,2.06503,0.5156797,-0.9666317,-0.1165668,-0.1681983,21.13011,-29.01384,-39.68113,1007.927
19.443545818,1.101288,2.124511,0.8216767,-0.9715775,-0.1126859,-0.1807021,20.76769,-29.38288,-40.1234,1007.93
19.476105690,1.408925,1.41074,0.8216767,-0.9741642,-0.09769624,-0.1712867,20.76769,-29.38288,-40.1234,1007.928
19.508665562,0.5475405,0.8754113,0.1484833,-0.978622,-0.09095725,-0.1697295,20.76769,-29.38288,-40.1234,1007.927
19.543729782,-1.421338,0.5780066,-0.5247101,-0.9711089,-0.1083657,-0.1675854,20.78327,-30.16597,-39.2256,1007.925
19.576289654,0.3014307,1.232297,-0.2799125,-0.9685312,-0.120961,-0.1692302,21.1358,-29.37765,-39.67852,1007.925
19.608849525,-0.4368988,1.053854,-0.1575137,-0.9731794,-0.09913027,-0.1737264,21.1358,-29.37765,-39.67852,1007.925
19.643913746,0.7321229,1.41074,-0.2187131,-0.9735467,-0.1093429,-0.1733985,21.13416,-29.38023,-40.12459,1007.923
19.676473617,-0.006206609,0.9348923,-0.6471089,-0.9686607,-0.1112121,-0.1758486,21.50958,-29.73623,-39.23103,1007.923
19.709033489,-0.190789,0.5185257,-0.5859095,-0.9754857,-0.1089088,-0.1675895,21.50958,-29.73623,-39.23103,1007.92
19.741593361,-0.3753713,0.280602,-0.7695076,-0.9696411,-0.1088348,-0.1671106,21.49658,-29.01119,-39.68232,1007.92
19.776658058,-0.6214812,0.1021592,-0.5247101,-0.9671249,-0.119891,-0.1866168,20.77501,-29.74411,-39.67472,1007.924
19.809217453,0.3014307,-0.671093,-0.5859095,-0.973653,-0.1005878,-0.1751983,20.77501,-29.74411,-39.67472,1007.922
19.841777325,-1.790503,-1.325383,-0.8919064,-0.9720987,-0.1102517,-0.1830813,21.13011,-29.01384,-39.68113,1007.92
19.876842022,0.05532085,-0.8495359,-0.5859095,-0.9622375,-0.1170066,-0.1657923,21.12443,-28.65003,-39.68374,1007.92
19.909401894,0.4244856,-0.2547265,0.02608453,-0.9665629,-0.120973,-0.1610149,21.12443,-28.65003,-39.68374,1007.92
19.941961765,1.03976,0.9943733,0.08728392,-0.9765052,-0.1026552,-0.1563754,21.1358,-29.37765,-39.67852,1007.919
19.977025986,-0.9291185,0.8159304,-0.4635107,-0.9710616,-0.1141593,-0.1758913,21.13174,-29.01126,-39.23506,1007.923
20.009585857,-0.867591,0.04267823,-0.03511487,-0.9813467,-0.1070501,-0.165622,21.13174,-29.01126,-39.23506,1007.923
20.042145729,-1.913558,0.1616401,-0.09631427,-0.9701539,-0.1078429,-0.1728955,21.1358,-29.37765,-39.67852,1007.923
20.077209950,-2.528832,-1.682269,-0.09631427,-0.9696211,-0.1183838,-0.2044763,20.76769,-29.38288,-40.1234,1007.923
20.109769821,0.3014307,-2.752926,0.5156797,-0.9740503,-0.1121724,-0.193743,20.76769,-29.38288,-40.1234,1007.921
20.142329693,-0.5599537,-3.466697,-0.2187131,-0.970682,-0.1006398,-0.1553835,21.1358,-29.37765,-39.67852,1007.919
20.177394390,-0.9906458,-2.99085,-0.7083083,-0.9759011,-0.1142777,-0.163804,20.77338,-29.74669,-40.12079,1007.919
20.209953785,-1.052173,-1.979674,-0.8307071,-0.963156,-0.1199743,-0.1571359,20.77338,-29.74669,-40.12079,1007.917
20.242514610,1.53198,-1.14694,-0.7083083,-0.9685602,-0.1166274,-0.1604633,21.14647,-30.16849,-40.11893,1007.917
20.275074482,1.162815,0.221121,-0.5859095,-0.9778453,-0.1114558,-0.1487744,21.50063,-29.37759,-40.12578,1007.92
20.310138702,0.3014307,0.5185257,-0.9531059,-0.9687128,-0.1039828,-0.1626871,21.50063,-29.37759,-40.12578,1007.922
20.342698574,-0.5599537,0.7564495,-1.136704,-0.9631827,-0.1232548,-0.1837717,21.13845,-29.74626,-40.50433,1007.92
20.375258446,2.885584,1.172816,-0.09631427,-0.9773809,-0.1109328,-0.1555341,20.77338,-29.74669,-40.12079,1007.918
20.410322666,-0.6214812,1.113335,-0.8919064,-0.9673113,-0.09672123,-0.1524268,21.13253,-29.38282,-40.57066,1007.918
20.442882538,-0.190789,1.648664,-1.197903,-0.9763194,-0.122019,-0.1726225,21.13253,-29.38282,-40.57066,1007.918
20.475442409,-0.006206609,1.053854,-1.381502,-0.9725668,-0.1107682,-0.1777716,21.13985,-29.74404,-40.12198,1007.92
20.510507107,0.3629581,0.9348923,-1.381502,-0.9680129,-0.1224388,-0.1634527,21.13416,-29.38023,-40.12459,1007.918
20.543066978,2.147254,1.529702,-1.381502,-0.9651351,-0.1170886,-0.1561232,21.13416,-29.38023,-40.12459,1007.918
20.575626373,1.03976,1.529702,-1.259103,-0.9691329,-0.1107699,-0.167624,21.12848,-29.01642,-40.1272,1007.922
20.610691070,0.5475405,0.7564495,-1.5651,-0.9763898,-0.1180856,-0.1827133,20.75633,-28.65526,-40.12862,1007.922
20.643250942,-0.3138439,-0.9090168,-1.5039,-0.9651126,-0.125215,-0.1857332,20.75633,-28.65526,-40.12862,1007.922
20.675810814,1.101288,-1.14694,-1.259103,-0.9797162,-0.1192316,-0.1542084,21.12848,-29.01642,-40.1272,1007.922
20.708370686,-1.85203,-1.08746,-1.626299,-0.9671891,-0.1097858,-0.1647106,21.1358,-29.37765,-39.67852,1007.922
20.743434906,-0.5599537,-0.5521312,-1.5651,-0.963576,-0.1281884,-0.1688619,21.1358,-29.37765,-39.67852,1007.921
20.775994778,-0.7445361,-0.2547265,-1.442701,-0.9675303,-0.1219487,-0.1629623,21.1228,-28.65261,-40.12981,1007.921
20.808554649,0.7321229,0.221121,-1.442701,-0.9664876,-0.1291961,-0.1693578,20.76364,-29.01649,-39.67994,1007.925
20.843618870,-0.006206609,0.5780066,-1.136704,-0.9670402,-0.1224239,-0.1639368,20.76364,-29.01649,-39.67994,1007.923
20.876178741,0.2399032,1.053854,-0.8307071,-0.964887,-0.1398956,-0.1632387,21.11875,-28.28622,-39.68635,1007.923
20.908738613,0.7321229,1.172816,-0.5859095,-0.9694099,-0.130184,-0.1742038,20.75796,-28.65268,-39.68255,1007.921
20.943803310,0.05532085,0.280602,-1.014305,-0.9710363,-0.1156324,-0.1725301,20.75796,-28.65268,-39.68255,1007.921
20.976363182,1.162815,0.6969685,-0.8307071,-0.9673973,-0.1350331,-0.1708961,21.1147,-27.91982,-39.24289,1007.926
21.008922577,1.224343,1.053854,-0.5859095,-0.9689972,-0.1219568,-0.1653779,21.12038,-28.28364,-39.24028,1007.926
21.043987274,0.3014307,0.7564495,-0.8919064,-0.967459,-0.1292132,-0.1683904,21.12038,-28.28364,-39.24028,1007.922
21.076547146,0.9167053,1.351259,-0.5859095,-0.9621204,-0.1272085,-0.1664315,21.1228,-28.65261,-40.12981,1007.921
21.109107018,0.3629581,1.113335,-0.9531059,-0.9729039,-0.1238897,-0.1789382,21.11875,-28.28622,-39.68635,1007.921
21.141666889,0.4860131,0.6374876,-0.9531059,-0.9675264,-0.1262362,-0.1818795,21.11875,-28.28622,-39.68635,1007.919
21.176731110,-0.2523164,-0.1357646,-0.8307071,-0.9651104,-0.1223655,-0.1711884,21.48522,-28.28357,-39.68754,1007.915
21.209290981,-0.190789,0.221121,-1.014305,-0.9684288,-0.1316115,-0.1780936,20.38013,-27.9277,-39.68658,1007.914
21.241850853,0.4860131,0.280602,-0.4023113,-0.970937,-0.1224725,-0.1644172,20.38013,-27.9277,-39.68658,1007.914
21.276915073,-0.7445361,-0.3142074,-0.7695076,-0.9684873,-0.1248461,-0.1697729,20.75228,-28.28887,-39.68517,1007.912
21.309474945,-0.2523164,-0.3142074,-0.8307071,-0.9619818,-0.1393518,-0.1675836,21.12443,-28.65003,-39.68374,1007.912
21.342035293,-0.6214812,0.280602,-0.2187131,-0.9673384,-0.1413236,-0.1767927,21.12443,-28.65003,-39.68374,1007.914
21.377099991,-0.7445361,0.9348923,-0.03511487,-0.9626267,-0.1243257,-0.1605865,21.4909,-28.64738,-39.68493,1007.912
21.409659862,-0.8060635,1.053854,0.1484833,-0.9634075,-0.1465694,-0.1875108,21.48522,-28.28357,-39.68754,1007.911
21.442219734,0.8551778,0.8159304,0.3932809,-0.9714761,-0.1200053,-0.1740465,21.48522,-28.28357,-39.68754,1007.909
21.477283954,0.1783758,0.7564495,-0.2799125,-0.964039,-0.1329944,-0.1819859,21.11875,-28.28622,-39.68635,1007.909
21.509843826,-0.2523164,0.8159304,0.02608453,-0.9689134,-0.1301952,-0.1703375,21.11875,-28.28622,-39.68635,1007.909
21.542403698,-0.06773406,1.113335,0.02608453,-0.9669568,-0.1297103,-0.1645315,21.11875,-28.28622,-39.68635,1007.911
21.574963570,0.5475405,1.589183,0.5156797,-0.9640314,-0.1325327,-0.1766617,21.1228,-28.65261,-40.12981,1007.913
21.610027790,0.5475405,1.351259,0.3932809,-0.9699943,-0.1238296,-0.1837739,20.75796,-28.65268,-39.68255,1007.915
21.642587662,0.3014307,0.9943733,0.2096827,-0.9724085,-0.1267526,-0.1891333,20.75796,-28.65268,-39.68255,1007.915
21.675147533,-0.1292615,0.6374876,-0.09631427,-0.9625809,-0.1334459,-0.1853779,21.48522,-28.28357,-39.68754,1007.913
21.710212231,0.4244856,0.3995638,0.02608453,-0.9636016,-0.1286171,-0.1814362,21.11875,-28.28622,-39.68635,1007.913
21.742772102,-0.006206609,0.8159304,-0.2187131,-0.9689464,-0.1277569,-0.1722337,21.11875,-28.28622,-39.68635,1007.911
21.775331497,-0.4984263,0.7564495,-0.4023113,-0.9678918,-0.1383551,-0.189798,20.75228,-28.28887,-39.68517,1007.911
21.810396194,0.4860131,0.1021592,-0.2799125,-0.9612188,-0.12421,-0.1818546,21.49253,-28.6448,-39.23886,1007.911
21.842956066,0.5475405,0.5185257,-0.5247101,-0.9645509,-0.1296258,-0.1761335,21.49253,-28.6448,-39.23886,1007.911
21.875515938,0.3629581,0.5185257,-0.6471089,-0.9689253,-0.1330272,-0.188749,21.12038,-28.28364,-39.24028,1007.916
21.910580158,0.5475405,0.1021592,-1.381502,-0.9670146,-0.1281779,-0.1809428,20.75796,-28.65268,-39.68255,1007.916
21.943140030,-0.867591,-0.3142074,-1.381502,-0.9601539,-0.132449,-0.1839149,20.75796,-28.65268,-39.68255,1007.916
21.975699902,-0.9906458,-0.9090168,-1.259103,-0.9635794,-0.1310357,-0.18389,21.48522,-28.28357,-39.68754,1007.916
22.008259773,-0.9291185,-0.6116121,-0.8307071,-0.964437,-0.1379192,-0.1690095,21.12038,-28.28364,-39.24028,1007.916
22.043323994,-0.7445361,-0.3736883,-0.5859095,-0.9733288,-0.129241,-0.1790194,21.12038,-28.28364,-39.24028,1007.916
22.075883865,-0.3753713,0.1616401,-0.6471089,-0.9591471,-0.1334476,-0.1752303,21.12201,-28.28105,-38.79421,1007.916
22.108444214,-0.5599537,-0.1357646,-0.3411119,-0.9621267,-0.1305263,-0.1848504,21.48848,-28.27841,-38.79539,1007.92
22.143508434,-0.7445361,-0.6116121,-0.5247101,-0.9678982,-0.138819,-0.1946389,21.48848,-28.27841,-38.79539,1007.92
22.176068783,0.1168483,-0.2547265,-0.3411119,-0.9669841,-0.1291848,-0.1732242,20.7466,-27.92505,-39.68777,1007.918
22.208628654,-0.6214812,-0.1952455,-0.3411119,-0.9659841,-0.1311224,-0.1718046,20.75228,-28.28887,-39.68517,1007.918
22.243692875,-0.5599537,0.1616401,-0.2799125,-0.9693579,-0.1374133,-0.1873654,21.48522,-28.28357,-39.68754,1007.918
22.276252746,-0.867591,-0.730574,-0.7083083,-0.9718555,-0.130196,-0.178552,21.48522,-28.28357,-39.68754,1007.916
22.308812618,-2.221195,-0.8495359,-1.136704,-0.9659469,-0.1373733,-0.1864013,21.48522,-28.28357,-39.68754,1007.916
22.343877315,-0.06773406,-0.3142074,-0.5859095,-0.9658878,-0.1403349,-0.1762956,21.47549,-27.55337,-39.24669,1007.919
22.376436710,-0.1292615,-0.1357646,-0.5859095,-0.9635815,-0.1305564,-0.1824326,21.47549,-27.55337,-39.24669,1007.919
22.408996582,0.05532085,-0.4926502,-0.8919064,-0.967931,-0.1330518,-0.1805329,21.10739,-27.5586,-39.69157,1007.919
22.441556454,-0.3753713,-1.206421,-1.014305,-0.9683635,-0.137438,-0.1791493,21.83465,-27.18949,-39.69656,1007.919
22.476621151,-1.298283,-1.384864,-1.136704,-0.959104,-0.1368556,-0.1738322,21.83465,-27.18949,-39.69656,1007.919
22.509181023,-1.913558,-1.503826,-1.320302,-0.9659583,-0.1335475,-0.1728084,21.48685,-28.28099,-39.24147,1007.919
22.541740417,-2.528832,-1.622788,-1.197903,-0.9672801,-0.145235,-0.1715353,21.47223,-27.55853,-40.13883,1007.923
22.576805115,-2.897997,-1.979674,-1.136704,-0.9634941,-0.1373745,-0.179153,21.47223,-27.55853,-40.13883,1007.921
22.609364986,-2.59036,-2.217597,-1.075505,-0.9648687,-0.1442094,-0.1763557,21.10739,-27.5586,-39.69157,1007.921
22.641924858,-2.59036,-2.217597,-0.6471089,-0.9688816,-0.1326314,-0.1689246,21.10739,-27.5586,-39.69157,1007.92
22.676989078,-0.9291185,-2.098636,-0.9531059,-0.9600247,-0.1426728,-0.1797206,21.10739,-27.5586,-39.69157,1007.92
22.709548950,-0.9291185,-1.682269,-0.8919064,-0.9629006,-0.1456484,-0.1749294,21.10007,-27.19737,-40.14026,1007.918
22.742108822,-0.06773406,-1.14694,-0.5859095,-0.9682944,-0.1399423,-0.1627527,21.83302,-27.19208,-40.14263,1007.92
22.777173996,-1.85203,-1.14694,-0.8919064,-0.9673176,-0.140886,-0.1661517,21.83302,-27.19208,-40.14263,1007.92
22.809733868,-1.052173,-0.790055,-0.5247101,-0.9593622,-0.1567798,-0.1751027,21.46492,-27.19731,-40.58752,1007.922
22.842293739,-0.006206609,-0.671093,-0.4023113,-0.9723125,-0.1302573,-0.1664681,21.10334,-27.1922,-39.24812,1007.922
22.877357960,-0.3753713,-0.4926502,-0.4635107,-0.9653454,-0.1432835,-0.1676403,21.10334,-27.1922,-39.24812,1007.92
22.909917831,0.3629581,-0.5521312,-0.4023113,-0.9687511,-0.1442844,-0.1710359,21.10007,-27.19737,-40.14026,1007.92
22.942477703,-0.2523164,-0.01680271,-0.4023113,-0.9658501,-0.1413551,-0.1656769,21.10007,-27.19737,-40.14026,1007.919
22.975037575,0.05532085,-0.1357646,-0.2799125,-0.9697448,-0.141883,-0.1676147,21.10007,-27.19737,-40.14026,1007.921
23.010101795,-0.006206609,-0.4331693,-0.4023113,-0.9711943,-0.1428738,-0.1676285,21.46492,-27.19731,-40.58752,1007.921
23.042661667,-0.190789,0.1021592,-0.1575137,-0.964829,-0.144282,-0.1604054,20.36877,-27.20008,-39.69181,1007.921
23.075221539,-0.2523164,0.221121,-0.09631427,-0.9638917,-0.1432513,-0.1705415,20.36877,-27.20008,-39.69181,1007.921
23.110286236,-0.1292615,0.04267823,-0.2799125,-0.9644068,-0.1408281,-0.170504,21.11144,-27.92499,-40.13503,1007.923
23.142845631,-0.4368988,-0.07628365,-0.4635107,-0.9638653,-0.1432997,-0.159908,21.46492,-27.19731,-40.58752,1007.923
23.175405502,-0.1292615,0.1616401,-0.2799125,-0.9697303,-0.1433363,-0.1686037,21.46492,-27.19731,-40.58752,1007.923
23.210470199,0.3014307,0.3995638,-0.09631427,-0.9697211,-0.1424018,-0.160372,21.47223,-27.55853,-40.13883,1007.921
23.243030071,-0.6830086,0.4590448,0.1484833,-0.9638795,-0.1461272,-0.1792862,21.10007,-27.19737,-40.14026,1007.919
23.275589943,0.3014307,0.3400829,0.2708821,-0.9639316,-0.1388979,-0.1661247,21.10007,-27.19737,-40.14026,1007.918
23.310654163,0.3014307,0.4590448,0.1484833,-0.9643722,-0.1442207,-0.1724893,21.10576,-27.56118,-40.13765,1007.922
23.343214512,0.5475405,-0.01680271,0.3932809,-0.9668295,-0.1408818,-0.1656688,21.09603,-26.83097,-39.6968,1007.92
23.375774383,-0.1292615,-0.2547265,0.2708821,-0.9649329,-0.1355312,-0.1612386,21.09603,-26.83097,-39.6968,1007.92
23.408334255,-0.4984263,-0.4926502,0.3932809,-0.9638906,-0.1432535,-0.1700582,21.09603,-26.83097,-39.6968,1007.92
23.443398952,-1.052173,-0.3736883,0.6992779,-0.9702449,-0.1418651,-0.1729311,21.47223,-27.55853,-40.13883,1007.918
23.475958347,-1.175228,-0.671093,0.5156797,-0.9757051,-0.1346112,-0.1805492,21.47223,-27.55853,-40.13883,1007.924
23.508518219,-1.298283,-1.08746,0.8216767,-0.9653289,-0.1452162,-0.1700867,20.73929,-27.56383,-40.13646,1007.924
23.543582916,-1.359811,-1.325383,1.433671,-0.9682541,-0.1438207,-0.1647455,21.09681,-27.20254,-41.0324,1007.924
23.576142788,-1.052173,-0.9090168,2.106864,-0.9566381,-0.135454,-0.1544781,21.09681,-27.20254,-41.0324,1007.924
23.608702660,-0.4984263,0.3995638,2.718858,-0.9633116,-0.1472201,-0.1512676,21.09603,-26.83097,-39.6968,1007.924
23.643766880,-2.467305,0.8754113,1.862067,-0.98164,-0.1240567,-0.1673313,21.4706,-27.56112,-40.58491,1007.924
23.676326752,-2.036613,-1.265902,1.005275,-0.9768252,-0.1215153,-0.1779314,21.4706,-27.56112,-40.58491,1007.927
23.708886623,-2.036613,-2.217597,0.8216767,-0.9595464,-0.144553,-0.1923175,21.10576,-27.56118,-40.13765,1007.927
23.743950844,0.6705954,-1.563307,1.800867,-0.957543,-0.1441538,-0.1676611,21.10413,-27.56376,-40.58372,1007.927
23.776510715,0.8551778,-0.790055,2.780057,-0.9707107,-0.139532,-0.1530766,21.10413,-27.56376,-40.58372,1007.927
23.809071541,0.7321229,-1.027979,2.106864,-0.9705238,-0.1151973,-0.1599562,21.10981,-27.92757,-40.58111,1007.925
23.841630936,0.9782327,-0.5521312,2.351662,-0.9629107,-0.1418248,-0.1608531,21.46655,-27.19472,-40.14145,1007.923
23.876695633,0.7936503,-0.3736883,2.53526,-0.9733381,-0.1273216,-0.173673,21.46655,-27.19472,-40.14145,1007.923
23.909255505,1.839617,-0.4926502,2.718858,-0.9664579,-0.128299,-0.1529094,21.11307,-27.92241,-39.68896,1007.923
23.941815376,0.9167053,-0.2547265,2.596459,-0.976258,-0.1221311,-0.147972,20.37282,-27.56647,-40.13527,1007.922
23.976879597,-0.2523164,-0.730574,2.106864,-0.9782837,-0.1201118,-0.1701746,20.37282,-27.56647,-40.13527,1007.924
24.009439468,-0.4368988,-0.9684978,2.045665,-0.96499,-0.1316219,-0.1660126,20.74497,-27.92764,-40.13385,1007.926
24.041999340,-0.006206609,-0.790055,2.351662,-0.9729338,-0.1190789,-0.1682305,21.48764,-28.65255,-40.57707,1007.926
24.077063561,-0.4984263,-1.325383,2.045665,-0.9753466,-0.1186753,-0.1571043,21.12443,-28.65003,-39.68374,1007.924
24.109623432,-0.1292615,-0.9684978,2.106864,-0.9631262,-0.1219311,-0.1542656,21.12443,-28.65003,-39.68374,1007.924
24.142183304,0.1168483,-0.790055,2.229263,-0.9758012,-0.1206429,-0.1532669,21.12117,-28.6552,-40.57589,1007.924
24.177248001,0.1168483,-0.790055,1.739668,-0.9665613,-0.1219272,-0.1648965,20.75633,-28.65526,-40.12862,1007.924
24.209807873,-0.190789,-0.9090168,0.882876,-0.9749964,-0.1089068,-0.1666232,20.75633,-28.65526,-40.12862,1007.922
24.242368221,0.3629581,-0.4926502,0.8216767,-0.9669808,-0.1234836,-0.144618,21.11875,-28.28622,-39.68635,1007.922
24.274928093,0.3014307,0.1021592,1.678468,-0.9774252,-0.1075226,-0.1574156,21.11549,-28.29138,-40.5785,1007.922
24.309992313,0.9167053,0.221121,1.617269,-0.9793432,-0.1109318,-0.1613327,21.11549,-28.29138,-40.5785,1007.922
24.342552185,-0.1292615,0.3995638,1.372471,-0.9656012,-0.1195114,-0.15906,20.76038,-29.02165,-40.57209,1007.922
24.375112057,2.701002,0.9348923,1.984465,-0.9703177,-0.1317445,-0.1544083,21.48764,-28.65255,-40.57707,1007.925
24.410176754,1.77809,0.6969685,1.678468,-0.9751302,-0.09391836,-0.1499596,21.48764,-28.65255,-40.57707,1007.925
24.442736149,0.4860131,0.6374876,0.7604772,-0.9794738,-0.09642484,-0.1456432,20.76201,-29.01907,-40.12601,1007.923
24.475296020,-1.482866,-0.1357646,0.08728392,-0.973612,-0.1049434,-0.1791319,21.12848,-29.01642,-40.1272,1007.923
24.510360718,0.609068,-0.4926502,0.2096827,-0.9630899,-0.1262779,-0.1601324,21.12848,-29.01642,-40.1272,1007.921
24.542920589,1.162815,0.221121,0.5156797,-0.9764196,-0.1056652,-0.1356362,21.12685,-29.019,-40.57327,1007.92
24.575480461,-0.06773406,0.9943733,0.08728392,-0.9769343,-0.104194,-0.1399637,21.13011,-29.01384,-39.68113,1007.92
24.610544681,0.2399032,1.291778,0.1484833,-0.974416,-0.1157296,-0.1609273,21.13011,-29.01384,-39.68113,1007.924
24.643104553,0.7936503,1.708145,0.4544803,-0.9641927,-0.1141649,-0.1551128,21.12443,-28.65003,-39.68374,1007.924
24.675664902,1.593507,2.183992,0.6992779,-0.9681294,-0.1098601,-0.1511763,20.76364,-29.01649,-39.67994,1007.924
24.708224773,0.7321229,1.767625,0.3320815,-0.9749879,-0.1103492,-0.1700288,20.76364,-29.01649,-39.67994,1007.922
24.743289471,0.3014307,1.172816,-0.4023113,-0.9688134,-0.09856745,-0.1780725,21.49332,-29.01636,-40.57446,1007.922
24.775848865,0.3629581,1.529702,-0.2799125,-0.9739348,-0.1138104,-0.1541312,21.13011,-29.01384,-39.68113,1007.922
24.808408737,0.9167053,2.302954,-0.09631427,-0.9755391,-0.1002503,-0.1481223,21.13011,-29.01384,-39.68113,1007.922
24.843473434,0.05532085,2.421916,-0.2187131,-0.9628162,-0.1111381,-0.1753698,21.50158,-29.43822,-40.12534,1007.922
24.876033306,1.716562,2.302954,-0.1575137,-0.9720823,-0.1093305,-0.1719496,21.13011,-29.01384,-39.68113,1007.926
24.908593178,1.28587,1.886587,-0.1575137,-0.9705886,-0.1103228,-0.1632654,21.13011,-29.01384,-39.68113,1007.926
24.943657398,1.962672,1.529702,-0.3411119,-0.9736243,-0.1053963,-0.1863894,21.13011,-29.01384,-39.68113,1007.924
24.976217270,1.53198,0.8754113,-0.5859095,-0.9715462,-0.112743,-0.1681352,20.76527,-29.0139,-39.23387,1007.924
25.008777142,1.347397,1.351259,-0.6471089,-0.9691692,-0.1064231,-0.1617571,20.76527,-29.0139,-39.23387,1007.924
25.043841362,0.05532085,1.886587,-0.5859095,-0.9661295,-0.117064,-0.1643393,20.76201,-29.01907,-40.12601,1007.924
25.076402187,2.208782,2.421916,-0.1575137,-0.971087,-0.1112592,-0.1724634,20.76364,-29.01649,-39.67994,1007.924
25.108962059,1.962672,3.016725,-0.4635107,-0.9671517,-0.1127079,-0.1633051,20.76364,-29.01649,-39.67994,1007.924
25.144026279,1.77809,2.838282,-0.5247101,-0.9735442,-0.1122012,-0.1860099,21.13743,-29.37507,-39.23244,1007.924
25.176586151,2.147254,2.778801,-0.4023113,-0.970501,-0.1214218,-0.180353,21.49417,-28.64222,-38.79279,1007.929
25.209146023,2.147254,2.421916,-0.4023113,-0.9717071,-0.102937,-0.1873205,21.49417,-28.64222,-38.79279,1007.927
25.241705894,1.28587,1.886587,-0.4635107,-0.9661974,-0.1145619,-0.1802525,21.86469,-29.00596,-39.23743,1007.927
25.276770115,2.516419,2.302954,-0.3411119,-0.9691042,-0.1155784,-0.1788151,21.49658,-29.01119,-39.68232,1007.927
25.309329986,2.577947,2.600358,-0.5247101,-0.9637812,-0.1135452,-0.1831396,21.49658,-29.01119,-39.68232,1007.93
25.341889858,3.254749,2.71932,-0.7695076,-0.9725519,-0.1131735,-0.1831255,21.50484,-29.43306,-39.2332,1007.93
25.376954079,2.516419,2.124511,-1.442701,-0.9653312,-0.1076937,-0.1917496,21.13174,-29.01126,-39.23506,1007.928
25.409513950,2.701002,2.302954,-1.442701,-0.962225,-0.1208345,-0.1789019,21.13174,-29.01126,-39.23506,1007.928
25.442074776,1.716562,2.838282,-1.5039,-0.963227,-0.1198446,-0.1856531,21.5039,-29.37242,-39.23363,1007.928
25.477138996,2.701002,2.659839,-1.5651,-0.9685922,-0.1189471,-0.1846675,21.12933,-28.64228,-38.34553,1007.926
25.509698868,0.2399032,1.767625,-1.626299,-0.9696243,-0.1179022,-0.2035022,21.12933,-28.64228,-38.34553,1007.926
25.542258739,1.03976,1.41074,-1.5651,-0.9694948,-0.1247973,-0.1833057,21.13338,-29.00867,-38.78899,1007.924
25.577322960,0.609068,1.351259,-1.626299,-0.9607998,-0.1217016,-0.1977682,20.76691,-29.01132,-38.7878,1007.924
25.609882831,-0.190789,0.4590448,-1.626299,-0.9650206,-0.1382247,-0.2101006,20.76691,-29.01132,-38.7878,1007.924
25.642442703,1.962672,0.3400829,-1.687499,-0.9670479,-0.1276414,-0.1920523,21.13501,-29.00609,-38.34291,1007.923
25.675002575,0.2399032,-0.4331693,-1.932296,-0.9705359,-0.1213581,-0.1943699,21.49985,-29.00603,-38.79018,1007.923
25.710067272,0.3629581,0.04267823,-1.871097,-0.9694356,-0.1306128,-0.1867781,21.49985,-29.00603,-38.79018,1007.927
25.742626667,0.9167053,0.04267823,-1.993495,-0.9670845,-0.1251965,-0.1953986,21.50811,-29.42789,-38.34106,1007.925
25.775187492,0.609068,0.04267823,-1.626299,-0.9644824,-0.1359338,-0.1781633,21.14326,-29.42795,-37.8938,1007.925
25.810251713,-0.006206609,0.04267823,-1.381502,-0.9645643,-0.1343574,-0.2042415,21.13096,-28.6397,-37.89945,1007.923
25.842811584,-0.2523164,-0.790055,-1.320302,-0.9655377,-0.1319934,-0.1926035,21.13096,-28.6397,-37.89945,1007.925
25.875371456,-0.3753713,-0.730574,-1.197903,-0.9669932,-0.1315463,-0.1882449,21.86227,-28.63699,-38.3479,1007.923
25.910435677,-0.4368988,-0.790055,-1.320302,-0.9670314,-0.1295741,-0.1944987,21.49417,-28.64222,-38.79279,1007.922
25.942995548,-0.4984263,-0.730574,-1.259103,-0.9611213,-0.1348516,-0.1926514,21.49417,-28.64222,-38.79279,1007.922
25.975555420,0.2399032,-1.08746,-1.136704,-0.969884,-0.1335434,-0.1848889,21.48848,-28.27841,-38.79539,1007.92
26.010620117,-1.359811,-1.14694,-1.136704,-0.9625152,-0.1402245,-0.1907985,21.48522,-28.28357,-39.68754,1007.92
26.043179989,0.2399032,-1.14694,-0.9531059,-0.9635419,-0.1368116,-0.1960626,21.48522,-28.28357,-39.68754,1007.924
26.075739861,-0.9906458,-1.563307,-1.136704,-0.9728133,-0.1326163,-0.1834218,21.1277,-28.64487,-38.7916,1007.921
26.108300209,-1.421338,-1.801231,-1.381502,-0.9620597,-0.1373071,-0.1897877,21.49012,-28.27582,-38.34933,1007.921
26.143364430,-0.6214812,-0.8495359,-0.5859095,-0.9580417,-0.1469921,-0.1860723,21.49012,-28.27582,-38.34933,1007.922
26.175924301,0.5475405,-0.4926502,-0.4635107,-0.9591666,-0.1353143,-0.1921769,21.48848,-28.27841,-38.79539,1007.921
26.208484173,0.05532085,-0.9090168,-0.4635107,-0.9704217,-0.1291766,-0.1848218,21.48444,-27.91201,-38.35194,1007.921
26.243548870,-0.190789,-0.671093,-0.5247101,-0.9639146,-0.1432095,-0.179725,21.48444,-27.91201,-38.35194,1007.925
26.276108265,-1.175228,-0.9684978,-0.4635107,-0.9635633,-0.1348702,-0.1955495,21.48685,-28.28099,-39.24147,1007.925
26.308668136,-0.190789,-0.730574,0.2708821,-0.9585554,-0.1440961,-0.1831274,21.48685,-28.28099,-39.24147,1007.925
26.343732834,-0.1292615,-0.790055,0.2708821,-0.9621109,-0.1319819,-0.185356,21.48685,-28.28099,-39.24147,1007.923
26.376292705,-1.359811,-1.503826,0.3932809,-0.9668289,-0.1461148,-0.1904008,21.12038,-28.28364,-39.24028,1007.921
26.408852577,-0.1292615,-1.384864,0.1484833,-0.9601386,-0.1329524,-0.1800555,21.48685,-28.28099,-39.24147,1007.921
26.443917274,-1.359811,-1.801231,0.2708821,-0.9649217,-0.1426858,-0.1908337,21.48685,-28.28099,-39.24147,1007.921
26.476477146,0.05532085,-1.444345,0.3932809,-0.9649984,-0.1330335,-0.1761851,21.10902,-27.55602,-39.2455,1007.921
26.509037018,-1.052173,-0.8495359,0.1484833,-0.9650065,-0.1311163,-0.1703553,21.12038,-28.28364,-39.24028,1007.919
26.541596889,-1.728975,-1.027979,0.3320815,-0.9615285,-0.1407109,-0.1879066,21.12038,-28.28364,-39.24028,1007.922
26.576661587,-0.7445361,-1.74175,0.3320815,-0.9688963,-0.1345069,-0.1839378,21.49417,-28.64222,-38.79279,1007.92
26.609221458,-1.236756,-2.455521,-0.3411119,-0.9713684,-0.1330435,-0.1921305,21.49253,-28.6448,-39.23886,1007.922
26.641780853,-1.236756,-2.515002,-0.7083083,-0.9728203,-0.1292742,-0.1703196,21.49253,-28.6448,-39.23886,1007.922
26.676845550,-2.467305,-1.920193,-0.4635107,-0.96679,-0.1457102,-0.1725097,21.12201,-28.28105,-38.79421,1007.926
26.709405422,-1.359811,-2.277078,-0.5859095,-0.9689165,-0.1325676,-0.1829415,21.4909,-28.64738,-39.68493,1007.926
26.741965771,-1.421338,-2.33656,-0.4023113,-0.9620277,-0.1364144,-0.1723725,21.4909,-28.64738,-39.68493,1007.925
26.777030468,-0.5599537,-1.860712,-0.5247101,-0.9674022,-0.1350243,-0.1728295,20.75554,-28.2837,-38.79302,1007.925
26.809589863,-0.3753713,-1.682269,-0.1575137,-0.9619722,-0.1407963,-0.1705059,20.74497,-27.92764,-40.13385,1007.925
26.842149734,-0.06773406,-1.682269,0.3932809,-0.966382,-0.1389011,-0.1724062,20.74497,-27.92764,-40.13385,1007.925
26.877214432,-0.3138439,-1.622788,0.3932809,-0.9634604,-0.137436,-0.1656194,21.47954,-27.91976,-39.69015,1007.929
26.909774303,-1.60592,-1.801231,0.5156797,-0.9699183,-0.1282489,-0.1736905,21.12443,-28.65003,-39.68374,1007.923
26.942334175,-1.544393,-2.515002,0.7604772,-0.9668962,-0.136955,-0.1743096,21.12443,-28.65003,-39.68374,1007.927
26.974893570,-0.6830086,-2.33656,0.9440755,-0.9645145,-0.1292168,-0.1592091,21.11712,-28.2888,-40.13242,1007.927
27.009958267,0.1168483,-1.860712,1.127674,-0.9713247,-0.1312208,-0.165517,20.75228,-28.28887,-39.68517,1007.927
27.042518616,-0.006206609,-1.265902,1.372471,-0.9688072,-0.1375235,-0.1617486,20.75228,-28.28887,-39.68517,1007.927
27.075078487,1.101288,-0.671093,1.433671,-0.961969,-0.1398509,-0.164691,21.11144,-27.92499,-40.13503,1007.927
27.110143185,1.593507,-0.5521312,1.923266,-0.9664434,-0.1297523,-0.1538983,21.11875,-28.28622,-39.68635,1007.925
27.142703056,-0.190789,-0.5521312,1.556069,-0.9689823,-0.1229352,-0.1639428,21.11875,-28.28622,-39.68635,1007.925
27.175262451,-0.06773406,-0.8495359,1.862067,-0.9707891,-0.1365353,-0.1709158,21.47954,-27.91976,-39.69015,1007.924
27.210327148,1.162815,-1.08746,2.53526,-0.9703845,-0.1263908,-0.1562601,22.22626,-29.01106,-40.57684,1007.922
27.242887020,0.05532085,-1.027979,3.147254,-0.9659548,-0.1307002,-0.1577802,22.22626,-29.01106,-40.57684,1007.922
27.275446892,-0.06773406,-1.682269,3.147254,-0.9694602,-0.1267629,-0.178502,21.11712,-28.2888,-40.13242,1007.924
27.310511112,0.6705954,-2.752926,3.086055,-0.9680082,-0.1210206,-0.1547303,21.1228,-28.65261,-40.12981,1007.923
27.343071461,0.3014307,-3.050331,3.51445,-0.9703776,-0.1283058,-0.1625732,21.1228,-28.65261,-40.12981,1007.923
27.375631332,1.224343,-2.633964,3.51445,-0.9689676,-0.1196327,-0.1421404,21.12117,-28.6552,-40.57589,1007.921
27.410696030,1.347397,-1.682269,3.392051,-0.9812536,-0.1095983,-0.1395586,21.13511,-29.44087,-40.12415,1007.917
27.443255901,1.716562,-0.671093,2.902456,-0.9705303,-0.1128073,-0.1512189,21.13511,-29.44087,-40.12415,1007.916
27.475815773,2.270309,0.1021592,2.841257,-0.9729356,-0.1152708,-0.1507708,21.12848,-29.01642,-40.1272,1007.916
27.508375168,1.716562,-0.1952455,2.780057,-0.9773816,-0.1118826,-0.1603824,20.77432,-29.80733,-40.12035,1007.916
27.543439865,2.454892,-0.730574,2.657659,-0.9754944,-0.1046125,-0.1506058,20.77432,-29.80733,-40.12035,1007.92
27.575999737,1.28587,-1.14694,2.412861,-0.9808574,-0.1056212,-0.1578666,20.40622,-29.81256,-40.56524,1007.918
27.608560085,1.347397,-2.455521,2.106864,-0.9691439,-0.1064692,-0.151607,20.76201,-29.01907,-40.12601,1007.918
27.643624782,0.3629581,-2.693445,2.412861,-0.9676242,-0.1113136,-0.1507156,21.14242,-29.8021,-39.67547,1007.918
27.676184654,0.6705954,-2.515002,2.902456,-0.9793977,-0.1022711,-0.1423489,21.14242,-29.8021,-39.67547,1007.918
27.708744049,-0.4984263,-1.682269,3.086055,-0.9710483,-0.1080007,-0.1409942,21.14484,-30.17107,-40.56501,1007.916
27.743808746,0.4860131,-1.503826,3.208453,-0.9750476,-0.1021546,-0.1554024,20.78405,-30.53753,-40.56121,1007.916
27.776368618,1.162815,-1.563307,3.453251,-0.9808612,-0.1027607,-0.1457386,20.78405,-30.53753,-40.56121,1007.914
27.808928490,1.408925,-2.39604,3.330852,-0.9770534,-0.09493975,-0.1446562,20.41595,-30.54276,-41.00609,1007.914
27.843992710,0.8551778,-4.120987,2.841257,-0.9867854,-0.09983573,-0.1645399,20.41432,-30.54535,-41.45216,1007.914
27.876553059,1.28587,-6.916592,1.862067,-0.9873227,-0.09356702,-0.1552596,20.41432,-30.54535,-41.45216,1007.917
27.909112930,2.701002,-11.13974,0.02608453,-1.004902,-0.09655944,-0.1886413,20.78405,-30.53753,-40.56121,1007.917
27.941672802,4.608353,-17.86109,-4.808668,-1.025894,-0.05113088,-0.1922783,20.42163,-30.90657,-41.00348,1007.917
28.009297371,7.192506,-25.35568,-13.25418,-1.083765,-0.09096996,-0.1478762,21.14321,-30.17366,-41.01108,1007.917
28.041856766,13.71442,-29.22194,-17.84414,-1.132466,-0.03933138,-0.1006372,20.40701,-30.18412,-41.90084,1007.92
28.076921463,16.66774,-31.48222,-21.5161,-1.090511,-0.08785968,-0.1033516,20.40701,-30.18412,-41.90084,1007.92
28.109481335,6.331121,-36.35966,-17.10975,-0.987826,-0.008464345,0.04470713,20.04156,-30.55795,-43.17154,1007.92
28.142041683,-32.73882,-26.72375,2.718858,-0.7570364,0.2444243,0.02997422,20.04724,-30.92176,-43.16892,1007.918
28.177106381,-106.8794,4.384787,11.22557,-0.6890478,0.259917,0.02434443,20.04724,-30.92176,-43.16892,1007.916
28.209666252,-151.3022,27.99872,10.85838,-0.7852698,0.1984358,0.0157653,19.65883,-29.84073,-44.51378,1007.916
28.242225647,-189.0186,27.76079,-1.442701,-0.9474711,0.07339364,0.008213646,20.00568,-28.6886,-44.96931,1007.916
28.277290344,-189.7569,11.16561,12.32716,-1.011916,-0.2173482,-0.04643101,20.00568,-28.6886,-44.96931,1007.92
28.309850216,-149.2103,-1.860712,8.043205,-0.9662415,-0.3790088,-0.062476,20.65908,-23.58995,-45.00825,1007.92
28.342410087,-105.2182,-6.024377,-14.17218,-0.9359409,-0.6087348,-0.117248,20.9517,-18.85777,-45.04338,1007.919
28.374970436,-53.96579,11.40354,3.820447,-0.8061322,-0.5174158,-0.3731365,20.9517,-18.85777,-45.04338,1007.919
28.410034656,38.57151,46.37833,-8.66423,-1.455169,-0.4050966,-1.170302,21.61404,-14.11777,-44.18756,1007.919
28.442594528,67.85858,-3.942545,0.3932809,-1.031813,0.1747349,0.4564813,21.58159,-11.93232,-43.75716,1007.917
28.475154400,-38.03017,16.5189,-26.84045,-1.040601,0.4292019,0.2641211,21.58159,-11.93232,-43.75716,1007.921
28.510219097,-63.81018,2.124511,-28.30924,-1.011723,-0.47056,-0.5771751,21.61,-13.75137,-43.7441,1007.921
28.542778969,-8.312414,6.407139,-10.56141,-0.7505114,-0.2988628,-0.2871985,21.95272,-11.92229,-42.48385,1007.921
28.575338364,12.05317,4.860634,-13.92738,-1.179011,0.01242952,0.03215925,21.95272,-11.92229,-42.48385,1007.921
28.610403061,-34.09242,5.574406,-7.746239,-0.8507878,-0.2227638,-0.1032242,21.91155,-9.377832,-42.88448,1007.919
28.642963409,-3.697854,12.41471,2.718858,-0.9168636,-0.2548138,-0.1911406,21.90913,-9.008856,-41.99494,1007.919
28.675523281,0.3014307,18.18436,7.798408,-0.9682655,-0.1851228,-0.1668257,21.90913,-9.008856,-41.99494,1007.918
28.710587978,8.853746,16.39993,11.65397,-1.007304,-0.1147239,-0.261906,22.26564,-8.276373,-41.61901,1007.918
28.743147850,16.29857,8.726896,10.24638,-0.9583815,-0.08507305,-0.229598,21.9008,-8.276437,-41.17175,1007.919
28.775707245,3.623914,3.016725,7.55361,-0.9630154,-0.1145792,-0.2735476,21.9008,-8.276437,-41.17175,1007.918
28.808267117,4.485298,1.708145,10.30758,-0.9405103,-0.2398751,-0.2305268,22.27295,-8.637601,-41.17033,1007.918
28.843331814,54.19948,1.589183,10.67478,-1.030462,-0.04704582,-0.2482833,22.28921,-9.357473,-39.82689,1007.916
28.875892162,9.345966,3.254649,5.289233,-0.8544151,-0.09701372,-0.1916937,22.28921,-9.357473,-39.82689,1007.916
28.908452034,-1.052173,7.656239,1.617269,-0.9786567,-0.1298385,-0.1698393,23.03267,-10.45394,-41.60572,1007.916
28.943516254,20.54397,1.351259,4.004045,-1.05093,0.02210215,-0.1234641,22.32977,-12.27571,-41.14421,1007.918
28.976076126,9.530549,-1.027979,-5.175864,-0.9700643,0.0387356,-0.2354318,22.32977,-12.27571,-41.14421,1007.918
29.008635998,-20.37179,-6.143339,-7.62384,-0.9610232,-0.2096465,-0.309803,22.69219,-11.90667,-40.70194,1007.917
29.043700695,10.02277,-13.7569,-4.013076,-0.9387389,-0.1815585,-0.2243217,22.33545,-12.63952,-41.1416,1007.917
29.076260567,-0.6214812,-12.32936,-4.502671,-0.9488607,-0.141986,-0.1918053,22.33545,-12.63952,-41.1416,1007.917
29.108820915,9.161384,-10.24752,0.882876,-0.9914472,-0.1325646,-0.03548974,21.95193,-11.55073,-41.14825,1007.915
29.143885136,-2.713415,-1.979674,1.556069,-0.958057,-0.1374519,-0.1467732,21.95761,-11.91455,-41.14564,1007.919
29.176445007,0.1168483,-1.503826,6.023625,-0.989462,-0.1160165,-0.1410987,21.95761,-11.91455,-41.14564,1007.919
29.209004879,4.17766,-0.790055,1.678468,-0.9826592,-0.09788352,-0.2607061,21.97303,-13.00856,-41.58387,1007.919
29.241564750,5.961957,-5.608011,4.616039,-0.981082,-0.09997953,-0.2230362,21.96166,-12.28094,-41.5891,1007.917
29.276629448,1.77809,-6.678668,5.228033,-0.9665554,-0.1551754,-0.1214164,21.96166,-12.28094,-41.5891,1007.917
29.309188843,4.300715,-7.868286,1.311272,-0.9886634,-0.02780641,-0.191475,22.3265,-12.28087,-42.03635,1007.915
29.341749668,-2.036613,-11.19922,2.168063,-1.021312,-0.09751835,-0.132085,21.96408,-12.64991,-42.47863,1007.915
29.376813888,3.562386,-8.938943,1.556069,-0.9393269,-0.1661608,-0.1921833,21.96837,-13.01594,-42.85836,1007.914
29.409373760,13.03761,-6.500225,2.718858,-1.023884,-0.1310117,-0.1485449,21.96837,-13.01594,-42.85836,1007.914
29.441933632,17.40606,-5.845934,0.6992779,-1.06029,-0.05238189,-0.1231413,21.96814,-13.01631,-42.92209,1007.918
29.476997852,12.7915,-3.942545,-0.3411119,-1.157264,-0.03026299,-0.2411376,22.34434,-13.74387,-43.36413,1007.918
29.509557724,16.72926,-8.16569,-0.2799125,-1.102693,-0.08800305,-0.1067257,22.34434,-13.74387,-43.36413,1007.918
29.542118549,23.43576,-4.894239,-1.5651,-1.046251,-0.07149079,-0.04948976,21.98051,-14.11512,-44.18875,1007.916
29.577182770,19.74411,-5.013201,10.91958,-1.014443,0.007476106,-0.009645564,22.35267,-14.47628,-44.18732,1007.916
29.609742641,2.331837,0.1021592,27.19862,-0.9935373,0.2091912,-0.06024313,22.35267,-14.47628,-44.18732,1007.916
29.642302513,-17.9107,10.03548,31.91097,-1.072174,0.1610995,-0.1831953,22.74429,-16.29786,-45.0676,1007.916
29.674862385,-16.1264,19.84983,56.45193,-1.068343,0.1156641,-0.2269127,23.12617,-17.38923,-45.50703,1007.916
29.709926605,30.57294,22.46699,71.69057,-1.19543,0.2009225,-0.2090545,23.12617,-17.38923,-45.50703,1007.915
29.742486477,32.66487,28.17716,79.2793,-1.22958,0.2884732,-0.2149365,23.15131,-19.21345,-46.38612,1007.915
29.775046825,31.06516,33.11408,83.13486,-1.215789,0.2702919,-0.2384292,23.58028,-23.21272,-46.35858,1007.915
29.810111523,31.43433,41.38193,88.70401,-1.191083,0.3145496,-0.2807984,23.58028,-23.21272,-46.35858,1007.915
29.842671394,25.28158,50.36355,95.25234,-1.14532,0.3075543,-0.3210696,24.00761,-27.21457,-46.77712,1007.915
29.875231266,27.25046,61.78389,102.0455,-1.180102,0.2704427,-0.3820243,25.24453,-31.99378,-46.30043,1007.914
29.910295486,48.4159,68.20783,107.0026,-1.196867,0.2872556,-0.3865854,25.24453,-31.99378,-46.30043,1007.914
29.942855358,49.70798,76.65413,109.267,-1.177234,0.405011,-0.3611224,26.04239,-36.35938,-47.16362,1007.912
29.975415230,48.04674,81.1152,108.7162,-1.177843,0.4727086,-0.2875824,26.46325,-39.62587,-46.24916,1007.912
30.010480404,38.50998,83.73236,110.3074,-1.175526,0.5309261,-0.2581773,26.46325,-39.62587,-46.24916,1007.912
30.043040276,37.2179,80.46091,112.633,-1.096108,0.4781881,-0.2962785,26.13981,-42.17002,-45.33755,1007.91
30.075600147,42.75537,72.19306,116.7945,-1.008898,0.4778121,-0.284284,22.42358,-42.1818,-42.71276,1007.91
30.110664368,41.15566,59.70206,124.8728,-0.9661483,0.5389027,-0.2365057,22.42358,-42.1818,-42.71276,1007.907
30.143224239,45.40105,39.83543,130.136,-0.8753629,0.5468274,-0.1165949,17.6693,-41.45501,-36.90359,1007.909
30.175784111,35.98735,22.76439,129.5852,-0.7749948,0.5523108,-0.07310425,12.90651,-39.25047,-27.21768,1007.907
30.208344459,21.89757,8.667415,124.8117,-0.7081677,0.5472619,-0.05391071,12.90651,-39.25047,-27.21768,1007.902
30.243409157,-10.58893,-2.931369,118.6305,-0.6095857,0.429352,-0.1336284,9.968388,-37.04486,-19.64061,1007.899
30.275969028,-26.64759,-10.54493,101.9843,-0.625552,0.2531447,-0.3325523,6.677341,-35.93888,-13.01039,1007.899
30.308528423,-8.004777,-21.42994,94.94635,-0.5679152,0.2074355,-0.4817019,6.677341,-35.93888,-13.01039,1007.895
30.343593120,38.87915,-29.75727,89.25481,-0.4186734,0.276372,-0.4643595,4.843788,-34.83559,-8.67901,1007.89
30.376152992,79.24116,-31.42274,83.93046,-0.3476714,0.4171303,-0.4337613,3.754162,-34.82803,-5.999012,1007.891
30.408713341,101.9448,-37.96564,72.36377,-0.3141924,0.4905009,-0.3345487,3.754162,-34.82803,-5.999012,1007.885
30.443778038,99.23758,-44.21114,65.14224,-0.3231306,0.5871415,-0.3432166,1.513599,-34.81372,-0.7025433,1007.885
30.476337433,71.79633,-54.08498,63.85705,-0.2737954,0.573709,-0.3473362,1.876074,-33.69898,2.857011,1007.88
30.508897304,44.6012,-52.77639,59.1447,-0.1765119,0.4930014,-0.3824978,1.876074,-33.69898,2.857011,1007.875
30.543962002,28.9117,-42.66463,49.65879,-0.1246049,0.351046,-0.5447113,0.3946002,-31.87022,6.353561,1007.876
30.576521873,25.52769,-31.95807,43.78365,-0.1492221,0.2571615,-0.702734,0.03139162,-31.8677,7.246893,1007.872
30.609082222,39.679,-23.80918,42.07007,-0.1712766,0.2058245,-0.805005,0.03139162,-31.8677,7.246893,1007.872
30.641642094,60.53681,-14.88704,33.62455,-0.1317674,0.1434918,-0.8780173,0.02087188,-30.76593,9.023348,1007.87
30.676706314,71.4887,-5.489049,21.62947,-0.1180272,0.08455591,-0.9171165,0.0347085,-31.11683,11.25632,1007.867
30.709266186,84.40946,-1.444345,8.777598,-0.2050434,0.05889506,-0.9739791,0.0347085,-31.11683,11.25632,1007.864
30.741826057,82.99433,-10.54493,-1.320302,-0.2771254,0.009999971,-1.008975,0.02721763,-30.01027,13.86119,1007.862
30.776890755,56.476,-12.8052,-16.92615,-0.3048573,0.08320322,-1.047469,0.009281397,-28.1125,16.97021,1007.862
30.809451103,52.47672,-13.16209,-35.34717,-0.2973152,0.05527836,-1.083672,0.009281397,-28.1125,16.97021,1007.86
30.842010975,45.46259,-14.11378,-38.40714,-0.2447033,0.1452281,-1.04803,0.3481884,-25.91666,18.73764,1007.863
30.877075195,34.14153,-17.38524,-44.40468,-0.2372692,0.1811771,-1.02332,0.6852317,-23.72377,19.99527,1007.861
30.909635067,13.77594,-21.90579,-41.28351,-0.2418234,0.1562817,-1.012578,0.6852317,-23.72377,19.99527,1007.859
30.942194939,-8.189359,-18.15849,-36.14276,-0.1906988,0.1949502,-1.032823,1.020877,-21.53309,20.87056,1007.859
30.977259636,-8.743106,3.135687,-31.30801,-0.2496573,0.3390358,-1.35588,2.099983,-20.43888,19.96702,1007.861
31.009819984,10.57652,13.96122,-14.47817,-0.3624505,0.5100832,-1.458055,2.099983,-20.43888,19.96702,1007.859
31.042379856,6.946396,26.57118,-12.1526,-0.4699207,0.4861731,-1.106417,2.456722,-19.70603,20.40668,1007.858
31.074939728,-7.020337,6.46662,-29.90042,-0.6644875,0.2653308,-0.6634419,3.1702,-18.24033,21.286,1007.858
31.110003948,-58.76493,-3.942545,-22.55649,-0.5320695,0.1322623,-0.5205868,3.1702,-18.24033,21.286,1007.858
31.142563820,-80.23801,-7.630363,-14.23337,-0.3997782,0.2486777,-0.8370004,2.429947,-17.88439,20.83969,1007.862
31.175123692,-43.56765,-13.34053,0.7604772,-0.2452449,0.358594,-1.050575,2.804518,-18.61453,19.95159,1007.862
31.210188865,8.423055,-8.225172,5.166834,-0.3316093,0.5406789,-1.046747,3.194735,-20.43832,18.68896,1007.862
31.242748737,8.792219,-6.79763,8.838798,-0.3193667,0.3726224,-0.8226192,3.194735,-20.43832,18.68896,1007.86
31.275308609,5.838902,-6.321782,6.207223,-0.3909821,0.311936,-0.7224502,3.211779,-21.52975,18.69679,1007.86
31.310372829,5.961957,-7.154515,-1.748698,-0.3951146,0.240136,-0.7626951,3.206097,-21.16594,18.69418,1007.86
31.342932701,-7.574084,-5.251125,5.289233,-0.367929,0.4210986,-0.9334928,3.206097,-21.16594,18.69418,1007.86
31.375492573,-4.067019,-10.60441,2.045665,-0.3633395,0.4387955,-0.9641634,3.629596,-20.79646,19.13626,1007.86
31.410557747,7.684725,-13.22157,4.799637,-0.3878697,0.3514661,-0.8552622,3.635277,-21.16027,19.13887,1007.858
31.443117618,5.346682,-11.97247,2.351662,-0.4082956,0.3231468,-0.7788175,3.635277,-21.16027,19.13887,1007.86
31.475677013,-3.205634,-7.808805,1.862067,-0.430243,0.3590159,-0.8203028,3.627965,-20.79904,18.69018,1007.86
31.508236885,-9.050743,-2.098636,6.329622,-0.3462789,0.3283347,-0.8861079,4.000117,-21.16021,18.69161,1007.864
31.543301582,-6.835754,-12.03195,7.982006,-0.4065144,0.3709823,-0.8186931,4.000117,-21.16021,18.69161,1007.864
31.575861454,-19.87957,-10.90181,10.30758,-0.4642501,0.3850059,-0.861444,3.992805,-20.79898,18.24292,1007.864
31.608421802,-26.33996,-12.74572,11.34797,-0.4479884,0.3682174,-0.8636493,3.623072,-20.80679,17.35197,1007.864
31.643486500,-44.61361,-12.32936,10.36878,-0.4634573,0.4418917,-0.8639605,3.623072,-20.80679,17.35197,1007.864
31.676045895,-50.02803,-9.950119,12.75556,-0.4474708,0.4156734,-0.8242556,4.010637,-22.26197,16.91515,1007.864
31.708605766,-45.72111,-8.938943,18.07991,-0.3337079,0.4080351,-0.7427913,4.748416,-22.99463,15.13371,1007.862
31.743670464,-26.70912,-6.857111,11.95997,-0.3040169,0.5495356,-0.6734719,4.748416,-22.99463,15.13371,1007.862
31.776230812,-5.236041,-7.095034,6.329622,-0.3248504,0.4621446,-0.6467491,4.403828,-24.82666,13.36367,1007.867
31.808790684,-11.6349,-11.2587,9.205994,-0.4305182,0.4460244,-0.7174661,4.785711,-25.91803,12.92424,1007.867
31.843854904,-38.15323,-7.45192,12.75556,-0.5169406,0.5631117,-0.8480415,4.785711,-25.91803,12.92424,1007.867
31.876414776,-24.61719,-1.860712,18.9979,-0.5122265,0.6898054,-0.9065353,4.058452,-26.28714,12.92923,1007.865
31.908974648,-10.03518,1.172816,15.57073,-0.5398187,0.5490611,-0.7104715,4.799493,-27.01463,12.03993,1007.865
31.941534519,-19.51041,7.239872,16.42752,-0.4371434,0.5533822,-0.7250059,4.799493,-27.01463,12.03993,1007.863
31.976599693,-22.34067,4.027901,10.30758,-0.391007,0.6031433,-0.7407261,4.810856,-27.74225,12.04515,1007.863
32.009159565,-6.46659,4.384787,12.32716,-0.3566745,0.5998085,-0.6576694,4.090298,-28.84636,10.78087,1007.863
32.041719437,16.91385,8.607934,7.982006,-0.2666782,0.5403771,-0.5837395,4.090298,-28.84636,10.78087,1007.861
32.076783657,31.92654,7.180391,2.229263,-0.2958362,0.5483946,-0.7194179,3.718146,-28.4852,10.77945,1007.866
32.109343529,28.48101,-2.158117,0.5156797,-0.3538898,0.5777428,-0.8194565,3.735116,-29.26607,12.0596,1007.867
32.141903877,10.63804,-7.511401,-5.481861,-0.3687514,0.5638021,-0.7892021,3.735116,-29.26607,12.0596,1007.867
32.176968575,17.40606,-4.537354,-6.950647,-0.408347,0.6129756,-0.8145161,3.292838,-28.11193,12.94486,1007.866
32.209528446,38.20234,-0.07628365,-5.298263,-0.4729723,0.5980858,-0.8248317,3.288788,-27.74553,13.38832,1007.866
32.242088318,32.54182,0.221121,-3.339882,-0.4975059,0.5335365,-0.8083913,3.288788,-27.74553,13.38832,1007.864
32.277152538,0.609068,5.336482,2.229263,-0.4292044,0.4866835,-0.783553,2.919898,-27.3792,14.27904,1007.866
32.309712410,-28.80106,14.25862,2.963656,-0.3783365,0.4997177,-0.8317409,3.696874,-26.28204,14.26863,1007.862
32.342272758,-38.95309,17.41111,-4.074275,-0.3220655,0.4885356,-0.7768609,3.696874,-26.28204,14.26863,1007.862
32.374832630,-35.38449,24.72727,0.6380785,-0.2338507,0.4876402,-0.7547244,3.712287,-27.37605,13.83039,1007.865
32.442457199,-6.651172,41.08453,12.14357,-0.1259405,0.499863,-0.7817112,2.926367,-28.11457,12.94605,1007.865
32.475016594,-3.144107,44.5939,21.44587,-0.07921647,0.469179,-0.740654,2.942727,-29.26922,12.50824,1007.863
32.510081768,-4.559238,53.09968,23.46545,-0.07334918,0.5067292,-0.7516878,2.57289,-28.84226,13.39853,1007.863
32.542641640,-1.85203,57.79867,23.52665,-0.1438022,0.4993445,-0.7193462,2.57289,-28.84226,13.39853,1007.863
32.575201511,-5.97437,57.56075,25.60743,-0.1614902,0.5155752,-0.705547,1.48905,-29.63329,14.2999,1007.863
32.610266209,-4.436183,58.51244,28.4226,-0.08527302,0.4647916,-0.6488734,1.109482,-28.47612,15.63103,1007.867
32.642826080,4.239188,55.77632,38.8265,-0.1537135,0.6031049,-0.6935848,1.109482,-28.47612,15.63103,1007.867
32.675386429,-9.35838,45.843,37.84731,-0.1882865,0.6539646,-0.6483048,0.02564096,-29.26715,16.5324,1007.867
32.743010521,37.2179,22.52647,-9.031426,-0.6828125,0.6256174,-1.066381,-0.3466148,-28.47121,18.31222,1007.867
32.775570393,65.70512,3.135687,18.7531,-0.3525543,0.6787097,-0.7884314,-1.450077,-28.11276,18.75925,1007.867
32.810635090,2.577947,0.7564495,3.51445,0.0195693,0.9402435,-1.121231,-1.825669,-27.01142,20.91924,1007.867
32.843195438,16.54468,-9.712195,-8.66423,-0.1128749,0.6868221,-0.9224344,-1.825669,-27.01142,20.91924,1007.867
32.875755310,18.69814,-7.392439,0.1484833,-0.1112108,0.5041124,-0.7125376,-2.201083,-26.65542,20.02567,1007.869
32.908315182,-3.144107,-15.3034,-6.889447,-0.04177297,0.440329,-0.7019768,-2.203503,-26.28645,20.9152,1007.867
32.943379402,-11.57337,-8.819981,-9.276224,-0.06076942,0.5459866,-0.7979885,-1.8273,-27.01401,20.47317,1007.867
32.975939274,-13.91141,-4.656316,-4.869867,-0.02266016,0.5898942,-0.9380181,-1.8273,-27.01401,20.47317,1007.87
33.008499622,-0.006206609,0.1021592,-1.014305,-0.04203412,0.6530716,-0.9921405,-1.09599,-27.0113,20.02472,1007.87
33.043564320,5.531264,10.39236,6.819218,-0.07327756,0.5991763,-0.8803059,-1.452497,-27.74378,19.64878,1007.868
33.076124191,3.623914,8.191567,6.084825,-0.04708441,0.5536819,-0.7413293,-1.452497,-27.74378,19.64878,1007.868
33.108684063,12.05317,-2.693445,-1.014305,-0.04248436,0.5063115,-0.678734,-2.19214,-27.01407,20.92043,1007.868
33.143748283,12.7915,-6.916592,-3.645879,-0.01455162,0.5153314,-0.7646645,-1.466511,-26.64755,20.46937,1007.872
33.176308632,13.03761,-4.120987,-3.339882,-0.05524866,0.5571154,-0.8775813,-1.466511,-26.64755,20.46937,1007.872
33.208868503,20.35938,-2.158117,-1.748698,-0.05341826,0.5896414,-0.9703785,-1.094359,-27.00871,20.47079,1007.872
33.243933201,26.51213,-4.002026,-1.871097,-0.03922774,0.5075293,-0.9353918,-1.098409,-26.64232,20.91425,1007.872
33.276493072,18.63661,-1.979674,-0.4635107,-0.07973459,0.4587661,-0.8031679,-1.098409,-26.64232,20.91425,1007.874
33.309052467,9.530549,-0.9684978,-0.09631427,-0.08939472,0.463727,-0.7465279,-1.845132,-25.55101,21.80094,1007.874
33.341613293,0.7936503,-0.1952455,-0.8919064,-0.09359092,0.5126822,-0.835685,-1.482712,-25.18197,22.24321,1007.874
33.376677513,2.824057,1.291778,0.2708821,-0.08514616,0.596027,-0.9692838,-1.482712,-25.18197,22.24321,1007.876
33.409237385,6.638759,6.288177,4.126444,-0.07945498,0.5640949,-0.9847611,-1.482712,-25.18197,22.24321,1007.881
33.441797256,13.65289,10.5708,6.880417,-0.05496783,0.459213,-0.8302541,-1.481081,-25.17939,22.68928,1007.881
33.476861954,22.57437,9.262224,5.166834,-0.02775047,0.4012734,-0.7301386,-1.481081,-25.17939,22.68928,1007.883
33.509422302,25.89685,4.801154,1.862067,-0.02132006,0.4225201,-0.7878259,-1.486763,-24.81558,22.68667,1007.881
33.541982174,23.25117,1.886587,0.3932809,-0.05002377,0.477158,-0.9140927,-1.867014,-23.72163,23.57217,1007.881
33.577046394,18.57509,2.957244,1.433671,-0.04775603,0.5154883,-0.9995513,-1.867014,-23.72163,23.57217,1007.881
33.609606266,17.52912,3.195168,2.780057,-0.03715755,0.4887823,-0.9748333,-1.882427,-22.62761,24.01041,1007.88
33.642166138,13.899,2.957244,3.086055,-0.0189428,0.4079128,-0.8813428,-2.251317,-22.26128,24.90113,1007.884
33.677231312,9.715131,0.8754113,1.433671,-0.02130085,0.3711744,-0.8253459,-2.251317,-22.26128,24.90113,1007.884
33.709791183,6.454176,-3.228774,-1.075505,-0.03758562,0.3846758,-0.8483263,-2.25863,-21.90005,24.45245,1007.884
33.742351055,3.623914,-4.775278,-2.483091,-0.04789115,0.4174498,-0.9237065,-2.268361,-21.16985,24.8933,1007.882
33.774910450,0.4860131,-3.704621,-2.238293,-0.04879045,0.4443552,-0.9643821,-2.268361,-21.16985,24.8933,1007.88
33.809975147,-1.175228,-1.384864,-0.6471089,-0.05501945,0.4398072,-0.9441437,-2.640513,-20.80869,24.89188,1007.88
33.842535496,0.6705954,-0.1952455,0.2708821,-0.04973315,0.4110482,-0.9107512,-2.278092,-20.43965,25.33415,1007.879
33.875095367,2.024199,-0.1357646,0.3932809,-0.04763108,0.4050845,-0.8760411,-2.278092,-20.43965,25.33415,1007.879
33.910160065,3.377804,1.351259,0.5156797,-0.03790258,0.4042792,-0.8847635,-2.274042,-20.80604,24.89069,1007.877
33.942719936,3.500859,1.767625,0.5156797,-0.03998629,0.4121119,-0.9030103,-2.638882,-20.8061,25.33795,1007.88
33.975279331,3.008639,1.113335,0.3320815,-0.03961355,0.4185098,-0.9193479,-2.638882,-20.8061,25.33795,1007.878
34.010344505,1.901145,-0.5521312,-0.09631427,-0.03526158,0.4195739,-0.9270699,-2.274042,-20.80604,24.89069,1007.878
34.042904377,2.085727,-1.206421,-0.4635107,-0.03470509,0.4161239,-0.9150386,-2.272411,-20.80346,25.33676,1007.878
34.075464249,2.331837,-1.027979,-0.1575137,-0.03689587,0.3970978,-0.9056593,-2.272411,-20.80346,25.33676,1007.876
34.110528946,2.701002,-0.790055,-0.5247101,-0.04617847,0.400838,-0.8997927,-2.270781,-20.80087,25.78283,1007.876
34.143088341,3.562386,-1.265902,-0.6471089,-0.04918298,0.4057074,-0.9103499,-1.917303,-20.07319,25.33035,1007.874
34.175649166,2.639474,-0.9090168,-0.6471089,-0.0502256,0.4086738,-0.9243214,-1.917303,-20.07319,25.33035,1007.879
34.208209038,0.05532085,0.5185257,0.3320815,-0.04689261,0.4136125,-0.9319834,-1.917303,-20.07319,25.33035,1007.879
34.243273258,0.1168483,0.9348923,0.3932809,-0.040428,0.4053643,-0.9166474,-1.917303,-20.07319,25.33035,1007.877
34.275833130,0.9167053,0.3995638,0.4544803,-0.04178298,0.3975421,-0.9104816,-1.917303,-20.07319,25.33035,1007.875
34.308393478,0.2399032,-0.4331693,-0.4023113,-0.03382693,0.3868791,-0.8942171,-2.282143,-20.07325,25.77761,1007.875
34.343458176,-0.5599537,-0.5521312,-0.4023113,-0.04428769,0.4019187,-0.9181464,-2.285405,-20.07842,24.88546,1007.873
34.376018047,-1.298283,-0.8495359,-0.4023113,-0.04727537,0.4067573,-0.9219367,-2.285405,-20.07842,24.88546,1007.878
34.408577919,-2.221195,-1.206421,-0.5859095,-0.05119271,0.4096,-0.9170558,-2.283774,-20.07584,25.33154,1007.878
34.443642139,-2.528832,-0.9090168,-0.5859095,-0.04532886,0.4082119,-0.9156325,-2.291086,-19.71461,24.88285,1007.878
34.476202488,0.1783758,-0.730574,-0.3411119,-0.05400898,0.4027108,-0.9065239,-2.291086,-19.71461,24.88285,1007.876
34.508762360,2.331837,-0.730574,-0.4023113,-0.04905737,0.3954901,-0.9076056,-2.285405,-20.07842,24.88546,1007.876
34.543827057,0.6705954,-0.1952455,-0.09631427,-0.04972985,0.4091397,-0.9185143,-1.917303,-20.07319,25.33035,1007.876
34.576386928,1.962672,0.9943733,0.3320815,-0.04876439,0.4091679,-0.9218985,-1.917303,-20.07319,25.33035,1007.876
34.608947277,2.331837,0.8754113,0.5156797,-0.04630794,0.4077331,-0.9199892,-1.913252,-20.43958,24.88689,1007.878
34.641507149,2.270309,0.6374876,0.02608453,-0.0447163,0.398001,-0.9128886,-2.287824,-19.70944,25.775,1007.88
34.676571369,0.6705954,0.1021592,0.02608453,-0.04370783,0.396048,-0.9080856,-2.287824,-19.70944,25.775,1007.876
34.709131241,1.162815,-0.5521312,-0.4023113,-0.04317977,0.3916988,-0.9120194,-2.283774,-20.07584,25.33154,1007.878
34.741691112,1.224343,-0.4926502,-0.2187131,-0.04325344,0.3975407,-0.9143472,-2.287824,-19.70944,25.775,1007.878
34.776756287,0.1168483,-0.3736883,-0.2799125,-0.05151616,0.3955023,-0.9172705,-2.291086,-19.71461,24.88285,1007.878
34.809316158,-0.867591,-0.4926502,-0.2187131,-0.04383331,0.4034114,-0.9244079,-2.291086,-19.71461,24.88285,1007.878
34.841876030,-0.3753713,-0.4926502,-0.2799125,-0.0456881,0.396082,-0.9211344,-2.289455,-19.71202,25.32893,1007.878
34.876940250,0.1168483,0.1021592,-0.09631427,-0.04954989,0.3945427,-0.9143868,-2.289455,-19.71202,25.32893,1007.878
34.909500122,0.4244856,0.221121,0.02608453,-0.0519931,0.3959533,-0.9109793,-2.289455,-19.71202,25.32893,1007.878
34.942060471,0.9782327,0.3995638,0.3320815,-0.04332832,0.4033848,-0.9171582,-2.289455,-19.71202,25.32893,1007.876
34.977125168,0.3629581,2.005549,1.005275,-0.04519228,0.3951209,-0.9221162,-1.917303,-20.07319,25.33035,1007.879
35.009685040,2.331837,3.849458,1.678468,-0.03742892,0.3967,-0.92645,-1.917303,-20.07319,25.33035,1007.879
35.042244911,1.77809,4.622711,2.106864,-0.03532507,0.3869281,-0.9091996,-2.289455,-19.71202,25.32893,1007.877
35.074805260,3.685441,4.087382,1.923266,-0.04997406,0.3901412,-0.9096198,-2.283774,-20.07584,25.33154,1007.877
35.109869480,4.239188,3.908939,1.862067,-0.03390236,0.3874924,-0.9222435,-2.283774,-20.07584,25.33154,1007.875
35.142429352,5.039045,3.552053,1.862067,-0.03095086,0.3841467,-0.9261644,-2.287824,-19.70944,25.775,1007.874
35.174989224,5.961957,1.41074,1.005275,-0.03475228,0.3782166,-0.9156169,-2.291874,-19.34305,26.21846,1007.874
35.210054397,7.684725,-0.790055,0.08728392,-0.03178552,0.3743675,-0.9156785,-2.291874,-19.34305,26.21846,1007.878
35.242614269,7.56167,-1.325383,-0.1575137,-0.03465954,0.3675838,-0.9283471,-2.303237,-18.61543,26.21323,1007.878
