Time (s),Gyroscope X (deg/s),Gyroscope Y (deg/s),Gyroscope Z (deg/s),Accelerometer X (g),Accelerometer Y (g),Accelerometer Z (g),Magnetometer X (uT),Magnetometer Y (uT),Magnetometer Z (uT),Barometer (hPa)
0.023689747,0.09607545,0.09711464,-0.03178214,-0.003525346,0.1016596,-1.005348,2.553519,-10.19583,24.45996,1007.299
0.055969715,-0.1519777,0.2729007,0.1511504,-0.002553779,0.103147,-0.9956725,1.851274,-9.812069,25.33782,1007.299
0.088249207,-0.02799398,0.03797125,-0.03159955,-0.001106347,0.1026492,-1.000996,1.851274,-9.812069,25.33782,1007.299
0.123012066,-0.2132869,-0.1383219,-0.1534185,0.001298481,0.1089553,-0.9985484,0.7522817,-10.53477,24.92787,1007.299
0.155291557,-0.2127091,-0.07949716,-0.09217745,-0.001602793,0.108947,-0.9985422,2.552857,-9.831316,24.45534,1007.299
0.190051079,0.1592695,0.1554052,-0.03115721,-0.002543395,0.09976929,-0.9927911,2.552857,-9.831316,24.45534,1007.295
0.222330093,0.2821789,-0.1384293,0.02962396,-0.001110134,0.1045882,-1.000018,2.202066,-9.821692,24.89658,1007.295
0.257093430,-0.02793639,-0.1383739,-0.03138949,0.0003407731,0.1031274,-1.003897,2.190081,-9.827328,24.46085,1007.297
0.289372921,-0.3375351,0.2136887,-0.03118521,-0.001112464,0.1050672,-1.001466,2.190081,-9.827328,24.46085,1007.297
0.321652412,-0.2128728,0.09605645,-0.09209433,0.0003501376,0.1017002,-0.9966539,1.840612,-10.54674,24.91133,1007.297
0.356415272,-0.150334,-0.02134717,-0.09212939,0.00178881,0.1050754,-1.001472,1.839289,-9.817704,24.9021,1007.297
0.388691425,0.03581122,0.03753483,0.02984106,0.0003390471,0.1060523,-0.997596,1.839289,-9.817704,24.9021,1007.293
0.423453808,0.2213415,-0.1386461,0.09063146,0.001301831,0.1065259,-1.001463,1.477836,-10.54275,24.91684,1007.293
0.455733776,0.03479031,-0.07978308,-0.03131381,0.001306804,0.1045918,-1.000991,1.828627,-10.55237,24.4756,1007.295
0.490496158,-0.02745253,-0.0209692,-0.03125275,0.0003473697,0.1016887,-1.000038,1.828627,-10.55237,24.4756,1007.295
0.522776127,0.2823333,-0.02097586,0.02977727,0.0008214483,0.1065376,-0.9975943,2.204051,-10.91524,24.91043,1007.295
0.555055618,0.09648608,-0.07970364,-0.03120827,-0.002568428,0.1074843,-1.000966,1.827965,-10.18785,24.47099,1007.291
0.589814186,0.03461345,0.03759177,-0.09231748,0.00419809,0.1079794,-1.003395,1.827965,-10.18785,24.47099,1007.292
0.622094154,-0.0275208,0.2724704,0.02961534,-0.001119726,0.1079691,-1.001933,1.827965,-10.18785,24.47099,1007.292
0.656857490,0.03420451,-0.1385772,0.09048349,-0.001598694,0.106032,-1.001943,1.839951,-10.18222,24.90671,1007.292
0.689136505,-0.08955176,-0.1384726,-0.09224865,-0.00448919,0.1026477,-0.9985718,1.839951,-10.18222,24.90671,1007.292
0.723899841,-0.02724336,-0.07989848,-0.09228329,0.0008302082,0.1026645,-0.9980997,2.214051,-9.816058,25.33231,1007.292
0.756179333,0.2206456,0.1548517,0.02961115,-0.002571154,0.1079617,-1.002897,2.203389,-10.55072,24.90581,1007.292
0.788454533,0.03429162,-0.02126173,0.09054568,-0.002077579,0.1050726,-0.9990466,2.203389,-10.55072,24.90581,1007.292
0.823217869,-0.0897093,0.03735042,0.02937945,0.001304161,0.1060468,-1.000015,2.215374,-10.54509,25.34154,1007.292
0.855497837,0.0340399,0.1547325,0.02925983,0.0003393171,0.1045874,-1.001472,2.565504,-10.1902,24.89568,1007.292
0.890260220,-0.09005654,-0.08029765,-0.0927116,-0.004006165,0.1011809,-1.003416,2.190081,-9.827328,24.46085,1007.292
0.922540188,0.03400531,0.0958433,-0.1533889,-0.0006227177,0.1036282,-0.9980912,2.190081,-9.827328,24.46085,1007.291
0.957302570,-0.1518119,0.03723513,-0.03140752,-0.002092852,0.111362,-0.9994943,1.477174,-10.17823,24.91223,1007.291
0.989578247,-0.08947209,-0.02138006,0.02968043,-0.001606705,0.1094195,-1.001924,2.214713,-10.18057,25.33692,1007.291
1.021858215,0.2201388,0.0372257,0.09046207,-0.002089106,0.1089342,-1.001925,2.214713,-10.18057,25.33692,1007.291
1.056620598,0.1575295,0.03735651,0.02927729,0.002757399,0.1041071,-1.002447,2.202727,-10.18621,24.9012,1007.289
1.088900566,-0.09022965,-0.02124075,-0.03166804,-0.0001423772,0.1031277,-1.003413,1.465189,-10.18387,24.4765,1007.285
1.123662949,-0.2757353,0.21324,0.02935417,-0.0006200334,0.102662,-0.9976132,1.465189,-10.18387,24.4765,1007.291
1.155942917,-0.08904018,0.03681476,-0.09266601,0.0008214064,0.1060487,-0.9990473,1.115058,-10.53876,24.92236,1007.288
1.188218594,-0.2124496,-0.2567385,-0.03146227,0.004214405,0.1046263,-0.9932615,1.839951,-10.18222,24.90671,1007.288
1.222980976,-0.08826949,-0.1975713,0.0295975,-0.002567679,0.1069987,-1.001452,1.839951,-10.18222,24.90671,1007.294
1.255260944,0.09729198,-0.02117305,0.02943847,-0.003527737,0.1060478,-0.9956539,1.863921,-10.17095,25.77817,1007.288
1.290024281,0.2204235,-0.2557072,0.1514391,-0.001585273,0.1012009,-0.9995531,2.190081,-9.827328,24.46085,1007.292
1.322303295,0.2200693,-0.07953228,-0.03140811,-0.003529714,0.1060396,-0.9980712,2.190081,-9.827328,24.46085,1007.292
1.357066631,0.03409577,-0.02062742,0.2124161,-0.001583859,0.09925209,-1.003432,1.465189,-10.18387,24.4765,1007.291
1.389342308,-0.151789,-0.1970013,0.2121429,0.002276454,0.1021618,-1.004874,2.203389,-10.55072,24.90581,1007.291
1.421621322,-0.1515589,-0.1382871,0.09010375,-0.002079951,0.1050628,-1.001947,2.203389,-10.55072,24.90581,1007.286
1.456384659,-0.02756829,-0.2556747,-0.2146322,0.0008310409,0.1031566,-0.9956797,1.488498,-9.808081,25.34334,1007.286
1.488664627,0.03451769,0.2729928,0.212025,-0.0001375902,0.1036362,-0.9961584,1.841273,-10.91125,24.91594,1007.286
1.523427009,-0.2130427,-0.02054137,0.0292087,-0.003044796,0.1036033,-1.003404,1.841273,-10.91125,24.91594,1007.285
1.555706978,0.1591623,-0.1966583,0.2121028,0.00323025,0.1084622,-1.002906,2.214713,-10.18057,25.33692,1007.285
1.590465546,-0.2129312,0.03791165,0.02913323,0.003739098,0.09928367,-0.9986086,1.864583,-10.53547,25.78278,1007.286
1.622745037,-0.027075,-0.02098256,-0.03169686,-0.0006300632,0.1055525,-1.001464,1.864583,-10.53547,25.78278,1007.286
1.655025005,-0.02752837,-0.07991269,0.02912458,-0.001114004,0.1055494,-1.001947,1.839951,-10.18222,24.90671,1007.286
1.689787388,0.03411908,-0.0212272,0.09001374,0.002760832,0.1026553,-1.002455,1.827965,-10.18785,24.47099,1007.286
1.722067356,0.03388309,-0.02112212,-0.03179495,0.0008216344,0.104095,-1.004376,1.827965,-10.18785,24.47099,1007.286
1.756829739,-0.2755895,-0.02112121,-0.0926725,0.004210991,0.1016801,-1.005848,2.203389,-10.55072,24.90581,1007.288
1.789105892,-0.02694043,0.09642555,-0.0314877,0.0008336832,0.1017016,-0.996655,1.840612,-10.54674,24.91133,1007.288
1.823868751,0.03594826,-0.02079576,-0.09238589,-0.005464897,0.1035866,-1.006299,1.839289,-9.817704,24.9021,1007.284
1.856148720,0.2836377,-0.07943229,0.09027755,-0.00206988,0.1026611,-0.9966432,1.839289,-9.817704,24.9021,1007.284
1.888427734,0.2202551,-0.02082927,0.02902611,0.002276496,0.1026506,-1.003421,1.851936,-10.17659,25.34244,1007.284
1.923191071,-0.09034648,0.0381493,-0.03194661,0.0008196992,0.1045757,-1.00534,2.565504,-10.1902,24.89568,1007.284
1.955471039,-0.3373285,0.03810433,-0.092738,0.0017999,0.1007234,-1.00053,2.565504,-10.1902,24.89568,1007.284
1.990229607,-0.3360619,0.09629016,-0.03179155,0.0003452901,0.1051008,-0.992767,2.201405,-9.457176,24.89196,1007.286
2.022509098,-0.02540691,-0.1968245,0.02952726,0.0003431875,0.1036261,-0.9995435,2.191404,-10.55636,24.47009,1007.282
2.057271957,-0.02548981,-0.0792728,-0.031352,-0.0006255274,0.1031279,-1.002928,2.191404,-10.55636,24.47009,1007.282
2.089551449,0.09792016,-0.2552052,0.0296019,-0.00207375,0.1036224,-0.9985715,2.553519,-10.19583,24.45996,1007.282
2.121831417,-0.08824433,-0.07903253,0.02942357,-0.006416236,0.09827368,-1.00246,2.916957,-10.56434,24.45905,1007.282
2.156593800,0.2210395,0.09718332,0.02946647,-0.00206499,0.09974938,-0.9990769,2.916957,-10.56434,24.45905,1007.282
2.188869953,-0.02746449,-0.02041573,0.02936572,-0.004004979,0.1011858,-1.001965,1.851274,-9.812069,25.33782,1007.283
2.223632336,-0.2747331,0.2139694,-0.03160846,0.00130645,0.105079,-1.000021,2.214713,-10.18057,25.33692,1007.283
2.255912304,-0.2118921,0.03785441,-0.03168963,0.003239405,0.1045908,-1.002928,2.214713,-10.18057,25.33692,1007.283
2.288191795,0.03674966,-0.02059741,0.02924645,-0.0001435822,0.1075207,-0.9922687,1.477836,-10.54275,24.91684,1007.283
2.322954655,-0.02513283,-0.07878615,0.09036463,-0.001114712,0.1065239,-1.000007,1.828627,-10.55237,24.4756,1007.279
2.355234146,0.0368849,-0.1370391,-0.03169398,-0.002074062,0.1045985,-0.9961487,1.828627,-10.55237,24.4756,1007.278
2.389992714,0.03689774,-0.01947405,0.02938592,-0.004005644,0.102649,-0.9985728,1.839951,-10.18222,24.90671,1007.278
2.422272682,0.03637777,0.0979557,0.09037888,-0.0001422935,0.1041053,-1.000507,2.190081,-9.827328,24.46085,1007.278
2.457036018,0.09751169,0.156431,-0.03136391,0.001298835,0.1084681,-0.999518,2.190081,-9.827328,24.46085,1007.278
2.489315033,0.1586991,-0.0786311,0.0295708,-0.001110487,0.1050754,-0.9990487,1.478497,-10.90726,24.92146,1007.278
2.521696567,0.09636999,0.09719016,0.02956496,0.0003430619,0.1021595,-1.003903,1.853259,-10.90562,25.35167,1007.278
2.556459427,-0.02768932,-0.0206053,-0.09240796,-0.0001438333,0.1045876,-1.000987,1.853259,-10.90562,25.35167,1007.278
2.588735104,0.2202598,0.03803409,-0.03147262,0.001314545,0.1026692,-0.9971339,1.840612,-10.54674,24.91133,1007.278
2.623498440,0.0343243,-0.07922544,-0.03141087,-0.002069796,0.1036388,-0.993737,1.839289,-9.817704,24.9021,1007.278
2.655777454,0.03445634,-0.02049424,-0.03122578,0.0008252769,0.1050874,-0.997119,1.839289,-9.817704,24.9021,1007.278
2.690540790,0.2815774,-0.02058837,0.1511218,-0.002079868,0.1060404,-0.9990411,1.839951,-10.18222,24.90671,1007.275
2.722820282,0.09472271,0.09714047,0.1508688,0.0008254632,0.1026449,-1.003901,1.840612,-10.54674,24.91133,1007.275
2.755099773,-0.09094273,-0.02055088,-0.2148744,-0.001096047,0.0982938,-1.001021,2.565504,-10.1902,24.89568,1007.275
2.789858818,-0.02808373,0.3310561,0.2727537,0.0008244024,0.1041065,-1.000992,2.565504,-10.1902,24.89568,1007.277
2.822138786,0.03425713,-0.1976609,0.02898722,-0.0006203451,0.1036381,-0.9951905,2.202727,-10.18621,24.9012,1007.277
2.856901169,0.09639119,0.03724466,-0.09288761,0.002276226,0.1041155,-0.9995449,1.839951,-10.18222,24.90671,1007.279
2.889181137,-0.08961204,0.09614516,0.02902838,0.001794304,0.1046095,-0.996157,1.839951,-10.18222,24.90671,1007.279
2.923943520,-0.1517559,-0.02113011,0.02888173,-0.0001497229,0.1050519,-1.006786,1.840612,-10.54674,24.91133,1007.279
2.956223488,0.1579728,0.09601174,-0.09321302,-0.003525304,0.1021485,-1.003895,1.839951,-10.18222,24.90671,1007.279
2.988499165,-0.02843688,0.3304495,-0.03261857,0.00081454,0.1089523,-0.9990308,1.839951,-10.18222,24.90671,1007.279
3.023261547,-0.1525894,0.0946667,-0.09370268,-0.002070317,0.1021706,-0.9985797,1.827304,-9.823339,24.46637,1007.277
3.055541515,-0.08999379,0.2113366,-0.03268582,-0.0001415864,0.1031309,-1.002446,1.477174,-10.17823,24.91223,1007.277
3.090303898,0.1580235,0.3276303,-0.03290522,0.0008285847,0.1021691,-1.001487,1.477174,-10.17823,24.91223,1007.277
3.122583866,0.0336265,0.2675737,0.2103419,0.003246876,0.104133,-0.995196,1.477174,-10.17823,24.91223,1007.277
3.157346249,-0.5230981,0.03203056,-0.2164402,0.002278431,0.10217,-1.002457,2.190742,-10.19184,24.46547,1007.275
3.189622402,-0.7680632,0.149103,-0.2160548,0.0008266912,0.1031386,-1.000998,2.190742,-10.19184,24.46547,1007.275
3.221901894,-0.2696293,-0.1449451,-0.09371296,0.004685985,0.1079988,-0.9980778,1.827965,-10.18785,24.47099,1007.277
3.256664753,0.1647857,-0.02751056,-0.1540894,0.0003447692,0.1036326,-0.9976097,2.214051,-9.816058,25.33231,1007.273
3.288944244,0.7211572,0.08976765,0.2114757,0.0008256723,0.1050891,-0.9966357,2.214051,-9.816058,25.33231,1007.273
3.323707581,1.213295,-0.02847386,0.1497979,-0.005460859,0.1045806,-0.9985587,2.202727,-10.18621,24.9012,1007.273
3.355986595,0.96129,0.2050909,0.2708583,0.0003546316,0.09878679,-0.999571,1.852597,-10.5411,25.34706,1007.275
3.388262749,0.5245279,0.203408,0.02631633,0.0008270449,0.1026514,-1.001967,1.852597,-10.5411,25.34706,1007.275
3.423025608,-0.1579486,0.143205,-0.03493066,0.006145861,0.1051092,-0.9951967,2.576828,-9.820046,25.32679,1007.28
3.455305099,-0.4045187,-0.09207912,-0.1566696,0.005169531,0.1080002,-0.9980788,1.851274,-9.812069,25.33782,1007.28
3.490067959,-0.278893,0.08400999,-0.03455941,0.002752031,0.1060395,-1.003403,1.851274,-9.812069,25.33782,1007.276
3.522347450,0.03174269,-0.1506094,0.08732894,0.0003332832,0.1079831,-0.9990353,1.476512,-9.813715,24.90761,1007.278
3.557110309,0.09328532,-0.03267166,0.02623435,-0.001111716,0.1045816,-1.001952,2.564843,-9.825682,24.89107,1007.278
3.589385986,-0.03082825,-0.208426,0.08687712,-0.002074978,0.1031287,-1.001475,2.564843,-9.825682,24.89107,1007.278
3.621665478,-0.3401042,-0.03194675,-0.03499513,-0.001591181,0.1060631,-0.9927573,1.839289,-9.817704,24.9021,1007.278
3.656428337,-0.3388054,0.02684094,-0.15657,-0.001107887,0.1031314,-1.001477,2.203389,-10.55072,24.90581,1007.278
3.688708305,-0.1516203,0.08582079,-0.0952014,0.000329329,0.1079667,-1.00387,2.57749,-10.18456,25.33141,1007.276
3.723470688,0.09631739,-0.03179565,0.08754176,0.003727923,0.1026581,-1.002457,2.57749,-10.18456,25.33141,1007.276
3.755750656,0.4665808,0.08516879,0.02630136,0.001804124,0.09927487,-0.9995714,2.541533,-10.20147,24.02423,1007.276
3.790509224,0.5265844,0.1432033,0.08693568,0.001789684,0.1060564,-0.9975991,1.488498,-9.808081,25.34334,1007.276
3.822789192,0.1534319,-0.03321262,-0.03491792,0.006634213,0.1012211,-1.000538,1.488498,-9.808081,25.34334,1007.276
3.855068684,-0.03282256,0.08421807,-0.09583083,0.007108957,0.1046067,-1.001486,1.839951,-10.18222,24.90671,1007.276
3.889831543,-0.280437,-0.1502632,-0.09577339,0.002281157,0.1016926,-1.000526,1.827304,-9.823339,24.46637,1007.28
3.922111034,0.02981608,-0.03235542,0.02607786,-0.001106868,0.101181,-1.005839,1.827304,-9.823339,24.46637,1007.276
3.956873894,-0.03207529,-0.0321585,0.02598279,0.002752635,0.1084854,-0.9956536,2.202066,-9.821692,24.89658,1007.275
3.989149570,-0.09378216,0.02619675,0.08693227,-0.0001396929,0.1021614,-1.002935,1.840612,-10.54674,24.91133,1007.275
4.023912907,-0.2791164,0.2019877,-0.2177708,-0.0006313332,0.1045699,-1.005821,1.840612,-10.54674,24.91133,1007.275
4.056192398,0.03146171,-0.0329657,-0.1566302,0.005168094,0.1050622,-1.008248,1.828627,-10.55237,24.4756,1007.275
4.088472366,0.2789752,0.02566909,0.08721662,0.005183223,0.1017042,-0.9995649,2.21339,-9.451542,25.32769,1007.276
4.123234749,0.2775948,-0.03266775,0.08698691,0.001306055,0.1050773,-1.000504,2.21339,-9.451542,25.32769,1007.276
4.155514717,0.27658,-0.03253495,-0.09617098,0.00179241,0.105579,-0.9956681,2.576828,-9.820046,25.32679,1007.276
4.190273285,0.275366,0.08451636,0.08649984,-0.004483384,0.1012057,-0.9956794,1.465189,-10.18387,24.4765,1007.278
4.222553253,0.02732151,0.1425432,-0.1573481,0.01145627,0.1016681,-1.015532,1.465189,-10.18387,24.4765,1007.278
4.257315636,-1.705474,-0.0920837,-0.2783857,0.01003148,0.09883901,-0.99234,1.839951,-10.18222,24.90671,1007.278
4.289595604,-1.883548,-0.9122576,-0.2768686,-0.0006101059,0.1031918,-0.9840738,1.816642,-10.558,24.03988,1007.278
4.321875095,0.3506508,-0.8496152,-0.1536676,-0.008892437,0.1170826,-1.019268,1.816642,-10.558,24.03988,1007.278
4.356637955,1.399981,-0.025097,0.272693,-0.01224663,0.1054718,-1.015459,1.839951,-10.18222,24.90671,1007.276
4.388913632,1.146749,0.502188,0.5148851,-0.004979746,0.1084813,-0.9903191,1.839289,-9.817704,24.9021,1007.278
4.423676967,0.7702429,0.7336533,0.4516461,-0.003982774,0.09736843,-0.9860334,1.839289,-9.817704,24.9021,1007.278
4.455955982,-0.6560545,0.6132943,-0.03682182,0.006173369,0.09398375,-0.9938097,1.839951,-10.18222,24.90671,1007.278
4.488235950,-1.890073,0.4935361,-0.2797842,0.01146114,0.1031543,-1.005371,1.840612,-10.54674,24.91133,1007.278
4.522998333,-1.633747,0.0814449,-0.2172334,0.01580419,0.1104601,-0.9951871,1.840612,-10.54674,24.91133,1007.278
4.555278301,0.1666687,-0.7978999,-0.2771741,0.001285725,0.1123232,-1.004331,1.839951,-10.18222,24.90671,1007.279
4.590037346,1.155396,-0.618584,0.1497098,-0.006922274,0.1079525,-1.00192,2.202727,-10.18621,24.9012,1007.279
4.622316360,1.52175,-0.3230463,0.2098871,-0.009317906,0.09826375,-1.002937,2.204051,-10.91524,24.91043,1007.279
4.657079697,1.205417,0.0882967,0.2698876,-0.001080254,0.09347254,-0.9957307,2.204051,-10.91524,24.91043,1007.279
4.689359665,0.0868637,0.4399691,0.02573184,-0.001095694,0.09780659,-1.001991,1.48982,-10.53711,25.35257,1007.279
4.721638679,-1.027149,0.0284717,-0.1567363,-0.001094903,0.09780987,-1.001024,2.564181,-9.461165,24.88645,1007.277
4.756402016,-1.331576,0.08693925,-0.2168745,0.005654845,0.1055655,-1.002928,2.564181,-9.461165,24.88645,1007.275
4.788677692,-0.8310589,0.1458583,-0.03368465,0.002269401,0.107508,-0.9980753,2.202066,-9.821692,24.89658,1007.275
4.823440075,-0.4562693,-0.08894895,0.08815308,-0.0001459129,0.1079997,-0.9937164,1.839289,-9.817704,24.9021,1007.275
4.855720043,-0.08309259,0.0873194,-0.03370533,0.001304245,0.1070245,-0.9971091,1.839289,-9.817704,24.9021,1007.275
4.890482426,0.0409274,-0.2059885,0.02717315,0.004690354,0.1036189,-1.005354,1.827965,-10.18785,24.47099,1007.275
4.922762394,0.1019564,0.0879785,-0.2165475,0.004682966,0.1050543,-1.01018,1.840612,-10.54674,24.91133,1007.275
4.955042362,0.4105148,-0.08771495,-0.03320588,0.005176314,0.1041189,-1.001001,1.840612,-10.54674,24.91133,1007.275
4.989800453,0.5324464,0.08853898,0.02786097,0.00178105,0.111396,-0.9927343,1.465189,-10.18387,24.4765,1007.275
5.022080421,0.03545954,0.03026708,-0.2153655,0.00324288,0.1036278,-1.001483,1.48982,-10.53711,25.35257,1007.275
5.056842804,-0.2739418,-0.3209596,-0.2145158,-0.000138902,0.1021647,-1.001968,1.48982,-10.53711,25.35257,1007.274
5.089122772,-0.9529217,-0.2024482,-0.1526243,0.001316708,0.1002348,-1.001499,2.55418,-10.56035,24.46457,1007.272
5.123885155,-0.6388904,-0.5529844,0.03094403,0.000334302,0.1060326,-1.003397,2.215374,-10.54509,25.34154,1007.272
5.156165123,0.1062891,-0.1993053,0.09189237,-0.001608641,0.1099002,-1.002888,2.215374,-10.54509,25.34154,1007.272
5.188440800,0.4144411,0.09479985,0.2130551,0.0003434992,0.10265,-1.001966,2.57749,-10.18456,25.33141,1007.272
5.223203659,-0.02059047,0.09430993,0.1509118,-0.002559147,0.1050794,-0.9966285,1.840612,-10.54674,24.91133,1007.272
5.255483151,-0.7002721,0.0353334,-0.09298811,-0.001115419,0.1074983,-0.9980681,1.840612,-10.54674,24.91133,1007.27
5.290246010,-0.1401164,0.09428633,-0.2146713,0.006134208,0.1075043,-1.002435,1.851274,-9.812069,25.33782,1007.272
5.322525501,0.2317714,-0.1989488,-0.03171972,-0.0006354318,0.1074849,-1.00242,2.190081,-9.827328,24.46085,1007.268
5.357288838,0.5415747,-0.3158861,0.0299146,0.002297826,0.0978523,-0.9913621,2.190081,-9.827328,24.46085,1007.268
5.389564037,0.7260064,-0.2561166,-0.09145828,-0.00451801,0.1123017,-1.005768,1.828627,-10.55237,24.4756,1007.268
5.421844005,1.774188,0.03827532,0.0305857,0.008064707,0.1060285,-1.011149,1.851936,-10.17659,25.34244,1007.268
5.456606865,1.086576,-0.2552587,0.1519316,0.0003743796,0.09398191,-0.9894462,1.851936,-10.17659,25.34244,1007.266
5.488886356,0.8350496,-0.4297188,-0.03103192,-0.006901405,0.0977769,-1.005846,2.214713,-10.18057,25.33692,1007.266
5.523777962,0.6456972,0.09962651,-0.03112518,-0.003989664,0.09538522,-1.000064,1.828627,-10.55237,24.4756,1007.266
5.556057453,-0.03743901,0.2744633,0.151193,0.003250351,0.1031701,-0.9937512,2.564843,-9.825682,24.89107,1007.264
5.588333130,-1.027348,0.2145495,0.09007572,0.003249705,0.1002354,-1.002953,2.564843,-9.825682,24.89107,1007.266
5.623095989,-1.208079,0.03764712,-0.09256823,0.006625765,0.1041182,-1.002455,2.202066,-9.821692,24.89658,1007.264
5.655375481,-0.7081047,-0.2553201,-0.03126929,0.005181101,0.1046274,-0.9937471,2.214051,-9.816058,25.33231,1007.266
5.690138340,-0.3344378,-0.2536288,0.02982765,-0.001601607,0.1089519,-0.9970918,2.214051,-9.816058,25.33231,1007.264
5.722417831,-0.2104101,-0.01822562,0.02962974,-0.002089418,0.1099102,-0.9995025,2.202727,-10.18621,24.9012,1007.264
5.757180691,0.1611115,-0.135459,-0.09222893,-0.001607538,0.1089274,-1.004344,2.92762,-9.82967,24.88555,1007.266
5.789456844,0.6553103,-0.01827502,0.09007086,-0.0001490157,0.1040775,-1.008725,2.92762,-9.82967,24.88555,1007.264
5.821735859,0.590296,0.04000498,0.15074,0.001805706,0.09928142,-0.9976376,2.566166,-10.55471,24.9003,1007.266
5.856499195,0.3402971,0.2741438,0.08965348,-0.002067633,0.1012044,-0.9981018,2.215374,-10.54509,25.34154,1007.264
5.888778686,0.02997456,-0.1370275,0.08955581,0.001318206,0.09926366,-1.002471,2.215374,-10.54509,25.34154,1007.264
5.923541546,0.09201114,-0.2542736,0.02873779,0.004209223,0.1041161,-1.000999,1.839289,-9.817704,24.9021,1007.264
5.955821037,-0.4028897,-0.07804926,-0.03218636,0.0008297709,0.102174,-1.000036,2.564843,-9.825682,24.89107,1007.264
5.990579605,-0.2777957,-0.01928012,-0.1539265,0.0008316225,0.1007157,-1.001978,2.564843,-9.825682,24.89107,1007.264
6.022859573,-0.3385396,-0.01942254,-0.03220113,-0.001581714,0.1012156,-0.9952022,2.553519,-10.19583,24.45996,1007.266
6.055139542,-0.08975098,0.03945124,0.08969689,-0.003045545,0.1040889,-1.002918,2.178096,-9.832962,24.02513,1007.266
6.089901924,0.2201222,-0.01924087,0.08960879,0.003240508,0.103618,-1.004384,2.178096,-9.832962,24.02513,1007.264
6.122181892,0.1576982,0.03954043,0.1503945,-0.004977667,0.1050692,-0.9975901,2.214051,-9.816058,25.33231,1007.264
6.156944275,-0.02864293,-0.01929886,-0.03259105,-0.003517437,0.1016924,-0.9956787,2.202066,-9.821692,24.89658,1007.259
6.189219952,0.03319497,-0.07816209,-0.03280218,-0.002084133,0.1070001,-1.001453,2.202066,-9.821692,24.89658,1007.26
6.223982811,0.1571327,-0.1366875,0.08905114,0.00082049,0.1045789,-1.004374,2.202727,-10.18621,24.9012,1007.26
6.256262302,-0.09083883,-0.01947966,-0.1545968,-0.0001381112,0.102168,-1.001001,1.477836,-10.54275,24.91684,1007.26
6.288542271,0.03283735,0.1566345,-0.03279221,-0.002068861,0.1007107,-1.001005,1.477836,-10.54275,24.91684,1007.262
6.323304653,0.2182643,-0.07775953,0.08902299,0.0008348277,0.1012176,-0.9966577,2.190742,-10.19184,24.46547,1007.264
6.355584622,0.0317261,-0.1949403,0.02813995,0.000831748,0.1021822,-0.997619,1.839289,-9.817704,24.9021,1007.266
6.390343189,0.1554564,-0.01891506,0.02816918,-0.0006285653,0.1045813,-1.002437,1.839289,-9.817704,24.9021,1007.266
6.422623157,0.5265087,-0.2537407,0.08897603,-0.00400656,0.1011792,-1.003899,2.190742,-10.19184,24.46547,1007.266
6.457385540,-0.279011,-0.01807374,0.08906306,0.001800296,0.100725,-1.000046,2.214713,-10.18057,25.33692,1007.262
6.489665508,-0.4642024,-0.01857082,0.02766381,-0.003042777,0.1041003,-0.9995335,2.190742,-10.19184,24.46547,1007.264
6.521945000,-1.14262,-0.7215833,-0.2161922,-0.00109848,0.1021931,-0.9927804,2.190742,-10.19184,24.46547,1007.264
6.556707859,-3.553055,-2.828391,-0.2155313,-0.00399553,0.1007363,-0.9918156,2.190081,-9.827328,24.46085,1007.26
6.588983536,-7.829238,-1.419525,0.6985793,-0.002575732,0.1098974,-1.002886,2.191404,-10.55636,24.47009,1007.26
6.623745918,-14.89423,1.63302,3.623733,-0.01178942,0.1210015,-1.002803,2.191404,-10.55636,24.47009,1007.26
6.656025886,-21.89726,-4.119852,11.97261,-0.07567882,0.1381569,-1.027223,2.190742,-10.19184,24.46547,1007.266
6.688305855,-33.23844,-6.291855,5.02537,-0.1522114,0.1750175,-1.080993,2.565504,-10.1902,24.89568,1007.264
6.723068237,-37.26673,-16.38873,-6.919009,-0.257226,0.1768079,-1.177928,2.565504,-10.1902,24.89568,1007.26
6.755348206,-42.47252,-33.47124,-17.88834,-0.136587,0.08772691,-1.148721,2.181403,-11.65554,24.04821,1007.26
6.790107250,-25.05792,-51.90392,-29.89366,-0.2007198,-0.02753131,-1.262363,2.522583,-12.03451,23.2381,1007.262
6.822386265,100.3768,-56.07181,-31.29529,-0.05212657,-0.04019007,-1.124975,2.522583,-12.03451,23.2381,1007.26
6.857149601,-38.56817,-25.42896,-27.76073,-0.1768205,-0.08232021,-1.170873,3.226151,-13.1473,22.36946,1007.262
6.889428616,-13.71674,-21.78939,-29.52801,-0.2193461,-0.09210569,-1.166486,5.027388,-12.80836,21.90154,1007.262
6.921708584,-49.35159,-11.4577,-35.07362,-0.2211623,-0.1316934,-1.137217,5.027388,-12.80836,21.90154,1007.262
6.956471443,-45.07541,-4.178555,-37.38936,-0.3106886,-0.05796289,-1.009944,4.267863,-13.91084,20.61924,1007.262
6.988746643,-39.31186,-1.478227,-46.89611,-0.274063,0.009554033,-0.9666131,4.587057,-15.39462,18.95153,1007.26
7.023509979,-48.17409,0.8698838,-50.06503,-0.2846137,-0.0003767943,-0.8892967,4.587057,-15.39462,18.95153,1007.26
7.055788994,-46.19093,2.807075,-56.34192,-0.2987199,0.06520832,-0.8018743,4.531099,-17.60989,16.80059,1007.26
7.090552330,-42.90633,-1.126011,-58.96237,-0.2556999,0.09556425,-0.734113,3.761573,-19.81155,15.09641,1007.26
7.122832298,-54.55738,0.282856,-64.62986,-0.2325435,0.1462294,-0.6541075,3.761573,-19.81155,15.09641,1007.258
7.155111313,-47.61633,-6.409261,-68.77383,-0.260968,0.1123744,-0.6242656,3.708651,-22.75504,13.01695,1007.258
7.189870358,-51.33475,-11.34029,-73.77097,-0.1948794,0.1984076,-0.5683233,4.742347,-25.7113,10.8587,1007.258
7.222150326,-53.75172,-14.92116,-78.34151,-0.1972248,0.1615615,-0.586415,4.742347,-25.7113,10.8587,1007.258
7.256912708,-53.87567,-19.38258,-85.16688,-0.1817251,0.1807721,-0.4998037,6.503309,-28.67474,8.751657,1007.258
7.289192677,-46.62475,-25.31156,-92.96729,-0.2986879,0.2031455,-0.3674456,8.284545,-30.53417,7.439979,1007.26
7.323955059,-31.99896,-41.33741,-105.8258,-0.4979229,0.2679989,-0.1964771,8.284545,-30.53417,7.439979,1007.26
7.356235027,-21.71134,-63.70317,-116.7951,-0.5382803,0.3622503,-0.1958542,10.38288,-32.72308,4.445971,1007.26
7.388510704,-23.81844,-82.42936,-117.0389,-0.637253,0.4998747,-0.1987259,13.95601,-35.70726,2.249108,1007.258
7.423273563,-20.34792,-108.963,-106.8008,-0.7136722,0.6920663,-0.2549976,17.89364,-38.69463,0.1089773,1007.26
7.455553055,-40.11752,-123.4626,-89.79837,-0.7464462,0.8472771,-0.2651635,17.89364,-38.69463,0.1089773,1007.26
7.490315914,-74.5129,-134.0878,-69.80981,-0.8959632,0.849362,-0.3803713,21.86683,-42.39493,-0.776988,1007.262
7.522595405,-69.98882,-138.784,-55.48875,-1.027951,0.8021556,-0.4900958,26.46783,-45.39042,-2.989477,1007.265
7.557358265,-56.04475,-137.0229,-40.31451,-1.175142,0.8434507,-0.6036353,26.46783,-45.39042,-2.989477,1007.27
7.589633942,-64.22527,-118.7077,-33.61104,-1.284042,0.8627529,-0.6704888,28.98567,-45.79331,-3.832677,1007.268
7.621913910,-13.59279,-119.3534,-35.56114,-1.410958,0.7153822,-0.7822441,28.90216,-45.10292,-6.82975,1007.268
7.656676292,51.16969,-114.4224,-34.40327,-1.388497,0.841403,-0.741934,28.90216,-45.10292,-6.82975,1007.271
7.688956261,18.38562,-98.51392,-35.92678,-1.400534,0.8450016,-0.6693718,28.7927,-43.33025,-10.71212,1007.273
7.723718643,32.88746,-84.24915,-33.61104,-1.2269,0.3966772,-0.7361091,28.74079,-41.16569,-12.48273,1007.275
7.755998611,66.911,-66.05128,-24.22617,-0.9382905,0.1656394,-0.8985464,28.74079,-41.16569,-12.48273,1007.278
7.788274288,73.79007,-10.63586,-10.14887,-0.8757306,0.08203425,-0.9180107,26.882,-41.89651,-14.12658,1007.278
7.823036671,73.10836,21.53326,-11.2458,-0.8891582,0.3824539,-0.5063176,25.46817,-42.59269,-12.7881,1007.28
7.855316639,-39.93159,24.99673,-3.750092,-0.9207845,0.3459273,-0.2623206,25.46817,-42.59269,-12.7881,1007.283
7.890079021,-38.87804,2.161345,12.39919,-0.9936635,0.1308276,-0.1280237,23.06178,-45.05601,-8.048682,1007.283
7.922358990,-61.12659,-0.7150912,24.28263,-0.9237419,0.04378287,-0.02618035,23.80262,-46.88093,-7.600907,1007.283
7.957121372,-24.06634,3.687617,34.76443,-0.9292411,0.1373346,0.02415762,23.80262,-46.88093,-7.600907,1007.283
7.989397049,9.275493,-10.92937,41.40697,-0.8971482,0.2627303,0.01464923,22.39634,-50.52126,-8.342812,1007.285
8.021677017,-5.226344,-16.38873,50.30431,-0.7588534,0.2113296,-0.1333899,20.2612,-54.4909,-7.014011,1007.288
8.056439400,20.3068,-14.56895,49.14644,-0.6932676,0.247926,-0.2425803,20.2612,-54.4909,-7.014011,1007.29
8.088719368,16.09259,-10.98808,43.78366,-0.8064859,0.2717515,-0.2562206,15.56358,-58.01782,-6.461193,1007.286
8.123481751,26.31825,-12.98397,32.99715,-0.7816452,0.1665261,-0.3405073,12.3405,-61.24566,-5.06283,1007.286
8.155761719,14.85312,-6.409261,20.50431,-0.928055,0.364404,-0.2302929,12.3405,-61.24566,-5.06283,1007.287
8.190520287,15.90667,-13.92322,11.91167,-0.9494168,0.4148093,-0.1893514,10.56522,-62.66688,-3.709609,1007.289
8.222800255,-7.085554,-19.49998,10.20533,-1.034085,0.4300072,-0.2026188,13.1073,-64.15286,-3.729754,1007.291
8.255079746,15.03904,-18.32593,11.18038,-0.975319,0.3115153,-0.2319421,13.1073,-64.15286,-3.729754,1007.293
8.289842606,33.32127,-18.32593,12.94766,-0.9038947,0.3888366,-0.1808953,14.18299,-63.80595,-4.186643,1007.293
8.322122097,42.92719,-10.92937,18.31044,-0.9631429,0.5278568,-0.09102444,16.03139,-64.90414,-3.017686,1007.293
8.356884956,-0.7642404,-13.92322,29.58447,-0.865411,0.2659984,-0.1903786,17.18163,-65.98148,-0.8417506,1007.293
8.389160633,34.37483,-0.4802801,30.25482,-0.8697951,0.2863765,-0.1709157,17.18163,-65.98148,-0.8417506,1007.293
8.423923969,-2.685424,-13.10138,18.37138,-0.8094832,0.3607722,-0.116961,18.30856,-67.4346,0.4673467,1007.293
8.456202984,-37.76252,-25.89858,31.7174,-0.9171624,0.5174187,-0.06846128,18.67002,-66.70956,0.4525995,1007.294
8.488482952,-37.45265,-26.1334,32.26587,-0.817976,0.4505121,-0.1894317,18.67002,-66.70956,0.4525995,1007.294
8.523245335,-46.7487,-13.10138,30.19388,-0.842481,0.3821847,-0.1965355,18.58414,-65.65546,-2.611336,1007.294
8.555525303,-61.00264,-7.407208,12.82578,-0.7688039,0.5228453,-0.1635042,18.85181,-64.24485,-5.996636,1007.29
8.590284347,-88.76685,-5.528719,17.33539,-0.8322573,0.3868984,-0.09935959,18.85181,-64.24485,-5.996636,1007.294
8.622563362,-63.91541,-5.880936,13.80083,-0.8479674,0.3116432,-0.01611873,19.10446,-62.11165,-9.889141,1007.294
8.657326698,-85.54421,8.38384,-2.65316,-0.7910948,0.1796319,-0.03487914,20.05737,-59.26867,-14.67336,1007.294
8.689605713,-83.49908,19.30256,-33.97668,-0.9171203,0.09156699,-0.06846553,20.05737,-59.26867,-14.67336,1007.296
8.721885681,-71.35224,17.24796,-69.13947,-0.9710229,0.02747392,0.05649684,20.63431,-55.75905,-19.89626,1007.298
8.756648064,-40.42738,7.092378,-88.27485,-1.125935,0.1123029,0.0868028,21.94471,-50.00393,-24.72292,1007.295
8.788924217,-58.64764,-12.80786,-113.7481,-1.136581,0.1454695,0.172583,21.94471,-50.00393,-24.72292,1007.295
8.823687077,-58.21382,-21.61328,-136.2352,-1.131065,0.01924399,0.04809308,22.87914,-43.85709,-27.80486,1007.295
8.855966091,-27.41292,-65.93388,-127.3378,-1.091384,0.2838074,0.2583574,25.28854,-37.37927,-32.22158,1007.295
8.888246059,-57.28422,-41.27871,-105.643,-0.9622234,0.4084745,0.09441868,25.28854,-37.37927,-32.22158,1007.295
8.923008442,-84.30474,-20.79144,-81.44949,-1.078402,0.2429776,0.05118547,25.90773,-31.66083,-35.79151,1007.297
8.955288410,-25.18186,-0.773794,-55.00122,-1.132798,0.3161113,-0.02756541,26.19039,-26.23008,-38.41838,1007.299
8.990047455,-18.79858,-3.298014,-29.83272,-1.060112,0.5001646,0.1019191,26.19039,-26.23008,-38.41838,1007.299
9.022380829,-41.29501,3.041886,-18.68057,-1.013649,0.274267,0.09038235,26.53456,-22.59454,-38.90578,1007.299
9.057143211,-21.58739,12.02341,-16.4867,-0.9207644,0.01967336,-0.003118792,26.88205,-20.78159,-39.3701,1007.299
9.089423180,5.123257,10.02752,-14.5366,-0.8602315,0.01533121,0.09244692,26.88205,-20.78159,-39.3701,1007.302
9.121703148,2.024574,21.59196,-15.08506,-0.7782512,0.3293007,0.1375649,27.96773,-19.33549,-39.40511,1007.304
9.156465530,-81.51592,25.29024,-23.373,-0.9034845,-0.08044727,0.1403394,29.06607,-18.24828,-38.99977,1007.306
9.188741207,-11.85753,24.05748,-17.15705,-0.8941918,-0.1894467,-0.04497395,29.06607,-18.24828,-38.99977,1007.306
9.223504067,-17.49713,-5.176502,-10.08792,-1.100845,0.1336962,0.6669968,31.27603,-16.79724,-37.74415,1007.303
9.255783558,84.44954,-0.7150912,20.50431,-1.91187,0.44403,0.2513679,32.75847,-14.24468,-36.49134,1007.305
9.290546417,-4.420687,-95.28526,-25.38404,-0.5639649,-0.1867861,-1.253784,33.49231,-13.15428,-36.14274,1007.305
9.322825909,-37.88646,9.499193,-1.251523,-0.6058805,-0.02105601,-0.007413094,33.49231,-13.15428,-36.14274,1007.305
9.355105877,-83.06526,7.385892,15.14153,-1.355753,-0.5616199,0.3348543,32.34444,-12.44065,-38.25182,1007.305
9.389864445,40.63417,0.282856,3.989377,-0.9089704,0.1992955,0.1554781,32.35577,-12.0705,-37.8207,1007.307
9.422144413,-12.66318,4.098536,9.4131,-0.9758963,-0.1334225,0.134393,32.35577,-12.0705,-37.8207,1007.309
9.456906795,-1.94174,7.620704,15.32435,-0.9944552,-0.06777868,0.09999866,32.7292,-11.33982,-37.39972,1007.312
9.489186764,-3.367134,10.96676,15.20247,-0.9844848,0.02922116,0.1551573,32.01696,-12.05524,-36.94373,1007.314
9.523949146,-11.05187,16.1326,13.19142,-1.010048,-0.0160311,0.1037106,32.01696,-12.05524,-36.94373,1007.314
9.556229114,8.779704,20.1831,11.30226,-1.009473,-0.06402709,0.07733075,32.7545,-12.05758,-36.51904,1007.315
9.588504791,12.99391,21.47456,9.656863,-1.017913,0.03179674,0.08659568,32.76582,-11.68744,-36.08793,1007.313
9.623267174,2.706285,20.06569,7.097353,-1.021315,0.0302501,0.0614554,32.76582,-11.68744,-36.08793,1007.317
9.655547142,-0.9501613,12.02341,6.670769,-1.037641,-0.01330297,0.07526267,33.8784,-12.78248,-35.28142,1007.317
9.690309524,2.644311,11.61249,7.036413,-0.9971253,0.03232373,0.08171948,34.25382,-13.14535,-34.8466,1007.317
9.722589493,-4.358713,10.55584,10.02251,-1.016821,-0.04586985,0.01508623,34.25382,-13.14535,-34.8466,1007.318
9.757351875,-8.139106,6.857567,12.52108,-1.027614,0.02773386,0.03824961,34.62991,-13.87274,-34.40715,1007.32
9.789627552,-19.10844,5.037781,12.15543,-1.022333,0.04420427,0.03881532,34.61792,-13.87837,-34.84288,1007.32
9.821907520,-37.5766,-5.704827,9.108397,-1.064418,0.04694826,0.0273191,34.61792,-13.87837,-34.84288,1007.318
9.856669903,-40.8612,-21.37847,0.08917217,-1.078396,0.05295938,0.09941576,34.61858,-14.24289,-34.83826,1007.318
9.888949871,-130.5371,-1.771741,1.368927,-1.128405,0.07884829,-0.07291687,33.51496,-12.41398,-35.28052,1007.318
9.923712254,-42.78238,-27.19005,-1.434345,-1.299762,-0.111463,-0.2520185,33.51496,-12.41398,-35.28052,1007.318
9.955992222,-45.44725,-42.10055,-2.531278,-1.512657,0.1907868,-0.1313986,34.19097,-10.62111,-36.99529,1007.321
9.988267899,-50.65304,-59.06565,-18.92433,-1.253504,-0.2693053,-0.3158627,33.08669,-8.427686,-37.44217,1007.321
10.023030758,12.5601,-66.4035,-16.30388,-0.810497,-0.2002757,-0.02684524,33.08669,-8.427686,-37.44217,1007.319
10.055310249,4.751415,-28.83372,-3.811033,-0.6906468,-0.06197272,-0.3004269,30.13334,-6.656489,-39.16326,1007.319
10.090073109,34.80864,4.274645,-13.98813,-0.5692835,-0.1305558,-0.5065399,27.60721,-7.351967,-38.6797,1007.315
10.122352600,-16.87739,66.617,-11.48956,-0.5507306,0.01923186,-0.4467486,27.60721,-7.351967,-38.6797,1007.317
10.157115459,-46.99659,109.7048,-2.592219,-0.7652097,-0.05281335,-0.3906172,25.50179,-6.929713,-36.03686,1007.317
10.189391136,-58.89553,126.6112,5.269132,-1.019474,-0.02926125,-0.2226655,28.16136,-7.995639,-31.76659,1007.315
10.221671104,-59.63922,120.7997,7.097353,-1.213834,0.01573383,-0.06100564,28.16136,-7.995639,-31.76659,1007.315
10.256433487,-43.83593,96.67282,7.584879,-1.199898,-0.1140373,0.04651672,31.56449,-5.777631,-26.67746,1007.315
10.288713455,-15.94779,68.7303,7.219235,-1.111645,0.06848986,0.2837659,35.70213,-2.833739,-21.2351,1007.315
10.323475838,-44.64159,38.90928,9.595922,-1.046004,0.1898559,0.4849416,37.62019,-1.710228,-17.41723,1007.314
10.355755806,-52.07843,2.865778,10.81474,-0.9440103,0.2075968,0.4930411,37.62019,-1.710228,-17.41723,1007.314
10.390513897,-67.88172,-12.57305,14.16648,-0.78676,0.3066271,0.3085916,38.38037,-0.97227,-16.13031,1007.314
10.422793865,-185.3218,-73.85875,-23.373,-2.824984,-0.5398475,0.1481533,38.04157,-0.9570122,-15.25334,1007.314
10.455073833,210.8138,-143.8325,-14.96318,-0.7575964,-0.3063396,-0.09669406,38.04157,-0.9570122,-15.25334,1007.312
10.489836216,-73.3354,-121.1145,21.66218,-1.815976,0.6013533,1.470805,38.71654,0.4705358,-17.02574,1007.314
10.522116184,-98.62065,-55.837,10.93662,-0.6913091,-0.2732837,-0.5375451,35.72214,-0.635375,-20.39134,1007.315
10.556878567,-33.42436,-23.55047,18.43232,-0.8486627,0.5116078,0.3011887,35.72214,-0.635375,-20.39134,1007.315
10.589154243,-76.62,-10.87067,11.24132,-1.00838,0.08500575,0.07189107,33.84805,0.4507465,-22.494,1007.317
10.623917103,-35.84133,-11.63381,13.31331,-1.02918,0.06048288,-0.007004041,34.17487,0.4298544,-23.80669,1007.31
10.656196594,-53.68975,-4.002447,9.291219,-1.033161,0.1347717,0.06981025,34.17487,0.4298544,-23.80669,1007.308
10.688476562,-48.17409,-5.822233,7.462998,-1.01893,0.03451737,0.03343508,33.448,1.166862,-23.80489,1007.308
10.723238945,-23.38463,-8.698668,4.294081,-0.9776115,0.1772012,0.119726,33.81078,1.162874,-23.81041,1007.308
10.755518913,-24.19028,-7.759424,2.5268,-0.9949448,0.1325022,0.08180095,33.81078,1.162874,-23.81041,1007.31
10.790277481,-20.90568,-16.85836,-0.2764721,-1.051926,0.07059678,-0.002063123,33.79746,1.886271,-24.25537,1007.31
10.822557449,-7.891212,-29.30334,-2.165634,-1.030671,0.09109563,0.03136489,33.43403,2.254775,-24.25447,1007.311
10.857319832,0.2893119,-39.57633,-3.993855,-1.011913,0.1552394,0.09405277,33.43403,2.254775,-24.25447,1007.313
10.889599800,-7.767264,-41.22001,-4.907965,-1.067995,0.1810156,0.1794054,32.30907,2.614353,-25.54972,1007.316
10.921879292,-26.17344,-45.09439,-8.137823,-1.090984,0.2771083,0.1374587,31.55889,2.975577,-26.41475,1007.316
10.956642151,-48.23606,-57.8329,-13.56155,-1.145705,0.08559573,0.07654134,31.55889,2.975577,-26.41475,1007.316
10.988917828,-41.85278,-73.33043,-20.99631,-1.225661,-0.05016486,0.0667564,31.91073,3.331274,-26.79837,1007.314
11.023680210,-25.98752,-91.35218,-30.50306,-1.274423,-0.09592482,0.02792622,28.94595,4.793073,-28.95134,1007.316
11.055960178,-41.91475,-107.2019,-43.11779,-1.421866,-0.1377228,-0.0435426,28.94595,4.793073,-28.95134,1007.318
11.088239193,3.326021,-145.1826,-56.40286,-1.779441,0.3234485,-0.1716451,27.0828,5.519508,-30.6759,1007.318
11.123002529,-115.7254,-170.0726,-74.98978,-2.066589,0.3414713,-0.6084358,24.09443,7.699873,-33.64732,1007.321
11.155282497,-163.2592,-136.3772,-104.4241,-1.192869,-0.04902108,-0.6236582,24.09443,7.699873,-33.64732,1007.318
11.190041065,327.3243,-146.298,-97.53783,-1.267553,-0.06768174,-0.3548115,19.39887,9.921251,-34.91141,1007.318
11.222320557,250.1671,-88.76926,-39.64417,-0.2560446,1.405537,0.2648689,13.53762,15.79558,-36.57767,1007.316
11.257083416,-164.0648,50.53243,-33.24539,-0.2719211,-0.04719605,-0.2925434,8.002382,8.879707,-40.26653,1007.316
11.289362907,60.96153,89.10016,-10.63639,-0.1151744,-0.02736714,-0.1429025,8.002382,8.879707,-40.26653,1007.314
11.321642399,50.24009,168.9946,-0.5202349,-0.1940934,0.2035711,-0.187346,7.286168,10.35138,-39.83824,1007.314
11.356405258,63.81231,222.4142,12.27731,-0.492716,0.06821977,-0.3199342,10.19998,9.59527,-39.49965,1007.314
11.388680458,86.4327,260.4536,20.13866,-0.7625436,0.177361,-0.0151326,10.19998,9.59527,-39.49965,1007.314
11.423443794,53.71061,298.6691,41.77261,-1.223985,0.2052751,-0.09858115,17.16597,8.824266,-36.98085,1007.314
11.455723762,75.27744,318.9803,53.29041,-1.76508,0.0762032,0.1135973,26.32168,6.240418,-31.91903,1007.312
11.490486145,138.7385,289.8637,77.36198,-2.315998,0.283121,0.5205994,26.32168,6.240418,-31.91903,1007.312
11.522766113,0.8470748,224.9971,62.12681,-2.009463,0.656222,1.546467,36.75524,3.339794,-22.20157,1007.314
11.555045128,75.27744,93.50287,30.62046,-1.547215,0.3311194,1.754401,43.99009,-2.047566,-10.16127,1007.314
11.589804172,-185.0739,-46.85548,13.55707,-1.430684,0.2923435,1.637421,43.99009,-2.047566,-10.16127,1007.314
11.622083187,-236.3881,29.16462,-74.1366,-1.976259,-1.2206,-1.104819,44.87267,-4.535514,-4.60003,1007.316
11.656846523,360.4183,-169.7204,-18.4368,-1.318964,-0.3381201,-0.146426,44.11353,-4.908152,-5.829317,1007.316
11.689125538,28.42535,-26.07469,32.99715,-0.4540147,0.6859869,0.3022965,44.11353,-4.908152,-5.829317,1007.318
11.723888874,-165.0564,-147.3546,14.22742,-1.42434,0.363317,0.1546208,42.89309,-3.863814,-10.55737,1007.321
11.756168842,55.56982,-67.98847,-11.00204,-0.7904974,0.03355122,0.2693388,41.35244,-6.443742,-13.92656,1007.319
11.788444042,-109.1562,-38.69579,2.648682,-0.9667317,0.4737843,0.09238255,41.35244,-6.443742,-13.92656,1007.319
11.823206902,-90.75,-18.67814,-11.97709,-0.9759609,0.0431611,-0.02268727,39.81611,-5.738198,-16.96382,1007.318
11.855486393,36.41996,-33.99957,-8.381586,-0.970104,0.2378461,0.01611529,38.70116,-4.279439,-17.83719,1007.318
11.890249252,-56.8504,-29.83167,-12.22085,-1.034944,0.02153087,-0.07247732,38.70116,-4.279439,-17.83719,1007.319
11.922528744,19.68707,-44.68347,-13.25684,-1.053852,0.04717104,-0.0587545,39.02837,-3.570495,-19.09687,1007.318
11.957291603,12.25023,-52.60835,-14.65848,-1.048052,0.067701,-0.003054816,37.91409,-2.476251,-19.96563,1007.318
11.989566803,9.957203,-58.71344,-15.63353,-1.030156,0.09464832,0.07972784,37.91409,-2.476251,-19.96563,1007.318
12.021846771,14.72918,-60.59192,-15.20694,-1.015494,0.03278298,0.08998014,37.49072,-2.13592,-22.14336,1007.318
12.056610107,7.788125,-60.53322,-16.66952,-1.060099,0.1044869,0.1523641,35.99339,-2.141699,-23.80196,1007.318
12.088889122,-14.95621,-62.52911,-18.92433,-1.159352,0.1672108,0.1814576,35.99339,-2.141699,-23.80196,1007.319
12.123652458,-44.33172,-73.56524,-29.10143,-1.224021,-0.1373366,0.04595279,34.86777,-1.417605,-25.10182,1007.319
12.155931473,7.106414,-98.80743,-37.32842,-1.356748,-0.06245846,-0.02295057,32.97038,-0.7072682,-28.07132,1007.319
12.188207150,-16.19568,-121.5841,-48.41963,-1.498626,0.03111528,0.006410145,32.97038,-0.7072682,-28.07132,1007.321
12.222969532,-29.82989,-154.4577,-63.28916,-1.838298,0.2466291,-0.2280339,30.70718,0.7352839,-31.10678,1007.321
12.255249500,-70.29869,-176.3538,-80.47444,-2.031728,0.4897828,-0.7125738,26.99326,2.923626,-34.06716,1007.323
12.290011883,-297.1842,-127.3957,-102.6569,-1.111268,0.1881702,-0.6722796,21.82823,5.127923,-37.00548,1007.323
12.322291851,266.3423,-109.6087,-100.8286,-1.546315,-0.9908642,-0.3628439,21.82823,5.127923,-37.00548,1007.319
12.357054234,547.3308,-94.05251,-16.36482,-0.09753488,1.648378,-0.3238872,15.3015,10.27973,-38.71465,1007.318
12.389330387,-245.3743,70.25657,-9.295696,-0.05695558,0.7802044,0.06557494,8.683965,6.662098,-41.99278,1007.316
12.421610355,-61.37448,127.1396,14.59306,-0.05786111,-0.497667,-0.5986822,8.683965,6.662098,-41.99278,1007.314
12.456372738,49.4964,207.7972,36.77548,-0.1783262,0.3132696,-0.1026379,9.082619,0.1080942,-41.04375,1007.314
12.488652229,-15.452,265.3259,51.64501,-0.5536024,0.007617472,-0.4443913,13.1494,3.3835,-38.15813,1007.308
12.523415089,41.12996,288.3961,67.85524,-1.022713,0.1784809,-0.03583681,13.1494,3.3835,-38.15813,1007.308
12.555694580,-0.1445038,312.8752,94.48633,-1.654085,0.06876499,-0.176264,20.21022,2.29225,-32.21114,1007.311
12.590453148,76.02113,317.1017,106.9792,-2.27781,-0.2205472,0.2304907,27.62224,-0.2386537,-24.56963,1007.312
12.622733116,52.59508,266.7348,86.86874,-2.210752,0.3384829,1.060688,27.62224,-0.2386537,-24.56963,1007.314
12.655013084,25.63654,159.4848,50.48714,-1.828373,-0.08097363,1.482422,32.96865,-4.181815,-15.13458,1007.314
12.689775467,-77.23974,10.02752,22.82005,-1.580996,0.2321486,2.137762,34.95522,-7.768836,-9.07807,1007.314
12.722055435,-43.34015,-85.65801,-13.98813,-1.249379,-0.4465033,0.6567664,34.95522,-7.768836,-9.07807,1007.314
12.756817818,110.5405,-141.8953,-24.83558,-1.800382,-1.111141,-0.3687815,34.59245,-7.764848,-9.072555,1007.314
12.789093494,180.4467,-144.9478,-12.58649,-0.4830147,0.07819368,0.3308101,33.80753,-8.088807,-11.23631,1007.316
12.823856354,19.06733,-139.1362,38.6037,-1.971035,0.5478166,1.511927,33.80753,-8.088807,-11.23631,1007.316
12.856135845,-98.68262,-126.75,0.332935,-0.6873122,-0.1457337,-0.6016092,33.01122,-7.810069,-13.78124,1007.319
12.888415813,2.024574,-53.48889,-7.711238,-0.8580489,0.4931658,0.007656744,31.43318,-9.617117,-18.46762,1007.314
12.923178196,-121.0551,-18.56074,-7.650297,-0.9515883,0.129998,-0.1228013,31.43318,-9.617117,-18.46762,1007.316
12.955458164,-30.32568,-23.19826,-3.201626,-0.9870789,-0.002790781,-0.150069,29.93215,-8.530153,-20.20231,1007.312
12.990216732,-25.61568,-20.43923,-6.065839,-1.012551,0.1863609,-0.003906953,30.25643,-7.153735,-21.5327,1007.312
13.022496700,-16.44358,-26.66172,-6.12678,-1.016208,0.09144577,-0.02039223,30.25643,-7.153735,-21.5327,1007.312
13.057259083,-2.995292,-32.82551,-7.955001,-1.01772,0.1288171,0.01318079,29.14452,-6.423203,-22.33459,1007.31
13.089539051,-10.80397,-38.81319,-10.75827,-1.053072,0.1460852,-0.00211487,29.10724,-5.711075,-23.651,1007.316
13.121818543,-6.775686,-48.55786,-11.79426,-1.033887,0.01897241,0.02854454,29.10724,-5.711075,-23.651,1007.316
13.156581402,9.833256,-51.96262,-10.20981,-1.007212,0.008628066,0.09514277,27.64349,-5.336239,-24.06929,1007.316
13.188857079,23.34351,-53.25408,-11.79426,-1.056016,0.2289738,0.1840032,27.24343,-4.620123,-25.38018,1007.315
13.223619461,-25.86357,-57.59808,-13.5006,-1.127852,0.1060145,0.08918837,26.48192,-4.62905,-26.67633,1007.317
13.255899429,-26.7312,-70.74751,-20.81349,-1.179994,0.06222151,0.06246262,26.48192,-4.62905,-26.67633,1007.317
13.290661812,-16.00976,-90.70645,-27.09038,-1.258295,0.05285042,0.07659781,24.98458,-4.634829,-28.33493,1007.32
13.322941780,-23.88042,-106.6149,-37.81594,-1.527696,0.04594075,-0.02099891,23.4709,-3.188985,-30.50997,1007.32
13.355220795,-43.52607,-134.6748,-42.87402,-1.606918,0.2194752,-0.01113957,23.4709,-3.188985,-30.50997,1007.326
13.389979839,-94.40645,-154.6338,-51.46666,-1.852384,0.2546372,-0.2806529,20.55763,-2.461712,-33.02811,1007.33
13.422259331,-172.8651,-147.2959,-66.03149,-1.68812,0.6165307,-0.5864162,17.56926,-0.2813468,-35.99952,1007.331
13.457022190,-184.3302,-88.59315,-98.20818,-0.8663214,-1.602948,0.3709047,17.56926,-0.2813468,-35.99952,1007.331
13.489302158,589.3489,-147.1785,-29.9546,-0.3906977,0.9483288,-0.735258,12.45848,4.137412,-36.84914,1007.331
13.521581173,-183.2767,23.47045,1.429868,-0.04861895,1.071421,0.456381,9.086082,11.41935,-40.31539,1007.331
13.556344509,-82.13566,88.27832,23.73416,-0.1452358,-0.5256509,-0.5000315,9.086082,11.41935,-40.31539,1007.328
13.588619709,65.67152,140.9347,55.24051,-0.07259432,0.1834401,-0.09006772,6.203052,0.8803024,-40.13741,1007.328
13.623383045,-29.64397,214.0784,74.86342,-0.3488017,0.1783157,-0.2263147,9.45812,6.312143,-40.25629,1007.328
13.655662060,-30.44963,257.1662,94.48633,-0.6878802,0.2516448,-0.1492671,9.45812,6.312143,-40.25629,1007.324
13.690425396,-87.09355,297.3189,110.6356,-1.258392,0.25813,-0.03777662,16.07228,5.18544,-37.35387,1007.324
13.722704410,-82.25961,273.1921,131.9039,-2.052377,-0.2326775,0.3159879,24.17295,4.088524,-30.9868,1007.324
13.754984379,-152.2898,244.4864,115.8765,-2.141249,-0.02043511,1.046895,24.17295,4.088524,-30.9868,1007.324
13.789742947,-275.8653,165.6486,69.07405,-1.66023,-1.177373,1.104061,30.20234,3.765638,-22.91611,1007.327
13.822022438,-47.6783,52.11741,22.45441,-1.427727,-1.112546,1.187563,36.17114,3.779097,-17.02868,1007.327
13.856785297,110.9123,6.857567,-11.30674,-1.122739,-1.321457,-0.7432021,36.17114,3.779097,-17.02868,1007.327
13.889064789,255.5588,-55.7783,-13.56155,-1.160014,-0.0559239,-1.260941,38.42905,5.25267,-14.03015,1007.326
13.923827171,130.9918,-146.5915,27.69531,-1.543737,1.162554,1.910921,39.45614,5.941564,-16.23456,1007.326
13.956107140,-183.0288,-78.20276,-42.20368,-0.3313777,-0.1523959,-1.155468,39.45614,5.941564,-16.23456,1007.327
13.988383293,12.3122,-22.20031,-16.36482,-0.9142098,0.4751719,0.4577569,37.89285,2.621335,-20.46597,1007.327
14.023145676,-111.883,-3.356716,-1.007761,-1.080842,-0.2725718,-0.2833796,35.29254,4.07995,-22.56222,1007.327
14.055425644,48.13298,-13.68841,0.6376385,-0.912151,0.2694755,0.01858743,35.29254,4.07995,-22.56222,1007.324
14.090188026,-0.826214,-4.882988,-4.42044,-0.990676,0.3686388,0.07298219,34.93739,5.546831,-22.20168,1007.324
14.122467995,-51.64462,0.6937754,-6.919009,-0.9890492,0.06009239,-0.01337745,34.92712,5.542002,-22.57516,1007.32
14.157230377,-8.696869,2.043939,-6.12678,-0.9978595,0.1133799,0.01063302,34.55169,5.904872,-23.00999,1007.319
14.189506054,-19.60423,6.681459,-6.370543,-0.9805675,0.1627953,0.01232704,34.55169,5.904872,-23.00999,1007.319
14.221786022,-24.74805,8.853462,-7.345593,-0.9878273,0.1632356,0.005577047,34.20985,6.648355,-22.2045,1007.317
14.256548405,-36.33712,9.264381,-7.955001,-1.012407,0.1248954,-0.006190506,35.29686,7.365421,-22.23028,1007.317
14.288828373,-38.01041,9.44049,-9.478518,-1.010064,0.1568465,-0.004563568,35.29686,7.365421,-22.23028,1007.317
14.323590756,-39.18791,6.564054,-13.31778,-1.014408,0.1466028,-0.02491688,34.9454,7.739559,-21.79365,1007.317
14.355870724,-38.87804,5.566106,-17.70551,-1.009565,0.1427402,-0.02639959,35.32885,9.56942,-20.95079,1007.317
14.388145924,-42.72041,7.268486,-23.6777,-1.015869,0.1563312,-0.008904935,35.32885,9.56942,-20.95079,1007.317
14.422908783,-49.7854,7.796812,-27.15133,-1.008969,0.1006939,-0.01068647,35.32687,10.66297,-20.96464,1007.317
14.455188274,-47.18251,7.092378,-28.85766,-1.021025,0.05876958,-0.0911497,35.71163,11.76379,-20.11255,1007.317
14.489951134,-29.52002,6.857567,-28.85766,-1.014802,0.1127657,-0.01350589,35.71163,11.76379,-20.11255,1007.315
14.522231102,-28.40449,10.14492,-30.62494,-0.9912555,0.2011623,0.06187898,35.00674,13.60562,-19.25315,1007.315
14.556993484,-59.63922,18.59812,-25.3231,-1.018164,0.1113861,0.01066544,34.30251,15.08293,-18.38912,1007.315
14.589269638,-61.68435,20.77012,-10.63639,-1.018028,0.4895943,0.08871549,34.30251,15.08293,-18.38912,1007.317
14.621548653,-91.98947,6.153134,8.864634,-1.007433,0.9819311,0.2780994,34.69754,16.18859,-17.16356,1007.319
14.656311989,-299.4153,8.090326,13.43519,-1.040602,0.6274323,0.08423005,34.36753,17.97131,-15.87317,1007.32
14.688591003,-315.4665,-8.757371,8.255227,-1.029934,-0.0109644,0.04480272,34.36753,17.97131,-15.87317,1007.32
14.723354340,-281.0091,-5.822233,14.28836,-1.036103,-0.299741,-0.05593088,34.86977,19.49219,-10.73067,1007.32
14.755633354,-197.0968,-15.15598,17.09163,-1.017148,-0.3222531,-0.003404918,36.1069,22.46879,-5.181944,1007.322
14.790392399,-142.7459,-23.43307,13.37425,-0.9904486,-0.1483143,0.03620164,36.1069,22.46879,-5.181944,1007.324
14.822671890,-144.915,-23.13955,8.377109,-0.9996521,0.06313919,0.03790722,36.92293,23.59783,-1.845501,1007.326
14.854951382,-187.0571,-18.50204,7.219235,-1.024137,0.1663703,-0.03831979,37.70869,22.52368,0.2737031,1007.323
14.889713764,-227.4639,-15.33208,5.512895,-1.01425,0.248853,-0.125858,37.70869,22.52368,0.2737031,1007.323
14.921993732,-220.5848,-12.57305,2.5268,-0.975513,0.1920115,-0.2244027,38.14404,22.18898,2.887164,1007.323
14.956756115,-226.1005,-3.532825,1.795512,-0.9317751,0.2961049,-0.2466267,38.25151,21.50985,6.755691,1007.327
14.989032269,-244.9405,8.38384,3.928437,-0.9061549,0.325955,-0.1706123,38.25151,21.50985,6.755691,1007.328
15.023794651,-266.5073,20.82883,4.781607,-0.9681273,0.3689443,-0.1417114,38.69978,19.72192,9.761096,1007.332
15.056074619,-275.5555,17.89369,3.745615,-1.020622,0.07896164,-0.1306777,39.53601,17.27299,13.6409,1007.332
15.088354111,-203.1702,1.339506,10.99756,-1.060317,-0.05958358,0.003499467,39.6601,14.04789,17.97746,1007.335
15.123116970,-111.2013,-13.21878,20.86995,-1.006447,-0.1548836,-0.03244953,39.6601,14.04789,17.97746,1007.337
15.155396462,-13.097,1.163398,29.46259,-0.7569115,-0.1032888,-0.4411997,39.69069,10.414,18.89508,1007.337
15.190155029,-5.66016,4.157239,11.66791,-1.336519,-0.2170567,0.6074978,40.43353,7.495536,19.3567,1007.333
15.222434998,47.38929,-3.708933,30.49858,-0.9564047,-0.3316349,-0.2530436,40.43353,7.495536,19.3567,1007.335
15.257197380,41.5018,6.094431,31.65646,-0.8891046,0.4604213,0.3676993,40.07207,6.770494,19.37145,1007.335
15.289477348,15.53483,6.681459,29.82824,-1.002944,0.2359687,0.0611352,40.06008,6.764858,18.93572,1007.335
15.321757317,-47.05856,4.626862,26.96402,-0.9961973,0.2652122,0.1168824,40.06008,6.764858,18.93572,1007.335
15.356519699,-25.24384,-3.0045,26.7812,-1.010437,0.1157653,0.01115713,39.71062,6.04545,19.38619,1007.336
15.388795376,-25.05792,1.63302,19.46832,-0.981204,0.2769971,0.1546253,40.42683,4.573774,18.9579,1007.336
15.423558235,-77.92145,9.968815,16.54316,-0.994132,0.2222693,0.1524082,40.42683,4.573774,18.9579,1007.336
15.455837726,-85.60619,12.61044,12.64296,-0.9939941,0.1387895,0.07990089,40.45279,3.491496,19.8432,1007.336
15.490600586,-68.93527,7.796812,11.78979,-1.032138,0.1149678,0.07984765,40.83019,2.035079,20.29188,1007.335
15.522880077,-49.35159,2.748373,8.986515,-1.011977,0.1676791,0.05206448,40.83019,2.035079,20.29188,1007.336
15.555159569,-59.32935,-2.006552,6.731709,-1.015773,0.1391359,0.05771163,40.09728,-0.5141883,19.89949,1007.335
15.589918613,-47.4304,-7.87683,5.08631,-1.028743,0.1008485,0.05172062,40.48602,-1.600455,20.77928,1007.335
15.622197628,-27.53686,-17.97371,2.953385,-1.018142,0.1276048,0.08424029,40.48602,-1.600455,20.77928,1007.335
15.656960964,-16.87739,-25.07675,-0.2764721,-1.040971,0.1720727,0.08792641,40.82681,-2.70926,19.91616,1007.335
15.689239979,-19.85213,-29.83167,-1.129642,-0.9877233,0.1592684,0.1201292,40.4427,-4.174603,19.06868,1007.335
15.721519947,-11.79555,-35.70195,0.332935,-1.055501,0.1841507,0.0943111,40.4427,-4.174603,19.06868,1007.33
15.756282330,-12.78713,-44.50737,0.332935,-1.082707,0.2646642,0.1712108,41.12203,-4.204314,17.37699,1007.33
15.788558006,-24.93397,-51.72781,-2.287515,-1.114242,0.3164284,0.1933279,41.09806,-4.215583,16.50554,1007.332
15.823320866,-64.47317,-61.82468,-5.33455,-1.156401,0.1288184,0.1309553,41.09806,-4.215583,16.50554,1007.332
15.855600357,-79.09895,-76.44167,-9.234756,-1.231701,0.06464885,0.1085145,41.76369,-4.251733,14.31587,1007.338
15.890363216,-110.7675,-91.99791,-20.56973,-1.378224,-0.1761816,-0.005180237,42.43235,-5.016109,12.19768,1007.334
15.922642708,-19.48029,-126.1629,-34.40327,-1.599826,0.03171793,-0.1587044,42.43235,-5.016109,12.19768,1007.334
15.954922676,-76.37211,-150.1136,-38.91288,-1.745015,0.1880857,-0.4465987,42.31487,-5.436166,7.90728,1007.334
15.989681244,-178.6906,-122.1124,-59.99836,-1.548392,0.1453885,-0.7890564,42.53421,-4.777932,2.726057,1007.332
16.021961212,105.4586,-115.6551,-43.42249,-1.386296,-0.3137927,0.9498131,42.77686,-3.743914,-1.588328,1007.33
16.056723595,186.954,-120.9971,-21.17914,-0.324896,1.004924,0.05969513,42.77686,-3.743914,-1.588328,1007.33
16.089003563,-214.0156,36.50247,-9.234756,-0.3811282,0.3328899,-0.2819284,41.21933,-2.683514,-5.377162,1007.33
16.123765945,2.520364,82.05583,-0.6421163,-0.1810219,-0.02204449,-0.2302327,40.85457,-1.585979,-5.385493,1007.329
16.156045914,-42.41054,155.7278,16.17752,-0.3555598,0.1969133,-0.1589964,40.85457,-1.585979,-5.385493,1007.327
16.188321590,27.86759,199.6962,23.06382,-0.6013635,0.06755349,-0.1388978,40.93173,0.2744322,-2.482979,1007.325
16.223083973,17.45601,243.0776,45.06341,-0.7632536,0.008366306,-0.1886796,40.04373,0.3805757,4.816431,1007.323
16.255363941,55.56982,265.5607,71.99921,-1.186565,-0.06109735,-0.05086562,40.04373,0.3805757,4.816431,1007.32
16.290126324,105.5826,283.5238,83.63888,-1.53023,0.1461211,0.1265415,38.44652,-0.9569278,12.64331,1007.32
16.322406292,143.8203,276.8317,83.39512,-1.993774,0.297452,0.1926984,33.21915,-1.890836,20.45848,1007.32
16.357168675,-18.36476,243.8994,62.49245,-1.905183,0.5009269,0.8994849,33.21915,-1.890836,20.45848,1007.322
16.389444828,-9.874369,144.8091,35.25196,-1.677485,0.2664068,1.332272,27.20671,-2.115102,26.15906,1007.322
16.421723842,-147.8277,21.59196,8.864634,-1.548244,-0.09956545,1.614175,23.36079,-3.126804,29.2205,1007.325
16.456487179,-110.7675,-85.01228,-14.96318,-1.21382,-0.3993898,1.106556,23.36079,-3.126804,29.2205,1007.325
16.488766193,56.12758,46.42324,-3.811033,-0.0520703,-0.4739423,-2.886675,21.20009,-5.284332,29.71701,1007.327
16.523741245,-97.25723,-147.7068,-15.146,-1.888237,-0.8116105,1.84436,23.63564,-7.824983,27.96796,1007.323
16.556021213,230.1496,-52.78446,-17.15705,-0.2925878,0.5849266,-0.668404,23.63564,-7.824983,27.96796,1007.325
16.590779781,-5.846081,-173.36,26.96402,-1.666044,0.6697941,1.119411,24.65256,-7.201672,25.39083,1007.325
16.623059273,-53.25593,-84.24915,-22.94642,-0.8270434,0.09532558,0.1078168,27.48956,-4.345627,23.13115,1007.325
16.655338764,-116.4691,-34.29308,3.989377,-0.9375069,0.1781708,0.08628777,27.48956,-4.345627,23.13115,1007.323
16.690101623,-85.66816,-18.56074,-10.88015,-0.9279553,0.196762,-0.004997013,29.59734,-5.131592,20.55518,1007.323
16.722381115,29.23101,-29.12724,-4.786084,-0.9578127,0.1131327,-0.09629466,31.3899,-6.620867,19.67461,1007.321
16.757143974,-77.17776,-20.55663,-8.930052,-1.021451,0.2710399,0.001428095,31.3899,-6.620867,19.67461,1007.319
16.789419174,-0.8881877,-36.876,-9.722281,-1.045196,0.05774898,-0.08626902,31.73058,-7.668919,18.81072,1007.319
16.821699142,-3.491081,-44.97699,-11.48956,-0.9870051,0.2300745,0.02190879,31.69634,-7.685018,17.56578,1007.319
16.856461525,3.511942,-51.14078,-14.90224,-1.036078,0.1459363,0.08244943,31.69634,-7.685018,17.56578,1007.319
16.888741493,-13.097,-52.72575,-15.32883,-1.059526,0.03546738,0.0625343,32.76015,-7.404489,16.67394,1007.319
16.923503876,21.23641,-61.00284,-16.06012,-1.04986,0.0388989,0.06736737,33.4371,-7.070488,14.91538,1007.319
16.955783844,8.469835,-64.23149,-18.92433,-1.142652,0.2518484,0.1528965,34.10444,-7.105834,12.78796,1007.321
16.990542412,-12.72516,-74.798,-25.14028,-1.14493,0.1991523,0.1700056,34.10444,-7.105834,12.78796,1007.321
17.022822380,-21.15358,-87.41909,-31.05153,-1.270458,0.09160057,0.09763221,35.48164,-6.062048,10.13769,1007.325
17.055101872,-28.1566,-104.6777,-36.10961,-1.340354,0.2041618,0.09987319,35.80781,-5.718424,8.820381,1007.326
17.089864731,-58.95751,-126.9848,-50.49161,-1.673598,0.1584068,-0.1254346,35.80781,-5.718424,8.820381,1007.326
17.122144222,-88.27105,-163.2631,-52.25889,-1.858733,0.4962009,-0.2497759,37.85275,-3.980147,4.095707,1007.328
17.156906605,-167.5973,-180.4043,-63.89857,-2.038462,0.5123894,-0.6046239,37.72063,-2.947774,-0.6488888,1007.328
17.189182758,-111.3253,-154.3403,-82.6683,-1.262415,-0.5817725,0.8784072,37.72063,-2.947774,-0.6488888,1007.33
17.223945141,243.9078,-183.6329,-46.28671,-0.6095673,0.424233,-0.2664136,38.62798,-0.4910383,-7.109156,1007.328
17.256225109,63.68837,-29.42075,36.53172,-0.3593323,0.152295,-0.7562887,37.7537,3.095286,-12.31076,1007.328
17.288505077,185.4046,15.72169,44.63683,-0.006337432,0.6434193,0.07145622,37.7537,3.095286,-12.31076,1007.326
17.323267460,-47.30646,94.50082,46.0994,-0.1428747,0.2543853,-0.08709566,37.32271,1.972726,-14.84351,1007.326
17.355547428,-101.3475,177.8588,29.88918,-0.148754,-0.2335472,-0.4089269,37.74899,-0.9200215,-12.69571,1007.328
17.390305519,-128.492,238.6749,42.13826,-0.4672084,-0.4925679,-0.3183434,37.74899,-0.9200215,-12.69571,1007.328
17.422585010,-5.288318,275.775,61.39552,-0.8189929,-0.7476789,-0.7599319,38.62997,-1.584586,-7.095308,1007.328
17.457347870,-44.1458,326.4942,86.44215,-1.238386,0.02295594,0.09185496,40.3163,-1.854779,1.415043,1007.328
17.489627361,91.20467,309.0008,106.1869,-2.004522,-0.4197674,-0.2406501,40.3163,-1.854779,1.415043,1007.328
17.521906853,260.4547,313.9905,88.27037,-2.483274,0.4014668,0.3127873,40.27702,-3.522846,13.08377,1007.328
17.556669712,-17.807,239.6728,52.13253,-2.069312,0.8162585,1.555241,36.18752,-6.269565,22.58613,1007.331
17.588945389,-29.3341,117.1014,26.29367,-1.730234,0.05164739,1.835875,36.18752,-6.269565,22.58613,1007.331
17.623707771,-168.6509,-45.09439,-1.678108,-1.37271,-0.1092966,1.592953,31.32002,-4.655046,30.42572,1007.335
17.655987739,-25.55371,-116.1835,-30.74683,-1.125761,-0.4414766,0.4646034,28.47933,-6.418348,32.60931,1007.335
17.688267708,93.12585,-168.3115,-38.24253,-2.144227,-0.7922754,-0.08921698,28.47933,-6.418348,32.60931,1007.331
17.723030090,266.962,-108.6108,-2.531278,-0.2891012,0.394824,-0.5051233,32.08831,-9.324876,31.71886,1007.331
17.755310059,-103.4546,-232.2975,93.81598,-2.833327,0.7989209,2.083737,33.12777,-7.900511,30.00319,1007.333
17.790068626,41.2539,-93.9351,-58.41391,-0.597815,-0.1653419,-0.6086817,33.12777,-7.900511,30.00319,1007.335
17.822348118,-110.8914,-32.82551,9.717804,-0.9156466,0.10628,-0.5837307,34.81635,-4.027074,25.63058,1007.335
17.857110500,-59.63922,-29.83167,-1.312464,-0.9983755,0.1132442,-0.02900861,39.07643,-5.578075,22.09705,1007.335
17.889390469,4.069705,-26.3095,-2.226575,-0.9588012,0.1858528,0.08637735,39.76972,-6.695699,20.85493,1007.331
17.921670437,-57.90395,-15.21468,-2.348456,-1.023428,0.1067102,0.06334502,39.76972,-6.695699,20.85493,1007.331
17.956432819,-26.42134,-20.73274,-2.592219,-1.014734,0.09447797,0.01636318,40.48396,-7.073826,20.41279,1007.327
17.988708973,-11.54766,-21.67198,-4.847025,-0.9843822,0.1615405,0.07372484,39.36088,-7.747043,19.13062,1007.326
18.023471355,-18.61266,-23.90269,-6.797127,-1.029857,0.1637647,0.05449795,39.36088,-7.747043,19.13062,1007.326
18.055751324,-21.95923,-33.82346,-8.137823,-1.041738,0.05659516,-0.001197817,40.79945,-7.464868,18.66898,1007.324
18.090513706,17.57996,-45.85753,-8.80817,-1.020017,0.08972668,0.04680419,40.76642,-8.149246,17.43251,1007.324
18.122793198,7.354309,-48.67526,-10.20981,-1.054618,0.2439093,0.1632973,40.76642,-8.149246,17.43251,1007.326
18.155072689,-11.9195,-53.665,-11.79426,-1.084903,0.1497599,0.109649,42.16772,-7.154943,15.65446,1007.326
18.189831257,-11.98147,-64.46631,-15.08506,-1.117812,0.1627434,0.1131778,41.74501,-7.179128,13.48134,1007.326
18.222110748,-9.874369,-77.55702,-20.20408,-1.131279,0.1375961,0.1295007,41.74501,-7.179128,13.48134,1007.327
18.256873608,-21.95923,-92.76105,-22.09325,-1.23208,0.2556148,0.197587,43.13724,-6.857934,11.33828,1007.329
18.289153099,-21.0916,-110.6067,-28.3092,-1.405825,0.313131,0.1808847,43.7673,-6.181151,7.894449,1007.331
18.323915958,-103.4546,-133.0898,-26.48098,-1.586769,0.2980362,0.02068721,43.7673,-6.181151,7.894449,1007.333
18.356195450,-116.0353,-150.1136,-33.67198,-1.654997,0.2326467,-0.2251244,43.66115,-6.231057,4.035154,1007.333
18.388471603,-224.4272,-135.2619,-39.64417,-1.453424,0.4547623,-0.2542691,44.23128,-5.582447,-1.58731,1007.334
18.423233986,16.71233,-134.4987,-37.87689,-1.072575,-0.7057098,-0.2984296,44.23128,-5.582447,-1.58731,1007.334
18.455513954,189.185,-86.59725,13.0086,-0.3258435,1.162796,-0.04914577,43.35004,-3.823531,-7.139314,1007.332
18.490276337,-241.5939,30.04516,34.82537,-0.1996841,-0.1097353,-0.2442274,42.52502,-0.9436989,-10.58878,1007.328
18.522556305,-24.43818,82.99507,76.38693,-0.126503,-0.3936874,-0.2735557,42.52502,-0.9436989,-10.58878,1007.328
18.557318687,43.73285,144.8091,115.0233,-0.1504269,0.1754746,-0.08994526,41.10052,-2.374539,-9.676799,1007.328
18.589594364,-7.705291,199.1092,137.3886,-0.5071657,0.3542374,-0.0161276,41.57277,-4.1512,-5.79994,1007.328
18.621874332,-55.48698,242.0209,150.7346,-0.8668244,0.3169699,0.0008725552,41.57277,-4.1512,-5.79994,1007.328
18.656636715,-92.17539,240.7881,148.1142,-1.500331,0.4356049,0.2731547,40.69022,-7.994782,1.487227,1007.327
18.688916683,-436.0052,235.9158,148.5407,-2.017848,0.6002494,0.6010439,37.63415,-12.60341,8.879736,1007.327
18.723679066,-565.5922,136.0624,134.4634,-1.90975,-1.335042,0.05560723,37.63415,-12.60341,8.879736,1007.327
18.755959034,-391.4462,62.21429,56.45932,-1.337155,-2.358568,0.1336387,33.29009,-17.65877,9.010545,1007.325
18.788234234,-61.68435,4.450753,4.720666,-1.452198,-2.340598,0.8219221,29.83933,-25.7364,1.87887,1007.323
18.822996616,497.9378,-4.589475,-42.6912,-3.740871,0.7434217,-3.248885,29.79772,-28.30974,0.2305207,1007.323
18.855276585,-18.92252,-49.55581,-22.0323,-0.505563,0.6416265,-0.1783827,29.79772,-28.30974,0.2305207,1007.321
18.890038967,-112.6887,-1.067308,-11.79426,-0.8972576,0.6311752,0.3537012,30.65037,-27.52832,4.878759,1007.321
18.922318935,-112.6887,20.3005,-7.772179,-1.043574,0.03304913,0.04943332,30.63679,-25.71057,4.482201,1007.325
18.957081318,-53.37988,24.29229,-7.467475,-0.9787531,0.03285364,0.07974914,30.63679,-25.71057,4.482201,1007.321
18.989356995,5.123257,21.70937,-9.051933,-0.9792252,0.2400488,0.102683,31.32705,-26.09997,3.168605,1007.318
19.021636963,-56.78843,26.523,-15.51165,-0.9732145,0.3713555,0.1459593,31.6885,-25.37492,3.153858,1007.318
19.056399345,-67.88172,26.28819,-18.37586,-1.014734,0.08665977,-0.005919458,31.6885,-25.37492,3.153858,1007.318
19.088679314,-39.24988,22.53121,-20.32597,-1.005501,0.07563431,0.01720301,31.67784,-26.10959,2.727362,1007.318
19.123441696,-28.28055,23.99878,-21.97136,-0.9843456,0.1416568,0.0610423,32.03863,-25.02003,2.707999,1007.318
19.155721664,-47.98817,28.8124,-24.34805,-0.9955179,0.1580295,0.04665631,32.03863,-25.02003,2.707999,1007.318
19.190480232,-60.32093,30.9257,-25.99345,-1.014723,0.08719447,0.009070159,32.3881,-24.30062,2.257525,1007.319
19.222760201,-48.48396,25.58375,-29.89366,-1.051446,0.05299164,-0.05679283,32.75088,-24.30461,2.25201,1007.319
19.255039215,-29.14818,20.06569,-36.96278,-1.012903,0.1282651,-0.01100466,32.75088,-24.30461,2.25201,1007.319
19.289802551,-43.15422,28.695,-42.75214,-0.9818583,0.113609,0.06474496,32.76088,-23.20543,2.673889,1007.319
19.322081566,-62.11816,47.18637,-41.47239,-0.9873529,0.2042473,0.1121657,34.21,-22.12783,2.637979,1007.319
19.356844902,-16.19568,42.66626,-31.35623,-1.092039,0.7897516,0.3313341,34.21,-22.12783,2.637979,1007.321
19.389123917,-201.0631,39.02669,-18.80245,-0.9804534,1.288926,0.4538247,34.22066,-21.39317,3.064475,1007.321
19.423882961,-504.3002,34.15436,-1.129642,-1.00336,0.8102899,0.03346156,34.57013,-20.67376,2.614,1007.321
19.456161976,-483.4151,0.5763699,13.73989,-1.159708,-0.4747704,-0.3356038,34.57013,-20.67376,2.614,1007.319
19.488441944,-298.6096,-34.52789,-4.237617,-1.173016,-0.2344497,0.04867476,34.75418,-20.39695,-3.869787,1007.318
19.523204327,-188.3585,-71.09972,-9.966044,-1.076556,-0.1105961,0.100899,35.64323,-20.13777,-11.11156,1007.318
19.555484295,-137.2302,-80.96178,-10.45357,-1.035596,0.106348,-0.03331855,35.64323,-20.13777,-11.11156,1007.319
19.590242863,-163.3212,-68.16458,-5.456432,-0.9510555,0.3119415,-0.1266023,34.74961,-19.11432,-17.15231,1007.319
19.622522831,-183.5246,-55.837,-9.173815,-0.9005605,0.1541222,-0.3301693,32.08674,-16.22582,-21.44565,1007.319
19.657285213,-148.4475,-41.80704,-7.04089,-0.7987548,0.05091897,-0.3111545,32.08674,-16.22582,-21.44565,1007.319
19.689565182,-74.45093,11.55379,10.99756,-0.6731484,0.03462665,-1.084536,30.5375,-14.06704,-24.87485,1007.319
19.721844673,18.38562,81.11658,20.80901,-0.4739845,0.3456597,-1.434174,27.89926,-11.53178,-28.29212,1007.315
19.756607532,-44.02185,52.46962,42.80861,-2.440131,0.6859049,0.6730231,27.57111,-10.78186,-26.98866,1007.315
19.788887024,-50.83896,36.26766,1.125164,-0.5131072,-0.1871235,0.604443,27.57111,-10.78186,-26.98866,1007.321
19.823645592,6.85852,39.84853,22.21065,-1.137862,0.004452889,-0.02690938,28.68303,-11.51239,-26.18676,1007.319
19.855925560,43.67088,30.98441,11.11944,-0.92992,0.2049374,-0.01848258,30.14479,-10.79368,-25.78233,1007.32
19.888204575,8.469835,32.09976,11.30226,-1.041939,0.1334612,-0.02396539,30.14479,-10.79368,-25.78233,1007.322
19.922967911,10.45299,25.23153,9.534982,-1.025909,0.05366585,-0.1651343,30.18406,-12.59936,-24.45207,1007.322
19.955246925,13.36575,15.66298,7.036413,-1.011598,0.1359735,-0.1651806,30.94557,-12.59043,-23.15592,1007.324
19.990010262,2.148522,6.622756,3.806555,-1.040396,0.0649431,-0.1094435,30.94557,-12.59043,-23.15592,1007.327
20.022285461,8.407862,-2.241364,3.623733,-1.011309,0.06142653,-0.02927537,31.6598,-12.96856,-23.59806,1007.329
20.057048798,4.937336,-2.534878,1.186105,-1.026306,0.05011573,-0.06991622,30.97153,-13.67271,-22.27062,1007.331
20.089327812,22.97167,-11.5164,1.67363,-1.028789,0.07378364,-0.08089538,30.97153,-13.67271,-22.27062,1007.331
20.121607780,45.0343,-11.34029,-1.739049,-0.9414153,0.1022498,-0.1800268,31.32231,-13.68233,-22.71186,1007.334
20.156370163,46.14982,-13.68841,-3.689152,-1.007127,0.1174207,-0.07440925,30.9602,-14.04286,-22.70173,1007.336
20.188650131,40.38627,-16.79965,-4.176677,-0.992161,0.116386,-0.1068378,30.9602,-14.04286,-22.70173,1007.338
20.223408222,53.77258,-20.08701,-6.431483,-1.025373,0.08369629,-0.01461528,30.23729,-15.49294,-22.67224,1007.343
20.255688191,39.27074,-21.49588,-5.517373,-0.9939746,0.1134598,0.03092952,29.87451,-15.48896,-22.66672,1007.348
20.290450573,-0.826214,-15.27338,-6.675246,-0.9842483,0.0814646,0.006071267,29.87451,-15.48896,-22.66672,1007.348
20.322730541,-4.792529,-11.16419,-4.664203,-0.9576265,0.02154567,-0.1335572,29.8765,-16.5825,-22.65288,1007.355
20.355010510,-7.395422,-15.80171,-2.7141,-0.9745709,0.06050641,-0.04628014,29.51306,-16.214,-22.65198,1007.362
20.389772892,3.511942,-14.51024,-1.312464,-1.001533,0.01302038,-0.04165764,29.51306,-16.214,-22.65198,1007.367
20.422048092,18.69549,-18.56074,-1.251523,-1.006562,0.1553873,0.1332006,30.22663,-16.22761,-23.09873,1007.374
20.456811428,4.875362,-15.91911,-4.542321,-1.001028,0.01848585,-5.192542E-05,29.47711,-16.2309,-23.95916,1007.374
20.489090443,7.602203,-14.74505,-1.86093,-1.020928,0.06600977,0.04618786,29.47711,-16.2309,-23.95916,1007.379
20.523853779,2.272469,-18.67814,-1.79999,-1.0044,0.05469147,0.1195706,29.47579,-15.50187,-23.96839,1007.386
20.556132793,-2.189635,-19.8522,0.2719943,-1.024195,0.02641788,0.07545954,28.72692,-15.86968,-24.82419,1007.391
20.588412762,4.3176,-16.62354,3.623733,-0.9763682,0.02979317,0.03138273,28.72692,-15.86968,-24.82419,1007.396
20.623171329,-14.89423,-14.04062,6.183243,-0.9922436,0.03936972,0.1576489,28.72758,-16.2342,-24.81958,1007.396
20.655450821,-21.0916,-8.698668,8.438049,-1.008705,0.03483796,0.119467,28.72692,-15.86968,-24.82419,1007.403
20.690213680,-26.11147,-7.348505,11.72885,-1.014569,0.0521609,0.09540615,27.9774,-15.87297,-25.68462,1007.406
20.722493172,-31.62712,-8.698668,14.28836,-1.000557,0.05166464,0.0799031,27.9774,-15.87297,-25.68462,1007.411
20.757256031,-17.06331,-12.74916,17.51821,-0.9937868,0.0531538,0.08521479,27.9774,-15.87297,-25.68462,1007.418
20.789535522,9.275493,-9.226994,17.51821,-0.9716571,0.1045466,0.09512809,27.23787,-14.77708,-26.12316,1007.418
20.821811676,14.35733,-7.2311,17.51821,-0.9843034,0.13499,0.09291125,27.23787,-14.77708,-26.12316,1007.42
20.856574058,7.912072,-2.828391,15.14153,-0.9819977,0.1931731,0.1241772,26.86509,-15.87227,-26.53952,1007.422
20.888854027,-5.164371,-0.6563885,11.30226,-0.9857185,0.1390423,0.1475659,26.86813,-16.6005,-26.46805,1007.422
20.923616409,-0.7022667,-1.595633,4.294081,-0.9900051,0.1153551,0.1585596,26.86813,-16.6005,-26.46805,1007.418
20.955896378,2.086548,-0.7150912,-1.79999,-0.9838048,0.1404292,0.1267818,26.14258,-16.59253,-26.45702,1007.416
20.990658760,4.627468,0.4589643,-4.542321,-1.001831,0.1833101,0.08645563,25.78046,-16.95305,-26.44688,1007.416
21.022934437,4.937336,1.574317,-7.650297,-0.9645075,0.1461639,0.08906462,25.78046,-16.95305,-26.44688,1007.413
21.055213451,0.4132592,2.68967,-8.74723,-0.9929481,0.118595,0.117492,26.15285,-16.58769,-26.08353,1007.41
21.089976311,-0.5783194,3.805022,-4.907965,-0.9987667,0.1258423,0.1189961,26.15417,-17.31673,-26.0743,1007.406
21.122255802,-2.871345,5.566106,-5.33455,-0.9899951,0.08900834,0.09507926,26.15417,-17.31673,-26.0743,1007.403
21.157018662,-8.88279,6.505351,-2.470337,-1.006441,0.08649582,0.08156414,26.51629,-16.9562,-26.08443,1007.403
21.189298153,-9.5645,9.616598,-2.104693,-0.990028,0.08398558,0.04090565,26.51563,-16.59168,-26.08905,1007.398
21.221574307,-8.758842,10.32103,-0.9468198,-0.9963456,0.09947462,0.04729203,26.51563,-16.59168,-26.08905,1007.392
21.256336689,-8.696869,13.7845,-1.373405,-0.9948754,0.09418505,0.05596069,27.22958,-15.87546,-26.48279,1007.388
21.288616657,-11.79555,14.72374,-2.409397,-1.012234,0.08163504,0.08009867,27.23919,-15.50611,-26.11393,1007.387
21.323379040,-9.874369,18.42201,-3.262567,-0.9885708,0.0830399,0.04621495,27.23919,-15.50611,-26.11393,1007.387
21.355659008,-4.358713,19.12645,-3.201626,-0.9962982,0.08110172,0.05202185,28.35083,-15.14229,-25.26364,1007.383
21.390421391,3.573916,19.00904,-2.896922,-1.000651,0.08988354,0.07673654,28.35017,-14.77778,-25.26825,1007.38
21.422697067,5.061284,17.89369,-2.531278,-1.006457,0.08594146,0.06077316,28.35017,-14.77778,-25.26825,1007.378
21.454976559,4.751415,16.48482,-2.409397,-0.9963222,0.100549,0.0787216,29.46248,-14.77847,-24.41335,1007.373
21.489739418,2.396416,12.14082,-2.287515,-1.013701,0.09573197,0.100003,29.4738,-14.40832,-23.98223,1007.373
21.522018909,-0.0825301,6.974973,-2.104693,-1.018546,0.1074078,0.122318,29.4738,-14.40832,-23.98223,1007.371
21.556781769,-1.817793,1.2221,-1.739049,-1.000658,0.09474084,0.082082,29.86121,-14.76556,-23.11168,1007.37
21.589061260,-1.94174,-0.3628745,-1.251523,-0.9900504,0.08535875,0.01770844,29.86054,-14.40104,-23.1163,1007.368
21.623820305,-3.367134,0.1067477,-1.312464,-1.026212,0.04121921,0.01801884,30.59808,-14.40339,-22.6916,1007.364
21.656099319,-1.631872,-2.300066,-0.6421163,-1.034237,-0.03569487,0.03355229,30.59808,-14.40339,-22.6916,1007.364
21.688379288,23.52943,0.3415588,1.003283,-1.027415,-0.09116443,-0.0615318,30.22399,-14.76955,-23.1172,1007.362
21.723141670,74.03796,-6.761477,5.02537,-0.9833053,0.08576539,-0.01082667,29.87253,-14.39541,-22.68057,1007.362
21.755421638,71.62099,-5.822233,3.806555,-0.9935727,0.1390226,0.005451756,29.87253,-14.39541,-22.68057,1007.362
21.790184021,51.72745,-9.050885,1.856453,-0.9894797,0.2635504,0.04917704,29.89611,-15.11398,-21.86213,1007.36
21.822459698,13.67562,-5.880936,-4.48138,-0.9557244,0.2955144,0.02801473,30.28551,-16.56476,-20.97773,1007.359
21.857222557,-17.5591,-1.654336,-5.822076,-1.028369,0.138024,0.0258255,30.28551,-16.56476,-20.97773,1007.359
21.889502048,-13.097,-5.587422,-1.617168,-0.984273,0.09406804,0.01242769,29.91273,-17.65995,-21.39409,1007.357
21.921781540,-3.553055,-11.16419,2.404919,-1.018204,0.1385844,0.0398265,30.6363,-16.57438,-21.41897,1007.357
21.956544399,0.4752329,-15.44949,3.745615,-1.037365,0.06157957,0.03797964,30.6363,-16.57438,-21.41897,1007.355
21.988823891,12.68404,-18.67814,-0.703057,-1.041145,0.03163701,0.05908884,29.91074,-16.5664,-21.40794,1007.351
22.023582935,27.49575,-23.90269,3.928437,-1.012811,0.1149608,0.0614353,29.8765,-16.5825,-22.65288,1007.351
22.055861950,13.42773,-19.9109,5.208192,-1.06007,0.2814587,0.1098608,29.8765,-16.5825,-22.65288,1007.351
22.090625286,-21.02963,-13.39489,8.316168,-1.015373,0.1905926,0.1048969,29.13962,-16.94468,-23.07295,1007.349
22.122904301,-36.95686,-12.98397,9.108397,-1.042778,0.105154,0.04887472,28.4287,-18.38913,-22.60773,1007.349
22.155184269,-40.6133,-9.872724,6.427006,-1.010222,0.04433384,0.0668294,28.4287,-18.38913,-22.60773,1007.349
22.189946652,-28.46647,-8.346452,2.404919,-0.9680144,-0.003837185,0.09643773,28.02864,-17.67301,-23.91863,1007.349
22.222222805,-13.22095,-7.87683,2.648682,-0.9250387,0.03073323,0.1226474,27.6519,-16.58111,-24.36269,1007.348
22.256985188,-8.696869,-6.467963,5.391014,-0.9164293,0.08118824,0.1528889,27.6519,-16.58111,-24.36269,1007.348
22.289265156,-6.651739,-6.82018,9.291219,-0.9876372,0.1263957,0.1300943,27.27714,-16.58276,-24.7929,1007.349
22.321544647,-6.093976,-3.591527,9.595922,-1.002697,0.1558724,0.1302944,27.25317,-16.59402,-25.66435,1007.348
22.356307507,-17.74502,-0.4802801,9.4131,-1.006389,0.07498147,0.1109883,27.25317,-16.59402,-25.66435,1007.348
22.388586521,8.469835,-4.413366,8.681812,-0.989093,0.1307682,0.136407,26.15351,-16.95221,-26.07892,1007.348
22.423345566,10.63891,-2.945797,8.255227,-0.967134,0.2615957,0.1675602,26.88973,-16.22552,-25.66345,1007.348
22.455624580,-8.015159,1.398209,7.158294,-0.954748,0.1284778,0.1455053,26.88973,-16.22552,-25.66345,1007.348
22.490387916,-0.9501613,2.454859,7.584879,-0.9460276,0.1139111,0.123649,26.51629,-16.9562,-26.08443,1007.348
22.522666931,-3.181213,2.27875,9.047456,-0.9862269,0.1364952,0.1103278,25.80206,-16.57807,-25.64229,1007.348
22.554946899,2.706285,1.63302,9.717804,-1.011881,0.1465762,0.1080232,25.80206,-16.57807,-25.64229,1007.349
22.589709282,3.945758,5.272592,9.839685,-1.033151,0.1416532,0.1012729,26.1655,-16.94658,-25.64319,1007.349
22.621985435,6.176809,7.855515,9.169337,-1.037618,0.1944266,0.1127017,25.44127,-17.66763,-25.62293,1007.346
22.656747818,-2.561477,9.851409,10.7538,-1.029407,0.1909938,0.09236001,25.80404,-17.67162,-25.62844,1007.344
22.689027786,0.7851012,11.6712,9.474041,-1.006687,0.192983,0.08893829,25.80404,-17.67162,-25.62844,1007.344
22.723790169,-4.29674,13.7845,11.11944,-1.010988,0.1501785,0.0277909,25.8047,-18.03613,-25.62383,1007.344
22.756070137,-8.448975,19.77218,10.87568,-0.9956828,0.2438404,0.09307126,26.54224,-18.03848,-25.19913,1007.344
22.788349628,-25.11989,22.3551,8.559931,-1.053642,0.2029001,0.05622205,26.54224,-18.03848,-25.19913,1007.344
22.823108196,-23.50858,32.33457,8.194286,-1.033003,0.2643856,0.0468584,25.82933,-18.38938,-24.74776,1007.342
22.855387688,-44.33172,32.15846,12.46014,-0.9972717,0.2911532,0.06143674,26.917,-18.03683,-24.76892,1007.34
22.890150547,-57.0983,32.21717,19.5902,-0.9835172,0.2051001,0.07493752,26.917,-18.03683,-24.76892,1007.34
22.922430038,-45.13738,27.40354,24.64828,-0.9403319,0.1398731,0.06867231,27.30243,-17.30052,-23.91222,1007.34
22.957192898,-44.64159,17.36536,28.67036,-0.9786806,0.2153813,0.1059256,27.66388,-16.57548,-23.92696,1007.339
22.989472389,-51.52067,6.798864,29.88918,-0.9253598,0.1632985,0.1142165,27.66388,-16.57548,-23.92696,1007.339
23.021748066,-34.78778,-1.243416,27.63437,-1.003382,0.01287982,0.06131799,27.65256,-16.94563,-24.35807,1007.335
23.056510448,19.62509,-4.06115,31.83928,-0.9204719,0.3218113,0.04694238,27.27714,-16.58276,-24.7929,1007.335
23.088790417,7.726151,1.985236,14.22742,-1.02451,0.3783745,0.1185537,27.27714,-16.58276,-24.7929,1007.335
23.123552799,36.91575,-4.413366,6.487947,-1.066963,0.3239317,0.08256118,26.90303,-16.94892,-25.2185,1007.336
23.155832768,49.4964,-4.530772,0.1501129,-1.00192,0.4130596,0.05295458,26.55224,-16.93929,-24.77725,1007.333
23.190595150,61.76719,-2.769689,2.892445,-0.99345,0.5196209,0.07481352,26.55224,-16.93929,-24.77725,1007.333
23.222870827,57.92482,0.811181,2.343978,-1.055306,0.4995651,0.06371371,26.57952,-18.7506,-23.88272,1007.333
23.255150318,54.02048,-6.350558,-2.409397,-1.029287,0.3414658,0.08402999,25.88058,-20.18942,-22.98177,1007.331
23.289913178,71.99284,-5.998341,-8.015942,-0.9925555,0.324391,0.01230482,25.88058,-20.18942,-22.98177,1007.331
23.322192669,102.174,1.163398,-13.07402,-1.113701,0.4211938,-0.02265813,25.5431,-20.90319,-22.09557,1007.331
23.356955528,104.0332,6.446648,-18.80245,-1.169637,0.5516152,-0.04548451,24.85444,-22.33718,-20.82114,1007.331
23.389235020,105.2727,16.25001,-8.015942,-1.153145,0.6901236,-0.17091,24.85444,-22.33718,-20.82114,1007.331
23.421510696,84.44954,30.69089,12.64296,-1.13763,0.6380517,-0.2703445,24.21609,-24.11234,-17.73695,1007.331
23.456273079,84.51151,49.59319,27.63437,-1.179823,0.4375975,-0.4101402,23.93814,-25.52778,-14.72513,1007.331
23.488553047,106.2023,66.5583,36.71453,-1.133079,0.5304043,-0.3381643,23.93814,-25.52778,-14.72513,1007.331
23.523315430,76.76481,89.45238,36.10513,-1.075618,0.3592453,-0.3426454,22.56856,-25.10867,-11.71984,1007.331
23.555595398,115.5603,106.0066,27.45155,-1.153215,0.2291136,-0.407032,20.28294,-26.81465,-4.749687,1007.33
23.590357780,121.8197,109.3526,16.17752,-1.066414,0.3827999,-0.2540621,19.80262,-25.96173,4.215635,1007.33
23.622633934,115.6843,110.4093,6.609828,-1.002001,0.3423534,-0.2486296,19.80262,-25.96173,4.215635,1007.328
23.654912949,117.4815,104.4216,1.67363,-1.003068,0.3971574,-0.2120578,20.43724,-26.56757,14.05433,1007.322
23.689676285,112.7095,94.73563,0.2110536,-0.8367071,0.3762189,-0.2483099,21.69629,-29.05307,20.10802,1007.32
23.721955299,111.3461,85.81281,6.914531,-0.8304941,0.3989013,-0.2718827,21.69629,-29.05307,20.10802,1007.32
23.756718159,99.1373,70.72619,18.91985,-0.7236627,0.4015167,-0.3044885,23.17176,-30.48778,23.09318,1007.32
23.788997650,96.84428,62.62521,27.45155,-0.6480971,0.3372879,-0.3291885,21.83105,-31.5435,24.87108,1007.323
23.823756695,86.61862,52.35222,37.68959,-0.5860938,0.2680387,-0.395947,21.83105,-31.5435,24.87108,1007.317
23.856035709,72.79849,44.83826,48.90268,-0.5302711,0.1796617,-0.3898017,19.68902,-30.77364,26.20212,1007.315
23.888315678,69.26599,35.0936,55.30145,-0.505798,0.02849119,-0.465647,16.07191,-29.99908,26.68377,1007.313
23.923078060,69.0181,20.71142,58.10472,-0.4934801,-0.06434922,-0.4545988,16.07191,-29.99908,26.68377,1007.313
23.955358028,69.45191,7.092378,61.82211,-0.4233352,-0.08649957,-0.4814651,13.16837,-29.23815,26.71866,1007.312
23.990120411,63.62639,1.163398,54.0217,-0.4921671,-0.2202648,-0.4830442,10.99802,-27.02229,27.09754,1007.31
24.022396564,44.7864,-9.637913,43.47895,-0.5962586,-0.3749808,-0.4967524,10.99802,-27.02229,27.09754,1007.308
24.057158947,29.66483,-31.59275,32.26587,-0.5945148,-0.4783376,-0.4383644,8.807113,-24.8161,26.72946,1007.308
24.089438915,2.520364,-61.76598,19.16361,-0.5490656,-0.6497006,-0.3500005,8.065605,-22.62666,26.27707,1007.308
24.121717930,31.58601,-94.93304,2.953385,-0.5149871,-0.9266555,-0.2805832,8.065605,-22.62666,26.27707,1007.307
24.156481266,41.93561,-75.91335,-32.33128,-0.3719886,-0.9116874,-0.9832427,7.339389,-22.25416,26.28348,1007.303
24.188760281,47.26535,-58.77214,-13.5006,-0.6673883,-0.1052919,-1.537359,8.050974,-21.17423,25.82288,1007.301
24.223518848,49.74429,-44.91829,-27.57791,-0.9854782,0.7139892,-0.8392479,8.050974,-21.17423,25.82288,1007.3
24.255798817,-108.4125,-19.14776,-20.93537,-1.230746,-0.1020339,-0.3840925,8.413089,-20.8137,25.81275,1007.3
24.288078308,-36.58501,-22.84604,-7.101831,-1.08952,-0.3540958,-0.4854184,8.023696,-19.36292,24.92834,1007.3
24.322841168,4.379573,-24.37231,-3.871974,-0.9860695,-0.06911897,-0.8746394,8.023696,-19.36292,24.92834,1007.296
24.355120659,18.75746,-19.49998,-11.85521,-0.752083,0.04911386,-0.5979445,6.925364,-20.45013,24.52301,1007.296
24.389883041,-13.40687,-17.09317,-15.20694,-0.7620459,-0.1733966,-0.4188656,7.640255,-21.19278,24.08549,1007.295
24.422159195,2.148522,-8.698668,-18.49775,-0.6511719,-0.1124322,-0.6585435,7.640255,-21.19278,24.08549,1007.295
24.456921577,-3.181213,-2.652283,-11.42862,-0.763243,-0.1396564,-0.6004441,8.727924,-20.84023,24.06433,1007.295
24.489201546,-3.181213,0.9872893,-7.589356,-0.8225307,0.0001777484,-0.5560118,8.739909,-20.83459,24.50005,1007.292
24.521480560,-18.9845,2.68967,-1.312464,-0.969732,-0.1774478,-0.7249411,8.739909,-20.83459,24.50005,1007.29
24.556242943,-7.829238,2.396156,-1.434345,-0.9478962,0.005156728,-0.6944602,9.078715,-20.84985,23.62308,1007.29
24.588522911,-12.10542,1.691723,-2.7141,-0.8423758,-0.04100887,-0.6978507,8.729248,-21.56926,24.07356,1007.29
24.623281479,2.45839,-1.889147,-3.689152,-0.7765841,-0.01626571,-0.5919788,9.067392,-21.22,23.19197,1007.29
24.655561447,18.94338,-5.000394,-4.968906,-0.7317839,-0.1140369,-0.4925594,9.067392,-21.22,23.19197,1007.289
24.690323830,24.89285,1.104695,-14.8413,-0.7587029,-0.04362087,-0.6825759,9.805593,-21.58686,23.62128,1007.289
24.722603798,21.7322,5.85962,-22.58077,-0.8631688,-0.1886015,-0.5362097,9.428185,-20.13044,23.17261,1007.289
24.754883289,53.15285,4.920375,-27.02944,-0.8369572,-0.02201141,-0.5227495,9.428185,-20.13044,23.17261,1007.289
24.789646149,26.31825,18.95034,-34.09856,-0.8664908,-0.2577417,-0.6584222,10.55181,-19.76099,24.45863,1007.289
24.821921825,55.44587,18.2459,-35.43926,-0.8507429,-0.1427479,-0.5819024,10.53784,-18.67308,24.00905,1007.289
24.856684208,23.71535,30.57349,-42.56932,-0.8081044,-0.1906466,-0.6151406,10.53784,-18.67308,24.00905,1007.289
24.888963699,52.90495,35.32841,-41.16769,-0.7706141,-0.3331427,-0.7127193,10.19573,-16.83524,24.86294,1007.289
24.923726559,86.06086,46.36454,-29.89366,-0.7263201,-0.3386984,-0.9618173,10.95459,-15.36825,26.14063,1007.29
24.956006050,123.493,60.2771,-19.96032,-0.6240641,-0.2651872,-1.061692,10.95459,-15.36825,26.14063,1007.29
24.988285542,56.80929,88.74795,-21.97136,-0.5602122,-0.4231876,-0.9012589,10.97288,-13.17069,26.92214,1007.292
25.023249626,81.59875,105.7131,34.64255,-0.1524916,-0.006414717,-1.355167,10.62878,-10.23931,27.76218,1007.288
25.055528641,-3.924897,142.5784,61.02988,-0.1972415,0.3602864,-1.207471,10.62878,-10.23931,27.76218,1007.288
25.090291977,-47.9262,171.3428,79.92149,-0.2962448,-0.1197531,-1.263165,9.149734,-8.047527,26.88509,1007.288
25.122570992,-30.82147,173.8083,92.0487,-0.3450425,-0.2599261,-1.030356,8.024624,-6.65435,25.63901,1007.288
25.157334328,-47.98817,178.9741,93.02375,-0.4343877,-0.1815363,-0.6705227,8.024624,-6.65435,25.63901,1007.288
25.189613342,-53.5658,158.4281,93.14563,-0.4972037,-0.1180026,-0.4331411,6.911661,-6.289138,24.77949,1007.288
25.221889019,-82.13566,157.665,84.49205,-0.4876294,-0.09638493,-0.4881509,5.133732,-6.252292,26.11425,1007.284
25.256651878,-114.5479,137.2952,79.12926,-0.6224229,-0.3503522,-0.4897879,5.133732,-6.252292,26.11425,1007.279
25.288931370,-78.41724,107.885,73.70554,-0.6172884,-0.2704707,-0.4840269,3.730728,-7.247399,27.83005,1007.279
25.323694229,-80.02856,88.16092,52.80288,-0.4612114,-0.2978384,-0.6952981,0.8089006,-8.684018,27.08343,1007.279
25.355973721,-20.71976,69.61084,45.49,-0.430748,-0.1145474,-0.7552349,0.8089006,-8.684018,27.08343,1007.279
25.390736580,-51.08685,51.82389,38.11617,-0.4110312,0.1498716,-0.7136485,-0.9933877,-9.388278,27.49372,1007.278
25.423012256,-84.80053,27.05132,23.00288,-0.4008869,0.1503468,-0.7247868,-1.342195,-10.4722,27.94881,1007.276
25.455291271,-70.42264,-4.29596,5.02537,-0.3298689,-0.299729,-1.507769,-1.342195,-10.4722,27.94881,1007.278
25.490053654,273.2213,-28.71632,0.942342,-0.3984933,0.09503428,-0.9126807,-1.738554,-10.84883,26.71401,1007.278
25.522333622,-114.4239,-16.03652,-9.966044,-0.04283395,0.02947513,-3.139572,-1.001404,-11.58101,27.08569,1007.279
25.557096004,-77.42566,29.04722,4.842547,0.04063991,0.0203626,-1.042163,1.531257,-6.930169,27.05009,1007.281
25.589375973,-154.8927,13.43228,-8.198764,-0.04363042,0.02401454,-0.6068657,1.531257,-6.930169,27.05009,1007.279
25.621652126,-132.3963,5.21389,-3.871974,0.04658938,0.1157896,-0.5905848,1.873922,-9.071769,26.20004,1007.279
25.656414509,-86.72171,-11.63381,-7.89406,-0.02278934,0.3076096,-0.9055135,1.480481,-12.00081,24.93531,1007.279
25.688694000,-29.21015,-2.534878,-4.725143,0.003352026,0.4015855,-1.18543,1.480481,-12.00081,24.93531,1007.281
25.723456860,-1.507924,5.096484,1.856453,0.003874303,0.2874457,-0.8805468,1.473788,-14.92257,24.53651,1007.277
25.755735874,-9.750422,-4.178555,-4.786084,-0.02039765,0.3035992,-0.9485676,2.175371,-14.94182,23.65402,1007.278
25.790499210,-16.3816,-7.87683,-5.395491,-0.02604392,0.3823701,-1.118761,2.175371,-14.94182,23.65402,1007.278
25.822774410,0.7231275,-8.346452,-3.689152,-0.01849146,0.3044661,-0.9799902,2.188018,-15.3007,24.09437,1007.28
25.855053902,-7.953186,-8.992183,-4.054796,-0.03428607,0.2713751,-0.8781388,1.813917,-15.66686,23.66877,1007.28
25.889816761,-13.65476,-9.168291,-5.578313,-0.03161928,0.3349163,-0.9797888,1.813917,-15.66686,23.66877,1007.28
25.922096252,-7.581343,-3.767636,-2.7141,-0.02550792,0.3948055,-1.019587,2.539471,-15.67484,23.65774,1007.28
25.956859112,-3.11924,1.163398,0.02823147,-0.02054617,0.3601582,-0.9661329,2.528147,-16.04499,23.22663,1007.282
25.989138603,-1.012135,4.392051,1.064223,-0.02137772,0.3182028,-0.9223767,2.528147,-16.04499,23.22663,1007.282
26.023897171,3.264048,10.67325,3.075267,-0.02624849,0.3165767,-0.9697524,2.890262,-15.68446,23.2165,1007.282
26.056177139,7.850098,10.43844,2.161156,-0.03577634,0.2839121,-0.8901502,3.253701,-16.05296,23.2156,1007.278
26.088456154,12.12628,7.092378,1.61269,-0.03059919,0.3307406,-0.9276034,3.253701,-16.05296,23.2156,1007.28
26.123219490,15.47286,3.922428,0.5157571,-0.009871673,0.3432364,-0.970603,2.528147,-16.04499,23.22663,1007.28
26.155498505,9.151546,1.926534,-2.7141,-0.004517835,0.3345999,-0.9532599,2.550795,-15.30469,24.08885,1007.281
26.190260887,12.18826,0.0480449,-1.129642,-0.02146903,0.3319959,-0.9933636,2.550795,-15.30469,24.08885,1007.281
26.222537041,13.05589,0.282856,0.2719943,-0.02039827,0.2962666,-0.970364,1.825241,-15.29671,24.09988,1007.281
26.257299423,8.345888,1.280803,0.5157571,-0.0251419,0.2746431,-0.9211659,2.18868,-15.66521,24.09898,1007.283
26.289579392,-0.1445038,2.748373,0.3938757,-0.01441937,0.2461921,-0.9005629,2.18868,-15.66521,24.09898,1007.283
26.321858883,-5.846081,3.041886,0.08917217,-0.01259647,0.2853189,-0.923066,1.452463,-16.3919,23.68352,1007.285
26.356621742,-2.995292,2.513561,0.02823147,-0.007381348,0.3093372,-0.9799865,1.100349,-15.65325,24.11553,1007.285
26.388901234,-1.817793,2.27875,0.2110536,-0.001114649,0.3136728,-0.9910945,2.188018,-15.3007,24.09437,1007.285
26.423659801,-3.367134,0.9872893,-0.4592942,0.0003808343,0.3065327,-0.9572975,2.188018,-15.3007,24.09437,1007.286
26.455939293,3.82181,0.1654505,-0.703057,-0.006832687,0.2988576,-0.93122,1.463126,-15.65724,24.11001,1007.288
26.490702152,5.247204,-0.5976857,0.02823147,-0.008729667,0.2809255,-0.9376025,2.188018,-15.3007,24.09437,1007.288
26.522981644,2.086548,-0.245469,0.08917217,-0.01118433,0.2880956,-0.9617283,2.188018,-15.3007,24.09437,1007.288
26.555261135,-2.003714,0.4589643,-0.1545907,-0.0116812,0.289505,-0.9738052,1.825241,-15.29671,24.09988,1007.286
26.590023994,-4.730555,0.7524782,-0.1545907,-0.0131561,0.3016171,-0.9684154,2.187357,-14.93618,24.08975,1007.288
26.622299671,-7.891212,0.8698838,-0.5202349,-0.008789554,0.3016901,-0.9505372,2.187357,-14.93618,24.08975,1007.288
26.657062054,-7.085554,0.7524782,-0.3374128,0.002809988,0.3060983,-0.9447359,1.112334,-15.64761,24.55125,1007.286
26.689342022,-4.172792,0.5176671,-0.1545907,-0.004928929,0.3036238,-0.954402,2.200665,-15.65958,24.53471,1007.285
26.721621036,-1.322003,0.4589643,0.08917217,-0.005891527,0.3007076,-0.9573171,2.200665,-15.65958,24.53471,1007.285
26.756384373,-0.3304247,0.4002616,0.02823147,-0.004454581,0.3070078,-0.9558341,1.439155,-15.66851,23.23856,1007.285
26.788663387,-2.251608,0.2241532,-0.1545907,-0.007830557,0.3041027,-0.9534262,1.814579,-16.03138,23.67339,1007.286
26.823422432,-3.429108,0.1654505,-0.2155313,-0.002042532,0.3099232,-0.9543724,1.814579,-16.03138,23.67339,1007.285
26.855701923,-1.074109,-0.1280634,-0.03270924,-0.005431846,0.3128269,-0.951448,2.176033,-15.30633,23.65864,1007.282
26.890464306,0.5372065,0.0480449,-0.1545907,-0.006869062,0.3079917,-0.9490552,1.463126,-15.65724,24.11001,1007.282
26.922744274,0.8470748,-0.06936066,-0.1545907,-0.003983665,0.3118435,-0.9572579,1.463126,-15.65724,24.11001,1007.282
26.955023766,0.04141723,0.3415588,0.2110536,-0.0116932,0.301672,-0.9534317,1.825902,-15.66123,24.1045,1007.282
26.989786625,-1.198056,0.4002616,0.02823147,-0.004937605,0.3084745,-0.9509903,2.189341,-16.02973,24.1036,1007.284
27.022062302,-2.313582,0.5763699,-0.03270924,-0.004469895,0.3128084,-0.9577349,2.189341,-16.02973,24.1036,1007.286
27.056824684,-2.933319,0.4002616,0.02823147,-0.008333599,0.3118393,-0.9548314,1.825241,-15.29671,24.09988,1007.286
27.089104652,-3.80095,0.5763699,-0.2155313,0.0008428872,0.3186618,-0.9485277,1.813256,-15.30234,23.66415,1007.286
27.123867035,-3.80095,0.3415588,-0.2764721,-0.00447699,0.3176656,-0.9523894,1.813256,-15.30234,23.66415,1007.284
27.156146526,-3.615029,0.0480449,-0.3374128,-0.003512936,0.3191218,-0.9518998,1.099687,-15.28873,24.11091,1007.286
27.188426018,-2.995292,0.0480449,-0.2155313,-0.003031116,0.3220481,-0.9455995,1.088363,-15.65888,23.6798,1007.286
27.223184586,-1.879766,0.282856,-0.1545907,-0.001577442,0.3205988,-0.9460943,1.088363,-15.65888,23.6798,1007.286
27.255464554,-0.5163457,0.1654505,-0.2155313,-0.004002786,0.3239811,-0.9455864,1.45114,-15.66287,23.67428,1007.286
27.290226936,0.04141723,0.0480449,0.02823147,-0.0001310287,0.3220515,-0.947056,1.065054,-16.03467,22.81296,1007.288
27.322506905,0.04141723,-0.06936066,-0.03270924,-0.004485792,0.3210499,-0.953337,1.10101,-16.01777,24.12014,1007.286
27.357269287,-0.3304247,0.1654505,0.1501129,-0.002064151,0.3205843,-0.9499608,1.10101,-16.01777,24.12014,1007.288
27.389549255,-0.3304247,-0.06936066,0.08917217,-0.009815717,0.3273421,-0.9484554,1.814579,-16.03138,23.67339,1007.288
27.421824455,-0.5163457,0.0480449,-0.03270924,-0.002550651,0.3230141,-0.9465619,1.825902,-15.66123,24.1045,1007.288
27.456587314,-0.3923984,0.1654505,0.08917217,-0.005944002,0.3249237,-0.951378,1.825902,-15.66123,24.1045,1007.288
27.488866806,-0.5783194,0.282856,0.02823147,0.0008214551,0.3268804,-0.9508981,1.814579,-16.03138,23.67339,1007.288
27.523629188,-0.6402931,0.4002616,-0.2155313,-0.00207031,0.3225135,-0.9518836,1.813917,-15.66686,23.66877,1007.284
27.555909157,-0.8881877,0.2241532,0.08917217,-0.004977097,0.3273691,-0.9445981,1.813917,-15.66686,23.66877,1007.289
27.590671539,-1.074109,0.1067477,-0.1545907,-0.003515848,0.3220418,-0.9470487,1.45114,-15.66287,23.67428,1007.289
27.622947216,-1.817793,-0.01065787,0.02823147,-0.001110085,0.3254198,-0.9518692,1.451802,-16.02739,23.6789,1007.289
27.655227184,-2.189635,-0.1867662,-0.09364994,-0.005949683,0.3278322,-0.9499112,1.451802,-16.02739,23.6789,1007.285
27.689989567,-2.189635,-0.06936066,-0.3374128,-0.002563593,0.3288245,-0.9455619,2.176694,-15.67085,23.66325,1007.288
27.722269535,-1.507924,0.1654505,-0.3374128,-0.001121632,0.3336794,-0.9421533,1.439155,-15.66851,23.23856,1007.284
27.757031918,-1.26003,0.2241532,-0.2155313,-0.004028628,0.3360907,-0.9421334,1.439155,-15.66851,23.23856,1007.284
27.789311409,-0.6402931,0.1654505,-0.03270924,-0.0001443243,0.3283491,-0.9450864,1.814579,-16.03138,23.67339,1007.285
27.821587086,-0.9501613,-0.06936066,-0.2155313,-0.003062058,0.3346253,-0.9469782,1.826564,-16.02574,24.10911,1007.285
27.856349468,-1.383977,0.2241532,-0.1545907,-0.005473357,0.3312244,-0.9489261,1.826564,-16.02574,24.10911,1007.285
27.888629436,-0.7022667,0.4589643,0.1501129,-0.004513569,0.3336402,-0.9508482,2.166693,-16.77003,23.24137,1007.285
27.923391819,-0.6402931,0.6350726,0.1501129,-0.002582299,0.3365657,-0.9460014,1.439816,-16.03302,23.24317,1007.285
27.955671787,-1.322003,0.6350726,0.332935,0.003709913,0.3341657,-0.9455451,1.439816,-16.03302,23.24317,1007.285
27.990434170,-1.817793,0.4589643,0.1501129,0.001295431,0.3351495,-0.9387661,1.077701,-16.39355,23.25331,1007.281
28.022709847,-2.437529,0.1654505,-0.1545907,0.002744445,0.3346583,-0.9421561,1.803255,-16.40153,23.24228,1007.281
28.054989338,-2.313582,-0.06936066,-0.2764721,-0.0006549407,0.3399636,-0.9445359,1.803255,-16.40153,23.24228,1007.279
28.089752197,-1.569898,-0.4215773,-0.1545907,-0.004047148,0.3413894,-0.9493548,1.090348,-16.75243,23.69365,1007.279
28.122031689,-1.012135,-0.1867662,-0.09364994,-0.007435191,0.3452757,-0.9420738,1.803255,-16.40153,23.24228,1007.281
28.156794071,0.1653645,0.0480449,0.08917217,-0.006943114,0.3433577,-0.9372514,1.803255,-16.40153,23.24228,1007.283
28.189074040,0.8470748,0.0480449,0.02823147,-0.003089877,0.3467268,-0.9459425,1.439816,-16.03302,23.24317,1007.281
28.223832607,1.404838,0.1654505,0.2719943,-0.002100563,0.3385143,-0.9426072,1.802593,-16.03701,23.23766,1007.281
28.256112099,1.032996,0.4589643,0.1501129,-0.002107076,0.3409306,-0.9435602,1.81524,-16.39589,23.678,1007.283
28.288392067,0.04141723,0.1654505,0.1501129,0.006608982,0.3361195,-0.9426396,1.81524,-16.39589,23.678,1007.283
28.323154450,-0.6402931,0.1067477,-0.09364994,0.0007999623,0.3390081,-0.9421272,1.791931,-16.77168,22.81116,1007.283
28.355434418,-0.1445038,-0.01065787,-0.09364994,0.001282136,0.3414472,-0.9367965,1.451802,-16.02739,23.6789,1007.281
28.390196800,-0.02055643,-0.06936066,-0.09364994,-0.0001752236,0.3414152,-0.945012,1.451802,-16.02739,23.6789,1007.283
28.422472000,-0.02055643,-0.245469,-0.2155313,0.0003216178,0.3351189,-0.9469827,2.178017,-16.39988,23.67249,1007.283
28.457235336,-0.02055643,0.0480449,-0.09364994,-0.002100646,0.3375366,-0.9455134,1.440478,-16.39754,23.24779,1007.283
28.489514351,0.3512855,-0.06936066,0.02823147,-0.003072836,0.3380013,-0.9503431,1.440478,-16.39754,23.24779,1007.283
28.521794319,0.2273382,0.1067477,0.2110536,-0.003548995,0.3365646,-0.9455158,1.803255,-16.40153,23.24228,1007.283
28.556556702,-0.02055643,0.2241532,0.08917217,-0.00451309,0.3346196,-0.9474586,2.164709,-15.67648,23.22753,1007.283
28.588836670,-0.2064774,0.5176671,0.08917217,-0.0006434546,0.3356132,-0.9431102,2.164709,-15.67648,23.22753,1007.285
28.623595238,-0.454372,0.4589643,-0.03270924,-0.0006372952,0.333684,-0.9411875,1.077701,-16.39355,23.25331,1007.285
28.655875206,-0.6402931,0.1654505,0.02823147,-0.002588458,0.3384949,-0.947924,1.453125,-16.75642,23.68813,1007.286
28.690637588,-0.5783194,-0.01065787,0.1501129,0.00224598,0.3404591,-0.9435723,1.453125,-16.75642,23.68813,1007.286
28.722917080,-0.454372,0.1654505,0.02823147,0.002245273,0.3414336,-0.941633,1.791269,-16.40716,22.80655,1007.286
28.755196571,-0.0825301,-0.01065787,-0.2155313,-0.005010639,0.3418902,-0.9435486,1.090348,-16.75243,23.69365,1007.286
28.789958954,-0.2684511,-0.245469,-0.1545907,-0.004033997,0.3380232,-0.9430892,1.090348,-16.75243,23.69365,1007.286
28.822234631,-0.02055643,0.0480449,-0.2155313,-0.003540505,0.3341564,-0.9421454,1.452463,-16.3919,23.68352,1007.288
28.856997490,-0.3304247,0.1654505,0.02823147,0.007562215,0.3404629,-0.9469679,1.453125,-16.75642,23.68813,1007.288
28.889276981,-0.8881877,-0.245469,0.08917217,0.001309104,0.3332515,-0.9276578,1.453125,-16.75642,23.68813,1007.288
28.921556950,-0.0825301,-0.6563885,-0.2764721,-0.008385656,0.3409438,-0.9343613,1.452463,-16.3919,23.68352,1007.288
28.956319332,-0.454372,-0.245469,0.2110536,-0.008911718,0.3476077,-0.9667128,1.440478,-16.39754,23.24779,1007.288
28.988598824,-0.826214,0.4002616,0.2719943,0.0003113598,0.3399631,-0.9455048,1.440478,-16.39754,23.24779,1007.288
29.023357868,0.1653645,0.6350726,0.4548164,-0.001097055,0.3298718,-0.9233209,1.440478,-16.39754,23.24779,1007.288
29.055636883,1.032996,0.1654505,0.1501129,-0.005985346,0.3452766,-0.9430438,1.815902,-16.76041,23.68262,1007.288
29.090399265,0.7851012,0.2241532,0.1501129,0.004162038,0.345765,-0.9503145,1.815902,-16.76041,23.68262,1007.286
29.122679234,-1.012135,0.4002616,-0.09364994,0.01286467,0.3457849,-0.9517835,1.439816,-16.03302,23.24317,1007.288
29.154959202,-2.127661,0.0480449,-0.03270924,0.007567128,0.3424379,-0.9353541,1.453125,-16.75642,23.68813,1007.288
29.189721584,-0.3304247,-0.3041718,-0.2155313,0.0008060798,0.3365901,-0.9416575,2.154047,-16.41115,22.80103,1007.29
29.221997738,1.28089,-0.6563885,-0.03270924,-0.005011034,0.3418886,-0.9440321,2.154047,-16.41115,22.80103,1007.29
29.256760120,2.148522,-0.1867662,0.02823147,-0.0006715253,0.3447816,-0.9507931,1.440478,-16.39754,23.24779,1007.288
29.289039135,1.156943,0.2241532,0.08917217,0.0003039724,0.3413985,-0.950331,1.077701,-16.39355,23.25331,1007.286
29.323802471,-0.9501613,0.2241532,0.02823147,-0.002574953,0.3346415,-0.9426282,1.077701,-16.39355,23.25331,1007.286
29.356081486,-2.189635,0.0480449,-0.1545907,-0.003546497,0.3380409,-0.9382558,1.464449,-16.38627,24.11925,1007.288
29.388361454,-2.561477,-0.01065787,0.08917217,-0.001151554,0.3443061,-0.9478941,1.815902,-16.76041,23.68262,1007.288
29.423120022,-2.189635,0.3415588,0.08917217,-0.0001866259,0.3467433,-0.9435313,1.815902,-16.76041,23.68262,1007.286
29.455399513,-1.631872,0.282856,0.08917217,0.002247064,0.3438843,-0.9324338,1.803916,-16.76604,23.24689,1007.29
29.490162372,-0.454372,-0.1867662,-0.1545907,0.0007980082,0.3438867,-0.9304969,1.815902,-16.76041,23.68262,1007.29
29.522441864,0.6611539,-0.3041718,-0.2155313,0.000791556,0.342394,-0.9425914,1.815902,-16.76041,23.68262,1007.286
29.557204723,1.466812,-0.4215773,-0.2155313,0.001732303,0.3486403,-0.9565777,1.077701,-16.39355,23.25331,1007.284
29.589484215,1.156943,-0.06936066,-0.1545907,-0.004042361,0.3418979,-0.9421003,1.803255,-16.40153,23.24228,1007.284
29.621759415,0.8470748,-0.06936066,0.02823147,-0.005488421,0.339958,-0.9421082,1.803255,-16.40153,23.24228,1007.286
29.656522274,0.5991802,0.282856,0.1501129,-0.006460611,0.3404228,-0.9469379,1.803916,-16.76604,23.24689,1007.286
29.688801765,0.1033909,0.5763699,0.1501129,0.0007909513,0.3399481,-0.9503403,1.827887,-16.75477,24.11835,1007.287
29.723564625,-0.7022667,0.811181,0.1501129,-0.0001870631,0.3462528,-0.945468,1.827887,-16.75477,24.11835,1007.287
29.755844116,-1.569898,0.4002616,0.1501129,0.003684112,0.3467642,-0.940639,1.803255,-16.40153,23.24228,1007.287
29.790606499,-1.631872,0.3415588,0.08917217,-0.00113784,0.3428969,-0.9353327,1.803255,-16.40153,23.24228,1007.287
29.822882652,-1.445951,0.3415588,0.1501129,0.0003112155,0.3428945,-0.9372696,1.803255,-16.40153,23.24228,1007.287
29.855161667,-1.507924,0.1067477,-0.03270924,0.004164848,0.3462653,-0.9454773,1.077701,-16.39355,23.25331,1007.287
29.889925003,-2.437529,0.1067477,-0.2155313,0.0007797583,0.3477205,-0.9415942,1.451802,-16.02739,23.6789,1007.289
29.922204018,-2.251608,-0.4215773,-0.4592942,-0.002137849,0.3554632,-0.9391267,1.451802,-16.02739,23.6789,1007.285
29.956966400,0.04141723,-0.3041718,-0.2764721,-0.0006713161,0.3472258,-0.9435276,1.803255,-16.40153,23.24228,1007.287
29.989246368,1.590759,-0.1867662,0.2110536,0.001268714,0.3462783,-0.9391863,2.166032,-16.40551,23.23676,1007.287
30.021522045,1.528785,-0.1867662,0.2110536,0.00225447,0.338051,-0.9402021,2.166032,-16.40551,23.23676,1007.287
30.056284904,-0.5163457,-0.1867662,-0.09364994,-0.008428334,0.3549384,-0.9458843,1.441801,-17.12657,23.25702,1007.289
30.088564396,-1.26003,-0.1867662,-0.2155313,0.002237825,0.3467781,-0.9353179,1.827887,-16.75477,24.11835,1007.289
30.123327255,-1.136082,-0.4215773,-0.2155313,-0.005505377,0.3496611,-0.9348015,1.816563,-17.12492,23.68723,1007.289
30.155606270,1.590759,-0.3628745,-0.09364994,-0.001155569,0.3481989,-0.9415873,1.816563,-17.12492,23.68723,1007.289
30.190369606,1.528785,0.2241532,-0.09364994,-0.003087877,0.3516218,-0.9294777,1.803916,-16.76604,23.24689,1007.289
30.222644806,0.7851012,-0.06936066,-0.1545907,-0.002611407,0.3520825,-0.9367276,1.0677,-17.49273,22.83143,1007.289
30.254924297,0.4132592,0.1067477,0.08917217,0.005128195,0.3486959,-0.9430482,1.0677,-17.49273,22.83143,1007.289
30.289687157,1.156943,-0.1867662,-0.09364994,0.0003165003,0.3399844,-0.93922,1.803255,-16.40153,23.24228,1007.285
30.321966648,0.6611539,-0.5389829,-0.1545907,-0.0006667802,0.3448013,-0.9449917,1.440478,-16.39754,23.24779,1007.286
30.356729508,-0.1445038,-0.06936066,-0.09364994,-0.001142897,0.3438534,-0.9387114,1.440478,-16.39754,23.24779,1007.286
30.389008999,-0.8881877,0.1654505,-0.1545907,-0.002123846,0.3481912,-0.9430355,1.453125,-16.75642,23.68813,1007.286
30.423767567,-0.7642404,0.1067477,0.02823147,-0.006472157,0.3486823,-0.9372221,1.078363,-16.75806,23.25792,1007.286
30.456046581,-0.5783194,-0.01065787,0.02823147,-0.002594762,0.3433555,-0.9416117,1.078363,-16.75806,23.25792,1007.288
30.488326549,-0.1445038,0.1067477,-0.03270924,0.002720412,0.3448208,-0.9420983,1.077701,-16.39355,23.25331,1007.286
30.523088932,0.2893119,-0.01065787,0.08917217,0.0003127554,0.3424122,-0.936789,1.81524,-16.39589,23.678,1007.286
30.555368900,0.1033909,-0.06936066,-0.09364994,0.0007824844,0.3472431,-0.9396631,1.81524,-16.39589,23.678,1007.286
30.590131283,-0.2064774,-0.01065787,0.02823147,-0.00163256,0.34627,-0.9391801,1.44114,-16.76205,23.25241,1007.286
30.622407436,0.2893119,0.1067477,-0.09364994,0.002223882,0.350141,-0.9425504,1.078363,-16.75806,23.25792,1007.288
30.657169819,0.1653645,-0.01065787,-0.09364994,0.000777074,0.3486867,-0.9420721,1.078363,-16.75806,23.25792,1007.288
30.689449787,0.2273382,0.1067477,0.08917217,0.002245626,0.3409463,-0.9426028,1.440478,-16.39754,23.24779,1007.288
30.721728802,0.1033909,-0.06936066,0.02823147,-0.003570697,0.3462481,-0.9440104,1.803255,-16.40153,23.24228,1007.288
30.756491184,0.04141723,0.1654505,-0.03270924,-0.002602856,0.3457653,-0.9444987,1.803255,-16.40153,23.24228,1007.29
30.788771152,-0.0825301,0.1067477,-0.09364994,0.0007754086,0.3477024,-0.9469121,1.428493,-16.40317,22.81207,1007.286
30.823529720,-0.3923984,0.0480449,0.02823147,-0.0001947623,0.3486643,-0.9478714,1.815902,-16.76041,23.68262,1007.286
30.855809689,-0.454372,0.0480449,0.02823147,0.0003081777,0.344348,-0.9367779,1.815902,-16.76041,23.68262,1007.286
30.890572071,0.04141723,-0.01065787,-0.09364994,-0.0001908081,0.3486807,-0.9430369,1.406234,-16.41364,22.00286,1007.286
30.922852039,0.04141723,-0.06936066,0.08917217,-0.000672293,0.3496651,-0.9377125,1.065716,-16.39919,22.81758,1007.286
30.955131054,0.2273382,-0.1280634,-0.09364994,-0.005023269,0.3467246,-0.9449714,1.065716,-16.39919,22.81758,1007.287
30.989894390,-0.2064774,0.0480449,-0.1545907,-0.003091561,0.3501405,-0.938188,1.079024,-17.12258,23.26254,1007.287
31.022169113,-0.02055643,0.2241532,0.02823147,-0.002109634,0.3433634,-0.9396789,1.452463,-16.3919,23.68352,1007.283
31.056931973,-0.2064774,-0.01065787,0.02823147,0.0007808608,0.3467477,-0.94305,1.803255,-16.40153,23.24228,1007.283
31.089211464,-0.0825301,0.0480449,0.02823147,-0.001147163,0.344813,-0.9411231,1.803255,-16.40153,23.24228,1007.289
31.121491432,-0.5163457,-0.5389829,-0.2764721,0.0003010413,0.3487164,-0.9328856,1.815902,-16.76041,23.68262,1007.291
31.156253815,1.032996,-0.4802801,-0.1545907,0.0007332703,0.3587673,-0.9661866,2.166032,-16.40551,23.23676,1007.285
31.188533306,-0.02055643,-0.3041718,-0.3374128,0.0003267394,0.3395382,-0.9281034,2.166032,-16.40551,23.23676,1007.285
31.223292351,-3.553055,-1.889147,-0.8249384,0.0002905512,0.3462296,-0.9527207,1.428493,-16.40317,22.81207,1007.285
31.255571365,3.883784,-2.065255,-0.03270924,-0.006513045,0.3651277,-0.9395457,1.790608,-16.04264,22.80193,1007.287
31.290334702,24.33509,-1.184713,0.5766978,-0.0006842582,0.3530363,-0.9425277,1.790608,-16.04264,22.80193,1007.287
31.322613716,29.91272,-1.654336,0.5766978,-0.004966672,0.3244802,-0.9402636,1.815902,-16.76041,23.68262,1007.287
31.354893684,12.49812,-2.006552,-0.09364994,-0.01314275,0.305093,-0.9422899,1.813917,-15.66686,23.66877,1007.287
31.389656067,3.078127,-0.773794,1.307986,-0.01323669,0.325228,-0.9982542,1.813917,-15.66686,23.66877,1007.285
31.421932220,-2.375556,-0.5389829,1.551749,-0.01268202,0.3064659,-0.9659716,1.464449,-16.38627,24.11925,1007.285
31.456694603,-12.16739,0.9285865,2.892445,-0.006422077,0.3195696,-0.9601094,1.825902,-15.66123,24.1045,1007.285
31.488973617,-25.86357,3.3354,5.330073,-0.01120866,0.3041209,-0.9452003,1.825902,-15.66123,24.1045,1007.281
31.523847580,-88.64289,6.974973,8.681812,-0.07128195,0.3435497,-0.9690186,2.176694,-15.67085,23.66325,1007.279
31.556127548,-185.8176,12.14082,-6.736187,-0.02588238,0.3854826,-0.9142494,2.164709,-15.67648,23.22753,1007.279
31.588406563,-215.6889,21.76807,-19.16809,0.03205042,0.4018793,-0.9800287,2.164709,-15.67648,23.22753,1007.279
31.623165131,-72.09592,-0.5389829,-31.17341,-0.1168726,0.2441395,-1.420051,1.336307,-17.54099,19.40234,1007.279
31.655445099,104.0332,-23.25696,-33.67198,-0.1088151,0.1673031,-1.252268,0.9119298,-22.30871,16.91575,1007.281
31.690207481,311.9549,-52.08002,-53.35583,-0.1218006,0.1250428,-1.288255,0.9119298,-22.30871,16.91575,1007.281
31.722487450,123.6789,-15.03857,-53.78241,-0.1542038,0.5055531,-0.788563,1.659081,-21.94171,17.70931,1007.282
31.757249832,91.20467,2.161345,-63.95951,-0.266342,-0.04522009,-1.142913,2.075169,-18.27237,19.83627,1007.282
31.789529800,79.86349,-1.243416,-77.30553,-0.3543708,-0.005986821,-1.057898,2.075169,-18.27237,19.83627,1007.277
31.821804523,78.50007,-13.92322,-86.02004,-0.4018055,0.06991439,-0.8968629,2.808739,-16.08761,20.23327,1007.277
31.856567383,23.8393,-21.31977,-94.61269,-0.3999452,0.1355844,-0.797872,2.746828,-15.02224,18.04079,1007.277
31.888846874,23.71535,-39.34152,-94.36892,-0.5304341,0.141359,-0.6970026,2.746828,-15.02224,18.04079,1007.277
31.923609734,14.72918,-63.29225,-98.26913,-0.4816575,0.1837577,-0.6504566,2.350469,-15.39886,16.80599,1007.277
31.955889225,-11.11384,-71.27583,-93.08916,-0.4175129,0.2472657,-0.6710216,3.018081,-16.52856,14.63017,1007.277
31.990652084,-43.83593,-83.3099,-56.1591,-0.2276576,0.4967339,-0.7584816,3.689389,-18.751,12.53045,1007.277
32.022927761,-66.14645,-62.88133,-47.3227,-0.1578928,0.7319561,-1.092801,3.689389,-18.751,12.53045,1007.275
32.055206776,-58.70961,-31.94497,-40.55828,-0.231667,0.409644,-1.179076,4.712423,-22.44193,9.945698,1007.277
32.089970112,-46.56277,-27.07264,-53.173,-0.2988456,-0.1097206,-0.8705502,4.672809,-26.10882,8.311196,1007.277
32.122249126,0.1033909,-43.97904,-48.96809,-0.3218871,-0.06461921,-0.5366713,4.672809,-26.10882,8.311196,1007.277
32.157011986,-12.91108,-47.2664,-51.64949,-0.3790112,0.2056214,-0.4257545,5.052201,-28.65878,8.77372,1007.277
32.189291477,-22.45502,-64.05539,-54.94028,-0.3998037,0.2050731,-0.4271632,6.156097,-31.58205,9.16758,1007.277
32.221567631,-37.88646,-70.04307,-56.4638,-0.501543,0.3456904,-0.2583911,6.156097,-31.58205,9.16758,1007.276
32.256330013,2.644311,-94.34602,-62.00941,-0.6215478,0.3396182,-0.3780598,7.248948,-34.08487,9.182575,1007.276
32.288609028,-33.11449,-102.5644,-58.35296,-0.6056069,0.5379497,-0.4141912,9.069448,-37.74997,9.201157,1007.276
32.323372364,-68.8733,-117.5336,-49.88221,-0.7492217,0.5355772,-0.4216302,9.069448,-37.74997,9.201157,1007.276
32.355651379,-64.72106,-146.2393,-36.71901,-0.8859136,0.609067,-0.6113926,10.16572,-42.13613,9.24,1007.276
32.390413761,-242.8334,-108.6695,-28.67484,-0.7459049,0.7654216,-0.4299993,10.56106,-46.86755,10.16594,1007.28
32.422689915,-502.379,-79.90514,-45.982,-1.130056,1.987312,-0.1089555,10.56106,-46.86755,10.16594,1007.283
32.454968929,-420.3879,-132.6789,-108.8119,-1.097665,1.111822,-0.873002,10.50211,-53.09732,7.692301,1007.283
32.489732265,-26.11147,-72.27377,-99.18324,-0.8272246,0.7012673,-1.300378,7.28229,-59.35598,-4.137239,1007.288
32.522011280,-35.71738,-75.85464,-43.78814,-0.9396267,0.5354496,-0.8698516,7.28229,-59.35598,-4.137239,1007.293
32.556774616,95.72874,-10.22494,6.305124,-0.960886,0.5149809,-0.3226697,4.314116,-62.63852,-6.665933,1007.29
32.589053631,111.656,-17.09317,35.3129,-0.9138755,0.4857477,-0.2779774,4.62471,-59.3836,-8.393652,1007.29
32.623812199,87.05244,38.43966,38.6037,-0.9504192,0.389738,-0.3040668,4.62471,-59.3836,-8.393652,1007.29
32.656092167,82.83823,41.55091,20.99183,-0.9108641,0.429038,-0.3073126,7.544392,-55.81983,-7.611712,1007.29
32.688371658,-0.0825301,37.73523,8.49899,-1.112122,0.3000511,-0.2147921,10.85561,-55.83399,-5.980691,1007.286
32.723134518,57.491,14.07801,0.02823147,-1.185817,0.4075122,-0.1434402,10.85561,-55.83399,-5.980691,1007.288
32.755413532,39.02285,1.750425,9.900626,-1.051032,0.443056,-0.1933228,14.83483,-56.24802,-6.472472,1007.289
32.790176868,46.2118,-7.289802,14.59306,-1.061265,0.1813134,-0.4529452,17.08528,-57.27094,-3.878126,1007.289
32.822451591,49.86824,20.94623,9.900626,-1.126322,0.2963473,-0.4390981,17.08528,-57.27094,-3.878126,1007.288
32.857214451,72.11678,1.809128,16.23846,-0.9658305,0.2541018,-0.6175897,16.04478,-59.06062,-2.220086,1007.289
32.889493942,103.8473,23.58786,27.0859,-0.8865569,0.3069892,-0.5004676,13.27599,-60.79012,2.577866,1007.289
32.921773434,84.57349,-4.29596,42.1992,-0.7386149,0.3302846,-0.4629458,13.27599,-60.79012,2.577866,1007.289
32.956536293,77.69441,-4.70688,49.45115,-0.6991703,0.2269702,-0.4239762,9.468807,-63.57866,9.149118,1007.289
32.988815784,63.56442,-4.237258,48.53703,-0.7664338,0.3003574,-0.2740314,5.645278,-64.91557,15.20394,1007.289
33.023574352,38.27917,-15.56689,54.14358,-0.7148077,0.1314916,-0.3108773,1.05195,-67.35979,19.60297,1007.289
33.055853844,24.39707,-9.461804,41.77261,-0.7362182,0.1919579,-0.2998517,1.05195,-67.35979,19.60297,1007.287
33.090616703,-18.79858,-6.761477,31.29081,-0.760646,0.2617079,-0.4028584,-3.890583,-69.4579,22.32132,1007.285
33.122896194,-27.04107,-14.27543,29.40165,-0.730763,0.2990201,-0.4133463,-6.066583,-69.79849,22.35903,1007.287
33.155175686,-30.20173,-24.95934,36.10513,-0.765674,0.3312651,-0.4362928,-6.066583,-69.79849,22.35903,1007.287
33.189938545,-16.6295,-23.60918,38.84746,-0.8508822,0.356001,-0.490597,-8.277877,-70.52049,21.09418,1007.287
33.222213745,4.255626,-18.14982,32.75339,-0.8722472,0.3975973,-0.4787119,-9.400179,-71.61898,19.81739,1007.287
33.256976128,16.21654,-3.0045,21.72312,-0.8902681,0.479105,-0.4018264,-9.400179,-71.61898,19.81739,1007.289
33.289256096,13.92352,-1.713038,12.64296,-0.8717408,0.3908516,-0.4705329,-9.750309,-71.97387,20.26325,1007.289
33.324018478,24.64496,1.104695,7.036413,-0.8384603,0.4472841,-0.4108208,-10.12507,-71.97552,19.83304,1007.289
33.356298447,16.03062,-3.885041,7.523939,-0.7392065,0.4016697,-0.3890559,-10.12507,-71.97552,19.83304,1007.289
33.388577938,-1.631872,-4.824286,19.52925,-0.7813213,0.4380079,-0.3404147,-10.45189,-71.95462,21.14573,1007.285
33.423336029,-29.39607,-5.76353,34.33785,-0.7572731,0.5049787,-0.3047947,-10.80467,-70.85146,21.57313,1007.285
33.455615997,-48.60791,-8.405154,45.67282,-0.6201458,0.3579903,-0.3842431,-10.80467,-70.85146,21.57313,1007.286
33.490378380,-38.13436,-13.571,44.75871,-0.727322,0.524492,-0.2839604,-11.21473,-71.23452,19.84035,1007.286
33.522658348,-56.16869,-14.62765,47.98857,-0.7186305,0.5278864,-0.2892777,-13.44828,-71.96699,17.76629,1007.288
33.554937363,-134.5654,1.104695,1.247046,-0.7112011,0.6966923,-0.177143,-13.44828,-71.96699,17.76629,1007.29
33.589700699,-339.6982,-1.067308,-49.39468,-0.6788402,0.3639435,-0.005550208,-14.62879,-73.09284,14.37312,1007.29
33.621975899,-287.7023,117.6884,-90.77342,-0.4056085,-0.1374161,-0.2415238,-12.85185,-74.76399,-0.2694867,1007.292
33.656738281,32.3297,-18.14982,-86.93416,-1.041812,-0.02531838,-0.3255673,-12.85185,-74.76399,-0.2694867,1007.293
33.689018249,27.99154,-4.530772,-103.7538,-0.9509721,0.3025136,-0.05268998,-4.23394,-72.52219,-16.68607,1007.293
33.723780632,86.18481,-21.02625,-88.03109,-1.115705,0.6216957,-0.1172346,5.815565,-59.5219,-17.87721,1007.291
33.756060600,-72.65369,-35.81936,-95.89244,-1.124756,0.7981107,-0.0306434,5.815565,-59.5219,-17.87721,1007.293
33.788339615,-55.61093,-7.818127,-98.69571,-1.156257,0.3448258,-0.2453824,13.41811,-50.91803,-18.10305,1007.294
33.823098183,-26.35936,-21.20236,-84.43559,-1.055712,0.1583549,-0.2350569,17.29192,-45.17956,-22.09687,1007.294
33.855378151,-27.97068,-23.31566,-66.76278,-1.051335,0.1789921,-0.1464797,17.29192,-45.17956,-22.09687,1007.294
33.890140533,-2.871345,-14.39284,-50.73537,-0.9777909,0.1505587,-0.1738724,19.76217,-40.13243,-24.37873,1007.294
33.922420502,-12.8491,-19.03036,-42.26462,-0.8952223,0.2402229,-0.05993247,21.85016,-36.88552,-25.26166,1007.293
33.957182884,-10.742,-21.55458,-35.1955,-0.9151312,0.2886868,-0.02190577,21.84486,-33.9694,-25.29858,1007.289
33.989462852,-20.53384,-33.52995,-32.94069,-0.9028337,0.4464025,0.09789041,21.84486,-33.9694,-25.29858,1007.29
34.021738052,-44.20778,-38.34357,-32.02658,-0.8688067,0.3563477,0.0557293,22.56645,-31.79028,-25.33731,1007.29
34.056500435,-43.2162,-43.74423,-30.07648,-0.8792987,0.3070778,0.09124623,23.59166,-30.06859,-27.5548,1007.292
34.088780403,-42.10067,-44.80088,-26.35909,-0.9280544,0.2945738,0.1555776,23.59166,-30.06859,-27.5548,1007.295
34.123542786,-48.8558,-25.31156,-19.71656,-0.9295768,0.3064894,0.1029538,24.64006,-27.91037,-28.90622,1007.297
34.155822754,-44.45567,-10.51845,-16.66952,-0.9404085,0.1547046,0.01847919,24.19246,-26.48695,-31.90701,1007.295
34.190585136,-30.94541,-16.38873,-10.9411,-1.029267,0.1402616,0.1157598,24.19246,-26.48695,-31.90701,1007.295
34.222860336,-28.52844,-15.44949,-6.492424,-0.9184793,0.09585198,0.05483864,25.96575,-23.97219,-33.27408,1007.297
34.255140305,-3.677002,-2.006552,-0.3983535,-0.991662,0.1135198,-0.0962195,26.24436,-22.92126,-36.28128,1007.3
34.289902687,-16.56752,0.5763699,-2.287515,-1.052553,0.1315737,-0.0007481845,26.24436,-22.92126,-36.28128,1007.302
34.322182655,-18.11687,2.161345,-0.3374128,-1.032874,0.1740293,-0.05566121,27.70547,-21.83804,-35.88147,1007.302
34.356945038,-50.96291,-12.27954,9.169337,-1.106704,0.07480552,0.4297896,28.42904,-20.75247,-35.90635,1007.302
34.389224053,-31.93699,-36.7586,32.44869,-3.465948,0.4222455,1.421615,28.42904,-20.75247,-35.90635,1007.303
34.423983097,99.1373,-65.40555,-8.137823,0.3375115,-0.1009202,0.3323742,30.59107,-19.32397,-36.39363,1007.302
34.456262588,-37.3287,-11.69251,7.523939,-0.9718794,0.142278,0.5198024,29.46413,-17.87085,-37.70272,1007.303
34.488542080,-27.72278,-3.767636,3.806555,-1.184592,-0.1141971,-0.1565614,29.46413,-17.87085,-37.70272,1007.303
34.523304939,15.90667,-7.583316,-5.639254,-0.9578468,0.268388,0.3077761,29.09136,-18.96604,-38.11909,1007.305
34.555583954,-13.59279,-3.591527,-6.614305,-1.010153,0.05634617,0.1843731,28.37448,-17.12985,-37.69541,1007.305
34.590347290,-4.792529,-0.8911996,-4.42044,-0.9670477,0.02841609,0.1884724,28.37448,-17.12985,-37.69541,1007.306
34.622622490,-4.420687,4.157239,-3.50633,-0.9922915,0.06653687,0.1776245,28.73792,-17.49835,-37.69631,1007.308
34.654901981,-2.995292,7.503298,-0.7639977,-0.9661381,0.04968223,0.1798894,28.71632,-17.87333,-38.5009,1007.31
34.689664841,-1.383977,10.84936,1.67363,-0.9898263,0.03057911,0.1319715,28.71632,-17.87333,-38.5009,1007.31
34.721943855,-9.130685,12.66914,4.294081,-0.9821432,0.06507482,0.1659917,28.37448,-17.12985,-37.69541,1007.31
34.756707191,5.928915,14.31282,5.573836,-0.9937093,0.02513181,0.09859158,29.08976,-17.14265,-38.07992,1007.31
34.788986206,9.957203,16.89574,9.656863,-0.9845102,0.03302542,0.135358,29.08976,-17.14265,-38.07992,1007.306
34.823744774,10.14312,17.01315,13.37425,-0.9898194,0.02767554,0.1319549,29.46215,-16.7773,-37.71657,1007.307
34.856024265,6.176809,19.53737,17.57915,-1.017933,0.04001697,0.08470871,30.21366,-17.86755,-36.8423,1007.307
34.888303757,15.22496,19.88958,18.5542,-0.9938499,0.0866104,0.1047427,30.21366,-17.86755,-36.8423,1007.307
34.923066616,3.264048,18.1285,19.8949,-1.009413,0.1282184,0.115165,29.87618,-18.58133,-35.9561,1007.307
34.955346107,-5.970028,8.501245,17.39633,-1.014391,0.1652427,0.0491552,30.94119,-18.96908,-36.83949,1007.307
34.990108490,-55.54895,-10.10754,11.54603,-1.08688,0.1476204,0.05114498,30.60306,-19.31833,-35.9579,1007.309
35.022384167,-40.36541,-13.39489,9.839685,-0.9168881,0.2180703,-0.009734096,30.60306,-19.31833,-35.9579,1007.309
35.057147026,-36.52304,-11.28159,4.842547,-0.9946679,0.188333,-0.00828523,30.21697,-19.69013,-36.81922,1007.309
35.089426518,-34.16804,-10.10754,-0.2764721,-0.9916945,0.2145399,0.1542928,29.84022,-18.59823,-37.26328,1007.309
35.121706009,-35.2216,-11.80992,2.283038,-0.9822174,0.08040491,0.1201524,29.84022,-18.59823,-37.26328,1007.303
35.156468391,-1.94174,-11.28159,0.8204606,-0.9634367,0.1250949,0.1542067,29.08937,-17.87249,-38.13294,1007.301
35.188748360,-1.817793,-9.814021,-0.2155313,-1.007544,0.1636277,0.138084,29.07645,-16.41926,-38.52488,1007.3
35.223506451,-24.25226,-1.184713,1.429868,-0.9842373,0.1274453,0.1513643,29.07645,-16.41926,-38.52488,1007.301
35.255786419,-16.19568,-0.245469,3.501852,-1.000632,0.1046225,0.1420845,28.71368,-16.41527,-38.51936,1007.301
35.290548801,-10.742,-2.476175,0.2719943,-0.9958596,0.1336933,0.1485242,27.97481,-15.6839,-38.95329,1007.298
35.322828293,-14.33647,-0.5389829,-1.495286,-1.009481,0.1660533,0.141486,27.97481,-15.6839,-38.95329,1007.3
35.355108261,-26.91713,-1.830444,-3.750092,-1.019132,0.1592686,0.1467861,27.96283,-15.68953,-39.38902,1007.301
35.389870644,-13.53081,-7.642018,-5.761135,-0.97905,0.1708945,0.1163091,28.3123,-14.97012,-39.8395,1007.297
35.422146320,-0.02055643,-10.45975,-8.320645,-0.933653,0.2201469,0.1890071,28.3123,-14.97012,-39.8395,1007.297
35.456908703,-3.429108,-14.09932,-8.503467,-0.9924596,0.1210603,0.1305579,28.31097,-14.24109,-39.84873,1007.299
35.489188194,-1.322003,-14.92116,-10.51451,-1.029057,0.06880724,0.1646638,27.9229,-13.51934,-40.7239,1007.301
35.523950577,2.582337,-18.73685,-11.06298,-1.024366,0.126863,0.1562819,27.9229,-13.51934,-40.7239,1007.298
35.556230545,-4.544634,-22.61123,-12.8912,-1.042319,0.1485461,0.1438744,26.85921,-13.86062,-39.83128,1007.3
35.588510036,-17.18726,-30.71221,-15.146,-1.073175,0.1082751,0.1388776,26.84524,-12.77271,-40.28085,1007.3
35.623268604,-9.812395,-38.34357,-18.19304,-1.108008,0.1203197,0.1525574,26.84524,-12.77271,-40.28085,1007.302
35.655548096,-16.25766,-47.3251,-22.21513,-1.190224,0.1234525,0.1469512,24.9954,-12.76967,-41.56046,1007.305
35.690310955,-25.61568,-60.94414,-27.21227,-1.201757,0.1012389,0.1705382,24.24323,-11.3149,-42.43934,1007.305
35.722590446,-43.77396,-72.44988,-36.71901,-1.274896,-0.09245843,0.05163544,24.24323,-11.3149,-42.43934,1007.306
35.754869461,-17.06331,-94.16991,-46.10388,-1.383033,0.03252819,0.04000976,22.40576,-10.57639,-43.23021,1007.306
35.789632797,-46.56277,-110.0197,-55.36687,-1.429738,-0.1084972,-0.1236103,19.54805,-8.363684,-43.65042,1007.306
