Time (s),Gyroscope X (deg/s),Gyroscope Y (deg/s),Gyroscope Z (deg/s),Accelerometer X (g),Accelerometer Y (g),Accelerometer Z (g),Magnetometer X (uT),Magnetometer Y (uT),Magnetometer Z (uT),Barometer (hPa)
0.025349617,0.2518927,0.3065291,0.190126,-0.3380596,-0.9128797,-0.2164774,15.60679,32.58537,29.52549,1007.125
0.059998035,-0.4850674,0.1277399,0.1274665,-0.3361018,-0.9114334,-0.2164837,14.85591,31.45839,29.98122,1007.125
0.092171192,-0.5444816,0.3041433,0.06591013,-0.3395418,-0.9133725,-0.2183956,14.85591,31.45839,29.98122,1007.125
0.126819134,-0.4806039,0.06662547,0.4329195,-0.3351664,-0.9134095,-0.2203647,15.60158,32.19936,29.14482,1007.123
0.158992291,0.380147,0.007317342,0.3696369,-0.3361218,-0.9172543,-0.2160495,15.22833,31.82847,29.53115,1007.127
0.193640232,-0.4190371,0.3025416,0.3065742,-0.3395416,-0.9172408,-0.2164995,15.22833,31.82847,29.53115,1007.127
0.225813389,-1.15326,0.4784549,0.06107971,-0.3351542,-0.9133984,-0.2189187,15.22859,32.20961,29.52929,1007.127
0.260461807,-0.4737163,0.2994311,0.4278993,-0.3371226,-0.9066336,-0.2241466,15.22281,32.20392,29.083,1007.127
0.292634964,-0.4717851,0.2391556,0.6096889,-0.3366486,-0.9129351,-0.222757,15.22281,32.20392,29.083,1007.127
0.327282906,-0.2864057,0.1793664,0.48515,-0.3347028,-0.913434,-0.2232612,15.22255,31.82279,29.08487,1007.127
0.359456062,-0.407887,0.1790249,0.2386204,-0.3429494,-0.9114137,-0.2183476,15.22859,32.20961,29.52929,1007.127
0.394104004,0.08370842,0.2966644,0.3603198,-0.3370998,-0.9167677,-0.2165184,15.22916,31.82928,29.5949,1007.127
0.426277161,-0.04032188,0.5314524,0.236527,-0.3415097,-0.9162787,-0.2188832,15.22916,31.82928,29.5949,1007.127
0.460925102,-0.4692517,0.4108983,0.4801947,-0.3361258,-0.9191923,-0.2155834,15.22364,32.20473,29.14676,1007.127
0.493098259,-0.1600522,0.1727061,0.5393127,-0.3385924,-0.9119508,-0.2222487,15.22833,31.82847,29.53115,1007.131
0.527747154,-0.0983623,0.1124106,0.536465,-0.3414815,-0.9104503,-0.2183534,15.22833,31.82847,29.53115,1007.133
0.559920311,-0.1587944,0.2295801,0.7175817,-0.3400319,-0.9109542,-0.2198171,14.84436,31.44702,29.08866,1007.131
0.592093468,-0.4035988,0.2286444,0.6536387,-0.3425163,-0.9109824,-0.2250961,14.85725,32.22147,30.04126,1007.131
0.626741409,-0.5252849,0.3461779,0.5285033,-0.3439435,-0.9138432,-0.2193224,14.85725,32.22147,30.04126,1007.131
0.658914566,0.02944041,0.0490089,0.6490572,-0.3366526,-0.914873,-0.2222909,15.23411,31.83416,29.97743,1007.131
0.693562508,0.02961927,0.3440506,0.6463427,-0.3419898,-0.9124005,-0.2198107,15.22338,31.8236,29.14862,1007.131
0.725735664,-0.09243704,0.1653528,0.7659743,-0.3434417,-0.9065795,-0.2211952,15.22338,31.8236,29.14862,1007.129
0.760384083,-0.3367703,0.1054421,0.7622854,-0.3405299,-0.9133787,-0.2198324,15.21678,31.8171,28.63858,1007.131
0.792557239,-0.3355711,0.2232153,0.7594474,-0.3405544,-0.9104995,-0.2241464,15.60627,31.8231,29.52921,1007.131
0.827205181,-0.3343676,0.1630879,0.5733292,-0.3444499,-0.9095053,-0.2236199,15.60627,31.8231,29.52921,1007.131
0.859378338,0.09679583,-0.07411288,0.5094743,-0.3444435,-0.9157859,-0.2198157,15.61231,32.20992,29.97363,1007.129
0.894026279,-0.5789005,0.2214135,0.3851831,-0.3429212,-0.9075195,-0.2168698,15.97952,32.19399,29.14289,1007.127
0.926199436,-0.7601957,0.1025495,-0.1057028,-0.3424516,-0.9051208,-0.2202284,15.97952,32.19399,29.14289,1007.129
0.960847378,-0.08241574,-0.2522681,0.01675852,-0.3454362,-0.9070919,-0.2260008,15.61783,31.83447,30.42178,1007.127
0.993020535,0.2860978,-0.2509238,-0.1057299,-0.3454786,-0.9114827,-0.2289286,15.60679,32.58537,29.52549,1007.127
1.027668953,0.7751289,-0.3085805,-0.2883773,-0.337165,-0.9129584,-0.2261264,15.60679,32.58537,29.52549,1007.125
1.059842587,0.8322631,-0.07063808,-0.6540973,-0.3449155,-0.9109333,-0.2202533,15.22859,32.20961,29.52929,1007.125
1.092015743,0.8904356,-0.2472739,-0.7739859,-0.3375515,-0.9099624,-0.2154941,15.22255,31.82279,29.08487,1007.13
1.126663685,1.008694,-0.2459843,-0.5873429,-0.3371059,-0.9162897,-0.2174784,15.22255,31.82279,29.08487,1007.128
1.158836842,0.08545835,-0.4223326,-0.2792826,-0.3439495,-0.9152993,-0.2193343,15.22859,32.20961,29.52929,1007.128
1.193484306,0.2688731,-0.2437774,-0.1554441,-0.3414997,-0.9128847,-0.2193373,15.22833,31.82847,29.53115,1007.128
1.225657940,-0.2221244,-0.1246553,-0.3380758,-0.3371063,-0.9095201,-0.2207966,15.22833,31.82847,29.53115,1007.128
1.260306358,-0.09828874,-0.301162,-0.1529808,-0.3405079,-0.9061052,-0.2207367,15.60576,31.06083,29.53294,1007.128
1.292479515,0.5760541,-0.4178775,-0.3974859,-0.3463286,-0.909429,-0.2149258,15.61891,32.21642,30.48367,1007.13
1.327127457,0.5133478,-0.2979148,-0.7019646,-0.3420402,-0.9196998,-0.2222804,15.61891,32.21642,30.48367,1007.13
1.359300613,0.3890496,-0.2973315,-0.6378931,-0.3444741,-0.9133959,-0.2246158,15.61205,31.82879,29.97549,1007.128
1.393948555,0.4487341,-0.2370639,-0.3905605,-0.3390701,-0.9133897,-0.2203281,15.22859,32.20961,29.52929,1007.128
1.426121712,0.2632881,-0.3548201,-0.3892758,-0.3380718,-0.9138579,-0.2174493,15.22859,32.20961,29.52929,1007.128
1.460770130,0.1400813,-0.3537267,-0.2655889,-0.3395822,-0.9163107,-0.2217934,15.60158,32.19936,29.14482,1007.126
1.492943287,0.3233001,-0.2343416,-0.4480212,-0.3454401,-0.9099969,-0.2250607,14.85039,31.83384,29.53308,1007.126
1.527591229,0.07660291,-0.2923122,-0.3846714,-0.3366649,-0.9129499,-0.224685,15.21812,32.58018,28.69862,1007.126
1.559764385,0.3824021,-0.4091009,-0.260664,-0.3390437,-0.9128821,-0.2174322,15.21812,32.58018,28.69862,1007.128
1.594412327,-0.1711862,-0.1711406,-0.3204992,-0.3433885,-0.9142681,-0.2111371,15.98421,31.81773,29.52728,1007.128
1.626585484,-0.5379336,-0.111351,-0.5024385,-0.3419451,-0.9104257,-0.2154569,14.85617,31.83952,29.97936,1007.13
1.658758640,0.1383166,-0.2294341,-0.4393342,-0.3386189,-0.909557,-0.2265667,14.85617,31.83952,29.97936,1007.13
1.693407535,0.6277077,-0.110558,-0.1930651,-0.336616,-0.9148397,-0.217953,15.22364,32.20473,29.14676,1007.13
1.725580692,0.1347658,-0.3465319,-0.4372914,-0.3370391,-0.9128439,-0.2111846,15.60627,31.8231,29.52921,1007.13
1.760228634,-0.04917266,-0.2267149,-0.3131247,-0.3362172,-0.9187918,-0.2266653,15.60627,31.8231,29.52921,1007.132
1.792401791,0.5034576,-0.1664018,-0.3117521,-0.3381124,-0.9138948,-0.2222692,15.22916,31.82928,29.5949,1007.13
1.827049732,0.867942,-0.04687436,-0.3102875,-0.3351461,-0.913391,-0.2179548,15.60101,32.57969,29.07921,1007.13
1.859222889,0.06725418,-0.1056642,-0.43127,-0.3399829,-0.9157453,-0.211663,15.60101,32.57969,29.07921,1007.13
1.893870831,0.005220681,-0.1646823,-0.06234676,-0.3356403,-0.9109763,-0.2198582,15.60183,32.5805,29.14297,1007.128
1.926043987,0.06672612,-0.1050303,0.1219219,-0.3360998,-0.910948,-0.2164797,15.22911,32.97187,29.52557,1007.128
1.960692406,0.3728143,-0.04523601,0.1214058,-0.3361403,-0.9138862,-0.2198776,15.22911,32.97187,29.52557,1007.126
1.992865562,0.002924021,-0.2222354,-0.1239294,-0.3369841,-0.9152117,-0.2034926,14.83884,31.82247,28.64052,1007.126
2.027513504,0.3104089,-0.04418747,-0.1231358,-0.3370351,-0.909939,-0.2121247,14.84544,31.82897,29.15055,1007.125
2.059686661,0.1864947,-0.1619876,-0.06152006,-0.3390559,-0.9119262,-0.2193522,14.84544,31.82897,29.15055,1007.125
2.094334602,0.3072465,-0.102537,0.06070929,-0.3380412,-0.9162478,-0.2126493,15.22859,32.20961,29.52929,1007.123
2.126507759,0.4282574,0.07515772,-0.0006522015,-0.3428988,-0.9079827,-0.2139818,14.84513,32.59042,29.08308,1007.123
2.158680916,0.4264731,0.1337391,0.1835576,-0.3414284,-0.9162048,-0.2092433,14.84513,32.59042,29.08308,1007.121
2.193329334,2.571658,0.2517076,0.2443075,-0.3430281,-0.9226073,-0.2222952,15.61257,32.59105,29.97178,1007.121
2.225502968,7.91345,0.4291185,-0.06231927,-0.3403656,-0.9397882,-0.2455977,14.84487,32.20929,29.08494,1007.121
2.260150433,20.01524,0.2515634,-1.594495,-0.3523871,-0.9526218,-0.2181173,14.84487,32.20929,29.08494,1007.119
2.292324066,30.15126,-4.838348,-5.945873,-0.3894223,-0.9620613,-0.2072456,15.60183,32.5805,29.14297,1007.118
2.326971531,28.79979,-12.17729,-14.70992,-0.3772545,-0.9921323,-0.196521,15.2239,32.58587,29.1449,1007.118
2.359145165,38.75152,-21.2326,-34.93464,-0.4570679,-1.138988,-0.157463,15.2239,32.58587,29.1449,1007.116
2.393793583,58.16353,-25.78984,-51.78857,-0.4216233,-1.282018,-0.05148701,15.20682,32.94994,27.8042,1007.116
2.425966740,79.78703,-36.50233,-70.60368,-0.4375979,-1.319539,-0.01790731,13.98793,34.46874,26.01776,1007.116
2.460614681,76.34693,-49.10874,-105.6599,-0.3739471,-1.061585,0.1147292,14.38944,35.94722,22.88409,1007.116
2.492787838,55.15344,-64.61522,-126.4974,-0.2636184,-1.36373,0.09144685,14.38944,35.94722,22.88409,1007.118
2.527435780,125.5527,-83.31768,-126.9265,-0.1757876,-1.160666,0.1082074,12.02594,38.61414,20.20531,1007.118
2.559608936,114.6181,-95.45061,-133.8519,-0.05367824,-1.02871,0.1153858,10.83646,40.47989,15.80275,1007.114
2.594257355,101.7791,-95.21387,-138.0807,-0.01370854,-0.9994903,0.1538137,10.83646,40.47989,15.80275,1007.114
2.626430512,101.7177,-93.08321,-134.5873,0.1394751,-0.8910072,0.09543873,6.98323,42.36533,10.01114,1007.118
2.661078453,101.9634,-89.59129,-123.617,0.1731694,-0.8104724,0.1753182,3.153686,43.8932,6.070267,1007.116
2.693251610,107.7379,-88.28922,-111.8499,0.2828882,-0.7424611,0.1907611,3.153686,43.8932,6.070267,1007.116
2.725424766,95.45179,-79.41147,-97.69255,0.3282177,-0.648998,0.2552145,-1.439114,44.28191,1.628807,1007.115
2.760072708,81.62994,-70.5929,-80.40961,0.4427984,-0.627896,0.2331114,-5.642105,43.91516,-1.85455,1007.115
2.792245865,62.21793,-61.53759,-64.65884,0.5039014,-0.5768837,0.2787517,-5.642105,43.91516,-1.85455,1007.115
2.826894760,35.06569,-49.04955,-51.11441,0.5762004,-0.5776197,0.2298711,-8.700806,43.16174,-4.513041,1007.113
2.859067917,4.719068,-32.83286,-41.36977,0.607483,-0.5830104,0.1803708,-11.36397,42.80112,-5.836485,1007.113
2.893715858,-23.17034,-7.856783,-31.809,0.6964873,-0.5604767,0.07561418,-11.36397,42.80112,-5.836485,1007.117
2.925889015,-55.85132,20.72958,-18.69357,0.7149217,-0.5069549,-0.0214805,-12.87573,42.8226,-5.82875,1007.115
2.960536957,-55.17558,55.76711,-1.594495,0.759364,-0.5684823,-0.1038603,-14.37119,41.33659,-4.47473,1007.115
2.992710114,-103.6442,96.19047,-1.042912,0.8007033,-0.6339108,-0.3795252,-14.37119,41.33659,-4.47473,1007.115
3.027358532,-149.4098,191.4783,-7.600623,0.7987076,-0.7655815,-0.9021155,-14.72023,41.37038,-2.241392,1007.115
3.059531689,-143.1439,366.666,2.02144,0.542506,-1.079822,-1.156811,-14.30133,42.16708,0.8769169,1007.113
3.094179630,61.60363,439.4044,19.42695,-0.05763035,-0.7981887,1.683339,-14.30133,42.16708,0.8769169,1007.112
3.126352787,164.6839,-35.437,-37.81513,2.181195,-2.63568,0.8139234,-15.04725,41.04497,1.715172,1007.112
3.161000729,90.04591,-41.71061,7.598559,0.4526023,0.3539626,0.1697785,-16.59941,40.32781,3.512075,1007.112
3.193173885,-54.68414,23.21535,34.3197,0.4089369,-1.162056,-0.5768794,-16.59941,40.32781,3.512075,1007.113
3.225347042,26.71116,37.41975,26.04595,0.3156013,-0.5916615,0.7590124,-15.49866,41.42181,0.8867626,1007.113
3.259995461,-45.28529,0.01482338,11.39835,0.2483391,-0.9391615,0.5302355,-14.30159,41.78594,0.8787766,1007.112
3.292168617,-32.26204,1.612819,12.07251,0.3101403,-1.026075,0.3771124,-14.30159,41.78594,0.8787766,1007.113
3.326816559,-15.06152,15.69885,7.904994,0.3929265,-0.7438678,0.3940905,-13.91292,41.79113,1.705648,1007.113
3.358989716,-15.6144,11.85183,11.39835,0.3166955,-0.6691894,0.4619334,-13.14022,41.03518,3.044346,1007.113
3.393637657,-34.96498,3.980219,22.9816,0.3309363,-0.7174981,0.4377843,-13.14022,41.03518,3.044346,1007.112
3.425810814,-39.32654,3.743479,35.66801,0.2862945,-0.8552331,0.3604274,-13.13393,41.80313,3.486906,1007.116
3.460459709,-33.24493,8.83339,45.41265,0.230798,-0.8205008,0.3597856,-12.36072,41.80945,4.821878,1007.116
3.492632866,-45.40815,10.96405,56.62818,0.2057048,-0.7408126,0.3548927,-12.36072,41.80945,4.821878,1007.116
3.527280808,-39.69512,9.1885,72.62409,0.1983382,-0.801711,0.3207194,-11.20353,42.19722,6.59934,1007.114
3.559453964,-42.70521,7.472135,85.73951,0.1114129,-0.7926321,0.3090733,-10.05841,41.81135,7.487959,1007.114
3.594101906,-75.38619,5.6374,86.53624,0.0320731,-0.8587472,0.3073406,-7.767146,42.56415,9.257757,1007.112
3.626275063,-56.71135,-0.6362118,94.68742,-0.03209694,-0.885693,0.2334893,-7.767146,42.56415,9.257757,1007.112
3.660923481,-78.27342,-7.738413,99.83553,-0.04089578,-0.8571324,0.2179009,-3.96572,42.15126,10.96165,1007.112
3.693096638,-83.00356,-10.63848,103.6353,-0.116832,-1.050789,0.04397514,-1.284959,42.91005,13.62207,1007.112
3.727744579,-30.11198,-8.093523,108.2318,-0.1756077,-1.055047,0.0203885,-1.284959,42.91005,13.62207,1007.11
3.759917736,-18.07162,-1.583172,116.9959,-0.1571673,-0.9547625,0.1338311,2.534368,42.13389,16.73042,1007.112
3.792090893,-89.57661,-9.454779,96.1583,-0.02370807,-1.337154,0.2306532,6.319285,41.70476,17.15922,1007.112
3.826738834,-82.14354,-9.691519,53.99283,-0.4741141,-1.685752,0.05316027,6.319285,41.70476,17.15922,1007.114
3.858911991,-87.67227,-18.74682,7.414698,-0.2432126,-1.160889,0.09871267,9.377213,41.31479,19.82329,1007.114
3.893560410,-85.76793,-23.54081,0.1215418,-0.1885613,-0.8003845,-0.134523,11.67715,39.02908,22.43678,1007.116
3.925734043,-49.1554,-18.33253,1.285995,-0.2506936,-1.023033,-0.2196467,11.67715,39.02908,22.43678,1007.116
3.960381508,-10.39281,-12.35484,11.15321,-0.2955909,-0.8599606,-0.1243755,11.69923,37.52728,24.22935,1007.116
3.992555141,-51.48976,-5.430198,15.32072,-0.3179211,-0.8892026,-0.1542922,12.84409,36.76028,25.11983,1007.118
4.027202606,-72.25324,-0.4586567,8.946873,-0.3559877,-0.95958,-0.1786171,12.84409,36.76028,25.11983,1007.118
4.059376240,-52.28836,0.4291185,-2.391226,-0.3513415,-1.004305,-0.1848132,13.2386,35.62856,26.46232,1007.118
4.094024658,-37.54506,-4.897533,-8.090919,-0.3144256,-0.9959038,-0.2675103,12.89373,34.52383,29.08377,1007.124
4.126197815,-20.77455,-4.601608,-5.700725,-0.3044388,-0.9193421,-0.2775763,12.89373,34.52383,29.08377,1007.124
4.160845757,-6.768419,-2.352577,-1.104199,-0.2833281,-0.9642655,-0.2988696,13.71291,33.75074,29.14705,1007.125
4.193018913,6.684841,-1.050507,-0.3687544,-0.2968876,-0.9660743,-0.2274221,13.2759,32.23734,29.53928,1007.125
4.227666855,6.131968,-2.056652,-1.226773,-0.2974008,-0.9168081,-0.1961631,13.2759,32.23734,29.53928,1007.125
4.259840012,-0.3182259,-1.583172,0.06025477,-0.2773326,-0.8999276,-0.1971752,13.72287,32.6179,29.98144,1007.125
4.292013168,-0.8096693,-0.9913219,2.144014,-0.2879843,-0.9311923,-0.2301096,12.89873,33.38611,29.53563,1007.125
4.326661587,2.937586,-0.6953968,1.898865,-0.2939244,-0.9438127,-0.2340142,12.89873,33.38611,29.53563,1007.127
4.358834744,2.323282,-0.7545817,0.673125,-0.2985226,-0.924673,-0.2097135,13.66013,32.99992,29.9799,1007.129
4.393482685,-2.529721,-1.523987,0.3666899,-0.3014205,-0.9125419,-0.2119965,13.71214,32.60734,29.15263,1007.129
4.425655842,5.149081,-1.760727,0.1215418,-0.322969,-0.9584066,-0.2569995,13.71214,32.60734,29.15263,1007.129
4.460303784,6.131968,-3.062797,-0.1848933,-0.3400011,-0.9490907,-0.2557997,13.27642,32.99961,29.53556,1007.133
4.492477894,-0.3182259,-1.879097,-1.471921,-0.3220312,-0.9357559,-0.2144055,13.6541,32.61311,29.53548,1007.133
4.527125836,-2.468291,-2.411762,-0.6751895,-0.311396,-0.9305815,-0.2289221,13.6541,32.61311,29.53548,1007.133
4.559298992,7.360576,-3.713832,0.3666899,-0.2898143,-0.9301046,-0.2161056,14.09503,32.60685,29.53323,1007.131
4.593946934,11.10783,-2.707687,1.163421,-0.2981148,-0.9469925,-0.2084553,12.89796,32.24271,29.54121,1007.131
4.626120091,7.667728,-1.228062,0.9182731,-0.2793098,-0.9188001,-0.1910464,14.08976,33.36343,29.08323,1007.131
4.660768509,0.4803695,-0.4586567,0.4279769,-0.2910021,-0.9269447,-0.1847384,14.08976,33.36343,29.08323,1007.13
4.692941666,-4.495494,0.0740084,-0.3074674,-0.2927149,-0.9450558,-0.2055977,13.32868,32.98816,28.70643,1007.128
4.727589607,6.869133,0.6066735,2.327875,-0.2845017,-0.9287309,-0.2233738,13.64858,32.98856,29.08734,1007.126
4.759762764,24.74538,1.494449,6.434105,-0.2921004,-0.9473237,-0.2475561,13.64858,32.98856,29.08734,1007.126
4.794410706,38.81295,3.802664,9.069447,-0.294354,-0.9418602,-0.1698882,13.25908,32.98256,28.19672,1007.128
4.826583862,15.34653,-1.819912,8.027568,-0.312091,-0.8873956,-0.04202577,13.68979,33.728,27.36193,1007.128
4.858757019,-3.144025,-0.5178417,6.924401,-0.3140964,-0.9347495,-0.1416893,13.68979,33.728,27.36193,1007.128
4.893405437,3.859042,0.5474885,5.453513,-0.3331625,-0.9409352,-0.2008484,14.06196,33.71695,26.91372,1007.126
4.925579071,5.947676,0.1923784,2.327875,-0.3299443,-0.9392352,-0.1671244,13.62046,34.10353,26.85036,1007.126
4.960226536,5.947676,-0.1627316,1.408569,-0.3293227,-0.931379,-0.1550155,13.62046,34.10353,26.85036,1007.124
4.992400169,2.691864,0.3699335,-1.104199,-0.3225012,-0.9367417,-0.1536773,14.43959,34.47303,26.84431,1007.124
5.027047634,5.763385,0.6658586,-2.023504,-0.318514,-0.9429717,-0.1407519,14.43489,34.8493,26.45992,1007.122
5.059221268,5.456233,0.01482338,-1.655782,-0.3159388,-0.9288374,-0.1315014,14.43489,34.8493,26.45992,1007.121
5.093869686,3.859042,-0.2811017,-1.349347,-0.3101359,-0.9347175,-0.134978,14.43438,34.08703,26.46364,1007.125
5.126042843,5.579093,-0.4586567,-0.3687544,-0.3077099,-0.9429631,-0.1326586,14.43489,34.8493,26.45992,1007.125
5.160690784,7.299145,0.8434136,1.163421,-0.3096432,-0.9492227,-0.1273902,14.43489,34.8493,26.45992,1007.123
5.192863941,9.51064,3.269999,1.469856,-0.325337,-0.9477654,-0.1373537,14.44067,34.85498,26.9062,1007.121
5.227511883,13.31933,4.690439,-0.6139024,-0.3358393,-0.9305747,-0.1178341,14.81309,35.22506,26.45612,1007.121
5.259685040,15.10081,4.216959,-1.226773,-0.3284874,-0.930582,-0.1140467,14.81309,35.22506,26.45612,1007.121
5.294333458,11.47641,3.210814,-1.839643,-0.3282577,-0.9337581,-0.08515508,13.67349,35.23549,26.01565,1007.121
5.326506615,2.507573,3.210814,-5.700725,-0.3487286,-0.9515257,-0.07354257,14.05169,35.61124,26.01185,1007.121
5.358679772,-9.164205,0.4291185,-14.15833,-0.3808713,-0.9681942,-0.115796,14.05169,35.61124,26.01185,1007.121
5.393327713,-17.15016,-2.234207,-25.25129,-0.3687519,-1.005079,-0.1075372,14.04617,35.98669,25.56371,1007.121
5.425500870,-26.05757,-5.311828,-34.13791,-0.4000263,-1.030592,-0.1002257,13.23256,35.24174,26.0179,1007.123
5.460149765,-19.11593,-11.17114,-38.24414,-0.4031276,-1.021101,-0.06734256,13.23256,35.24174,26.0179,1007.121
5.492322922,-3.328316,-23.6,-40.08275,-0.4095469,-0.9041893,-0.01667288,13.30159,35.62767,26.462,1007.121
5.526970863,19.89238,-36.67989,-39.04087,-0.3463387,-1.058006,0.03015119,12.10452,35.26353,26.46998,1007.125
5.559144020,45.20171,-48.33933,-35.97652,-0.4306387,-1.046278,-0.07693339,12.10452,35.26353,26.46998,1007.125
5.593791962,77.57554,-68.2255,-31.37999,-0.3568636,-1.032615,0.04299071,12.09926,36.02011,26.01999,1007.125
5.625965119,102.1477,-81.71968,-21.3902,-0.3574834,-0.9660374,0.05318535,11.68138,36.74796,22.89423,1007.125
5.660613537,111.2394,-91.42603,-7.232901,-0.2777739,-0.8604169,0.0798223,12.75427,39.33807,18.03007,1007.125
5.692786694,116.7681,-91.18929,17.40448,-0.2729191,-0.8135577,0.05413533,12.75427,39.33807,18.03007,1007.125
5.727434635,98.21616,-84.14627,43.45147,-0.2133881,-0.794552,0.1024185,13.50509,41.16388,12.66121,1007.125
5.759607792,102.2706,-69.4092,66.25024,-0.2193184,-0.7670646,0.1383684,16.07715,42.19661,6.904198,1007.123
5.794255733,97.17184,-48.39852,91.50049,-0.2152056,-0.7262742,0.1434863,16.07715,42.19661,6.904198,1007.123
5.826429367,98.76903,-24.42859,110.3156,-0.2383766,-0.7447873,0.1825918,17.90355,42.48837,1.983582,1007.122
5.861077309,104.2363,-1.879097,125.6374,-0.3584511,-0.8487046,0.2879314,21.62548,41.61638,-2.431088,1007.122
5.893250465,127.3342,17.71114,129.0081,-0.4473146,-0.8788098,0.3550284,21.62548,41.61638,-2.431088,1007.122
5.925423622,144.1661,31.26451,118.6506,-0.5200638,-0.9012483,0.4196281,26.47911,38.8218,-6.906009,1007.122
5.960071564,141.9546,49.0792,99.28394,-0.56414,-0.7833688,0.6345369,29.83285,35.29862,-10.41316,1007.123
5.992244720,77.14552,57.30592,73.48211,-0.5169299,-0.6729805,0.5660806,29.83285,35.29862,-10.41316,1007.126
6.026893616,79.66417,56.65488,45.6578,-0.4977738,-1.013803,0.629608,33.56923,31.39381,-13.53785,1007.126
6.059066772,182.3758,63.46115,25.86209,-0.4170645,-0.717231,0.6828738,36.20692,28.23795,-13.98248,1007.126
6.093714714,123.4641,70.74091,6.679254,-0.3610062,-0.2384979,0.6761755,36.20692,28.23795,-13.98248,1007.124
6.125887871,39.36582,70.85928,7.904994,-0.3477919,-0.2326134,0.5035448,38.07222,26.2827,-15.76796,1007.124
6.160535812,35.61856,89.79848,5.453513,-0.4439516,-0.3776755,0.5128862,39.27905,23.99027,-14.87036,1007.126
6.192708969,10.24781,83.76161,-0.8590506,-0.5296557,-0.2994895,0.903786,39.27905,23.99027,-14.87036,1007.126
6.227357388,-9.655648,53.45889,9.437169,-0.6968527,-0.3037717,0.8701249,40.37247,23.23553,-13.087,1007.124
6.259530544,-59.66,48.48735,1.285995,-0.7498035,-0.09866427,0.6833662,41.15724,23.25322,-10.85946,1007.123
6.294178486,-26.24186,49.96697,-4.597559,-0.8096323,-0.4209892,0.5140133,41.15724,23.25322,-10.85946,1007.124
6.326351643,-19.23879,48.13224,-7.968345,-0.888275,-0.3723482,0.5397301,42.75536,23.63472,-9.084258,1007.124
6.361000061,-21.57315,41.79944,-12.38101,-0.879913,-0.3495269,0.4203043,43.17241,22.90607,-6.02226,1007.124
6.393173695,-25.62756,41.62189,-11.76814,-0.8787335,-0.5030469,0.4026397,43.17241,22.90607,-6.02226,1007.124
6.425346851,-20.71312,38.48508,-9.010225,-0.8081852,-0.391923,0.3816895,43.18473,24.06084,-5.135282,1007.126
6.459994793,-20.34454,41.08922,-2.329939,-0.7223656,-0.4049837,0.3798171,42.45248,24.85658,-3.350012,1007.124
6.492167950,-11.00712,41.91781,3.921337,-0.8749664,-0.4146975,0.343565,42.45248,24.85658,-3.350012,1007.124
6.526815415,-15.98298,36.94627,4.043911,-0.8498148,-0.3628019,0.2917022,42.41838,24.8859,-1.118286,1007.127
6.558989048,-9.655648,33.21761,5.024504,-0.8453205,-0.3448386,0.2951823,42.87556,24.51475,0.1564045,1007.127
6.593637467,-4.004051,36.29523,9.314595,-0.694668,-0.4191407,0.1982101,42.87556,24.51475,0.1564045,1007.127
6.625810623,8.466324,46.94854,14.953,-0.6700745,-0.3243434,0.2334661,42.89315,24.91294,1.493385,1007.125
6.660458565,3.55189,53.57726,22.49131,-0.7070432,-0.3143424,0.1847296,43.29369,24.16804,3.280296,1007.125
6.692631721,-0.1953651,59.91006,25.31051,-0.8291296,-0.01363199,0.2032898,43.68819,23.03633,4.622786,1007.127
6.727280140,-33.98209,53.57726,36.64861,-1.139749,-0.874302,0.2415088,43.68819,23.03633,4.622786,1007.127
6.759453297,-15.98298,49.55268,36.34217,-1.201023,-0.3143878,0.1122186,44.08899,22.67256,6.407837,1007.127
6.794101238,-10.5771,52.92622,38.73236,-1.046008,-0.47102,0.1678028,43.72761,21.55159,7.754192,1007.128
6.826274395,-8.672762,61.62642,36.40346,-0.9344776,-0.3262583,0.1293956,43.72761,21.55159,7.754192,1007.128
6.860922337,-3.389747,59.02228,37.50663,-0.9813946,-0.3439062,0.01352603,44.88903,19.65824,9.989098,1007.13
6.893095493,-2.038277,57.60184,39.10009,-0.9033141,-0.3292648,-0.05166976,44.9221,18.54814,12.60861,1007.13
6.927744389,-3.758329,55.76711,38.97751,-1.005432,-0.2602448,-0.0419539,44.9221,18.54814,12.60861,1007.13
6.959917545,-2.714012,63.10604,37.32277,-0.9367035,-0.3196904,0.03548063,44.94971,16.67089,14.84932,1007.132
6.992090702,0.2960782,66.47959,34.99386,-0.9981107,-0.2118477,-0.1814031,43.83823,15.56634,16.64582,1007.132
7.026738644,0.4189391,61.38968,28.98773,-0.9635547,-0.1105911,-0.1833007,43.83823,15.56634,16.64582,1007.13
7.058911800,11.78357,60.85702,22.92031,-1.071313,-0.07322395,-0.1906632,43.87657,13.69965,19.71534,1007.13
7.093560219,-2.283999,46.2975,20.40755,-1.06275,-0.4079854,-0.2291709,43.14328,12.97086,21.50805,1007.13
7.125733376,5.456233,44.69951,21.08171,-0.7737866,0.01744822,-0.13678,43.14328,12.97086,21.50805,1007.13
7.160381317,2.261851,48.07305,26.53625,-0.970237,-0.06972654,-0.3014734,42.0318,11.8663,23.30455,1007.128
7.192554474,9.572071,47.36283,23.16546,-1.013232,0.0362291,-0.1845188,40.84604,11.13241,24.20696,1007.127
7.227202416,3.55189,43.87092,17.77221,-1.005233,-0.2255431,-0.3255674,40.84604,11.13241,24.20696,1007.125
7.259375572,8.159171,43.10151,25.18793,-0.9299705,-0.148965,-0.2914163,39.72904,10.4033,25.55533,1007.125
7.294023991,6.254828,41.20759,28.92644,-0.9112927,-0.05850777,-0.3192829,38.99601,10.05564,27.34618,1007.125
7.326197147,-0.93253,37.47894,29.84575,-1.012854,-0.1561093,-0.4531357,38.99601,10.05564,27.34618,1007.129
7.360845089,10.55496,30.85021,33.58426,-0.9642068,-0.03139516,-0.2992857,38.63515,9.696936,28.68881,1007.131
7.393018246,12.64359,31.26451,27.88456,-0.8852258,-0.01344216,-0.3750665,37.12814,8.199559,29.15027,1007.131
7.427667141,12.02929,28.1277,28.43615,-0.9437397,-0.03382884,-0.4759085,37.12814,8.199559,29.15027,1007.131
7.459840298,-5.908393,22.2092,20.40755,-0.9475072,-0.05875616,-0.5638027,36.01635,7.856458,30.8793,1007.131
7.492013455,10.37067,20.07854,15.99488,-0.9485113,0.02182973,-0.3737032,35.26073,8.248329,30.88131,1007.131
7.526661396,18.97092,13.21308,14.58528,-0.8717806,0.0215543,-0.3599615,35.26073,8.248329,30.88131,1007.131
7.558834553,7.790588,9.484426,11.27578,-0.9387725,-0.0419943,-0.4615622,34.14399,7.900355,32.22781,1007.125
7.593482494,-24.7061,1.494449,4.043911,-0.9401065,-0.06355464,-0.5518613,33.01569,7.541012,32.68176,1007.123
7.625656128,-12.85003,3.388369,-1.533208,-0.8374543,-0.028234,-0.3741882,33.01569,7.541012,32.68176,1007.127
7.660304070,-28.39192,-9.632334,3.431041,-1.022133,0.1145045,-0.2363284,33.00965,7.154194,32.23734,1007.127
7.692477226,-51.18261,-18.33253,-3.55568,-0.8059421,0.02081863,-0.5389217,32.26508,6.795167,33.13563,1007.123
7.727125168,-36.80789,-14.54469,-2.820235,-0.9263191,-0.03222763,-0.31989,31.88662,6.038269,33.14128,1007.125
7.759298325,-70.53319,-27.74295,3.431041,-1.005836,0.291996,-0.1829613,31.88662,6.038269,33.14128,1007.125
7.793947220,-127.0492,-33.30634,5.882522,-0.825581,0.0798026,-0.5816321,31.87403,4.502365,32.25616,1007.124
7.826120377,-92.27956,-22.88978,2.327875,-0.9295553,0.1005628,-0.5371109,32.6226,2.199142,31.81718,1007.124
7.860768318,-97.74686,-14.01202,1.040847,-0.8588653,0.2750509,-0.3975161,32.6226,2.199142,31.81718,1007.125
7.892941475,-100.0812,-24.96125,1.898865,-1.18668,0.1548525,-0.2084324,32.98713,-0.5490528,30.93602,1007.122
7.927589893,-188.8482,-34.60841,-18.26456,-0.9129813,0.3430289,-0.3660848,32.60662,-4.355019,30.95656,1007.122
7.959763050,-144.3111,-31.8859,-6.497457,-1.057359,-0.04866259,-0.4585826,32.60662,-4.355019,30.95656,1007.122
7.994410992,-96.64111,-30.52464,-24.82228,-0.8700476,0.2011958,-0.4148906,32.57568,-7.432512,28.74004,1007.12
8.026584148,-103.337,-19.04275,-31.99286,-0.8845007,0.1565038,-0.4291022,33.3117,-12.41423,27.48528,1007.12
8.058757305,-58.4314,-22.002,-42.53423,-0.9994161,0.07848243,-0.3611932,33.3117,-12.41423,27.48528,1007.118
8.093405247,-70.53319,-18.80601,-46.33402,-0.8885437,0.06823766,-0.1704764,33.66524,-14.348,25.70753,1007.117
8.125578404,-65.06588,-26.02658,-39.8376,-0.9477226,0.1693651,-0.06064063,34.78172,-14.38116,24.36288,1007.115
8.160226822,-91.23524,-29.45931,-40.08275,-0.8403794,0.1417379,-0.04933803,34.78172,-14.38116,24.36288,1007.119
8.192399979,-94.85963,-28.68991,-47.49848,-0.8967259,0.03352796,-0.08199831,35.14207,-14.78472,23.02397,1007.119
8.227047920,-69.79602,-31.05731,-53.93361,-0.8157172,0.1506343,-0.1386647,36.24731,-15.5907,20.85424,1007.115
8.259221077,-68.44456,-17.56313,-51.72728,-0.7920789,0.1275018,-0.101962,36.24731,-15.5907,20.85424,1007.114
8.293869972,-58.36996,-17.32639,-50.31768,-0.908168,0.05216972,-0.0007619495,36.97404,-16.011,18.62083,1007.112
8.326043129,-53.14838,-17.2672,-49.33709,-0.8585371,0.1300918,0.002309336,38.47476,-15.28158,17.71681,1007.108
8.360691071,-83.55643,-13.77528,-43.08581,-0.9030952,0.0871378,0.00526299,38.47476,-15.28158,17.71681,1007.108
8.392864227,-63.03867,-13.24262,-38.36671,-0.8921599,-0.08919948,0.05624516,39.2133,-15.30937,16.3741,1007.108
8.427512169,-40.43229,-10.69766,-39.96017,-0.9567917,-0.02439037,0.1735444,39.94633,-14.96171,14.58325,1007.107
8.459685326,-48.72539,-7.442488,-45.10828,-0.9465182,-0.0350938,0.2398762,39.94633,-14.96171,14.58325,1007.105
8.494333744,-10.02423,-3.299537,-36.58939,-0.9863287,-0.02931467,0.1453415,39.94081,-14.58626,14.13511,1007.109
8.526506901,15.46939,-5.015903,-31.50256,-0.9471447,-0.05013324,0.1144382,41.12054,-14.23918,12.78828,1007.103
8.558680058,17.37373,-2.411762,-30.58326,-0.9188894,-0.06337418,0.1150294,41.12054,-14.23918,12.78828,1007.103
8.593327999,6.254828,-0.5178417,-22.37079,-1.067672,-0.07221819,0.06814485,41.12709,-13.0901,13.22898,1007.105
8.625501156,13.44219,-4.364868,-12.87131,-0.9485505,-0.07521857,0.1335245,41.89003,-11.18948,13.66209,1007.103
8.660150051,10.49353,-3.950572,-8.581216,-0.9015025,-0.08925513,0.1059778,41.89003,-11.18948,13.66209,1007.107
8.692323208,10.37067,-2.352577,-6.00716,-0.8857696,-0.05340467,0.04443064,41.51261,-10.42185,13.6603,1007.107
8.726971149,11.72214,2.796519,0.673125,-0.8565532,-0.2058946,0.05254087,41.44436,-9.66437,13.21062,1007.107
8.759144306,30.15126,7.235395,10.17261,-0.9143254,-0.2338273,0.04369167,41.44436,-9.66437,13.21062,1007.105
8.793792725,33.71422,17.17848,19.12052,-1.043105,-0.2215357,0.04403066,42.26875,-10.05145,13.65458,1007.105
8.825965881,31.62559,16.705,18.93666,-1.116654,-0.2441807,-0.04463965,41.8908,-10.04608,13.65651,1007.104
8.860613823,38.69009,9.07013,4.779356,-1.042083,-0.2349638,-0.06020146,41.52417,-10.41048,14.55286,1007.104
8.892786980,34.45139,4.394515,-13.17774,-0.9628648,-0.1766962,-0.06913628,41.52417,-10.41048,14.55286,1007.104
8.927434921,-2.591151,8.419095,-18.75486,-0.9300156,-0.1351319,-0.07102814,41.53572,-10.39911,15.44543,1007.104
8.959608078,1.340395,6.880285,-15.62922,-1.063897,-0.2535444,-0.09196307,41.54176,-10.01229,15.88984,1007.104
8.994256496,-3.512608,-0.7545817,-22.86109,-0.9607466,-0.08512278,-0.151787,41.54176,-10.01229,15.88984,1007.102
9.026429653,-29.49767,0.01482338,-29.54138,-0.8535689,-0.1341776,-0.1498175,41.92021,-9.25539,15.88419,1007.102
9.061077595,-4.311203,2.974074,-21.45149,-0.8531834,-0.2372734,-0.1121111,41.5433,-7.725488,15.87868,1007.102
9.093250752,25.7897,-0.8137668,-13.91319,-0.9543927,-0.2128074,-0.08879302,41.5433,-7.725488,15.87868,1007.102
9.125423908,10.49353,-4.424053,-12.38101,-0.9730206,-0.1330404,-0.0792856,42.29918,-7.736225,15.87481,1007.104
9.160072804,-19.8531,-10.87522,-9.806956,-1.000111,-0.2342009,-0.06010482,41.4866,-6.956641,16.32156,1007.108
9.192245960,-30.11198,-14.48551,-6.803892,-1.018352,-0.20627,-0.03753237,41.4866,-6.956641,16.32156,1007.108
9.226893902,-49.46255,-10.10581,-7.600623,-0.8930249,-0.2480758,-0.02796047,42.67186,-6.985011,15.42288,1007.108
9.259067059,-19.79167,-5.726123,-0.1236063,-1.108478,-0.3748947,0.004334395,42.28262,-6.609879,14.53039,1007.108
9.293715477,-6.522698,-11.94055,-4.842707,-1.014965,-0.1695994,-0.0006297054,42.28262,-6.609879,14.53039,1007.108
9.325888634,-39.63369,-4.601608,-10.29725,-0.8243433,-0.2553391,0.01857473,42.64848,-7.388884,13.63962,1007.108
9.360536575,-7.321293,7.235395,0.1215418,-0.9609842,-0.2947617,-0.02048123,43.02642,-7.394253,13.63768,1007.108
9.392709732,4.657638,8.182355,5.024504,-0.7863345,-0.2469111,0.0660075,43.02642,-7.394253,13.63768,1007.108
9.427357674,23.33248,15.69885,10.7242,-0.7957411,-0.3310912,0.03262533,42.64848,-7.388884,13.63962,1007.108
9.459530830,53.98626,20.55202,27.51684,-0.9184309,-0.3467002,0.1324514,43.03798,-7.382884,14.53024,1007.108
9.494179249,90.59879,-1.464802,35.48415,-1.099147,-0.3083039,0.2115741,43.03798,-7.382884,14.53024,1007.108
9.526352883,40.10299,-27.03273,20.46883,-1.04776,-0.1101603,0.1331982,42.66531,-8.134096,14.98218,1007.106
9.561000347,-53.76268,-35.96967,-1.90093,-1.180274,-0.09282249,0.09312566,42.28685,-8.890995,14.98783,1007.104
9.593173504,-106.1628,-37.44929,-19.18387,-1.0729,-0.1541966,0.008231862,42.28685,-8.890995,14.98783,1007.104
9.625347138,-56.71135,-35.25945,-22.92238,-1.136823,-0.2500302,-0.06088766,43.03747,-8.145149,14.53396,1007.104
9.659995556,-0.625378,-37.27174,-27.64148,-1.10614,-0.1173315,-0.01621803,43.38131,-8.564949,11.91996,1007.104
9.692168713,-17.88732,-32.47775,-36.83453,-0.8320066,0.01362082,0.02182756,43.38131,-8.564949,11.91996,1007.104
9.726816654,-2.099708,-18.4509,-18.75486,-0.846929,-0.120512,0.05315496,43.73639,-8.211922,10.13104,1007.104
9.758989811,3.244738,-13.12425,-5.455577,-0.833464,0.08665299,-0.01274272,44.48675,-7.847211,9.679037,1007.104
9.793638229,-48.47967,1.435264,0.550551,-0.64218,-0.1033441,0.01957402,44.84813,-6.726234,8.332678,1007.104
9.825811386,16.26799,12.02938,27.21041,-0.900831,-0.2485936,0.08875197,44.84813,-6.726234,8.332678,1007.104
9.860459328,38.19864,7.590505,40.4484,-1.088595,-0.07931204,0.07888559,45.23159,-7.107051,8.778885,1007.104
9.892632484,-7.075572,1.376079,29.96832,-0.9379888,-0.1426464,0.1454021,44.85891,-7.858264,9.230822,1007.104
9.927281380,-22.24888,-5.726123,19.42695,-1.087311,-0.1743004,0.1614764,44.85891,-7.858264,9.230822,1007.106
9.959454536,-29.5591,-12.82832,13.78855,-0.9880487,-0.1779585,0.1287081,44.46839,-9.3888,8.347637,1007.104
9.994102478,-37.97507,-9.987444,7.843707,-1.006646,-0.1329054,0.04249313,44.46787,-10.15107,8.351358,1007.104
10.026275635,-56.28133,-0.9321368,8.946873,-0.9178035,-0.2121436,0.08390886,44.46787,-10.15107,8.351358,1007.104
10.060923576,-10.39281,5.51903,21.26557,-0.9673941,-0.3233954,0.1017704,44.4558,-10.9247,7.462519,1007.106
10.093096733,5.640524,5.75577,22.18487,-0.9292389,-0.167383,0.1533105,44.07761,-11.30047,7.466314,1007.104
10.127745152,10.80068,6.93947,16.05617,-0.8767756,-0.3226053,0.1997412,44.07761,-11.30047,7.466314,1007.104
10.159918308,23.08676,13.86412,12.1338,-0.9025039,-0.1966631,0.2130696,44.08236,-12.81932,7.920036,1007.104
10.192091465,23.88536,19.36832,14.21756,-0.8389915,-0.2911702,0.2092878,44.09365,-13.18908,8.814459,1007.104
10.226739407,63.69227,26.70727,22.00101,-0.9291272,-0.2470703,0.2051904,44.09365,-13.18908,8.814459,1007.104
10.258912563,65.10516,18.18462,27.21041,-1.077801,-0.2321585,0.2177866,43.72149,-13.17803,9.262674,1007.104
10.293560982,39.85727,-0.8729518,14.21756,-1.033671,-0.05757861,0.1002422,42.99373,-14.28227,11.50353,1007.102
10.325734615,-58.92284,-3.654647,-12.4423,-0.86499,0.01400505,-0.01256546,42.99373,-14.28227,11.50353,1007.102
10.360382080,-67.03165,6.22925,-14.83249,-0.9296638,-0.2386672,-0.1533429,42.99342,-13.52081,11.43605,1007.102
10.392555237,23.08676,6.170065,-0.8590506,-0.9681354,-0.1185153,-0.1437994,42.61027,-13.90145,11.05732,1007.102
10.427204132,53.55625,10.25383,5.147078,-1.117524,-0.05500375,-0.1235658,42.61027,-13.90145,11.05732,1007.101
10.459377289,55.39916,2.678149,5.576087,-1.126868,0.1063771,-0.03587033,43.37111,-13.90731,11.43598,1007.101
10.494025231,-12.91146,0.4291185,-0.6139024,-0.9832854,0.1110855,-0.02512129,43.01132,-13.88408,12.84051,1007.099
10.526198387,-33.12207,7.235395,3.24718,-1.002529,-0.03255781,-0.09697986,43.01132,-13.88408,12.84051,1007.099
10.560846329,14.11792,13.09471,23.59447,-1.040592,-0.1721201,-0.02933133,42.62152,-13.12863,11.8824,1007.101
10.593019962,36.84718,14.75189,30.94892,-1.358642,-0.04570455,-0.01712743,43.01024,-14.26603,12.77861,1007.101
10.627667904,-29.98911,-15.84676,-5.210429,-0.9038033,0.1014472,-0.0278704,43.01024,-14.26603,12.77861,1007.102
10.659841061,-60.09002,-2.056652,-24.51584,-0.7049173,-0.1892837,-0.08755295,42.26014,-14.24961,13.22876,1007.101
10.692014217,20.07667,13.86412,3.063319,-0.9629591,-0.2396459,-0.04989239,42.62735,-14.26553,12.39802,1007.102
10.726662159,45.93888,19.24995,26.22981,-1.294266,0.02651274,-0.1149787,42.62735,-14.26553,12.39802,1007.102
10.758835316,-39.87941,-0.2219167,3.369754,-0.9368912,-0.006917199,-0.2545128,42.6323,-14.26066,12.78055,1007.101
10.793484211,-35.64071,3.684294,2.082727,-0.8847572,-0.218124,-0.1039466,42.63782,-14.63611,13.22869,1007.102
10.825657368,2.507573,8.47828,15.87231,-0.8553873,-0.2109712,-0.03860976,42.63782,-14.63611,13.22869,1007.101
10.860305309,-47.68107,13.33145,8.640438,-0.669885,-0.1726272,-0.1079865,41.49854,-15.38714,12.85569,1007.102
10.892478466,-63.8987,30.08081,8.763012,-0.8460895,-0.3182713,-0.09983103,41.49746,-15.76908,12.79379,1007.102
10.927126884,13.99506,33.75028,27.08783,-1.042285,-0.4185693,0.2371264,41.06705,-17.27599,13.69605,1007.105
10.959300041,81.75281,-0.9321368,12.44023,-1.259085,-0.204842,0.1184835,41.06705,-17.27599,13.69605,1007.105
10.993947983,-12.48145,-24.07348,-39.59245,-0.9852768,0.1287645,0.2521927,40.75762,-17.64696,14.14581,1007.105
11.026121140,-50.50687,-22.23874,-60.6139,-0.8816885,-0.185761,0.1295793,40.7634,-17.64128,14.59209,1007.106
11.060769558,44.52598,-19.75297,-51.48213,-0.8958653,-0.2083289,-0.03676428,40.7634,-17.64128,14.59209,1007.106
11.092942715,75.11832,-11.58544,-27.21247,-0.873163,-0.2560824,0.01661414,41.44024,-15.76251,13.24039,1007.106
11.127590656,112.7137,-12.82832,2.879458,-1.212571,-0.1473122,-0.00727809,43.40577,-13.87321,14.11366,1007.106
11.159763813,-3.512608,-29.69605,-3.616966,-1.159071,0.02139563,0.06398546,43.40577,-13.87321,14.11366,1007.108
11.194411755,-8.979914,-45.55764,-5.639438,-1.278047,-0.3351727,0.07372405,43.02308,-12.34899,13.66187,1007.108
11.226585865,-31.64774,-63.43151,-29.23494,-1.114011,0.00882405,-0.02667254,43.76818,-11.22769,12.75986,1007.108
11.258759022,-102.1699,-45.73519,-57.48826,-0.9806466,-0.1357001,-0.1144223,43.76818,-11.22769,12.75986,1007.108
11.293406963,-44.60955,-27.74295,-51.42085,-0.9606888,-0.1919763,-0.0350606,44.11805,-11.26068,10.59028,1007.108
11.325580120,34.14424,-25.78984,-36.28295,-0.7440239,-0.2216246,0.03641919,45.59566,-10.55399,7.901136,1007.106
11.360228062,94.77605,-14.36714,-11.33913,-0.7575507,-0.08421056,0.1605881,45.59566,-10.55399,7.901136,1007.106
11.392401219,66.64092,-8.389448,10.90806,-0.9241289,4.205992E-05,0.215857,45.20745,-8.654325,7.001205,1007.106
11.427049637,7.237715,-9.395594,19.30438,-1.029837,0.009442331,0.2337908,45.97013,-7.134842,7.436176,1007.106
11.493870735,-31.40201,-11.46707,1.715004,-1.026134,-0.2541929,0.1631389,45.58641,-7.135159,6.991829,1007.106
11.526043892,20.56812,-11.82218,5.576087,-0.9817191,-0.1078855,0.09307675,45.58012,-7.903111,6.549271,1007.106
11.560692310,13.62648,-4.779163,4.963217,-0.8955918,-0.1385584,0.1363642,45.58012,-7.903111,6.549271,1007.103
11.592865944,20.19953,-3.595463,6.679254,-0.9693854,-0.05225123,0.1401743,45.1846,-8.295931,5.214224,1007.103
11.627513409,-7.935597,-4.660793,6.740541,-0.9073759,-0.06461726,0.1500977,46.32444,-7.925218,5.65284,1007.103
11.659687042,-10.26995,0.6066735,8.517863,-0.8482906,-0.06922808,0.1567383,46.32444,-7.925218,5.65284,1007.101
11.694335461,-13.46433,11.79264,14.52399,-0.8561109,-0.1339988,0.1866433,45.94022,-8.687801,5.212215,1007.101
11.726508617,15.59225,17.71114,24.94279,-0.9109434,-0.1232873,0.2185732,45.95152,-9.057566,6.106638,1007.101
11.758681774,6.746272,12.20694,24.20734,-0.9016559,-0.04594813,0.1829742,45.95152,-9.057566,6.106638,1007.099
11.793329716,-23.47749,11.31916,14.953,-0.7764608,-0.08835754,0.1771184,45.57331,-9.433331,6.110432,1007.099
11.825502872,-44.11811,18.18462,14.15627,-0.8262348,-0.1480342,0.1481709,45.57858,-10.18991,6.560434,1007.099
11.860151291,-26.54901,25.22764,27.45555,-0.9672938,-0.1952331,0.167896,45.20565,-11.32226,7.014231,1007.098
11.892324448,4.289055,26.64808,36.28088,-0.94316,-0.2140465,0.2615055,45.20565,-11.32226,7.014231,1007.098
11.926972389,40.77872,25.93786,38.48722,-0.9912149,-0.1971692,0.342105,44.46107,-11.68129,7.912519,1007.098
11.959145546,53.61768,18.95403,29.29416,-0.9812966,-0.1013643,0.3726863,44.09917,-13.56453,9.2626,1007.102
11.993793488,25.11397,14.75189,14.27884,-0.992164,-0.09320994,0.3530929,44.09917,-13.56453,9.2626,1007.102
12.025967598,2.200421,8.300725,6.434105,-1.000366,-0.1191588,0.3187336,43.72624,-14.69688,9.716398,1007.102
12.060615540,-17.27302,5.933325,-3.923402,-0.9116898,-0.08535518,0.2275689,43.74358,-14.67982,11.05524,1007.102
12.092788696,-37.11504,10.90487,-8.397355,-0.9694944,-0.1442285,0.171711,43.74358,-14.67982,11.05524,1007.1
12.127436638,-13.46433,5.40066,-3.55568,-1.038572,-0.2180815,0.1172808,43.36564,-14.67446,11.05717,1007.1
12.159609795,-5.724102,1.790374,-4.291124,-1.0088,-0.120544,0.07057111,43.35904,-14.68095,10.54714,1007.1
12.194258213,-36.31645,8.59665,-16.24209,-1.0138,-0.1104739,0.0514208,43.35904,-14.68095,10.54714,1007.098
12.226431370,-22.31031,15.16619,-15.07764,-1.1211,-0.1856956,-0.07930198,43.36615,-13.91219,11.05345,1007.094
12.261079311,34.51282,12.26612,-5.639438,-1.075538,-0.1296271,-0.1433708,42.99291,-14.28308,11.43977,1007.093
12.293252468,42.68306,13.50901,-1.655782,-0.9667696,-0.03499178,-0.1378216,42.99291,-14.28308,11.43977,1007.093
12.325425625,39.24296,11.61509,3.553615,-0.9450802,-0.07503676,-0.09256412,43.38266,-13.89594,12.32854,1007.093
12.360074043,10.80068,5.696585,0.8569861,-0.9942954,-0.05731778,-0.09244081,43.40076,-12.73549,13.6618,1007.091
12.392247677,-11.49856,-0.1035466,-9.500521,-0.9434619,-0.1160071,-0.05435702,43.40076,-12.73549,13.6618,1007.091
12.426895142,3.55189,-3.536278,-14.40348,-0.972146,-0.1781093,-0.06954332,43.4068,-12.34867,14.10622,1007.091
12.459068775,11.53784,-6.317973,-15.62922,-0.974772,-0.1197919,-0.06180806,43.02334,-11.96786,13.66001,1007.091
12.493717194,5.149081,-6.495528,-16.60982,-0.982167,-0.1498051,-0.0562025,43.02334,-11.96786,13.66001,1007.091
12.525890350,13.13503,-7.146563,-11.09398,-1.026404,-0.1542652,-0.03365451,44.15113,-12.37078,13.20979,1007.091
12.560538292,-0.8096693,-7.501673,-14.70992,-1.001621,-0.09210363,-0.07627125,44.15767,-11.22169,13.65049,1007.091
12.592711449,1.463256,-3.003612,-16.54853,-0.9813749,-0.2118739,-0.0480456,44.15767,-11.22169,13.65049,1007.095
12.627359390,29.78268,0.1923784,-11.952,-0.9015567,-0.1970282,-0.02264002,44.14689,-10.08966,12.75234,1007.095
12.659533024,35.61856,8.063985,-6.558743,-0.9752612,-0.1768516,-0.03431793,44.15318,-9.321711,13.1949,1007.095
12.694180965,19.58523,9.602796,-3.371818,-0.9207762,-0.1599069,-0.004802674,44.15318,-9.321711,13.1949,1007.093
12.726354122,21.79672,9.543611,3.369754,-0.9422154,-0.2453623,0.04048283,44.9151,-8.945629,13.63546,1007.093
12.761002064,28.67693,0.01482338,8.824299,-1.04118,-0.1490716,0.06389007,44.17078,-8.923523,14.53188,1007.093
12.793175220,-24.7061,-6.791453,-0.06231927,-0.9358175,-0.08677151,0.02823458,44.17078,-8.923523,14.53188,1007.093
12.825349331,-57.20279,1.672004,-3.739541,-0.8392859,-0.2391377,0.03282571,43.79335,-8.155886,14.5301,1007.093
12.859997272,4.227624,12.91716,13.11439,-1.000001,-0.3318568,0.1164649,44.16577,-7.785807,14.08002,1007.092
12.892170429,51.71333,6.8211,20.10111,-1.047683,-0.2556073,0.1546524,44.16577,-7.785807,14.08002,1007.092
12.926818371,56.6892,-11.23033,15.68845,-1.060928,-0.1638016,0.2181927,44.54293,-8.934576,14.08367,1007.093
12.958991528,-10.14709,-22.77141,-1.655782,-0.9856945,0.04089609,0.1868843,44.55449,-8.923206,14.97623,1007.093
12.993639946,-100.0198,-15.13654,-12.4423,-0.9556133,-0.1483762,0.08334136,44.17078,-8.923523,14.53188,1007.093
13.025813103,-32.69205,-19.81215,1.653717,-0.9128713,-0.2493552,0.108138,44.17078,-8.923523,14.53188,1007.095
13.060461044,17.98804,-17.20802,5.5148,-0.8418694,-0.1528094,0.1482774,44.14792,-8.565128,12.7449,1007.095
13.092634201,10.4321,-10.75685,10.54034,-0.9323896,-0.1042608,0.1543423,44.89173,-9.349503,11.85219,1007.095
13.127282620,-13.52576,-7.205748,10.60162,-0.9879891,-0.03964095,0.1269558,44.89173,-9.349503,11.85219,1007.095
13.159455776,-15.73726,-2.530132,2.450449,-0.998611,-0.2502453,0.1262827,44.88677,-9.354374,11.46967,1007.095
13.194103718,33.59136,-1.819912,-6.00716,-0.9589534,-0.1966472,0.1157505,44.51435,-9.724455,11.91974,1007.095
13.226276875,45.69315,3.447554,-13.17774,-0.9330772,-0.1237454,0.08188814,44.51435,-9.724455,11.91974,1007.095
13.260925770,44.28025,5.87414,-14.15833,-0.9311957,-0.1006078,0.06229935,44.89725,-9.724951,12.30033,1007.095
13.293098927,35.06569,0.3107485,-16.18081,-0.9501365,-0.05836013,0.05270239,44.88621,-8.974052,11.40405,1007.095
13.327746868,9.264919,-1.346432,-16.79368,-0.8863814,-0.06225647,0.09208132,44.88621,-8.974052,11.40405,1007.095
13.359920025,7.053423,0.9025986,-11.33913,-1.014778,-0.06843819,0.08889043,44.52612,-8.189363,12.74111,1007.095
13.392093182,-9.102775,-0.3994717,-13.30032,-1.012328,-0.03801373,0.1334623,44.89327,-7.062701,11.84103,1007.099
13.426741600,2.507573,4.512884,-18.32585,-0.9237984,-0.1252731,0.1415569,44.89327,-7.062701,11.84103,1007.099
13.458914757,24.31537,13.44982,-14.89378,-0.8679274,-0.09293244,0.1543162,44.90534,-6.289064,12.72987,1007.099
13.493562698,32.91563,26.11542,-1.349347,-0.7874945,-0.09538238,0.2031914,45.27198,-5.924669,11.83351,1007.099
13.525735855,60.68217,31.85636,18.44636,-0.8557849,-0.2004723,0.3157502,45.27198,-5.924669,11.83351,1007.101
13.560384750,76.2855,22.91942,30.94892,-0.8798147,-0.2381792,0.3200015,44.53998,-4.747792,13.61692,1007.099
13.592557907,60.19073,21.55817,30.21347,-1.046876,-0.1287363,0.3055926,44.55758,-4.349604,14.9539,1007.099
13.627205849,19.03235,11.49672,24.02348,-1.303685,-0.235782,0.1687725,44.55758,-4.349604,14.9539,1007.099
13.659379006,-13.83292,-0.8137668,10.41776,-1.343475,-0.2207593,0.01406385,44.19646,-5.089447,16.2984,1007.099
13.694026470,-32.87634,-12.94669,-12.31972,-1.143785,-0.2888373,0.0005533053,43.43506,-4.703262,15.85412,1007.099
13.726200581,-16.53585,-21.29178,-38.18285,-0.9197987,-0.2217699,-0.03279577,43.43506,-4.703262,15.85412,1007.097
13.760848522,-41.10802,-18.27334,-66.7426,-0.8714297,-0.1440655,-0.1217764,43.80093,-5.482267,14.96335,1007.097
13.793021679,-56.77277,-10.40174,-73.3616,-0.8885316,-0.1541183,-0.1776116,44.16808,-4.355605,14.06328,1007.097
13.827669620,-25.87328,2.027114,-58.65271,-0.9338761,-0.2800316,-0.1700326,44.16808,-4.355605,14.06328,1007.096
13.859842777,33.16135,6.288435,-36.40553,-1.063664,-0.2837594,-0.1076383,44.54679,-3.217573,14.05576,1007.094
13.892015934,51.52905,-4.897533,-26.35445,-0.9697906,-0.1656629,-0.02752875,45.29869,-0.5660604,13.59258,1007.092
13.926664352,12.82788,-6.554713,-28.92851,-0.9112217,-0.09195886,-0.06217159,45.29869,-0.5660604,13.59258,1007.092
13.958837509,-30.23484,1.435264,-21.14505,-0.9109719,-0.2004974,-0.03800476,44.15987,0.5877607,13.14652,1007.092
13.993485451,10.30924,5.933325,2.511736,-0.9082897,-0.3182054,-0.06840213,44.53862,1.789315,13.1387,1007.092
14.025658607,39.42725,9.484426,20.95913,-0.9190147,-0.3230152,-0.006645786,44.15568,2.932399,12.68877,1007.092
14.060307503,49.19469,15.93559,32.05208,-0.9371562,-0.2945103,0.02749845,44.15568,2.932399,12.68877,1007.09
14.092480660,34.02137,17.00092,32.35851,-0.9101959,-0.2810314,0.09339194,44.1612,2.55695,13.13691,1007.09
14.127128601,37.21576,14.63352,30.0909,-0.9786506,-0.3422285,0.1070222,44.17776,1.430605,14.48133,1007.092
14.159301758,54.60056,4.927179,33.46168,-1.023083,-0.3004814,0.1420029,44.17776,1.430605,14.48133,1007.092
14.193950176,27.07974,-10.10581,27.14912,-0.9825926,-0.1541728,0.06956733,43.79927,0.6101838,14.4873,1007.092
14.226123333,-59.90573,-16.79372,13.11439,-0.8238204,-0.1523469,0.03098691,43.79297,-0.157768,14.04474,1007.092
14.260771275,-47.98823,-12.29566,18.93666,-0.8851576,-0.3810048,-0.01466977,43.79297,-0.157768,14.04474,1007.09
14.292944431,-23.96894,-6.850638,18.63022,-0.9046542,-0.2136092,-0.0347978,44.15255,-1.704725,12.71141,1007.09
14.327592850,-43.19666,5.28229,11.6435,-0.8106247,-0.3060946,-0.008481679,44.52997,-2.472361,12.7132,1007.09
14.359766483,-1.116821,16.40907,23.96219,-0.9909806,-0.3200421,0.08081015,44.52997,-2.472361,12.7132,1007.09
14.394413948,25.29826,11.08242,28.25229,-1.094558,-0.2195786,0.07585688,43.76728,-3.991842,12.27822,1007.09
14.426587582,-11.62142,1.908744,10.96934,-1.071194,-0.107152,0.1305497,44.16204,-4.742423,13.61885,1007.089
14.458760738,-49.83114,1.494449,-3.678253,-0.9537389,-0.1509117,0.1334309,44.16204,-4.742423,13.61885,1007.089
14.493409157,-19.79167,7.117025,-8.336068,-1.006539,-0.2449959,0.10953,43.02219,-5.113136,13.18023,1007.087
14.525582314,7.422006,2.500594,-13.97447,-0.9815696,-0.1304773,0.1218091,43.39911,-6.643039,13.18575,1007.087
14.560230255,15.10081,2.737334,-23.16753,-0.8960848,-0.08637248,0.168611,43.39911,-6.643039,13.18575,1007.089
14.592403412,10.67782,1.435264,-25.25129,-0.9246978,-0.06958829,0.1237084,43.40514,-6.256221,13.63017,1007.089
14.627051354,-0.5639476,2.796519,-18.14199,-0.893948,-0.04023769,0.1101674,43.03349,-5.4829,14.07466,1007.087
14.659224510,-2.714012,6.58436,-4.965281,-0.8989763,-0.07323097,0.1084964,43.03349,-5.4829,14.07466,1007.087
14.693872929,2.630434,8.83339,7.169549,-0.9264509,-0.09353884,0.1008733,43.40121,-4.736559,13.2402,1007.087
14.726046085,7.483437,8.300725,11.52093,-1.013476,-0.123236,0.09613852,43.4122,-4.344868,14.06714,1007.087
14.760694027,4.534777,3.447554,6.556679,-1.047901,-0.0952978,0.1092221,43.4122,-4.344868,14.06714,1007.087
14.792867184,-3.082595,-1.464802,-2.207365,-0.9983892,-0.1359214,0.09733917,43.41747,-5.10145,14.51714,1007.087
14.827516079,-17.82589,-0.04436163,-11.33913,-0.9455262,-0.08768097,0.0929056,43.80093,-5.482267,14.96335,1007.087
14.859689236,-24.7061,4.157774,-11.70685,-0.9356035,-0.1489947,0.1419535,43.80093,-5.482267,14.96335,1007.087
14.894337177,-28.9448,-4.838348,-4.107263,-0.8881348,-0.2008132,0.1246954,43.41721,-5.482584,14.519,1007.089
14.926510334,-38.34365,-3.240352,-6.865179,-0.8579689,-0.2435991,0.1346651,43.03349,-5.4829,14.07466,1007.09
14.958683491,-20.52883,2.027114,-5.945873,-0.8356676,-0.3158956,0.152177,43.03349,-5.4829,14.07466,1007.09
14.993331909,15.40796,13.74575,-2.329939,-0.8518011,-0.3365987,0.1005829,43.41169,-5.107135,14.07087,1007.09
15.025505066,30.27412,17.94788,-0.6751895,-0.8542353,-0.3273934,0.09682555,43.41695,-5.863717,14.52087,1007.092
15.060153008,35.55714,17.59277,5.392226,-0.9264924,-0.3415727,0.09979289,43.41695,-5.863717,14.52087,1007.092
15.092326164,41.45446,19.01321,8.211429,-1.101553,-0.2404863,0.06659178,43.41695,-5.863717,14.52087,1007.092
15.126974583,43.05165,9.957906,13.60469,-1.203329,-0.3305828,-0.03827719,42.28942,-5.079659,14.96923,1007.094
15.159148216,46.00031,3.329184,9.437169,-1.248555,-0.111679,-0.06738049,41.92856,-5.43837,16.31186,1007.092
15.193795681,-22.24888,-1.405617,-7.723197,-1.080624,-0.1496541,-0.1001085,41.92856,-5.43837,16.31186,1007.092
15.225969315,-9.655648,3.980219,-17.95813,-1.000922,-0.2562159,-0.1460747,42.31202,-5.819187,16.75807,1007.092
15.260617733,35.06569,5.40066,-21.57406,-0.9186721,-0.2539621,-0.1154936,41.92856,-5.43837,16.31186,1007.09
15.292790890,45.57029,7.353765,-24.45455,-0.957254,-0.1203706,-0.1256002,41.92856,-5.43837,16.31186,1007.094
15.327438831,19.46237,5.104734,-23.16753,-0.9184529,-0.09664024,-0.1074507,42.31857,-4.670102,17.19877,1007.094
15.359611988,4.534777,8.300725,-19.9806,-0.9097332,-0.1658927,-0.08159298,41.93563,-3.527018,16.74884,1007.094
15.394259930,20.38382,5.933325,-13.3616,-0.9841947,-0.2489584,-0.07531698,41.93563,-3.527018,16.74884,1007.094
15.426433563,15.59225,2.737334,-18.75486,-0.8737786,-0.1420737,-0.05377614,42.33142,-2.753065,18.08202,1007.094
15.458606720,-4.986938,10.49057,-21.81921,-0.8751599,-0.2792875,-0.03561447,41.94847,-1.609981,17.6321,1007.092
15.493254662,18.60234,9.661981,-16.11952,-0.9788072,-0.2905917,0.005265429,41.94847,-1.609981,17.6321,1007.094
15.525427818,26.58829,-1.701542,-15.87437,-1.01222,-0.261658,0.02220371,41.891,-1.984535,18.08056,1007.094
15.560075760,8.159171,-10.63848,-18.0807,-0.9191647,-0.226029,0.04476512,41.51987,-0.4489471,18.52133,1007.094
15.592248917,-9.164205,-5.489383,-4.413698,-1.077961,-0.3076282,0.06099813,41.51987,-0.4489471,18.52133,1007.094
15.626897812,20.07667,-17.44476,14.0337,-0.9897715,-0.3023891,0.04190244,41.8928,0.6834,18.06754,1007.094
15.659070969,-1.301113,-19.6346,17.28191,-0.8819404,-0.2507135,0.01481231,41.19991,0.6932424,18.07108,1007.094
15.693718910,-14.93866,-14.78143,32.17465,-0.9834481,-0.3802566,0.01902951,41.19991,0.6932424,18.07108,1007.096
15.725892067,1.954699,-15.96513,50.19304,-0.9687808,-0.3861071,0.02511041,42.69986,0.279265,17.17265,1007.097
15.760540485,-8.734192,-22.06119,50.74462,-0.9035403,-0.3720993,0.0583571,42.69305,-1.250954,16.73381,1007.097
15.792713642,-20.89741,-20.75912,45.35136,-0.912464,-0.3731873,0.1003654,42.69305,-1.250954,16.73381,1007.097
15.827361584,-21.14314,-24.31022,36.46474,-1.185847,-0.3264707,0.06570546,42.68021,-3.167991,15.85055,1007.099
15.859534740,-38.40508,-26.26332,10.41776,-0.9471301,-0.2313463,0.02955825,43.42299,-5.476899,14.96529,1007.099
15.894183159,-62.60867,-16.37943,-6.803892,-0.9000782,-0.2864825,0.02239866,43.42299,-5.476899,14.96529,1007.099
15.926356316,-6.952711,-10.69766,10.78548,-1.100696,-0.3841814,0.06395315,43.41066,-6.63167,14.07831,1007.099
15.961004257,26.03542,-26.50006,10.41776,-0.9466833,-0.1260803,0.1480298,44.15447,-7.416044,13.1856,1007.099
15.993177414,-10.7614,-21.46934,-15.01635,-0.7004223,-0.07386304,0.2174983,44.15447,-7.416044,13.1856,1007.097
16.025351048,-27.40904,-13.36099,-26.5996,-0.7830219,-0.08223711,0.1483101,43.39256,-7.792124,12.74505,1007.097
16.059999466,-23.2932,-8.507818,-12.19715,-0.8169191,-0.05660851,0.05099177,44.13688,-7.814231,11.84862,1007.096
16.092172623,-46.45247,-4.246498,5.392226,-0.8331494,-0.02718326,0.07982378,44.13739,-7.051964,11.8449,1007.096
16.126820564,-37.72935,8.71502,18.07864,-0.8291135,-0.1464867,0.09519055,44.13739,-7.051964,11.8449,1007.096
16.158993721,-13.28004,16.705,21.02042,-0.8500237,-0.1603391,0.1106955,44.5143,-8.581867,11.85041,1007.096
16.193642139,0.2346478,22.80105,21.572,-0.8827829,-0.1404457,0.1516531,44.14792,-8.565128,12.7449,1007.096
16.225815296,12.88931,23.86638,24.14606,-0.9709706,-0.1722421,0.1257039,44.14792,-8.565128,12.7449,1007.096
16.260463238,6.009107,18.95403,18.01735,-1.049343,-0.0706092,0.09979906,43.76946,-9.322027,12.75056,1007.096
16.292636395,-24.7061,15.81722,5.085791,-0.9982611,-0.140157,0.114655,43.78577,-10.82951,14.09684,1007.096
16.327284336,-5.109798,19.24995,-0.9816246,-1.000863,-0.2302358,0.1390007,43.78577,-10.82951,14.09684,1007.096
16.359458447,17.49659,19.42751,-4.16855,-1.005598,-0.1846248,0.1341189,43.40757,-11.20527,14.10064,1007.096
16.394105911,13.8722,17.23766,-11.70685,-0.9426425,-0.1477358,0.1748055,43.04645,-11.94512,15.44513,1007.094
16.426279545,20.99813,16.11315,-14.28091,-0.9239243,-0.1718477,0.207208,43.04645,-11.94512,15.44513,1007.094
16.460927010,9.264919,10.60894,-13.91319,-0.9195676,-0.1347041,0.2431415,42.68084,-10.78498,16.33405,1007.096
16.493100643,-0.5025172,8.892575,-13.54546,-0.897002,-0.1622345,0.2123381,42.68687,-10.39816,16.77847,1007.096
16.527749062,0.6646607,13.03553,-9.010225,-0.8915703,-0.2506216,0.1464888,42.68687,-10.39816,16.77847,1007.094
16.559922218,39.61154,16.64581,3.369754,-1.060346,-0.3072266,0.124461,42.31523,-9.624836,17.22296,1007.094
16.592095375,53.2491,1.316894,10.41776,-1.187782,-0.1876985,0.05867358,42.32679,-9.613466,18.11552,1007.096
16.626743317,12.27501,-12.05892,3.369754,-1.122958,-0.119389,-0.04210603,42.32679,-9.613466,18.11552,1007.094
16.658916474,-35.64071,-12.82832,-6.129735,-1.172748,-0.166954,-0.1369875,42.33834,-9.602097,19.00808,1007.094
16.693564892,-44.60955,-7.560858,-16.6711,-1.045334,-0.2250128,-0.2196309,42.33282,-9.226648,18.55994,1007.094
16.725738048,0.8489519,-1.405617,-23.84168,-0.9039129,-0.2896357,-0.2002753,42.33282,-9.226648,18.55994,1007.094
16.760385990,37.89149,4.749624,-28.31564,-0.9215911,-0.1432022,-0.1680552,42.70421,-10.3811,18.11731,1007.094
16.792559147,15.22367,0.0740084,-31.07355,-0.9423155,-0.02539214,-0.1360426,42.70472,-9.618835,18.11359,1007.092
16.827208042,-26.36472,3.092444,-28.19306,-0.9473118,-0.04578364,-0.1400201,42.70472,-9.618835,18.11359,1007.094
16.859381199,-26.97902,3.506739,-18.75486,-0.9530647,-0.1350838,-0.1426306,42.71204,-7.32635,18.5487,1007.094
16.894029140,-10.02423,5.341475,-9.071512,-0.9673014,-0.131743,-0.09619826,43.45663,-6.967323,17.65041,1007.094
16.926202297,-4.004051,4.394515,-4.842707,-0.9574294,-0.08240289,-0.04864766,43.45663,-6.967323,17.65041,1007.094
16.960850716,-16.47442,4.394515,-2.575087,-0.9407159,-0.1065531,-0.02249274,43.85242,-6.193371,18.9836,1007.094
16.993023872,-17.94875,4.453699,4.90193,-0.9780806,-0.1496585,-0.03454944,43.09602,-6.9449,18.99119,1007.094
17.027671814,-9.655648,-1.405617,13.17568,-0.9547452,-0.1687143,-0.03588828,43.0952,-6.945713,18.92743,1007.094
17.059844971,-17.76446,-1.405617,16.66904,-0.9336421,-0.1513016,-0.03015765,43.0952,-6.945713,18.92743,1007.094
17.092018127,-36.99218,-4.601608,20.65269,-0.9851204,-0.1657714,-0.05148657,42.34015,-6.934163,18.99506,1007.094
17.126666546,-55.78989,-7.087378,21.51071,-0.9879565,-0.2009365,-0.08163398,42.71731,-8.082932,18.9987,1007.094
17.158840179,-59.0457,-7.915968,19.54953,-0.9676523,-0.2626258,-0.07462002,42.71731,-8.082932,18.9987,1007.094
17.193487644,-49.83114,-6.081233,17.64963,-0.9721172,-0.2597688,-0.08467679,43.44905,-9.640942,17.21716,1007.094
17.225661278,-46.20675,-4.956718,19.91725,-1.003721,-0.2957733,-0.05334876,43.43621,-11.55798,16.3339,1007.094
17.260308743,-34.47353,-9.099669,25.31051,-1.046629,-0.2520439,-0.01209992,43.43621,-11.55798,16.3339,1007.092
17.292482853,-56.95707,-17.91823,21.44943,-0.9826168,-0.1909086,0.02636675,42.67352,-13.07746,15.89893,1007.092
17.327130795,-85.7065,-20.46319,11.33707,-0.973748,-0.2295231,-0.002954316,42.27195,-13.8571,14.11946,1007.09
17.359303951,-85.7065,-21.58771,4.350347,-0.9678329,-0.274433,-0.03229972,42.27195,-13.8571,14.11946,1007.09
17.393951893,-54.00841,-20.58156,7.292124,-0.9509159,-0.2949758,-0.04178492,43.01525,-15.40374,13.23048,1007.09
17.426125050,-45.46958,-26.50006,14.34013,-0.9686298,-0.1679175,-0.004422191,43.36435,-16.58012,11.06648,1007.09
17.460773468,-75.8162,-32.12264,18.50765,-0.9689686,-0.1837372,0.02099653,43.36435,-16.58012,11.06648,1007.089
17.492946625,-98.60689,-31.53079,16.66904,-1.138826,-0.1287285,-0.06758094,43.34021,-18.1274,9.288797,1007.089
17.527594566,-136.7552,-24.54696,8.027568,-1.1526,-0.1321461,-0.07904857,43.31106,-18.53695,7.059254,1007.087
17.559767723,-94.73677,-17.56313,5.392226,-0.99325,-0.305814,0.03612267,43.31106,-18.53695,7.059254,1007.093
17.594416618,14.36364,-11.23033,6.311531,-0.8417571,-0.3078582,0.1204881,42.89742,-20.09023,4.390949,1007.093
17.626589775,59.94501,-15.90594,7.475985,-0.8390033,-0.02718963,0.1382003,42.49612,-20.48873,2.609621,1007.091
17.658762932,4.166194,-18.39171,11.15321,-0.8492021,0.1348642,0.1237254,42.49612,-20.48873,2.609621,1007.089
17.693410873,-98.97547,-14.30795,14.83043,-0.8681375,0.08531342,0.04299972,42.87932,-21.25068,3.057688,1007.086
17.725584030,-122.8719,-9.277224,13.35954,-0.8989235,-0.1267471,-0.03365318,42.85729,-20.89148,1.334459,1007.086
17.760232449,-61.38005,-4.187313,11.45964,-0.9569224,-0.2506326,-0.02304732,42.85729,-20.89148,1.334459,1007.086
17.792405605,-3.758329,0.3699335,5.269652,-1.020904,-0.1392181,0.03293414,42.44391,-22.06362,-1.335708,1007.086
17.827053547,6.623411,0.5474885,-4.229837,-1.000086,-0.07716782,0.09928536,42.44339,-22.82589,-1.331986,1007.084
17.859226704,10.18638,-4.542423,-8.642503,-1.015679,-0.03890449,0.1416803,42.44339,-22.82589,-1.331986,1007.086
17.893875122,-16.78158,-11.99973,-12.93259,-0.9531584,0.0497764,0.163518,42.81581,-22.45581,-1.782062,1007.084
17.926048279,-45.101,-9.454779,-13.30032,-1.005941,-0.01769611,0.1287503,42.43813,-22.0693,-1.781988,1007.084
17.960696220,-29.31338,-15.6692,-9.377947,-1.032375,-0.04375236,0.1316741,42.43813,-22.0693,-1.781988,1007.084
17.992869377,-35.2107,-19.27949,-11.09398,-1.013231,0.006062292,0.1208202,42.80503,-21.32378,-2.680204,1007.082
18.027517319,-44.42526,-22.23874,-12.25844,-0.9488213,-0.02130517,0.07516757,42.41527,-21.71091,-3.568971,1007.078
18.059691429,-45.77673,-21.64689,-8.70379,-0.9406716,-0.0359864,0.0648485,42.41527,-21.71091,-3.568971,1007.078
18.094339371,-56.28133,-20.8183,-8.948938,-0.9443508,-0.04684734,0.03876533,43.15434,-20.97643,-4.915402,1007.078
18.126512527,-58.06281,-19.57541,-11.27784,-0.9258315,-0.07404162,0.04897232,42.74802,-20.23722,-7.148594,1007.078
18.158685684,-53.82412,-17.91823,-14.95507,-0.9082002,-0.07310398,0.05604552,42.74802,-20.23722,-7.148594,1007.078
18.193333626,-51.73548,-13.53854,-17.34526,-0.8897041,-0.08532862,0.05625415,43.48238,-19.12649,-8.879412,1007.078
18.225506783,-49.33969,-10.9344,-13.11646,-0.8897446,-0.08826685,0.05285631,43.0934,-18.37022,-9.77376,1007.08
18.260155201,-61.44149,-6.732268,-5.762012,-0.930832,-0.1326388,0.06299588,43.45478,-17.24924,-11.12012,1007.08
18.292328358,-63.10011,-4.246498,5.759948,-1.022458,-0.1934529,0.04840751,43.45478,-17.24924,-11.12012,1007.08
18.326976299,-62.11722,-5.903678,18.44636,-1.03926,-0.2307964,0.04150844,43.06002,-16.49866,-12.46075,1007.08
18.359149456,-64.6973,-5.134273,20.34626,-0.9325801,-0.217998,0.07050248,42.6713,-15.36126,-13.35696,1007.08
18.393798351,-69.30458,0.9025986,17.40448,-0.9124894,-0.3117971,0.06761373,42.6713,-15.36126,-13.35696,1007.084
18.425971508,-47.49678,4.216959,21.93972,-1.01158,-0.3364754,0.07652889,42.28128,-16.12953,-14.24386,1007.084
18.460619450,-28.39192,2.323039,26.2911,-1.086771,-0.2979747,0.1112879,42.26447,-15.38432,-15.58643,1007.084
18.492792606,-39.01939,-5.015903,24.08477,-0.9970112,-0.2066079,0.1213255,42.26447,-15.38432,-15.58643,1007.084
18.527441025,-90.98952,-6.258788,15.07557,-0.846444,-0.1819304,0.08252808,41.88653,-15.37895,-15.58449,1007.082
18.559614182,-84.78504,-2.826057,21.51071,-0.9195738,-0.3627301,0.004118007,42.25817,-16.15227,-16.02899,1007.082
18.594262123,-73.29755,0.6066735,27.39427,-0.9302977,-0.2674403,0.01753563,42.25817,-16.15227,-16.02899,1007.082
18.626435280,-84.53932,3.921034,25.12665,-0.9333265,-0.310034,-0.0319512,41.1081,-15.77127,-17.30013,1007.082
18.658608437,-89.14661,11.37835,25.73952,-0.9266182,-0.3271053,-0.03842052,41.40154,-14.65428,-19.02869,1007.082
18.693256855,-69.61173,17.77033,26.10724,-0.9635782,-0.3780634,0.001510206,41.40154,-14.65428,-19.02869,1007.082
18.725430489,-54.37699,19.60506,21.08171,-0.9231835,-0.3092506,0.01326857,41.02309,-15.41117,-19.02304,1007.082
18.760077953,-68.26026,18.18462,14.34013,-0.8838816,-0.300018,0.03996992,40.70313,-14.26898,-19.47329,1007.084
18.792251110,-63.59155,19.48669,11.45964,-0.9453668,-0.3200207,0.05001873,40.70313,-14.26898,-19.47329,1007.086
18.826899052,-47.37392,17.4744,7.843707,-1.017179,-0.3250538,0.04341733,41.02411,-13.88664,-19.03048,1007.086
18.859073162,-40.37085,15.69885,0.3054028,-0.9757906,-0.2891122,0.0732114,41.83168,-13.52851,-19.92909,1007.086
18.893721104,-26.54901,12.26612,-12.13586,-0.9927275,-0.2342542,0.06369971,41.83168,-13.52851,-19.92909,1007.086
18.925894260,-35.57928,5.6374,-25.12871,-0.9664887,-0.1431305,0.0642061,40.71019,-12.35763,-19.03631,1007.087
18.960542202,-47.18963,3.684294,-25.49643,-0.983722,-0.134481,0.04178424,41.46055,-11.99292,-19.48832,1007.089
18.992715359,-43.93382,-0.8137668,-16.54853,-0.9972711,-0.1192809,-0.01001997,41.46055,-11.99292,-19.48832,1007.091
19.027363777,-57.0185,-0.8729518,-12.4423,-0.934119,-0.1290449,-0.03960971,42.21142,-10.86594,-19.94405,1007.091
19.059536934,-49.03254,1.731189,-8.765077,-0.9325672,-0.1729397,-0.06601402,42.20668,-9.347094,-20.39778,1007.091
19.094184876,-31.40201,1.967929,-3.187957,-0.9901474,-0.1799044,-0.06216016,42.20167,-8.209377,-20.84964,1007.091
19.126358032,-22.6789,-2.175022,0.1828288,-0.9937779,-0.08876267,-0.01558496,42.20167,-8.209377,-20.84964,1007.087
19.161006451,-53.45553,-6.317973,0.8569861,-1.004503,-0.01330008,0.007309209,41.83028,-7.054924,-20.40701,1007.087
19.193180084,-94.42962,-8.981298,1.653717,-1.052911,-0.03442493,0.006140751,41.38409,-6.292078,-20.85475,1007.087
19.225353241,-120.4147,-11.17114,6.311531,-1.043363,-0.1439156,-0.02425295,41.38409,-6.292078,-20.85475,1007.089
19.260001183,-88.16372,-11.05277,9.314595,-1.081115,-0.3218054,-0.01717324,42.19217,-5.171679,-21.75709,1007.093
19.292174339,-34.53497,-13.65691,4.411633,-0.9667416,-0.3052815,-0.003644249,40.98483,-3.641514,-22.65097,1007.09
19.326822758,0.111787,-13.95284,-3.984689,-0.970225,-0.2212221,0.005757235,40.98483,-3.641514,-22.65097,1007.096
19.358995915,13.81077,-19.2203,-12.19715,-1.013351,-0.05635241,0.02053283,41.4205,-2.891195,-23.10323,1007.098
19.393643856,-24.39895,-22.29793,-19.30644,-1.035017,0.03686896,0.01041753,41.42076,-2.510062,-23.10509,1007.098
19.425817013,-46.94391,-25.07962,-25.55772,-1.043355,-0.009550335,0.02794662,41.42076,-2.510062,-23.10509,1007.094
19.460464954,-42.21377,-27.74295,-27.15118,-0.9705831,0.03797926,0.07007539,40.57903,-2.140036,-24.88788,1007.096
19.492638588,-48.97111,-29.69605,-24.14812,-0.9648132,0.1127878,0.08172426,40.5685,-0.6268718,-25.78788,1007.096
19.527286530,-84.78504,-34.54922,-19.36773,-0.9411196,0.1289121,0.04789614,40.5685,-0.6268718,-25.78788,1007.097
19.559459686,-125.2063,-31.58998,-11.27784,-0.9281369,0.03876453,0.01039986,39.05807,1.363792,-25.78976,1007.097
19.594107628,-133.868,-30.99813,-2.820235,-0.9758526,-0.1073467,-0.02217143,39.04832,4.020356,-26.69535,1007.097
19.626280785,-120.3533,-33.12878,3.553615,-0.9089912,-0.168082,-0.05028798,39.04832,4.020356,-26.69535,1007.099
19.660929680,-102.7842,-28.09806,7.78242,-0.9566144,-0.2584985,-0.09878895,37.91161,7.080657,-27.08696,1007.099
19.693102837,-77.65912,-24.25103,11.27578,-0.9739734,-0.1900755,-0.04889895,37.53573,10.13509,-27.09991,1007.097
19.725275993,-80.11633,-18.33253,10.7242,-0.8983954,-0.1973141,0.005284091,37.53573,10.13509,-27.09991,1007.097
19.759923935,-63.03867,-9.277224,12.86924,-0.9203697,-0.2745893,0.04100204,36.40294,11.67573,-27.10155,1007.097
19.792097092,-34.22781,-9.218039,19.05923,-0.9857798,-0.246272,0.08329778,36.79212,12.44319,-26.2784,1007.097
19.826745510,-23.2932,-14.36714,20.65269,-0.9811471,-0.1919153,0.08563067,36.79212,12.44319,-26.2784,1007.097
19.858918667,-54.06984,-12.94669,18.81409,-0.9407206,-0.1105006,0.09508263,36.40969,14.34854,-26.73205,1007.097
19.893566608,-68.81313,-8.922113,23.22675,-0.9458732,-0.2054665,0.05048585,36.79315,13.96772,-26.28584,1007.099
19.925739765,-59.0457,-4.719978,29.47803,-1.005844,-0.2288152,0.06820493,36.79315,13.96772,-26.28584,1007.099
19.960388184,-49.70828,-5.311828,29.84575,-1.007541,-0.2367947,0.102377,36.7997,15.11681,-25.84515,1007.099
19.992561817,-32.44633,-2.411762,24.94279,-0.9570307,-0.2223127,0.124679,36.0496,15.13323,-25.395,1007.099
20.027209282,-26.48758,-0.3402867,18.87537,-0.9341307,-0.1963463,0.1078094,36.0496,15.13323,-25.395,1007.099
20.059382916,-23.23177,1.080154,17.95607,-0.956968,-0.1768002,0.1101116,37.18945,15.50394,-24.95638,1007.099
20.094031334,-21.8803,2.441409,18.50765,-0.9095803,-0.1634478,0.1097795,37.57265,14.74199,-24.50831,1007.099
20.126204491,-9.041345,3.684294,17.83349,-0.9046911,-0.2253231,0.08271385,37.57265,14.74199,-24.50831,1007.099
20.160852432,-9.778509,6.761915,8.701725,-0.8001353,-0.1348172,0.0535644,37.20075,15.13418,-24.06196,1007.099
20.193025589,-26.54901,17.11929,6.863114,-0.7880038,-0.2108602,0.08222627,37.59025,15.14018,-23.17133,1007.097
20.227673531,-13.28004,17.65196,11.21449,-0.9176642,-0.2279373,0.05003738,38.34613,15.12944,-23.1752,1007.101
20.259846687,-15.12296,20.78876,1.531143,-0.9376694,-0.2452441,0.05875736,38.34613,15.12944,-23.1752,1007.101
20.292020321,5.271942,22.50513,-6.43617,-1.034686,-0.3099576,0.1015451,38.74089,14.37886,-21.83457,1007.101
20.326668263,29.65982,15.28456,-8.581216,-1.154095,-0.2188004,0.07545482,39.12512,15.14145,-21.39394,1007.101
20.358841419,-0.5025172,9.247685,-21.63535,-1.106423,-0.07510984,0.04582863,39.12512,15.14145,-21.39394,1007.099
20.393489361,-35.02641,15.22537,-33.15731,-1.042308,-0.1211577,0.03231875,39.1309,15.14713,-20.94766,1007.098
20.425662518,15.34653,10.96405,-10.66497,-1.140995,-0.1300326,0.1396883,39.14875,15.92645,-19.61254,1007.098
20.460311413,63.69227,-0.5770267,-2.207365,-1.197786,0.2955469,0.02804688,39.14875,15.92645,-19.61254,1007.098
20.492484570,-56.34276,-3.891387,-24.63841,-0.9425686,0.09419067,-0.04974048,38.38183,16.68809,-20.50496,1007.096
20.527132511,-42.45949,4.157774,-31.01227,-0.8958467,-0.2691296,-0.1794555,39.13719,15.91508,-20.5051,1007.096
20.559305668,29.10694,3.743479,-23.71911,-0.9209046,-0.1642637,-0.1923352,39.13719,15.91508,-20.5051,1007.096
20.593954086,52.75765,-2.234207,-14.7712,-0.9312344,-0.103395,-0.173421,37.6438,17.47815,-19.16597,1007.094
20.626127243,17.43516,-4.187313,-9.132799,-0.9813576,0.007682165,-0.1522756,38.38285,18.21262,-20.5124,1007.094
20.660775185,-45.7153,-0.04436163,-10.5424,-1.042115,-0.08456518,-0.1948851,38.38285,18.21262,-20.5124,1007.094
20.692948341,-54.62271,2.559779,-20.04189,-0.9866378,-0.1328553,-0.1900169,37.62094,17.83654,-20.95295,1007.093
20.727596283,-29.00623,13.27227,-33.7089,-0.8716223,-0.1833724,-0.1837946,37.63879,18.61586,-19.61783,1007.093
20.759769916,13.38076,27.00319,-38.30542,-0.8267644,-0.1246715,-0.1586653,37.63879,18.61586,-19.61783,1007.093
20.791943550,31.25701,40.7933,-22.73852,-0.8578208,-0.1238735,-0.1381249,36.88946,19.77568,-19.17327,1007.091
20.826591015,85.43863,39.43204,18.7528,-0.986571,-0.2590434,-0.06284596,36.90178,20.93045,-18.28629,1007.091
20.858764648,113.2052,19.48669,43.88047,-0.9721959,-0.1332575,0.0190328,36.90178,20.93045,-18.28629,1007.089
20.893412113,22.04244,11.91101,41.18385,-0.96364,-0.03445153,0.06025548,37.65741,20.53858,-18.28829,1007.089
20.925585747,-61.0729,11.79264,25.98467,-1.008798,-0.1364633,0.02031191,38.40571,17.85423,-18.72542,1007.087
20.960234165,-57.81709,12.02938,16.73033,-1.025643,-0.3807014,-0.06589433,38.40571,17.85423,-18.72542,1007.089
20.992407322,26.64972,7.590505,16.3626,-1.019886,-0.4180545,-0.05950801,39.5385,16.31359,-18.72377,1007.089
21.027055264,85.68436,3.092444,22.24616,-1.07949,-0.3424594,0.01204329,39.9379,16.32933,-17.06809,1007.089
21.059228420,101.2262,-18.86519,24.45249,-1.158126,-0.1831128,0.04301068,39.9379,16.32933,-17.06809,1007.09
21.093876839,9.326349,-38.15951,5.208365,-0.9907568,-0.02300192,0.07988288,40.29438,16.30285,-18.72764,1007.09
21.126049995,-82.02068,-41.88817,-18.93872,-1.094712,-0.07509338,-0.07044239,39.89101,12.85528,-20.49408,1007.089
21.160697937,-128.2778,-37.15337,-37.32483,-1.023113,-0.122889,-0.1799544,39.89101,12.85528,-20.49408,1007.089
21.192871094,-72.86755,-27.44702,-34.87335,-1.09196,-0.3246409,-0.2031472,39.13488,12.48488,-20.48836,1007.089
21.227519512,31.19558,-30.99813,-19.85803,-1.082519,-0.1341191,-0.1009267,38.00363,16.31232,-20.50116,1007.087
21.259693146,28.30835,-42.59839,-13.72933,-0.905663,0.008211927,0.02825425,37.62646,17.46109,-20.50481,1007.087
21.294340611,-15.06152,-39.99425,-12.56487,-0.8109881,0.07730463,0.1113264,37.62646,17.46109,-20.50481,1007.085
21.326514244,-54.86843,-31.53079,-9.255373,-0.8637179,0.04369252,0.1245553,36.84195,17.82454,-22.73421,1007.085
21.358687401,-77.16767,-35.08189,-1.104199,-1.007404,-0.1037637,0.1704703,36.08658,18.59754,-22.73406,1007.085
21.393335342,-41.10802,-30.93894,10.54034,-1.000988,-0.1462454,0.1416222,36.08658,18.59754,-22.73406,1007.085
21.425508499,-12.35859,-29.5185,15.25944,-0.9298058,-0.08959784,0.1062391,34.95328,19.37591,-22.73198,1007.081
21.460156918,-21.02028,-17.03046,14.52399,-0.8198416,-0.07980029,0.06287783,34.5643,20.13218,-23.62633,1007.081
21.492330074,-13.71006,-7.915968,21.75586,-0.8671728,-0.1573786,0.04291794,34.5643,20.13218,-23.62633,1007.081
21.526978016,-7.689876,-5.903678,25.73952,-0.8581343,-0.1064159,0.04855574,34.94198,19.74568,-23.6264,1007.083
21.559151173,-26.48758,-3.121982,23.10418,-0.8474234,-0.1514639,0.06736439,34.56404,19.75105,-23.62447,1007.083
21.593799591,-20.22168,5.104734,23.83962,-0.9442548,-0.2164928,0.1323197,34.56404,19.75105,-23.62447,1007.083
21.625972748,17.37373,2.559779,25.18793,-1.071729,-0.2648734,0.2593942,35.7089,18.98404,-22.73399,1007.083
21.660620690,81.44566,-4.305683,20.34626,-1.021064,-0.2120489,0.2815289,34.9475,19.37023,-23.17826,1007.083
21.692793846,55.03058,-4.660793,5.453513,-0.8533396,0.082371,0.2375652,34.9475,19.37023,-23.17826,1007.085
21.727442741,-55.85132,7.76806,3.063319,-0.8150774,0.04665318,0.1622038,35.68476,17.43677,-24.51167,1007.085
21.759615898,-44.97813,16.05396,25.00407,-0.8135592,-0.2684424,0.08873801,36.0677,16.29369,-24.06174,1007.085
21.794263840,2.446143,19.13158,39.34523,-0.8970125,-0.2206811,0.1231684,36.0677,16.29369,-24.06174,1007.086
21.826436996,8.097741,25.64194,32.11337,-1.236922,-0.1718831,0.1267424,36.83514,16.29432,-23.17304,1007.088
21.858610153,-28.02334,8.063985,-7.478049,-0.7794349,-0.02459116,0.1988798,37.23594,15.93056,-21.38799,1007.084
21.893258095,-53.33267,26.82564,-24.76099,-0.9560555,-0.2406565,0.07535473,37.23594,15.93056,-21.38799,1007.084
21.925431728,14.05649,24.28068,6.12767,-1.043131,-0.3428977,0.04158438,37.9913,15.15755,-21.38814,1007.084
21.960079670,34.75854,22.03165,22.30745,-1.284733,-0.09374213,0.03239685,38.01544,16.70482,-19.61046,1007.086
21.992252827,-49.33969,4.276145,2.082727,-1.264912,-0.004997061,-0.09093034,38.01544,16.70482,-19.61046,1007.086
22.026900768,-102.907,8.892575,-34.75077,-0.8275434,-0.155882,-0.1781953,38.77081,15.93182,-19.61061,1007.086
22.059073925,-35.2107,23.74801,-42.22779,-0.8173508,-0.3537257,-0.1471454,38.78159,14.79979,-18.71246,1007.086
22.093722343,75.73263,23.8072,-24.27069,-0.9461517,-0.1838845,-0.1093575,38.78159,14.79979,-18.71246,1007.086
22.125895977,59.515,8.0048,-18.20328,-0.9905192,0.04454231,-0.0988663,38.04923,17.88071,-17.06587,1007.086
22.160543442,-43.13522,4.927179,-12.68745,-0.975968,-0.003521657,-0.0280624,38.04453,18.25697,-17.45026,1007.086
22.192717075,-46.94391,3.565924,-6.681318,-0.970655,-0.1857917,-0.1207125,38.04453,18.25697,-17.45026,1007.086
22.227365494,-25.07468,1.612819,-16.36467,-0.9968067,-0.1603334,-0.1091726,38.42247,18.2516,-17.45219,1007.086
22.259538651,11.29212,3.151629,-31.87028,-1.052234,-0.2425243,-0.103067,38.05552,18.64866,-16.62331,1007.086
22.294186592,38.19864,3.033259,-39.96017,-1.059337,-0.1170834,-0.07979464,37.67836,19.79743,-16.62696,1007.086
22.326359749,41.82304,1.316894,-37.9377,-1.089,-0.1294131,-0.06130352,37.67836,19.79743,-16.62696,1007.086
22.361007691,29.2298,-6.969008,-33.15731,-1.006113,-0.1246092,-0.01431939,37.67258,19.79175,-17.07324,1007.088
22.393180847,32.97706,-12.35484,-24.76099,-0.9558179,-0.1896283,0.02082525,36.52937,20.56037,-17.83621,1007.088
22.425354004,28.18549,-17.68149,-17.6517,-0.9713066,-0.188468,0.03543932,36.52937,20.56037,-17.83621,1007.088
22.460002422,7.360576,-20.22645,-17.59041,-0.9006798,-0.2165033,0.03310318,35.76245,21.32201,-18.72863,1007.088
22.492175579,-14.50865,-17.68149,-20.77733,-0.9115286,-0.326769,0.01494339,35.74511,21.30495,-20.06747,1007.088
22.526823521,10.30924,-11.76299,-19.67417,-0.8956391,-0.4116686,0.03048319,35.74511,21.30495,-20.06747,1007.089
22.558996678,45.44743,-10.9344,-13.8519,-0.898252,-0.4128181,0.06857605,34.61733,21.70788,-19.61725,1007.091
22.593645573,50.73045,-21.52852,-14.46477,-0.9056228,-0.2939449,0.1211988,34.22231,22.07732,-20.95601,1007.093
22.625818730,-7.689876,-25.02044,-20.77733,-0.8682447,-0.2377707,0.1285431,34.22231,22.07732,-20.95601,1007.093
22.660466671,-44.79385,-23.71837,-24.6997,-0.8639439,-0.3509559,0.05623393,33.45462,21.69556,-21.84285,1007.091
22.692639828,-18.93164,-14.72225,-22.55466,-0.8653817,-0.41762,0.03352579,33.08271,22.08774,-21.39649,1007.092
22.727287769,22.71818,-7.620043,-12.50358,-0.9060062,-0.37743,0.05785416,33.08271,22.08774,-21.39649,1007.092
22.759460926,23.27105,-7.028193,-1.90093,-0.9180338,-0.2457567,0.1308698,31.93786,22.85475,-22.28698,1007.092
22.794109344,1.831839,0.4291185,8.701725,-0.9441657,-0.2908814,0.1789416,31.92656,23.22451,-23.1814,1007.094
22.826282501,6.131968,2.855704,17.40448,-1.113263,-0.2351819,0.1804966,31.92656,23.22451,-23.1814,1007.094
22.860930443,14.4865,-0.5178417,24.26863,-1.059612,-0.2906386,0.2619607,32.30424,22.83801,-23.18147,1007.094
22.893103600,49.37898,-9.158854,27.33298,-1.040299,-0.2300308,0.2661362,32.30398,22.45687,-23.17961,1007.094
22.925276756,34.57425,-20.10808,23.04289,-0.9639125,-0.09477396,0.2313525,32.30398,22.45687,-23.17961,1007.096
22.959925175,-23.66178,-23.24489,14.70785,-0.9629473,-0.0744414,0.1621032,32.27933,20.14734,-24.95357,1007.096
22.992098808,-50.62973,-25.19799,12.93053,-0.9140229,-0.1591199,0.1016627,33.02891,19.36865,-25.39999,1007.096
23.026746273,-50.19972,-20.58156,17.95607,-0.933217,-0.2031404,0.04556694,33.02891,19.36865,-25.39999,1007.096
23.058919907,-38.22079,-17.44476,21.69457,-0.9307002,-0.1982471,0.05233179,33.03521,20.1366,-24.95744,1007.098
23.093568325,-25.81185,-14.95899,19.79468,-0.8297542,-0.1775716,0.09204827,32.27907,19.7662,-24.95171,1007.096
23.125741482,-22.12602,-10.40174,15.32072,-0.7898847,-0.1755227,0.1316991,32.27907,19.7662,-24.95171,1007.096
23.160389423,-25.75042,-10.57929,11.15321,-0.8042872,-0.1447693,0.145101,32.66356,20.90992,-24.51294,1007.094
23.192562580,-49.58542,-8.448633,8.456576,-0.8033886,-0.1419431,0.1345119,32.65778,20.90423,-24.95922,1007.094
23.227210522,-48.5411,1.731189,14.40142,-1.006196,-0.2383976,0.1471771,32.65778,20.90423,-24.95922,1007.09
23.259383678,-20.40597,2.263854,25.3718,-1.027526,-0.2667308,0.2358305,31.90794,21.30179,-24.51093,1007.09
23.294032097,15.16224,-1.760727,22.92031,-0.8972788,-0.2403782,0.2753204,33.05331,21.29705,-23.62418,1007.092
23.326205254,9.080627,2.914889,11.45964,-0.8196697,-0.1305308,0.2822497,33.05883,20.9216,-23.17603,1007.094
23.360853195,-15.00009,9.07013,14.89171,-0.8658382,-0.1967848,0.2209204,33.05883,20.9216,-23.17603,1007.094
23.393026352,-13.89435,11.43753,25.31051,-0.8402752,-0.2407077,0.2063418,33.43677,20.91624,-23.17797,1007.095
23.425199509,-24.15322,14.98863,28.31357,-0.8351227,-0.2849352,0.2020731,33.8142,20.1486,-23.17618,1007.095
23.459848404,-15.73726,28.66037,28.98773,-1.132274,-0.2964438,0.154623,33.8142,20.1486,-23.17618,1007.095
23.492021561,-14.32436,25.58275,16.11745,-0.99878,-0.2625628,0.2283666,34.20947,20.16029,-21.83927,1007.095
23.526669502,18.04947,24.51742,2.205301,-0.9494303,-0.3497188,0.1616357,35.73227,19.38792,-20.95073,1007.095
23.558842659,58.59354,24.75416,9.682317,-1.061335,-0.2927264,0.1159138,35.73227,19.38792,-20.95073,1007.095
23.593490601,26.09685,19.0724,19.24309,-1.272827,-0.1158311,0.008003678,35.36589,19.40465,-20.05623,1007.095
23.625663757,-69.12029,10.54976,1.960153,-1.123986,-0.1324501,-0.1000441,37.25455,17.85328,-20.05846,1007.095
23.660312176,-62.97724,4.394515,-13.42289,-0.9030721,-0.349726,-0.1872825,37.25455,17.85328,-20.05846,1007.095
23.692485332,4.657638,11.91101,-22.43208,-0.8418428,-0.3362799,-0.1665351,37.26637,18.24578,-19.16776,1007.095
23.727133274,26.03542,12.32531,-30.46068,-0.9023926,-0.1460838,-0.08872816,37.65638,19.01405,-18.28085,1007.095
23.759306431,14.91652,13.21308,-30.21553,-0.9710521,-0.1427063,-0.07263567,37.65638,19.01405,-18.28085,1007.095
23.793954849,-8.611331,10.25383,-28.25435,-1.043027,-0.08457666,-0.07100284,36.52333,20.17356,-18.28063,1007.091
23.826128006,-9.409926,9.30687,-23.41267,-1.034383,-0.1771095,-0.04292638,36.52308,19.79242,-18.27877,1007.091
23.860775948,24.06965,12.20694,-24.63841,-0.900267,-0.1367852,-0.01444342,36.52308,19.79242,-18.27877,1007.091
23.892949104,45.32457,14.27841,-23.35139,-0.9670801,-0.2186215,0.0303313,36.52988,21.32264,-17.83993,1007.091
23.927597046,104.2978,3.625109,-11.76814,-1.05447,-0.2052037,0.07752931,36.14616,21.32232,-18.28428,1007.091
23.959770203,91.0288,-8.211893,-5.271716,-1.022496,-0.110388,0.1199466,36.14616,21.32232,-18.28428,1007.09
23.991943836,39.36582,-10.57929,-5.823299,-1.019498,-0.1576916,0.09301866,35.75089,21.31064,-19.62119,1007.09
24.026592255,-11.86714,-13.47936,-14.58734,-0.9419736,-0.2775043,0.0267196,35.72701,20.1445,-21.40073,1007.091
24.058765411,12.76645,-10.57929,-22.55466,-0.9021714,-0.375057,-0.009641985,35.72701,20.1445,-21.40073,1007.091
24.093413353,33.28421,-1.583172,-27.94791,-0.8448104,-0.3373806,0.00362937,35.34303,19.76305,-21.84321,1007.093
24.125586510,42.19162,6.11088,-26.1093,-0.8273958,-0.3178183,0.03399412,34.58138,19.7681,-22.28563,1007.093
24.160234928,31.62559,9.661981,-16.42595,-0.7947266,-0.2996664,0.08011088,34.58138,19.7681,-22.28563,1007.093
24.192408085,20.1381,13.33145,-7.110327,-0.815271,-0.3489328,0.09821241,34.57033,20.519,-23.18191,1007.093
24.227056027,41.3316,16.05396,10.96934,-0.9680288,-0.4743999,0.1574074,34.19817,20.53005,-22.73369,1007.093
24.259229183,91.6431,9.484426,23.53319,-1.116127,-0.4014196,0.2104829,34.19817,20.53005,-22.73369,1007.093
24.293877125,56.32061,-14.60388,7.414698,-0.9721859,-0.2441352,0.3063543,34.1861,19.75641,-23.62253,1007.093
24.326050282,27.32546,-24.42859,-8.336068,-0.9456043,-0.2865736,0.2961164,35.30182,18.57985,-24.9616,1007.093
24.360698700,19.40094,-35.79211,-8.090919,-1.027971,-0.2284497,0.1643323,35.28897,16.66282,-25.84485,1007.095
24.392872334,-47.86536,-34.19411,-5.210429,-1.083641,-0.05073904,0.07377293,35.28897,16.66282,-25.84485,1007.091
24.427519798,-82.8807,-25.19799,1.531143,-1.074368,-0.2731133,0.0072652,34.14442,16.66837,-26.66786,1007.093
24.459693432,-19.54594,-29.5185,7.475985,-0.9575925,-0.31273,0.04344492,33.38354,17.81682,-27.11585,1007.093
24.494341850,1.094674,-31.47161,1.776291,-0.812749,-0.02350318,0.06664976,33.38354,17.81682,-27.11585,1007.093
24.526515007,-65.3116,-28.21643,-2.881522,-0.7766035,0.009714577,0.05453636,32.62265,18.96527,-27.56385,1007.094
24.558688164,-98.72974,-19.69378,4.28906,-0.8151254,-0.06353208,0.03549397,32.25049,18.97632,-27.11563,1007.094
24.593336105,-81.09922,-9.336409,24.02348,-0.8278332,-0.201267,0.04170705,32.25049,18.97632,-27.11563,1007.096
24.625509262,-37.79078,-3.773017,37.20019,-0.8356738,-0.234178,0.1118808,31.50142,20.51728,-26.67293,1007.096
24.660157204,-41.90662,4.512884,37.32277,-0.906073,-0.2170952,0.2047404,31.90293,22.4395,-24.9628,1007.098
24.692330360,-39.26511,7.76806,37.69049,-1.058234,-0.3550012,0.2247853,31.90293,22.4395,-24.9628,1007.098
24.726978779,-22.61747,4.039404,33.46168,-1.003349,-0.3652188,0.2569649,33.03623,21.66113,-24.96488,1007.094
24.759151936,-5.171228,1.198524,21.572,-0.9825974,-0.3897125,0.2411454,33.04727,20.91023,-24.0686,1007.094
24.793799877,9.756362,1.080154,9.00816,-1.032558,-0.3422439,0.196213,33.04727,20.91023,-24.0686,1007.094
24.825973034,7.483437,-1.760727,-0.5526155,-0.9761336,-0.3112595,0.1593099,33.81497,21.292,-23.18176,1007.094
24.860621929,10.49353,-2.352577,-5.087855,-0.8706545,-0.2667454,0.1461607,33.8029,20.51836,-24.0706,1007.094
24.892795086,3.121877,-2.707687,-7.04904,-0.8677053,-0.2899519,0.1599198,33.8029,20.51836,-24.0706,1007.094
24.927443027,-2.652582,-0.9321368,-6.987753,-0.8606131,-0.2660542,0.1793306,34.5643,20.13218,-23.62633,1007.094
24.959616184,5.947676,1.612819,-7.66191,-0.8426865,-0.2725478,0.1670599,34.18084,20.51299,-24.07254,1007.094
24.994264126,18.90949,6.46599,-8.581216,-0.8772867,-0.3086003,0.1902215,34.18084,20.51299,-24.07254,1007.094
25.026437283,40.22585,10.25383,-6.497457,-0.9144542,-0.2408266,0.206069,33.42496,20.52373,-24.06867,1007.096
25.058610439,37.64577,9.602796,-11.15527,-0.8394068,-0.1610217,0.1549347,34.16954,20.88276,-24.96696,1007.094
25.093258858,10.86211,18.36218,-11.27784,-0.7695572,-0.1840355,0.1738552,34.16954,20.88276,-24.96696,1007.094
25.125432014,23.7625,22.44594,-0.1848933,-0.8838105,-0.2376477,0.1344734,34.16877,19.73936,-24.96138,1007.092
25.160079956,4.964789,27.83178,-2.146078,-0.8700455,-0.2100602,0.1331263,34.55274,20.12081,-24.51889,1007.092
25.192253113,17.74232,35.28909,2.327875,-0.9515871,-0.3532803,0.1389725,34.55274,20.12081,-24.51889,1007.092
25.226901054,55.95203,33.04006,21.20428,-1.12347,-0.3051735,0.1612169,34.94146,18.98341,-23.62268,1007.092
25.259074211,38.81295,21.20306,18.7528,-1.156829,-0.1673883,0.1318161,34.94172,19.36454,-23.62454,1007.09
25.293722630,-20.52883,17.53359,5.024504,-1.121348,-0.2343908,0.08899872,34.94172,19.36454,-23.62454,1007.089
25.325896263,0.2346478,18.6581,1.653717,-1.164196,-0.356842,0.04356308,35.69709,18.59154,-23.62469,1007.089
25.360543728,47.65893,15.5213,-6.00716,-1.081737,-0.3272816,0.02761338,36.8422,18.20567,-22.73607,1007.089
25.392717362,73.58257,10.01709,-15.99695,-0.97389,-0.2408117,0.0437079,36.83591,17.43772,-23.17863,1007.085
25.427365780,58.59354,-0.8137668,-26.66089,-0.8959294,-0.1209361,0.02950872,36.83591,17.43772,-23.17863,1007.083
25.459538937,10.86211,-6.436343,-35.6088,-0.8252844,-0.1793823,-0.01404826,36.82962,16.66977,-23.62119,1007.085
25.494186878,-8.36561,-4.660793,-35.73137,-0.8728383,-0.2653463,-0.1145691,36.44564,16.28832,-24.06367,1007.086
25.526360035,8.957767,3.092444,-28.68336,-0.9058258,-0.3771164,-0.1532607,36.44564,16.28832,-24.06367,1007.086
25.561007977,47.10605,10.84568,-19.85803,-0.9347501,-0.4061455,-0.09683619,36.06873,17.81822,-24.06918,1007.085
25.593181133,60.25216,8.419095,-15.81308,-0.9985625,-0.3821034,0.02156532,34.93491,17.83432,-24.06338,1007.086
25.625354290,53.43339,-3.536278,-17.52912,-0.9994996,-0.3207248,0.112696,34.93491,17.83432,-24.06338,1007.088
25.660002709,6.009107,-13.3018,-30.52197,-0.924313,-0.2712954,0.1509619,35.29526,17.43077,-25.40229,1007.09
25.692175865,-16.29013,-13.42017,-39.65374,-0.9186655,-0.3691576,0.1153984,34.90577,17.42477,-26.29292,1007.09
25.726823807,23.7625,-5.726123,-40.63433,-0.9060387,-0.4175958,0.07342932,34.90577,17.42477,-26.29292,1007.088
25.758996963,57.97924,6.998655,-36.34424,-0.875229,-0.4070499,0.07612077,34.15066,18.57891,-26.29464,1007.088
25.793644905,98.52331,13.44982,-26.29317,-0.8568026,-0.3758541,0.105126,33.01106,18.58932,-26.73512,1007.088
25.825819015,92.13454,4.749624,-18.571,-0.853597,-0.2160757,0.1189453,33.01106,18.58932,-26.73512,1007.09
25.860466957,24.00822,4.572069,-9.132799,-0.8126091,-0.1374983,0.1384906,32.23867,18.58382,-28.00633,1007.09
25.892640114,-20.4674,7.590505,2.144014,-0.8396345,-0.2313088,0.1037474,32.598,16.65573,-29.33781,1007.09
25.927288055,-0.8710997,12.85797,22.0623,-0.9355289,-0.3219698,0.1183548,32.598,16.65573,-29.33781,1007.092
25.959461212,38.26007,10.7865,40.20325,-0.9913325,-0.2958122,0.2015131,32.60955,16.6671,-28.44524,1007.093
25.994109631,58.83926,0.9025986,54.97343,-1.046611,-0.1999893,0.2553568,32.98698,15.89946,-28.44346,1007.093
26.026282787,35.37284,-2.648502,61.96015,-1.09181,-0.06851167,0.1556426,32.98698,15.89946,-28.44346,1007.095
26.060930729,-65.12731,-3.654647,54.1767,-1.098186,0.01124191,0.1713015,34.47434,13.94958,-30.22701,1007.095
26.093103886,-100.757,-3.417907,47.43512,-1.141129,-0.2374697,0.1175959,34.86177,10.90652,-29.3215,1007.095
26.125277042,-56.09704,-16.37943,47.0674,-1.031902,-0.3231593,0.09080628,34.86177,10.90652,-29.3215,1007.093
26.159924984,-26.7333,-21.35097,37.69049,-0.8541135,-0.1730616,0.09472274,34.87333,10.91789,-28.42894,1007.093
26.192098141,-66.47878,-21.88363,25.86209,-0.822762,-0.0715956,0.1179207,35.25153,11.29365,-28.43273,1007.091
26.226746559,-109.6644,-22.06119,17.77221,-0.8519022,-0.1138027,0.0387967,35.25153,11.29365,-28.43273,1007.093
26.258920193,-152.7271,-15.25491,14.09498,-0.893443,-0.1213894,0.03526578,35.25127,10.91252,-28.43087,1007.093
26.293567658,-147.5055,-19.87134,14.52399,-0.8803537,-0.2998959,-0.004887938,35.26411,12.82956,-27.54761,1007.093
26.325740814,-113.2888,-10.75685,17.15933,-0.8684236,-0.2640089,0.06181252,35.26411,12.82956,-27.54761,1007.093
26.360388756,-83.74073,-4.483238,15.4433,-0.9378455,-0.307822,0.126205,34.15489,16.29779,-25.83719,1007.094
26.392561913,-40.24799,0.4883035,14.89171,-0.9820762,-0.2755252,0.131704,33.41763,18.23125,-24.50378,1007.096
26.427210808,8.220602,2.204669,15.19815,-1.007576,-0.3186248,0.2540145,34.56404,19.75105,-23.62447,1007.096
26.459383965,50.73045,-4.009758,13.0531,-1.08363,-0.2200522,0.2733708,34.56404,19.75105,-23.62447,1007.098
26.494031906,30.88842,-9.513964,1.163421,-0.9481898,-0.02463681,0.2100941,34.94172,19.36454,-23.62454,1007.098
26.526205063,-34.16638,-4.483238,-9.990817,-0.8686755,-0.05838697,0.1647299,34.92361,18.20409,-24.9578,1007.098
26.560853481,-55.17558,2.914889,-6.191021,-0.8872456,-0.173817,0.1012917,34.92361,18.20409,-24.9578,1007.098
26.593026638,-44.05668,7.708875,2.695597,-0.8069212,-0.2295209,0.1049029,34.94095,18.22114,-23.61896,1007.098
26.627674580,-8.918484,14.45597,12.56281,-0.7972488,-0.2446395,0.101796,34.94172,19.36454,-23.62454,1007.098
26.659847737,8.220602,23.86638,20.95913,-0.8837091,-0.2327198,0.144153,34.94172,19.36454,-23.62454,1007.096
26.692020893,33.34564,24.51742,28.80387,-0.9696972,-0.2304883,0.1893177,34.95379,20.13818,-22.7357,1007.092
26.726668835,48.2118,23.03779,26.90397,-0.9473037,-0.1775312,0.2734132,35.71468,18.98973,-22.28771,1007.096
26.758841991,37.46148,23.62964,17.34319,-0.999958,-0.1380557,0.260252,35.71468,18.98973,-22.28771,1007.096
26.793490887,-13.4029,22.80105,5.085791,-0.9948437,-0.1348533,0.1122569,36.84772,17.83022,-22.28793,1007.096
26.825664043,-28.9448,23.57046,7.721133,-1.126332,-0.2474802,0.02483138,37.23619,16.31169,-21.38985,1007.096
26.860311985,-45.83816,7.17621,11.82736,-1.188802,-0.07602937,-0.0006462298,37.23619,16.31169,-21.38985,1007.096
26.892485142,-90.31378,5.933325,-0.7977635,-1.093998,-0.1797882,-0.05106819,37.63147,16.32338,-20.05295,1007.096
26.927132606,-62.85439,17.06011,-9.806956,-1.044855,-0.2754266,-0.02194923,38.01518,16.32369,-19.6086,1007.096
26.959306240,19.27808,19.01321,-12.62616,-0.899004,-0.3327833,-0.001611042,38.01518,16.32369,-19.6086,1007.096
26.993954659,105.0964,17.8887,-19.4903,-0.9001684,-0.3112265,0.02364151,38.41752,18.24673,-17.83471,1007.096
27.026127815,120.3925,-1.523987,-27.76405,-0.9084716,-0.08785791,0.03086245,38.03958,18.2521,-17.83278,1007.096
27.060775757,25.54398,-7.560858,-38.24414,-0.8875962,0.1125459,0.0371398,38.03958,18.2521,-17.83278,1007.096
27.092948914,-82.14354,-6.317973,-43.51482,-0.9263377,-0.04976519,-0.1392846,38.02173,17.47278,-19.1679,1007.098
27.127596855,-62.91582,7.29458,-39.10215,-0.9479722,-0.3364135,-0.2523057,37.26007,17.47783,-19.61032,1007.098
27.159770012,32.42418,16.705,-26.90603,-1.03877,-0.3766108,-0.2363659,37.26007,17.47783,-19.61032,1007.098
27.191943169,93.73174,18.00707,-17.6517,-1.091354,-0.1959809,-0.1350943,36.13961,20.17324,-18.72498,1007.098
27.226591587,62.3408,8.063985,-19.24516,-1.027658,-0.1308554,-0.01995384,35.77401,21.33338,-17.83607,1007.1
27.258764744,35.55714,-1.879097,-21.94179,-0.9800479,-0.1322916,0.01333003,35.77401,21.33338,-17.83607,1007.1
27.293412685,-9.90137,-6.613898,-23.35139,-0.922242,-0.1294738,0.03835985,35.74434,20.16155,-20.06189,1007.098
27.325585842,-9.225636,-6.436343,-18.0807,-0.9487718,-0.2498763,0.01737082,35.73857,20.15587,-20.50817,1007.098
27.360234737,15.10081,-8.152708,-11.64557,-0.9907482,-0.2467745,0.01489607,35.73857,20.15587,-20.50817,1007.098
27.392407894,25.72827,-7.324118,-10.11339,-0.9600192,-0.2169966,0.05678879,34.98872,20.55342,-20.05988,1007.098
27.427055836,-2.283999,-7.679228,-14.03576,-0.8696559,-0.1835185,0.0504376,34.59948,20.92856,-20.95237,1007.098
27.459228993,-22.4946,-3.181167,-11.15527,-0.8474485,-0.3211447,0.03029781,34.59948,20.92856,-20.95237,1007.098
27.493876934,3.674751,3.861849,3.737476,-0.8153344,-0.3707138,0.04308549,34.22154,20.93392,-20.95043,1007.096
27.526050091,34.94283,4.039404,24.63635,-0.9207977,-0.4157345,0.1164803,33.84964,21.32611,-20.50408,1007.096
27.560698509,56.75063,-9.869074,42.89988,-1.019405,-0.3515181,0.1979418,34.21024,21.30369,-21.84485,1007.098
27.592871666,17.37373,-24.84288,38.91623,-0.9942197,-0.1889666,0.2708648,34.21024,21.30369,-21.84485,1007.096
27.627519608,-63.03867,-35.8513,15.50458,-0.9798385,-0.2342089,0.2038417,34.20318,19.39233,-22.28183,1007.096
27.659692764,-68.38313,-36.32478,-2.820235,-0.9576504,-0.3800362,0.1272405,34.56853,17.85106,-23.16888,1007.096
27.691865921,-13.46433,-28.68991,-4.291124,-0.9354873,-0.4113549,0.1084595,34.56853,17.85106,-23.16888,1007.096
27.726513863,23.7625,-19.69378,1.347282,-0.9723263,-0.2759916,0.01448331,33.81342,19.0052,-23.1706,1007.096
27.758687019,-22.86319,-12.47321,9.19202,-0.9885207,-0.1237445,0.04625553,33.80765,18.99952,-23.61688,1007.09
27.793335438,-38.95795,-2.648502,17.64963,-1.054301,-0.2712245,0.01335952,33.80765,18.99952,-23.61688,1007.092
27.825509071,-38.09793,-2.352577,15.56587,-1.014507,-0.187075,0.06236389,33.05177,19.01025,-23.61301,1007.094
27.860156536,-16.65872,-8.744558,8.640438,-0.9981531,-0.2212608,0.1086834,33.05754,19.01594,-23.16673,1007.094
27.892330170,-11.99,-16.91209,0.9182731,-0.921313,-0.06044583,0.1155582,33.05754,19.01594,-23.16673,1007.094
27.926977634,-55.23701,-20.8183,-2.697661,-0.8798354,-0.01132949,0.09147609,33.05228,19.77252,-23.61673,1007.094
27.959151268,-75.50905,-16.85291,-3.187957,-0.8879089,-0.04002547,0.01564093,33.05806,19.7782,-23.17045,1007.094
27.993799686,-82.81927,-13.59773,-1.28806,-0.888101,-0.1291395,-0.0222059,33.05806,19.7782,-23.17045,1007.092
28.025972843,-39.32654,-10.165,6.801827,-0.9220181,-0.1606275,-0.03612699,32.30873,20.93803,-22.72589,1007.092
28.060620785,-40.49372,-6.850638,11.58221,-0.9459133,-0.02275129,0.01536058,32.70503,22.47425,-21.39642,1007.092
28.092793942,-55.85132,-3.832202,15.62716,-1.114916,-0.09942638,0.03413942,32.70503,22.47425,-21.39642,1007.094
28.127441883,-49.70828,-14.8998,18.56894,-1.011338,-0.07617,0.09554259,32.71081,22.47993,-20.95014,1007.094
28.159615040,-57.26422,-16.32024,15.99488,-0.9383599,-0.1130027,0.08684599,32.72866,23.25925,-19.61502,1007.094
28.194263458,-76.12335,-9.987444,16.91419,-0.9202664,-0.08597817,0.07822396,32.72866,23.25925,-19.61502,1007.092
28.226436615,-71.33179,-2.530132,25.06536,-0.9495656,-0.2371329,0.03290726,32.7347,23.64607,-19.1706,1007.092
28.258609772,-35.08784,3.388369,33.8294,-0.9338323,-0.2936813,0.07422823,32.75254,24.42539,-17.83548,1007.092
28.293257713,-21.266,7.590505,32.72624,-0.9065076,-0.2513028,0.1114366,32.75254,24.42539,-17.83548,1007.092
28.325430870,-22.98605,9.07013,26.90397,-0.8668207,-0.2503873,0.1298718,33.13595,25.18716,-17.45861,1007.092
28.360078812,-32.81491,11.49672,17.64963,-0.8428698,-0.262076,0.1401559,33.90808,24.81154,-16.18553,1007.092
28.392251968,-29.98911,14.51515,9.62103,-0.8537106,-0.2983858,0.1452598,33.90808,24.81154,-16.18553,1007.092
28.426900864,-5.785533,23.33372,8.517863,-0.9834267,-0.3087809,0.1613264,35.05294,24.04453,-15.29505,1007.092
28.459074020,17.37373,17.29685,15.32072,-1.114885,-0.2938296,0.1901503,35.06475,24.43704,-14.40435,1007.094
28.493721962,5.886246,4.927179,13.23696,-1.151279,-0.1517756,0.145871,35.45399,24.0619,-13.51186,1007.095
28.525895119,-50.32258,-9.395594,-10.5424,-0.9637844,-0.06307603,-0.001193086,35.45399,24.0619,-13.51186,1007.093
28.560543060,-114.3331,-1.464802,-37.26354,-0.748598,-0.1699519,-0.1265099,35.8259,23.66972,-13.95821,1007.095
28.592716217,-80.42348,10.90487,-32.97345,-0.8803443,-0.2992917,-0.1784029,35.47184,24.84122,-12.17674,1007.095
28.627364636,-28.45335,20.90713,-24.57713,-0.9037786,-0.224269,-0.1578037,35.47184,24.84122,-12.17674,1007.095
28.659537792,-6.82985,23.68883,-15.81308,-1.041913,-0.2531475,-0.08927293,34.3682,26.79142,-9.948837,1007.097
28.694185734,1.954699,7.29458,-5.578151,-1.066368,-0.06794408,-0.06920193,33.24093,27.95661,-9.502337,1007.097
28.726358890,-82.20496,3.743479,-12.19715,-0.985324,-0.04316742,-0.07698388,33.24093,27.95661,-9.502337,1007.097
28.761006832,-121.2747,8.537465,-19.24516,-0.9778774,-0.196714,-0.2200271,33.63564,28.34862,-8.231045,1007.098
28.793179989,-70.65605,18.36218,-13.42289,-0.9751558,-0.3376349,-0.1763883,33.29866,29.15605,-5.108868,1007.098
28.825353146,15.46939,18.42136,2.879458,-1.090682,-0.3360135,-0.103479,33.29866,29.15605,-5.108868,1007.098
28.860001564,10.18638,0.8434136,7.78242,-1.097391,-0.09278224,0.02583667,32.94464,30.39108,-3.327703,1007.1
28.892175198,-56.77277,-9.218039,-6.62003,-0.9864966,-0.02794184,0.008466482,32.93856,29.94074,-3.771813,1007.1
28.926822662,-114.4559,-10.04663,-24.63841,-0.8654558,-0.1884383,-0.1443699,32.93856,29.94074,-3.771813,1007.1
28.958996296,-55.91275,-1.938282,-19.0613,-0.8985856,-0.3395068,-0.1809742,33.34539,29.9638,-1.542345,1007.1
28.993643761,-1.608265,-3.417907,3.185893,-1.001422,-0.2456224,-0.09440871,32.22947,30.82275,-0.2017326,1007.1
29.025816917,-11.43713,-16.79372,14.70785,-1.025676,-0.1162934,-0.08154821,32.22947,30.82275,-0.2017326,1007.102
29.060465813,-80.36205,-24.01429,8.456576,-0.9271567,-0.09990874,-0.09631041,32.24103,30.83412,0.6908283,1007.1
29.092638969,-116.9746,-25.43473,-3.310531,-0.9518214,-0.2261653,-0.182917,32.62474,30.83443,1.135174,1007.096
29.127286911,-83.31071,-22.29793,-9.684382,-0.9858174,-0.3360258,-0.2264035,32.62474,30.83443,1.135174,1007.096
29.159460068,-49.03254,-18.98356,-9.194086,-1.016248,-0.2621232,-0.1667063,33.02471,30.46986,2.85647,1007.096
29.194108009,-47.55821,-26.38169,-5.700725,-1.018457,-0.1676427,-0.1268649,33.04205,30.48691,4.195313,1007.098
29.226281166,-86.87368,-33.66145,-11.70685,-0.8919684,-0.145937,-0.1259382,33.04205,30.48691,4.195313,1007.096
29.260929585,-112.1216,-31.05731,-14.40348,-0.8952336,-0.1805626,-0.1493291,32.67592,30.88478,5.087946,1007.096
29.293102741,-98.97547,-28.39398,-6.252308,-0.9593337,-0.2649895,-0.187023,32.69852,30.14526,6.876789,1007.096
29.325275898,-92.58671,-28.68991,3.553615,-1.011889,-0.1814566,-0.151622,32.69852,30.14526,6.876789,1007.096
29.359923840,-108.4972,-30.58383,7.230836,-0.966022,-0.210219,-0.1383091,32.72654,30.10935,9.044748,1007.096
29.426744938,-105.1799,-23.12652,11.09192,-0.9068305,-0.2553158,-0.1575492,33.12187,28.97845,10.45099,1007.096
29.458918095,-93.81532,-20.34482,20.40755,-0.9670614,-0.2402531,-0.131317,33.52106,27.47047,12.17787,1007.096
29.493566990,-89.82233,-17.97742,33.40039,-1.043331,-0.2888819,-0.06641833,34.66567,26.32233,13.07021,1007.096
29.525740147,-76.49194,-27.9205,43.20632,-1.079368,-0.2698129,-0.008566922,34.66567,26.32233,13.07021,1007.094
29.560388088,-104.5656,-39.81669,37.44534,-1.024271,-0.1603967,-0.009142992,35.44941,24.81549,15.30519,1007.09
29.592561245,-143.7582,-46.80052,22.73645,-0.9921893,-0.2075399,-0.05947695,36.20349,22.13682,15.31435,1007.09
29.627208710,-161.6345,-49.46385,9.559743,-0.9829944,-0.2168065,-0.1222991,38.09742,19.82886,15.76212,1007.092
29.659382343,-164.0303,-45.67601,8.640438,-1.056103,-0.2274078,-0.2224422,38.09742,19.82886,15.76212,1007.092
29.694030762,-167.5318,-40.29017,12.25637,-1.034612,-0.1230837,-0.2126247,38.8628,16.78042,16.6657,1007.092
29.726203918,-180.0022,-34.66759,9.437169,-0.8042285,-0.1382427,-0.1416354,39.62157,13.72549,17.05925,1007.092
29.760851860,-146.0926,-18.98356,18.01735,-0.8134754,-0.1919248,0.003572132,39.62157,13.72549,17.05925,1007.092
29.793025017,-98.85261,-6.850638,35.7293,-0.936671,-0.175632,0.0858319,40.38226,11.05332,17.57844,1007.092
29.827672958,-45.59244,-0.3994717,54.97343,-1.115445,-0.1609486,0.175345,41.14185,7.999196,18.03574,1007.092
29.859846115,-2.775443,-9.218039,54.60571,-0.9862549,-0.09214884,0.2426686,41.14185,7.999196,18.03574,1007.092
29.892019272,-27.16332,-10.87522,32.17465,-0.9287147,0.09462981,0.2051116,40.37814,4.95518,17.60822,1007.09
29.926667690,-102.047,-11.64462,17.58834,-0.9968256,0.0483645,0.07811786,41.5167,3.420225,18.05613,1007.086
29.958840847,-113.8416,-15.07736,17.15933,-0.964638,-0.07166412,0.01754206,41.5167,3.420225,18.05613,1007.085
29.993488789,-89.63805,-13.12425,15.13686,-0.8808172,-0.0784713,0.007063817,41.88646,1.058037,17.55564,1007.087
30.025661945,-62.85439,-4.897533,10.96934,-0.8207375,-0.08548815,0.01704935,41.93768,-0.4779499,16.73396,1007.087
30.060309887,-48.11109,5.40066,9.19202,-0.8448881,-0.04068938,0.08319595,41.93768,-0.4779499,16.73396,1007.081
30.092483044,-33.06063,10.60894,10.29519,-0.8458984,-0.08520401,0.1006724,42.25135,-2.388091,16.74165,1007.081
30.127131939,-20.89741,12.79879,5.759948,-0.8390211,-0.03639365,0.1405346,41.86686,-3.531808,16.30288,1007.081
30.159305096,-18.31734,15.40293,-1.104199,-0.9404767,-0.04213293,0.1491459,41.86686,-3.531808,16.30288,1007.081
30.193953037,-31.15629,12.32531,-12.01329,-0.9608254,0.02487245,0.07614228,41.88311,-3.896698,17.57983,1007.083
30.226126194,-42.76664,19.54588,-23.7804,-0.8855525,-0.047888,0.06761007,41.13306,-5.022865,18.09931,1007.083
30.260774136,2.138991,24.93172,-19.42902,-1.096467,-0.1214022,0.09162603,41.13306,-5.022865,18.09931,1007.083
30.292947292,22.59532,13.50901,-23.04495,-1.059397,0.03548246,0.1296875,41.13827,-4.636859,18.47998,1007.083
30.327595711,-8.672762,10.31302,-36.95711,-0.928723,0.0685468,0.1586247,41.21364,-4.625572,19.43597,1007.083
30.359768868,-27.04045,7.353765,-40.14404,-1.03108,0.0411571,0.128506,41.21364,-4.625572,19.43597,1007.085
30.391942024,-32.50776,3.388369,-44.80185,-0.949623,0.06976908,0.0518259,41.52328,-2.730875,18.91502,1007.085
30.426589966,-32.99921,10.13546,-44.86314,-0.9227149,0.007838502,0.03178428,40.39023,-1.571369,18.91524,1007.085
30.458763123,5.640524,14.63352,-30.70583,-1.001762,-0.06425904,0.009755515,40.39023,-1.571369,18.91524,1007.085
30.493411064,20.32239,14.57434,-15.69051,-0.9985154,0.02741024,0.003250962,40.39735,-0.8026054,19.42156,1007.079
30.525584221,1.033243,15.34374,-7.784484,-0.9258681,0.006197582,0.005772207,40.40911,0.7324864,20.24292,1007.079
30.560232639,-1.423973,19.0724,4.90193,-0.946128,-0.1094679,-0.02632227,40.02595,1.557959,19.79454,1007.079
30.592406273,10.4321,20.78876,20.89784,-1.000026,-0.124874,-0.04474434,40.02595,1.557959,19.79454,1007.079
30.627053738,7.237715,17.77033,33.46168,-1.090967,-0.1448916,-0.05562878,39.66504,1.135727,21.13749,1007.081
30.659227371,0.4189391,9.1885,37.44534,-1.143245,-0.1737039,-0.0491125,39.29288,1.14678,21.5857,1007.082
30.693874836,-26.85616,-3.181167,26.90397,-1.134772,-0.1179735,-0.05499811,39.29288,1.14678,21.5857,1007.082
30.726048469,-57.81709,-10.46092,7.169549,-0.9867529,-0.1243304,-0.09161766,40.05351,-0.3828061,22.03556,1007.084
30.760696888,-86.13651,-7.383303,-9.990817,-0.9059211,-0.08427238,-0.1320476,39.66927,-1.145389,21.59493,1007.084
30.792869568,-63.59155,-2.826057,-9.500521,-0.894856,-0.2082288,-0.1490787,39.66927,-1.145389,21.59493,1007.086
30.827517986,-24.64467,-3.240352,0.673125,-0.8967596,-0.08538596,-0.1446743,40.04041,-2.680977,21.15416,1007.086
30.859691143,-25.68899,-0.2811017,11.09192,-0.9441404,-0.04364254,-0.112076,39.65618,-3.44356,20.71354,1007.088
30.894339085,-20.34454,-6.377158,22.9816,-0.9556913,0.08422431,-0.1547761,39.65618,-3.44356,20.71354,1007.084
30.926512241,-58.61569,1.435264,31.0102,-0.8312829,0.1478561,-0.1313124,40.03412,-3.448929,20.7116,1007.084
30.958685398,-23.2932,13.39064,49.21244,-0.7596869,0.01342457,-0.08296075,39.64962,-4.592646,20.27283,1007.084
30.993333340,-24.7061,26.70727,65.14707,-0.9182068,0.1843877,0.01825572,39.64962,-4.592646,20.27283,1007.084
31.025506496,-31.03343,27.71341,75.44329,-0.942089,0.06423683,-0.09433584,39.65412,-6.492629,20.72842,1007.084
31.060154915,-30.05054,28.00933,73.48211,-1.016129,0.1184045,-0.1042844,38.51298,-8.769009,20.29911,1007.085
31.092328072,-20.22168,27.12156,65.57608,-1.013328,0.07914204,-0.1586182,38.51298,-8.769009,20.29911,1007.087
31.126976013,9.940654,29.84407,61.59243,-0.9683659,0.1336607,-0.2352262,37.77289,-11.02802,21.65298,1007.087
31.159149170,31.01129,34.22376,61.65371,-0.9754892,0.113566,-0.2020674,37.02625,-14.43611,22.56616,1007.089
31.193797112,60.49788,32.56658,59.38609,-0.9892261,0.230479,-0.09300749,37.02625,-14.43611,22.56616,1007.089
31.225970268,33.65279,31.6788,52.64452,-0.972347,0.2114272,-0.2239439,35.90925,-15.16522,23.91452,1007.091
31.260619164,52.88051,25.46438,29.47803,-1.037192,-0.06617437,-0.1986355,34.79225,-15.89433,25.26289,1007.092
31.292792320,111.6694,17.65196,-3.55568,-1.005631,-0.1066505,-0.1399777,34.79225,-15.89433,25.26289,1007.092
31.327440262,59.82215,-0.5770267,-27.94791,-1.05662,0.2335566,0.07393656,33.29783,-15.8558,26.60946,1007.092
31.359613419,32.48561,-10.04663,-20.04189,-1.005823,0.3446041,-0.03262584,34.07728,-13.93894,28.31766,1007.094
31.394261360,24.56109,-15.55083,-22.7998,-0.9669765,0.1740934,-0.08934196,34.07728,-13.93894,28.31766,1007.096
31.426434517,34.75854,-16.73454,-28.19306,-0.9681474,0.143977,-0.1560952,34.45207,-11.28125,27.92018,1007.098
31.458607674,25.1754,-13.53854,-24.82228,-0.9680807,0.34178,-0.1857951,35.59212,-9.386812,28.2876,1007.098
31.493256092,12.02929,-7.915968,-20.53218,-0.9429722,0.186781,-0.3169651,35.59212,-9.386812,28.2876,1007.099
31.525429249,28.0012,5.75577,-18.63229,-0.9710778,0.02953291,-0.3334232,35.96011,-8.259338,27.45127,1007.101
31.560077191,20.07667,-0.8729518,-23.2901,-1.063115,0.09094742,-0.1074463,36.33799,-7.122118,27.38,1007.103
31.592250347,7.237715,-12.88751,-30.33811,-1.046489,0.1528306,-0.1914412,36.33799,-7.122118,27.38,1007.105
31.626898289,-0.8710997,-12.23647,-32.36058,-0.9479311,0.1171369,-0.3507509,36.34455,-5.973032,27.8207,1007.106
31.659071446,-7.628445,-13.36099,-30.46068,-0.9760547,0.121235,-0.2150129,36.34614,-4.82882,27.87888,1007.106
31.693719387,-10.7614,-8.744558,-27.15118,-0.9125348,0.03930742,-0.223993,37.85289,-3.712578,27.41928,1007.108
31.725892544,-11.74428,-15.13654,-32.91217,-0.9471672,-0.07652581,-0.2241428,37.85289,-3.712578,27.41928,1007.108
31.760540962,-9.9628,0.01482338,-31.19613,-0.8003058,0.1194598,-0.2060634,38.59773,-2.972418,26.51912,1007.11
31.792714119,4.473346,0.3699335,-20.22575,-0.9650615,-0.003345111,-0.1240806,38.22031,-2.204782,26.51734,1007.113
31.827362061,-2.591151,-10.69766,-26.96732,-1.038606,-0.0884413,-0.06577396,38.22031,-2.204782,26.51734,1007.115
31.859535217,-4.065481,-5.548568,-29.17365,-0.965762,0.07000394,-0.2430052,38.59901,-1.06675,26.50982,1007.115
31.894183159,8.712046,-8.389448,-25.06742,-1.003177,0.1081296,-0.3585037,39.35541,-0.3152204,26.50223,1007.115
31.926356316,8.220602,-6.969008,-18.81615,-1.01855,-0.02704597,-0.1478769,39.35541,-0.3152204,26.50223,1007.117
31.961005211,-15.92155,-17.97742,-32.36058,-1.078044,-0.2293279,-0.04487747,39.34958,0.821683,25.98661,1007.117
31.993178368,-5.969824,-15.43246,-28.86722,-0.8965219,0.1006327,-0.3807687,39.71735,1.631546,25.15184,1007.117
32.025351524,12.82788,-6.554713,-17.6517,-1.038462,-0.02924011,-0.1934991,39.71735,1.631546,25.15184,1007.117
32.059999466,5.579093,-13.7161,-25.68029,-0.9485103,-0.2292912,-0.01957588,40.474,2.76421,25.14239,1007.119
32.092172623,-6.522698,-22.06119,-27.88663,-0.9339464,-0.07271914,-0.1625388,40.84089,3.509738,24.24417,1007.12
32.126820564,21.61243,-8.093523,-15.2615,-0.9467941,0.02588388,-0.2874079,40.84089,3.509738,24.24417,1007.116
32.158993721,33.52993,-5.430198,-9.439234,-0.9736955,-0.1558609,-0.2067153,41.59151,4.255584,23.79031,1007.118
32.193642139,40.10299,2.737334,-4.352411,-0.866931,-0.08544102,-0.195563,41.20856,5.398667,23.34038,1007.118
32.225814819,80.3399,18.24381,11.88865,-0.7607641,0.01791371,-0.4458593,41.20856,5.398667,23.34038,1007.118
32.260463238,160.3837,46.41587,39.95811,-0.7121494,-0.05808286,-0.1987097,41.58727,6.5367,23.33286,1007.118
32.292636395,125.4298,24.10312,24.94279,-0.7704238,-0.2052104,0.9525998,41.59408,8.066919,23.7717,1007.12
32.327284336,52.08192,4.276145,14.64657,-1.08432,0.01452144,-0.2129544,41.59408,8.066919,23.7717,1007.12
32.359457493,-71.33179,-15.49165,-13.17774,-1.104026,-0.3990029,-0.03494785,41.59537,9.972586,23.7624,1007.118
32.394105435,8.957767,-32.71449,-12.74873,-1.358409,-0.09277014,-0.1409095,41.96804,10.7238,23.31046,1007.118
32.426278591,-20.52883,-50.76592,-26.41574,-1.1915,-0.1201826,-0.1263049,41.96804,10.7238,23.31046,1007.118
32.460927010,-17.6416,-56.32931,-31.13484,-0.8733149,-0.2344972,0.04619548,43.46825,10.69096,22.41016,1007.118
32.493100643,-14.07864,-53.37006,-19.42902,-0.9841385,-0.1706439,0.009678029,44.64824,11.41917,21.06147,1007.122
32.525273800,-7.014141,-55.50072,-14.89378,-1.046167,-0.1510413,-0.005969561,44.64824,11.41917,21.06147,1007.118
32.559921742,-10.63853,-52.60065,-15.07764,-0.9424348,-0.1716133,0.03675487,45.38864,12.91672,19.77507,1007.118
32.592094898,-13.34147,-43.48616,-9.071512,-0.9492771,-0.2378377,0.06760272,46.48779,12.86651,17.09159,1007.118
32.626742840,-6.952711,-38.69218,-10.29725,-1.047979,-0.2161866,0.04219224,46.84891,13.60635,15.74709,1007.118
32.658915997,-16.84301,-36.14722,-11.15527,-0.9168442,-0.3267694,0.1374209,46.84891,13.60635,15.74709,1007.118
32.693564415,-0.7482388,-30.99813,-5.39429,-0.9893861,-0.1782824,0.08581994,47.97091,13.19774,14.85059,1007.118
32.725737572,0.6646607,-28.86746,-4.413698,-0.9888335,-0.2517286,0.1290712,47.94831,13.93727,13.06175,1007.118
32.760385513,1.770408,-24.90207,-5.455577,-0.9706413,-0.1366421,0.1476843,47.94831,13.93727,13.06175,1007.119
32.792558670,2.01613,-20.34482,-8.458642,-0.9610306,-0.1353755,0.129289,48.30313,13.90916,11.27469,1007.119
32.827206612,-1.423973,-17.20802,-9.561809,-0.9707574,-0.1705975,0.1502974,48.67556,14.27924,10.82462,1007.121
32.859379768,3.244738,-18.68764,-7.66191,-0.9503979,-0.201288,0.1488904,48.67556,14.27924,10.82462,1007.121
32.894027710,-1.669695,-20.75912,-8.948938,-0.9474885,-0.2409721,0.1658881,49.42617,15.02509,10.37075,1007.123
32.926200867,-0.1953651,-20.64075,-11.21656,-0.9470782,-0.27151,0.1714165,48.28162,15.03064,9.547743,1007.123
32.960849285,1.586117,-23.00815,-10.78755,-0.8880226,-0.210866,0.1429274,48.28162,15.03064,9.547743,1007.123
32.993022442,4.596207,-22.4163,-9.92953,-0.9422128,-0.3121673,0.1893519,48.26455,15.39471,8.207039,1007.123
33.027670383,-5.232659,-23.83674,-10.17468,-0.9300659,-0.2586372,0.2152258,48.64299,16.15161,8.201384,1007.123
33.059843540,2.323282,-23.95511,-9.194086,-0.9255525,-0.2967506,0.2481275,48.64299,16.15161,8.201384,1007.121
33.092016697,0.6032303,-26.91436,-6.803892,-0.9226018,-0.2314625,0.2192362,48.6317,16.52138,7.306963,1007.121
33.126664639,9.142058,-27.1511,-0.9203376,-0.8657838,-0.2614961,0.2006245,48.23643,16.50969,5.970055,1007.121
33.158837795,2.507573,-25.19799,0.8569861,-0.9070324,-0.3403855,0.2663929,48.23643,16.50969,5.970055,1007.121
33.193485737,2.200421,-26.85517,2.450449,-0.9240257,-0.2251698,0.2790693,48.21909,16.49264,4.631212,1007.122
33.225658894,7.606297,-28.27561,2.327875,-0.9917906,-0.3413127,0.3433321,47.83012,17.2489,3.736862,1007.122
33.260307789,-5.35552,-30.52464,1.469856,-0.8198323,-0.1060913,0.3672847,47.83012,17.2489,3.736862,1007.122
33.292480946,20.99813,-22.59385,7.475985,-0.883899,-0.3674742,0.4192295,48.95238,17.22143,2.838501,1007.122
33.327128887,26.09685,-24.66533,3.002032,-0.8528171,-0.1177976,0.338576,48.94082,17.21006,1.94594,1007.124
33.359302044,9.879223,-18.86519,-1.962217,-0.8222284,-0.2988714,0.2914898,48.94082,17.21006,1.94594,1007.124
33.393949986,14.85509,-15.37328,-5.149142,-0.8737525,-0.2665514,0.358271,48.92901,16.81755,1.055239,1007.126
33.426123142,-4.188342,-16.26105,-3.004096,-0.8621334,-0.2613745,0.3447092,48.53373,16.80587,-0.2816696,1007.126
33.460771561,7.053423,-16.37943,0.2441158,-0.9004804,-0.3064525,0.3909674,48.53373,16.80587,-0.2816696,1007.126
33.492944718,1.893269,-20.87749,1.531143,-0.8326534,-0.1806192,0.3875159,48.9012,17.17108,-1.11427,1007.126
33.527592659,-3.574038,-20.34482,4.043911,-0.8706832,-0.2949679,0.388856,48.90724,17.55789,-0.6698513,1007.126
33.559765816,-0.5025172,-21.2326,5.453513,-0.8870643,-0.2250974,0.4382669,48.90724,17.55789,-0.6698513,1007.126
33.591938973,-13.71006,-22.94896,6.434105,-0.8254254,-0.2232932,0.3972186,48.13929,16.79499,-1.554823,1007.126
33.626586914,-5.35552,-20.46319,8.456576,-0.7691999,-0.2437853,0.419661,48.11591,16.39112,-3.338084,1007.126
33.658760071,-4.741216,-15.84676,7.598559,-0.7513533,-0.2426519,0.4522798,48.11591,16.39112,-3.338084,1007.126
33.693408012,4.043334,-9.336409,8.763012,-0.8153398,-0.2201815,0.492586,47.73798,16.39649,-3.33615,1007.126
33.725581169,4.411916,-2.944427,4.105198,-0.8683603,-0.2187947,0.5123722,48.10988,16.0043,-3.782503,1007.128
33.760229587,4.289055,3.565924,-3.249244,-0.8684496,-0.2198431,0.5022424,48.48204,15.99325,-4.230719,1007.128
33.792403221,4.596207,8.47828,-9.990817,-0.8168126,-0.2056751,0.4845254,48.48204,15.99325,-4.230719,1007.128
33.827050686,-1.178252,11.31916,-9.92953,-0.7704282,-0.1642583,0.4092421,48.48756,15.6178,-3.782577,1007.128
33.859224319,2.507573,12.44368,-7.907058,-0.8134618,-0.2797,0.4544819,48.11566,16.00999,-3.336224,1007.13
33.893871784,7.360576,10.25383,-6.681318,-0.8799227,-0.2456058,0.4269451,48.11566,16.00999,-3.336224,1007.128
33.926044941,-3.574038,4.927179,-5.823299,-0.8572187,-0.239644,0.3964165,48.50592,17.15939,-2.451179,1007.128
33.960692883,-8.304179,-0.8137668,-3.862115,-0.8440224,-0.2658035,0.4115017,48.8718,16.38038,-3.341951,1007.126
33.992866039,-9.287066,-3.832202,-1.90093,-0.8366604,-0.264351,0.415783,48.8718,16.38038,-3.341951,1007.126
34.027514935,-5.539811,-2.530132,0.06025477,-0.8129883,-0.2342601,0.4307521,48.12246,17.54021,-2.897386,1007.126
34.059688091,-0.5639476,-0.8137668,-2.5138,-0.8705059,-0.2740507,0.4579527,47.74427,17.16444,-2.893591,1007.126
34.094336033,-3.512608,-0.9321368,-6.742605,-0.8864937,-0.2530717,0.4616489,47.74427,17.16444,-2.893591,1007.128
34.126509190,-5.048368,0.6066735,-6.43617,-0.8276691,-0.2835487,0.4497627,47.73849,17.15876,-3.339871,1007.126
34.158682346,2.01613,-1.819912,-3.494392,-0.8112037,-0.2619855,0.4242409,47.36684,17.93207,-2.895379,1007.122
34.193330288,4.780499,-3.121982,-0.1236063,-0.828705,-0.3029411,0.4520226,47.36684,17.93207,-2.895379,1007.122
34.225503445,7.544867,-4.601608,0.8569861,-0.8671443,-0.2900747,0.4592353,48.12824,17.54589,-2.451105,1007.122
34.260151863,1.954699,-7.146563,0.3054028,-0.8463024,-0.2516224,0.4236898,47.36132,18.30752,-3.34352,1007.12
34.292325020,-4.618355,-7.264933,0.3666899,-0.7953449,-0.2724805,0.4582283,47.36132,18.30752,-3.34352,1007.118
34.326972962,-1.362543,-3.891387,1.837578,-0.7894779,-0.2589597,0.4529831,47.73297,17.5342,-3.788013,1007.118
34.359146118,0.5417998,-1.938282,2.205301,-0.8163191,-0.2665648,0.4565448,48.11694,17.91565,-3.345527,1007.118
34.393794060,2.876156,0.4883035,0.4279769,-0.8524203,-0.251869,0.4507369,48.11694,17.91565,-3.345527,1007.118
34.425967217,-1.731125,-0.04436163,-1.410634,-0.8593295,-0.2785016,0.4544378,47.73323,17.91534,-3.789873,1007.12
34.460615158,-0.9939605,-0.7545817,-0.6751895,-0.8324534,-0.2781183,0.4585281,48.11694,17.91565,-3.345527,1007.118
34.492788315,-0.01107384,-1.819912,1.224708,-0.8184003,-0.2773113,0.4463537,48.11694,17.91565,-3.345527,1007.118
34.527437210,2.07756,-3.240352,3.308467,-0.8291987,-0.2700612,0.4354282,48.11065,17.1477,-3.788086,1007.118
34.559610367,0.5417998,-5.193458,4.534208,-0.836882,-0.2703927,0.4504392,48.4891,17.9046,-3.793741,1007.118
34.594257832,0.4189391,-6.258788,5.576087,-0.8309816,-0.2761841,0.4585303,48.4891,17.9046,-3.793741,1007.118
34.626431465,-0.01107384,-6.081233,6.12767,-0.8205181,-0.2581469,0.4754514,48.10513,17.52315,-4.236228,1007.118
34.658604622,1.831839,-5.075088,5.330939,-0.8215727,-0.2683685,0.471039,48.10539,17.90428,-4.238089,1007.118
34.693252563,1.524687,-4.364868,3.492328,-0.8262141,-0.238146,0.4848275,48.10539,17.90428,-4.238089,1007.118
34.725425720,3.060447,-3.891387,1.898865,-0.8180058,-0.2455205,0.477942,48.10487,17.14202,-4.234367,1007.118
34.760073662,1.278965,-3.536278,0.7956991,-0.8141342,-0.2542736,0.4783158,48.47729,17.5121,-4.684443,1007.118
34.792246818,1.401826,-3.536278,1.163421,-0.8238761,-0.2343823,0.4708587,48.47729,17.5121,-4.684443,1007.118
34.826895237,4.166194,-3.713832,1.531143,-0.8258495,-0.2503498,0.4760474,48.47729,17.5121,-4.684443,1007.117
34.859068394,2.07756,-4.305683,1.837578,-0.8243876,-0.2508426,0.4760297,48.47126,17.12528,-5.128862,1007.117
34.893716335,-0.2567955,-4.956718,2.205301,-0.8169411,-0.2348061,0.4833224,48.46496,16.35733,-5.571421,1007.118
34.925889492,-0.625378,-4.424053,2.450449,-0.8189185,-0.2507773,0.4880292,48.46496,16.35733,-5.571421,1007.118
34.960537434,0.6032303,-3.950572,1.653717,-0.8076776,-0.242597,0.4860638,48.08728,16.74383,-5.571348,1007.118
34.992710590,1.340395,-3.003612,1.224708,-0.8164387,-0.2401146,0.4876119,48.08728,16.74383,-5.571348,1007.114
35.027358532,1.156104,-2.115837,0.3666899,-0.8134235,-0.2405335,0.4981844,48.08728,16.74383,-5.571348,1007.114
35.059531689,-0.4410867,-1.879097,-0.1848933,-0.8120042,-0.2444499,0.4947648,47.70382,17.12465,-6.017555,1007.114
35.094180107,0.7875215,-1.168877,-0.3687544,-0.8090625,-0.2391327,0.4938172,48.09306,16.74951,-5.125068,1007.114
35.126353264,-0.5639476,-0.4586567,-0.3687544,-0.8046589,-0.2362425,0.4938,48.09306,16.74951,-5.125068,1007.114
35.158526897,0.6646607,-0.1035466,-0.3074674,-0.8115223,-0.2449414,0.4942743,48.08176,17.11928,-6.019489,1007.116
35.193174362,0.2960782,-0.3402867,-0.4913284,-0.8173233,-0.2376088,0.4972809,48.08125,16.35701,-6.015768,1007.116
35.225347519,0.05035657,-0.8137668,-0.5526155,-0.8159546,-0.2439892,0.4890215,48.08125,16.35701,-6.015768,1007.118
35.259995461,-0.5025172,-1.228062,-0.8590506,-0.805671,-0.2430405,0.4927894,47.70909,16.36806,-5.567554,1007.118
35.292168617,-0.8710997,-1.168877,-0.7977635,-0.8057238,-0.2430885,0.4865235,48.07624,17.49473,-6.46763,1007.118
35.326816559,-0.3182259,-1.346432,-0.9203376,-0.807651,-0.2469249,0.4913298,48.07624,17.49473,-6.46763,1007.118
35.358989716,-2.222569,-1.760727,-0.9816246,-0.8134497,-0.2449094,0.4971846,47.33166,17.1357,-5.569341,1007.118
35.393638611,-0.6868084,-1.168877,-1.349347,-0.8066163,-0.2454256,0.4975986,48.07573,16.73246,-6.463909,1007.118
35.425811768,-1.546834,-0.8137668,-1.471921,-0.8070458,-0.2371493,0.5005628,48.07573,16.73246,-6.463909,1007.118
35.460459709,-0.1953651,0.01482338,-1.226773,-0.8091145,-0.2556213,0.4956098,47.70408,17.50578,-6.019416,1007.118
35.492632866,-1.792556,0.0740084,-1.349347,-0.8104995,-0.2482887,0.5014672,48.08176,17.11928,-6.019489,1007.12
35.527280808,0.111787,0.5474885,-1.471921,-0.8056462,-0.2526892,0.5004216,48.08176,17.11928,-6.019489,1007.118
35.559453964,-1.362543,0.3699335,-1.226773,-0.8080779,-0.2507354,0.5004604,48.07624,17.49473,-6.46763,1007.12
35.594101906,-1.178252,0.1923784,-0.9203376,-0.8068405,-0.2702915,0.4829356,47.32588,17.13001,-6.015621,1007.121
35.626275063,-1.239682,0.0740084,-0.7364765,-0.8120908,-0.2604864,0.4922235,47.32588,17.13001,-6.015621,1007.121
35.660923481,-0.2567955,-0.2219167,-0.6139024,-0.8120446,-0.2502894,0.4927891,47.32537,16.36775,-6.0119,1007.121
35.693096638,-0.3796563,-0.6953968,-0.6139024,-0.807124,-0.2560796,0.5004074,47.70357,16.74351,-6.015695,1007.12
35.725269794,-0.3796563,-0.6953968,-0.6139024,-0.8135503,-0.2643437,0.4946153,47.70357,16.74351,-6.015695,1007.116
35.759917736,-0.7482388,-0.8137668,-0.3687544,-0.806622,-0.2526843,0.5004307,47.70434,17.88691,-6.021276,1007.116
35.792090893,-1.301113,-0.5770267,-0.3074674,-0.8061339,-0.2575223,0.5027964,48.07624,17.49473,-6.46763,1007.116
35.826738834,-0.3182259,-0.2811017,-0.4913284,-0.8119975,-0.2555659,0.5009392,47.6983,17.5001,-6.465696,1007.116
35.858911991,-0.625378,-0.6362118,-0.1848933,-0.8037183,-0.260458,0.5013036,47.6983,17.5001,-6.465696,1007.116
35.893559933,0.6032303,0.0740084,0.3666899,-0.7987741,-0.2546209,0.5061256,47.69804,17.11896,-6.463836,1007.116
35.925733089,0.7260911,0.3107485,0.734412,-0.8086222,-0.2594885,0.4979833,48.07598,17.11359,-6.46577,1007.117
35.960381508,-0.625378,0.7250435,0.550551,-0.810544,-0.2531648,0.4985354,48.07598,17.11359,-6.46577,1007.117
35.992555141,0.4803695,1.139339,0.1215418,-0.8056644,-0.2522223,0.4980156,47.31959,16.36206,-6.45818,1007.117
36.027202606,0.8489519,1.376079,-0.06231927,-0.8105619,-0.2594675,0.4994476,47.70382,17.12465,-6.017555,1007.119
36.059376240,1.033243,1.376079,-0.06231927,-0.8125666,-0.2585387,0.4927259,47.70382,17.12465,-6.017555,1007.119
36.094023705,-0.8096693,1.020969,0.1828288,-0.8042533,-0.2532448,0.49221,48.08176,17.11928,-6.019489,1007.117
36.126197338,0.9103823,1.257709,0.4279769,-0.8017768,-0.2590264,0.4993693,47.70434,17.88691,-6.021276,1007.116
36.160844803,0.6646607,1.080154,0.611838,-0.8125385,-0.2507761,0.4923077,47.70434,17.88691,-6.021276,1007.114
36.193018436,0.4189391,1.198524,0.7956991,-0.8179099,-0.253654,0.4932981,48.45996,17.49504,-6.023284,1007.114
36.227666855,1.463256,1.198524,0.673125,-0.8120506,-0.2517456,0.4927771,47.32588,17.13001,-6.015621,1007.114
36.259840012,-0.07250425,0.5474885,0.611838,-0.8086731,-0.2590511,0.4917214,47.32588,17.13001,-6.015621,1007.112
