Time (s),Gyroscope X (deg/s),Gyroscope Y (deg/s),Gyroscope Z (deg/s),Accelerometer X (g),Accelerometer Y (g),Accelerometer Z (g),Magnetometer X (uT),Magnetometer Y (uT),Magnetometer Z (uT),Barometer (hPa)
1.080829620,0.08306745,-0.1004906,-0.2188125,-0.9111067,-0.3822973,-0.03647704,34.17356,-4.211315,6.874325,1007.628
1.113389492,0.08306745,0.07795221,-0.03521436,-0.9159951,-0.3789968,-0.02820456,34.90083,-3.842211,6.869337,1007.629
1.145948887,-0.1015149,-0.1599716,0.02598504,-0.9145407,-0.3794416,-0.03304652,35.26567,-3.842147,6.422077,1007.629
1.181012631,0.08306745,0.01847127,-0.09641375,-0.9126087,-0.3779607,-0.03254241,35.26567,-3.842147,6.422077,1007.629
1.213572502,0.2061224,0.01847127,0.02598504,-0.9130992,-0.3793874,-0.04078111,34.91219,-4.569833,6.874559,1007.631
1.246131420,0.2061224,0.07795221,0.08718444,-0.9115813,-0.3818507,-0.02921911,35.26162,-3.475754,6.865538,1007.631
1.281196117,0.3907047,0.07795221,-0.09641375,-0.912127,-0.3769935,-0.03011123,35.26162,-3.475754,6.865538,1007.627
1.313755035,0.2061224,0.07795221,-0.09641375,-0.91746,-0.3794841,-0.03207759,34.5303,-3.478464,7.313986,1007.629
1.346314907,-0.2245698,-0.1004906,-0.03521436,-0.9131299,-0.3755265,-0.03492165,35.27298,-4.203375,6.870758,1007.629
1.381378651,0.1445949,-0.1599716,0.1483838,-0.9130002,-0.3852755,-0.02830324,35.27298,-4.203375,6.870758,1007.629
1.413938046,0.08306745,-0.1599716,-0.09641375,-0.9184484,-0.3780435,-0.03108791,34.90814,-4.203439,7.31802,1007.629
1.446497440,0.08306745,0.1374331,-0.03521436,-0.9140268,-0.3818626,-0.03356732,34.90083,-3.842211,6.869337,1007.63
1.479056835,-0.03998747,0.1374331,0.02598504,-0.9213725,-0.3780772,-0.03205235,34.90083,-3.842211,6.869337,1007.63
1.514121056,-0.1630424,0.07795221,0.1483838,-0.9164837,-0.3794758,-0.03111165,34.8992,-3.844794,6.423265,1007.63
1.546680451,-0.2860973,0.01847127,0.02598504,-0.913991,-0.3852574,-0.03506928,35.27461,-4.200792,7.31683,1007.632
1.579240322,-0.1015149,-0.1004906,-0.2188125,-0.9194177,-0.3799669,-0.03836697,35.27461,-4.200792,7.31683,1007.632
1.614304066,0.1445949,0.01847127,-0.03521436,-0.910159,-0.3803343,-0.03789813,34.53436,-3.844858,6.870525,1007.63
1.646862984,-0.1015149,0.1969141,-0.03521436,-0.9130445,-0.3818654,-0.03018468,35.26162,-3.475754,6.865538,1007.629
1.679422856,-0.03998747,0.07795221,-0.03521436,-0.9145391,-0.3803959,-0.03692809,35.26162,-3.475754,6.865538,1007.629
1.714486599,0.2061224,0.01847127,-0.09641375,-0.9150003,-0.3814004,-0.03114245,34.89352,-3.480983,6.420654,1007.629
1.747046471,-0.1015149,-0.04100967,0.02598504,-0.9140928,-0.376986,-0.03735987,34.90083,-3.842211,6.869337,1007.626
1.779605866,-0.1015149,0.07795221,0.02598504,-0.9101027,-0.3837665,-0.03118327,34.90083,-3.842211,6.869337,1007.626
1.814669609,-0.2860973,-0.04100967,-0.09641375,-0.911624,-0.3779678,-0.02819308,34.53436,-3.844858,6.870525,1007.626
1.847229481,0.08306745,0.1374331,0.02598504,-0.9150333,-0.3789621,-0.03303872,34.8992,-3.844794,6.423265,1007.626
1.879788399,0.08306745,0.1374331,0.08718444,-0.9135157,-0.3833272,-0.0306899,34.16057,-3.486277,6.423031,1007.626
1.912348270,0.4522322,0.1374331,-0.03521436,-0.9139829,-0.3857478,-0.03411002,34.16057,-3.486277,6.423031,1007.626
1.947412014,0.2061224,-0.1004906,0.08718444,-0.9125861,-0.3799043,-0.03257208,35.27624,-4.198209,7.762901,1007.625
1.979971886,-0.1630424,0.01847127,0.02598504,-0.9154993,-0.3799578,-0.02918645,34.53841,-4.211252,6.427065,1007.626
2.012531281,-0.1015149,-0.04100967,0.08718444,-0.9164768,-0.3813909,-0.03742477,34.53841,-4.211252,6.427065,1007.626
2.047595024,-0.1015149,-0.2194525,0.02598504,-0.9155029,-0.3813782,-0.03742552,35.26324,-3.473171,7.311609,1007.626
2.080154896,0.08306745,0.07795221,0.08718444,-0.913049,-0.3813816,-0.02969391,34.89515,-3.4784,6.866726,1007.626
2.112713814,0.08306745,-0.04100967,-0.09641375,-0.9140454,-0.3794507,-0.02966349,34.89515,-3.4784,6.866726,1007.625
2.147778511,0.2061224,-0.04100967,0.02598504,-0.9174483,-0.379981,-0.0296683,34.90083,-3.842211,6.869337,1007.625
2.180337429,-0.1015149,0.01847127,0.02598504,-0.9120657,-0.3818614,-0.02825205,34.53598,-3.842275,7.316597,1007.62
2.212897301,0.02153999,0.256395,0.02598504,-0.9135479,-0.381366,-0.03452696,34.53598,-3.842275,7.316597,1007.62
2.247961044,-0.1630424,-0.04100967,-0.09641375,-0.9140425,-0.3804071,-0.03306173,34.54167,-4.206086,7.319208,1007.625
2.280520439,0.02153999,0.1374331,0.2095832,-0.9116215,-0.3793992,-0.03401544,34.89515,-3.4784,6.866726,1007.62
2.313079834,0.02153999,0.07795221,-0.03521436,-0.9169513,-0.3809443,-0.03016685,34.89515,-3.4784,6.866726,1007.62
2.345639229,0.08306745,-0.04100967,-0.09641375,-0.9140305,-0.3804291,-0.02822831,35.2673,-3.839564,6.868149,1007.62
2.380703449,0.2061224,0.07795221,-0.09641375,-0.9174531,-0.3813992,-0.03839071,34.17356,-4.211315,6.874325,1007.62
2.413262844,-0.1630424,-0.1004906,-0.09641375,-0.9155468,-0.3760662,-0.03009379,34.17356,-4.211315,6.874325,1007.62
2.445822716,0.02153999,0.01847127,-0.1576131,-0.9150562,-0.3774934,-0.03543318,34.17356,-4.211315,6.874325,1007.62
2.480886459,0.02153999,-0.1004906,-0.09641375,-0.9139733,-0.3857653,-0.03024328,34.53598,-3.842275,7.316597,1007.62
2.513445377,0.1445949,0.07795221,-0.03521436,-0.9111136,-0.3803822,-0.03016391,34.53598,-3.842275,7.316597,1007.62
2.546005249,-0.03998747,0.07795221,0.02598504,-0.911118,-0.3798985,-0.02967315,34.16625,-3.850088,6.425642,1007.62
2.581068993,0.08306745,0.1374331,0.02598504,-0.9174157,-0.3828943,-0.03019615,34.53841,-4.211252,6.427065,1007.622
2.613628864,0.08306745,-0.04100967,0.02598504,-0.9141207,-0.3726546,-0.02810961,34.53841,-4.211252,6.427065,1007.622
2.646188259,0.02153999,-0.1004906,0.08718444,-0.9159838,-0.3813955,-0.03500844,34.17356,-4.211315,6.874325,1007.624
2.681252003,-0.03994977,0.01850991,0.02603744,-0.9150172,-0.3799427,-0.03112019,34.90651,-4.206022,6.871948,1007.624
2.713811875,-0.03982542,-0.2196759,0.02612327,-0.9136039,-0.376032,-0.03202865,34.90651,-4.206022,6.871948,1007.624
2.746370793,-0.1013256,-0.1600086,-0.03497147,-0.9116424,-0.3769828,-0.03107829,34.53436,-3.844858,6.870525,1007.626
2.778930664,0.1443096,-0.1602331,-0.09598985,-0.9139959,-0.3838217,-0.0302136,34.89678,-3.475817,7.312798,1007.626
2.813994408,-0.04073276,-0.160257,0.02652316,-0.9116276,-0.3779612,-0.0296431,34.89678,-3.475817,7.312798,1007.626
2.846553803,-0.1022098,0.01816765,-0.0956576,-0.9110512,-0.3866792,-0.03461043,34.16788,-3.847505,6.871714,1007.627
2.879113198,-0.04059371,0.1367011,-0.09559384,-0.9184138,-0.3814361,-0.03307321,34.8992,-3.844794,6.423265,1007.627
2.914177418,-0.1017689,-0.04180104,-0.03407092,-0.9125813,-0.3799131,-0.03063872,34.8992,-3.844794,6.423265,1007.627
2.946736813,-0.1629779,0.01785022,0.08839004,-0.9174946,-0.3775185,-0.03688134,34.54004,-4.208669,6.873137,1007.629
2.979296207,0.1449183,-0.1011285,-0.1564414,-0.9076647,-0.3842162,-0.03215924,34.53272,-3.847441,6.424454,1007.627
3.014359951,-0.162429,-0.2797618,0.08846726,-0.910638,-0.379404,-0.03014945,34.53272,-3.847441,6.424454,1007.627
3.046919823,0.3301632,0.1960319,0.02734869,-0.9111486,-0.3774645,-0.03060274,34.89515,-3.4784,6.866726,1007.627
3.079478741,0.08288155,0.2547139,0.02746746,-0.9169984,-0.3765777,-0.02865006,34.90651,-4.206022,6.871948,1007.627
3.114543438,0.2050903,0.253596,0.211156,-0.9159797,-0.3809272,-0.03113428,34.90651,-4.206022,6.871948,1007.627
3.147102356,-1.576991,0.07445528,-0.03398415,-0.9145533,-0.3770407,-0.02672597,34.53436,-3.844858,6.870525,1007.625
3.179662228,-0.4054989,0.1920876,-0.03428688,-0.917981,-0.3784769,-0.04124588,34.53436,-3.844858,6.870525,1007.625
3.212221623,-0.8330317,-0.3426431,0.08756061,-0.9121459,-0.3750565,-0.02863153,34.53436,-3.844858,6.870525,1007.625
3.247285366,-0.6454685,-0.3418292,0.1483374,-0.9212983,-0.3848712,-0.03408958,34.16625,-3.850088,6.425642,1007.625
3.279845238,-0.9494706,-0.3398575,0.02535301,-0.9130771,-0.3789521,-0.02965682,34.53436,-3.844858,6.870525,1007.625
3.312404156,0.1583427,0.017984,0.02521158,-0.9155287,-0.3789531,-0.03642175,34.53436,-3.844858,6.870525,1007.625
3.347468853,0.4649372,0.4936213,-0.09702908,-0.915527,-0.3784803,-0.03351428,35.2673,-3.839564,6.868149,1007.623
3.380027771,1.138223,0.6705371,-0.1576793,-0.9135656,-0.3794312,-0.03256392,34.5303,-3.478464,7.313986,1007.623
3.412587643,0.6425403,0.2523142,-0.2793781,-0.9169432,-0.3828616,-0.03599663,34.5303,-3.478464,7.313986,1007.623
3.447651386,0.02614366,0.1320211,0.02719254,-0.9125648,-0.3818458,-0.0330851,34.53436,-3.844858,6.870525,1007.623
3.480210781,-0.5266286,0.07211418,-0.03384902,-0.9169867,-0.3785016,-0.03302981,34.54167,-4.206086,7.319208,1007.623
3.512770653,-0.2171913,0.07185706,0.210856,-0.9146141,-0.3716979,-0.02616103,34.54167,-4.206086,7.319208,1007.623
3.547834396,-0.7094987,-0.2255459,0.02686976,-0.9219041,-0.3751483,-0.03635755,34.53272,-3.847441,6.424454,1007.621
3.580394268,-0.09090871,-0.2838464,0.2101088,-0.9135483,-0.3818409,-0.03695109,34.53841,-4.211252,6.427065,1007.621
3.612953186,2.310351,0.2523947,0.1488102,-0.8862703,-0.4213977,-0.02404636,34.54004,-4.208669,6.873137,1007.623
3.648016930,-2.365736,-0.8777432,0.08761082,-0.9090289,-0.3478451,-0.01855186,34.54004,-4.208669,6.873137,1007.623
3.680576801,2.741043,0.847204,-0.2795856,-0.9030305,-0.4069726,-0.03782804,34.16951,-3.844922,7.317785,1007.623
3.713136196,-2.427263,-0.104491,-0.03478798,-0.914606,-0.3721882,-0.02520176,34.53598,-3.842275,7.316597,1007.623
3.745695591,2.187296,0.7877231,-0.1571868,-0.9129559,-0.3901126,-0.03321085,34.53598,-3.842275,7.316597,1007.623
3.780759812,-0.8275495,-0.2829338,0.08761082,-0.9223322,-0.3800181,-0.03546467,34.52868,-3.481047,6.867914,1007.623
3.813319206,0.09536243,-0.1639719,0.1488102,-0.9174399,-0.3799964,-0.0262849,34.89188,-3.483566,5.974583,1007.623
3.845878601,-1.750461,-0.4613766,0.08761082,-0.9165711,-0.3712308,-0.02760214,34.89188,-3.483566,5.974583,1007.623
3.880942345,-2.427263,-1.115667,-0.03478798,-0.9036683,-0.3377953,0.03090073,34.8992,-3.844794,6.423265,1007.623
3.913502216,2.187296,1.20409,0.02641142,-1.016879,-0.2922764,-0.04273558,34.90083,-3.842211,6.869337,1007.623
3.946061134,-1.750461,-1.650995,-0.03478798,-0.904706,-0.3875751,-0.0331801,34.90083,-3.842211,6.869337,1007.623
3.981125832,4.463812,1.144609,-0.5243832,-0.9251994,-0.385863,-0.04086822,34.53841,-4.211252,6.427065,1007.623
4.013684750,-0.3353298,0.3118756,0.02641142,-0.9096145,-0.3837623,-0.0307003,34.53436,-3.844858,6.870525,1007.623
4.046244144,1.141329,0.3118756,-0.2183862,-0.9160841,-0.3712244,-0.02760252,34.53436,-3.844858,6.870525,1007.623
4.081308365,0.4645272,0.1334328,0.08761082,-0.9188289,-0.388232,-0.03607675,34.54409,-4.575063,6.429676,1007.619
4.113867760,0.2799448,-0.5208576,0.08761082,-0.914544,-0.3775332,-0.02528337,34.89678,-3.475817,7.312798,1007.619
4.146427631,-0.7044945,-0.2234529,-0.03478798,-0.914107,-0.3750577,-0.0339468,34.89678,-3.475817,7.312798,1007.619
4.178986549,-0.8275495,-0.8182623,0.2100096,-0.9160071,-0.3789748,-0.03303798,34.16788,-3.847505,6.871714,1007.619
4.214050293,-0.3968572,-0.104491,0.08761082,-0.9072418,-0.3783856,-0.03062056,34.53598,-3.842275,7.316597,1007.619
4.246610165,0.09536243,0.0144709,-0.03478798,-0.9126308,-0.3769691,-0.03687765,34.53598,-3.842275,7.316597,1007.62
4.279169560,0.4029997,0.1334328,-0.09598738,-0.914542,-0.3780125,-0.02674081,34.53436,-3.844858,6.870525,1007.62
4.314233780,0.4029997,0.1929137,-0.09598738,-0.9126123,-0.3779541,-0.03399244,34.8992,-3.844794,6.423265,1007.619
4.346793175,0.3414722,0.1334328,-0.03478798,-0.9189196,-0.3795054,-0.03159313,34.8992,-3.844794,6.423265,1007.617
4.379352570,0.3414722,0.3118756,-0.03478798,-0.9145335,-0.3794549,-0.03014646,34.16788,-3.847505,6.871714,1007.617
4.414416790,-0.2738023,0.3713565,0.02641142,-0.912044,-0.3833279,-0.02634094,34.16625,-3.850088,6.425642,1007.617
4.446975708,-1.873516,0.2523947,0.271209,-0.9188415,-0.385831,-0.02975621,34.16625,-3.850088,6.425642,1007.617
4.479535580,-2.181154,0.3713565,0.4548072,-0.9111007,-0.3823083,-0.03406032,34.53762,-3.839692,7.762669,1007.617
4.514599323,-2.673373,1.025647,2.535587,-0.9130961,-0.377015,-0.02817712,33.80873,-4.211379,7.321585,1007.615
4.547159195,-3.042538,0.9066849,3.025182,-0.9194928,-0.3698419,-0.02081086,33.80873,-4.211379,7.321585,1007.617
4.579718113,-4.088504,0.6687612,2.719185,-0.9135323,-0.3813946,-0.02824352,34.90083,-3.842211,6.869337,1007.617
4.612277508,-6.734185,0.9661659,3.575977,-0.9239078,-0.3712667,-0.04064678,34.54004,-4.208669,6.873137,1007.617
4.647341728,-7.10335,0.4903184,4.493967,-0.922016,-0.3659073,-0.03814996,34.54004,-4.208669,6.873137,1007.617
4.679901123,-7.041822,0.7877231,4.004372,-0.9106744,-0.38124,-0.05386288,34.53598,-3.842275,7.316597,1007.619
4.712460995,-8.08779,0.4903184,5.901553,-0.9294104,-0.356801,-0.03123662,33.81604,-4.572607,7.770267,1007.62
4.747524738,-9.441394,1.85838,5.595556,-0.9077632,-0.3792802,-0.04900203,33.81604,-4.572607,7.770267,1007.62
4.780084610,-8.764591,1.620456,6.391148,-0.9372222,-0.3601941,-0.05544969,35.27703,-4.569769,6.427298,1007.62
4.812643528,-3.22712,-5.041409,9.757115,-0.9255676,-0.2929775,0.05190745,34.91787,-4.933643,6.877171,1007.622
4.847707272,-6.303493,1.739418,6.819544,-0.9013994,-0.3403142,-0.04938044,34.91787,-4.933643,6.877171,1007.622
4.880267143,-4.642251,1.323052,7.737535,-0.9427057,-0.3519463,-0.06788636,34.19061,-5.302748,6.882158,1007.622
4.912826538,-1.319769,0.7282421,8.716726,-0.9126633,-0.331782,-0.03425472,34.18898,-5.305331,6.436087,1007.622
4.947890759,1.141329,-0.1639719,9.818315,-0.9147074,-0.3240219,-0.03655124,34.18898,-5.305331,6.436087,1007.62
4.980450153,1.510494,-0.4613766,10.00191,-0.9499402,-0.3160779,-0.06733216,34.56439,-5.661329,7.329653,1007.62
5.013009071,2.925626,0.3713565,9.512318,-0.9391664,-0.3165253,-0.04511405,33.8355,-6.033016,6.888569,1007.62
5.045568943,3.602427,0.6092802,10.9811,-0.9397744,-0.308225,-0.05513774,33.8355,-6.033016,6.888569,1007.62
5.080632687,4.709922,1.442014,11.1647,-0.948677,-0.299527,-0.06949775,33.82414,-5.305395,6.883347,1007.621
5.113192558,11.10878,1.798899,13.00068,-0.9498957,-0.2786412,-0.07014468,34.57817,-6.757927,6.445343,1007.62
5.145751953,2.802571,2.453189,12.26629,-0.940738,-0.3058785,-0.03963295,34.57817,-6.757927,6.445343,1007.62
5.180815697,1.325912,1.620456,11.4707,-0.9346203,-0.2911395,-0.05681556,34.21902,-7.121801,6.895214,1007.62
5.213375568,1.202857,0.07395184,9.634717,-0.9419973,-0.284443,-0.0542894,33.13192,-7.917998,6.904438,1007.62
5.245934486,2.679516,0.1334328,9.145122,-0.9267743,-0.2963698,-0.05980319,33.13192,-7.917998,6.904438,1007.62
5.280999184,8.032404,-2.54321,5.901553,-0.9424968,-0.2820484,-0.04796848,33.87054,-8.276515,6.904671,1007.618
5.313558102,-16.14789,-5.10089,8.839125,-0.9131199,-0.1038276,0.06783234,33.86081,-7.546311,7.34552,1007.618
5.346117973,-7.472515,0.5497993,7.18674,-0.9425474,-0.2277917,-0.009437274,33.85917,-7.548894,6.899448,1007.62
5.381181717,-4.273087,1.144609,7.003142,-0.9624984,-0.2713021,-0.0105652,33.85917,-7.548894,6.899448,1007.62
5.413740635,-6.180438,0.3713565,4.310369,-0.9547184,-0.2759365,-0.03771253,33.87054,-8.276515,6.904671,1007.62
5.446300507,-3.47323,1.263571,4.310369,-0.9501264,-0.2610979,-0.08099449,33.86649,-7.910122,7.348131,1007.62
5.478859902,2.002714,-1.532033,6.941943,-0.9415162,-0.2435788,-0.06140044,33.86649,-7.910122,7.348131,1007.62
5.513924122,8.770734,-3.435424,3.147581,-0.9484477,-0.2705134,-0.03666908,33.87622,-8.640326,6.907282,1007.621
5.546483517,2.310351,-2.781133,2.780384,-0.9690379,-0.3113742,-0.08754379,33.5057,-8.276579,7.351933,1007.621
5.579042435,-0.5814396,-2.126843,-0.4019844,-0.9560688,-0.2932791,-0.07519583,33.5057,-8.276579,7.351933,1007.621
5.614107132,-0.642967,-2.126843,-2.115567,-0.9539961,-0.2559642,-0.04562593,33.14896,-9.00943,6.912271,1007.621
5.646666050,0.710637,-1.888919,-3.217157,-0.9482189,-0.2495843,-0.0426339,33.51543,-9.006783,6.911083,1007.621
5.679225922,2.433406,-1.591514,-2.84996,-0.9376405,-0.2833877,-0.06007802,33.51543,-9.006783,6.911083,1007.62
5.714289665,4.894505,-0.8777432,-2.972359,-0.9618804,-0.2881817,-0.03740905,33.51543,-9.006783,6.911083,1007.618
5.746849537,6.801856,-0.5803385,-2.666362,-0.9538371,-0.3132726,-0.05423442,33.50812,-8.645555,6.4624,1007.618
5.779408932,-18.54746,3.523846,-3.767951,-0.9944209,-0.3938166,-0.3053299,33.50812,-8.645555,6.4624,1007.62
5.814472676,6.863383,0.4903184,-2.176767,-0.9345397,-0.2523418,-0.03833878,34.23133,-7.910058,6.900871,1007.62
5.847032547,4.340757,-0.104491,-1.503573,-0.9654294,-0.2770304,-0.04158589,33.51138,-8.64039,7.354544,1007.62
5.879591465,0.4029997,-0.4613766,-0.5855826,-0.9503145,-0.2792477,-0.04501794,33.51138,-8.64039,7.354544,1007.621
5.914656162,2.002714,0.1334328,0.2100096,-0.9111181,-0.2549788,-0.0326011,33.50243,-8.281745,6.459789,1007.621
5.947215080,-2.242681,-1.175148,1.005602,-0.956436,-0.2626448,-0.07956187,33.87622,-8.640326,6.907282,1007.623
5.979774475,-6.303493,-0.3424147,1.250399,-0.9534069,-0.2623274,-0.03412253,33.87622,-8.640326,6.907282,1007.623
6.012333870,-6.549603,-0.7587814,1.1892,-0.953909,-0.2646842,-0.05155956,34.60184,-8.273805,6.456223,1007.625
6.047398090,-1.442824,0.3118756,0.7608041,-0.9529062,-0.2661512,-0.04674914,33.8689,-8.279099,6.458599,1007.625
6.079957485,0.09536243,0.9066849,0.2100096,-0.9568329,-0.261389,-0.03652178,33.8689,-8.279099,6.458599,1007.625
6.112516880,1.141329,0.3713565,0.2100096,-0.9544149,-0.2641805,-0.05686853,34.24837,-9.001491,6.908705,1007.625
6.147580624,1.510494,-0.2829338,0.02641142,-0.9514241,-0.2666466,-0.04047423,33.50243,-8.281745,6.459789,1007.625
6.180140495,0.09536243,-1.472553,0.02641142,-0.9543784,-0.2651984,-0.04673319,33.50243,-8.281745,6.459789,1007.625
6.212699413,-0.02769248,-2.186324,-0.1571868,-0.9489865,-0.2661443,-0.03708528,33.8689,-8.279099,6.458599,1007.623
6.247764111,0.6491095,-0.2829338,-1.197576,-0.946578,-0.2655893,-0.04529655,33.50812,-8.645555,6.4624,1007.623
6.280323029,-0.8890769,-2.662171,-3.400755,-0.9165387,-0.2568341,-0.06742731,33.50812,-8.645555,6.4624,1007.623
6.312882900,6.801856,0.1929137,-2.605163,-0.9556699,-0.273612,-0.01737431,33.88027,-9.00672,6.463821,1007.623
6.347946644,7.294075,-0.7587814,-2.237966,-0.9575843,-0.2770277,-0.01984146,33.50407,-8.279162,6.905861,1007.623
6.380506039,4.77145,-0.4613766,-4.135148,-0.9503886,-0.2724538,-0.04298071,33.50407,-8.279162,6.905861,1007.621
6.413065910,6.309636,0.07395184,-4.318746,-0.9571215,-0.2831602,-0.05908899,33.50407,-8.279162,6.905861,1007.621
6.445624828,10.73961,-2.364767,-3.217157,-0.9506106,-0.2862612,-0.0001706115,33.1376,-8.281809,6.907049,1007.621
6.480689526,6.740328,0.5497993,-3.461954,-0.9526591,-0.2856271,-0.03834573,33.1376,-8.281809,6.907049,1007.617
6.513248444,4.586867,0.3118756,-3.461954,-0.9359865,-0.2965629,-0.04384581,34.23133,-7.910058,6.900871,1007.617
6.545807839,2.617988,-0.04501004,-1.931969,-0.9443278,-0.2898967,-0.03745216,33.85591,-7.55406,6.007305,1007.621
6.580872059,0.09536243,-0.2234529,-1.075178,-0.9448282,-0.2884519,-0.0359795,33.85591,-7.55406,6.007305,1007.62
6.613431454,0.8336919,0.6687612,-0.1571868,-0.9434011,-0.2855174,-0.03593611,33.4927,-7.551541,6.900639,1007.62
6.645991326,-4.642251,0.0144709,0.3936078,-0.939973,-0.289789,-0.04857238,33.86486,-7.912705,6.90206,1007.618
6.681055069,-7.84168,-0.1639719,1.984792,-0.9414393,-0.2859933,-0.03256163,33.86486,-7.912705,6.90206,1007.618
6.713613987,-10.24125,-0.8182623,2.780384,-0.9439564,-0.2806427,-0.04069497,33.85754,-7.551477,6.453377,1007.618
6.746173859,-10.67194,-1.532033,3.086381,-0.947839,-0.2840466,-0.05137744,33.86486,-7.912705,6.90206,1007.618
6.781237602,-10.73347,2.631632,2.780384,-0.9122586,-0.2869734,-0.05387332,33.86486,-7.912705,6.90206,1007.616
6.813797474,-3.165593,-4.922447,0.08761082,-0.9594761,-0.2795332,-0.008760192,33.49839,-7.915351,6.90325,1007.616
6.846356392,3.602427,3.226442,-3.523154,-0.9639185,-0.295652,-0.1100276,33.50243,-8.281745,6.459789,1007.616
6.878916264,10.92419,0.1929137,-5.848731,-0.9510627,-0.2578499,-0.05000791,33.50243,-8.281745,6.459789,1007.618
6.913980007,23.72191,2.988518,-8.602703,-0.9533513,-0.2681363,-0.03904497,33.49675,-7.917934,6.457178,1007.616
6.946539402,21.32234,-0.04501004,-16.61983,-0.9653037,-0.2901016,-0.05241972,33.85754,-7.551477,6.453377,1007.618
6.979099274,2.433406,-1.532033,-11.11188,-0.9952899,-0.3122711,-0.07254746,33.85754,-7.551477,6.453377,1007.618
7.014163017,-6.549603,0.9066849,-6.827921,-0.9336678,-0.3646964,-0.01733504,34.22564,-7.546247,6.89826,1007.618
7.046722889,-5.319054,0.07395184,-3.217157,-0.9224798,-0.2828346,-0.03156498,34.21333,-6.757991,6.892603,1007.618
7.079281807,-6.85724,-0.6993004,0.3936078,-0.9602998,-0.3012228,-0.05066071,34.21738,-7.124384,6.449142,1007.618
7.114345551,-6.241965,-2.007881,1.678795,-0.94766,-0.3827142,-0.04949929,34.21738,-7.124384,6.449142,1007.618
7.146905422,-12.02555,-2.483729,3.637176,-0.9411417,-0.3103173,-0.02664911,33.84523,-6.76322,6.44772,1007.62
7.179464817,-6.980295,-3.256981,2.841584,-0.9496663,-0.2947553,-0.05298919,34.57249,-6.394116,6.442732,1007.618
7.214529038,-7.84168,-2.721653,0.8832029,-0.9511039,-0.2881584,-0.01180012,34.57249,-6.394116,6.442732,1007.618
7.247088432,4.52534,-2.781133,-0.8303802,-0.9695993,-0.2960249,-0.04477191,33.83792,-6.401993,5.999037,1007.616
7.279648304,3.910065,-3.019057,-2.360365,-0.9492058,-0.2899448,-0.04083182,33.83792,-6.401993,5.999037,1007.616
7.312207222,5.940471,-2.721653,-2.115567,-0.9499471,-0.3141629,-0.06101903,33.83792,-6.401993,5.999037,1007.616
7.347270966,0.1568899,-1.650995,-1.442374,-0.9240108,-0.2665547,0.01750593,34.2117,-6.760573,6.446531,1007.616
7.379830837,4.709922,-3.019057,-0.952779,-0.9451712,-0.3029894,-0.04635188,34.58885,-7.548767,6.004929,1007.616
7.412390232,5.325197,-3.494905,-1.687172,-0.9406293,-0.314638,-0.03686643,34.58885,-7.548767,6.004929,1007.616
7.447454453,2.925626,-2.54321,-1.381175,-0.9333894,-0.3120473,-0.0513352,33.85255,-7.124448,6.896402,1007.616
7.480013847,-0.3968572,-2.959576,-0.4631838,-0.9392232,-0.3016775,0.002483463,33.83387,-6.035599,6.442497,1007.618
7.512572765,-2.119626,-4.446599,-0.09598738,-0.9444345,-0.3191346,-0.02097993,33.83387,-6.035599,6.442497,1007.618
7.547637463,4.586867,-8.669745,-0.7079814,-0.9547333,-0.3096223,-0.004873428,33.8436,-6.765803,6.001648,1007.618
7.580196381,4.27923,-5.219852,-2.115567,-0.942192,-0.2987759,-0.00278655,33.83629,-6.404576,5.552963,1007.62
7.612756252,4.709922,-7.123242,-2.176767,-0.9430889,-0.3141487,-0.04459062,33.83629,-6.404576,5.552963,1007.62
7.647819996,8.216987,-7.65857,-3.523154,-0.9432456,-0.2915088,-0.0007411556,33.84197,-6.768386,5.555574,1007.62
7.680379391,4.832977,-5.160371,-4.318746,-0.9370974,-0.3200507,-0.0123002,34.20276,-6.401929,5.551775,1007.62
7.712938786,7.90935,-6.885318,-4.93074,-0.9406508,-0.300806,0.02038308,34.20276,-6.401929,5.551775,1007.62
7.745498181,7.601712,-5.814661,-5.726332,-0.9470698,-0.2912143,0.03020315,34.56923,-6.399282,5.550587,1007.62
7.780562401,6.432691,-3.316462,-6.338326,-0.9309059,-0.30069,0.02279233,34.19568,-6.040332,5.166817,1007.62
7.813121796,2.864098,1.025647,-4.808342,-0.9239265,-0.3132633,0.02887767,34.19568,-6.040332,5.166817,1007.618
7.845681668,2.433406,2.51267,-4.073948,-0.9171309,-0.3568357,0.01128816,34.18837,-5.679104,4.718134,1007.62
7.880745411,0.4645272,8.639208,-3.033558,-0.9100224,-0.3316512,0.05081905,34.55787,-5.67166,5.545364,1007.618
7.913304329,-15.22497,13.3382,-0.4631838,-0.9250584,-0.3314808,0.07693851,34.55787,-5.67166,5.545364,1007.618
7.945864201,-26.05381,11.37533,1.984792,-0.9453304,-0.3634658,-0.0008701922,34.17701,-4.951483,4.712912,1007.618
7.980927944,-16.33247,7.152184,1.984792,-0.885016,-0.3012583,0.06527652,34.55219,-5.30785,5.542753,1007.618
8.013487816,-13.2561,8.877131,5.044762,-0.8586192,-0.3106138,0.06075793,34.55219,-5.30785,5.542753,1007.616
8.046047211,-19.5319,3.702289,6.758345,-0.9606814,-0.2539158,0.0187009,34.92294,-5.671228,5.161829,1007.616
8.081110954,-29.74545,1.085128,8.28833,-1.075748,-0.3107355,-0.1062827,34.56518,-6.032888,5.994049,1007.616
8.113670826,-15.10192,9.293498,12.93948,-1.04168,-0.2870095,-0.2021457,34.56518,-6.032888,5.994049,1007.616
8.146229744,-16.45552,3.523846,13.24548,-0.9324371,-0.3058123,-0.0304558,34.20276,-6.401929,5.551775,1007.618
8.181294441,-14.05595,0.6092802,16.55025,-1.096514,-0.1317637,0.02117898,34.20276,-6.401929,5.551775,1007.618
8.213853359,-6.85724,0.6687612,17.52944,-0.9299659,-0.3144082,-0.05669167,34.20276,-6.401929,5.551775,1007.618
8.246412754,14.12362,2.988518,16.85625,-0.8934853,-0.3100535,-0.05472694,34.57654,-6.76051,5.999271,1007.618
8.278972149,15.78486,3.047999,16.73385,-0.979076,-0.2757593,-0.03961982,34.22807,-7.915224,6.008728,1007.62
8.314036369,3.910065,-0.7587814,11.5319,-0.95373,-0.2759502,-0.03191317,34.22807,-7.915224,6.008728,1007.62
8.346595764,7.355603,0.07395184,9.512318,-0.9473553,-0.2849856,-0.05719276,33.86728,-8.281681,6.012527,1007.62
8.379155159,7.109493,3.642808,7.798735,-0.9226466,-0.2682618,-0.03037574,34.24106,-8.640263,6.460022,1007.621
8.414218903,6.555746,1.442014,7.125541,-0.9666675,-0.2546825,-0.04317725,34.24106,-8.640263,6.460022,1007.621
8.446778774,2.187296,0.6687612,5.717955,-0.9649039,-0.2452842,-0.07397169,33.87864,-9.009303,6.01775,1007.623
8.479337692,7.047966,1.263571,5.167161,-0.9518625,-0.2225651,-0.009831922,33.87296,-8.645493,6.015139,1007.623
8.514402390,-2.734901,-0.104491,3.943173,-0.9568078,-0.266191,-0.04916287,33.87296,-8.645493,6.015139,1007.623
8.546961308,-0.1507474,-0.04501004,2.963983,-0.9716012,-0.2099767,-0.05554162,33.89163,-9.734342,6.469044,1007.621
8.579521179,1.325912,-0.5803385,2.780384,-0.9445658,-0.2257855,-0.02873979,33.89326,-9.731758,6.915115,1007.621
8.614584923,-1.873516,0.3118756,3.759575,-0.9517655,-0.2370105,-0.03905501,33.51948,-9.373178,6.467623,1007.619
8.647144318,2.002714,2.096304,5.22836,-0.9118457,-0.2663806,0.01411321,33.51948,-9.373178,6.467623,1007.621
8.679704189,-9.133757,-0.04501004,3.637176,-0.989024,-0.2375109,-0.1419859,33.15138,-9.378407,6.022739,1007.621
8.712263107,-6.795712,0.9661659,3.881973,-0.975159,-0.1931022,-0.03594567,33.15138,-9.378407,6.022739,1007.621
8.747327805,-3.903922,-0.3424147,1.617596,-0.9612045,-0.2191921,-0.03007327,33.52516,-9.736988,6.470234,1007.621
8.779886723,-0.3968572,2.51267,0.8220035,-0.9524915,-0.2569763,-0.03259164,33.52921,-10.10338,6.026773,1007.623
8.812446594,-1.811989,-0.4613766,1.005602,-0.9948605,-0.2380752,-0.1415056,33.52921,-10.10338,6.026773,1007.623
8.847510338,-10.61042,-2.067362,1.984792,-0.9920754,-0.2097267,-0.06228532,33.88595,-9.370531,6.466433,1007.625
8.880069733,-7.59557,-0.4613766,2.474387,-0.969025,-0.2258986,-0.07367196,33.89568,-10.10073,6.025583,1007.625
8.912629604,-9.010701,0.1334328,2.657985,-0.989769,-0.2013752,-0.0752113,33.52921,-10.10338,6.026773,1007.625
8.947693348,-1.381296,1.501494,1.801194,-0.9623271,-0.2122746,-0.05800251,33.52921,-10.10338,6.026773,1007.623
8.980252266,-3.71934,0.6092802,1.1892,-0.969969,-0.2278681,-0.07080083,33.52758,-10.10596,5.5807,1007.623
9.012812138,-3.96545,1.20409,1.1892,-0.9499952,-0.2266733,-0.06258447,33.53489,-10.46719,6.029385,1007.621
9.047875881,-4.580724,-0.6993004,0.6996047,-0.9649857,-0.1952512,-0.06837451,33.53489,-10.46719,6.029385,1007.621
9.080435753,-4.949889,-2.245805,5.717955,-0.9270229,-0.4189326,-0.1477139,33.52353,-9.739572,6.024162,1007.621
9.112995148,-2.611846,-1.056186,4.18797,-0.9627131,-0.2186483,-0.04698171,33.52516,-9.736988,6.470234,1007.621
9.145554543,-12.1486,-3.316462,2.290789,-0.9726612,-0.1955637,-0.0219677,33.52516,-9.736988,6.470234,1007.621
9.180618763,-8.395427,-2.840614,3.025182,-0.9760215,-0.201404,-0.02978759,33.1741,-10.83365,6.033184,1007.621
9.213177681,0.4645272,-4.565561,4.983562,-0.9779243,-0.2628099,-0.1046792,33.53489,-10.46719,6.029385,1007.616
9.245737553,-2.734901,-6.825837,4.371568,-0.9594389,-0.2102731,-0.06232515,33.53489,-10.46719,6.029385,1007.616
9.280801296,-3.104065,-5.636219,4.861164,-0.9619508,-0.1982736,-0.03652069,33.17107,-10.83845,5.204763,1007.616
9.313361168,-3.657812,-7.063761,4.738765,-0.9900275,-0.2592924,-0.05820971,33.90541,-10.83094,5.584732,1007.616
9.345920086,60.08463,-9.740402,2.474387,-0.9707588,-0.2025896,-0.07428143,33.90541,-10.83094,5.584732,1007.614
9.380983830,25.5062,-12.65497,1.250399,-0.9604427,-0.1513106,0.00721488,33.53894,-10.83359,5.585922,1007.616
9.413543701,4.956032,-11.82224,2.719185,-0.9551078,-0.233847,0.003533641,33.5503,-11.56121,5.591145,1007.616
9.446103096,10.73961,-9.978326,4.249169,-0.9633956,-0.1949923,-0.0142339,33.5503,-11.56121,5.591145,1007.616
9.481167317,4.586867,-7.777532,4.065571,-0.9726118,-0.1956539,-0.002150674,33.54322,-11.19961,5.206186,1007.616
9.513726711,8.647678,-8.431822,2.413188,-0.9794438,-0.1900085,0.01921063,33.54322,-11.19961,5.206186,1007.62
9.546286583,5.386724,-9.026631,2.596786,-0.9710637,-0.2024529,0.00112774,33.54322,-11.19961,5.206186,1007.621
9.578845501,7.232548,-10.27573,3.698375,-0.9591693,-0.2121923,0.03915444,33.17675,-11.20226,5.207375,1007.621
9.613909245,7.66324,-8.788707,5.044762,-0.9701265,-0.1895317,0.04772814,33.17349,-11.20742,4.315231,1007.621
9.646469116,8.093931,-5.933623,6.085151,-0.9682078,-0.1851726,0.05649358,33.17349,-11.20742,4.315231,1007.62
9.679028511,4.03312,-2.840614,6.574747,-0.961483,-0.1801587,0.04206228,33.53265,-10.84355,3.865359,1007.62
9.714092732,12.21627,-1.829438,7.18674,-0.98577,-0.1383122,0.06834311,33.54565,-11.56859,4.316654,1007.618
9.746652126,6.186581,-1.710476,7.064342,-0.9765686,-0.183227,0.03236248,33.54565,-11.56859,4.316654,1007.614
9.779211044,4.894505,-1.650995,7.798735,-0.9616466,-0.1646404,0.04906646,33.5416,-11.20219,4.760115,1007.614
9.814275742,2.864098,-0.5803385,8.043532,-0.9653059,-0.1903301,0.02354247,33.54728,-11.566,4.762726,1007.614
9.846834660,1.941186,-0.6398194,7.492737,-0.9866906,-0.1469834,0.04887664,33.54728,-11.566,4.762726,1007.614
9.879394531,3.233263,2.036823,7.125541,-0.9781741,-0.1682379,0.04467713,33.18081,-11.56865,4.763914,1007.614
9.914458275,1.941186,2.750594,7.431538,-0.9676542,-0.1515751,0.04443782,32.81675,-11.94028,3.87557,1007.614
9.947017670,2.864098,2.691113,7.309139,-0.9540278,-0.1523339,0.03667906,32.81675,-11.94028,3.87557,1007.614
9.979577065,2.187296,1.263571,6.697145,-0.9833882,-0.1472205,0.00391579,33.19622,-12.66267,4.325676,1007.614
10.014641285,4.77145,-0.4613766,5.901553,-0.983434,-0.1395272,0.02191815,32.82407,-12.3015,4.324253,1007.614
10.047200680,6.617273,-2.424248,5.656755,-0.9728705,-0.1694983,0.01661693,32.82407,-12.3015,4.324253,1007.614
10.079760075,6.125053,-4.387119,4.922363,-0.980524,-0.1361383,0.03308471,32.83869,-13.02396,5.221619,1007.614
10.112319946,3.29479,-4.149195,4.555166,-0.9740724,-0.1424605,0.0523171,33.20516,-13.02131,5.22043,1007.616
10.147383690,3.602427,-3.85179,4.616366,-0.9756539,-0.1322711,0.05150733,33.20516,-13.02131,5.22043,1007.616
10.179942608,1.818131,-4.208676,4.677565,-0.9991635,-0.1251927,0.03085281,33.19622,-12.66267,4.325676,1007.616
10.212502480,4.340757,-4.981928,4.065571,-0.9742531,-0.1273863,0.05013037,32.46896,-13.03177,4.330664,1007.616
10.247566223,-1.258242,-4.862966,4.12677,-0.9806408,-0.1240345,0.04293702,32.46896,-13.03177,4.330664,1007.616
10.280126095,2.864098,-5.398294,3.820774,-0.9875566,-0.1177604,0.0328885,33.20353,-13.0239,4.774359,1007.616
10.312685490,1.633549,-7.242204,3.759575,-0.9910988,-0.1037685,0.0451898,33.21489,-13.75152,4.779581,1007.616
10.347749233,7.294075,-10.75158,3.514777,-1.015871,-0.1113392,0.03591406,33.21489,-13.75152,4.779581,1007.616
10.380309105,13.44682,-16.58071,2.474387,-1.051947,-0.116488,-0.003766577,32.8338,-13.03171,3.883404,1007.616
10.412868023,37.62711,-23.59946,-0.4631838,-1.101717,-0.1017316,0.02840946,32.83785,-13.3981,3.439942,1007.616
10.447932720,40.21126,-30.9751,-1.931969,-1.101963,-0.07274407,0.06558858,33.58378,-14.11785,3.88886,1007.616
10.480491638,29.62854,-38.64814,-1.442374,-1.02949,-0.01415521,0.1074995,33.58378,-14.11785,3.88886,1007.616
10.513051510,3.663955,-41.44374,-2.605163,-0.9298181,0.02119112,0.2080016,32.83785,-13.3981,3.439942,1007.62
10.545610905,-39.89749,-26.75195,-4.135148,-0.7027078,-0.09927714,0.09766804,32.83785,-13.3981,3.439942,1007.618
10.580675125,-15.9633,14.64678,5.167161,-0.5739008,0.1877547,-0.2340241,33.92831,-13.03152,2.541621,1007.618
10.613234520,-30.54531,64.61077,10.9811,-0.7651673,-0.2258334,-0.3566431,33.93237,-13.39791,2.09816,1007.618
10.645793438,-61.18599,55.33175,8.594327,-1.572685,-0.2708676,0.8108042,33.56184,-13.03416,2.54281,1007.618
10.680857182,136.7479,11.49429,-3.767951,-0.39455,-0.4040971,-0.8102277,33.56184,-13.03416,2.54281,1007.62
10.713417053,-30.42226,-8.729226,-0.8303802,-1.181777,0.4487502,0.5816508,33.93968,-13.75914,2.546844,1007.62
10.745975971,4.894505,3.523846,-12.64186,-1.002931,-0.2404653,-0.06709419,33.93321,-13.02377,3.879837,1007.62
10.781040669,2.187296,3.523846,-11.84627,-0.9458004,-0.1402431,0.07310885,33.93321,-13.02377,3.879837,1007.618
10.813599587,-6.057383,1.323052,-8.419106,-0.9674907,-0.2003306,0.07849697,33.93726,-13.39016,3.436376,1007.618
10.846159458,6.309636,3.940213,-8.9699,-0.9656487,-0.05807075,0.1149853,33.92427,-12.66512,2.985082,1007.618
10.881223202,-13.56373,2.750594,-12.15227,-0.969303,-0.1227143,0.1053018,33.92427,-12.66512,2.985082,1007.618
10.913782597,-13.80984,3.880732,-11.35668,-0.9799794,-0.2146024,0.08167492,33.54643,-11.94015,2.981049,1007.62
10.946342468,-5.195999,3.523846,-8.419106,-0.9779826,-0.1742951,0.09437235,34.29237,-12.65989,3.429965,1007.616
10.978901386,-4.211559,2.274746,-7.072719,-0.9957145,-0.1589351,0.08592303,34.29237,-12.65989,3.429965,1007.62
11.013966084,-8.764591,1.442014,-3.033558,-0.9658737,-0.2129627,0.0821697,34.65721,-12.65983,2.982704,1007.62
11.046525002,-2.427263,4.118656,0.8220035,-0.96365,-0.192094,0.09505373,34.6418,-11.56581,3.420943,1007.621
11.079084873,-1.811989,7.152184,2.22959,-0.9723248,-0.157709,0.09703682,34.6418,-11.56581,3.420943,1007.621
11.114148617,-4.396142,7.509069,3.820774,-0.972993,-0.1929997,0.0539619,33.90886,-11.57111,3.423321,1007.621
11.146708012,0.2799448,5.784122,2.902783,-0.9788321,-0.1484318,0.06914879,34.28832,-12.2935,3.873426,1007.623
11.179267883,-3.288648,2.215266,1.923593,-0.9742278,-0.1725602,0.04460738,34.28832,-12.2935,3.873426,1007.623
11.214331627,2.187296,-2.305286,2.22959,-0.9909835,-0.1571919,0.03712399,34.65642,-12.28827,4.31831,1007.623
11.246891499,2.187296,-4.803485,2.290789,-0.9875966,-0.1494981,0.06479058,34.64584,-11.93221,2.977483,1007.623
11.279450417,-1.319769,-4.625042,1.862393,-0.9690173,-0.1498702,0.09280283,34.64584,-11.93221,2.977483,1007.621
11.314514160,0.6491095,-2.126843,2.16839,-0.961544,-0.1643523,0.09257468,34.27937,-11.93485,2.978671,1007.62
11.347074032,0.4645272,0.4903184,2.474387,-0.9705329,-0.1445575,0.09578561,33.91454,-11.93492,3.425932,1007.62
11.379633427,-0.5814396,3.10748,1.739995,-0.9675745,-0.1483913,0.09234063,33.91454,-11.93492,3.425932,1007.62
11.412192822,0.5875821,4.653984,1.372798,-0.9739031,-0.150855,0.08167485,33.92263,-12.66771,2.53901,1007.62
11.447257042,0.09536243,5.248794,1.678795,-0.9753454,-0.153286,0.07777214,33.92022,-12.29873,3.428542,1007.62
11.479816437,1.695076,5.189312,1.678795,-0.9803041,-0.1474791,0.06916475,33.92022,-12.29873,3.428542,1007.62
11.512375832,2.802571,4.237617,1.923593,-0.9768462,-0.1551344,0.05260979,34.28263,-11.92969,3.870815,1007.62
11.547439575,5.263669,5.367755,2.413188,-0.9749749,-0.1421279,0.08325917,33.55538,-12.29879,3.875804,1007.621
11.579999447,4.77145,6.91426,4.065571,-0.9679639,-0.1604662,0.07475521,33.55538,-12.29879,3.875804,1007.62
11.612558365,3.971592,8.877131,4.555166,-0.9726347,-0.1366918,0.07028867,33.19622,-12.66267,4.325676,1007.624
11.647623062,3.602427,9.888308,4.12677,-0.9780009,-0.140073,0.05042381,33.93079,-12.65479,4.769369,1007.62
11.680181980,5.325197,10.48312,4.371568,-0.9790239,-0.1366667,0.04660975,33.93079,-12.65479,4.769369,1007.62
11.712741375,6.555746,9.947788,4.616366,-0.9824694,-0.1361681,0.03405289,33.92916,-12.65737,4.323298,1007.621
11.747805596,6.555746,8.401284,4.432767,-0.9850821,-0.1220821,0.02846979,33.19785,-12.66008,4.771748,1007.621
11.780364990,6.494218,7.687512,4.555166,-0.9795735,-0.1337048,0.03505442,33.19785,-12.66008,4.771748,1007.621
11.812924862,6.494218,8.222841,5.350759,-0.9781638,-0.1312145,0.0259069,33.56758,-12.65227,5.662701,1007.621
11.847988606,9.201426,8.639208,5.717955,-0.984185,-0.115746,0.02711545,32.84577,-13.38556,5.606577,1007.623
11.880547524,9.509063,8.75817,5.717955,-0.9896704,-0.1036901,0.03213845,32.84577,-13.38556,5.606577,1007.623
11.913107395,7.66324,7.449588,6.085151,-0.9837347,-0.1147217,0.01697973,33.21387,-13.38033,6.051462,1007.627
11.945666790,10.92419,8.579727,6.085151,-0.9959881,-0.1076006,0.01903371,32.85876,-14.11059,6.057873,1007.629
11.980731010,14.7389,9.888308,5.962752,-0.9960091,-0.1051842,0.02197086,32.85876,-14.11059,6.057873,1007.629
12.013290405,15.60028,12.38651,5.289559,-1.003826,-0.1057146,0.009402514,32.84903,-13.38039,6.498722,1007.629
12.045850277,23.66038,15.59848,4.555166,-1.019445,-0.1034728,0.006068151,33.21713,-13.37516,6.943605,1007.629
12.080914021,32.70491,17.85875,2.963983,-1.021793,-0.0713755,-0.005040937,33.21713,-13.37516,6.943605,1007.631
12.113472939,48.51747,19.70266,2.16839,-1.05521,-0.1040135,-0.08381367,32.85797,-13.73903,7.393476,1007.631
12.146032810,17.81527,3.702289,6.391148,-0.9965127,-0.0310201,0.169566,32.87018,-14.09251,9.180376,1007.633
12.181096554,-14.42512,-12.11964,3.881973,-1.01572,-0.07219397,0.08484881,32.49803,-13.73135,9.178953,1007.633
12.213656426,-23.3466,-27.46572,1.250399,-0.9334462,-0.3873994,0.1650348,32.49803,-13.73135,9.178953,1007.633
12.246215344,64.57613,-33.17589,-0.4019844,-0.9414183,-0.09696002,0.07956548,32.12992,-13.73658,8.73407,1007.633
12.281279564,-327.1076,75.55526,-27.94171,-0.9624547,1.035195,-0.3473649,32.1283,-13.73916,8.287996,1007.633
12.313838959,-59.52475,-35.55513,-2.054368,-0.7085259,-0.03149819,0.0324851,32.1283,-13.73916,8.287996,1007.628
12.346398354,36.76572,19.76214,-9.887891,-0.6513232,-0.2346822,-0.6473975,32.48093,-13.38562,6.053839,1007.633
12.378958225,-23.65424,4.951389,0.577206,-1.469738,-0.3778601,0.3759669,32.11143,-13.39306,5.226606,1007.633
12.414021969,27.65966,6.91426,-0.7691808,-1.121785,0.441521,-0.2160892,32.11143,-13.39306,5.226606,1007.633
12.446581841,30.67451,0.4903184,-7.501115,-0.9581463,-0.1086966,0.1538426,32.84577,-13.38556,5.606577,1007.633
12.479140759,43.90291,-0.04501004,-14.84504,-0.9956487,-0.09923927,-0.001624257,31.38557,-13.75995,5.613943,1007.631
12.514204502,11.35489,-2.54321,-8.602703,-0.9155241,-0.1485672,0.06666873,31.38557,-13.75995,5.613943,1007.631
12.546764374,13.01613,-3.435424,-14.41665,-1.008422,-0.1861245,-0.06239283,32.48093,-13.38562,6.053839,1007.631
12.579323769,14.3082,-0.4613766,-11.66267,-0.9533947,-0.1640092,0.04085072,32.83767,-12.65277,6.4935,1007.631
12.614387989,17.93833,-0.9372241,-11.29548,-0.9710095,-0.158851,0.03176226,32.83767,-12.65277,6.4935,1007.633
12.646947384,1.941186,-2.662171,-8.847501,-0.9858499,-0.1913796,-0.01802412,33.19683,-12.28889,6.043629,1007.631
12.679506302,8.770734,-0.6398194,-6.521924,-0.9526521,-0.1397933,0.06152128,32.45415,-11.56398,6.486855,1007.625
12.714570999,0.7721645,1.144609,-5.665133,-0.9724455,-0.2107017,-0.005764048,32.45415,-11.56398,6.486855,1007.627
12.747129917,10.18587,3.523846,-3.706752,-0.9822739,-0.1584034,0.008094493,32.82793,-11.92256,6.934349,1007.627
12.779689789,1.387439,2.691113,-1.564773,-1.014059,-0.1975173,-0.03162508,33.5552,-11.55346,6.929361,1007.627
12.812249184,4.586867,1.144609,-1.503573,-0.9948937,-0.1633991,0.00174656,33.5552,-11.55346,6.929361,1007.628
12.847312927,16.21556,4.713465,2.841584,-0.973604,-0.1386152,0.0630096,32.81252,-10.82855,7.372587,1007.633
12.879872799,-20.39328,1.263571,3.514777,-0.9510201,-0.1999586,0.04416698,33.1871,-11.55869,6.484478,1007.633
12.912431717,-14.11748,2.691113,3.453578,-0.9802755,-0.1660801,-0.007975988,33.1871,-11.55869,6.484478,1007.633
12.947496414,-7.780152,0.1929137,3.331179,-0.978045,-0.131907,0.07133364,33.19604,-11.91733,7.379232,1007.631
12.980055332,-5.442109,1.144609,1.862393,-0.997925,-0.167993,-0.0650266,33.19604,-11.91733,7.379232,1007.631
13.012615204,-4.150032,2.096304,2.22959,-0.9652294,-0.1548546,0.024567,33.19604,-11.91733,7.379232,1007.631
13.047678947,-5.257526,0.4903184,0.8832029,-0.9824356,-0.1390835,0.03400837,33.19115,-11.92508,6.041018,1007.629
13.080238342,-2.734901,0.9066849,1.066801,-0.9905795,-0.1598878,-0.009805078,33.19278,-11.9225,6.487089,1007.629
13.112797737,-1.442824,0.5497993,0.271209,-0.9751395,-0.137071,0.03983255,33.19278,-11.9225,6.487089,1007.626
13.147861958,-1.627406,-0.04501004,0.08761082,-0.9861767,-0.1584411,0.005197426,32.83199,-12.28896,6.490889,1007.626
13.180421352,3.29479,-0.104491,-0.2795856,-0.9741017,-0.1490654,0.008712448,32.82389,-11.55617,7.37781,1007.624
13.212980747,3.29479,0.5497993,-0.340785,-0.9744371,-0.1583854,0.02645553,32.82389,-11.55617,7.37781,1007.624
13.245540619,3.78701,0.0144709,-0.7079814,-0.9867935,-0.1506003,-0.01063379,33.19115,-11.92508,6.041018,1007.624
13.280604363,9.201426,0.6687612,-1.687172,-0.9794543,-0.145813,0.0261688,32.82793,-11.92256,6.934349,1007.622
13.313163281,5.817416,0.9066849,-2.360365,-0.9809275,-0.146285,0.01891237,32.82793,-11.92256,6.934349,1007.622
13.345723152,5.940471,1.620456,-2.482764,-0.9826331,-0.1705333,0.002592637,32.82957,-11.91998,7.380421,1007.622
13.380786896,6.001998,1.977342,-2.421564,-0.976974,-0.1506206,0.02174267,32.82957,-11.91998,7.380421,1007.622
13.413346768,6.432691,1.917861,-3.094758,-0.9787363,-0.1704847,0.003072994,32.82957,-11.91998,7.380421,1007.622
13.445906162,4.402285,1.739418,-3.217157,-0.9769444,-0.1559063,0.008610825,32.82225,-11.55875,6.931738,1007.624
13.480969906,-0.2122748,1.739418,-2.84996,-0.973415,-0.1646433,0.01620815,33.56251,-11.91469,7.378044,1007.624
13.513529778,-0.8890769,1.20409,-1.993169,-0.973402,-0.1618136,0.03510301,33.56251,-11.91469,7.378044,1007.626
13.546088696,-2.611846,2.155785,-2.054368,-0.9782676,-0.1690185,0.002611535,32.81657,-11.19494,6.929127,1007.627
13.581153393,2.002714,1.679937,-2.788761,-0.9807176,-0.1671198,0.005543128,33.19199,-11.55094,7.822693,1007.629
13.613712311,0.8952194,1.263571,-2.972359,-0.9708808,-0.1757325,0.003952104,33.19199,-11.55094,7.822693,1007.629
13.646272183,-3.780867,1.144609,-1.80957,-0.9825647,-0.1739874,0.01414092,32.81984,-11.18978,7.82127,1007.629
13.678831101,-5.626691,1.442014,-1.503573,-0.9723323,-0.1776711,-0.001393215,33.54383,-10.82584,6.924139,1007.631
13.713895321,-2.242681,1.025647,-0.8915796,-0.9792994,-0.1722545,-0.03659037,33.54383,-10.82584,6.924139,1007.633
13.746454716,4.217702,0.7877231,-1.319975,-0.9738331,-0.1719098,0.009813797,32.81089,-10.83113,6.926516,1007.634
13.779014111,5.817416,0.7282421,-2.360365,-0.9704379,-0.1661333,0.0316506,32.82063,-11.56134,6.485666,1007.634
13.814078331,7.90935,-0.5208576,-4.93074,-1.05035,-0.0478661,-0.01963939,32.82063,-11.56134,6.485666,1007.636
13.846637726,19.72262,0.5497993,-2.972359,-0.9877733,-0.1805104,0.04401579,33.18226,-10.82073,8.263542,1007.638
13.879196644,17.38458,-2.721653,-10.56108,-1.019629,-0.1273371,0.01633854,33.179,-10.8259,7.371399,1007.64
13.914261341,16.27708,-3.1975,-11.84627,-0.9827447,-0.2045182,-0.005659769,33.179,-10.8259,7.371399,1007.641
13.946820259,1.818131,-7.539608,-25.00414,-1.084499,-0.01204959,0.1278865,33.179,-10.8259,7.371399,1007.641
13.979380131,7.109493,-2.364767,-9.887891,-0.9697947,-0.2253329,0.01286187,33.89816,-9.72401,8.25333,1007.643
14.014443874,10.73961,-2.126843,-10.25509,-0.9767563,-0.1648109,0.04327793,33.17495,-10.45951,7.814859,1007.645
14.047003269,0.7721645,-1.9484,-7.868311,-0.9734623,-0.2039776,0.008840824,33.17495,-10.45951,7.814859,1007.648
14.079563141,4.03312,-1.532033,-6.766722,-0.9669116,-0.2161878,0.04055109,33.52274,-9.368011,7.359766,1007.648
14.114626884,0.8336919,-2.364767,-7.133918,-0.9510082,-0.2574739,-0.02583339,33.88921,-9.365365,7.358576,1007.648
14.147186756,2.002714,-0.2234529,-5.726332,-0.9600596,-0.3534479,-0.001669891,33.88921,-9.365365,7.358576,1007.648
14.179745674,-17.50149,-1.234629,-7.011519,-0.9751872,-0.3051287,0.01696683,33.50733,-8.273996,7.798004,1007.648
14.212305546,-9.810558,-1.769957,-5.481534,-0.9764413,-0.1943986,0.03122517,33.88353,-9.001554,7.355965,1007.648
14.247369289,-8.518482,-2.483729,-6.521924,-0.9747081,-0.2200843,0.02019734,33.88353,-9.001554,7.355965,1007.65
14.279928684,-7.84168,-2.60269,-5.420335,-0.9701974,-0.2254931,0.04669619,33.5057,-8.276579,7.351933,1007.65
14.312488556,-8.149317,-3.078538,-6.399526,-0.9666833,-0.1928798,0.04574023,33.51138,-8.64039,7.354544,1007.652
14.347552300,0.09536243,-2.126843,-6.705523,-0.9492943,-0.2289601,0.01423688,33.51138,-8.64039,7.354544,1007.652
14.380112171,-21.43925,-3.792309,-5.542734,-0.9909908,-0.1225146,-5.034177E-05,33.86649,-7.910122,7.348131,1007.653
14.412671089,-15.71719,-2.721653,-7.929511,-0.9455853,-0.2404036,0.08269822,33.50243,-8.281745,6.459789,1007.653
14.447734833,-15.59414,0.1334328,-5.114338,-0.9887404,-0.2204311,0.05597548,33.50243,-8.281745,6.459789,1007.653
14.480294705,-16.20941,-0.4613766,-5.114338,-0.9447206,-0.2819898,0.03904239,33.8689,-8.279099,6.458599,1007.655
14.512854099,-17.43996,1.263571,-3.339555,-0.9893802,-0.2486397,0.05844599,34.22564,-7.546247,6.89826,1007.655
14.547918320,-7.964735,2.631632,-2.482764,-0.9266952,-0.28938,0.006042622,34.22564,-7.546247,6.89826,1007.655
14.580477715,-20.14717,2.453189,-1.319975,-0.9415601,-0.309022,0.007690812,33.49512,-7.920517,6.011106,1007.655
14.613037110,-7.472515,3.047999,-1.013978,-0.9283124,-0.2724669,0.02273703,34.22807,-7.915224,6.008728,1007.655
14.645596504,0.7721645,3.940213,-1.075178,-0.9703699,-0.2617448,0.002639376,34.22807,-7.915224,6.008728,1007.655
14.680660248,1.141329,2.393708,-0.952779,-0.9634199,-0.2809231,-0.03487994,34.22969,-7.912641,6.4548,1007.657
14.713220120,-3.534758,1.679937,-1.136377,-0.941236,-0.2488467,0.028427,34.22401,-7.54883,6.452188,1007.659
14.745779038,-5.872801,1.620456,-1.381175,-0.9263148,-0.2734837,0.03818765,34.22401,-7.54883,6.452188,1007.66
14.780843735,-8.08779,1.085128,-0.646782,-0.9659603,-0.2669689,-0.01146251,33.86322,-7.915287,6.455988,1007.66
14.813402653,-0.8890769,1.679937,-1.197576,-0.9758818,-0.2543963,-0.02576243,34.22401,-7.54883,6.452188,1007.66
14.845962525,-1.688934,2.334227,-2.666362,-0.9395108,-0.2768961,0.002861815,34.22401,-7.54883,6.452188,1007.66
14.881026268,5.263669,3.226442,-3.89035,-0.9487832,-0.2755524,0.001441133,33.85754,-7.551477,6.453377,1007.662
14.913585663,4.956032,3.226442,-3.584353,-0.9507774,-0.2778711,-0.02856168,33.4927,-7.551541,6.900639,1007.664
14.946145535,8.216987,2.631632,-4.624743,-0.9407402,-0.3538558,-0.0698509,33.4927,-7.551541,6.900639,1007.666
14.981209278,-0.7044945,0.9066849,-1.258776,-0.9501494,-0.2852567,-0.005956253,33.48608,-7.127095,6.897593,1007.666
15.013769150,-3.47323,0.4308375,-0.5243832,-0.948239,-0.2808823,-0.0005742137,34.21902,-7.121801,6.895214,1007.666
15.046328068,-10.54889,0.1334328,0.2100096,-0.953166,-0.2775114,-0.007768684,34.21902,-7.121801,6.895214,1007.667
15.078887463,-9.379867,0.07395184,0.271209,-0.9648654,-0.2800187,-0.02423046,34.23133,-7.910058,6.900871,1007.667
15.113951683,-2.365736,1.025647,0.1488102,-0.9240752,-0.3077601,-0.005841362,33.85255,-7.124448,6.896402,1007.667
15.146511078,-2.857955,2.274746,0.3936078,-0.932243,-0.2696001,0.02230118,33.85255,-7.124448,6.896402,1007.667
15.179070473,-7.164877,2.929037,0.5160065,-0.9435899,-0.2609163,0.004076299,34.22065,-7.119218,7.341286,1007.667
15.214134693,-9.133757,6.973741,1.801194,-0.8604515,-0.2629242,-0.06370734,34.21738,-7.124384,6.449142,1007.667
15.246693611,-30.79142,29.8739,2.841584,-0.9605905,-0.1553212,-0.07260334,34.21738,-7.124384,6.449142,1007.666
15.279253483,-4.642251,46.76649,-2.482764,-0.9941038,-0.2970065,-0.112436,33.86486,-7.912705,6.90206,1007.662
15.314317226,15.84639,41.35372,-2.543963,-0.9794079,-0.306488,-0.1227457,33.50896,-8.271413,8.244076,1007.662
15.346877098,8.955316,24.10425,0.1488102,-1.002107,-0.2876846,-0.1543398,33.50896,-8.271413,8.244076,1007.659
15.379436016,11.1703,11.31585,1.372798,-0.9481918,-0.2624753,-0.09310178,33.87464,-7.897207,9.578491,1007.657
15.414500237,4.217702,8.698689,3.086381,-0.949266,-0.2508899,-0.07890607,33.12534,-6.74785,10.01867,1007.655
15.447059631,4.463812,4.951389,4.12677,-0.9430442,-0.2838468,-0.08134838,33.12534,-6.74785,10.01867,1007.652
15.479619026,-1.627406,0.847204,3.820774,-0.9317711,-0.2914445,-0.08824246,33.13928,-7.533524,10.4704,1007.652
15.512178898,-3.596285,-2.781133,2.22959,-0.9202569,-0.2824161,-0.1166351,33.51143,-7.894688,10.47182,1007.65
15.547242642,-0.3353298,-0.2829338,1.495197,-0.9404199,-0.2699483,-0.1372106,33.51143,-7.894688,10.47182,1007.65
15.579802513,0.4029997,-1.234629,0.3324084,-0.9856265,-0.2754397,-0.1280666,33.13602,-7.53869,9.578259,1007.65
15.612361431,3.602427,-2.54321,-0.4631838,-0.9544584,-0.2688571,-0.09706011,32.77281,-7.53617,10.47159,1007.65
15.647425175,5.263669,-2.900095,-1.197576,-0.9407883,-0.2782569,-0.1281528,32.77281,-7.53617,10.47159,1007.648
15.679985047,4.956032,-2.067362,-2.237966,-0.9456199,-0.2779135,-0.1107414,33.14901,-8.263728,10.02955,1007.648
15.712544441,5.017559,-2.959576,-2.543963,-0.9514483,-0.2789682,-0.1093017,32.78254,-8.266375,10.03074,1007.648
15.747608662,5.878943,-4.684524,-2.91116,-0.9490849,-0.2730989,-0.1106646,33.49586,-7.111597,9.574024,1007.648
15.780168057,7.41713,-4.089714,-3.278356,-0.9469967,-0.2842692,-0.1064866,33.49586,-7.111597,9.574024,1007.648
15.812727928,9.324481,-5.517257,-3.951549,-0.9587651,-0.2780894,-0.1097646,33.12939,-7.114244,9.575212,1007.648
15.847791672,7.41713,-7.301685,-5.236737,-0.9474961,-0.2833015,-0.1069547,33.86896,-7.533396,9.57588,1007.648
15.880350590,6.371163,-9.205073,-5.053139,-0.9591245,-0.2859384,-0.09489933,33.86896,-7.533396,9.57588,1007.646
15.912910461,3.5409,-8.550783,-5.848731,-0.9417309,-0.267863,-0.06563774,33.13765,-7.536107,10.02433,1007.646
15.945469856,1.079802,-7.242204,-5.90993,-0.938477,-0.2969685,-0.06850181,33.85502,-6.747723,9.124151,1007.648
15.980534077,2.187296,-4.268157,-5.848731,-0.9356242,-0.2896703,-0.06210932,33.85502,-6.747723,9.124151,1007.648
16.013093472,5.632834,-2.781133,-6.766722,-0.940393,-0.2980031,-0.06029834,33.48287,-6.386559,9.12273,1007.648
16.045652390,5.386724,-1.769957,-7.133918,-0.9458593,-0.2893112,-0.06354409,33.12208,-6.753016,9.12653,1007.648
16.080717087,5.017559,-0.9372241,-7.133918,-0.9394014,-0.2984983,-0.05547308,33.12208,-6.753016,9.12653,1007.648
16.113276005,3.78701,0.0144709,-6.277127,-0.9349121,-0.3110022,-0.07161961,33.47151,-5.658937,9.117508,1007.648
16.145835876,2.371878,-0.4613766,-5.359136,-0.9377617,-0.315928,-0.06540812,33.47151,-5.658937,9.117508,1007.648
16.180899620,2.125768,-0.5208576,-4.257547,-0.9353229,-0.3168549,-0.06832487,33.47151,-5.658937,9.117508,1007.648
16.213458538,0.8952194,-0.6398194,-3.094758,-0.9255008,-0.3225873,-0.06213791,33.47314,-5.656354,9.56358,1007.648
16.246018410,0.03383497,-0.4613766,-1.87077,-0.9313055,-0.3255878,-0.06024458,33.83961,-5.653707,9.562389,1007.648
16.281082153,-0.2122748,0.0144709,-0.5855826,-0.9274184,-0.3255216,-0.06363095,33.83961,-5.653707,9.562389,1007.646
16.313642025,-0.4583847,0.4308375,0.08761082,-0.9343483,-0.3158923,-0.06347736,33.47151,-5.658937,9.117508,1007.645
16.346201420,-0.766022,0.7282421,0.3936078,-0.9314274,-0.3168041,-0.06832786,33.10099,-5.29519,9.562157,1007.645
16.381265164,-0.5814396,0.1929137,0.3324084,-0.9338416,-0.3183002,-0.06689823,33.10099,-5.29519,9.562157,1007.643
16.413825035,1.018274,0.3713565,0.1488102,-0.9415389,-0.3261829,-0.06556092,33.46177,-4.928732,9.558357,1007.641
16.446383953,0.9567468,0.4308375,-0.2795856,-0.9328483,-0.3197496,-0.06595454,33.83961,-5.653707,9.562389,1007.641
16.478943825,0.9567468,0.07395184,-0.4631838,-0.9377682,-0.314965,-0.06345991,33.83961,-5.653707,9.562389,1007.641
16.514007568,-0.2122748,0.1929137,-0.5243832,-0.9274796,-0.3206537,-0.06549014,33.47314,-5.656354,9.56358,1007.641
16.546567440,0.03383497,-0.2234529,-0.7079814,-0.9338368,-0.3183089,-0.06496485,33.83393,-5.289896,9.559778,1007.641
16.579126835,0.5875821,0.6687612,-0.646782,-0.9147841,-0.3205524,-0.05148292,33.83393,-5.289896,9.559778,1007.641
16.614190579,-0.5199121,-0.6993004,-0.340785,-0.9296298,-0.3478393,-0.07847061,33.47882,-6.020164,9.566191,1007.641
16.646750450,-0.8890769,-0.7587814,-0.2183862,-0.9348251,-0.3182953,-0.07076421,33.46746,-5.292543,9.560968,1007.641
16.679309368,0.2799448,-0.9967051,-0.2183862,-0.9318983,-0.3163641,-0.05961991,33.46746,-5.292543,9.560968,1007.641
16.714374066,0.09536243,-1.115667,0.02641142,-0.9362682,-0.3188222,-0.06593709,34.19308,-4.926022,9.109907,1007.641
16.746932984,0.03383497,-0.6993004,0.02641142,-0.9323909,-0.3173115,-0.06640116,34.19876,-5.289833,9.112518,1007.64
16.779492378,-0.1507474,-0.4613766,0.02641142,-0.9352509,-0.3217425,-0.06211561,34.19876,-5.289833,9.112518,1007.64
16.814556599,0.1568899,0.0144709,-0.2183862,-0.9323232,-0.3231424,-0.06649019,33.46177,-4.928732,9.558357,1007.638
16.847115994,0.1568899,-0.104491,-0.09598738,-0.9313453,-0.3226613,-0.06261677,33.46746,-5.292543,9.560968,1007.638
16.879675389,0.4029997,0.3118756,-0.1571868,-0.9308588,-0.32313,-0.06504128,33.46746,-5.292543,9.560968,1007.638
16.912234783,0.4645272,0.1334328,-0.4631838,-0.9357084,-0.3256076,-0.06845804,33.82824,-4.926085,9.557167,1007.638
16.947299004,0.4645272,0.07395184,-0.2795856,-0.9372128,-0.3212667,-0.0654901,33.46582,-5.295126,9.114897,1007.638
16.979858398,0.5260546,0.0144709,-0.1571868,-0.9308874,-0.3197483,-0.06063927,33.46582,-5.295126,9.114897,1007.638
17.012417316,0.1568899,0.1334328,-0.2183862,-0.9318439,-0.3221709,-0.06502569,33.83229,-5.29248,9.113707,1007.638
17.047482014,-0.02769248,0.3118756,-0.09598738,-0.9308861,-0.3211775,-0.06694497,33.47556,-6.025331,8.674047,1007.638
17.080040932,0.03383497,0.0144709,-0.09598738,-0.9309068,-0.3182862,-0.0615837,33.47556,-6.025331,8.674047,1007.636
17.112600803,0.1568899,0.2523947,-0.2183862,-0.9328323,-0.3207302,-0.064036,33.46177,-4.928732,9.558357,1007.638
17.147664547,0.3414722,0.1334328,-0.1571868,-0.9318515,-0.3212056,-0.06356083,33.82824,-4.926085,9.557167,1007.636
17.180223942,0.03383497,0.1334328,0.08761082,-0.9309288,-0.3172946,-0.06591894,33.82824,-4.926085,9.557167,1007.636
17.212783814,-0.08921994,0.07395184,-0.09598738,-0.9308987,-0.3187765,-0.06062443,33.82661,-4.928668,9.111095,1007.636
17.247847557,0.09536243,0.1334328,0.02641142,-0.9343081,-0.3197708,-0.06547008,33.83229,-5.29248,9.113707,1007.636
17.280407429,0.09536243,-0.1639719,-0.09598738,-0.9318657,-0.3192773,-0.06014776,33.83229,-5.29248,9.113707,1007.636
17.312966347,0.1568899,0.0144709,-0.2183862,-0.9347644,-0.3222111,-0.06454011,33.82824,-4.926085,9.557167,1007.636
17.345526218,0.4029997,-0.04501004,-0.4019844,-0.9332939,-0.3222097,-0.0606745,33.10099,-5.29519,9.562157,1007.636
17.380589962,0.4029997,0.07395184,-0.2183862,-0.9352558,-0.3217337,-0.06404898,33.10099,-5.29519,9.562157,1007.636
17.413149357,0.2799448,0.0144709,-0.03478798,-0.9376941,-0.3217589,-0.06549714,33.82824,-4.926085,9.557167,1007.636
17.445709229,-0.02769248,0.0144709,-0.03478798,-0.9357,-0.325623,-0.06507464,33.83393,-5.289896,9.559778,1007.636
17.480772972,0.03383497,-0.104491,0.02641142,-0.926958,-0.32404,-0.06747581,34.2004,-5.28725,9.55859,1007.636
17.513332844,-0.08921994,-0.04501004,0.02641142,-0.9299392,-0.3187375,-0.06642529,34.2004,-5.28725,9.55859,1007.636
17.545891762,0.09536243,0.1334328,0.02641142,-0.9347575,-0.3226992,-0.06406419,33.46341,-4.926149,10.00443,1007.636
17.580955506,0.1568899,0.07395184,0.02641142,-0.9352795,-0.318361,-0.0577136,33.46014,-4.931315,9.112286,1007.638
17.613515377,0.1568899,0.1929137,-0.1571868,-0.9303698,-0.3236029,-0.0664991,33.46014,-4.931315,9.112286,1007.637
17.646074295,-0.1507474,0.1334328,-0.03478798,-0.937715,-0.3207695,-0.06934904,33.10262,-5.292607,10.00823,1007.637
17.681138992,0.03383497,-0.04501004,-0.03478798,-0.932765,-0.327036,-0.06654917,33.83393,-5.289896,9.559778,1007.637
17.713697910,0.1568899,-0.1639719,0.02641142,-0.9347394,-0.3241591,-0.0636031,33.83393,-5.289896,9.559778,1007.635
17.746257305,0.09536243,0.0144709,-0.03478798,-0.9313461,-0.3221843,-0.06067599,33.46177,-4.928732,9.558357,1007.635
17.778817177,0.09536243,0.1334328,-0.03478798,-0.9367322,-0.3202972,-0.06354226,33.47882,-6.020164,9.566191,1007.633
17.813880921,-0.02769248,0.0144709,-0.09598738,-0.9298732,-0.3236141,-0.06263273,33.47882,-6.020164,9.566191,1007.633
17.846440792,-0.1507474,0.1334328,-0.1571868,-0.933782,-0.3222138,-0.06115746,33.82661,-4.928668,9.111095,1007.633
17.878999710,0.09536243,-0.04501004,-0.09598738,-0.9357033,-0.3251415,-0.06410053,33.47719,-6.022748,9.120119,1007.631
17.914063454,-0.08921994,0.07395184,0.08761082,-0.9387017,-0.3188562,-0.06545188,33.47719,-6.022748,9.120119,1007.631
17.946623325,-0.02769248,0.0144709,-0.03478798,-0.9313707,-0.3197613,-0.05918887,33.83798,-5.65629,9.116318,1007.631
17.979182720,-0.02769248,-0.2234529,-0.03478798,-0.9333135,-0.3226494,-0.0708321,33.0953,-4.931379,9.559546,1007.631
18.014246941,-0.02769248,-0.1639719,-0.1571868,-0.9308999,-0.3187744,-0.06110777,33.0953,-4.931379,9.559546,1007.633
18.046806335,0.09536243,0.1929137,-0.03478798,-0.9332939,-0.3222097,-0.0606745,34.19876,-5.289833,9.112518,1007.631
18.079365253,-0.1507474,0.0144709,-0.03478798,-0.9323413,-0.3216825,-0.06695127,33.0953,-4.931379,9.559546,1007.631
18.114429951,0.03383497,0.0144709,0.08761082,-0.9371657,-0.3242063,-0.06021784,33.0953,-4.931379,9.559546,1007.631
18.146988869,-0.1507474,-0.104491,0.02641142,-0.9333208,-0.3212093,-0.06694311,33.47314,-5.656354,9.56358,1007.633
18.179548740,0.09536243,0.1929137,-0.03478798,-0.9357624,-0.3207529,-0.06741717,33.47477,-5.65377,10.00965,1007.633
18.212108135,-0.02769248,-0.04501004,0.02641142,-0.9338256,-0.3192807,-0.06497969,33.47477,-5.65377,10.00965,1007.633
18.247171879,0.09536243,0.0144709,-0.03478798,-0.9338879,-0.3144107,-0.06732222,33.10099,-5.29519,9.562157,1007.633
18.279731751,0.1568899,0.0144709,0.08761082,-0.9333655,-0.3168471,-0.06445963,33.83393,-5.289896,9.559778,1007.633
18.312290669,-0.1507474,0.0144709,0.02641142,-0.9279278,-0.3235843,-0.06360091,33.83393,-5.289896,9.559778,1007.633
18.347355366,0.03383497,0.0144709,0.02641142,-0.930375,-0.3240691,-0.07085659,33.84203,-6.022684,8.672857,1007.633
18.379914284,0.03383497,0.07395184,-0.1571868,-0.9307895,-0.3284881,-0.06222283,33.46746,-5.292543,9.560968,1007.633
18.412474156,0.03383497,-0.1639719,-0.03478798,-0.9333257,-0.3197735,-0.06208743,33.46746,-5.292543,9.560968,1007.633
18.447537899,0.2799448,-0.04501004,-0.09598738,-0.9342167,-0.3261206,-0.05831639,34.2004,-5.28725,9.55859,1007.633
18.480097294,0.1568899,0.1334328,-0.09598738,-0.9304153,-0.3187636,-0.06207483,34.5685,-5.28202,10.00347,1007.633
18.512656689,0.2184173,0.1334328,-0.09598738,-0.9333446,-0.3192634,-0.06739677,34.5685,-5.28202,10.00347,1007.631
18.547720432,-0.08921994,0.07395184,-0.09598738,-0.9304507,-0.3163209,-0.06493779,33.10099,-5.29519,9.562157,1007.633
18.580280304,0.1568899,0.0144709,0.08761082,-0.9308403,-0.3241149,-0.06215606,33.83556,-5.287313,10.00585,1007.633
18.612839699,-0.2738023,0.1334328,0.02641142,-0.9372156,-0.3217372,-0.06888091,33.83556,-5.287313,10.00585,1007.633
18.647903443,0.2184173,-0.1639719,-0.03478798,-0.9328275,-0.320739,-0.06210264,33.83229,-5.29248,9.113707,1007.633
18.680463314,0.1568899,0.07395184,-0.03478798,-0.9328508,-0.3183182,-0.06013218,33.83393,-5.289896,9.559778,1007.629
18.713022232,-0.02769248,-0.04501004,-0.09598738,-0.9361938,-0.3251412,-0.06555019,33.83393,-5.289896,9.559778,1007.633
18.745582104,-0.2738023,0.1334328,0.08761082,-0.9308073,-0.3265533,-0.06025979,33.83229,-5.29248,9.113707,1007.629
18.780645848,-0.2122748,-0.04501004,-0.09598738,-0.9323445,-0.321201,-0.06597717,33.46014,-4.931315,9.112286,1007.629
18.813205242,0.1568899,-0.04501004,0.02641142,-0.9293565,-0.3255646,-0.05976273,33.46014,-4.931315,9.112286,1007.629
18.845765114,0.09536243,0.0144709,-0.09598738,-0.9318137,-0.3236527,-0.05973119,33.83798,-5.65629,9.116318,1007.629
18.880828858,-0.08921994,-0.104491,0.02641142,-0.9313852,-0.3197349,-0.06498898,33.46177,-4.928732,9.558357,1007.629
18.913388729,0.03383497,-0.04501004,-0.03478798,-0.9327985,-0.3222187,-0.05729147,33.46177,-4.928732,9.558357,1007.629
18.945947647,0.03383497,0.07395184,-0.1571868,-0.9283938,-0.326007,-0.06653769,33.47477,-5.65377,10.00965,1007.629
18.981011391,0.09536243,0.1929137,-0.09598738,-0.9352286,-0.325588,-0.07135846,33.84529,-6.017518,9.565001,1007.629
19.013571262,-0.08921994,0.2523947,-0.09598738,-0.935267,-0.3207619,-0.06403414,33.84529,-6.017518,9.565001,1007.629
19.046130657,-0.02769248,0.1929137,-0.03478798,-0.9313787,-0.320698,-0.06693719,33.10262,-5.292607,10.00823,1007.629
19.081194878,-0.08921994,0.07395184,0.1488102,-0.9313264,-0.3231714,-0.05730743,33.83393,-5.289896,9.559778,1007.629
19.113754272,-0.2738023,0.3118756,0.1488102,-0.9303561,-0.3245791,-0.06554725,33.83393,-5.289896,9.559778,1007.629
19.146313667,-0.3353298,0.0144709,0.02641142,-0.9333676,-0.3163677,-0.06300218,33.82824,-4.926085,9.557167,1007.627
19.178873062,-0.08921994,0.07395184,-0.03478798,-0.9328178,-0.3221835,-0.06502495,34.19145,-4.928605,8.663836,1007.627
19.213936806,0.2799448,-0.2829338,-0.2183862,-0.9362079,-0.323213,-0.06213712,34.21013,-6.017454,9.117741,1007.627
19.246496677,0.4029997,0.0144709,-0.4019844,-0.9303847,-0.3211976,-0.06114524,34.21013,-6.017454,9.117741,1007.627
19.279055595,-0.02769248,-0.04501004,-0.1571868,-0.9328379,-0.3202443,-0.06402859,34.19876,-5.289833,9.112518,1007.627
19.314119816,-0.2738023,0.1334328,0.02641142,-0.9293528,-0.3269982,-0.06510175,33.47477,-5.65377,10.00965,1007.629
19.346679211,0.1568899,0.0144709,0.02641142,-0.9303798,-0.3226333,-0.06600092,33.47477,-5.65377,10.00965,1007.629
19.379238606,0.09536243,0.07395184,-0.09598738,-0.9328749,-0.3168473,-0.06300998,33.46341,-4.926149,10.00443,1007.627
19.414302826,0.03383497,0.07395184,0.02641142,-0.9324271,-0.3129646,-0.06053429,33.46746,-5.292543,9.560968,1007.627
19.446862221,-0.02769248,0.07395184,-0.03478798,-0.9323896,-0.3173137,-0.06591782,33.46746,-5.292543,9.560968,1007.627
19.479422093,-0.02769248,0.1334328,-0.1571868,-0.9327707,-0.3265501,-0.06654175,33.82661,-4.928668,9.111095,1007.626
19.514485836,0.03383497,0.1929137,-0.340785,-0.9362823,-0.3168939,-0.06252402,33.82824,-4.926085,9.557167,1007.624
19.547044754,0.09536243,0.1929137,-0.4631838,-0.9347627,-0.3231653,-0.06842169,33.82824,-4.926085,9.557167,1007.622
19.579604626,0.4645272,-0.1639719,-0.5243832,-0.9343439,-0.316376,-0.06396812,33.46746,-5.292543,9.560968,1007.622
19.612164021,0.1568899,0.1334328,-0.4631838,-0.9307871,-0.3284926,-0.06125614,33.83229,-5.29248,9.113707,1007.622
19.647228241,-0.02769248,-0.2829338,-0.2795856,-0.9357311,-0.322237,-0.06163932,33.83229,-5.29248,9.113707,1007.624
19.679787636,-0.08921994,0.3118756,0.08761082,-0.9332509,-0.3241906,-0.05248735,33.82093,-4.564858,9.108484,1007.62
19.712346554,-0.766022,-0.2234529,0.5160065,-0.9342824,-0.320769,-0.05968481,33.46341,-4.926149,10.00443,1007.62
19.747411251,-1.811989,0.5497993,0.5160065,-0.9347886,-0.3193132,-0.06062886,33.46341,-4.926149,10.00443,1007.62
19.779970169,-0.8890769,0.7877231,0.2100096,-0.9308507,-0.3236202,-0.06408201,33.45446,-4.567505,9.109674,1007.619
19.812530041,-0.3353298,0.1929137,-0.1571868,-0.9328225,-0.3236017,-0.07374737,33.46746,-5.292543,9.560968,1007.619
19.847593785,1.325912,0.1929137,-0.4019844,-0.927927,-0.3240615,-0.0655417,33.46746,-5.292543,9.560968,1007.623
19.880153179,0.7721645,-0.5803385,-0.2795856,-0.939554,-0.3295544,-0.06658103,33.4642,-5.297709,8.668825,1007.623
19.912713051,0.5260546,-0.6398194,-0.1571868,-0.9309003,-0.3192492,-0.06353191,33.10667,-5.659,9.564768,1007.623
19.947776794,1.018274,-0.4018957,0.08761082,-0.9371041,-0.3300262,-0.06272358,33.10667,-5.659,9.564768,1007.623
19.980336666,0.09536243,-0.4018957,0.2100096,-0.9308524,-0.322666,-0.06020044,34.20445,-5.653644,9.115129,1007.623
20.012895584,-0.8890769,-0.1639719,0.3324084,-0.93332,-0.3202594,-0.06209485,33.82498,-4.931252,8.665024,1007.623
20.045454502,-1.135187,0.2523947,0.7608041,-0.9299404,-0.3187353,-0.06690863,33.82498,-4.931252,8.665024,1007.623
20.080519199,-0.8275495,0.07395184,0.5160065,-0.9352638,-0.3212435,-0.06500825,33.46582,-5.295126,9.114897,1007.625
20.113078117,-0.1507474,-0.1639719,0.02641142,-0.9362928,-0.3163992,-0.06444997,33.83961,-5.653707,9.562389,1007.625
20.145637989,0.4645272,-0.04501004,-0.1571868,-0.9343218,-0.3187946,-0.06642193,33.83961,-5.653707,9.562389,1007.625
20.180701733,0.5875821,0.3118756,-0.2183862,-0.9269773,-0.3211509,-0.0616312,33.83229,-5.29248,9.113707,1007.625
20.213261128,-1.258242,-1.353591,-0.5855826,-0.9536081,-0.2923436,-0.06019924,34.2004,-5.28725,9.55859,1007.625
20.245820999,5.202142,2.929037,-0.4019844,-0.9224065,-0.3357062,-0.05412364,34.2004,-5.28725,9.55859,1007.626
20.280884743,0.8336919,-0.04501004,-0.8303802,-0.9212054,-0.3123833,-0.04941858,33.09367,-4.933962,9.113474,1007.626
20.313444614,1.079802,0.3118756,0.02641142,-0.9340398,-0.344517,-0.0735819,33.46746,-5.292543,9.560968,1007.626
20.346003532,-2.365736,-0.8182623,0.2100096,-0.9294772,-0.3153561,-0.06057362,33.46746,-5.292543,9.560968,1007.625
20.381067276,0.710637,0.6687612,0.5160065,-0.9331999,-0.3328447,-0.07292126,33.82824,-4.926085,9.557167,1007.625
20.413627148,-0.2738023,-0.104491,0.3324084,-0.9348381,-0.3149422,-0.06007876,33.83229,-5.29248,9.113707,1007.625
20.446186543,0.6491095,0.3118756,0.1488102,-0.9317557,-0.329466,-0.06368694,33.83229,-5.29248,9.113707,1007.62
20.481250763,0.03383497,0.0144709,-0.03478798,-0.93378,-0.3226931,-0.0626149,33.46014,-4.931315,9.112286,1007.62
20.513810158,-0.02769248,0.07395184,-0.03478798,-0.9353,-0.3183236,-0.06593042,34.19471,-4.923439,9.555979,1007.62
20.546369076,0.5260546,0.2523947,-0.09598738,-0.9342807,-0.3217233,-0.06356639,34.19471,-4.923439,9.555979,1007.622
20.578928948,0.5260546,0.1929137,-0.1571868,-0.9323256,-0.323138,-0.06745687,33.46177,-4.928732,9.558357,1007.62
20.613992691,0.4645272,-0.2829338,-0.340785,-0.9313091,-0.3255812,-0.06169461,33.83556,-5.287313,10.00585,1007.62
20.646552563,0.2799448,-0.1639719,-0.4019844,-0.9313216,-0.3246072,-0.06216311,33.83556,-5.287313,10.00585,1007.62
20.679111958,0.1568899,-0.1639719,-0.646782,-0.9323317,-0.3202731,-0.05629548,33.82661,-4.928668,9.111095,1007.62
20.714175701,0.6491095,0.0144709,-0.5243832,-0.9293736,-0.3260088,-0.06895365,33.83393,-5.289896,9.559778,1007.62
20.746735573,0.03383497,-0.1639719,-0.09598738,-0.9303421,-0.3250804,-0.06217127,33.83393,-5.289896,9.559778,1007.62
20.779294491,-0.7044945,0.3118756,0.3324084,-0.9303911,-0.3216615,-0.06598608,33.83393,-5.289896,9.559778,1007.62
20.814359188,-0.3968572,-0.1639719,0.5160065,-0.9288752,-0.3250723,-0.05975568,33.83229,-5.29248,9.113707,1007.619
20.846918106,-0.5814396,0.2523947,0.4548072,-0.9347773,-0.320285,-0.0606437,33.83229,-5.29248,9.113707,1007.619
20.879477024,-0.1507474,0.2523947,0.2100096,-0.9323163,-0.3236305,-0.06601426,33.82256,-4.562275,9.554556,1007.62
20.914541721,0.2799448,0.3118756,0.1488102,-0.9323736,-0.3182943,-0.06399929,33.83393,-5.289896,9.559778,1007.619
20.947100639,-0.5814396,0.7282421,0.2100096,-0.9244834,-0.3269347,-0.06510548,33.83393,-5.289896,9.559778,1007.619
20.979660511,-0.1507474,0.5497993,0.577206,-0.9362553,-0.3207482,-0.0698335,34.19471,-4.923439,9.555979,1007.619
21.012219906,-0.642967,0.4308375,0.7608041,-0.9362526,-0.3188508,-0.05965364,33.46909,-5.28996,10.00704,1007.619
21.047283649,-0.8275495,0.847204,1.066801,-0.9308403,-0.322688,-0.05536702,33.82824,-4.926085,9.557167,1007.619
21.079843521,-1.073659,0.9066849,1.250399,-0.9270054,-0.3201483,-0.06838315,33.82824,-4.926085,9.557167,1007.619
21.112402439,-1.442824,1.144609,1.311599,-0.9318938,-0.3182748,-0.06689972,33.46909,-5.28996,10.00704,1007.617
21.147467136,-1.504351,1.560975,1.556396,-0.9377356,-0.3178782,-0.06398776,33.83393,-5.289896,9.559778,1007.617
21.180026054,-1.504351,1.560975,1.739995,-0.9328476,-0.3187998,-0.06110628,33.83393,-5.289896,9.559778,1007.617
21.212585449,-1.688934,1.739418,1.923593,-0.9256074,-0.3143071,-0.06636187,33.82988,-4.923502,10.00324,1007.615
21.247649670,-1.750461,1.739418,1.801194,-0.9319462,-0.3129473,-0.06295137,34.21176,-6.014871,9.563812,1007.617
21.280209065,-1.381296,2.274746,2.16839,-0.9359902,-0.3027391,-0.07487614,34.21176,-6.014871,9.563812,1007.613
21.312768936,-3.350175,2.393708,2.16839,-0.9357805,-0.3207199,-0.0746673,34.2004,-5.28725,9.55859,1007.617
21.347832680,-2.734901,2.393708,1.801194,-0.9384028,-0.3051894,-0.07732809,33.82988,-4.923502,10.00324,1007.617
21.380391598,-3.104065,2.155785,1.433998,-0.934929,-0.3109715,-0.07838641,33.82988,-4.923502,10.00324,1007.617
21.412951470,-2.673373,1.620456,1.066801,-0.9393858,-0.3061366,-0.085559,33.83393,-5.289896,9.559778,1007.615
21.445510864,-2.550318,1.501494,1.311599,-0.9344693,-0.3104396,-0.08707952,33.47314,-5.656354,9.56358,1007.615
21.480575085,-2.919483,0.9661659,1.1892,-0.9330314,-0.3075249,-0.08268605,33.47314,-5.656354,9.56358,1007.615
21.513134480,-2.242681,1.382532,1.372798,-0.939342,-0.3085947,-0.07931264,33.84124,-5.651124,10.00846,1007.613
21.545693398,-2.119626,1.739418,1.556396,-0.9408802,-0.3013383,-0.07630019,33.47882,-6.020164,9.566191,1007.613
21.580758095,-3.350175,1.977342,1.556396,-0.9335139,-0.308015,-0.08317644,33.47882,-6.020164,9.566191,1007.613
21.613317013,-3.47323,2.155785,1.801194,-0.9354767,-0.305635,-0.07782108,33.47314,-5.656354,9.56358,1007.609
21.645876885,-3.534758,2.334227,1.801194,-0.9408885,-0.3041768,-0.09326167,33.48045,-6.017582,10.01226,1007.615
21.680940628,-3.534758,1.739418,1.372798,-0.9399452,-0.3003032,-0.08740296,33.48045,-6.017582,10.01226,1007.615
21.713500023,-2.673373,1.977342,1.617596,-0.9443151,-0.3027613,-0.09372015,33.84529,-6.017518,9.565001,1007.615
21.746059418,-2.058099,1.144609,1.1892,-0.9384562,-0.3041407,-0.09423022,33.48045,-6.017582,10.01226,1007.611
21.781123638,-2.058099,1.144609,1.005602,-0.9360109,-0.3060306,-0.09909519,33.48045,-6.017582,10.01226,1007.611
21.813682556,-1.319769,0.7877231,0.577206,-0.9404834,-0.2964113,-0.08975995,33.11966,-6.384039,10.01606,1007.611
21.846242428,-1.381296,0.9066849,0.577206,-0.94094,-0.3007534,-0.09804317,33.11966,-6.384039,10.01606,1007.611
21.878801346,-1.196714,0.7282421,0.6384053,-0.9399483,-0.3026756,-0.100007,33.11966,-6.384039,10.01606,1007.611
21.913866043,-0.8275495,1.382532,1.128001,-0.9399858,-0.2997536,-0.1014125,33.47882,-6.020164,9.566191,1007.617
21.946424961,-2.242681,1.560975,1.923593,-0.9330828,-0.3069555,-0.1010456,33.48613,-6.381392,10.01487,1007.617
21.978984833,-3.288648,1.85838,2.719185,-0.9316679,-0.303999,-0.1058357,33.48613,-6.381392,10.01487,1007.613
22.014048576,-3.165593,2.036823,3.147581,-0.9360999,-0.2996852,-0.1052822,33.12697,-6.745267,10.46474,1007.619
22.046607971,-1.565879,1.679937,2.963983,-0.9430887,-0.2851924,-0.1060211,33.49018,-6.747786,9.571413,1007.619
22.079167843,-2.488791,0.7877231,2.351989,-0.9411091,-0.2876031,-0.1046097,33.49018,-6.747786,9.571413,1007.619
22.114231586,-0.5199121,0.07395184,1.372798,-0.937719,-0.2865737,-0.1074975,33.12129,-6.381456,10.46213,1007.617
22.146790504,-0.08921994,0.1929137,0.4548072,-0.9488876,-0.2886788,-0.1041352,33.13102,-7.11166,10.02128,1007.617
22.179350376,-0.2122748,0.1334328,-0.4019844,-0.9381258,-0.291958,-0.1003286,33.13102,-7.11166,10.02128,1007.615
22.214414120,-1.073659,0.2523947,-0.5855826,-0.9410817,-0.2895556,-0.102706,33.11803,-6.386622,9.56999,1007.615
22.246973991,-0.3968572,0.07395184,-1.013978,-0.9415361,-0.2910482,-0.09644439,33.49749,-7.109014,10.0201,1007.617
22.279533386,0.2799448,-0.2234529,-1.075178,-0.9415541,-0.2910153,-0.1036945,33.49749,-7.109014,10.0201,1007.617
22.314597130,0.710637,-0.8182623,-1.197576,-0.9418656,-0.305135,-0.09907588,33.48613,-6.381392,10.01487,1007.619
22.347157002,1.018274,-0.4018957,-0.952779,-0.9390912,-0.2934131,-0.1037335,33.49912,-7.106431,10.46617,1007.62
22.379715920,1.572021,-0.8182623,-1.136377,-0.9411043,-0.2876119,-0.1026763,33.49912,-7.106431,10.46617,1007.62
22.412275791,1.202857,-0.9967051,-1.013978,-0.9445007,-0.2891053,-0.1046293,33.49018,-6.747786,9.571413,1007.62
22.447339535,-0.766022,-0.9372241,-0.5855826,-0.9395649,-0.2934436,-0.09841635,33.49181,-6.745203,10.01748,1007.62
22.479898930,-0.766022,-1.234629,-0.340785,-0.9361277,-0.2967807,-0.102821,33.49181,-6.745203,10.01748,1007.62
22.512458325,-0.4583847,-1.234629,-0.5855826,-0.9380735,-0.2958585,-0.09748787,33.48613,-6.381392,10.01487,1007.62
22.547522545,1.879659,-1.353591,-1.381175,-0.9425957,-0.285197,-0.1036048,32.76455,-7.114307,10.02247,1007.622
22.580081940,1.633549,-1.413072,-2.360365,-0.9448867,-0.296906,-0.1003975,32.76455,-7.114307,10.02247,1007.622
22.612641335,3.233263,-1.234629,-3.155957,-0.9444287,-0.293993,-0.09842004,32.74751,-6.022875,10.01464,1007.622
22.647705078,4.956032,-2.305286,-4.257547,-0.9420654,-0.2866968,-0.09299386,33.48613,-6.381392,10.01487,1007.616
22.680264950,3.233263,-2.424248,-5.114338,-0.9326249,-0.3040425,-0.09906813,33.48613,-6.381392,10.01487,1007.618
22.712823868,6.063526,-3.019057,-5.481534,-0.9409723,-0.2973653,-0.09509119,33.85097,-6.381329,9.567612,1007.618
22.747888565,5.632834,-3.256981,-5.90993,-0.9354664,-0.3094585,-0.09189736,33.11966,-6.384039,10.01606,1007.618
22.780447483,7.478658,-3.375943,-6.460725,-0.93891,-0.3080123,-0.09912263,33.10667,-5.659,9.564768,1007.618
22.813006878,10.43198,-3.85179,-7.195118,-0.9316801,-0.2996962,-0.09030195,33.10667,-5.659,9.564768,1007.62
22.845566750,5.571306,-5.041409,-7.501115,-0.9235132,-0.3254884,-0.05976721,33.10667,-5.659,9.564768,1007.62
22.880630493,7.90935,-3.494905,-7.623514,-0.9485645,-0.3125741,-0.08564835,33.47072,-5.287377,10.45311,1007.62
22.913190365,4.956032,-3.554386,-8.663903,-0.9572093,-0.3190909,-0.06688774,33.47072,-5.287377,10.45311,1007.62
22.945749283,6.432691,-2.60269,-9.214698,-0.9227474,-0.3521499,-0.0727425,33.46177,-4.928732,9.558357,1007.621
22.980813026,1.941186,-3.1975,-6.827921,-0.9264803,-0.3582052,-0.03464451,33.81688,-4.198464,9.551945,1007.623
23.013372898,2.187296,-1.413072,-5.542734,-0.9076728,-0.3490618,-0.0673928,33.81688,-4.198464,9.551945,1007.623
23.045932293,4.648395,-1.769957,-3.155957,-0.9252138,-0.3449897,-0.0513623,33.81525,-4.201047,9.105873,1007.625
23.080996037,3.663955,-0.4613766,-1.381175,-0.9261724,-0.3516887,-0.07708254,33.45446,-4.567505,9.109674,1007.625
23.113555908,3.725482,-0.2234529,-0.2795856,-0.9319659,-0.354234,-0.06841501,33.45446,-4.567505,9.109674,1007.625
23.146114826,1.141329,-0.6398194,0.7608041,-0.9161759,-0.3715323,-0.06676064,33.45041,-4.201111,9.553135,1007.625
23.181179524,-1.688934,-1.591514,1.678795,-0.9315809,-0.3445292,-0.06391692,33.81283,-3.83207,9.995405,1007.625
23.213738442,-4.026977,-2.007881,2.351989,-0.9274687,-0.3643743,-0.07002418,33.81283,-3.83207,9.995405,1007.625
23.246298313,-7.84168,-4.268157,3.637176,-0.9311964,-0.3429091,-0.09821233,33.82256,-4.562275,9.554556,1007.625
23.278857231,-5.011416,-0.3424147,2.22959,-0.9213225,-0.3487361,-0.07124166,34.19067,-4.557045,9.999439,1007.623
23.313921452,0.03383497,-0.8182623,2.290789,-0.9330702,-0.3454475,-0.07988094,34.19067,-4.557045,9.999439,1007.625
23.346480846,-2.119626,-0.6993004,2.657985,-0.9234871,-0.3260117,-0.05155781,33.81688,-4.198464,9.551945,1007.623
23.379040241,-3.104065,-1.056186,2.841584,-0.9263065,-0.3400291,-0.07642116,33.46177,-4.928732,9.558357,1007.623
23.414103985,-2.550318,-1.353591,3.881973,-0.9321808,-0.3319635,-0.05019009,33.46177,-4.928732,9.558357,1007.621
23.446663857,1.448967,-0.5803385,2.841584,-0.931737,-0.3347319,-0.08116887,33.82988,-4.923502,10.00324,1007.621
23.479222775,8.893788,-0.1639719,2.16839,-0.9395446,-0.3252912,-0.04234716,33.46177,-4.928732,9.558357,1007.621
23.514287472,2.125768,-0.104491,0.8832029,-0.9304245,-0.319698,-0.07030648,33.46177,-4.928732,9.558357,1007.621
23.546846390,6.617273,-0.6398194,0.9444024,-0.9390706,-0.3309685,-0.07482047,33.82256,-4.562275,9.554556,1007.621
23.579405785,4.340757,-1.591514,0.8832029,-0.936461,-0.3398172,-0.04547201,34.19471,-4.923439,9.555979,1007.62
23.614470005,4.217702,-2.781133,1.1892,-0.9294133,-0.3197535,-0.05532362,34.19471,-4.923439,9.555979,1007.62
23.647029400,8.278514,-1.9484,0.5160065,-0.9342743,-0.3212593,-0.05872555,33.46014,-4.931315,9.112286,1007.618
23.679589272,5.571306,-2.900095,0.271209,-0.9276754,-0.345448,-0.06441809,33.4642,-5.297709,8.668825,1007.618
23.712148190,10.86267,-2.245805,-0.952779,-0.9328771,-0.314941,-0.05476349,33.4642,-5.297709,8.668825,1007.62
23.747211933,13.56988,-2.126843,-1.80957,-0.9443092,-0.3207901,0.02249861,34.19145,-4.928605,8.663836,1007.618
23.779771805,10.37045,-3.494905,0.3936078,-0.925831,-0.3271603,-0.0196702,34.18903,-4.559628,9.553368,1007.618
23.812331200,2.187296,-1.29411,1.005602,-0.9275581,-0.3480402,-0.02868786,34.18903,-4.559628,9.553368,1007.614
23.847395420,9.632118,-0.04501004,1.678795,-0.9258495,-0.335212,-0.06571382,33.81362,-4.20363,8.659801,1007.612
23.879954815,8.216987,-1.115667,1.128001,-0.9283627,-0.3669111,-0.04927682,33.82093,-4.564858,9.108484,1007.612
23.912513733,-2.673373,-3.019057,4.677565,-0.9277969,-0.3271527,-0.02691884,33.82093,-4.564858,9.108484,1007.612
23.947578430,-3.288648,-1.353591,7.615136,-0.9087365,-0.3332153,-0.02847986,34.1874,-4.562211,9.107296,1007.612
23.980137348,2.802571,-0.6398194,8.839125,-0.924815,-0.3391151,-0.05949046,34.1874,-4.562211,9.107296,1007.61
24.012697220,-0.8275495,-3.673347,10.12431,-0.9274818,-0.3144666,-0.03687651,34.1874,-4.562211,9.107296,1007.61
24.047760963,-1.935043,-3.554386,10.9811,-0.9327719,-0.3175112,-0.02386668,33.83229,-5.29248,9.113707,1007.61
24.080320358,-5.011416,-4.268157,10.43031,-0.9352512,-0.3146077,-0.02817038,33.83798,-5.65629,9.116318,1007.609
24.112880230,-3.165593,-4.089714,9.757115,-0.940276,-0.2977413,-0.01099002,33.83798,-5.65629,9.116318,1007.609
24.145439148,9.570591,-3.256981,9.206321,-0.9675786,-0.2951815,-0.01092461,34.20445,-5.653644,9.115129,1007.609
24.180502892,-1.319769,-5.041409,6.941943,-0.9514747,-0.2936087,0.009869041,34.20282,-5.656226,8.669058,1007.607
24.213062763,2.433406,-4.327638,6.941943,-0.9457636,-0.2842541,-0.0001446679,34.20282,-5.656226,8.669058,1007.609
24.245621681,0.3414722,-4.208676,6.697145,-0.9510839,-0.2843899,0.0143597,33.84203,-6.022684,8.672857,1007.607
24.280686379,1.818131,-2.007881,6.023952,-0.9413824,-0.2918045,-0.03700073,33.8404,-6.025267,8.226784,1007.609
24.313245297,1.018274,-2.245805,7.003142,-0.9404751,-0.2845361,-0.02964006,33.8404,-6.025267,8.226784,1007.609
24.345804691,-2.734901,-1.650995,7.492737,-0.9339252,-0.3067328,-0.04593646,33.48124,-6.389142,8.676659,1007.609
24.380868912,-2.796428,-2.60269,10.9811,-0.9448923,-0.2783467,-0.01407331,33.84608,-6.389078,8.229395,1007.609
24.413428307,-5.319054,-3.375943,13.00068,-0.9525331,-0.2440589,0.01207614,33.84608,-6.389078,8.229395,1007.61
24.445988178,-4.519197,-2.54321,12.26629,-0.9482682,-0.2404575,-0.01929253,34.22554,-7.111469,8.679502,1007.606
24.481051922,-3.903922,-1.888919,10.24671,-0.9585077,-0.232005,0.01613282,34.22228,-7.116635,7.787357,1007.606
24.513610840,-5.195999,-1.829438,8.104732,-0.9700775,-0.2428342,0.01307851,33.86812,-7.907539,7.794203,1007.606
24.546170712,-0.02769248,-1.769957,6.391148,-0.9674148,-0.2199693,0.01584166,33.86812,-7.907539,7.794203,1007.606
24.578730106,2.987153,-1.413072,5.105961,-0.9594896,-0.2391371,-0.02119506,34.60837,-8.263473,8.240509,1007.606
24.613793850,3.725482,-3.316462,4.677565,-0.9639929,-0.2304127,-0.02879164,33.14086,-8.276643,7.799192,1007.606
24.646353722,1.510494,-4.030233,4.249169,-0.9691293,-0.2418233,0.007292501,33.14086,-8.276643,7.799192,1007.606
24.678912640,1.941186,-4.387119,3.759575,-0.9668435,-0.2320074,-0.007061257,34.24758,-8.62993,8.244308,1007.61
24.713977337,4.340757,-4.625042,2.474387,-0.9592965,-0.2100575,-0.002866651,34.2419,-8.26612,8.241697,1007.612
24.746536255,1.510494,-4.803485,1.862393,-0.9610874,-0.2175034,0.02602409,34.2419,-8.26612,8.241697,1007.612
24.779095650,-3.534758,-4.327638,2.413188,-0.9608967,-0.2306933,0.04129073,33.88353,-9.001554,7.355965,1007.612
24.814159870,-3.903922,-4.565561,2.413188,-0.9606551,-0.2178731,0.001849192,34.24595,-8.632513,7.798237,1007.612
24.846719265,-3.042538,-5.160371,3.086381,-0.96589,-0.2229207,0.02787958,34.24595,-8.632513,7.798237,1007.606
24.879279137,-2.058099,-4.089714,1.250399,-0.9615583,-0.2199173,0.02115395,33.87217,-8.273932,7.350742,1007.612
24.914342880,0.09536243,-3.316462,0.577206,-0.9658686,-0.2262891,0.02057752,34.24269,-8.637679,6.906094,1007.612
24.946901798,3.602427,-2.959576,-0.5243832,-0.9664842,-0.2108408,0.04159901,34.24269,-8.637679,6.906094,1007.612
24.979461670,1.572021,-1.9484,-1.075178,-0.9616657,-0.2548608,0.009986653,33.88758,-9.367948,6.912504,1007.612
25.014525414,4.094647,-1.175148,-0.09598738,-0.9625263,-0.2156601,0.04393854,33.87622,-8.640326,6.907282,1007.612
25.047085285,3.910065,-0.7587814,0.577206,-0.9603263,-0.2408273,0.02711765,33.87622,-8.640326,6.907282,1007.612
25.079644680,3.5409,-1.472553,1.495197,-0.9650008,-0.2156193,0.02799012,34.24837,-9.001491,6.908705,1007.612
25.112203598,4.340757,-1.829438,1.372798,-0.9692158,-0.2292995,0.03165249,34.25,-8.998907,7.354776,1007.612
25.147267818,2.864098,-3.1975,1.433998,-0.9581192,-0.2270626,-0.0007103387,34.25,-8.998907,7.354776,1007.612
25.179827213,0.03383497,-3.673347,1.923593,-0.9629865,-0.2214226,0.02741626,34.60348,-8.271222,6.902294,1007.612
25.212387085,-4.703779,-4.446599,2.902783,-0.9682283,-0.2274091,0.04618169,34.61158,-9.004009,6.015373,1007.614
25.247450829,-2.919483,-4.208676,4.12677,-0.9649662,-0.216158,0.03958291,34.61158,-9.004009,6.015373,1007.614
25.280009747,0.2799448,-5.041409,4.922363,-0.9700575,-0.1967917,0.04133341,34.24348,-9.009239,5.570488,1007.614
25.312569618,1.202857,-2.781133,3.943173,-0.9611326,-0.2107622,0.03966153,33.52516,-9.736988,6.470234,1007.614
25.347633362,4.586867,-0.4613766,2.841584,-0.9674991,-0.2031691,0.06153547,33.52516,-9.736988,6.470234,1007.614
25.380192757,5.817416,-0.2234529,1.250399,-0.9660301,-0.212677,0.01933522,34.24511,-9.006657,6.016562,1007.614
25.412752628,4.956032,-1.472553,1.739995,-0.9600211,-0.2209888,0.04723847,34.24511,-9.006657,6.016562,1007.616
25.447816372,0.8336919,0.3713565,3.331179,-0.9608043,-0.2356183,0.05571682,34.24511,-9.006657,6.016562,1007.616
25.480376244,4.463812,0.4903184,6.085151,-0.9698943,-0.2066022,0.06148541,34.62457,-9.729048,6.466667,1007.616
25.512935162,4.217702,-0.9967051,5.534357,-0.9695318,-0.1935268,0.07280221,33.88027,-9.00672,6.463821,1007.616
25.545494557,8.770734,1.20409,4.555166,-0.9757093,-0.1668341,0.06354787,33.88027,-9.00672,6.463821,1007.617
25.580558777,5.755889,3.404884,4.18797,-0.9683186,-0.1730798,0.0687626,34.2711,-10.45673,6.919149,1007.617
25.613118172,7.540185,5.427236,1.678795,-0.9841431,-0.1490601,0.08509576,34.99104,-9.726401,6.465479,1007.619
25.645678044,4.956032,3.047999,-1.748371,-0.993723,-0.1751603,0.02621822,34.99104,-9.726401,6.465479,1007.619
25.680741787,6.371163,-1.29411,-5.236737,-0.977504,-0.1894928,0.01824987,34.26541,-10.09292,6.916538,1007.619
25.713300705,-0.5814396,-5.874142,-5.787532,-0.9742687,-0.2176133,0.01250058,33.89326,-9.731758,6.915115,1007.619
25.745860577,-4.519197,-9.799883,-5.053139,-0.9618821,-0.233063,0.0253041,33.89326,-9.731758,6.915115,1007.621
25.780924320,-11.10264,-12.65497,-2.788761,-0.9731556,-0.2183304,0.06614339,33.89326,-9.731758,6.915115,1007.621
25.813483715,-5.195999,-14.61784,-1.931969,-0.9856349,-0.1908209,0.07285903,34.25647,-9.734278,6.021784,1007.621
25.846043587,-0.2122748,-16.9376,-4.441145,-0.9734191,-0.2088125,0.003449874,34.25647,-9.734278,6.021784,1007.621
25.881107331,-12.70235,-15.21265,-1.87077,-0.9474941,-0.2428783,0.0870127,33.88432,-9.373114,6.020361,1007.621
25.913667202,-0.7044945,-13.84459,2.474387,-0.9632179,-0.2304567,0.08915089,34.24511,-9.006657,6.016562,1007.621
25.946226120,5.878943,-14.32043,2.719185,-0.9733067,-0.2023592,0.08040513,34.24511,-9.006657,6.016562,1007.621
25.978785038,-0.2122748,-17.05656,3.881973,-0.959624,-0.2065502,0.07936124,34.24916,-9.37305,5.573099,1007.622
26.013849735,-0.8890769,-15.03421,6.329949,-0.9508336,-0.2425731,0.1169899,34.61665,-9.741594,4.300032,1007.622
26.046408653,7.90935,-13.13082,7.798735,-0.963109,-0.1921865,0.1168038,34.61665,-9.741594,4.300032,1007.624
26.078968525,2.556461,-13.24978,8.227131,-0.9703621,-0.1947531,0.1259557,34.60934,-9.380366,3.851349,1007.624
26.114032269,3.602427,-13.13082,8.594327,-0.9488856,-0.1955181,0.1418748,34.61502,-9.744177,3.85396,1007.624
26.146591663,6.432691,-10.81106,9.451118,-0.9547082,-0.1951567,0.1525202,34.61502,-9.744177,3.85396,1007.624
26.179151535,7.047966,-9.383516,10.61391,-0.9576798,-0.1898718,0.1574375,34.2526,-10.11322,3.411687,1007.624
26.214215279,6.063526,-8.074936,11.5319,-0.9651011,-0.1797651,0.1580822,34.98959,-10.47432,2.965849,1007.622
26.246774197,8.770734,-7.301685,13.36788,-0.9436246,-0.1805301,0.1740012,33.88855,-10.48484,2.523344,1007.62
26.279334068,6.863383,-7.718051,15.69346,-0.9620935,-0.1927257,0.1312958,33.88855,-10.48484,2.523344,1007.622
26.314397812,9.509063,-10.93002,17.89664,-0.9871995,-0.1668698,0.1447657,34.62717,-10.84336,2.523578,1007.624
26.346957684,4.217702,-10.6921,24.13897,-0.9311426,-0.142941,0.2794554,33.89828,-11.21504,2.082494,1007.624
26.379517078,-1.319769,7.330626,26.15855,-0.9009449,-0.2029077,0.1939205,33.89828,-11.21504,2.082494,1007.624
26.412075996,0.2799448,8.103879,21.5686,-1.032709,0.02677712,0.181117,33.90559,-11.57627,2.531178,1007.624
26.447140694,-13.99443,8.460765,16.91744,-0.98035,-0.1264682,0.1506926,33.92427,-12.66512,2.985082,1007.624
26.479699612,2.310351,7.56855,17.40704,-0.9832531,-0.1317722,0.133213,33.92427,-12.66512,2.985082,1007.624
26.512259483,9.570591,5.070351,16.48905,-0.9964097,-0.08917732,0.1338755,34.29074,-12.66248,2.983893,1007.624
26.547323227,6.678801,0.5497993,16.24425,-1.004441,-0.07361994,0.1099518,32.8419,-13.76449,2.996482,1007.624
26.579882622,9.939755,-5.874142,16.48905,-1.046783,-0.07801788,0.1007414,32.8419,-13.76449,2.996482,1007.624
26.612442494,4.586867,-14.14199,16.42785,-1.038285,-0.1054222,0.05971142,33.58052,-14.12301,2.996716,1007.624
26.647506237,9.078371,-23.36154,13.61268,-1.040286,-0.1794349,0.08420316,33.22136,-14.48689,3.446587,1007.624
26.680066109,30.61298,-30.38029,11.4095,-1.08417,-0.1798987,0.06055298,33.22136,-14.48689,3.446587,1007.624
26.712625027,37.75016,-38.17229,8.594327,-1.063174,-0.1783042,0.0905264,33.22541,-14.85328,3.003126,1007.624
26.747688770,19.29193,-45.60741,2.290789,-0.9726353,-0.2022142,0.1567802,33.58862,-14.8558,2.109794,1007.625
26.780248642,4.586867,-38.88606,-4.93074,-0.8030745,-0.1437634,-0.131551,33.58862,-14.8558,2.109794,1007.625
26.812808037,-64.57,-12.29808,-14.41665,-0.6634235,0.5697687,-0.1715545,33.22457,-15.22742,1.22145,1007.625
26.847871781,-63.83167,32.0747,-15.27344,-0.5459483,-0.4369513,-0.5408586,34.31909,-15.22723,-0.1203318,1007.625
26.880431652,3.233263,47.53974,11.89909,-0.999312,-0.5651481,0.266796,34.31909,-15.22723,-0.1203318,1007.625
26.912990570,5.509779,-30.26133,2.474387,-1.644832,0.1837507,2.155313,34.6742,-14.49696,-0.1267433,1007.621
26.945550442,142.1007,-47.15392,-19.86339,-0.9624774,0.4601031,-0.1057495,35.78092,-14.85025,0.3183737,1007.625
26.980614185,22.49136,-40.61101,17.77423,-1.179939,0.6446505,0.4729777,35.78092,-14.85025,0.3183737,1007.619
27.013173103,4.77145,-52.44772,24.38377,-1.159192,0.0851936,0.1188079,35.42013,-15.21671,0.3221731,1007.624
27.045732975,-20.14717,-63.63014,24.68977,-1.184292,0.1044343,0.3032923,35.41384,-15.22667,-1.39839,1007.624
27.080796719,-25.25395,-80.70116,22.54779,-1.027324,-0.1645998,0.2777677,35.41384,-15.22667,-1.39839,1007.621
27.113356113,17.93833,-87.00614,20.40581,-0.9187495,-0.1484151,0.3426823,35.05626,-16.33367,-3.619727,1007.625
27.145915985,28.89021,-91.16981,22.42539,-0.9801345,-0.09499578,0.3894774,34.32247,-16.7131,-5.399026,1007.623
27.180979729,32.4588,-106.2185,27.38254,-0.9861094,0.05244149,0.4405535,34.32247,-16.7131,-5.399026,1007.627
27.213539600,7.478658,-113.832,35.21606,-0.9521019,0.03310921,0.5136991,33.95781,-17.4585,-8.005322,1007.627
27.246098518,9.078371,-124.4791,44.15118,-0.9133164,0.09522632,0.5382949,33.2305,-18.57331,-11.11762,1007.627
27.281162262,-1.012132,-130.4272,47.08875,-0.8582664,-0.0366317,0.5149614,33.2305,-18.57331,-11.11762,1007.629
27.313722134,2.617988,-131.6168,47.63954,-0.9048576,-0.005714573,0.529496,31.03614,-19.70054,-14.54378,1007.629
27.346281529,-14.91734,-138.4572,45.98716,-0.757556,-0.05983448,0.5618811,28.85291,-21.55577,-18.02844,1007.63
27.378841400,27.90577,-143.513,38.52083,-0.5195482,-0.09214783,0.5481073,28.85291,-21.55577,-18.02844,1007.63
27.413905144,12.15474,-150.4128,47.94554,-0.2347805,0.390126,0.7963952,26.22647,-22.32044,-21.1372,1007.63
27.446464062,-83.33587,-158.0264,55.10587,-0.1692344,0.7784573,0.7698702,22.57331,-23.81987,-24.17365,1007.634
27.479023934,-117.176,-157.3721,41.642,-0.01314842,0.1249706,0.744765,22.57331,-23.81987,-24.17365,1007.637
27.514087677,-99.88676,-170.9932,25.91376,0.02069384,-0.02558237,0.922735,18.91665,-25.32482,-28.16596,1007.641
27.546647549,-44.51205,-193.2391,1.617596,0.2184316,-0.1090494,0.9270713,13.37106,-23.20454,-32.11472,1007.648
27.579206944,-5.257526,-210.9049,-18.14981,-0.06441431,0.128525,1.308486,13.37106,-23.20454,-32.11472,1007.648
27.614270687,6.617273,-212.5704,-20.96498,0.1166111,-5.556503E-05,1.034209,8.563066,-21.07158,-34.79137,1007.655
27.646830559,-53.55658,-143.1561,-15.76303,1.799308,-0.03267067,1.69673,1.878132,-19.6718,-36.05471,1007.662
27.679389477,112.6291,16.84758,-15.82423,1.242998,-0.5560119,0.9405319,1.878132,-19.6718,-36.05471,1007.667
27.714453221,116.7514,-74.63411,-21.08738,1.154389,1.538066,1.361684,-3.972404,-20.43919,-35.58439,1007.664
27.747013092,-186.5174,-69.57822,0.6996047,-0.2825398,0.2412946,0.4722416,-4.670648,-22.25357,-33.8484,1007.664
27.779572487,140.378,-74.93151,19.48782,-0.1306015,-0.2178436,0.872577,-4.670648,-22.25357,-33.8484,1007.658
27.812131882,2.187296,-77.42971,25.79136,-0.1906087,0.4870334,1.199034,-6.100024,-24.816,-34.71751,1007.655
27.847195626,-42.35859,-71.00577,20.8954,-0.6233853,0.04274018,1.15062,-7.95021,-23.36624,-33.38379,1007.65
27.879755020,55.03938,-95.27399,14.89787,-0.5326535,0.107305,1.319249,-7.95021,-23.36624,-33.38379,1007.644
27.912314892,23.41427,-150.1749,35.76686,-0.07458648,0.5010387,0.9120097,-10.51713,-23.38735,-33.82154,1007.644
27.947378635,-0.766022,-132.747,57.30905,1.078141,0.3109528,0.3844998,-13.44806,-23.03438,-32.03036,1007.641
27.979938507,15.47723,-92.71632,75.54646,1.237697,0.3295014,0.3967133,-13.44806,-23.03438,-32.03036,1007.636
28.012497425,-110.7156,-53.69682,62.63339,0.6025308,-0.2906065,0.5942677,-18.5575,-23.78356,-29.33206,1007.634
28.047561169,-17.50149,-50.96069,22.11939,1.072251,-0.5279706,-0.04399745,-23.02619,-23.08593,-28.94047,1007.632
28.080121040,-12.64082,-32.46212,-4.624743,1.677935,0.04372757,-0.5796589,-25.27591,-19.82714,-28.89311,1007.632
28.112680435,-37.62097,54.8559,-15.08984,1.65898,0.027664,-0.8404258,-25.27591,-19.82714,-28.89311,1007.63
28.147744179,-35.95973,159.7803,-20.78138,0.9306161,-0.1733648,-0.5126434,-27.1166,-19.10796,-28.06397,1007.627
28.180304050,-66.04665,198.205,-38.77401,0.10603,-0.5037205,0.08201633,-24.58442,-18.02346,-32.47712,1007.629
28.212862968,16.83083,181.3124,-43.48636,-0.2928092,-0.3454741,0.0504958,-24.58442,-18.02346,-32.47712,1007.626
28.245422840,55.83924,162.7543,-28.8597,-0.5199944,-0.2371238,0.4719392,-18.31184,-17.63451,-36.00499,1007.622
28.280486584,-2.796428,129.0881,-4.441145,-0.07179081,0.005798422,0.4930976,-12.08673,-17.59726,-37.36341,1007.622
28.313045979,45.93332,146.3376,-2.421564,0.204325,-0.2808456,0.5131102,-12.08673,-17.59726,-37.36341,1007.622
28.345605850,58.36186,184.2864,-2.360365,0.08565825,0.1435156,1.00936,-6.563685,-19.00764,-36.47866,1007.619
28.380669594,40.27279,188.2717,-0.1571868,-0.538075,-0.004137011,1.759843,-2.148994,-20.06731,-36.48509,1007.621
28.413228512,-86.84294,75.4363,-62.94777,-1.775313,-1.642069,5.042346,-2.148994,-20.06731,-36.48509,1007.624
28.445788384,509.2966,-21.75555,-1.993169,1.05099,2.526028,1.621928,2.647402,-21.47301,-33.87739,1007.624
28.480852127,43.77985,-12.65497,5.840354,-0.1322948,0.5650943,-0.07981345,5.453695,-30.1165,-21.90675,1007.629
28.513411999,-155.5076,-1.115667,3.637176,0.05183794,0.132907,0.4702653,5.453695,-30.1165,-21.90675,1007.628
28.545971394,-33.80627,-2.424248,6.880744,0.08476748,0.164056,0.3421305,5.488909,-33.10534,-24.94421,1007.628
28.581035137,-67.58485,6.141007,-1.87077,0.04509908,0.1901685,0.5765216,5.445719,-30.87475,-27.19067,1007.629
28.613595009,-129.543,15.8364,-2.605163,0.09055823,0.3160041,1.245941,5.445719,-30.87475,-27.19067,1007.629
28.646153927,81.37313,-17.29448,-4.441145,-0.1531431,0.09169201,2.094464,5.049999,-29.43249,-28.98421,1007.629
28.678713799,-27.34588,4.891908,3.453578,0.02939337,0.6505595,0.9272416,6.117976,-27.61029,-29.82925,1007.631
28.713777542,10.4935,13.51664,-2.299165,0.03101244,0.3329137,0.6739383,6.117976,-27.61029,-29.82925,1007.629
28.746336460,-54.66408,2.631632,0.1488102,0.03658231,0.1991131,0.7216794,5.396398,-28.3432,-29.82165,1007.631
28.778896332,-35.65209,-8.96715,1.739995,0.002451074,0.1922035,1.072055,5.392347,-27.97681,-29.37819,1007.631
28.813960076,-29.6224,-5.874142,3.881973,0.07985032,0.1500334,1.055386,5.392347,-27.97681,-29.37819,1007.629
28.846519470,-6.85724,0.1929137,-0.09598738,0.06278197,0.08951008,0.9568366,5.73525,-26.89306,-31.1715,1007.631
28.879079342,17.8768,3.999694,-2.972359,0.05435136,0.1367109,0.9203448,5.723887,-26.16544,-31.17673,1007.633
28.914143085,27.9673,1.144609,-2.115567,0.03158527,0.2159846,0.9500954,5.723887,-26.16544,-31.17673,1007.633
28.946702957,25.38315,-0.4018957,-0.4019844,0.03327395,0.2853914,0.9753216,5.719837,-25.79905,-30.73326,1007.633
28.979261875,17.63069,0.847204,0.1488102,0.04317056,0.3184677,0.9975686,5.732831,-26.52409,-30.28197,1007.629
29.014325619,4.586867,1.501494,-0.2183862,0.03841992,0.3433392,0.9655663,5.732831,-26.52409,-30.28197,1007.633
29.046885490,-9.625976,-0.6398194,0.9444024,0.01113774,0.3007339,0.9581754,5.744193,-27.25171,-30.27675,1007.627
29.079444885,-18.60898,-4.684524,0.6384053,0.01575867,0.2357278,0.9450948,5.745824,-27.24912,-29.83068,1007.627
29.114508629,-20.02411,-6.766356,-2.360365,0.01813454,0.1983492,0.9421052,5.745824,-27.24912,-29.83068,1007.629
29.147068501,-2.919483,-7.896493,-6.032329,0.05016402,0.2103818,0.9528922,6.478765,-27.24383,-29.83305,1007.629
29.179627419,0.4645272,-7.420647,-5.114338,0.02013156,0.2961498,1.029637,5.72878,-26.15769,-29.83851,1007.627
29.212187290,-11.04111,-16.75915,-2.482764,-0.01415007,0.3089039,1.012463,5.72878,-26.15769,-29.83851,1007.625
29.247251034,-19.03968,-19.91164,-1.503573,-0.001963085,0.322831,1.08372,5.731199,-26.52667,-30.72804,1007.627
29.279810429,-37.0057,-23.59946,3.086381,-0.03533467,0.3371413,1.047717,4.622845,-26.17596,-31.61923,1007.627
29.312370300,-56.87907,-25.26493,4.371568,0.06057955,0.2457841,0.9993432,4.622845,-26.17596,-31.61923,1007.627
29.347434044,-32.94489,-15.9859,6.20755,0.1830334,0.138152,0.9719638,4.987684,-26.1759,-32.06649,1007.627
29.379993916,-0.2738023,-0.7587814,7.24794,0.2416254,0.07209397,0.9177281,4.221444,-24.36989,-33.41538,1007.627
29.412552834,49.19427,6.735817,9.083922,0.1997458,0.0881987,0.9963213,4.221444,-24.36989,-33.41538,1007.627
29.447616577,54.23952,5.724641,15.69346,0.1452587,0.2850276,1.161308,2.68312,-23.6533,-33.41566,1007.624
29.480176449,26.6137,2.334227,14.89787,0.09832715,0.1270746,1.133325,3.064215,-24.3731,-32.51948,1007.624
29.512735844,42.3032,-6.587914,10.9199,0.1037951,0.1174284,1.132689,3.064215,-24.3731,-32.51948,1007.624
29.547799587,29.01327,-23.7779,12.08269,0.1378135,0.1507582,1.062108,3.088571,-25.82577,-32.06296,1007.622
29.580359459,8.524624,-31.21302,9.145122,0.1817588,0.1434446,0.8739204,3.120239,-27.63965,-31.15776,1007.622
29.612918377,5.140614,-28.83378,3.759575,0.2152173,0.2134681,0.748795,3.120239,-27.63965,-31.15776,1007.622
29.645478249,5.509779,-21.75555,1.250399,0.2207789,0.268223,0.6945201,2.02814,-28.00882,-30.70551,1007.622
29.680541992,-10.30278,-15.39109,-0.2183862,0.1849843,0.2306942,0.615675,0.9360404,-28.37799,-30.25326,1007.62
29.713100910,3.663955,-6.528432,-6.154728,0.2112467,0.1888225,0.6005096,0.9360404,-28.37799,-30.25326,1007.614
29.745660782,16.27708,3.880732,-11.17308,0.1576417,0.288918,0.6654108,0.1941557,-28.02464,-31.14564,1007.611
29.780724526,-10.42583,15.06315,-12.21347,0.1577968,0.4211639,0.7612033,0.201468,-28.38586,-30.69696,1007.611
29.813283920,-24.0234,30.58768,-11.66267,0.1098556,0.3088667,0.7368176,0.1901054,-27.65824,-30.70218,1007.611
29.845843792,-18.23982,33.85912,-8.480305,0.05862045,0.3702232,0.9896424,0.1901054,-27.65824,-30.70218,1007.609
29.880907536,-32.20655,32.01522,-2.421564,0.03756725,0.253801,0.9874032,1.289517,-27.6503,-30.70575,1007.609
29.913467407,-7.164877,23.21204,0.2100096,0.04722007,0.2926098,1.136866,2.746457,-27.28107,-31.60526,1007.611
29.946026325,-16.394,16.60965,4.799964,0.08216519,0.2866737,1.259036,2.746457,-27.28107,-31.60526,1007.612
29.981090069,-45.18885,3.226442,9.145122,0.08419855,0.2566347,1.350417,3.895585,-26.54507,-31.61424,1007.614
30.013649940,-24.08493,-7.777532,7.553937,0.09907973,0.1156567,1.187771,3.895585,-26.54507,-31.61424,1007.614
30.046209335,-2.365736,-13.84459,6.819544,0.1304936,0.204856,1.114662,3.895585,-26.54507,-31.61424,1007.616
30.078768253,-25.377,-20.44697,6.26875,0.1145903,0.2009587,0.9652541,3.495815,-24.73641,-32.96432,1007.614
30.113832951,-23.96187,-23.36154,4.310369,0.09472263,0.1411252,0.9203732,2.328012,-24.38356,-33.40924,1007.612
30.146391869,-76.44479,-44.59623,12.02149,0.1507854,0.2268728,1.352799,2.328012,-24.38356,-33.40924,1007.612
30.178951740,-148.8626,-24.4322,18.93703,0.1395043,-0.1993603,0.6831145,2.326381,-24.38615,-33.85532,1007.612
30.214015484,-8.333899,-40.78945,4.738765,0.1923393,-0.2265965,1.050014,0.8128078,-21.8626,-36.03547,1007.612
30.246574879,55.71618,-28.71482,-0.8303802,0.170558,-0.007246383,0.9538062,0.8128078,-21.8626,-36.03547,1007.611
30.279134750,25.26009,-30.14236,-2.666362,0.1865376,0.3090202,1.027739,-0.3239536,-19.69285,-36.93972,1007.611
30.314198494,-17.19385,-31.80783,0.8832029,0.2522046,0.167489,0.9182065,-1.767111,-21.15868,-36.92451,1007.611
30.346757412,-40.8204,-29.48808,3.331179,0.2327062,0.07511491,0.8694451,-1.767111,-21.15868,-36.92451,1007.611
30.379317284,-45.55801,-22.17192,4.249169,0.2498666,-0.08546751,0.7490346,-2.491109,-21.52262,-36.02739,1007.611
30.414381027,-15.40956,-10.9895,-0.5855826,0.3142157,-0.1626512,0.8058003,-3.250037,-20.07783,-36.9276,1007.611
30.446940899,19.04582,-2.007881,-1.319975,0.2658178,-0.00662202,0.8763835,-3.250037,-20.07783,-36.9276,1007.611
30.479500294,3.971592,-3.316462,0.3324084,0.2947445,0.1225928,0.9730688,-4.007334,-18.63046,-37.38174,1007.611
30.512059212,-17.80913,2.096304,-0.5243832,0.3447954,-0.04185367,0.9410257,-4.364862,-18.99176,-36.48579,1007.611
30.547123432,11.53947,12.14858,-8.113109,0.3698626,-0.1540889,0.8986856,-4.364862,-18.99176,-36.48579,1007.611
30.579682827,32.27422,20.23799,-13.62105,0.3373594,-0.03504949,0.9198681,-4.004072,-18.6253,-36.48959,1007.612
30.612242699,23.84496,23.92581,-15.57943,0.2676074,-0.02955718,0.9016509,-3.987029,-19.71673,-36.48176,1007.612
30.647306442,30.55145,24.40166,-19.98579,0.2727623,-0.008667955,0.9183994,-3.987029,-19.71673,-36.48176,1007.614
30.679865360,38.36544,22.49827,-24.20855,0.2328142,0.04596082,0.9743764,-2.880305,-20.07002,-36.03664,1007.614
30.712425232,54.4241,14.76574,-27.75812,0.2169302,0.07674813,0.9985468,-1.760587,-21.14834,-35.14023,1007.612
30.747488976,74.66663,6.141007,-21.82177,0.2048578,0.3087013,1.149527,-1.760587,-21.14834,-35.14023,1007.612
30.780048371,61.43823,8.163361,-12.39707,0.1963637,0.3940116,1.069146,-1.000261,-22.59091,-33.85767,1007.612
30.812608242,37.44252,-3.970752,-2.237966,0.08581809,0.567866,1.103325,0.1308191,-24.39686,-32.95604,1007.612
30.847671986,-27.53046,-14.67732,1.739995,0.148845,0.2856432,1.037086,0.1308191,-24.39686,-32.95604,1007.612
30.880230904,-14.36359,-19.13839,3.575977,0.2053884,0.188409,0.9925275,0.1624873,-26.21075,-32.05084,1007.614
30.912790775,-12.57929,-20.92282,5.22836,0.2132593,0.2158949,0.9562027,0.1478629,-25.48829,-32.9482,1007.616
30.947854519,-13.13304,-23.7779,9.879515,0.2397472,0.2510253,1.001667,0.1478629,-25.48829,-32.9482,1007.618
30.980414391,-28.39185,-21.63659,10.61391,0.2654988,0.2049103,0.956468,-0.5850782,-25.49359,-32.94583,1007.618
31.012973785,-26.97672,-19.79268,3.147581,0.2229018,0.02617505,0.8092526,-1.329381,-24.77126,-32.94867,1007.618
31.045532703,2.494933,-20.14957,1.066801,0.2357751,0.05728645,0.8445179,-1.329381,-24.77126,-32.94867,1007.613
31.080597401,1.079802,-24.13479,1.678795,0.1986855,0.285921,0.9060471,-2.443418,-24.05675,-33.84247,1007.618
31.113156319,-33.49863,-26.45455,2.474387,0.3097061,0.1515705,1.055671,-2.441787,-24.05416,-33.3964,1007.615
31.145715714,-24.08493,-16.04538,-3.400755,0.2678407,-0.0965135,0.877427,-2.441787,-24.05416,-33.3964,1007.615
31.180779934,9.755173,-18.42462,-4.563544,0.3221199,-0.07392763,0.8757858,-3.17799,-24.06462,-34.28617,1007.621
31.213339329,12.03169,-19.67372,-7.623514,0.3557311,0.1012918,0.9161299,-3.927976,-22.97848,-34.29162,1007.621
31.245899200,17.44611,-20.14957,-12.09107,0.3863624,0.1991657,0.9630309,-3.927976,-22.97848,-34.29162,1007.621
31.280962944,-4.580724,-12.00068,-14.66144,0.4287075,0.2106918,1.007637,-4.647923,-23.70881,-33.83795,1007.621
31.313521862,-16.02483,-4.387119,-17.84381,0.3831006,0.1294692,0.890431,-4.998982,-24.80548,-34.275,1007.623
31.346081734,-9.933614,-2.54321,-17.84381,0.3620576,0.1236795,0.8212401,-4.998982,-24.80548,-34.275,1007.623
31.381145477,4.463812,-2.007881,-14.53905,0.3936524,0.1769331,0.8505412,-4.642241,-24.07263,-33.83534,1007.623
31.413704872,-4.334614,-1.29411,-9.337096,0.3628911,0.2284723,0.8644085,-4.640611,-24.07004,-33.38927,1007.625
31.446264267,-11.4718,-3.970752,-9.581894,0.3838939,0.1493119,0.9110348,-4.640611,-24.07004,-33.38927,1007.626
31.478823662,3.910065,-4.387119,-8.602703,0.3622369,0.2107537,0.9110263,-4.2788,-24.07478,-34.66495,1007.622
31.513887406,-7.657097,2.51267,0.4548072,0.3489892,0.3129108,0.9590018,-4.288532,-23.34457,-34.2241,1007.626
31.546447277,-21.62383,11.85118,6.635946,0.4166629,0.2149981,0.8820359,-4.283084,-23.70875,-34.28521,1007.626
31.579006195,-24.39256,19.10785,6.085151,0.4112712,0.08484159,0.8457357,-4.283084,-23.70875,-34.28521,1007.626
31.614070892,-32.88336,20.17851,3.514777,0.3600969,0.158873,0.9841935,-3.922294,-23.34229,-34.28901,1007.626
31.646629810,-31.59128,20.41643,-2.788761,0.3170798,-0.02802073,1.025371,-3.570215,-22.61682,-35.12384,1007.622
31.679189205,-1.688934,15.95536,-4.318746,0.259021,0.06263562,1.016176,-3.570215,-22.61682,-35.12384,1007.622
31.714253426,-12.70235,5.962564,-1.381175,0.3000896,0.1417078,1.059396,-2.863261,-21.16145,-36.02881,1007.622
31.746812821,-19.40884,7.390107,-1.136377,0.302133,0.02609586,0.9459705,-2.49679,-21.1588,-36.03,1007.622
31.779371739,1.633549,6.676336,-1.748371,0.3148365,-0.02845754,0.9021055,-2.49679,-21.1588,-36.03,1007.622
31.814436436,18.61513,11.97014,-3.094758,0.3505097,0.04395742,0.8978587,-2.502471,-20.79499,-36.03261,1007.622
31.846995354,16.64625,16.25277,-3.400755,0.2969463,0.04991663,0.9299041,-2.502471,-20.79499,-36.03261,1007.624
31.879555226,2.494933,1.263571,-6.032329,0.326243,0.05401197,1.180328,-2.502471,-20.79499,-36.03261,1007.624
31.912114620,42.67236,6.31945,-4.135148,0.2220981,0.1184848,0.9203882,-1.76953,-20.7897,-36.03498,1007.622
31.947178364,12.46238,2.572151,-1.197576,0.2215175,0.1324424,0.9486375,-1.747593,-21.87338,-34.68893,1007.62
31.979738235,7.232548,-0.2234529,-1.197576,0.2453699,0.1303899,0.9340819,-1.747593,-21.87338,-34.68893,1007.62
32.012297153,7.17102,-2.126843,1.556396,0.2952824,0.1757192,1.047835,-0.9992399,-22.9621,-35.12955,1007.62
32.047360897,5.817416,0.3118756,-0.4019844,0.2973559,0.1806912,0.9231981,-0.9978418,-22.95989,-34.7472,1007.62
32.079920769,2.802571,3.702289,-0.8303802,0.261731,0.1836993,0.9078103,-0.9978418,-22.95989,-34.7472,1007.62
32.112480164,-6.180438,3.821251,-2.237966,0.3072864,0.08593228,0.9483286,-1.369993,-22.59873,-34.74863,1007.62
32.147544384,0.7721645,3.880732,0.271209,0.2901386,0.1476754,1.001492,-1.730783,-22.96519,-34.74483,1007.62
32.180103779,-11.71791,1.798899,0.5160065,0.2656066,0.1633907,1.002239,-1.730783,-22.96519,-34.74483,1007.622
32.212662697,0.2184173,5.962564,1.372798,0.2583248,0.130913,0.8567371,-1.003523,-22.59608,-34.74982,1007.62
32.247727394,-18.23982,4.951389,0.6384053,0.2529774,0.1450951,0.9284984,-0.2705815,-22.59079,-34.75219,1007.62
32.280286312,-21.00855,7.746994,-2.605163,0.2369886,0.04639816,0.8907548,-0.2705815,-22.59079,-34.75219,1007.622
32.312845707,-9.872086,4.237617,-0.646782,0.2794487,0.07673874,1.072443,-1.004921,-22.59829,-35.13216,1007.624
32.345405102,-9.195284,4.41606,-1.503573,0.2197112,0.08322612,0.9715738,-0.6498127,-21.86802,-35.13857,1007.624
32.380469322,-3.71934,3.285923,-1.687172,0.2715037,0.022754,0.9517496,-0.6498127,-21.86802,-35.13857,1007.624
32.413028717,1.818131,3.880732,-1.80957,0.2873056,0.05198843,0.9806996,-0.2906544,-21.50415,-35.58845,1007.624
32.445588112,11.04725,4.951389,0.3936078,0.2732535,0.1414574,1.037667,-0.2963357,-21.14034,-35.59106,1007.624
32.480651856,3.171735,7.509069,1.433998,0.2371584,0.08550823,0.947423,-0.2963357,-21.14034,-35.59106,1007.622
32.513211727,4.03312,6.378931,1.923593,0.2465561,0.1171732,0.9580479,-0.2906544,-21.50415,-35.58845,1007.622
32.545770645,1.387439,6.31945,2.107191,0.230691,0.1023226,0.9718546,0.0717659,-21.13511,-35.14618,1007.624
32.580834866,-3.47323,6.022046,3.025182,0.2096921,0.1487142,0.9701658,0.0717659,-21.13511,-35.14618,1007.624
32.613394261,-9.256811,4.356579,3.025182,0.2170526,0.1002495,0.9612019,0.442287,-21.49886,-35.59082,1007.624
32.645953655,-4.826834,3.16696,2.596786,0.2438118,0.06312247,0.972694,0.4453161,-21.49406,-34.76241,1007.624
32.681017399,-12.02555,3.642808,2.413188,0.2066195,0.1166657,0.9551786,0.4453161,-21.49406,-34.76241,1007.622
32.713577271,-9.379867,3.523846,1.495197,0.2329848,0.02710047,0.95427,0.07744718,-21.49892,-35.14356,1007.622
32.746136189,-2.427263,2.036823,0.8832029,0.2506106,0.07037914,0.9993839,0.8030763,-21.1324,-35.59462,1007.622
32.778696060,0.7721645,3.464365,-0.5855826,0.2401095,0.03798681,0.9321939,0.8030763,-21.1324,-35.59462,1007.624
32.813759804,14.55431,-3.732828,1.372798,0.2150704,-0.04080329,0.8730108,0.4309244,-20.77124,-35.59605,1007.624
32.846319199,37.56558,-5.10089,2.963983,0.2308367,0.04789225,0.9715075,0.799026,-20.76601,-35.15116,1007.624
32.878879070,34.85837,-6.587914,4.310369,0.2346731,0.1397332,0.9859561,0.799026,-20.76601,-35.15116,1007.624
32.913942814,34.30463,-4.506081,4.555166,0.2280732,0.1582163,0.9640092,0.4526284,-21.85529,-34.31372,1007.624
33.014125347,10.55503,1.442014,0.02641142,0.2203333,0.1888806,0.9320982,0.1137753,-23.30543,-32.96387,1007.624
33.046684742,8.278514,4.653984,-1.503573,0.2262356,0.1950319,0.9853578,0.4899778,-24.03299,-33.40591,1007.624
33.079244614,-1.935043,7.56855,-2.421564,0.2497059,0.1823182,0.9629058,0.4899778,-24.03299,-33.40591,1007.624
33.114308357,-8.395427,10.66156,-3.155957,0.2427083,0.1963514,0.9563594,-0.2429638,-24.03828,-33.40353,1007.624
33.146868229,-12.51777,12.0891,-3.89035,0.2282303,0.1797521,0.931468,0.5029712,-24.75803,-32.95462,1007.625
33.179427147,-21.93147,14.88471,-4.869541,0.2170724,0.185237,0.9755496,0.5029712,-24.75803,-32.95462,1007.627
33.214490891,-21.93147,16.84758,-3.584353,0.2095379,0.2045869,0.9739187,0.4916086,-24.03041,-32.95984,1007.627
33.247050762,-12.1486,23.09307,-1.197576,0.1719372,0.1634445,0.9361072,1.580446,-23.6664,-34.30423,1007.627
33.279610157,-2.058099,27.3757,-1.319975,0.1727565,0.1480998,0.9991947,1.580446,-23.6664,-34.30423,1007.627
33.312169552,3.417845,31.77729,-0.03478798,0.1680769,0.1381774,1.029984,2.296344,-22.56968,-34.31444,1007.627
33.347233772,6.371163,31.123,-1.258776,0.1597859,0.09486776,1.018214,2.296344,-22.56968,-34.31444,1007.629
33.379792690,5.878943,33.14536,-3.033558,0.1575811,0.1200437,1.033101,3.832248,-22.91729,-33.42464,1007.631
33.412352562,15.10806,37.60642,-3.706752,0.1820678,0.1485876,1.025295,3.832248,-22.91729,-33.42464,1007.631
33.447416306,23.96802,45.81479,-3.400755,0.1738334,0.1940033,1.060799,4.561139,-22.5456,-32.98356,1007.631
33.479975700,34.73532,52.23874,-5.359136,0.1802603,0.08890994,0.9978011,6.403224,-23.26258,-33.43035,1007.629
33.512535095,54.8548,57.71098,-8.725102,0.1690663,0.04457716,0.9889181,6.403224,-23.26258,-33.43035,1007.629
33.547599316,50.97857,58.9006,-7.929511,0.111521,0.1836481,1.022031,7.882942,-23.60288,-31.20214,1007.625
33.580158234,33.93546,54.55849,-12.21347,0.09072649,0.2519647,1.009076,9.004291,-24.67863,-29.85965,1007.623
33.612718105,8.340041,47.95611,-19.435,0.03819342,0.2440408,0.9978881,9.004291,-24.67863,-29.85965,1007.623
33.647781849,-26.85366,45.69583,-23.78016,0.03295605,0.2812715,1.025047,10.49593,-26.11849,-29.02554,1007.627
33.680341721,-72.44551,43.9114,-20.47539,0.03784147,0.3178724,1.006265,12.3226,-25.74144,-29.0341,1007.625
33.712900639,-149.7855,30.70664,-4.379946,-0.009073345,0.3285091,0.9910049,12.3226,-25.74144,-29.0341,1007.622
33.745460034,-215.5584,37.30902,1.1892,-0.06166311,0.07798395,0.9969011,15.23429,-24.63363,-29.87986,1007.618
33.780524254,-154.154,69.66665,-15.88543,-0.1488667,-0.1563265,0.8657991,15.51549,-19.91953,-33.0375,1007.617
33.813083649,45.56415,89.89017,-13.86585,-0.1919325,0.09905306,0.8010973,15.51549,-19.91953,-33.0375,1007.617
33.845642567,113.675,92.74525,38.39843,-0.03456115,0.02780939,0.8868663,17.26667,-14.81553,-33.52607,1007.615
33.880707264,-84.44337,98.33646,36.80725,-0.3711132,-0.2510146,0.7451749,19.82471,-13.69007,-30.86579,1007.615
33.913266182,-14.97886,101.3105,32.89049,-0.4517809,-0.133158,0.7813706,19.82471,-13.69007,-30.86579,1007.615
33.945826054,-31.46822,103.2139,28.42293,-0.5122703,-0.09004672,0.7468001,22.05418,-15.11689,-28.69584,1007.615
33.980889797,-25.93075,100.4183,26.46455,-0.5709711,0.01467926,0.741204,23.89306,-15.09332,-26.9175,1007.615
34.013449192,-37.74403,98.81231,23.15978,-0.6204612,-0.05092177,0.7039976,23.89306,-15.09332,-26.9175,1007.615
34.046009064,-43.46608,98.69335,13.85748,-0.6085185,-0.2536257,0.6395047,26.08704,-14.33949,-25.14557,1007.613
34.081072807,-14.17901,97.56321,-1.197576,-0.6571933,-0.3065584,0.597657,27.933,-14.67752,-22.98227,1007.609
34.113631725,-2.181154,98.2175,-13.80465,-0.7595793,-0.1285748,0.6024048,27.933,-14.67752,-22.98227,1007.607
34.146191597,-0.4583847,95.77879,-17.53782,-0.8169311,-0.01125984,0.6110172,29.46407,-14.28718,-20.3134,1007.607
34.178750992,-10.97958,93.04266,-16.98702,-0.833269,-0.0009905803,0.5507675,30.92814,-13.53384,-17.71067,1007.607
34.213814735,-22.9159,91.25823,-12.39707,-0.822316,-0.1134231,0.5113382,30.92814,-13.53384,-17.71067,1007.607
34.246374607,-25.68464,87.51093,-8.725102,-0.9017729,-0.2040827,0.4481596,32.02434,-12.78537,-15.4891,1007.606
34.278933525,-29.80698,86.14287,-8.663903,-1.127074,-0.2980344,0.4764296,32.76139,-12.40076,-12.81765,1007.604
34.313997269,-23.46965,68.12015,-6.521924,-1.296831,-0.1942754,0.2596902,32.76139,-12.40076,-12.81765,1007.604
34.346557140,-35.40598,60.80399,-5.420335,-0.8159508,-0.122441,0.4821919,34.58844,-11.65031,-11.17198,1007.602
34.379116535,-34.48307,62.46945,-4.502344,-1.010129,-0.2240519,0.2550921,34.23417,-12.00644,-9.383894,1007.602
34.414180756,-31.96044,56.93773,-6.277127,-0.9359881,-0.1853223,0.2870309,34.23417,-12.00644,-9.383894,1007.6
34.446740151,-25.50006,55.27226,-5.787532,-0.9477126,-0.2870756,0.1859142,34.94928,-10.53815,-8.0585,1007.6
34.479299069,-22.05452,53.54732,-5.787532,-0.9099196,-0.1546023,0.3391958,34.9558,-10.52782,-6.274213,1007.6
34.514363289,-30.2992,55.68863,-5.665133,-0.9578183,-0.3012212,0.1683066,34.9558,-10.52782,-6.274213,1007.6
34.546922684,-14.79428,50.1569,-6.154728,-0.9698666,-0.1823966,0.1884994,35.69014,-10.52032,-5.894243,1007.596
34.579481602,-21.62383,46.4096,-6.093529,-0.9284929,-0.2658989,0.1799349,35.32047,-9.782425,-3.667916,1007.594
34.612041474,-5.811273,48.31299,-5.726332,-0.9268744,-0.24815,0.1294495,35.32047,-9.782425,-3.667916,1007.596
34.647105217,-7.226405,47.24234,-7.133918,-0.9352224,-0.2543133,0.07184172,35.68615,-9.408218,-2.333501,1007.596
34.679665089,-1.750461,43.79244,-9.765492,-0.9599066,-0.2539598,0.1366434,35.68941,-9.403053,-1.441357,1007.596
34.712224484,8.093931,45.10102,-12.70306,-0.9458368,-0.2309076,0.02483812,35.68941,-9.403053,-1.441357,1007.596
34.747288227,18.30749,45.21999,-9.826692,-0.9725993,-0.2056089,0.1552783,36.05081,-8.662822,0.2727957,1007.596
34.779848099,20.89164,46.76649,-11.78507,-0.9322552,-0.300017,-0.1280097,35.69491,-9.02153,1.614811,1007.596
34.812407017,14.55431,36.95213,-9.214698,-0.9550598,-0.3184826,0.01867718,35.69491,-9.02153,1.614811,1007.596
34.847470761,20.95317,33.38328,-10.25509,-0.9242189,-0.2780651,-0.1228488,35.33334,-9.016428,2.954216,1007.598
34.880030632,28.21341,31.18249,-12.27467,-0.9499599,-0.269963,-0.05502754,35.69497,-8.275827,4.732092,1007.6
34.912590027,34.67379,30.17131,-16.13023,-0.9435223,-0.2833936,-0.0755405,35.69497,-8.275827,4.732092,1007.601
34.947653770,64.88377,34.21601,-21.57698,-0.9601549,-0.2692014,-0.0380879,35.33013,-8.275891,5.179352,1007.603
34.980213642,56.14687,29.5765,-24.82055,-0.9241886,-0.2643276,-0.04481553,35.31843,-7.113861,6.891647,1007.603
35.012772560,60.88449,32.31262,-27.32972,-0.9084296,-0.3775322,-0.1142306,35.31843,-7.113861,6.891647,1007.603
35.047836304,42.67236,26.36453,-22.80096,-0.9334064,-0.4326553,-0.03480691,35.31033,-6.381074,7.778568,1007.605
35.080396175,35.35059,17.44239,-17.53782,-0.8815866,-0.3521425,-0.1694575,34.93334,-5.281956,9.556213,1007.607
35.112955570,4.463812,14.82523,-18.27221,-0.8641329,-0.3042687,-0.1730943,34.93334,-5.281956,9.556213,1007.608
35.145515442,-55.46394,14.94419,-16.25263,-0.8519211,-0.3602466,-0.2256815,34.18903,-4.559628,9.553368,1007.61
35.180579186,14.00057,8.341804,-19.98579,-1.014049,-0.4777574,0.03273897,34.54335,-3.4578,10.88256,1007.61
35.213138104,2.433406,12.74339,-21.45458,-0.872582,-0.4156666,-0.1752691,34.53907,-3.091775,11.2623,1007.61
35.245697975,-2.242681,9.115055,-25.61614,-0.8955901,-0.4537361,-0.2057971,34.53907,-3.091775,11.2623,1007.612
35.280761719,8.586151,1.679937,-25.61614,-0.8766665,-0.5193648,-0.148328,34.53176,-2.730547,10.81361,1007.613
35.313321114,10.43198,5.129832,-18.14981,-0.8696291,-0.4489229,-0.1216411,34.88282,-1.633885,11.25067,1007.613
35.345880509,-16.02483,5.784122,-2.482764,-0.8913315,-0.3688493,-0.05127564,34.88282,-1.633885,11.25067,1007.613
35.380944729,-54.66408,3.523846,12.75589,-0.9135327,-0.4422167,-0.1190795,34.87877,-1.267492,11.69413,1007.615
35.413503647,-73.18385,3.523846,18.44743,-0.8484297,-0.4767117,-0.1486713,34.87713,-1.270075,11.24805,1007.617
35.446063519,-81.49005,4.356579,13.85748,-0.8875493,-0.5709801,-0.2641486,34.87713,-1.270075,11.24805,1007.617
35.481127262,-30.17615,6.676336,6.941943,-0.8896903,-0.4613729,-0.2194538,34.51495,-1.638746,10.8695,1007.617
35.513687134,-7.10335,5.66516,1.495197,-0.842854,-0.4314947,-0.2427286,34.54498,-3.455217,11.32863,1007.617
35.546246052,7.355603,3.642808,-2.91116,-0.8454639,-0.3281097,-0.2203636,34.54498,-3.455217,11.32863,1007.613
35.578805447,2.679516,-0.1639719,-1.87077,-0.8463727,-0.2436933,-0.1900723,34.17688,-3.460447,10.88375,1007.615
35.613869667,5.386724,2.453189,1.128001,-0.8477952,-0.301276,-0.249438,34.17991,-3.45565,11.71217,1007.615
35.646429062,18.43055,4.059175,5.717955,-0.8661109,-0.3104219,-0.2147567,34.17991,-3.45565,11.71217,1007.615
35.678987980,6.186581,5.903084,7.798735,-0.9195311,-0.3560347,-0.170447,34.91285,-3.450356,11.70979,1007.615
35.714052677,9.139898,2.215266,4.432767,-0.9434157,-0.5510247,-0.1110432,34.54233,-3.086609,12.15444,1007.615
35.746611595,-2.796428,-0.1639719,2.474387,-0.888971,-0.5444365,-0.1211461,34.54233,-3.086609,12.15444,1007.615
35.779170990,6.186581,2.810075,3.20878,-0.8865521,-0.3985849,-0.2305833,34.54638,-3.453003,11.71098,1007.615
35.814235211,29.87465,2.393708,4.432767,-0.856052,-0.2719901,-0.3002212,34.18722,-3.816877,12.16085,1007.615
35.846794605,26.67522,2.929037,1.556396,-0.8296126,-0.3607395,-0.2667975,34.18722,-3.816877,12.16085,1007.615
35.879354477,41.31876,6.141007,-1.993169,-0.8754719,-0.3564224,-0.2787718,34.92017,-3.811584,12.15848,1007.615
35.914418221,59.90005,11.61325,-2.237966,-0.928937,-0.2608627,-0.1781701,34.54964,-3.447837,12.60312,1007.616
35.946977139,-22.6698,-6.885318,-9.337096,-0.9634087,-0.57591,-0.04034713,34.54964,-3.447837,12.60312,1007.615
35.979537010,16.15403,-6.290509,-8.051908,-0.9196755,-0.3752157,-0.121435,33.80697,-2.722926,13.04635,1007.615
36.012096405,16.27708,-5.219852,-8.847501,-0.8725409,-0.4185953,-0.1724136,34.53828,-2.720215,12.5979,1007.615
36.047160149,12.77002,-1.888919,-9.520695,-0.8759306,-0.4205768,-0.1738906,34.53828,-2.720215,12.5979,1007.615
36.079720020,8.278514,-1.234629,-10.80588,-0.8630676,-0.4355254,-0.1630134,34.15882,-1.997824,12.1478,1007.615
36.112278938,10.67808,-0.04501004,-11.47908,-0.87057,-0.4604106,-0.1629025,34.52287,-1.6262,13.03614,1007.615
36.147342682,6.248108,0.847204,-10.92828,-0.8751241,-0.4444591,-0.1568542,34.52287,-1.6262,13.03614,1007.615
36.179902554,8.647678,1.025647,-9.643093,-0.8641975,-0.4618319,-0.1527794,34.51556,-1.264973,12.58746,1007.615
36.212461948,7.047966,1.442014,-7.317517,-0.8674763,-0.4759062,-0.1665255,34.14177,-0.9063916,12.13996,1007.615
36.247525692,6.186581,1.20409,-4.685943,-0.8610044,-0.4870215,-0.1618676,34.14177,-0.9063916,12.13996,1007.615
36.280085564,3.110208,0.2523947,-1.993169,-0.864073,-0.473474,-0.1573075,34.50583,-0.5347681,13.02831,1007.615
36.312644482,0.03383497,-1.413072,-0.2183862,-0.8654389,-0.4812763,-0.1554918,34.49688,-0.1761231,12.13355,1007.615
36.347709179,-10.73347,-7.718051,0.2100096,-0.890843,-0.4648085,-0.1092952,34.49688,-0.1761231,12.13355,1007.612
36.380268097,-30.91447,-24.96752,-1.748371,-0.8878347,-0.4559476,-0.2314572,34.86498,-0.1708932,12.57844,1007.612
36.412827492,-41.31262,-27.46572,1.128001,-0.9054639,-0.4763905,-0.1689131,34.87067,-0.5347042,12.58105,1007.616
36.445386887,-20.02411,-13.60666,9.083922,-1.143118,-0.4054146,-0.4247574,34.87067,-0.5347042,12.58105,1007.616
36.480451107,-10.24125,-5.10089,34.48167,-1.189882,-0.176018,-0.1326365,35.23956,-0.9010344,11.69033,1007.618
36.513010025,-10.24125,-13.30926,48.98593,-0.9090573,0.1125199,0.1702214,34.87713,-1.270075,11.24805,1007.614
36.545569897,-106.7163,-30.0234,54.55507,-0.6573378,-0.1695957,0.1932268,34.87713,-1.270075,11.24805,1007.614
36.580633640,-121.729,-32.10524,40.41801,-0.4539483,-0.5410555,-0.2578267,34.52203,-2.000343,11.25447,1007.614
36.613192558,-43.21997,-9.324036,23.34338,-0.4187332,-0.7926231,-0.1988597,35.28113,-4.19046,9.101118,1007.614
36.645752430,27.22897,30.94456,-6.766722,-0.5367853,-1.052649,-0.3211401,35.28113,-4.19046,9.101118,1007.616
36.680816174,-72.32246,-55.83813,20.28341,-3.233081,-0.6650222,-0.7331617,34.21255,-6.386431,8.228207,1007.614
36.713376045,51.7169,38.73656,-20.59779,-0.4012091,0.4450318,0.1134152,34.2288,-7.106303,9.571646,1007.616
36.745935440,-29.13018,-10.6921,-5.420335,-0.8471321,-0.4696804,0.0177164,34.2288,-7.106303,9.571646,1007.616
36.780999184,-12.21013,-0.8777432,10.9199,-0.8899912,-0.3733662,-0.1224022,34.21176,-6.014871,9.563812,1007.616
36.813559056,-35.83667,16.37173,10.00191,-0.9788629,-0.6979926,-0.1702896,33.83961,-5.653707,9.562389,1007.616
36.846117974,6.494218,-17.59189,-0.340785,-1.002618,-0.5462128,-0.7997246,33.83961,-5.653707,9.562389,1007.616
