Time (s),Gyroscope X (deg/s),Gyroscope Y (deg/s),Gyroscope Z (deg/s),Accelerometer X (g),Accelerometer Y (g),Accelerometer Z (g),Magnetometer X (uT),Magnetometer Y (uT),Magnetometer Z (uT),Barometer (hPa)
0.014477253,-0.04958697,0.2273349,0.05727671,-0.006819401,0.1388242,-0.9889024,0.3361917,3.000589,38.02945,1006.906
0.047037601,-0.2956968,-0.4269554,0.05727671,-0.001539469,0.1442654,-0.994625,-0.3983808,2.992712,37.58575,1006.908
0.079597950,-0.3572243,-0.3079935,-0.06512208,-0.0073949,0.1456382,-0.9926649,-0.3983808,2.992712,37.58575,1006.904
0.112154007,-0.5418066,-0.2485126,0.1184761,-0.009782112,0.1417147,-0.9917557,-0.3983808,2.992712,37.58575,1006.904
0.147219181,-0.04958697,0.5247396,-0.1263215,-0.002065053,0.1471833,-0.9965135,-0.404062,3.356522,37.58315,1006.905
0.179779053,0.2580503,0.4652587,-0.06512208,-0.007377162,0.1437033,-0.994628,-0.0262289,2.631546,37.58718,1006.903
0.212339401,0.5041602,0.2273349,0.1796755,-0.003478823,0.1442246,-0.9912401,-0.0262289,2.631546,37.58718,1006.904
0.247404575,0.07346794,0.5842205,0.1796755,-0.005360218,0.1397975,-0.9850219,-0.3983808,2.992712,37.58575,1006.906
0.279964447,-0.04958697,0.04889211,-0.00392269,-0.002046247,0.1481002,-0.9844151,-0.3967497,2.995295,38.03183,1006.906
0.312520981,-0.1725914,-0.1294693,-0.003881784,-0.003392161,0.1350297,-0.999598,-0.3967497,2.995295,38.03183,1006.904
0.347585201,-0.0494349,-0.2472841,-0.1260905,-0.007355814,0.1417619,-0.9951409,-0.0262289,2.631546,37.58718,1006.901
0.380145550,-0.04900146,-0.2459964,-0.06470355,-0.005836644,0.1378695,-0.9898847,-0.02296686,2.636713,38.47932,1006.905
0.412706375,-0.2943711,-0.0667934,0.1189471,-0.007796899,0.1388181,-0.9903517,-0.02296686,2.636713,38.47932,1006.902
0.447770596,0.07459966,-0.007075531,-0.003398152,-0.008322105,0.1422109,-0.9898161,-0.402431,3.359106,38.02922,1006.902
0.480331421,0.2580674,0.4088534,0.1188032,-0.01078058,0.144125,-0.9902679,-0.03191018,2.995358,37.58457,1006.904
0.512887001,0.1958742,0.3480604,0.05731165,-0.007860118,0.1441653,-0.9907534,-0.3926995,2.6289,37.58837,1006.905
0.545447350,-0.1734133,-0.009590855,-0.003986944,-0.004475642,0.1456807,-0.9936339,-0.3926995,2.6289,37.58837,1006.907
0.580512524,-0.2953017,-0.06936494,-0.126445,-0.006856013,0.1412691,-0.9922487,-0.0335412,2.992775,37.1385,1006.904
0.613072395,-0.3554903,-0.2470585,-0.1263133,-0.002976994,0.1432526,-0.9898053,-0.0262289,2.631546,37.58718,1006.904
0.645632744,-0.1083947,-0.2459395,-0.06480999,-0.0146729,0.1435927,-0.991239,-0.0262289,2.631546,37.58718,1006.908
0.680697441,-0.04612167,0.1111485,0.0576045,-0.005958268,0.1485551,-0.9887548,-0.03191018,2.995358,37.58457,1006.905
0.713253975,0.137529,0.1106022,-0.0647028,-0.007419033,0.1471091,-0.9955428,-0.3910685,2.631484,38.03444,1006.907
0.745814323,0.6889783,0.1697628,-0.003585132,-0.00734416,0.141265,-0.9927317,-0.3910685,2.631484,38.03444,1006.905
0.780910015,0.1336163,0.04960811,0.1800098,-0.00447406,0.1461534,-0.9907264,-0.7591701,2.626254,37.58955,1006.906
0.813470840,-0.1123431,0.2276808,-0.003707746,-0.008774398,0.138812,-0.991801,-0.02217889,2.265153,37.14372,1006.906
0.846030235,-0.2343418,-0.129461,-0.003692599,-0.004443397,0.1422925,-0.9965858,-0.02217889,2.265153,37.14372,1006.906
0.881095409,-0.1722878,-0.009912264,-0.003753081,-0.010822,0.1465787,-0.9955476,-0.3926995,2.6289,37.58837,1006.909
0.913651943,-0.6017177,0.6434664,0.05748082,-0.009778881,0.1412332,-0.9927298,-0.3983808,2.992712,37.58575,1006.911
0.946211815,-0.5989177,1.056165,0.2405951,-0.004010045,0.1476284,-0.9931211,-0.3983808,2.992712,37.58575,1006.91
0.981276989,0.01742225,0.3391016,0.1173704,-0.003391918,0.1383585,-0.9835957,-0.404062,3.356522,37.58315,1006.91
1.013836861,0.4466731,-0.5527032,0.05598065,0.0004327511,0.1447218,-0.9825355,-0.03191018,2.995358,37.58457,1006.909
1.046397209,0.8131481,-0.7877951,-0.2496496,0.001931601,0.1380128,-0.9990742,-0.03191018,2.995358,37.58457,1006.911
1.078957081,0.07322204,-0.6651928,-0.06564819,-0.009800985,0.1422248,-0.9970651,-0.03027916,2.997941,38.03064,1006.91
1.114018440,-0.8480227,-0.6031098,0.1180651,-0.009756018,0.1411915,-0.9835463,-0.3983808,2.992712,37.58575,1006.914
1.146578789,-0.4144337,-0.5416552,-0.0655731,-0.01172996,0.1431163,-0.9849652,-0.3983808,2.992712,37.58575,1006.914
1.179138660,-0.1062842,0.1727375,-0.06526764,-0.01078495,0.1431817,-0.9965661,0.3402419,2.634194,37.58599,1006.913
1.214203835,-0.4737476,1.299169,0.05680336,-0.008371573,0.1451549,-0.996055,-0.3910685,2.631484,38.03444,1006.915
1.246763229,-0.4722024,1.056193,0.05651431,-0.007391358,0.1470585,-0.9844258,-0.3910685,2.631484,38.03444,1006.918
1.279324055,0.2665076,0.5773641,-0.1269302,0.005288579,0.1443345,-0.9902802,-0.3967497,2.995295,38.03183,1006.916
1.314384461,0.6337112,0.633826,-0.1874956,0.001879212,0.1433402,-0.9951258,-0.3983808,2.992712,37.58575,1006.916
1.346944809,1.122807,0.5715749,-0.06469697,-0.00591925,0.1461058,-0.9844418,-0.3983808,2.992712,37.58575,1006.915
1.379505158,1.916831,-0.0839997,-0.06389563,-0.005411782,0.1446478,-0.9830144,-0.7632203,2.992649,38.03302,1006.917
1.414569855,2.337643,-0.736578,-0.1240086,-0.004414383,0.1393858,-0.9985636,-0.03191018,2.995358,37.58457,1006.919
1.447130203,1.652355,-0.6742996,-0.1847218,-0.001544972,0.1418974,-1.008196,-0.03191018,2.995358,37.58457,1006.918
1.479690075,0.3549914,-0.9086161,0.121702,-0.007769535,0.1368657,-0.988448,-0.404062,3.356522,37.58315,1006.918
1.512246609,-0.3839352,-1.082422,-0.1232077,-0.01162036,0.1324527,-0.9909285,-0.3967497,2.995295,38.03183,1006.92
1.547310829,-1.548936,-0.3649264,0.06014445,-0.01019614,0.1349166,-0.9942759,-0.3967497,2.995295,38.03183,1006.919
1.579871655,-1.480766,0.2894518,0.1206762,-0.01122919,0.1392925,-0.9975919,-0.404062,3.356522,37.58315,1006.922
1.612432003,-1.720338,0.406618,0.4254517,-0.001575324,0.1476602,-0.993123,-0.02459788,2.63413,38.03325,1006.92
1.647496700,-1.221918,-0.0114394,0.2406386,-0.0005656488,0.1457051,-0.9878367,-0.02459788,2.63413,38.03325,1006.92
1.680057049,-0.2958017,-0.1301116,0.1177005,-0.003972298,0.1466083,-0.9825025,-0.3967497,2.995295,38.03183,1006.922
1.712612629,-0.4795641,0.1082487,-0.0657825,-0.00922473,0.1363607,-0.9884543,-0.02459788,2.63413,38.03325,1006.925
1.747677803,0.5045481,0.2261758,-0.06524376,-0.007882223,0.1451569,-0.9950886,-0.02459788,2.63413,38.03325,1006.921
1.780369759,0.9324307,-0.2494367,-0.2481729,-0.0117874,0.1451237,-0.9989524,0.7083435,2.639424,38.03087,1006.918
1.812930107,0.8051889,0.4055903,-0.06410038,-0.01031055,0.1455891,-0.990246,-0.3926995,2.6289,37.58837,1006.918
1.847994804,0.6789472,0.2856316,0.119587,-0.005367437,0.1398107,-0.987922,-0.3926995,2.6289,37.58837,1006.918
1.880555153,0.9215946,0.1656922,-0.1251605,-0.003842183,0.1344803,-0.987038,-0.3983808,2.992712,37.58575,1006.92
1.913110733,1.285594,-0.2503607,-0.002136227,-0.009200529,0.1334628,-0.9923655,-0.3926995,2.6289,37.58837,1006.919
1.945671558,0.6051536,-0.3682272,-0.1855721,-0.002003038,0.1418383,-0.9965951,-0.3926995,2.6289,37.58837,1006.921
1.980735779,0.04971559,-1.197553,-0.3072714,-0.004884102,0.1398236,-0.9893724,-0.01891685,2.270319,38.03586,1006.919
2.013296604,-0.6259567,-1.429848,-0.1841767,-0.01368571,0.1421542,-0.992712,-0.3983808,2.992712,37.58575,1006.919
2.045855999,-0.9915273,-0.7113311,0.0003447738,-0.01463186,0.140664,-0.9883834,-0.3983808,2.992712,37.58575,1006.92
2.080921173,0.05738181,-0.3523122,-0.06062606,-0.00538796,0.141275,-0.9893497,-0.7705326,3.353876,37.58433,1006.92
2.113477707,0.8551708,-0.05384483,-0.1216167,-0.01462457,0.1392239,-0.9922724,-0.3910685,2.631484,38.03444,1006.917
2.146037579,0.544704,0.6588206,0.0006251261,-0.00927547,0.1407339,-0.9883875,-0.3910685,2.631484,38.03444,1006.919
2.181102753,0.235467,0.4780831,0.1227906,-0.01121438,0.139741,-0.9893675,0.3418729,2.636777,38.03206,1006.919
2.213662624,-0.1338466,0.6544467,0.2447656,-0.009276226,0.139784,-0.9932357,-0.03759146,3.359169,37.58195,1006.921
2.246222973,-0.7475717,0.7703675,0.1829714,-0.008762297,0.137363,-0.9937567,-0.03027916,2.997941,38.03064,1006.918
2.281287670,-0.3756853,0.4105864,-0.06214923,-0.003395081,0.1374131,-0.9894106,-0.03027916,2.997941,38.03064,1006.918
2.313844204,-0.3129353,-0.1846279,-0.06199192,0.001924693,0.1399279,-0.992761,-0.4000118,2.990129,37.13968,1006.919
2.346403599,0.2409292,-0.3620008,-0.06185427,-0.003436574,0.1412938,-0.9879013,-0.7648513,2.990065,37.58694,1006.919
2.378964424,0.6083008,-0.7760147,-0.0007097628,-0.01359482,0.1367565,-0.9811934,-0.7648513,2.990065,37.58694,1006.923
2.414028645,0.9128435,-0.2383065,-0.1841894,-0.01217812,0.1373318,-0.996654,-0.03191018,2.995358,37.58457,1006.922
2.446588993,0.8474019,0.4157979,-0.06115505,-0.01077082,0.1412535,-0.9999792,-0.7648513,2.990065,37.58694,1006.924
2.479148865,0.598417,0.7704848,-0.06105937,-0.01020893,0.1339888,-1.003958,-0.7648513,2.990065,37.58694,1006.921
2.514210224,-0.07929355,0.2334723,-0.06098325,-0.007758259,0.1358938,-0.9884629,-0.3983808,2.992712,37.58575,1006.921
2.546770096,-0.7538422,0.1738046,0.06135682,-0.005350524,0.1383529,-0.9879443,-0.3967497,2.995295,38.03183,1006.919
2.579330444,-0.8732259,0.2918525,0.1220179,-0.005860019,0.1402902,-0.9879143,-0.3967497,2.995295,38.03183,1006.919
2.614395142,-0.3783319,0.2907024,0.1215592,-0.004399187,0.1403093,-0.9879153,-0.3813372,1.901279,37.59359,1006.918
2.646955490,0.1755675,-0.00742082,-0.0009513237,-0.005862804,0.1398197,-0.991305,-0.3983808,2.992712,37.58575,1006.92
2.679515362,0.4203054,-0.2447544,-0.06195464,-0.005378267,0.1398304,-0.9922721,-0.3983808,2.992712,37.58575,1006.92
2.714576244,-0.1957911,-0.4220484,-0.0003872663,-0.005811308,0.1363963,-0.9865235,-0.03027916,2.997941,38.03064,1006.919
2.747136116,-0.8710224,-0.06409542,-0.06118195,-0.004364536,0.1369167,-0.9899007,-0.4000118,2.990129,37.13968,1006.923
2.779696464,-0.4994074,0.1141791,-0.1219977,-0.008775601,0.1388142,-0.9922843,-0.4000118,2.990129,37.13968,1006.92
2.812256336,0.4848669,0.2320971,0.06177144,-0.005423747,0.1432428,-0.9946368,-0.3983808,2.992712,37.58575,1006.917
2.847321510,0.666723,0.2308914,0.0005693398,-0.005904675,0.1432255,-0.9922198,0.3361917,3.000589,38.02945,1006.921
2.879881382,0.6027476,0.05165692,-0.1219662,-0.006312758,0.1378433,-0.9855342,0.3361917,3.000589,38.02945,1006.921
2.912437916,0.7843325,0.05146492,-0.1218722,-0.001891175,0.1340242,-0.9880137,-0.0335412,2.992775,37.1385,1006.923
2.947502136,0.7801951,-0.2456804,0.06189639,-0.00635133,0.1393406,-0.9942122,-0.03191018,2.995358,37.58457,1006.92
2.980062962,0.03976665,-0.3635103,-0.0605437,-0.008286182,0.1373892,-0.9981071,-0.03191018,2.995358,37.58457,1006.922
3.012622833,-0.6968523,-0.2431225,0.0006336924,-0.008813037,0.1417362,-0.9936899,-0.7689016,3.356459,38.0304,1006.921
3.047687531,-0.9391507,-0.1226087,0.0006308015,-0.01075359,0.1416976,-0.9907883,-0.02864814,3.000524,38.47671,1006.921
3.080247402,-0.2599105,0.05616579,-0.1219242,-0.01077697,0.1441184,-0.9888178,-0.02864814,3.000524,38.47671,1006.923
3.112803936,0.2324417,0.1748986,0.06165274,-0.007323259,0.1402756,-0.9888798,-0.03619337,3.361383,37.9643,1006.921
3.147868633,0.2311124,0.2930741,0.06151658,-0.009708375,0.1344459,-0.9962171,-0.7648513,2.990065,37.58694,1006.922
3.180428982,0.1073666,0.05442226,-0.06103709,-0.005873255,0.1403144,-0.9932309,-0.7648513,2.990065,37.58694,1006.92
3.212988854,-0.1997819,-0.1829393,-0.1222947,-0.002403901,0.136443,-0.9870095,-0.404062,3.356522,37.58315,1006.92
3.248054028,-0.3833713,-0.1818009,-0.1831111,-0.01505317,0.1353061,-0.9870146,-0.03759146,3.359169,37.58195,1006.922
3.280613899,-0.01272167,0.174613,-0.1216835,-0.0092424,0.1368686,-0.9932802,-0.03759146,3.359169,37.58195,1006.919
3.313170433,0.4172693,-0.004392186,0.0007890724,-0.01066256,0.133446,-0.9928477,-0.3894374,2.634066,38.48051,1006.921
3.345729828,0.5995524,0.05527465,0.001035449,-0.00970559,0.1349164,-0.9928263,0.6953499,3.364462,37.57958,1006.921
3.380795002,0.3518145,0.1145686,-0.1216557,-0.005315494,0.1354353,-0.9875054,0.6953499,3.364462,37.57958,1006.921
3.413354874,0.2277499,-0.3021156,-0.06034423,-0.005851975,0.1397999,-0.9869549,-0.3951187,2.997878,38.4779,1006.918
3.445915699,0.1652943,-0.2418321,0.00104346,-0.01074789,0.1397848,-0.9975848,-0.4056931,3.35394,37.13707,1006.92
3.480979920,-0.4497791,-0.1815325,0.0622766,-0.00830753,0.1393306,-0.9975941,-0.4056931,3.35394,37.13707,1006.919
3.513536453,-0.5710581,-0.002927952,0.0009962348,-0.01023568,0.139745,-0.9874349,-0.3853872,2.267673,38.03705,1006.921
3.546096325,-0.3226784,-0.1813216,0.1845136,-0.00341839,0.1384069,-0.9942293,-0.03191018,2.995358,37.58457,1006.921
3.581160545,0.04680237,-0.1212498,0.06201488,-0.005434644,0.1446895,-0.9921979,-0.03191018,2.995358,37.58457,1006.919
3.613721371,0.2917179,-0.001998978,0.0007163137,-0.01120671,0.1387758,-0.9908324,-0.03759146,3.359169,37.58195,1006.922
3.646280765,0.1676283,0.05694897,-0.06081219,-0.007283794,0.1368742,-0.9889317,-0.7615893,2.995231,38.47909,1006.92
3.681345940,-0.2009793,-0.003192319,-0.06108255,-0.005415324,0.1432274,-0.9912534,-0.7615893,2.995231,38.47909,1006.916
3.713901997,-0.199697,-0.002992617,0.122419,-0.003430111,0.1403307,-0.9898495,-1.132953,2.984835,37.14206,1006.916
3.746462345,-0.322015,-0.2402884,0.1225916,-0.01262529,0.1358259,-0.9874924,-0.3910685,2.631484,38.03444,1006.919
3.779022217,-0.07465062,-0.1806863,-0.06089205,-0.00539518,0.1412882,-0.9922498,-0.3910685,2.631484,38.03444,1006.921
3.814087391,0.1101052,0.0568927,0.0615437,-0.001484674,0.1389336,-0.9976067,-0.03027916,2.997941,38.03064,1006.92
3.846647263,0.1707398,-0.002764132,-0.06116349,-0.002965272,0.1413287,-0.9941851,-0.03191018,2.995358,37.58457,1006.922
3.879207611,0.1084585,0.1753916,0.0611392,-0.00634215,0.1402751,-0.9859805,-0.03191018,2.995358,37.58457,1006.922
3.914268017,0.1080786,-0.06274237,0.06090921,-0.00438829,0.1388625,-0.9903544,0.3248291,3.72821,38.02423,1006.919
3.946828365,0.04636168,-0.1218368,-0.122419,-0.0005341612,0.141367,-0.9956371,-0.3926995,2.6289,37.58837,1006.921
3.979388237,-0.07665063,-0.1806719,0.1225706,-0.008349022,0.1432113,-0.9960846,-0.02483082,2.633761,37.96952,1006.92
4.014452934,-0.2601437,-0.180308,-0.1222277,-0.006838275,0.1393343,-0.9942118,-0.02483082,2.633761,37.96952,1006.924
4.047013283,-0.3815981,0.117272,-0.1223437,-0.009246456,0.1378272,-0.9903654,-0.757772,2.628468,37.9719,1006.921
4.079573154,-0.1346666,0.2361288,5.484559E-05,-0.007327246,0.1398072,-0.9927539,-0.3951187,2.997878,38.4779,1006.921
4.147193909,0.2944674,0.1753038,0.06134927,-0.008300378,0.1407444,-0.987905,-0.02459788,2.63413,38.03325,1006.921
4.179754734,-0.2591096,-0.06296118,0.06113762,-0.007790058,0.13833,-0.9898758,0.3345606,2.998005,37.58338,1006.924
4.212314606,-0.2576867,-0.3602393,-8.078106E-05,-0.003387794,0.1359729,-0.9932995,0.3345606,2.998005,37.58338,1006.927
4.247379303,-0.2563246,-0.2996622,-0.06106868,-0.002454574,0.1393892,-0.9937318,-0.03191018,2.995358,37.58457,1006.927
4.279939175,-0.3784696,-0.001446542,0.0003411546,-0.01457066,0.1357961,-0.9865242,-0.03051209,2.997572,37.96692,1006.925
4.312495709,-0.1319175,0.1169987,0.06152005,-0.007367468,0.1422588,-0.9975503,-0.03051209,2.997572,37.96692,1006.927
4.347560406,0.359511,-0.06173369,-0.1221561,-0.009280283,0.1407427,-0.9903209,-0.3926995,2.6289,37.58837,1006.93
4.380120277,0.2965184,0.3540076,-0.06084267,-0.005847541,0.1393162,-0.9874457,-0.03191018,2.995358,37.58457,1006.928
4.412680626,-0.1344558,0.2932701,-0.06092104,-0.005328041,0.1378363,-0.9811848,-0.03191018,2.995358,37.58457,1006.928
4.447744846,-0.5029914,0.1142676,-0.06101823,-0.005913098,0.1432408,-0.9956033,-0.02296686,2.636713,38.47932,1006.929
4.480305672,-0.132799,-0.2427851,-0.06092317,-0.005348807,0.1359717,-0.9986148,0.347554,2.272967,38.03467,1006.927
4.512861252,-0.07092306,-0.5391068,0.06160885,-0.007315214,0.1397852,-0.9879205,0.347554,2.272967,38.03467,1006.929
4.580486298,0.1134479,-0.06123703,0.0009609759,-0.006322384,0.1378609,-0.9894009,-0.04327273,3.722979,37.57935,1006.926
4.613046169,0.5425003,-0.1205244,0.0009952998,-0.01024651,0.1397647,-0.991785,-0.04327273,3.722979,37.57935,1006.926
4.645606518,0.4176392,0.1173499,0.0623249,-0.007301086,0.137857,-0.9913335,-0.3953516,2.997509,38.41417,1006.922
4.680671215,0.1084201,0.0573913,0.1234424,-0.008746587,0.1359075,-0.9942622,-0.03214312,2.994989,37.52084,1006.922
4.713227749,-0.4445914,-0.06186048,0.06208538,-0.002401806,0.1345367,-0.9952559,-0.03214312,2.994989,37.52084,1006.92
4.745787144,-0.2584475,-0.2399947,-0.1214587,-0.006858419,0.1412735,-0.9932153,-0.02809286,2.628595,37.07738,1006.92
4.780852318,-0.3801751,-0.1793856,0.0008400716,-0.01219992,0.1402252,-0.9917761,0.3359587,3.00022,37.96572,1006.919
4.813412189,-0.07112306,-0.0009393408,-0.06040112,-0.01126264,0.1426829,-0.9951231,0.3359587,3.00022,37.96572,1006.92
4.845972061,0.2978872,-0.06095733,0.1231745,-0.005908663,0.1427571,-0.9960939,-0.02809286,2.628595,37.07738,1006.92
4.881037235,0.6650109,0.1768611,0.0007533636,-0.006318329,0.1369023,-0.9923159,-0.04187465,3.725194,37.96169,1006.921
4.913592815,0.3553194,-0.001929597,0.1843293,-0.006762266,0.1349149,-0.9841284,-0.04187465,3.725194,37.96169,1006.921
4.946153641,-0.0146954,-0.0615332,0.1231078,-0.004870799,0.1383725,-0.9908447,0.34164,2.636408,37.96834,1006.921
4.981217861,0.04614405,-0.2398177,0.0007827058,-0.008277827,0.1388007,-0.9879346,-0.3926995,2.6289,37.58837,1006.92
5.013777733,-0.01578378,-0.2386346,-0.1214081,-0.01120303,0.1373423,-0.9961714,-0.3926995,2.6289,37.58837,1006.924
5.046338081,-0.3227582,0.2376629,0.001043905,-0.01018937,0.1358555,-0.9870109,-0.3872511,2.26472,37.52725,1006.921
5.078897953,-0.5673398,0.2365817,0.1234002,-0.009262166,0.1392827,-0.9898599,-0.3986137,2.992342,37.52203,1006.921
5.113959312,0.04945941,0.3536288,0.1228585,-0.003942392,0.1417975,-0.9932101,-0.3986137,2.992342,37.52203,1006.925
5.146519184,0.6016151,0.1148607,0.0001893491,-0.00099704,0.1413167,-0.9859698,-0.03214312,2.994989,37.52084,1006.924
5.179079533,0.4144841,-0.3606899,-3.388152E-06,-9.469222E-06,0.1403532,-0.9850187,-0.03782439,3.358799,37.51823,1006.925
5.214143753,-0.01756408,-0.596284,-0.1221525,-0.009266465,0.1369125,-1.002947,-0.03782439,3.358799,37.51823,1006.923
5.246703625,-0.9998468,-0.5337194,-0.1219232,-0.01315435,0.1358965,-1.004409,-0.3929324,2.628531,37.52464,1006.925
5.279264450,-0.9341666,-0.6493865,-0.1218485,-0.0102035,0.1377838,-0.9835979,-0.7707655,3.353507,37.52061,1006.925
5.314324856,-1.236603,0.4222916,-0.06044047,-0.01360128,0.1377195,-0.9792452,-0.7707655,3.353507,37.52061,1006.922
5.346885204,-0.3715681,1.311253,0.184354,-0.01030522,0.1432013,-0.9994666,0.3359587,3.00022,37.96572,1006.924
5.379445076,0.3674838,2.018429,0.06164499,-0.007889442,0.1451701,-0.9979888,-0.404295,3.356153,37.51942,1006.922
5.414509297,0.9176492,1.356753,0.1836005,-0.002004687,0.1427926,-0.9927135,-0.404295,3.356153,37.51942,1006.922
5.447070122,0.9137352,0.9352109,-0.0004391763,0.004412871,0.1374839,-0.9826498,-0.03619337,3.361383,37.9643,1006.922
5.479629994,0.2958942,0.2188592,-0.000513928,0.0009914048,0.1379386,-0.9855398,0.340009,2.633825,37.52227,1006.921
5.512186051,0.1104144,-0.553736,-0.1225265,-3.765803E-05,0.1427828,-0.9849815,0.340009,2.633825,37.52227,1006.921
5.547250748,0.2944542,-1.679018,-0.305222,-0.006800838,0.1364122,-0.9928063,-0.03214312,2.994989,37.52084,1006.92
5.579810619,0.1709324,-1.197128,-0.1207443,-0.007833065,0.140311,-0.998063,-0.03377414,2.992406,37.07477,1006.92
5.612370968,0.1702934,-0.5984092,-0.1201947,-0.01648417,0.1319032,-0.9909322,-0.03377414,2.992406,37.07477,1006.92
5.647435665,0.5377069,-0.1804424,-0.05888998,-0.01896564,0.136713,-0.9869894,0.3286464,3.361447,37.51704,1006.918
5.679995060,0.4120549,0.4142255,0.0633075,-0.007335223,0.1388706,-1.000502,-0.03051209,2.997572,37.96692,1006.919
5.712551594,0.04207956,0.4127044,0.1850835,-0.007344917,0.1403151,-0.99758,-0.03051209,2.997572,37.96692,1006.919
5.747616291,-0.878257,-0.004838906,0.2457584,-0.006807368,0.1388022,-0.984069,-0.3969827,2.994926,37.9681,1006.92
5.780176640,-1.180886,-0.3011415,-0.06045336,-0.008268958,0.1378333,-0.9889162,-0.3986137,2.992342,37.52203,1006.92
5.812736511,-1.544716,0.0566912,0.001011644,-0.009757087,0.1383397,-0.9976078,-0.4026639,3.358737,37.96549,1006.922
5.847801208,-0.8619256,0.7684782,0.1844902,-0.006404098,0.1441931,-0.9926879,-0.4026639,3.358737,37.96549,1006.921
5.880361557,0.06366951,-0.006898475,0.000600595,-0.001572918,0.1476558,-0.9921564,-0.3983808,2.992712,37.58575,1006.923
5.912917137,1.290099,-0.3626364,-0.3660797,-0.02050331,0.1415904,-0.9951308,-0.4002447,2.98976,37.07596,1006.921
5.945477962,-0.6795793,0.5294133,-0.05987645,-0.007820072,0.136958,-1.008748,-0.4002447,2.98976,37.07596,1006.921
5.980542183,0.3680955,1.773502,0.2452891,-0.00191163,0.1340616,-0.9962305,-0.0207808,2.267367,37.52607,1006.922
6.013102055,1.595503,1.587625,0.305143,0.01414003,0.1395348,-0.9782775,-0.03619337,3.361383,37.9643,1006.92
6.045662403,2.508957,-1.149706,0.05940907,0.001528061,0.1383297,-0.963299,-0.03619337,3.361383,37.9643,1006.92
6.080727100,-0.4507392,-2.508374,-0.4904367,-0.01610555,0.1411441,-0.9912749,-0.4026639,3.358737,37.96549,1006.924
6.113282681,-5.061115,-1.07487,-0.4894167,-0.02105846,0.1421843,-1.020257,0.3302774,3.36403,37.96312,1006.921
6.145843506,-5.122642,1.125924,-0.1222203,-0.01573882,0.1475529,-1.010029,0.3302774,3.36403,37.96312,1006.921
6.180907726,-0.4465554,1.542291,0.0001785066,0.001416644,0.1451918,-0.9762455,-0.03214312,2.994989,37.52084,1006.923
6.213468075,3.860367,0.8880005,0.06137791,0.01124484,0.1394483,-0.9676417,-0.7650843,2.989696,37.52322,1006.922
6.246027947,6.075355,0.05526741,0.0001785066,0.004952136,0.1335898,-0.9798094,-0.7650843,2.989696,37.52322,1006.925
6.281092644,5.275498,-0.6585038,0.1225773,-0.004782042,0.1272713,-1.007449,-0.3969827,2.994926,37.9681,1006.923
6.313649178,1.276213,-0.8369467,0.06137791,-0.01300454,0.1227814,-1.005576,-0.3969827,2.994926,37.9681,1006.923
6.346208572,-3.892093,-0.8964276,0.1837767,-0.005716222,0.1271861,-0.9914979,-0.3969827,2.994926,37.9681,1006.926
6.381273270,-6.414719,-1.431756,0.06137791,-0.005778752,0.13491,-0.9802624,-0.7650843,2.989696,37.52322,1006.924
6.413833618,-6.291664,-0.7774658,0.2449761,-0.008917369,0.151439,-0.9901581,-0.3986137,2.992342,37.52203,1006.924
6.446393490,-3.70751,-0.2421373,0.1225773,-0.01231065,0.1494641,-0.9930851,-0.3986137,2.992342,37.52203,1006.925
6.478953362,-0.4465554,0.5905958,0.2449761,-0.009899748,0.1528687,-0.9867516,-0.0231998,2.636343,38.4156,1006.925
6.514014721,1.891488,1.125924,0.0001785066,-0.007339036,0.143158,-0.9815851,-0.03377414,2.992406,37.07477,1006.923
6.546574116,2.199125,0.6500768,-0.06102089,-0.003525953,0.1485912,-0.9897234,-0.03377414,2.992406,37.07477,1006.922
6.579133988,1.953015,0.2337102,-0.1222203,0.0009762084,0.1370151,-0.9961882,-0.3856201,2.267304,37.97332,1006.924
6.614199162,1.337741,-0.1826563,0.0001785066,-0.0005672304,0.1452323,-0.9907442,-0.4002447,2.98976,37.07596,1006.925
6.646759033,0.5994113,-0.3016182,-0.2446191,-0.007779161,0.1368832,-0.9923148,-0.4002447,2.98976,37.07596,1006.925
6.679319382,-0.2004456,-0.1231754,-0.1222203,-0.01216767,0.1368371,-0.994728,0.3402419,2.634194,37.58599,1006.923
6.714379787,-1.06183,0.05526741,0.06137791,-0.009306376,0.1412659,-0.9985303,-0.3896704,2.633697,38.41679,1006.925
6.746939659,0.1687191,0.412153,-0.3670179,-0.01178874,0.1479798,-0.9858577,-0.3896704,2.633697,38.41679,1006.921
6.779500484,2.445235,-0.004213529,0.3061755,-0.06124425,0.1421873,-0.9230593,-0.3913014,2.631114,37.97071,1006.922
6.814564705,1.706906,-0.4205801,0.3061755,0.007410815,0.1273949,-0.9997249,-0.3913014,2.631114,37.97071,1006.922
6.847124577,-1.06183,-0.004213529,0.2449761,0.004162984,0.1550624,-1.001233,-0.3913014,2.631114,37.97071,1006.92
6.879684925,-2.169324,-0.06369447,0.06137791,-0.01160479,0.1338511,-0.9778559,-0.404295,3.356153,37.51942,1006.92
6.912240982,-0.385028,-0.1231754,0.1225773,-0.006810978,0.1388088,-0.9855189,-0.02646184,2.631177,37.52345,1006.92
6.947305202,2.383708,1.958657,0.2449761,-0.008687871,0.132471,-0.9865806,-0.02646184,2.631177,37.52345,1006.919
6.979866028,3.675784,2.791391,0.1837767,-0.008801897,0.1436183,-0.9801266,-0.3986137,2.992342,37.52203,1006.919
7.012425423,11.5513,2.612948,-0.1834197,0.001287178,0.1520868,-0.9964419,-0.3986137,2.992342,37.52203,1006.921
7.047490120,20.53431,3.088795,0.8569701,0.008912653,0.1168756,-1.03324,-0.3986137,2.992342,37.52203,1006.919
7.080050468,15.61211,2.612948,0.6733719,-0.01035685,0.1057777,-0.9995541,-0.03214312,2.994989,37.52084,1006.92
7.112606525,9.090199,2.612948,0.5509731,0.001699316,0.1128095,-1.014926,-0.7748158,3.719901,37.96407,1006.918
7.147670746,23.97985,6.181804,0.7957706,-0.001536036,0.09580221,-1.02485,-0.7748158,3.719901,37.96407,1006.918
7.180231094,20.965,7.014537,0.9793689,0.006627826,0.07524729,-0.9705502,-0.4140265,4.086358,37.96027,1006.918
7.212790966,19.24223,8.144676,1.407765,0.00841519,0.07509005,-1.03726,-0.7861784,4.447522,37.95885,1006.919
7.247855663,15.91975,10.28599,0.9793689,0.03453634,0.05250095,-1.018295,-0.7861784,4.447522,37.95885,1006.919
7.280416012,23.85679,13.379,0.4897737,0.01729827,0.06309837,-1.046636,-1.171324,5.533723,37.50613,1006.919
7.312972069,37.20824,19.14865,1.468964,0.009342813,0.04290113,-1.0102,-0.8178465,6.26141,37.05365,1006.916
7.345531941,70.67918,8.204157,11.93406,-0.09927291,0.06621109,-1.103031,-0.8178465,6.26141,37.05365,1006.916
7.380596638,127.7767,-12.67365,-5.997363,-0.04172642,0.06585009,-1.072639,-1.19568,6.986384,37.04961,1006.916
7.413156509,194.4724,-6.487636,-11.56651,0.04230653,-0.05045608,-1.119449,-1.952977,8.43375,36.59547,1006.918
7.445716381,305.1603,-9.99701,-12.1785,-0.02189999,-0.1626046,-1.222607,-1.952977,8.43375,36.59547,1006.914
7.480781078,493.5574,1.304367,-4.956973,0.07931104,-0.3283433,-1.251336,-2.033124,13.15333,34.84097,1006.916
7.513337612,330.5096,-0.2421373,8.93529,-0.09906266,0.06118196,-0.6409999,-1.068699,20.09298,27.6502,1006.916
7.545897007,-279.0429,63.22402,3.978139,0.2398534,-0.3376991,-0.7677733,-0.9131534,31.69145,19.59989,1006.911
7.580961704,-1.06183,24.14505,30.96707,-0.05068736,-0.8572752,-1.165021,-0.9131534,31.69145,19.59989,1006.913
7.613522053,-25.36518,44.72545,25.33673,0.01566509,-0.3269485,-0.7818942,-1.616791,30.98694,24.51428,1006.909
7.646081924,-23.45782,28.36819,40.51418,-0.0222687,-0.2781231,-0.7264911,-3.052636,29.15988,24.97816,1006.912
7.681146622,2.014543,31.81809,36.90341,-0.006521778,-0.5812727,-0.7088959,-3.052636,29.15988,24.97816,1006.912
7.713703155,-7.337631,23.84764,32.49706,-0.009309935,-0.6495116,-0.7800239,-2.680484,28.79872,24.97958,1006.914
7.746262550,285.5946,1.48281,19.21679,0.03937506,-2.075878,-1.404603,-3.038855,28.06329,24.09385,1006.912
7.778822422,823.4676,13.55744,13.52525,-0.07072704,-0.2349018,-0.2201728,-3.038855,28.06329,24.09385,1006.913
7.813887596,189.3657,26.76221,21.41997,0.1515847,-1.354388,-0.07650215,-1.670148,30.90244,9.921354,1006.911
7.846447468,210.3465,24.68038,8.139698,0.1008173,-0.8893302,-0.1017443,-1.81553,37.44488,-1.660226,1006.911
7.879007339,99.04334,26.1674,-1.285009,0.05236487,-1.063197,0.3693592,-1.81553,37.44488,-1.660226,1006.913
7.914067745,8.59798,25.03726,7.038109,0.09980419,-0.9637759,0.1262415,-1.454617,36.3203,-7.834864,1006.912
7.946628094,62.68061,25.87,14.44324,0.188447,-0.8772113,-0.05765671,-0.7225187,35.95145,-9.618917,1006.914
7.979187965,24.53359,25.03726,6.732112,0.1196865,-1.046962,0.09353371,-0.7225187,35.95145,-9.618917,1006.913
8.014252663,70.4946,37.94463,-1.897003,0.1205751,-1.07533,-0.07704858,0.3744197,35.58267,-11.85023,1006.913
8.046813011,150.3573,44.72545,-14.38168,-0.07544649,-1.059736,0.0988443,0.3724117,35.20668,-13.95053,1006.915
8.079372883,8.967145,49.12704,-16.27886,-0.03421915,-0.9178087,0.1077371,0.3724117,35.20668,-13.95053,1006.916
8.114433289,-137.9604,44.13064,16.27922,-0.06106479,-0.6711674,-0.3375312,1.121658,33.31162,-17.508,1006.914
8.146993637,-1037.738,-38.90475,100.5508,-0.8487913,4.173302,0.5293927,2.246269,32.24105,-15.27337,1006.916
8.179553509,-1389.552,79.2244,79.3146,-0.4067067,-1.497053,-3.625159,2.246269,32.24105,-15.27337,1006.916
8.212113380,347.8604,-81.25517,25.58153,-0.1496152,-1.403647,-1.00263,3.826002,35.75306,13.3738,1006.913
8.247178078,-77.60199,-61.98336,44.24734,-0.1163622,0.2301596,-0.3377448,3.68687,23.74564,24.10359,1006.913
8.279738426,-75.387,-63.47038,39.16779,-0.01138452,-0.8425466,-0.5548131,3.68687,23.74564,24.10359,1006.915
8.312294006,5.460081,-76.02085,47.42971,-0.08392681,-0.615499,-0.4599209,7.239527,30.3052,21.36827,1006.912
8.347358704,9.028672,-98.20724,44.18614,-0.2239019,-0.7684696,-0.6733553,9.085663,29.22184,20.47802,1006.916
8.379919052,30.93245,-111.412,37.9438,-0.4560679,-0.7774553,-0.8579182,9.085663,29.22184,20.47802,1006.916
8.412478924,29.0251,-126.3417,31.88507,-0.270941,-0.6332175,-0.9438709,11.25789,30.31402,17.85034,1006.913
8.447543144,-0.5696104,-105.5234,22.82755,-0.5246964,-0.7191773,-1.362092,13.39658,33.21714,13.80767,1006.915
8.480103016,-15.02856,-83.75337,20.44078,-0.6410403,-0.7829543,-1.245008,13.39658,33.21714,13.80767,1006.913
8.512659550,28.90204,-76.31826,12.48486,-0.5020008,-0.5384955,-1.378209,18.80669,39.1462,15.08585,1006.916
8.547724247,31.91689,-38.78579,2.080958,-0.4353478,-0.4643303,-1.251947,25.39449,44.30313,17.70413,1006.916
8.580284119,2.445235,-12.01936,2.325756,-0.338084,-0.2832171,-1.043843,25.39449,44.30313,17.70413,1006.918
8.612844467,-15.27467,7.311942,5.018528,-0.4036108,-0.3385677,-0.81792,29.00969,47.60648,18.11481,1006.916
8.645404339,-16.44369,19.68398,12.36246,-0.5322813,-0.3195785,-0.7672349,30.09774,48.34204,18.10602,1006.919
8.680468559,-60.86652,17.60214,15.17763,-0.5614755,-0.3926583,-0.7054827,30.09774,48.34204,18.10602,1006.921
8.713024616,-29.48751,5.646476,10.58767,-0.5675815,-0.49054,-0.6808678,29.38348,47.2479,18.5623,1006.921
8.745584965,-50.89907,-1.372275,3.121348,-0.4930911,-0.5498381,-0.5740513,28.69823,44.70847,20.7496,1006.92
8.780889988,0.5994113,-7.320369,-9.057332,-0.4930452,-0.4640026,-0.744824,28.69823,44.70847,20.7496,1006.922
8.813449860,14.99684,-13.56587,-12.0561,-0.521661,-0.2570205,-0.7068354,28.72747,43.26357,22.54433,1006.925
8.846010208,7.613542,-17.55109,-14.38168,-0.5100953,-0.3283534,-0.6982673,29.09316,43.63777,23.87875,1006.924
8.881074905,46.12973,-13.56587,-19.33883,-0.5294809,-0.4998295,-0.8787474,29.09316,43.63777,23.87875,1006.924
8.913630486,53.63608,-15.23133,-19.46123,-0.5623267,-0.2950856,-0.7885842,30.54992,44.75233,26.03279,1006.926
8.946191311,44.7146,-17.61057,-13.89208,-0.5259443,-0.2915027,-0.8306184,31.99555,46.59489,28.24534,1006.93
8.981255531,28.10219,-10.17545,-13.52489,-0.4774799,-0.4789881,-0.8243415,31.99555,46.59489,28.24534,1006.927
9.013815403,34.56256,-1.01539,-17.13565,-0.4744337,-0.4858362,-0.8060805,33.43061,48.79351,29.11706,1006.931
9.046375275,27.79455,3.921528,-18.60444,-0.4989785,-0.4966762,-0.7375827,34.15303,49.90056,30.89114,1006.931
9.081440449,20.2882,3.326719,-20.68522,-0.5157131,-0.5074497,-0.6613573,34.14493,50.63335,31.77806,1006.926
9.113996029,27.97913,0.2337102,-20.37922,-0.5235888,-0.5002627,-0.6612401,34.14493,50.63335,31.77806,1006.928
9.146555901,14.50462,-0.06369447,-19.33883,-0.4986203,-0.5505435,-0.6480134,34.11005,53.18778,33.098,1006.932
9.179115772,39.85393,-6.190231,-18.42084,-0.5155054,-0.4090683,-0.7057774,34.11005,53.18778,33.098,1006.929
9.214180946,28.84052,-9.640124,-13.46369,-0.4633437,-0.5415009,-0.7179991,33.74014,53.9253,35.2606,1006.933
9.246740818,31.17856,-1.907604,-11.81131,-0.472832,-0.5221654,-0.7220454,34.45851,55.39875,37.47814,1006.933
9.279300690,30.07106,-4.465284,-7.28255,-0.5004038,-0.5228635,-0.6480727,34.45851,55.39875,37.47814,1006.93
9.314361096,18.5039,-11.00819,-2.570196,-0.4976315,-0.5438995,-0.6102096,33.72557,55.39346,37.48051,1006.932
9.346921444,21.51875,-6.606598,-2.019402,-0.5054734,-0.5819017,-0.6122319,33.33458,56.53254,35.68915,1006.933
9.379481316,12.78185,-8.68843,-1.346208,-0.4723122,-0.6285897,-0.6173266,32.97148,56.10028,34.80124,1006.931
9.414546013,6.752157,-0.4205801,-6.548157,-0.4356468,-0.6915784,-0.6613435,32.97148,56.10028,34.80124,1006.931
9.447105408,15.30447,-0.7179848,-4.406178,-0.5245852,-0.5690869,-0.5994502,32.60338,56.09505,34.35636,1006.927
9.479666233,8.228815,-4.405803,4.345335,-0.5668144,-0.5908128,-0.6451783,32.24096,55.72601,33.91409,1006.929
9.514726639,-30.71806,-0.004213529,12.91325,-0.6265143,-0.4798706,-0.6313437,32.24096,55.72601,33.91409,1006.93
9.547286511,-46.4691,7.847271,5.569323,-0.5023561,-0.4758505,-0.6251183,31.86646,56.1456,33.52988,1006.93
9.579846382,-45.73077,14.21173,2.570553,-0.4943836,-0.4585379,-0.6683658,32.98853,55.00885,34.80907,1006.93
9.612406731,0.04566421,-3.156703,6.793311,-0.4700721,-0.5298617,-0.6254901,32.98853,55.00885,34.80907,1006.93
9.647470951,5.213971,6.419728,0.0001785066,-0.6280016,-0.4541583,-0.5192899,32.62955,53.89965,32.20539,1006.927
9.680030823,-32.99458,10.46443,-9.057332,-0.8608963,-0.5224696,-0.4867543,31.15062,53.8684,28.64157,1006.931
9.712586880,-37.60914,-10.11597,-20.62402,-0.8599553,-0.6373841,-0.6494728,31.15062,53.8684,28.64157,1006.934
9.747652054,-5.245697,-23.91555,-17.19685,-0.7284973,-0.5529931,-0.6613635,28.9883,51.30067,27.77483,1006.934
9.780211925,-8.629708,-20.46566,-24.96918,-0.6905819,-0.5946508,-0.6900714,27.19735,48.74335,28.24512,1006.934
9.812771320,58.55827,-50.14664,-18.17604,-0.6257236,-0.6908932,-0.7152877,27.19735,48.74335,28.24512,1006.935
9.847836018,105.8114,-50.14664,-11.26051,-0.5416372,-0.3408011,-0.5108766,27.55994,48.36705,25.63384,1006.934
9.880396366,59.66577,-51.93107,0.06137791,-0.4679113,-0.3373488,-0.4180868,27.84513,51.96906,18.91546,1006.932
9.912952423,29.0251,-44.25803,3.060148,-0.4819819,-0.5181363,-0.4604682,27.84513,51.96906,18.91546,1006.932
9.948016644,40.40767,-49.9682,4.161737,-0.4068326,-0.6110351,-0.4435897,28.15818,54.12395,13.60947,1006.935
9.980576515,49.32915,-45.80453,12.54605,-0.2881947,-0.5664138,-0.5102128,25.64396,50.08542,10.52401,1006.937
10.013136387,61.7577,-31.41015,24.23514,-0.3205918,-0.4413852,-0.4169159,25.64396,50.08542,10.52401,1006.935
10.045696735,26.07178,-27.66285,24.41874,-0.3766884,-0.6580624,-0.4892904,23.48003,43.51054,8.857777,1006.935
10.080761433,44.59154,-26.53271,28.2743,-0.3423814,-0.6133695,-0.3871325,23.58955,35.85502,6.236177,1006.935
10.113317013,19.85751,-25.81894,39.29019,-0.2546615,-0.5444527,-0.4345034,23.58955,35.85502,6.236177,1006.934
10.145876884,-5.553334,-15.52874,51.59127,-0.3807497,-0.6135786,-0.3445615,24.08212,31.05243,3.59274,1006.936
10.180942059,-3.522928,-18.32434,66.95232,-0.5841143,-0.7657339,-0.3858401,25.22474,27.77353,1.446038,1006.935
10.213501930,-28.07238,-20.22773,71.11388,-0.6168748,-0.8342894,-0.3670359,25.22474,27.77353,1.446038,1006.939
10.246061802,-36.50165,-34.02731,69.40029,-0.6771458,-0.7516811,-0.3231803,26.72629,24.85813,-1.21426,1006.939
10.281126022,-47.45354,-36.22811,68.7271,-0.6505809,-0.5480709,-0.2408257,28.22299,22.68069,-2.095492,1006.942
10.313682079,-90.09206,-34.91953,61.93397,-0.7584699,-0.4976627,-0.3056918,28.22299,22.68069,-2.095492,1006.945
10.346242428,-119.2561,-31.41015,49.32689,-0.7929432,-0.6973553,-0.4169815,30.44207,20.8646,-4.319928,1006.945
10.381307125,-76.98672,-17.78901,27.9071,-0.8118194,-0.8679148,-0.5839135,30.82558,19.77582,-4.313283,1006.946
10.413866520,-19.64312,-1.550718,3.672142,-0.9162253,-0.9035729,-0.6297942,30.82558,19.77582,-4.313283,1006.942
10.446426392,39.60781,10.16703,-18.17604,-1.041196,-0.8224005,-0.5626959,31.20342,19.05084,-4.30925,1006.942
10.478987217,53.26691,11.05924,-34.57748,-1.143759,-0.5585406,-0.4198422,31.92258,20.15273,-3.427318,1006.944
10.514047623,32.03994,9.750661,-45.28738,-1.150087,-0.4270481,-0.3902776,31.92258,20.15273,-3.427318,1006.946
10.546607494,11.24366,0.05526741,-45.53217,-1.149216,-0.412104,-0.3610478,31.188,20.14486,-3.871012,1006.943
10.579166889,-15.39773,-7.498812,-36.96426,-0.8944074,-0.5030929,-0.3559146,30.06284,21.58736,-4.706309,1006.947
10.614231587,-31.08723,-8.68843,-24.11238,-0.7001136,-0.5931984,-0.3975971,30.06284,21.58736,-4.706309,1006.947
10.646791935,-4.93806,-8.391026,-8.996133,-0.6100948,-0.6774024,-0.432805,28.97377,21.22299,-3.425641,1006.943
10.679351807,5.767718,-3.454108,-7.098952,-0.5592207,-0.5479657,-0.3221196,28.22704,22.3143,-2.538953,1006.944
10.714412212,-22.16575,8.739486,-12.3009,-0.586331,-0.7357801,-0.3529947,28.22704,22.3143,-2.538953,1006.942
10.746972084,33.27049,12.1299,-16.46246,-0.7504342,-0.5669161,-0.3367255,28.61219,21.22809,-2.086236,1006.944
10.779531956,6.44452,3.981009,-19.21643,-0.843245,-0.3523599,-0.2250861,27.1512,21.22526,-0.7432652,1006.944
10.814597130,-14.78245,0.6500768,-13.09649,-0.997564,-0.2803657,-0.2538082,27.1512,21.22526,-0.7432652,1006.947
10.847157001,-55.8828,-6.72556,-15.29967,-1.149772,-0.3046061,-0.2757831,26.43288,20.49751,0.1564789,1006.944
10.879716873,-60.86652,-13.86327,-24.29598,-1.00452,-0.7462218,-0.5369169,26.81156,20.14668,1.942188,1006.948
10.912272453,76.0936,-5.060093,-29.37553,-0.8816326,-0.4642473,-0.5240328,26.81156,20.14668,1.942188,1006.949
10.947337151,146.0503,-10.17545,-31.21151,-0.9016181,0.02337351,-0.4005638,26.46111,19.42379,3.22309,1006.949
10.979897022,92.70601,5.051666,-32.4967,-0.8991957,0.09090924,-0.283042,26.10437,18.69094,2.78343,1006.951
11.012457371,49.94443,6.479209,-23.50039,-1.01188,-0.1200794,-0.166758,26.10437,18.69094,2.78343,1006.954
11.047521591,-31.0257,1.720734,-7.404949,-0.8741813,-0.3779149,-0.2515485,26.08267,19.77499,1.501105,1006.952
11.080081463,-35.2711,7.133499,12.91325,-0.8471328,-0.5011805,-0.532847,25.32779,20.85338,0.1574335,1006.952
11.112637520,11.48977,-6.368674,35.00623,-0.645143,-0.4987976,-0.3720411,25.67474,21.57073,-2.079337,1006.952
11.147701740,16.41197,18.91072,47.12371,-0.5483377,-0.47215,-0.2905207,25.67474,21.57073,-2.079337,1006.955
11.180262089,-7.891378,10.46443,53.67205,-0.7232613,-0.5886833,-0.2819788,26.38738,22.66229,-2.981691,1006.953
11.212821960,-9.860257,5.586995,53.48845,-0.5673936,-0.6712826,-0.2679214,27.85405,22.30132,-4.322051,1006.956
11.247886658,10.81297,15.28239,48.7149,-0.5874904,-0.6256986,-0.3029764,27.85405,22.30132,-4.322051,1006.954
11.280446529,-12.44441,20.04086,39.16779,-0.7158156,-0.6150054,-0.3500604,28.58965,21.938,-5.150238,1006.954
11.313002110,-40.50093,15.8772,23.13355,-0.6747,-0.6685483,-0.3214309,29.68906,21.94594,-5.153804,1006.955
11.348067284,-49.97616,28.18975,12.72965,-0.601066,-0.9276645,-0.5212227,29.68906,21.94594,-5.153804,1006.955
11.413187027,-10.16789,20.99256,-1.835803,-0.518907,-0.8536325,-0.4278477,31.52444,21.96398,-4.331327,1006.957
11.445746899,38.31574,26.76221,-6.425758,-0.4983999,-0.8188027,-0.4399039,31.52444,21.96398,-4.331327,1006.957
11.480811119,39.17712,29.02248,-9.852924,-0.7274178,-0.5398006,-0.3551857,32.25659,22.34083,-2.9981,1006.958
11.513367176,14.75073,23.78816,-11.19931,-0.6737137,-0.5973275,-0.3759336,31.88607,22.70457,-2.553452,1006.957
11.545927525,49.69832,23.60972,-6.915354,-0.7544565,-0.3924079,-0.354361,31.88607,22.70457,-2.553452,1006.959
11.580992222,-10.10637,15.81772,-8.016942,-0.7947165,-0.370922,-0.3849305,31.87712,23.06322,-3.448207,1006.957
11.613551617,-27.08794,12.18938,-3.426988,-0.6589802,-0.6320853,-0.4915218,31.51392,23.06574,-2.554873,1006.96
11.646111488,24.7797,18.3754,-6.24216,-0.7513112,-0.5514659,-0.4230134,31.51392,23.06574,-2.554873,1006.96
11.681176186,22.62624,25.57259,-11.07691,-0.8641267,-0.570821,-0.4444683,30.77288,23.79323,-1.665574,1006.962
11.713731766,52.03636,27.4165,-8.996133,-0.8726358,-0.4122946,-0.3811361,30.76883,24.15962,-1.222114,1006.961
11.746292591,13.45865,27.59494,-3.855383,-1.077279,-0.2270848,-0.3350925,30.76883,24.15962,-1.222114,1006.965
11.781356811,-50.03769,8.144676,6.91571,-0.879105,-0.497147,-0.4433299,31.12798,24.5235,-1.671986,1006.962
11.813916683,4.783278,1.006962,22.39916,-0.7951939,-0.3709459,-0.3810634,31.12556,24.89248,-0.7824526,1006.962
11.846476555,-38.59358,-0.8369467,26.86671,-0.8032141,-0.4466159,-0.4363483,31.12556,24.89248,-0.7824526,1006.962
11.879036427,4.475641,-10.94871,35.43463,-0.6493294,-0.4783413,-0.393477,31.12151,25.25887,-0.3389912,1006.966
11.914096832,-5.368752,2.077619,33.65984,-0.7105902,-0.3102174,-0.347349,31.51071,23.80628,-0.3297358,1006.963
11.946657181,-45.79229,-5.416979,30.84468,-0.8756576,-0.4862343,-0.375494,31.51071,23.80628,-0.3297358,1006.965
11.979217052,-58.71306,-6.963483,30.90587,-0.6967243,-0.7123861,-0.5753679,32.24365,23.81157,-0.3321133,1006.965
12.014281750,-22.10422,2.791391,19.21679,-0.7552554,-0.6635615,-0.5784336,33.36174,22.73066,0.1182251,1006.962
12.046841145,-15.21315,0.412153,10.83247,-0.8836331,-0.7411253,-0.6689177,33.36174,22.73066,0.1182251,1006.964
12.079401016,10.32075,3.088795,-0.1222203,-0.8645123,-0.4698735,-0.5202682,34.11498,21.64969,1.015825,1006.962
12.114461422,-56.00585,9.869623,-13.40249,-0.949098,-0.5097634,-0.6469564,34.49445,20.9273,1.465931,1006.965
12.147021294,-19.58159,3.267238,-11.50531,-0.832011,-0.5295689,-0.6584892,34.49445,20.9273,1.465931,1006.965
12.179582119,-12.07525,11.83249,-11.50531,-0.7767842,-0.3696368,-0.6145322,33.75746,21.2884,1.911769,1006.965
12.214646339,-9.368037,7.430904,-4.956973,-0.6946771,-0.2926564,-0.5283627,33.75644,21.65959,3.183649,1006.961
12.247206211,-5.860971,10.99976,5.079728,-0.6448963,-0.2086174,-0.4836248,33.75644,21.65959,3.183649,1006.961
12.279766083,-12.93663,13.20056,11.68926,-0.6544719,-0.2095182,-0.4203068,33.38755,22.02592,4.074371,1006.963
12.312321663,-18.16646,7.430904,10.83247,-0.6416073,-0.2947494,-0.3447627,33.38755,22.02592,4.074371,1006.963
12.347386360,41.63822,-6.666079,18.91079,-0.7546289,-0.1032536,-0.2431232,33.38755,22.02592,4.074371,1006.96
12.379946232,-16.07453,-31.70755,16.27922,-0.7010807,0.04659361,-0.3365974,33.76701,21.30353,4.524475,1006.96
12.412506580,-2.784599,-33.67043,16.21802,-0.5839589,-0.1029511,-0.3539766,33.76943,20.93455,3.634944,1006.964
12.447571278,39.30018,-29.03091,17.13601,-0.5796299,-0.1801545,-0.1453731,33.76943,20.93455,3.634944,1006.961
12.480130673,-3.276818,-39.20215,21.54237,-0.6270984,-0.1308776,-0.00342942,34.144,20.20441,2.746833,1006.963
12.512686730,-27.94933,-53.77498,28.2131,-1.05119,-0.1326705,0.02982218,34.8747,19.83335,0.580431,1006.963
12.547750950,-38.53205,-68.34781,36.90341,-1.028645,-0.5559712,-0.3348399,34.8747,19.83335,0.580431,1006.959
12.580310822,51.48262,-80.18452,34.76143,-1.15859,-0.5387686,-0.2160247,35.24033,19.46185,-1.202434,1006.961
12.612870693,-29.91821,-93.86514,35.74062,-1.07968,-0.3236164,-0.3824836,36.35595,18.00421,-2.979843,1006.964
12.647935867,-39.51649,-83.93182,15.60602,-0.9741253,-0.6189587,-0.6466647,36.35595,18.00421,-2.979843,1006.961
12.680495739,-18.41257,-96.54178,8.99649,-0.9820145,-0.4824913,-0.4343062,36.72906,16.52616,-7.367582,1006.961
12.713051319,-145.2822,-32.00496,4.345335,-0.9014947,-0.1902909,-0.9708247,36.34875,16.8744,-9.599364,1006.963
12.745611191,-14.29023,-21.11995,-3.365788,-0.7141417,-0.4351425,-1.202412,36.34875,16.8744,-9.599364,1006.965
12.780675888,21.27264,2.256062,4.222937,-0.9054184,-0.3155189,-0.3810782,36.35117,16.50543,-10.4889,1006.961
12.813235760,-14.90551,-4.703208,-4.467378,-1.168831,-0.2999192,-0.07992554,35.96439,17.58905,-11.38769,1006.962
12.845795631,15.11989,-18.62175,5.324526,-1.100947,-0.4139109,-0.1474694,35.96439,17.58905,-11.38769,1006.962
12.880859852,-1.30794,-16.12355,7.099308,-0.9021934,0.07584579,-0.1861101,35.96198,17.95802,-10.49815,1006.96
12.913416386,-22.53491,-5.833345,10.89367,-0.8893617,-0.1908426,-0.391276,35.59792,17.5864,-11.3865,1006.96
12.945976257,-18.22799,-2.91878,10.52647,-0.7769169,-0.3151194,-0.2086306,36.3325,17.59428,-10.9428,1006.962
12.981040478,3.30662,-3.692032,10.15928,-1.019893,-0.264616,-0.1481702,36.3325,17.59428,-10.9428,1006.958
13.013600349,20.53431,-2.205008,13.95364,-1.260413,-0.1291511,-0.2729995,35.97008,17.22524,-11.38507,1006.958
13.046160221,6.013828,1.780215,11.07727,-1.035936,-0.092503,-0.313744,35.97576,16.86143,-11.38246,1006.959
13.081224918,49.14457,2.910352,7.9561,-1.075069,-0.1577353,-0.2958498,35.97576,16.86143,-11.38246,1006.957
13.113780499,17.8271,14.80654,-1.958202,-0.8871753,-0.1998141,-0.33631,36.3536,16.13645,-11.37843,1006.959
13.146340370,49.26763,7.609347,-4.834574,-0.8579227,-0.5115318,-0.2134824,36.36496,15.40883,-11.37321,1006.954
13.178900719,94.85947,5.824918,-4.650976,-0.8424176,-0.1163981,0.04243673,36.36496,15.40883,-11.37321,1006.954
13.213965416,53.08233,-9.99701,-3.916583,-0.9597118,0.05105935,0.07459072,36.36901,15.04244,-11.81667,1006.956
13.246525288,-15.39773,0.6500768,1.713762,-0.8528922,0.04118394,0.0941554,36.0111,14.30774,-12.57495,1006.953
13.279085159,1.091631,-9.164277,5.324526,-0.8575019,-0.3109183,-0.08184396,36.0111,14.30774,-12.57495,1006.957
13.314145565,-29.30293,-28.25766,10.58767,-0.796546,-0.0571168,-0.0364603,35.64137,14.29993,-13.46591,1006.959
13.346705437,-56.37502,-39.9754,7.221707,-0.7783965,-0.219617,-0.1598012,36.02015,13.51432,-13.46144,1006.959
13.379264832,-102.8898,-12.97106,11.75046,-0.8807612,-0.07412492,-0.7012817,36.02015,13.51432,-13.46144,1006.958
13.414329529,-75.87922,-18.08642,15.11643,-0.9360018,-0.2239329,-0.3027945,36.01189,13.93618,-13.91056,1006.96
13.446889401,-72.80285,-12.49521,14.13724,-1.163274,-0.2584709,-0.2001428,35.62106,15.38619,-14.36588,1006.957
13.479449749,-23.82699,-4.643727,5.385725,-1.07857,-0.3784936,-0.3886391,35.62106,15.38619,-14.36588,1006.959
13.514510155,17.02724,1.958657,-1.16261,-0.959151,-0.2470007,-0.3195588,35.60565,16.48021,-13.92765,1006.961
13.547070027,10.25922,2.791391,0.3061755,-0.9202523,-0.1123774,-0.1019565,35.9778,16.11905,-13.92622,1006.961
13.579629898,-17.42813,3.981009,3.304946,-0.863593,-0.1129093,-0.0367634,35.9778,16.11905,-13.92622,1006.96
13.612189770,-2.046269,4.516338,0.06137791,-0.9400048,-0.2693352,-0.1637874,35.61296,16.11898,-13.47896,1006.962
13.647253990,13.64323,6.657651,-8.200541,-0.9896805,-0.09231246,-0.1175348,35.98348,15.75524,-13.92361,1006.965
13.679813862,5.337026,8.977409,-9.118531,-1.041614,-0.08479564,-0.2087282,35.98348,15.75524,-13.92361,1006.963
13.712369919,-5.061115,7.014537,-4.589777,-0.9505877,-0.07546424,-0.1830547,35.60728,16.48279,-13.48157,1006.963
13.747434139,-3.892093,2.493986,-5.446568,-0.9463355,-0.2338015,-0.1936919,35.9778,16.11905,-13.92622,1006.966
13.780045509,-2.723071,0.05526741,-5.26297,-0.9872531,-0.2732536,-0.1855535,35.9778,16.11905,-13.92622,1006.964
13.812605858,22.31861,-2.859299,-6.058562,-1.009998,-0.08336712,-0.2184045,35.98106,16.12421,-13.03408,1006.965
13.847670555,12.2281,-2.264489,-3.426988,-0.9827524,-0.1119261,-0.1661784,35.61296,16.11898,-13.47896,1006.965
13.880229950,-1.677104,-3.810994,1.040568,-0.9341902,-0.1243113,-0.08279002,35.61296,16.11898,-13.47896,1006.965
13.912786007,-5.491807,-2.859299,3.91694,-0.9353795,-0.1585947,-0.1350332,35.61864,15.75517,-13.47635,1006.966
13.947850227,-17.73577,3.564643,0.9793689,-0.8740539,-0.3315931,-0.177852,35.97943,16.12163,-13.48015,1006.968
13.980410099,7.613542,0.8285196,-1.652205,-0.9326563,-0.2394129,-0.2029748,35.97943,16.12163,-13.48015,1006.967
14.012969971,11.5513,-0.8369467,-2.631396,-0.9874703,-0.1274859,-0.1780123,36.33617,16.85448,-13.04049,1006.969
14.048034668,1.276213,-2.91878,-1.101411,-0.981891,-0.05659249,-0.1479335,35.97375,16.48544,-13.48276,1006.969
14.080594540,-10.90622,1.006962,-0.9790118,-0.9416404,-0.2105902,-0.1546722,35.97375,16.48544,-13.48276,1006.967
14.113150120,5.029388,1.066443,-3.794184,-0.9407174,-0.2033504,-0.141028,35.9697,16.85183,-13.0393,1006.97
14.145709991,2.32218,3.267238,-5.936163,-0.9322675,-0.223532,-0.1674464,35.97375,16.48544,-13.48276,1006.974
14.180774212,5.829245,2.493986,-6.486958,-0.9629938,-0.183947,-0.1962988,35.97375,16.48544,-13.48276,1006.974
14.213335037,19.30376,1.066443,-2.508997,-0.97314,-0.09349495,-0.13062,35.96807,16.84925,-13.48537,1006.974
14.245894909,3.983422,-1.312794,4.773731,-0.9332812,-0.1179971,-0.07931093,35.24081,16.48014,-13.48039,1006.971
14.280959129,-11.27539,-2.383451,10.22048,-0.9235085,-0.1388033,0.03443915,35.24081,16.48014,-13.48039,1006.973
14.313515186,-11.82914,0.3526721,9.424886,-0.9783589,-0.1973885,-0.1703867,35.59429,17.20783,-13.93287,1006.973
14.346074581,74.61694,6.836094,19.33919,-0.8726015,-0.3558148,-0.2971337,35.61296,16.11898,-13.47896,1006.97
14.381139279,123.962,-2.621375,29.74309,-0.8337664,-0.1739342,0.3199756,35.61296,16.11898,-13.47896,1006.974
14.413699150,42.06892,-12.37625,29.00869,-0.9337798,-0.1112126,0.3480982,35.9778,16.11905,-13.92622,1006.974
14.446259022,-38.409,-14.51756,10.71007,-1.121918,-0.3447407,-0.02893331,36.36384,14.22651,-16.59035,1006.97
14.481323242,86.92243,-56.15422,2.87655,-1.256776,-0.6514993,-0.0765037,36.36384,14.22651,-16.59035,1006.971
14.513879299,117.8707,-84.34818,0.7957706,-1.184385,-0.1523685,0.2375023,37.11625,12.77139,-17.47443,1006.975
14.546439171,76.64735,-68.22885,-1.591006,-1.05239,-0.1298932,-0.04940809,35.28649,11.64384,-21.41158,1006.972
14.578998566,56.34328,-77.92424,-6.180961,-1.129855,-0.04390138,-0.05043828,35.28649,11.64384,-21.41158,1006.972
14.614063263,22.31861,-68.34781,-9.791725,-0.7714529,-0.264831,0.0753902,33.83433,9.790958,-25.40841,1006.974
14.646623135,71.84821,-39.02371,-3.120991,-1.038526,-0.3449445,-0.3838155,31.63974,8.663351,-28.8983,1006.972
14.679183483,100.1508,-73.7011,-3.977782,-0.8839453,-0.04022421,-0.04723589,31.63974,8.663351,-28.8983,1006.974
14.714243889,50.62123,-50.97938,-0.4282173,-0.8325585,0.1304946,0.0713295,29.08412,7.168916,-32.4481,1006.974
14.746803760,-2.230852,-44.91232,-12.3009,-0.7693588,-0.03526519,-0.1671483,26.92119,4.22742,-35.03279,1006.974
14.779363632,7.921178,-28.25766,-11.13811,-0.2666635,-0.1402027,-0.2311067,24.68723,2.01532,-37.24015,1006.975
14.814428329,-43.70036,-0.3016182,1.591363,-1.034148,-0.3396479,-0.3605368,24.68723,2.01532,-37.24015,1006.973
14.846987724,-148.7892,20.39775,-53.1821,-3.164757,-1.024234,1.806271,23.57319,2.729836,-38.13396,1006.975
14.879547596,154.4796,7.78779,1.224167,-0.4321648,0.772028,0.3639893,24.29882,3.096356,-38.58501,1006.974
14.914608002,-75.8177,2.196581,5.691722,-0.6985748,-0.3641319,0.5286625,24.29882,3.096356,-38.58501,1006.974
14.947167873,-7.276103,5.170628,4.773731,-0.8119853,-0.2384563,0.3561903,23.9648,0.9082627,-39.01423,1006.975
14.979727745,-10.47553,3.862047,3.549744,-1.134972,-0.05106625,0.01374647,24.31181,2.371317,-38.13372,1006.975
15.012287617,-13.05968,4.575819,2.142158,-0.9763106,-0.16943,0.2041715,24.31181,2.371317,-38.13372,1006.975
15.047352314,-3.338346,10.52391,-1.285009,-0.8335707,-0.09640235,0.3709461,24.31586,2.004923,-38.57718,1006.975
15.079911709,13.52018,8.620523,-12.6681,-1.02174,-0.03960635,0.1684926,24.30613,2.735129,-38.13633,1006.975
15.112467766,7.859652,6.657651,-13.58609,-0.9503259,-0.1005631,0.2042303,24.30613,2.735129,-38.13633,1006.972
15.147531986,-1.861687,5.765438,-16.70726,-0.8485684,-0.3846652,0.2341175,25.1042,2.374469,-38.58237,1006.972
15.180091858,16.78113,1.542291,-13.58609,-1.024571,-0.1756697,0.1557852,25.09283,3.102091,-38.58759,1006.976
15.212651730,-0.3235005,2.196581,-11.44411,-0.9410264,-0.2292538,0.2080585,25.09283,3.102091,-38.58759,1006.972
15.247716427,10.81297,2.434505,-6.425758,-0.9622822,-0.1619418,0.2008886,25.08879,3.468485,-38.14413,1006.972
15.280276299,5.337026,-1.788642,-5.26297,-0.9620752,-0.2649409,0.1935164,25.45689,3.473714,-37.69925,1006.969
15.312832356,22.99541,-3.156703,-0.1834197,-0.9443823,-0.1362855,0.2742526,25.45689,3.473714,-37.69925,1006.971
15.347897053,-0.9387751,-3.097222,-4.956973,-0.959969,-0.2671074,0.248103,25.45689,3.473714,-37.69925,1006.974
15.380456925,33.82423,-0.539542,-6.976553,-0.9485258,-0.1705477,0.2089614,25.09283,3.102091,-38.58759,1006.97
15.413016796,26.31789,1.006962,-11.75011,-0.9045582,-0.07903016,0.3021568,25.09283,3.102091,-38.58759,1006.97
15.445576668,14.62767,5.705956,-12.2397,-1.006297,-0.1792339,0.2432044,25.46662,2.743511,-38.1401,1006.974
15.480640888,22.56471,2.018138,-18.66564,-0.8604343,-0.2548146,0.1819718,25.05449,1.646407,-38.57695,1006.975
15.513196945,36.6545,7.311942,-26.00957,-0.9263656,-0.2704818,0.2315842,25.05449,1.646407,-38.57695,1006.975
15.545756340,37.14672,7.906752,-35.92387,-1.034476,-0.05337203,0.2727042,25.49097,1.29085,-37.68358,1006.973
15.580821037,7.736597,10.64288,-43.94099,-1.106348,-0.155387,0.2697671,25.86881,0.5658746,-37.67955,1006.974
15.613380909,-2.846126,17.4237,-45.04258,-1.129754,-0.207895,0.2071164,25.86881,0.5658746,-37.67955,1006.974
15.645940781,0.291774,17.89955,-42.6558,-0.8627229,-0.16248,0.2834417,25.49666,0.9270396,-37.68097,1006.976
15.681005001,-21.11978,17.72111,-32.1907,-0.8658088,-0.2353512,0.2678317,25.84608,2.021118,-37.68999,1006.974
15.713561058,-31.08723,16.76941,-17.56405,-1.130223,-0.1742201,0.1752444,25.84608,2.021118,-37.68999,1006.975
15.746120930,-63.45068,10.52391,-5.018172,-1.111285,-0.2147226,0.1586567,26.56929,2.756617,-37.25152,1006.977
15.781185150,-29.61057,2.077619,13.21925,-0.9427513,-0.1451937,0.1015496,26.54657,4.211859,-37.26196,1006.977
15.813745022,-37.11692,-1.134351,28.5191,-0.8301769,-0.137709,0.1672944,26.54657,4.211859,-37.26196,1006.975
15.846304893,-72.49521,-2.502413,38.0662,-0.2990503,-0.7356977,0.0223131,26.89194,5.672331,-36.82753,1006.977
15.881369114,-13.5519,33.662,32.74186,-0.1795094,-1.118906,-0.1185108,26.8749,6.763764,-36.83536,1006.974
15.913925171,231.7581,37.23085,29.74309,-0.494763,-1.299044,-0.8416696,26.8749,6.763764,-36.83536,1006.976
15.946485043,337.4007,-11.72196,50.73448,-0.569107,0.5229299,0.1365177,27.21701,8.21907,-37.29306,1006.976
15.979044914,140.0822,16.1746,39.96338,-0.7247787,0.736329,0.4280162,29.49701,3.144184,-36.81757,1006.979
16.014109135,-178.9992,10.46443,-5.507768,-0.6157069,-0.4039485,0.9688147,29.49701,3.144184,-36.81757,1006.977
16.046669006,370.0103,-174.6997,3.488544,-2.90946,-0.7268516,-3.928088,30.36551,-5.210421,-35.42168,1006.979
16.079228878,-110.8883,100.2212,-21.35841,-1.345515,1.614821,0.5145245,32.15567,-2.281535,-34.55636,1006.978
16.114289284,-61.60485,16.47201,-9.057332,-0.5802501,-1.160193,0.1152005,32.15567,-2.281535,-34.55636,1006.978
16.146849155,50.68276,-7.617774,2.815351,-0.8549649,-0.2625611,0.1910325,30.4249,-8.90658,-34.94905,1006.979
16.179409027,-2.292379,3.088795,-3.916583,-1.117254,-0.03173799,-0.01739525,31.41705,-1.923018,-34.55659,1006.983
16.214473248,-9.491093,4.218933,-6.976553,-0.9370198,-0.1914122,0.234251,31.41705,-1.923018,-34.55659,1006.983
16.247033119,-5.307224,8.44208,-5.507768,-0.9307558,-0.251556,0.1192504,31.42678,-2.653222,-34.99744,1006.982
16.279592991,2.137598,3.624124,-0.6118155,-0.9858524,-0.2473859,0.1130833,31.41542,-1.925601,-35.00267,1006.982
16.314653397,-8.014434,3.088795,-1.040211,-0.9749706,-0.1820316,0.09425142,31.42273,-2.286829,-34.55399,1006.98
16.347213268,-1.923214,-3.692032,0.3061755,-0.9716719,-0.1656157,0.1273683,31.42273,-2.286829,-34.55399,1006.983
16.379773140,-12.50594,0.8285196,3.672142,-0.9329778,-0.2538787,0.1955907,31.41542,-1.925601,-35.00267,1006.981
16.412333012,-5.245697,1.958657,4.039338,-0.9495463,-0.1400915,0.1354704,31.41542,-1.925601,-35.00267,1006.984
16.447397232,-9.183455,-2.264489,0.3673749,-0.9618512,-0.2183756,0.1081856,32.14431,-1.553914,-34.56158,1006.984
16.479957104,-0.385028,-3.989436,0.3673749,-0.9506251,-0.1731501,0.1344837,32.14594,-1.551331,-34.11551,1006.982
16.512513161,-4.753478,-1.66968,-0.6118155,-0.9497881,-0.2056491,0.1228694,32.14594,-1.551331,-34.11551,1006.984
16.547577381,-11.70608,-1.788642,-1.897003,-0.9346488,-0.2107643,0.1155261,31.77784,-1.55656,-34.56039,1006.981
16.580137253,-2.046269,-5.238536,2.325756,-1.011232,-0.168238,0.2689959,31.41542,-1.925601,-35.00267,1006.981
16.612697125,-11.58303,1.601772,2.203357,-0.9809402,-0.2540592,0.09847544,31.40001,-0.8315854,-34.56443,1006.981
16.647761345,0.7839937,1.601772,3.978139,-0.9580176,-0.1616693,0.1535177,31.40001,-0.8315854,-34.56443,1006.983
16.680321217,-21.85811,7.014537,3.549744,-0.9688776,-0.2902643,0.07905974,31.40569,-1.195396,-34.56182,1006.98
16.712877273,1.460796,4.278414,4.161737,-0.9693363,-0.06040362,0.1893933,31.04085,-1.19546,-34.11456,1006.98
16.747941494,-18.53563,5.111147,-1.223809,-0.9346631,-0.2587197,0.08047473,31.04085,-1.19546,-34.11456,1006.978
16.780501366,0.5994113,6.241285,0.1225773,-0.953114,-0.2063202,0.1537985,31.76406,-0.4599614,-33.67609,1006.98
16.813061237,15.366,6.598171,-1.529806,-0.9638652,-0.1717254,0.1040655,32.12485,-0.09350443,-33.67989,1006.98
16.845621109,7.552014,6.479209,-1.407408,-0.970724,-0.196415,0.1694347,32.12485,-0.09350443,-33.67989,1006.981
16.880685329,4.906333,7.78779,0.7957706,-0.9531956,-0.2104516,0.1005641,32.13295,-0.826292,-34.56681,1006.979
16.913241386,19.11918,6.003361,3.366145,-0.9509509,-0.1886704,0.1265132,32.14026,-1.18752,-34.11813,1006.976
16.945801258,16.10433,9.512737,3.91694,-0.9728858,-0.1870125,0.1265597,32.14026,-1.18752,-34.11813,1006.976
16.980865479,11.79741,11.29717,4.590133,-0.9310661,-0.1844591,0.1125403,32.87321,-1.182226,-34.1205,1006.976
17.013425350,6.998267,9.6317,4.712532,-0.9583945,-0.1386272,0.1089155,32.88028,-1.543823,-33.73554,1006.98
17.045985222,12.9049,9.810143,9.180088,-0.9970334,-0.1668231,0.1065892,32.88028,-1.543823,-33.73554,1006.976
17.081049919,3.368147,8.977409,11.01607,-0.9843729,-0.1742678,0.0702101,32.90059,-2.630089,-32.83557,1006.977
17.113605499,-4.138203,9.215333,11.44447,-0.9873312,-0.2169887,0.05119286,33.63213,-2.627009,-33.22029,1006.973
17.146165371,1.829961,8.204157,11.07727,-0.9623616,-0.1361693,0.0915553,33.63213,-2.627009,-33.22029,1006.973
17.181229591,-8.506653,7.490385,7.650103,-0.9833069,-0.1103268,0.01366273,33.27032,-2.622276,-31.94461,1006.973
17.213789463,-13.5519,6.062842,8.0173,-0.9815913,-0.1563763,0.09803285,33.64489,-3.352417,-32.83272,1006.977
17.246349335,-6.230136,8.263638,9.853281,-0.9651709,-0.1901013,0.08010092,33.64489,-3.352417,-32.83272,1006.972
17.278909206,2.8144,6.419728,10.40408,-0.9730127,-0.1060378,0.06157254,34.02436,-4.074809,-32.38261,1006.972
17.313969612,-4.076675,6.419728,10.95487,-0.9733037,-0.1700784,0.03594358,34.01136,-3.349771,-32.83391,1006.972
17.346529484,-6.107081,4.099971,11.19967,-0.9735448,-0.1444307,0.05953718,34.01136,-3.349771,-32.83391,1006.972
17.379089356,-20.68909,2.375024,11.68926,-0.9564041,-0.07933912,0.009759136,34.38351,-3.710934,-32.83249,1006.97
17.414153576,-25.4267,0.1147483,11.81166,-0.9973889,-0.1756308,0.1185396,34.75427,-4.074312,-33.21341,1006.972
17.446713448,-2.292379,1.185405,13.09685,-0.9752233,-0.07894899,0.08325653,34.75427,-4.074312,-33.21341,1006.972
17.479273319,-5.430279,1.185405,12.60725,-0.9950089,-0.1085487,0.01660142,34.74998,-3.708287,-32.83368,1006.972
17.514333725,-2.169324,-0.004213529,12.42366,-0.9866242,-0.1076843,0.06397744,34.39511,-4.438187,-32.76354,1006.969
17.546893597,-2.661544,-1.372275,13.64764,-0.9856,-0.1110928,0.06827484,34.39511,-4.438187,-32.76354,1006.969
17.579453468,10.38228,-0.8964276,13.77004,-0.9699541,-0.03882385,0.03890956,34.39511,-4.438187,-32.76354,1006.973
17.614518166,0.291774,2.1371,13.21925,-0.9932253,-0.04407125,0.05722029,34.39511,-4.438187,-32.76354,1006.97
17.647078037,-15.45926,0.8880005,12.05646,-1.001629,-0.05156036,-0.02941031,34.39511,-4.438187,-32.76354,1006.972
17.679637432,-13.36732,-1.07487,11.56686,-1.012217,-0.1231588,0.08020087,34.41355,-5.527405,-32.37336,1006.972
17.712193489,-3.461401,-0.2421373,13.77004,-0.9688489,-0.04333158,0.07122597,34.04545,-5.532635,-32.81824,1006.969
17.747257709,0.9685761,1.720734,13.28045,-1.049842,-0.07733053,0.04806674,34.04545,-5.532635,-32.81824,1006.969
17.779817581,45.45293,-16.53992,12.48486,0.002843117,-0.3411742,0.4838651,34.0414,-5.166241,-32.37478,1006.971
17.812377453,-15.88995,-4.048917,8.262097,-1.02474,-0.007691385,0.08922523,33.67898,-5.535282,-32.81705,1006.969
17.847442150,15.79669,-8.153101,8.262097,-1.040313,-0.0231316,0.02036518,33.67898,-5.535282,-32.81705,1006.969
17.880002022,-8.014434,-8.03414,7.344106,-1.022285,0.03933265,0.1223265,33.69197,-6.26032,-32.36576,1006.97
17.912557602,-4.999587,-8.68843,7.038109,-0.9997494,-0.0665735,0.07041784,32.6146,-7.786721,-32.79739,1006.972
17.947621346,18.38085,-11.48403,7.160508,-1.024823,-0.004210904,0.07187684,32.6146,-7.786721,-32.79739,1006.97
17.980181217,21.21111,-17.37265,8.445695,-0.9748749,0.1517047,0.1288289,32.60821,-7.361907,-32.73671,1006.97
18.012741089,-24.87296,-18.26486,7.282907,-1.047876,0.002453812,0.03671426,31.88026,-7.794229,-33.17736,1006.97
18.047805309,-26.16503,-24.45088,2.754151,-1.040517,-0.09589222,-0.01119742,31.88026,-7.794229,-33.17736,1006.971
18.080365181,-19.88923,-25.81894,-0.4282173,-1.03847,-0.1967662,-0.05285865,31.153,-8.163333,-33.17237,1006.969
18.112921238,25.02581,-35.57381,-6.425758,-0.9925429,-0.08151968,-0.0414772,30.41438,-7.804816,-33.1726,1006.971
18.145481110,-5.368752,-36.10914,-8.078142,-0.9924046,-0.01096156,0.1524665,30.41438,-7.804816,-33.1726,1006.971
18.180545330,-4.138203,-32.42133,-7.588547,-0.9879171,-0.1597965,0.08396885,29.30671,-7.390893,-33.61816,1006.971
18.213105202,31.42467,-34.74108,-9.852924,-0.9688438,-0.08371235,0.08027744,27.8392,-7.404063,-34.05947,1006.97
18.245665073,19.98056,-22.66645,-16.03406,-0.9247513,-0.0651361,0.07616789,27.8392,-7.404063,-34.05947,1006.972
18.280729294,-9.183455,-10.11597,-15.78927,-0.8892639,-0.1329411,0.1253704,26.37658,-7.409484,-33.16257,1006.974
18.313285351,45.51445,-5.119575,-13.46369,-0.8915027,-0.3732374,0.05741737,26.3796,-7.404687,-32.33415,1006.969
18.345845223,100.4585,-4.88165,-11.32171,-0.693232,0.03005459,0.007307058,26.74771,-7.399457,-31.88927,1006.969
18.380909443,27.97913,20.63567,-1.285009,-0.6996033,0.3720435,0.02558189,26.74771,-7.399457,-31.88927,1006.971
18.413469315,-33.60986,61.14219,-5.446568,-0.8968692,0.1306143,-0.1379088,27.12396,-7.381312,-29.21403,1006.973
18.446029186,-31.27181,70.36174,-4.589777,-0.9207715,0.0159241,-0.1019321,28.97757,-8.51498,-28.31956,1006.97
18.481093884,-9.675674,71.25395,1.101768,-0.9581032,0.07025278,0.02702769,28.97757,-8.51498,-28.31956,1006.97
18.513649464,-27.14947,76.7262,0.6121725,-1.00957,0.1414894,0.03203119,31.16251,-6.967724,-25.66114,1006.97
18.546209335,-58.65153,81.7226,0.9793689,-1.053492,0.05321716,-0.02679498,33.713,-5.481408,-23.51327,1006.968
18.581273079,-59.75903,70.30225,6.609713,-1.0446,-0.1003004,0.09073178,33.713,-5.481408,-23.51327,1006.968
18.613832951,-67.3269,68.45835,11.19967,-1.120379,0.04178517,0.05043547,35.5251,-3.636205,-21.30191,1006.971
18.646392822,-57.72862,56.7406,3.366145,-1.008759,-0.1630993,0.1090742,37.71909,-2.88237,-19.52998,1006.969
18.678952694,-10.47553,34.07837,-1.101411,-1.087433,0.001728974,0.1885217,37.71909,-2.88237,-19.52998,1006.969
18.714013100,-64.74275,13.14108,-5.32417,-0.9376214,0.03020382,0.4464514,38.81101,-1.767869,-16.92867,1006.969
18.746572971,-58.77459,-20.46566,-12.6681,-1.145815,0.06454857,0.3137643,38.80454,-1.032499,-15.59567,1006.972
18.779227257,-75.94075,-25.10517,-14.68768,-1.151822,-0.1499825,0.02143779,38.80454,-1.032499,-15.59567,1006.97
18.814291000,-4.93806,-61.98336,-20.99121,-1.118356,-0.03288687,0.1242177,39.52122,-0.307333,-16.94149,1006.972
18.846850872,-39.70108,-20.9415,-24.41838,-0.8361285,-0.2943729,-0.02554046,38.76392,1.140033,-17.39563,1006.973
18.879410744,-6.783884,-20.6441,-15.29967,-1.047997,-0.1023243,-0.1137642,38.76392,1.140033,-17.39563,1006.973
18.914471149,-12.75205,-6.07127,-16.89086,-0.968167,0.02850093,0.09455655,38.36174,3.317668,-17.85618,1006.975
18.947031021,-21.18131,7.19298,-19.82843,-0.9493523,-0.02128907,-0.01691452,37.61845,3.668805,-19.1309,1006.973
18.979590893,-28.44155,8.204157,-17.19685,-0.9771178,-0.1708092,-0.1337292,37.61845,3.668805,-19.1309,1006.974
19.014655113,-23.3963,5.765438,-14.44288,-0.9638199,-0.1709125,-0.07332148,37.96928,4.765099,-18.75758,1006.972
19.047214985,-22.59644,6.717133,-16.27886,-0.9908665,-0.07576689,-0.1254986,38.32765,5.500533,-17.87185,1006.972
19.079774857,-12.25983,-2.145527,-13.95328,-1.004089,-0.09667372,-0.0552318,38.32765,5.500533,-17.87185,1006.972
19.112330914,-11.45997,-11.66248,-15.17727,-0.9575604,-0.04387872,-0.09555828,38.3033,6.953192,-18.32836,1006.972
19.147395134,-22.84255,-7.320369,-16.58486,-0.9988031,-0.140175,-0.09263721,37.56467,7.311709,-18.3286,1006.975
19.179955006,12.9049,-10.05649,-15.78927,-0.9880575,-0.1833206,-0.08605517,37.56467,7.311709,-18.3286,1006.973
19.212514877,8.782562,-9.521163,-15.42207,-0.9565066,-0.1698828,-0.06509542,37.18684,8.036684,-18.33263,1006.973
19.247578621,-7.029993,-8.391026,-17.56405,-0.9872165,-0.1265227,-0.06923802,37.54763,8.403141,-18.33643,1006.974
19.280138493,1.153159,-13.1495,-12.2397,-1.007879,-0.1871713,-0.04452439,37.54763,8.403141,-18.33643,1006.972
19.312694073,10.32075,-14.93393,-7.833344,-0.9895915,-0.1679861,-0.04279921,37.53161,9.123383,-19.61614,1006.975
19.347758770,13.21254,-14.93393,-4.895773,-0.9798386,-0.2134882,-0.05510386,36.79298,9.481901,-19.61638,1006.975
19.380318642,21.33417,-16.42095,-4.712175,-0.9557698,-0.1860279,-0.03972347,36.79298,9.481901,-19.61638,1006.975
19.412878513,15.24295,-15.88562,-5.507768,-0.9714516,-0.1675004,0.008912015,36.42488,9.476671,-20.06126,1006.973
19.447942734,7.675069,-15.17185,-5.079372,-0.9798377,-0.1626548,-0.01179117,36.42325,9.474087,-20.50733,1006.977
19.480502606,9.397837,-15.17185,-4.100182,-0.9968826,-0.2013427,0.003586483,36.42325,9.474087,-20.50733,1006.977
19.513058186,14.07392,-16.48043,-4.467378,-0.9628894,-0.1950212,-0.006500797,35.32057,9.460981,-21.39591,1006.974
19.545618057,16.41197,-18.50278,-4.344979,-0.9987884,-0.201445,0.02050495,35.31894,9.458399,-21.84198,1006.974
19.580682755,18.44238,-20.6441,-3.671785,-0.998742,-0.2053345,0.02092894,35.31894,9.458399,-21.84198,1006.974
19.613242626,23.4261,-22.30957,-3.855383,-0.9874832,-0.2081501,0.03102603,34.94921,9.450586,-22.73294,1006.976
19.645801544,32.90133,-26.17583,-4.467378,-1.007259,-0.1736164,0.07507589,34.59247,8.717735,-23.1726,1006.973
19.680866241,25.02581,-27.00856,-4.956973,-0.997649,-0.2041124,0.07556812,34.59247,8.717735,-23.1726,1006.975
19.713421822,32.16299,-29.56624,-2.264199,-1.038746,-0.1924014,0.05451787,34.24141,7.621073,-23.60965,1006.978
19.745981693,35.85464,-34.6816,-1.040211,-1.003116,-0.1384021,0.144732,33.49222,8.335651,-24.95071,1006.978
19.781046390,34.62409,-39.49956,2.080958,-1.110812,-0.1881126,0.08027183,33.49222,8.335651,-24.95071,1006.974
19.813605785,25.64109,-51.27678,1.468964,-1.207736,-0.1945674,0.04643053,33.14218,6.867799,-26.65964,1006.976
19.846165657,18.38085,-57.1654,-4.467378,-1.109983,-0.1711898,0.1017978,31.67303,6.852046,-27.54703,1006.978
19.881230354,47.91402,-66.44442,-0.856613,-1.112462,-0.02053745,0.2036742,31.67303,6.852046,-27.54703,1006.979
19.913785934,24.53359,-73.87954,-0.6118155,-1.023908,0.03062925,0.2140369,30.21199,6.103506,-29.32134,1006.979
19.946345806,4.906333,-77.26995,-2.325398,-0.8920183,-0.03684637,0.2534838,28.75663,4.991154,-31.09304,1006.977
19.978905678,-31.0257,-75.06916,-3.426988,-0.8203697,-0.1438344,0.365376,28.75663,4.991154,-31.09304,1006.979
20.013969421,-29.30293,-70.90549,-11.8725,-0.9242664,-0.3552811,0.2882937,26.19477,4.23246,-33.24613,1006.98
20.046529293,-11.95219,-73.87954,-21.41961,-1.02309,-0.3575682,0.2941547,23.91294,5.299821,-34.58485,1006.976
20.079089165,13.5817,-77.56736,-28.45754,-1.081719,-0.3422776,0.2905776,23.91294,5.299821,-34.58485,1006.976
20.114149570,32.8398,-80.30348,-31.70111,-1.001234,-0.3353578,0.1760451,22.42675,6.375501,-35.48007,1006.975
20.146709442,60.4041,-76.97255,-33.4147,-0.8171927,-0.3281578,0.1890285,19.84925,6.710453,-37.25864,1006.976
20.179269314,73.81709,-19.33552,-33.4147,-0.4310629,-0.2842579,-0.232179,16.55609,5.949048,-38.96329,1006.972
20.214333534,133.068,33.42407,-7.833344,-0.5192201,0.04468073,-0.46248,16.55609,5.949048,-38.96329,1006.972
20.246893406,70.4946,66.01963,4.773731,-0.5163066,0.3345797,-0.08054274,14.73914,4.841797,-39.39558,1006.972
20.279453278,-7.706795,107.1804,11.99526,-0.7054484,0.08937013,0.07396304,16.63562,0.8556972,-38.92673,1006.974
20.314513207,-5.922499,174.2155,20.74677,-0.7841144,-0.05088193,-0.3012677,16.63562,0.8556972,-38.92673,1006.972
20.347073078,-11.89066,193.7847,15.97322,-1.028561,-0.1889201,-0.1460402,19.22588,-0.2046623,-36.76059,1006.972
20.379632950,14.62767,202.112,18.5436,-1.237072,0.009980798,-0.02292702,23.63495,-0.1548209,-33.65235,1006.973
20.412192345,13.21254,201.0414,21.72596,-1.433514,-0.001187803,0.05249897,23.63495,-0.1548209,-33.65235,1006.973
20.447257042,-23.08866,204.3128,20.50198,-1.503214,0.08352479,0.03452358,29.20753,-0.09180021,-29.71945,1006.973
20.479816914,-38.47053,190.2753,8.629293,-1.447028,0.06488898,0.01871698,34.37287,-1.118134,-24.8852,1006.973
20.512372494,-71.44924,132.9357,12.54605,-1.471092,0.07029343,0.3620202,34.37287,-1.118134,-24.8852,1006.97
20.547437191,-119.9329,115.9241,13.77004,-1.265661,-0.1962033,0.4510479,40.25192,-0.6783962,-19.10789,1006.97
20.579997063,-108.4888,61.97492,-0.6118155,-1.289107,-0.6057416,0.664759,43.5565,0.10109,-14.28075,1006.97
20.612555981,-22.10422,-14.27964,-8.200541,-1.047067,-0.07294238,1.008118,43.5565,0.10109,-14.28075,1006.972
20.647620678,25.33345,-15.6477,-35.12828,-0.772785,-0.4142053,0.2142586,46.10839,1.589621,-11.75053,1006.976
20.680180550,58.98896,-8.331544,-73.74509,-1.942112,-0.1430609,-1.08656,47.19202,2.318171,-12.97008,1006.976
20.712736130,49.69832,-61.38855,-53.6105,0.3545339,0.1040411,-0.9612627,47.19202,2.318171,-12.97008,1006.975
20.747800827,-8.137488,-39.26163,-9.914124,-1.066929,-0.3458591,-0.05268891,46.7711,4.838953,-17.00182,1006.975
20.780360222,3.798839,-9.164277,-13.21889,-0.9748673,0.0585821,0.08680454,44.18084,5.899311,-19.16797,1006.975
20.812920093,-28.38002,5.468033,-13.34129,-0.9398685,-0.1546525,-0.159621,44.18084,5.899311,-19.16797,1006.977
20.845479965,-8.752763,4.099971,-12.7293,-0.9361654,-0.2084146,-0.2957903,43.80138,6.621704,-19.61807,1006.973
20.880543709,-10.96775,-5.714384,-20.50162,-0.9397765,-0.08501636,-0.1890114,43.41949,7.71307,-19.17865,1006.973
20.913099766,-19.70465,-12.8521,-20.19562,-1.05583,-0.09997217,-0.1190379,43.41949,7.71307,-19.17865,1006.974
20.945659637,-2.415434,-16.30199,-21.78681,-0.9785408,-0.1913488,-0.2162152,43.42112,7.715654,-18.73257,1006.974
20.980723858,-13.5519,-18.91915,-13.15769,-1.011575,-0.2028063,-0.03702532,43.40082,8.801922,-19.63255,1006.976
21.013283730,7.428959,-22.07164,-11.38291,-0.9991491,-0.1072013,-0.07714914,43.40082,8.801922,-19.63255,1006.978
21.045843601,-19.1509,-24.09399,-8.812534,-0.9883869,-0.206444,-0.1318451,42.64594,9.880308,-20.97622,1006.975
21.080908299,4.844806,-29.14987,-13.46369,-0.948414,-0.1936369,-0.05531471,42.26811,10.60529,-20.98026,1006.977
21.113463402,12.16657,-29.09039,-9.179731,-1.000714,-0.1758825,-0.04822609,42.26811,10.60529,-20.98026,1006.977
21.146022797,7.675069,-27.54389,-8.445338,-0.9583028,-0.1611484,0.0389656,41.53027,10.59224,-22.31609,1006.979
21.181087494,10.38228,-23.73711,-5.936163,-0.9879991,-0.2142864,-0.01015412,40.77866,11.6758,-22.76762,1006.976
21.213647366,19.05765,-25.99738,-6.792955,-0.9907249,-0.1909572,-0.01801297,40.77866,11.6758,-22.76762,1006.976
21.246207237,17.21183,-27.06804,-8.812534,-0.9907181,-0.2351461,-0.02642117,41.15159,10.94308,-24.10181,1006.978
21.281271458,32.16299,-29.6852,-8.628937,-0.9792977,-0.1489526,0.07542518,39.31761,10.92726,-24.54193,1006.978
21.313827515,24.84123,-33.72991,-8.016942,-1.049238,-0.165891,0.07281739,39.31761,10.92726,-24.54193,1006.975
21.346386433,19.36529,-36.8824,-8.322939,-1.07681,-0.2825257,-0.007725841,39.31132,10.91729,-26.2625,1006.977
21.378946304,47.11417,-43.7227,-8.873734,-1.041105,-0.1911446,0.09175934,38.94564,10.54309,-27.59691,1006.977
21.414011002,38.13116,-50.86042,-4.650976,-1.108985,-0.172648,0.1046748,38.94564,10.54309,-27.59691,1006.978
21.446570397,34.25493,-63.17297,0.3061755,-1.363144,-0.1912282,0.04228108,37.11407,10.15829,-28.92657,1006.978
21.479130268,30.13259,-80.77933,-4.22258,-1.411769,-0.07420573,0.03347905,36.38923,9.420214,-29.81112,1006.974
21.514190674,26.68705,-103.8579,-13.28009,-1.292371,0.08961189,0.04843087,36.38923,9.420214,-29.81112,1006.976
21.546750546,12.65879,-121.3453,-23.74519,-1.192087,-0.04441504,-0.00929902,34.56437,8.300419,-32.41005,1006.976
21.579310417,30.93245,-125.39,-36.10747,-1.12853,-0.1053525,-0.0001391361,31.2604,7.894707,-35.51924,1006.975
21.614374161,41.08448,-130.7433,-37.69865,-1.073836,-0.2212293,0.3064346,31.2604,7.894707,-35.51924,1006.977
21.646934032,55.60495,-114.505,-35.31187,-0.9773769,-0.583508,-0.01289709,27.22269,7.85526,-37.29045,1006.977
21.679493904,104.7654,-104.0364,-30.10992,-0.6979747,-0.260451,0.07103571,22.76578,7.080307,-39.88348,1006.974
21.714554310,30.07106,-28.85247,-30.04873,-0.2452698,-0.3316795,0.03905933,22.76578,7.080307,-39.88348,1006.976
21.747114181,53.69761,71.78928,-4.589777,-0.1936927,-0.08031163,-0.5782947,18.38433,5.582971,-41.64305,1006.972
21.779674053,58.49675,91.89384,11.38327,-0.3010637,0.1915151,-0.1723578,16.23827,2.295376,-41.16635,1006.97
21.812232971,15.73516,149.2929,17.9928,-0.4926887,0.04708095,0.04410989,16.23827,2.295376,-41.16635,1006.97
21.847297668,-12.93663,209.0118,22.15436,-0.7889206,0.2045409,-0.05422768,18.45661,1.596551,-38.9379,1006.972
21.879857540,-42.28523,197.4725,25.94872,-1.288297,0.08743334,0.1112327,21.78634,0.5518174,-34.98984,1006.97
21.912413120,1.276213,206.0972,38.3722,-1.32387,-0.102474,0.1948942,21.78634,0.5518174,-34.98984,1006.968
21.947477818,2.260653,205.324,36.23022,-1.370114,0.08548996,0.3026993,27.72866,0.6226506,-30.16599,1006.968
21.980037689,-40.93163,193.0114,40.88137,-1.412567,0.02522786,0.1809766,32.15295,0.323812,-24.44244,1006.968
22.012596607,-38.77816,169.7544,41.06497,-1.458616,-0.1600748,0.1844779,36.22945,-1.066524,-18.26378,1006.969
22.047661304,-27.27253,141.9173,32.37466,-1.383368,-0.2246725,0.1771359,36.22945,-1.066524,-18.26378,1006.969
22.080221176,-22.71949,106.7641,18.36,-1.27419,-0.2509685,0.2868392,38.82732,-1.742039,-12.46795,1006.967
22.112776756,-17.92035,63.2835,1.346565,-1.268016,-0.230625,0.3195299,39.94094,-1.71159,-8.584317,1006.969
22.147841454,-9.79873,9.393776,-9.30213,-1.024426,-0.1373543,0.5981761,39.94094,-1.71159,-8.584317,1006.969
22.212960243,-60.18972,-50.74146,-25.64237,-1.044371,-0.0745599,0.3076771,39.95883,-2.42888,-6.794807,1006.97
22.245520115,-75.07936,5.586995,-42.9006,-1.623613,-0.1251281,-0.8057522,39.95883,-2.42888,-6.794807,1006.968
22.280584335,-100.4902,-50.86042,-57.52726,-0.8378911,-0.08241545,0.06373602,38.84316,-1.716947,-8.134679,1006.97
22.313140392,-41.66996,-80.5414,-49.51014,-0.8082756,-0.1274704,0.01033198,38.44092,-0.2850151,-11.71251,1006.97
22.345700264,-45.11549,-42.35464,-25.94837,-0.8613764,-0.4563785,-0.168167,38.44092,-0.2850151,-11.71251,1006.973
22.380764484,32.8398,-31.2317,-16.09526,-0.9962335,0.04202355,0.03340109,37.28269,2.969164,-13.83535,1006.971
22.413323879,-3.399873,-10.17545,-27.78435,-0.923497,0.05637467,-0.02783903,36.89591,4.052783,-14.73414,1006.972
22.445883751,-45.17702,-4.82217,-31.27271,-0.9501544,-0.1047924,-0.1453158,36.89591,4.052783,-14.73414,1006.974
22.480947971,-28.93377,-11.36507,-25.82597,-0.9796507,-0.1896305,-0.06392422,36.52376,4.413947,-14.73557,1006.974
22.513504028,-42.71592,-9.699606,-19.33883,-0.9703255,-0.1174618,-0.08941791,36.12483,6.596749,-14.30397,1006.97
22.546063423,-24.25768,-10.82974,-15.48327,-0.9611383,-0.2616425,-0.2057034,36.12483,6.596749,-14.30397,1006.97
22.581128121,-14.78245,-21.59579,-11.07691,-0.9865171,-0.2015199,-0.1404725,35.38863,6.586289,-15.19374,1006.974
22.613687039,-7.645268,-29.20935,-10.70972,-1.003439,-0.1644461,-0.1123381,35.73642,7.677784,-15.64883,1006.969
22.646246910,0.5994113,-30.6369,-13.15769,-0.9805563,-0.1479696,-0.03670203,35.73642,7.677784,-15.64883,1006.969
22.678806782,3.798839,-27.66285,-10.83211,-0.9685214,-0.2154594,-0.01695809,34.6167,8.756111,-16.54524,1006.971
22.713867187,8.967145,-24.56984,-10.34252,-0.995824,-0.1691987,-0.00800856,34.61181,8.748362,-17.88346,1006.974
22.746427059,8.59798,-24.15347,-10.28132,-0.9770616,-0.1970149,-0.03600352,34.61181,8.748362,-17.88346,1006.972
22.778986931,12.04352,-24.09399,-10.77092,-0.9751627,-0.2353695,-0.03949077,34.24371,8.743132,-18.32834,1006.974
22.814050674,24.90276,-22.66645,-10.15892,-0.9999066,-0.278132,-0.005316154,33.50509,9.101648,-18.32858,1006.975
22.846610546,48.77541,-21.47683,-8.751335,-1.037849,-0.1912982,0.02843148,33.50509,9.101648,-18.32858,1006.975
22.879170418,48.40624,-25.46206,-12.4233,-0.9678796,-0.2480773,-0.1092979,33.12664,9.45285,-20.05056,1006.977
22.914230823,33.70118,-32.1834,-11.07691,-1.022697,-0.1978623,0.01913255,32.4018,8.714769,-20.9351,1006.975
22.946790695,31.97841,-39.32111,-11.56651,-1.003016,-0.1590347,0.08689531,32.4018,8.714769,-20.9351,1006.976
22.979349613,42.00739,-44.43647,-7.466148,-1.062598,-0.1827392,0.1054429,32.40259,8.34321,-22.27071,1006.974
23.014414310,50.80581,-54.78616,-5.079372,-1.076947,-0.1634848,0.1052671,31.30397,7.96371,-23.60275,1006.974
23.046974182,30.74787,-61.15062,-1.285009,-1.196681,-0.1637187,0.1338983,31.30397,7.96371,-23.60275,1006.976
23.079534054,31.85536,-67.09871,-3.426988,-1.290569,-0.281527,0.01473104,30.57042,7.584642,-25.31832,1006.977
23.112089634,44.53001,-83.93182,-3.549387,-1.17467,0.07956849,0.1356552,29.46853,7.199975,-27.5425,1006.975
23.147153378,5.460081,-98.74257,-7.955743,-1.165953,-0.05989351,0.04892821,29.46853,7.199975,-27.5425,1006.975
23.179713249,11.30519,-113.1964,-22.5212,-1.116549,-0.2553893,0.002877429,27.63776,6.443623,-30.20777,1006.975
23.212273121,7.798124,-134.7285,-42.10501,-1.246457,-0.3203123,0.5438778,25.00751,6.045716,-32.80935,1006.971
23.247337818,31.60925,-132.1114,-52.9373,-1.394091,-0.3170077,-0.06740103,25.00751,6.045716,-32.80935,1006.971
23.279897213,94.98253,-129.6727,-54.89568,-1.111383,-0.247893,-0.2396684,21.69544,6.37279,-35.03162,1006.972
23.312452793,129.561,-97.79088,-37.27026,-0.7544985,-0.2577884,0.07161426,17.6488,6.691988,-37.69759,1006.968
23.347517014,64.64949,-37.35824,-36.65826,-0.151253,-0.1414493,0.1573979,17.6488,6.691988,-37.69759,1006.968
23.380076885,75.6629,78.80803,-8.506537,-0.151566,-0.1248733,-0.491524,13.28868,3.737195,-39.82907,1006.968
23.412636757,83.41537,100.5186,25.09193,-0.1673746,0.3922479,-0.1119026,10.7591,1.538387,-39.35901,1006.966
23.447700977,-34.28666,163.3899,29.00869,-0.3861709,0.2292068,0.05741995,10.7591,1.538387,-39.35901,1006.968
23.480260372,-102.5206,244.9383,40.63658,-0.5773348,0.1003548,-0.2619399,13.00561,-0.9798617,-37.18123,1006.968
23.512815952,-92.49163,238.5144,42.59496,-1.205528,-0.03025777,-0.06127476,16.68416,-1.30429,-34.96014,1006.968
23.547880650,-66.71163,242.6185,72.21546,-1.443397,-0.2275864,0.1118935,16.68416,-1.30429,-34.96014,1006.967
23.580440521,-30.59501,244.5814,63.70875,-1.593086,-0.05241454,0.2776084,23.64045,0.2267022,-30.59618,1006.969
23.613000393,-77.90963,221.5028,62.17876,-1.665822,0.1840235,0.3378409,29.19543,1.753084,-25.27179,1006.971
23.645559311,-119.9944,174.4534,61.38317,-1.696988,-0.2723007,0.5576129,29.19543,1.753084,-25.27179,1006.971
23.680624008,-101.6592,135.3744,38.98419,-1.416212,-0.7708201,0.4786799,32.1993,-1.466829,-19.52259,1006.968
23.713179588,-34.04055,39.49113,1.224167,-1.297257,-0.7518739,0.8191514,35.13415,-0.6951561,-15.5864,1006.968
23.745739460,-13.67496,-38.30994,-17.25805,-1.17242,-0.3715937,0.7030216,35.13415,-0.6951561,-15.5864,1006.97
23.780803680,-13.12121,-82.32584,-37.51505,-0.9557124,-0.1290594,0.2560055,36.98602,-1.396629,-13.35676,1006.972
23.813363075,-10.414,-183.0271,-26.25436,-1.87258,1.080617,0.515584,36.96246,-0.3155284,-15.14888,1006.973
23.845922947,-374.9026,-63.88675,-52.7537,-1.665198,-1.513251,0.6807626,35.83318,0.7476687,-18.658,1006.973
23.880987167,-48.68409,-36.16862,-26.07076,-0.6197959,-0.2623576,-0.03299486,35.83318,0.7476687,-18.658,1006.973
23.913543224,29.51732,-20.6441,-12.6681,-0.9322563,-0.0829377,-0.09086145,34.6656,5.105458,-18.68577,1006.976
23.946102142,11.73588,1.304367,-21.60321,-0.996533,0.1708193,-0.07387683,33.8953,7.277862,-19.5912,1006.98
23.981166840,-12.75205,11.71353,-26.00957,-0.9342354,-0.05727851,-0.1808596,33.8953,7.277862,-19.5912,1006.98
24.013726711,-17.92035,-0.1231754,-29.13073,-0.9765851,-0.2056062,-0.2812071,33.17373,6.544948,-19.5836,1006.979
24.046286106,-14.59787,-5.238536,-32.4355,-0.976563,0.02855272,-0.1529235,33.51179,8.366648,-19.59784,1006.979
24.078845978,-48.31492,-9.34272,-29.31433,-1.000411,-0.1731631,-0.1105405,33.51179,8.366648,-19.59784,1006.982
24.113905907,1.337741,-23.20178,-14.44288,-1.020124,-0.2518285,-0.1818113,33.12991,9.458015,-19.15842,1006.982
24.146465778,15.05836,-25.40257,-9.852924,-0.96948,-0.02030068,-0.0777855,33.11123,10.54687,-19.61232,1006.983
24.179025650,-2.169324,-21.00098,-9.485728,-0.963798,-0.1752329,-0.08498845,33.11123,10.54687,-19.61232,1006.987
24.214089871,4.721751,-21.95268,-9.363329,-0.951677,-0.1759295,-0.1106298,32.00124,10.89499,-20.94958,1006.987
24.246649265,12.96643,-23.85607,-9.424528,-0.9710521,-0.1758954,-0.06710661,31.99556,11.2588,-20.95219,1006.984
24.279209137,18.75001,-22.54749,-7.037753,-0.9869052,-0.09432961,0.01246014,31.99556,11.2588,-20.95219,1006.988
24.314269543,4.660223,-19.93033,-6.854154,-0.9728784,-0.1899353,-0.08423723,31.61852,11.61221,-22.29183,1006.987
24.346829414,14.87378,-22.72593,-5.752565,-0.988007,-0.1819859,-0.05896576,31.26178,10.87936,-22.73149,1006.991
24.379389286,19.05765,-24.62932,-5.079372,-0.9803292,-0.1593235,0.002278058,31.26178,10.87936,-22.73149,1006.991
24.414453030,18.81154,-26.53271,-3.977782,-0.9929519,-0.1633627,-0.0006716427,30.53126,10.50509,-23.61865,1006.994
24.447012901,25.39498,-28.91195,-2.019402,-1.015179,-0.2252683,-0.02431336,30.15747,10.86367,-24.06614,1006.99
24.479572296,39.60781,-33.1351,-1.897003,-1.018632,-0.1729688,0.007423995,30.15747,10.86367,-24.06614,1006.989
24.512132168,37.94658,-36.70395,-1.101411,-1.039905,-0.2310206,-0.00600893,29.42392,10.48461,-25.78172,1006.991
24.547192097,36.03922,-38.96423,-7.649746,-1.127045,-0.3647284,-0.03020005,28.69341,10.11033,-26.66887,1006.991
24.579751969,49.82137,-55.32149,0.4285743,-1.386739,-0.1763841,0.02367862,28.69341,10.11033,-26.66887,1006.989
24.612311840,66.74142,-68.7047,-8.384139,-1.28218,0.006211094,0.03506422,27.61345,8.641985,-27.547,1006.986
24.647376060,49.45221,-86.84638,-13.03529,-1.236077,0.06269144,0.03781492,26.88209,7.893572,-30.21584,1006.988
24.679935455,43.42252,-103.9174,-25.58117,-1.187174,0.01020872,0.06935327,26.88209,7.893572,-30.21584,1006.986
24.712495327,50.49818,-117.9549,-28.45754,-1.035077,0.05510367,0.1443314,25.37156,6.417338,-31.921,1006.986
24.747555733,16.28891,-117.836,-16.89086,-0.873062,-0.02845035,0.2782458,22.79485,6.38073,-35.03519,1006.987
24.780115604,-9.183455,-73.04681,-6.792955,-0.6161346,-0.1968308,-0.2161653,22.79485,6.38073,-35.03519,1006.985
24.812674522,9.890057,-21.53631,22.15436,-0.4278182,0.06516141,-0.4293862,19.13335,5.613726,-37.24844,1006.985
24.847739220,-8.691236,40.44283,42.16656,-0.4871334,0.1644618,-0.3132536,16.5553,6.320607,-37.62769,1006.987
24.880299091,-55.02141,97.0092,52.38686,-0.5999693,0.05779807,-0.1605748,16.5553,6.320607,-37.62769,1006.984
24.912858486,-86.89264,125.4411,65.42233,-0.8600479,0.09397515,0.007959887,16.92745,5.959443,-37.62626,1006.984
24.945414066,-131.5,133.1736,76.68302,-1.069088,0.07919835,0.09252716,20.20599,7.443303,-36.81898,1006.984
24.980478287,-186.2595,133.2331,72.09306,-1.219258,-0.116181,0.08969132,20.20599,7.443303,-36.81898,1006.98
25.013038158,-202.8719,127.2255,62.23996,-1.306404,-0.2470238,0.07666158,25.70231,8.600267,-32.38393,1006.98
25.045598030,-180.9681,95.16529,62.23996,-1.370698,-0.2463486,0.2768519,30.11868,12.29346,-28.47358,1006.982
25.080661774,-168.6626,80.88986,60.58758,-1.253378,-0.4595106,0.03663199,30.11868,12.29346,-28.47358,1006.982
25.113221645,-141.0983,63.64039,39.96338,-1.103449,-0.347234,0.1435764,34.86562,14.91033,-22.32603,1006.977
25.145777226,-119.9329,48.6512,35.37343,-1.091499,-0.1537898,0.1755187,39.25731,16.48601,-17.50811,1006.977
25.180841923,-161.6485,34.01888,26.98911,-1.002519,-0.1044066,0.1520174,39.25731,16.48601,-17.50811,1006.977
25.213400841,-157.4646,24.85882,20.01238,-1.004059,-0.1826477,0.1459914,41.09866,16.8863,-13.50202,1006.977
25.245960712,-129.1004,7.311942,17.07481,-1.046127,-0.1628691,0.1647021,43.31496,16.92986,-8.729807,1006.977
25.281109333,-125.2242,-5.179055,9.853281,-1.005347,-0.06614818,0.1738724,43.31496,16.92986,-8.729807,1006.98
25.313669205,-130.3925,-18.02694,0.8569701,-0.9948494,-0.09742531,0.1351983,43.71326,15.42954,-6.489757,1006.978
25.346224785,-133.2228,-23.67763,-11.38291,-0.9043815,-0.3782354,-0.05527325,43.73091,14.71188,-4.763971,1006.98
25.378784657,-109.5347,-19.21656,-26.62156,-0.8290088,-0.487293,-0.2237748,43.73091,14.71188,-4.763971,1006.983
25.413848400,-92.12247,-15.52874,-41.24822,-1.489444,-0.8946635,-0.3864498,43.74148,14.35582,-3.423144,1006.983
25.446408272,1.214686,-12.01936,-43.39019,-1.113236,0.06858749,-0.6877623,43.00044,15.08332,-2.533845,1006.981
25.478968144,34.1934,-11.00819,-35.37307,-0.6526926,0.2660384,0.3830684,43.00044,15.08332,-2.533845,1006.982
25.514032364,-45.73077,25.81051,-52.44771,-0.974257,0.08155712,-0.1526004,42.23247,17.32152,-2.547569,1006.984
25.546587944,-75.20242,28.963,-39.65703,-0.9924363,-0.1952193,0.05878057,41.84001,18.76895,-3.448969,1006.986
25.579147339,-42.71592,26.04844,-22.766,-0.9682696,-0.120963,-0.06192084,41.84001,18.76895,-3.448969,1006.986
25.614212036,-31.45639,27.17858,-29.68153,-0.991275,0.1473438,-0.02686913,40.72929,20.23434,-0.3333435,1006.984
25.646771908,-81.78586,26.1674,-33.23109,-0.9584928,-0.1351737,-0.1148352,40.71285,21.69954,1.376775,1006.985
25.679330826,-53.48323,14.56862,-26.56036,-0.9846365,-0.189006,-0.1083805,39.61266,22.06316,2.715946,1006.987
25.714395523,-20.87367,11.1782,-27.72315,-1.013277,0.10257,-0.07635204,39.61266,22.06316,2.715946,1006.984
25.746951103,-69.788,11.83249,-29.98753,-0.9469322,-0.1765895,-0.165266,39.97102,22.7986,3.601679,1006.986
25.779510975,-64.92733,10.52391,-28.64114,-0.9717979,-0.1621117,-0.1074993,38.50031,23.52596,5.385498,1006.986
25.814574718,-63.75831,9.215333,-28.02914,-0.973453,-0.1413245,-0.08784545,38.50031,23.52596,5.385498,1006.99
25.847134590,-26.90336,0.9474815,-20.62402,-1.040841,-0.09244712,-0.1276384,37.76392,24.26084,7.54929,1006.992
25.879694462,-23.88852,-2.086046,-21.41961,-0.9358243,-0.1330505,-0.1955486,37.40234,24.26594,8.888695,1006.99
25.912253380,-37.7322,1.066443,-19.82843,-0.9694811,-0.1993826,-0.1341725,37.40234,24.26594,8.888695,1006.992
25.947314262,-38.10136,-0.004213529,-16.52366,-0.9786618,-0.1858404,-0.03969852,36.66536,24.62704,9.334534,1006.992
25.979873657,-19.70465,-2.205008,-14.68768,-0.9746042,-0.1775802,-0.1338349,36.66862,24.6322,10.22668,1006.996
26.012433529,-21.42742,-5.000612,-18.29844,-0.9637115,-0.1469098,-0.1140424,36.66862,24.6322,10.22668,1006.996
26.047497273,-12.44441,-5.238536,-14.50408,-0.9539502,-0.1895733,-0.1093856,36.29404,25.36235,11.11479,1006.993
26.080057144,-68.49593,2.73191,-11.68891,-0.9679418,-0.1329765,0.01523586,36.30704,24.63731,11.56608,1006.993
26.112617016,-518.3232,51.08991,-1.468607,-0.8219553,-0.4074236,-0.3453408,36.30704,24.63731,11.56608,1006.993
26.147676945,-156.1725,4.694781,-12.7293,-0.9786667,-0.2371978,-0.2870042,36.67496,25.38787,15.06452,1006.991
26.180236816,-90.83039,5.824918,-21.23601,-0.9317945,-0.2349149,-0.2275593,36.01491,21.76993,19.49001,1006.991
26.212796688,-66.58858,-4.88165,-3.059791,-0.9213551,-0.279879,-0.3553834,36.01491,21.76993,19.49001,1006.993
26.247860909,-1.246412,-0.9559085,-4.406178,-0.9754533,-0.1678884,-0.2361621,34.95042,19.95327,21.29091,1006.994
26.280420303,-2.600016,-2.799818,-0.7342142,-0.9553809,-0.1431482,-0.2749576,34.59937,18.85661,20.85386,1006.994
26.312980175,-26.96489,2.077619,11.13847,-0.9071497,-0.2437577,-0.3490456,34.59937,18.85661,20.85386,1006.992
26.345535755,37.51588,7.549866,28.4579,-0.8585327,-0.1108719,-0.1488806,34.59695,19.22558,21.7434,1006.992
26.380599499,-15.58231,-27.54389,10.58767,-1.125344,0.2884058,-0.009602949,34.22885,19.22035,21.29851,1006.992
26.413159371,24.71818,-12.8521,-5.32417,-0.9027103,-0.250883,-0.1601582,34.22885,19.22035,21.29851,1006.986
26.445719242,48.83693,-27.00856,-6.792955,-0.9712556,-0.01451322,-0.1792046,35.31932,19.58694,20.40019,1006.986
26.480783463,64.46491,-22.48801,-12.5457,-1.070361,-0.05993134,-0.09521094,34.58148,19.5739,19.06436,1006.986
26.513342857,68.83336,-33.67043,-20.93002,-1.091938,-0.07842867,-0.04423436,34.58148,19.5739,19.06436,1006.986
26.545898438,68.0335,-57.1654,-23.43919,-0.9978741,0.2513244,-0.0397777,34.92299,20.65543,16.8887,1006.988
26.580963135,-37.79372,-41.75983,-14.68768,-0.9333752,-0.0185335,-0.04250687,34.89048,22.09518,14.20182,1006.983
26.613522053,-47.88423,-36.82291,-8.751335,-0.9818817,-0.277016,-0.1977005,34.89048,22.09518,14.20182,1006.983
26.646081924,-33.67139,-36.40655,-5.26297,-1.004895,-0.2946243,-0.1326911,34.50533,23.18138,13.74911,1006.985
26.681146622,-10.90622,-53.00173,-3.304589,-1.092865,-0.3335415,0.1553761,34.50938,22.81498,13.30564,1006.985
26.713705540,5.829245,-75.06916,-0.1222203,-1.025496,-0.219837,0.5645325,34.50938,22.81498,13.30564,1006.983
26.746261597,-9.737203,-98.86153,12.48486,-1.222553,-0.1420595,0.2125608,34.87687,22.44644,12.03258,1006.983
26.778965473,-80.92447,-111.2336,5.569323,-0.999789,-0.06037385,-0.116071,35.22951,22.79998,9.798414,1006.983
26.814029694,-126.3933,-75.36656,6.91571,-0.6441324,-0.01016844,-0.6212605,35.22951,22.79998,9.798414,1006.981
26.846589565,-109.1656,-35.51434,22.03196,-0.4927712,0.04272917,-0.8100832,35.95998,22.42855,7.568289,1006.977
26.879148483,-127.3777,18.19695,47.30731,-0.5238176,0.05589989,-0.6967422,36.34512,21.34235,8.021006,1006.978
26.914213181,-138.5757,62.9861,61.19957,-0.8506235,-0.1277433,-0.5812845,36.34512,21.34235,8.021006,1006.98
26.946769238,-119.8714,83.86391,65.85073,-1.00725,-0.2711334,-0.38707,36.37764,19.9026,10.70788,1006.98
26.979328632,-103.9357,87.67069,58.8128,-1.196747,-0.2857749,-0.2764172,37.19009,15.8708,15.13166,1006.98
27.014392376,-104.9817,81.18727,47.36851,-1.174719,-0.09425046,-0.1149689,37.19009,15.8708,15.13166,1006.98
27.046952248,-135.3147,83.56651,37.45421,-1.149589,-0.2008921,-0.105019,36.52273,12.61409,19.10846,1006.976
27.079512119,-105.4124,68.57731,33.72104,-1.141628,-0.2158449,-0.1071884,37.679,9.729628,22.24828,1006.976
27.114575863,-82.15502,46.153,29.68189,-1.038003,-0.1819802,0.009722094,37.679,9.729628,22.24828,1006.976
27.147131920,-90.64581,36.93345,22.21556,-0.976285,-0.3001036,0.1900935,37.02137,5.742711,25.78423,1006.976
27.179691792,-72.86437,34.13784,16.40162,-1.053262,-0.1628527,0.03468085,35.24588,2.837071,28.93357,1006.979
27.212250710,-73.78728,9.453257,6.426115,-0.9761807,-0.05996705,0.1807058,35.24588,2.837071,28.93357,1006.975
27.247315407,-87.07722,-4.286841,-5.079372,-1.003061,-0.2249528,0.1535624,34.56329,-0.07095814,30.29506,1006.979
27.279875279,-76.61755,-16.24251,-16.34006,-0.9797624,-0.2762972,0.0758997,33.5083,-2.618194,31.59139,1006.979
27.312434197,-42.53134,-25.75946,-30.17112,-0.9408831,-0.4751295,0.09168041,33.5083,-2.618194,31.59139,1006.979
27.347494602,41.146,-4.643727,-27.11115,-2.198874,0.3975975,-1.544523,33.89284,-4.07817,30.32615,1006.975
27.380054474,5.213971,-17.01576,-41.06462,-0.7423288,0.2150012,0.1290868,34.65014,-5.525537,30.78029,1006.976
27.412613869,-54.71378,-10.05649,-41.55421,-0.9495714,-0.111089,0.06388973,34.97358,-2.98138,29.86868,1006.978
27.447678089,-55.14447,-17.67005,-37.39265,-0.9735691,-0.3135378,-0.1586288,34.97358,-2.98138,29.86868,1006.977
27.480237961,-4.19973,-3.989436,-17.07445,-0.8752356,-0.3473415,-0.1384543,35.3311,-2.620089,28.97274,1006.977
27.512797833,4.168004,-0.8369467,-19.58363,-0.9691176,0.2008151,-0.07199553,36.42725,-2.617315,28.07703,1006.981
27.547857762,-81.23211,5.051666,-30.66072,-0.9521585,-0.04864819,-0.09998665,36.42725,-2.617315,28.07703,1006.984
27.580417156,-27.58016,-7.974659,-27.17235,-1.007547,-0.2648271,-0.2791805,36.77668,-1.523236,28.068,1006.986
27.612977028,8.228815,-15.17185,-28.76354,-0.9774026,-0.05530179,-0.09861366,36.06646,-2.983772,28.08083,1006.983
27.645536423,-28.74919,-12.73313,-25.03037,-0.9578041,-0.149804,-0.1020078,36.06646,-2.983772,28.08083,1006.983
27.680600643,-10.78317,-15.58822,-18.60444,-1.055933,-0.0698192,-0.01755204,37.14883,-1.8844,28.06943,1006.985
27.713160515,-9.79873,-18.02694,-15.91166,-0.9880502,-0.1035418,-0.1017562,36.0429,-1.902672,26.28871,1006.983
27.745715618,-2.600016,-20.40618,-12.79049,-0.9915016,-0.1766414,-0.06854838,36.0429,-1.902672,26.28871,1006.984
27.780780315,2.937455,-22.84489,-15.05487,-1.005383,-0.1112657,-0.05641992,37.87447,-1.517879,27.61837,1006.986
27.813340187,2.383708,-22.13112,-14.87127,-0.9629754,-0.2015228,-0.07282253,37.49742,-1.164464,26.27873,1006.984
27.845899105,11.61283,-19.87085,-11.44411,-0.9854712,-0.137011,-0.002693716,37.49742,-1.164464,26.27873,1006.984
27.880963802,2.07607,-17.49161,-12.8517,-0.9855517,-0.1230713,0.03087203,38.58384,-0.4314852,25.82387,1006.986
27.913523674,-8.937346,-17.37265,-12.8517,-0.9652129,-0.2247441,-0.1026606,38.93428,0.2914033,24.54297,1006.986
27.946078777,3.921894,-20.70358,-5.936163,-1.004169,-0.3007632,-0.06366253,38.93428,0.2914033,24.54297,1006.983
27.981142998,20.2882,-23.55867,-7.037753,-1.01102,-0.1041079,0.06260542,39.29912,0.2914672,24.09571,1006.985
28.013702869,13.15101,-24.62932,-5.874964,-1.048825,-0.2213398,-0.02277082,38.91966,1.013858,23.6456,1006.985
28.046261787,25.70262,-27.00856,-7.160151,-1.045667,-0.2963493,-0.08434033,38.91966,1.013858,23.6456,1006.987
28.081326485,27.48691,-27.12752,-11.62771,-1.060444,-0.2691221,-0.02252183,39.63471,1.736442,21.85371,1006.984
28.113886356,35.67006,-32.71873,-10.34252,-1.067367,-0.1535539,0.08655766,40.36602,1.739152,21.40526,1006.984
28.146441460,29.0251,-39.678,-10.09772,-1.014484,-0.1353866,0.0906508,40.36602,1.739152,21.40526,1006.986
28.179001331,29.82495,-44.85284,-10.22012,-1.031831,-0.1891616,0.1096656,40.34004,3.189229,20.50267,1006.986
28.214065075,52.46706,-54.78616,-7.588547,-1.151754,-0.1458269,0.06935543,41.04964,4.275991,18.7719,1006.981
28.246624947,33.02438,-68.76418,-9.730526,-1.305058,-0.1199723,0.03654484,41.04964,4.275991,18.7719,1006.983
28.279184818,30.74787,-79.94659,-15.48327,-1.271347,0.008984942,0.09696832,41.76144,4.99341,16.08787,1006.979
28.314248562,20.04209,-100.646,-20.31802,-1.219471,0.105566,0.06213846,41.3714,6.071863,14.29694,1006.981
28.346804142,4.967861,-114.2671,-31.57871,-1.206518,-0.07584459,-0.08565476,41.3714,6.071863,14.29694,1006.981
28.379364014,6.136883,-121.6427,-34.88348,-0.8925765,-0.2134838,-0.01990151,43.17226,7.15365,10.33224,1006.982
28.414427757,25.82567,-46.39935,-16.09526,-0.2367074,-0.4329763,-0.5285286,43.14054,8.221836,6.309757,1006.98
28.446987629,109.38,-1.66968,22.09316,-0.5746417,-0.02268231,-0.3440602,43.14054,8.221836,6.309757,1006.98
28.479547501,45.51445,55.84839,34.51664,-0.5819612,0.1012743,-0.157512,42.73774,10.02569,4.131254,1006.98
28.514611244,-18.22799,98.2583,33.23145,-0.6681613,-0.1092416,0.03706057,42.73774,10.02569,4.131254,1006.98
28.547167301,-35.76332,124.0135,39.90218,-0.7652985,-0.1214345,0.08820626,42.73774,10.02569,4.131254,1006.982
28.579727173,-50.34533,142.1552,47.9805,-0.9633362,-0.1523513,0.01396907,42.77328,8.590748,7.646549,1006.976
28.612286091,-43.45425,148.1628,48.1641,-1.149529,-0.1853076,-0.005689083,41.34378,7.519356,12.94828,1006.978
28.647350788,-40.93163,144.9508,41.18737,-1.215441,-0.1810347,0.1471868,41.34378,7.519356,12.94828,1006.978
28.679910183,-43.88494,142.6906,40.39178,-1.204224,-0.1424516,0.1380971,38.09431,5.335919,16.98929,1006.978
28.712469578,-32.37931,129.7237,42.59496,-1.187671,-0.1089919,0.09557103,37.39286,4.26207,20.95042,1006.976
28.747529983,-20.13534,113.9613,41.30977,-1.206317,-0.139832,0.09076813,37.39286,4.26207,20.95042,1006.971
28.780089855,-28.50307,110.5114,36.35262,-1.114788,-0.1789795,0.09104929,35.96843,2.453094,24.53681,1006.971
28.812648773,-26.96489,94.92737,26.98911,-1.169794,-0.1773532,0.1099789,34.90214,1.379182,28.94521,1006.973
28.847713470,-14.29023,61.55856,15.78962,-1.125412,-0.1217885,0.2016586,34.90214,1.379182,28.94521,1006.969
28.880273342,-24.56532,28.6656,2.754151,-1.070637,-0.03743748,0.2986012,32.37891,-0.06396103,34.25311,1006.969
28.912832260,-39.88566,0.1147483,-7.34375,-1.044959,-0.105242,0.3197774,28.74913,-1.89915,36.06234,1006.971
28.947892666,-50.46838,-31.76703,-17.99244,-0.9557491,-0.1854791,0.3711552,28.74913,-1.89915,36.06234,1006.972
28.980452061,-50.52991,-61.74543,-27.41715,-0.8770623,-0.2016306,0.4075695,26.49896,-2.645676,35.62882,1006.974
29.013011932,-28.68766,83.68547,-31.08912,-1.012247,-0.03826948,-2.325237,26.50948,-3.74744,33.85236,1006.978
29.045571804,-60.80499,-72.27355,-59.91403,-0.5756446,-0.02172228,1.247715,26.50948,-3.74744,33.85236,1006.978
29.080635548,58.31216,-77.62684,-49.38774,-0.9040736,0.348952,0.3468725,27.30429,-4.113266,32.51418,1006.975
29.113195419,-42.96203,-12.37625,-29.25313,-0.8002455,-0.3350058,-0.2838349,28.3915,-3.751847,30.72372,1006.977
29.145750999,-0.8157202,-7.855697,-21.17481,-0.9619291,-0.2482523,-0.2664038,28.3915,-3.751847,30.72372,1006.977
29.180814743,10.81297,1.601772,-32.9251,-0.8851364,-0.001371243,-0.150568,29.85272,-3.74864,29.44448,1006.979
29.213374615,-33.17916,-0.004213529,-33.65949,-1.037307,0.03181352,-0.08272547,29.84704,-3.384829,29.44186,1006.979
29.245934486,-20.38145,-10.77026,-24.29598,-0.9957216,-0.2492331,-0.1484422,30.55889,-1.92171,29.87511,1006.975
29.280998230,6.382992,-21.17943,-20.01202,-0.9967286,-0.09483333,-0.2239093,30.55889,-1.92171,29.87511,1006.975
29.313558102,-7.153048,-22.96386,-15.17727,-0.9519372,-0.16832,-0.1810864,30.19646,-2.29075,29.43284,1006.976
29.346113205,-21.11978,-24.03451,-18.66564,-0.9207722,-0.2230301,-0.2443068,30.91315,-1.565584,28.08702,1006.974
29.381177902,-8.81429,-31.82651,-18.42084,-0.9932965,-0.136099,-0.01185641,30.91315,-1.565584,28.08702,1006.974
29.413737297,-17.42813,-29.62572,-20.19562,-0.9851424,-0.07541749,0.02676489,30.91315,-1.565584,28.08702,1006.976
29.446296692,-26.1035,-27.96025,-16.76846,-0.9888553,-0.1907889,-0.04943171,31.26337,-0.8430648,26.7424,1006.977
29.478856564,-7.276103,-31.11274,-14.62648,-0.9840033,-0.1868887,-0.03825922,31.26337,-0.8430648,26.7424,1006.977
29.513920784,1.522323,-33.96783,-11.32171,-0.9903949,-0.2243772,-0.04220863,32.72436,-0.8402267,25.39943,1006.981
29.546475887,12.10505,-35.99018,-10.40372,-1.017741,-0.1656719,0.008501213,33.08352,-0.4763527,24.94956,1006.981
29.579035759,12.35115,-34.32471,-9.791725,-1.031841,-0.2129253,-0.007674151,33.08352,-0.4763527,24.94956,1006.977
29.614099503,22.01097,-36.76344,-11.62771,-1.01475,-0.1543456,0.09084518,33.80448,-0.1172109,23.224,1006.977
29.646659374,14.0124,-36.58499,-11.50531,-1.036717,-0.2485918,0.01933889,34.88927,0.6131845,22.32307,1006.974
29.679219246,28.65593,-40.09437,-12.3621,-1.015725,-0.2584041,-0.006933418,34.88927,0.6131845,22.32307,1006.976
29.714282989,30.07106,-48.54066,-12.3009,-1.121692,-0.2782024,-0.01825085,35.24517,0.9718928,20.98106,1006.977
29.746839046,37.08519,-62.22128,-11.75011,-1.337597,-0.3148595,-0.05727187,35.94155,2.783325,18.73526,1006.977
29.779398918,57.51231,-80.30348,-20.01202,-1.347504,-0.130364,-0.04381328,35.94155,2.783325,18.73526,1006.979
29.814462662,48.28319,-104.5717,-25.15277,-1.262148,0.1023118,0.1206186,37.38978,3.511571,17.00472,1006.977
29.847022533,33.57813,-117.836,-38.00465,-1.203539,0.04097869,0.09594085,37.35969,4.582339,13.42831,1006.979
29.879581451,33.76271,-123.5461,-48.95934,-1.185084,-0.1045369,-0.02085731,37.35969,4.582339,13.42831,1006.979
29.912141323,55.35884,-115.5162,-59.05724,-1.182944,-0.202784,-0.2113586,38.77945,6.383935,8.567438,1006.979
29.947201729,141.4973,-138,-57.58846,-1.014857,-0.3616599,0.2558976,39.46628,8.180239,3.708937,1006.979
29.979761124,107.5957,-103.501,-41.00342,-0.8178485,-0.347776,0.2259499,39.46628,8.180239,3.708937,1006.976
30.012320518,19.79598,-19.63292,-28.33514,-0.1415142,-0.2772362,-0.09217208,38.66529,11.04964,-2.490857,1006.978
30.047384739,89.322,42.46518,7.221707,-0.3378727,0.02199383,-0.2986531,37.90226,12.11511,-6.064889,1006.978
30.079944134,30.80939,83.32858,33.04785,-0.1638582,0.2377437,-0.006470122,37.90226,12.11511,-6.064889,1006.978
30.112504005,-31.88709,130.0211,48.0417,-0.4299919,0.1340923,0.007190087,38.25494,13.21436,-5.181767,1006.978
30.147563934,-98.76743,183.1376,54.28404,-0.699063,-0.04513533,-0.1465815,38.28341,12.141,-2.051431,1006.974
30.180123806,-105.6585,200.9819,56.91562,-0.9762222,-0.2746461,-0.0623243,38.28341,12.141,-2.051431,1006.972
30.212683678,-57.54404,199.019,67.25832,-1.237109,-0.3708929,-0.0587071,38.32873,10.72156,4.140297,1006.972
30.247747421,-17.18202,217.3391,58.5068,-1.380645,-0.2542357,-0.04567113,38.74784,8.943525,10.77952,1006.972
30.280307293,-20.01229,218.1719,48.7149,-1.500183,-0.04821445,0.04942898,38.74784,8.943525,10.77952,1006.972
30.312866211,-50.65296,194.0226,46.14452,-1.586438,-0.08335107,0.2597285,36.97544,6.788387,17.87456,1006.974
30.347926617,-57.05182,171.1819,46.45052,-1.469544,-0.1488826,0.1503395,34.46823,4.625001,24.46217,1006.969
30.380486488,-69.17273,136.8019,28.4579,-1.391147,-0.3416311,0.2236967,34.46823,4.625001,24.46217,1006.971
30.413045883,-26.16503,52.51746,7.772501,-1.395979,-0.4679424,0.8351796,31.59985,1.721756,29.39936,1006.971
30.445605755,-15.15162,-7.558293,-7.588547,-1.173832,-0.1152592,0.5483862,27.9861,-0.8336749,32.48831,1006.971
30.480669499,-61.54332,-39.55904,-26.49916,-0.9608432,-0.2463752,0.388116,27.9861,-0.8336749,32.48831,1006.969
30.513229370,-39.39344,-61.74543,-32.7415,-1.063735,-0.1814475,0.2446762,27.6383,-1.925172,32.9434,1006.97
30.545784950,-85.41598,13.79537,-40.08543,-1.763079,0.2337453,-1.563394,28.38177,-3.021642,31.16457,1006.972
30.580848694,-112.8572,-40.51073,-59.60804,-0.8501001,-0.2021972,0.07738843,28.38177,-3.021642,31.16457,1006.972
30.613408566,-45.97688,-97.25555,-55.50768,-1.056133,0.03411872,-0.002914957,29.84299,-3.018435,29.88533,1006.974
30.645967960,-55.20599,-45.03128,-36.04627,-0.7763523,-0.3794068,-0.284052,32.02634,-2.654242,27.19915,1006.975
30.681032181,12.84337,-31.46963,-26.37676,-0.9274539,-0.1620681,-0.09690711,32.02634,-2.654242,27.19915,1006.973
30.713592052,1.768433,-18.02694,-26.37676,-0.9798492,0.07013868,0.09616982,34.21701,-2.651277,24.96166,1006.975
30.746147156,-33.11764,-11.84092,-33.65949,-1.001932,0.06017628,-0.01997129,34.57477,-2.289616,24.12944,1006.975
30.781211853,-34.28666,-11.42455,-24.41838,-0.9308649,-0.309857,-0.2040513,34.57477,-2.289616,24.12944,1006.975
30.813770771,-1.677104,-11.95988,-13.76969,-0.9859487,-0.2534485,-0.1552833,35.30343,-1.918298,24.5068,1006.972
30.846330643,5.583136,-10.88922,-10.03652,-0.9939092,-0.09455279,-0.0648768,34.92397,-1.195906,24.05669,1006.974
30.878890514,-0.3235005,-16.42095,-8.690136,-0.9812815,-0.1940955,-0.1548656,34.92397,-1.195906,24.05669,1006.976
30.913954258,14.32003,-28.61455,-10.34252,-0.9823535,-0.1872703,-0.1624945,34.92397,-1.195906,24.05669,1006.978
30.946509838,5.029388,-30.6369,-12.3621,-0.9651212,-0.1356076,-0.03894521,36.01467,-0.8289518,23.22209,1006.978
30.979069233,5.460081,-28.91195,-12.3009,-0.9658689,-0.1935268,-0.02290994,36.01467,-0.8289518,23.22209,1006.979
31.014133453,13.21254,-28.49558,-10.89331,-0.9698713,-0.1824435,-0.01355282,36.72731,0.2626081,22.31974,1006.977
31.046693325,6.813684,-27.72233,-10.22012,-0.9928596,-0.1730435,-0.009036832,37.45372,0.2575688,20.53307,1006.979
31.079252720,7.244377,-31.11274,-10.89331,-1.013152,-0.2363265,-0.04478585,37.07426,0.9799609,20.08297,1006.979
31.114316940,17.33488,-34.02731,-13.28009,-1.020326,-0.2414149,-0.01537057,37.07426,0.9799609,20.08297,1006.979
31.146872044,23.79526,-37.53669,-15.54447,-1.089373,-0.2391679,0.04031869,38.16473,1.346547,19.18465,1006.98
31.179431915,38.37727,-47.47,-15.97286,-1.039248,-0.1999911,0.01234878,38.14847,2.066419,17.84121,1006.978
31.214495659,25.33345,-56.45163,-16.89086,-1.07516,-0.2467627,0.04115586,38.14847,2.066419,17.84121,1006.978
31.247055531,42.37655,-67.03923,-16.76846,-1.258285,-0.2438558,0.05249463,39.5967,2.794664,16.11067,1006.98
31.279615402,54.86663,-80.77933,-18.11484,-1.416486,-0.1752653,0.01309011,39.56824,3.868015,12.98033,1006.98
31.312174797,55.35884,-104.1553,-22.3988,-1.339854,0.1217916,0.1031059,39.56824,3.868015,12.98033,1006.976
31.347235203,32.03994,-118.7282,-34.27148,-1.323848,0.01378875,-0.04018674,41.00589,4.952322,9.908964,1006.976
31.379794121,44.22237,-129.0184,-50.55053,-1.232573,-0.07430365,-0.1779311,41.70735,6.02617,5.947832,1006.977
31.412353993,67.41823,-128.6615,-59.24084,-1.147157,-0.235995,-0.07413744,41.70735,6.02617,5.947832,1006.974
31.447417736,130.1147,-140.7956,-54.58968,-0.8995248,-0.5476646,0.129204,42.01774,8.549662,1.467645,1006.974
31.479977608,113.8715,-90.29628,-38.92264,-0.6939125,-0.2645094,0.1197909,40.5049,9.95594,-5.1654,1006.974
31.512537480,13.27407,-22.72593,-34.57748,-0.128327,-0.4186477,0.04728717,40.5049,9.95594,-5.1654,1006.974
31.547597408,48.83693,78.68907,-2.814994,-0.1753783,-0.05927293,-0.5567228,40.46041,11.74953,-9.57545,1006.974
31.580156803,50.31359,104.6822,18.97199,-0.1226245,0.2310151,0.09441318,40.82852,11.75476,-9.130567,1006.972
31.612716198,18.07321,166.8398,32.43586,-0.3709405,0.1887299,-0.08145805,40.82852,11.75476,-9.130567,1006.972
31.647780418,-88.73846,235.4808,29.43709,-0.6469475,0.0149173,-0.05774105,41.93912,11.78041,-6.075354,1006.972
31.680340290,-74.27951,236.492,41.67697,-1.333381,-0.04183054,-0.02072426,43.08307,10.74047,1.448412,1006.972
31.712899685,4.044949,235.1239,58.9352,-1.408366,-0.2185147,0.1410007,43.08307,10.74047,1.448412,1006.968
31.745455265,17.70405,236.611,52.38686,-1.510778,0.106789,0.2393542,44.61626,8.993624,12.09871,1006.968
31.780687809,-37.7322,213.2944,54.28404,-1.713363,0.2343287,0.2550301,43.22478,6.864008,23.14348,1006.968
31.813247681,-68.68051,183.2566,57.40521,-1.479318,-0.1821274,0.3775122,43.22478,6.864008,23.14348,1006.968
31.845806599,-74.15645,133.0546,39.47379,-1.473776,-0.2678957,0.4433877,38.53095,4.331264,31.52514,1006.97
31.880871296,-67.81912,44.07116,9.180088,-1.427254,-0.5507925,0.795759,31.64416,0.6734958,36.86297,1006.967
31.913430214,-29.30293,-45.20973,-19.03283,-1.139546,-0.2714345,0.6817993,31.64416,0.6734958,36.86297,1006.967
31.945986271,-54.95988,-61.8644,-28.02914,-1.017991,-0.1033293,0.4034047,27.23088,-2.269192,36.89832,1006.969
31.981050491,-93.96829,28.60612,-57.89445,-1.002759,-0.4154951,-1.432404,27.66676,-2.998523,36.07374,1006.969
32.013609886,-1.184885,-98.62361,-45.71577,-0.7188181,0.2114164,0.7665834,27.66676,-2.998523,36.07374,1006.965
32.046169758,-77.8481,-84.94299,-43.32899,-1.255635,-0.628963,0.09978818,29.49991,-3.356849,34.73219,1006.968
32.081233501,-43.3312,-40.51073,-34.94468,-0.6951433,-0.02990904,-0.06417894,31.30948,-2.634074,31.59852,1006.97
32.113793373,-16.25911,-27.90077,-26.86636,-1.006741,-0.2369218,-0.2149498,31.30948,-2.634074,31.59852,1006.966
32.146348476,7.859652,-20.28721,-19.70603,-0.9533338,0.01443234,-0.08113819,33.14668,-3.358794,29.81351,1006.966
32.181412697,-2.107797,-14.04171,-22.5824,-0.9565767,-0.0391278,-0.06890102,34.24469,-3.353068,29.4276,1006.967
32.213972092,-15.09009,-11.72196,-24.72438,-0.9561527,-0.08175594,-0.0985544,34.24469,-3.353068,29.4276,1006.969
32.246531963,-29.42599,-7.320369,-23.25559,-0.9445042,-0.2135877,-0.1450476,34.23574,-2.994423,28.53284,1006.967
32.279091835,-11.95219,-9.045316,-19.21643,-0.991128,-0.1735746,-0.1004048,34.95164,-1.897697,28.52263,1006.967
32.314155579,-16.38217,-12.19781,-14.50408,-1.029298,-0.1143296,-0.09221347,34.95164,-1.897697,28.52263,1006.967
32.346711159,-10.47553,-16.65888,-14.07568,-0.9786872,-0.2024407,-0.1293765,35.31811,-1.895051,28.52144,1006.968
32.379270554,4.598696,-20.10877,-10.89331,-0.9458202,-0.2162495,-0.09819936,35.67969,-1.900153,27.18204,1006.968
32.414334774,6.998267,-19.45448,-8.078142,-0.9594216,-0.2098289,-0.05313424,35.67969,-1.900153,27.18204,1006.966
32.446894169,12.47421,-17.90798,-7.833344,-0.9603912,-0.1623436,-0.02437299,36.04616,-1.897506,27.18085,1006.966
32.479454041,5.398553,-16.00459,-7.588547,-0.9978224,-0.1662779,-0.01472935,37.12932,-1.169694,25.83385,1006.966
32.514517784,11.73588,-16.83732,-5.446568,-0.9803576,-0.2143873,-0.07251865,37.12932,-1.169694,25.83385,1006.964
32.547073364,17.64252,-19.33552,-4.28378,-0.9844649,-0.1869412,-0.02810866,36.39069,-0.8111763,25.83361,1006.965
32.579633236,17.88863,-21.29839,-4.100182,-0.9965072,-0.1992301,-0.03215154,37.48116,-0.4445915,24.93529,1006.967
32.614696980,35.3009,-25.40257,-2.876193,-0.9945935,-0.2371361,-0.02741455,37.48116,-0.4445915,24.93529,1006.966
32.647256851,36.6545,-30.22053,-2.325398,-1.012377,-0.2183527,-0.04064537,37.1017,0.2778001,24.48519,1006.966
32.679816246,41.51517,-34.74108,-2.692595,-1.024173,-0.2016587,-0.005092782,37.45355,1.002903,23.58663,1006.968
32.712375641,33.02438,-38.30994,-5.691366,-1.117301,-0.2910033,-0.07597223,37.45355,1.002903,23.58663,1006.965
32.747435570,49.02152,-52.76381,-7.221351,-1.252257,-0.338233,-0.1229667,38.53125,2.094895,22.30074,1006.967
32.779995441,50.00595,-68.28833,-11.32171,-1.200506,-0.1145462,-0.001660057,39.25362,2.456251,20.95753,1006.967
32.812554836,41.146,-81.37414,-21.72561,-1.141036,-0.01506846,0.09550882,39.25362,2.456251,20.95753,1006.967
32.880178452,34.1934,-96.60126,-49.93853,-1.154037,-0.2397199,0.08290984,41.01792,5.344177,14.74942,1006.966
32.912737846,68.83336,-87.56016,-57.95565,-1.050013,-0.3724605,-0.03280925,41.71043,6.77667,9.893532,1006.968
32.947797775,107.8418,-82.38531,-54.16129,-0.7936309,-0.1795528,0.1753215,41.71043,6.77667,9.893532,1006.967
32.980357647,85.99952,-62.87557,-48.95934,-0.5048186,-0.2974214,0.4158997,42.02003,9.671721,6.748949,1006.967
33.012917519,38.56185,0.3526721,-37.33146,-0.3640673,-0.5518193,-0.1986223,41.9715,11.83171,2.78236,1006.967
33.047981262,145.312,52.27953,-13.03529,-0.2931754,0.06604413,-0.1327093,41.9715,11.83171,2.78236,1006.963
33.080541134,83.53842,94.27307,-3.549387,-0.4564034,0.2170833,-0.04227285,41.21583,13.28166,2.774293,1006.965
33.113100052,5.706191,142.9285,-1.774604,-0.6333006,0.05924885,-0.04160983,40.47074,14.37554,4.107054,1006.965
33.145656109,-6.968466,169.9923,6.732112,-0.8539172,-0.1178988,-0.08712006,40.47074,14.37554,4.107054,1006.967
33.180719852,18.38085,190.6917,12.79085,-1.117251,-0.2122535,-0.07912124,39.75793,14.02932,8.062963,1006.967
33.213279724,55.97412,192.8925,12.48486,-1.291928,-0.2451646,0.0302718,38.31139,14.04936,13.35686,1006.963
33.245838642,81.87718,180.5799,11.13847,-1.420538,-0.1683171,0.1823819,38.31139,14.04936,13.35686,1006.963
33.280903339,105.6268,147.9249,11.01607,-1.446339,0.06886263,0.3204041,36.14326,13.33648,18.65835,1006.96
33.313462257,76.58582,93.91619,1.468964,-1.428394,0.04466309,0.7739085,32.82072,15.51102,21.32981,1006.962
33.346018314,15.73516,20.39775,-3.059791,-1.293389,-0.2552023,1.581276,32.82072,15.51102,21.32981,1006.962
33.381082058,63.04978,-56.45163,1.468964,-0.9977118,0.9851274,0.9338206,30.97054,16.96078,22.66353,1006.964
33.413641930,-175.9844,32.76978,-11.07691,-1.175926,-0.1966248,-0.8996,30.95334,17.74129,21.31966,1006.964
33.446200848,-38.77816,-8.807391,-6.976553,-0.9555889,-0.7359755,-0.1940937,30.95334,17.74129,21.31966,1006.963
33.481265545,36.28534,-5.238536,5.324526,-0.8606572,-0.28342,-0.04613489,31.33841,16.96564,23.04469,1006.963
33.513824463,-14.6594,9.03689,1.774961,-1.125002,0.1210074,-0.06919564,31.35545,15.87421,23.05252,1006.963
33.546380520,1.460796,4.516338,-0.9790118,-0.9732291,-0.3027997,-0.1676495,31.35545,15.87421,23.05252,1006.964
33.578940392,2.014543,5.170628,-3.855383,-0.8715315,-0.2657224,-0.2271207,31.36137,15.51077,23.11885,1006.962
33.614004135,23.73374,2.553467,-4.834574,-0.9085602,-0.3435805,-0.2055541,30.99466,15.50775,23.05632,1006.964
33.646564007,32.53216,0.8880005,-4.528577,-1.072093,0.05743476,-0.04556437,30.99466,15.50775,23.05632,1006.965
33.679122925,4.844806,8.739486,-4.589777,-0.9639367,-0.1664184,-0.09983852,30.98898,15.87156,23.05371,1006.965
33.714187622,20.47278,6.776613,5.140927,-0.9664798,-0.2973548,-0.1699898,31.33538,16.96085,22.21627,1006.963
33.746742725,10.38228,1.839696,8.751693,-0.9404169,-0.1531198,-0.177482,31.33538,16.96085,22.21627,1006.967
33.779302597,6.936739,-2.621375,9.424886,-0.9686495,-0.1995855,-0.1936317,30.96228,17.38265,22.21441,1006.967
33.814366341,14.6892,-4.762689,8.99649,-0.9392394,-0.2104969,-0.1682076,30.60244,16.95555,22.21865,1006.968
33.846926212,5.398553,-1.66968,8.690493,-0.9654179,-0.172108,-0.1352104,30.60244,16.95555,22.21865,1006.97
33.879485130,10.01311,-1.07487,7.038109,-1.003997,-0.07596911,-0.1187218,31.33701,16.96343,22.66234,1006.97
33.914549828,11.98199,0.4716339,7.9561,-0.9298794,-0.2652134,-0.1859696,31.33375,16.95826,21.7702,1006.966
33.947104931,38.25421,-3.692032,17.07481,-0.954142,-0.2652098,-0.1496929,31.33375,16.95826,21.7702,1006.968
33.979664326,32.90133,-1.312794,22.15436,-0.9633626,-0.1794129,-0.1261397,31.69117,17.75433,22.65549,1006.969
34.012223721,42.99183,-3.57307,23.92914,-0.9750207,-0.1905566,-0.1669021,31.32549,17.38013,21.32108,1006.971
34.047287941,67.11059,-7.855697,28.5803,-0.9950551,-0.1768971,-0.128971,31.32549,17.38013,21.32108,1006.971
34.079847336,75.23222,-13.26846,30.53868,-1.003253,-0.05365952,-0.1062977,31.6937,16.95058,19.98472,1006.969
34.112407208,51.29803,-22.54749,30.35508,-1.016925,-0.06470775,-0.1736424,32.78485,17.38038,19.53204,1006.969
34.147467136,48.03708,-21.53631,25.27553,-0.9793112,-0.05302071,-0.07150792,32.78485,17.38038,19.53204,1006.97
34.180026531,63.84964,-16.71836,25.15313,-0.9572161,0.003949361,0.07435296,33.50316,18.10813,18.63229,1006.972
34.212585926,50.62123,-12.97106,34.45544,-1.072218,-0.1408655,-0.04472258,33.49361,18.093,16.01958,1006.972
34.247650147,79.2315,-13.68483,28.4579,-1.019714,-0.3789779,-0.2214549,33.49361,18.093,16.01958,1006.969
34.280209541,112.3333,-11.9004,15.85082,-0.895602,-0.3886111,-0.09942731,34.59544,17.73196,15.12649,1006.969
34.312769413,130.2378,2.910352,4.773731,-0.9451681,-0.4435544,0.08298212,34.58892,17.72163,13.3422,1006.969
34.347829342,155.7717,1.423329,-9.118531,-1.048658,-0.6272625,0.1054149,34.58892,17.72163,13.3422,1006.971
34.380388737,196.3183,-10.29442,-18.11484,-0.9346553,-0.3831776,0.08872686,35.66476,18.81067,11.54651,1006.971
34.412948132,204.5014,-8.212583,-24.11238,-1.016477,-0.2692848,0.03205483,35.26843,19.87916,8.035015,1006.967
34.448012352,204.9936,-14.57704,-25.82597,-0.9912268,-0.1011565,0.005109501,35.58474,22.03922,3.621166,1006.969
34.480571747,196.9951,-17.67005,-28.21274,-0.941006,-0.1647744,-0.07518335,35.58474,22.03922,3.621166,1006.97
34.513131619,189.058,-18.62175,-29.00834,-1.009519,-0.1906688,-0.1344842,34.45058,23.09466,-1.226168,1006.972
34.545686722,207.1471,-14.1012,-28.76354,-1.049904,-0.3014838,-0.2487627,34.45058,23.09466,-1.226168,1006.972
34.580750942,249.2319,-13.50639,-25.64237,-0.9687208,-0.1139561,-0.2135938,34.04102,24.88782,-5.252682,1006.968
34.613310337,236.3726,-9.402201,-22.8272,-0.9986529,-0.08206005,-0.1531396,33.64953,25.21836,-10.54324,1006.971
34.645870209,232.6195,-3.57307,-17.80885,-0.9991301,-0.01132875,-0.211032,33.64953,25.21836,-10.54324,1006.971
34.680933952,217.7914,0.7690387,-13.83088,-0.8783597,-0.07148793,-0.1028232,32.90558,24.45002,-16.6532,1006.969
34.713493824,204.6245,4.397376,-13.40249,-1.012683,0.01688102,-0.04189003,31.81929,22.226,-22.36918,1006.971
34.746048927,183.7667,5.765438,-9.30213,-0.9699566,0.004881354,0.046827,31.4895,18.92619,-26.29541,1006.971
34.781113148,164.8777,2.791391,-7.894544,-0.9617215,-0.03530356,0.03653844,31.4895,18.92619,-26.29541,1006.971
34.813672543,136.8212,3.3862,-10.15892,-0.9652131,-0.07128746,0.03067568,31.16532,15.57311,-28.94672,1006.967
34.846232414,107.5341,7.78779,-14.25928,-0.9195796,-0.09701514,0.04764069,31.23452,10.83619,-30.18727,1006.968
34.881296158,86.12257,7.311942,-15.23847,-0.9112717,-0.3021486,0.07882283,31.23452,10.83619,-30.18727,1006.97
34.913856029,70.55613,2.969833,-19.09403,-0.9099343,-0.1385157,0.01026159,30.89561,8.640345,-31.9547,1006.97
34.946411133,42.68419,5.586995,-21.11361,-0.7100446,-0.1249961,-0.03806276,30.18782,6.810833,-32.83141,1006.968
34.978971004,50.43665,61.38011,3.121348,-0.7467473,0.1226301,-0.7264451,30.18782,6.810833,-32.83141,1006.968
35.014034748,40.71531,71.49187,-0.9178125,-1.028912,-0.2157543,-0.01835443,30.57133,5.722046,-32.82477,1006.968
35.046594620,53.63608,49.06756,-10.83211,-1.23283,-0.204294,0.2947621,32.44267,3.560165,-31.47683,1006.965
35.079153538,59.85035,35.98175,8.384496,-0.9251766,0.5845498,0.2069244,32.44267,3.560165,-31.47683,1006.965
35.114217281,-67.38843,34.19733,5.87532,-1.426351,0.304651,0.2558259,33.91749,3.212107,-30.58683,1006.965
35.146773338,-46.65368,15.75823,-21.60321,-1.033107,-0.07237606,-0.4555525,35.7742,1.772681,-30.13626,1006.967
35.179332256,-8.629708,12.60575,-17.62525,-0.79232,-0.3564412,0.06821218,35.7742,1.772681,-30.13626,1006.967
35.214396954,42.80724,8.204157,-3.365788,-1.151836,-0.1000725,0.05410212,36.11692,3.601761,-28.87601,1006.964
35.246955872,17.1503,9.274814,-12.1173,-0.9684361,-0.008049923,0.009408232,36.45662,5.426044,-28.44418,1006.964
35.279515743,-10.22942,12.07042,-12.2397,-0.9437422,-0.1166943,0.03092897,36.45662,5.426044,-28.44418,1006.966
35.314579487,6.567575,14.33069,-6.119761,-0.9710301,-0.136515,-0.06988947,37.20824,4.342489,-27.99265,1006.968
35.347135544,2.691345,17.54266,-2.325398,-0.9253633,-0.1190783,-0.03293088,37.19851,5.072693,-27.5518,1006.965
35.379694462,2.014543,21.34944,4.222937,-0.9472649,-0.1645117,-0.04423719,37.19851,5.072693,-27.5518,1006.965
35.412254334,17.39641,16.29356,8.93529,-0.9945578,-0.1294037,-0.09779412,37.5666,5.077923,-27.10692,1006.965
35.447318077,8.228815,17.1263,14.68803,-0.9501489,-0.200234,0.0006580283,37.94039,4.719343,-26.65942,1006.965
35.479877949,18.19626,20.99256,17.9928,-0.9866484,-0.08819567,-0.0527024,37.94039,4.719343,-26.65942,1006.963
35.512436867,41.33059,18.61332,14.74923,-0.9889275,-0.07620102,-0.1313076,39.41195,4.366118,-26.66157,1006.963
35.547497749,89.75269,8.977409,22.70515,-1.163543,-0.06457361,0.01646823,38.70826,2.915914,-24.86446,1006.963
35.580056667,65.38782,-7.082445,25.94872,-0.9533974,0.08726156,0.04081719,38.70826,2.915914,-24.86446,1006.963
35.612616539,4.168004,5.051666,26.31592,-1.094535,-0.2282338,-0.02718226,39.82877,1.466029,-25.30365,1006.963
35.647680283,51.23651,7.728309,22.46036,-1.029212,-0.1178167,-0.07341506,39.49801,-0.7168999,-24.84072,1006.96
35.680239677,92.70601,-0.1231754,24.17394,-1.159302,0.02980217,0.009203186,39.49801,-0.7168999,-24.84072,1006.962
35.712799072,61.81923,-21.59579,10.46528,-1.137522,0.02230065,0.1173441,39.88721,-2.169496,-24.83147,1006.962
35.747859001,22.56471,-65.55221,-32.31311,-0.7792898,-0.2419086,0.566375,39.55724,-4.723984,-25.70415,1006.958
35.780418873,7.305904,-80.66037,-55.26288,-0.9647137,-0.2394487,0.03197668,39.55724,-4.723984,-25.70415,1006.958
35.812977791,19.1807,5.824918,-12.0561,-0.1564235,0.4001249,-1.376307,38.46509,-5.838855,-28.36918,1006.96
35.845537662,-40.31635,32.05601,12.66845,-0.9325514,0.4282736,0.03149837,36.25103,-5.506053,-30.97736,1006.957
35.880601406,-19.70465,29.9147,4.284136,-1.346667,-0.6158757,0.3789842,36.25103,-5.506053,-30.97736,1006.959
35.913161278,38.56185,10.16703,4.957329,-0.7620994,0.3410417,-0.3871512,36.99534,-6.228381,-30.97452,1006.961
35.945716381,-29.73362,6.657651,2.325756,-1.230549,-0.4026211,-0.116236,37.34803,-5.129136,-30.0914,1006.961
35.980781078,15.42753,-6.72556,-6.425758,-1.078668,0.08295087,-0.2235348,37.34803,-5.129136,-30.0914,1006.958
36.013339996,-3.95362,-14.696,-7.649746,-1.002485,-0.002854694,0.05157414,37.72181,-5.487718,-29.6439,1006.962
36.045899868,-12.07525,-7.915178,-5.997363,-1.015396,-0.1678543,-0.03890527,38.07692,-4.757449,-29.65031,1006.959
