Time (s),Gyroscope X (deg/s),Gyroscope Y (deg/s),Gyroscope Z (deg/s),Accelerometer X (g),Accelerometer Y (g),Accelerometer Z (g),Magnetometer X (uT),Magnetometer Y (uT),Magnetometer Z (uT),Barometer (hPa)
0.017081261,-0.6933181,0.109244,0.05324694,0.1582536,0.9075066,0.3603214,18.29613,-41.55503,-3.1797,1006.995
0.049859047,0.6732215,-0.06762629,0.1142912,0.1558106,0.9133106,0.3574302,18.29613,-41.55503,-3.1797,1006.995
0.082635880,0.04954281,-0.1258504,-0.007893106,0.1616224,0.9191868,0.3550009,18.29613,-41.55503,-3.1797,1006.995
0.115413666,-1.066358,-0.1262085,-0.008109724,0.1582251,0.9171634,0.3482729,17.57474,-41.91772,-3.17303,1006.998
0.150712967,-0.5652574,-0.06741436,-0.1302329,0.1562993,0.9123541,0.359356,17.93809,-41.92454,-3.608612,1006.998
0.183490276,0.05692941,0.1095826,-0.1298171,0.1543523,0.9137788,0.3564703,17.93809,-41.92454,-3.608612,1006.998
0.216267586,0.1188374,-0.00825239,-0.129671,0.1596962,0.9123489,0.3545344,18.29686,-41.54909,-2.744588,1006.998
0.249045372,-0.1298378,0.05072548,-0.06862839,0.1592057,0.9137825,0.3511638,18.28937,-41.19059,-3.18543,1006.998
0.281823158,-0.3770902,0.1686115,-0.1906608,0.1543474,0.9162273,0.3583921,18.28937,-41.19059,-3.18543,1006.998
0.317121983,0.1206928,-0.2448323,0.1759439,0.1567869,0.9108735,0.3559875,17.93954,-41.91265,-2.738388,1006.996
0.349899292,0.243819,-0.1258344,0.05333582,0.1621352,0.9085031,0.3588666,18.30362,-41.91352,-2.738858,1007
0.382677078,-0.439665,-0.007339846,0.05308037,0.1611479,0.9148095,0.3564526,18.30362,-41.91352,-2.738858,1007
0.415454864,-0.190169,0.229098,-0.1297704,0.1601726,0.9167562,0.3574147,17.92457,-41.19567,-3.620072,1007
0.450753212,-0.7472131,0.2872037,-0.3119124,0.1587144,0.9167206,0.3540487,18.29613,-41.55503,-3.1797,1007
0.483530998,-0.6819105,-0.009244602,-0.006058398,0.1524146,0.9123183,0.3588839,18.29613,-41.55503,-3.1797,1007
0.516308784,0.6852648,-0.127429,0.1159718,0.158725,0.9123408,0.3545367,17.92602,-41.18378,-2.749848,1007
0.549086571,0.806245,-0.3039837,0.176473,0.1567763,0.9162644,0.3607931,17.56194,-41.1829,-2.749378,1007
0.581863403,-0.4994921,-0.007800438,-0.06806567,0.1601636,0.9201521,0.3554842,17.56194,-41.1829,-2.749378,1006.999
0.617162704,-1.303057,0.3458999,-0.1895042,0.1582357,0.9142982,0.3564603,17.92529,-41.18972,-3.18496,1006.999
0.649940491,-0.6157809,0.3447496,0.1168856,0.1592187,0.9104503,0.3622401,17.93882,-41.91859,-3.1735,1007
0.682717323,0.3781863,-0.2457476,-0.06590013,0.1587248,0.9133483,0.3593488,17.93882,-41.91859,-3.1735,1007.002
0.715495109,0.1902046,-0.186246,-0.06561247,0.1577583,0.9103813,0.3540605,18.65345,-41.19146,-3.1859,1007
0.750794411,-0.1825949,-0.008613838,0.1174826,0.1553245,0.9138036,0.3588748,17.56871,-41.54734,-2.743648,1007.002
0.783572197,-0.305527,0.2276063,0.05633631,0.1567857,0.9113606,0.3559868,18.28937,-41.19059,-3.18543,1007.002
0.816349029,0.1918265,0.0502902,-0.06572667,0.1563025,0.9113933,0.3612829,18.28937,-41.19059,-3.18543,1007.002
0.849126816,0.3150327,-0.303544,-0.06597596,0.1587246,0.9123341,0.3535739,18.29613,-41.55503,-3.1797,1007.002
0.881904602,-0.3680986,0.16973,-0.06566857,0.1601697,0.9172165,0.3535632,18.28937,-41.19059,-3.18543,1007
0.917203903,-0.6143035,-0.007922383,-0.06486291,0.1626213,0.9100319,0.368009,18.28937,-41.19059,-3.18543,1007
0.949980736,0.07024264,-0.007630473,-0.186336,0.1592149,0.9108971,0.3564631,17.57547,-41.91178,-2.737918,1007
0.982758522,0.0082254,0.0515858,-0.1856532,0.155337,0.9099577,0.366101,17.93882,-41.91859,-3.1735,1007
1.015536308,-0.1781118,-0.2438469,-0.001878606,0.1562977,0.9133381,0.3607986,17.93882,-41.91859,-3.1735,1006.999
1.048313618,0.1946374,-0.2436498,0.1813194,0.1577638,0.9104683,0.3665758,17.93206,-41.55416,-3.17923,1006.999
1.083612442,0.7513503,-0.3607841,0.1808109,0.161635,0.9138262,0.3545275,17.93882,-41.91859,-3.1735,1006.999
1.116390228,-0.4301357,-0.005758399,-0.06422447,0.1567878,0.9103832,0.3555069,17.93882,-41.91859,-3.1735,1006.999
1.149168015,-0.5529549,0.230506,-0.00296933,0.1621286,0.9119356,0.362231,18.30362,-41.91352,-2.738858,1006.999
1.181945324,0.6271572,-0.005729025,-0.002440021,0.1596909,0.9152978,0.3583808,17.56798,-41.55328,-3.17876,1007.005
1.217244148,-0.05711149,0.05322191,0.05927253,0.1587112,0.9176813,0.3521218,17.56798,-41.55328,-3.17876,1007.005
1.250021935,-0.9873841,0.2890604,-0.06268723,0.1587345,0.9084479,0.3550239,17.93133,-41.5601,-3.614341,1007.003
1.282799721,0.1326705,-0.1839325,0.05938211,0.1567842,0.9128518,0.3603168,17.92529,-41.18972,-3.18496,1007.003
1.315576553,0.3180047,0.05283554,0.242043,0.1601853,0.9113989,0.3574228,17.92529,-41.18972,-3.18496,1007.003
1.348354340,0.006650206,0.1123798,0.05834514,0.160166,0.9191779,0.3554856,17.93278,-41.54821,-2.744118,1007.003
1.383653641,-0.5505176,0.2299048,0.05814653,0.1558095,0.9132939,0.3550235,18.29613,-41.55503,-3.1797,1007.001
1.416431427,-0.5480394,-0.06619939,-0.003083696,0.1587287,0.9123977,0.3627197,18.29613,-41.55503,-3.1797,1007.001
1.449208259,0.1361197,0.110663,-0.1857827,0.1533825,0.913287,0.3569547,18.30217,-41.92542,-3.609082,1006.999
1.481986046,0.5698447,-0.1257509,-0.002429178,0.1592157,0.9114143,0.3607946,18.28865,-41.19654,-3.620541,1006.999
1.517285347,0.2572466,0.0518377,0.2415927,0.1582282,0.9177175,0.3578993,18.28865,-41.19654,-3.620541,1006.999
1.550063133,-0.1152795,-0.007503828,0.05808804,0.1558131,0.91234,0.3579131,17.56122,-41.18885,-3.18449,1007.003
1.582839966,0.1332834,0.2284713,0.05800468,0.1563142,0.9060193,0.3588842,17.93882,-41.91859,-3.1735,1007.003
1.615617752,0.3804243,-0.1847188,0.1187615,0.1572539,0.9186699,0.3559747,17.93882,-41.91859,-3.1735,1007.003
1.648395538,-0.1169233,0.2291637,-0.1258102,0.1611454,0.9167911,0.3612633,17.93278,-41.54821,-2.744118,1007.003
1.683693886,-0.1777906,0.2286396,0.05762601,0.1596905,0.9152911,0.3574181,18.29613,-41.55503,-3.1797,1007.003
1.716471672,0.2576038,-0.06755167,-0.06403989,0.1562907,0.9162603,0.3607942,17.93278,-41.54821,-2.744118,1007.005
1.749249458,0.5045105,0.05079823,-0.06400881,0.1553258,0.9128128,0.3564695,17.93278,-41.54821,-2.744118,1007.003
1.782027245,0.564945,-0.1263719,0.05772115,0.158716,0.9162403,0.3550122,17.56798,-41.55328,-3.17876,1007.003
1.817325592,0.06729206,0.1098861,-0.06461432,0.1601785,0.9138173,0.3550124,18.29686,-41.54909,-2.744588,1007.002
1.850103378,0.1292942,-0.008413656,-0.003721771,0.1572694,0.9123454,0.3569469,18.29686,-41.54909,-2.744588,1007.002
1.882881165,0.2526776,-0.06728666,0.1182032,0.1606708,0.9119068,0.3598277,18.28261,-40.82616,-3.19116,1007.002
1.915658951,0.4374058,-0.1854388,0.239746,0.1611587,0.9109368,0.359828,17.93278,-41.54821,-2.744118,1007.002
1.948436260,0.3116734,0.05120627,-0.06571821,0.159202,0.9162511,0.3559737,17.93278,-41.54821,-2.744118,1007.004
1.983735085,-0.5581378,0.2278145,-0.004130068,0.1557959,0.9186378,0.35309,18.66094,-41.54996,-2.745058,1007.004
2.016512871,-0.1217969,0.3449601,0.2401273,0.15824,0.9118396,0.3530945,18.29686,-41.54909,-2.744588,1007.004
2.049290657,0.9947683,-0.06885314,0.300448,0.1577479,0.9157753,0.3593474,18.29686,-41.54909,-2.744588,1007.004
2.082067966,0.5558489,-0.3634612,0.1774092,0.1582284,0.9177208,0.3583806,18.65418,-41.18552,-2.750788,1007.004
2.117366791,-0.3141373,0.2276154,-0.006291681,0.155801,0.9177073,0.3593491,18.3029,-41.91947,-3.17397,1007.004
2.150144577,-0.6836329,0.3443725,-0.1280417,0.1558031,0.9167298,0.3588692,18.3029,-41.91947,-3.17397,1007.004
2.182922363,0.001176342,0.1073025,0.1164336,0.1562927,0.9147758,0.3574269,17.92602,-41.18378,-2.749848,1007.003
2.215699673,0.5586023,-0.1289495,-0.06705889,0.1577487,0.9147778,0.3559794,17.93882,-41.91859,-3.1735,1007.003
2.248476982,-0.002098478,-0.1282573,0.1162897,0.1572595,0.9162315,0.355497,17.93882,-41.91859,-3.1735,1007.003
2.283776283,-0.3746961,0.1082501,0.2378232,0.1592131,0.9118779,0.3574243,17.94027,-41.90671,-2.303277,1007.003
2.316554070,0.2469478,0.04912391,0.05372091,0.1577523,0.9138238,0.358869,18.29686,-41.54909,-2.744588,1007.003
2.349330902,0.4318549,-0.1867982,0.2976665,0.1606732,0.910429,0.3574231,18.29686,-41.54909,-2.744588,1007.003
2.382108688,0.3685584,0.05014851,0.1747157,0.1601778,0.9138073,0.3535683,18.28865,-41.19654,-3.620541,1007.003
2.417407989,-0.2517924,0.1683915,-0.252965,0.1582516,0.9079803,0.3583952,17.93882,-41.91859,-3.1735,1007.003
2.450185776,-0.0645594,-0.009332098,-0.1302923,0.1562973,0.9128277,0.3574298,17.93882,-41.91859,-3.1735,1007.009
2.482962608,-0.1266311,0.1090209,-0.1299527,0.1587284,0.9103726,0.3516514,18.66697,-41.92034,-3.17444,1007.009
2.515740394,-0.0637409,-0.009275446,-0.06864075,0.1591972,0.9166811,0.3477899,18.66021,-41.5559,-3.18017,1007.01
2.548518181,0.2468692,0.1682073,0.1145611,0.1592041,0.9162846,0.3607873,18.66021,-41.5559,-3.18017,1007.01
2.583817482,0.3075168,-0.06797494,0.2361594,0.1582354,0.9147986,0.358385,17.93278,-41.54821,-2.744118,1007.01
2.616594314,0.3062828,-0.1857166,0.05214077,0.1567809,0.9122945,0.3502091,18.28937,-41.19059,-3.18543,1007.01
2.649372101,0.3668634,-0.2441076,0.1128448,0.1616445,0.9094295,0.3526087,18.28937,-41.19059,-3.18543,1007.01
2.682149887,-0.007180642,-0.1253163,-0.07063299,0.1601874,0.9104216,0.3569429,17.92529,-41.18972,-3.18496,1007.01
2.717449188,-0.6276353,0.1700484,-0.2530532,0.1572557,0.918193,0.3574195,17.93206,-41.55416,-3.17923,1007.01
2.750226021,-0.6867297,0.3461885,-0.06877389,0.1553306,0.9108681,0.3569537,17.57547,-41.91178,-2.737918,1007.01
2.783003807,-0.002297234,-0.1270188,-0.007692019,0.1538781,0.9089011,0.3559974,17.57547,-41.91178,-2.737918,1007.009
2.815781593,0.183256,-0.2447418,0.2361013,0.1601815,0.9113387,0.3487584,17.57474,-41.91772,-3.17303,1007.01
2.848558903,-0.623482,0.1104967,0.1741457,0.1626019,0.9157891,0.355485,18.29686,-41.54909,-2.744588,1007.01
2.883857727,-0.6822233,0.05095589,-0.131393,0.1582397,0.9133509,0.3603126,18.29686,-41.54909,-2.744588,1007.009
2.916635513,-0.2450845,0.1683776,-0.06971101,0.1582388,0.9138413,0.3607933,18.28937,-41.19059,-3.18543,1007.009
2.949413300,-0.0585413,0.04974701,-0.1914707,0.1592181,0.9089255,0.3530965,17.93206,-41.55416,-3.17923,1007.007
2.982191086,-0.3065322,0.05000762,-0.2518172,0.1592028,0.9162645,0.3578992,17.93206,-41.55416,-3.17923,1007.011
3.014968395,-0.86283,0.04945176,-0.1286321,0.1538527,0.9191119,0.3535753,18.28937,-41.19059,-3.18543,1007.011
3.050267220,-0.7342755,0.1080676,0.1766493,0.1601872,0.9104182,0.3564616,17.93882,-41.91859,-3.1735,1007.009
3.083045006,0.4471214,-0.1872247,0.05388546,0.157263,0.9147704,0.3554992,17.93882,-41.91859,-3.1735,1007.009
3.115822792,0.7546552,-0.1270538,0.2367601,0.1587122,0.9182019,0.3569347,17.93206,-41.55416,-3.17923,1007.009
3.148599625,-0.4885557,-0.1262211,-0.1304518,0.1587177,0.9162671,0.358863,17.92529,-41.18972,-3.18496,1007.009
3.183898926,-0.7341151,0.1687215,-0.2524592,0.1606834,0.9060424,0.3569483,17.92529,-41.18972,-3.18496,1007.009
3.216676712,-0.04935325,-0.06787372,-0.1295776,0.158724,0.9133349,0.3574233,18.29613,-41.55503,-3.1797,1007.008
3.249454498,0.01291015,0.05027314,-0.2511127,0.1567734,0.9167246,0.3569415,17.91999,-40.8134,-2.320467,1007.008
3.282231331,-0.2969671,-0.00874644,-0.1285628,0.1572784,0.9084458,0.3564714,17.91999,-40.8134,-2.320467,1007.012
3.315009117,-0.2335189,0.2276783,-0.006109723,0.1572579,0.9177228,0.359827,18.29686,-41.54909,-2.744588,1007.012
3.350308418,0.1396071,-0.06789468,-0.06715307,0.1577547,0.9128498,0.3588704,17.93206,-41.55416,-3.17923,1007.012
3.383086205,0.201217,-0.2444141,0.1766719,0.1572717,0.9113713,0.3569484,17.93206,-41.55416,-3.17923,1007.01
3.415863037,-0.2953025,0.05111881,0.1153417,0.156774,0.9172384,0.3607916,17.93206,-41.55416,-3.17923,1007.01
3.448640823,-0.1076974,-0.1260524,-0.1902094,0.1601935,0.907486,0.3550219,17.93206,-41.55416,-3.17923,1007.01
3.483940124,0.0168217,-0.06692561,-0.1285153,0.156291,0.914749,0.3535761,17.93206,-41.55416,-3.17923,1007.01
3.516717911,-0.6654641,0.3461432,-0.1889655,0.1601789,0.9153387,0.3636746,18.2901,-41.18465,-2.750318,1007.01
3.549494743,-0.2907283,-0.06837896,-0.005445614,0.1558278,0.9070127,0.3622533,17.93278,-41.54821,-2.744118,1007.01
3.582272530,0.2692314,-0.06809953,0.1167352,0.1621268,0.9124127,0.3607862,17.93278,-41.54821,-2.744118,1007.01
3.615050316,0.3305078,-0.1270998,-0.06656697,0.1582418,0.9123736,0.3598327,17.93206,-41.55416,-3.17923,1007.01
3.650349617,-0.2908253,0.05027302,-0.06619808,0.1577478,0.9152682,0.35646,17.93954,-41.91265,-2.738388,1007.014
3.683126450,-0.8478107,0.2269198,-0.06565996,0.161158,0.9114305,0.36079,18.3029,-41.91947,-3.17397,1007.012
3.715904236,-0.2246474,0.04940283,-0.004188382,0.1596929,0.9148242,0.3603069,18.3029,-41.91947,-3.17397,1007.012
3.748682022,0.02406915,-0.1277615,-0.1872658,0.1562961,0.9138185,0.3598352,17.2039,-41.55241,-3.17829,1007.012
3.783981323,0.02441153,-0.1867752,-0.06443828,0.1558088,0.9147985,0.361279,17.91853,-40.82528,-3.19069,1007.012
3.816758156,0.02440937,-0.2454585,0.1797206,0.1582288,0.9182312,0.3617494,17.91853,-40.82528,-3.19069,1007.012
3.849535942,-0.03755782,-0.127088,0.05726993,0.1601866,0.911419,0.3603109,17.92602,-41.18378,-2.749848,1007.012
3.882313728,-0.09956416,0.05063384,-0.06485417,0.1597035,0.9094334,0.3555014,18.65418,-41.18552,-2.750788,1007.012
3.915091515,0.1488378,-0.2446653,0.3014077,0.160187,0.9104149,0.3559802,18.65418,-41.18552,-2.750788,1007.011
3.950389862,-0.2243646,-0.3024249,0.4831217,0.1587041,0.921611,0.3569295,18.29613,-41.55503,-3.1797,1007.011
3.983167648,0.8314531,-1.363414,2.006192,0.1582159,0.9230814,0.3588539,17.92457,-41.19567,-3.620072,1007.011
4.015945435,1.946929,-1.360605,3.101133,0.1659926,0.9192232,0.3549904,17.92457,-41.19567,-3.620072,1007.011
4.048723221,0.5181517,-2.246995,3.89529,0.1533377,0.9327915,0.3602949,17.93351,-41.54227,-2.309006,1007.012
4.084021568,0.8287556,-2.956107,6.39994,0.1600963,0.9494072,0.3602539,17.93954,-41.91265,-2.738388,1007.012
4.116799355,-0.6621431,-1.183326,9.393302,0.1764942,0.9973035,0.3644751,17.93954,-41.91265,-2.738388,1007.015
4.149577141,-4.699993,2.657698,8.476967,0.1719343,0.8665157,0.3324318,17.93206,-41.55416,-3.17923,1007.015
4.182354927,-2.525766,2.539512,6.644296,0.1811185,0.8896837,0.3612568,17.19641,-41.19392,-3.619132,1007.015
4.215131760,-5.196959,2.362234,6.033406,0.1810342,0.9292802,0.3823772,17.19641,-41.19392,-3.619132,1007.013
4.250431061,-16.75142,1.357659,6.338851,0.1869413,0.8992672,0.4016629,17.21139,-41.9109,-2.737448,1007.011
4.283208847,-4.389389,-0.2969364,6.277762,0.1836395,0.8547921,0.383446,16.85189,-42.2923,-4.036584,1007.013
4.315986633,13.68776,-2.246995,4.994893,0.1958402,0.8184751,0.329078,16.85189,-42.2923,-4.036584,1007.013
4.348764420,2.381775,-1.065141,3.162222,0.1960526,0.940994,0.3678831,16.83234,-41.19305,-3.618662,1007.016
4.384062767,-2.960612,1.062195,3.2844,0.1917653,0.9053778,0.364096,16.48106,-41.92699,-4.041843,1007.014
4.416840553,6.357505,0.2348978,7.377364,0.1925995,0.9648702,0.3736316,16.48106,-41.92699,-4.041843,1007.014
4.449618339,26.42252,0.05761972,22.83289,0.2281955,1.103875,0.3593782,16.12374,-42.29056,-4.035644,1007.012
4.482396126,18.09833,1.712215,47.39067,0.2807941,1.247183,0.3831055,15.75435,-41.91336,-3.170681,1007.012
4.515172958,2.195413,6.02598,75.73598,0.320027,1.276788,0.3208722,15.75435,-41.91336,-3.170681,1007.012
4.550472259,-29.05134,10.51702,109.0295,0.3184039,1.358531,0.3814044,14.66503,-41.88697,-1.428824,1007.012
4.583250046,-57.25417,8.330595,134.3814,0.2790793,1.164351,0.4501437,11.03632,-42.619,-2.282889,1007.01
4.616027832,-41.10276,-3.724312,153.0747,0.3096322,0.9735938,0.4368806,11.03632,-42.619,-2.282889,1007.009
4.648804665,-26.2559,-7.683522,163.9485,0.411731,0.9219194,0.4473063,5.513756,-42.61171,-2.710874,1007.009
4.684103966,-41.91034,-4.019775,171.8901,0.445894,0.8511642,0.4569592,-1.472608,-42.24244,-3.577821,1007.007
4.716881752,-47.68757,-5.142536,176.4718,0.4904671,0.6833078,0.4282247,-8.870379,-39.32123,-4.484409,1007.005
4.749659538,-36.38159,-6.856224,175.4943,0.5588148,0.5229419,0.3974971,-8.870379,-39.32123,-4.484409,1007.003
4.782436371,-27.80892,-6.088019,176.4107,0.6302966,0.4842389,0.4190472,-15.10172,-37.13166,-5.381024,1007.002
4.815214157,-27.68468,-4.256146,179.0375,0.6494179,0.4140359,0.4561725,-21.06313,-33.04801,-5.437413,1007
4.850513458,-22.03169,-0.2378437,175.7998,0.7057424,0.2028477,0.4154415,-21.06313,-33.04801,-5.437413,1007
4.883290768,-6.06665,3.189532,171.3403,0.7268909,0.0930744,0.4328858,-26.60616,-28.66762,-5.934237,1007.004
4.916068554,1.636326,7.089649,162.4213,0.7944596,0.07157248,0.4813755,-30.41692,-22.76701,-6.022095,1007
4.948845863,-4.699993,3.130439,154.5408,0.7684913,-0.02875278,0.5133581,-30.41692,-22.76701,-6.022095,1007.002
4.981623650,22.13618,-4.55161,152.8914,0.7708005,-0.1927224,0.4640195,-33.78827,-17.65704,-6.098086,1007.001
5.016922474,40.52393,-14.65646,146.4771,0.6941515,-0.002341765,0.5486341,-36.43187,-12.48213,-5.74086,1007.001
5.049700260,-9.296931,-17.78837,141.2845,0.6536204,-0.1153526,0.5248325,-36.43187,-12.48213,-5.74086,1006.999
5.082477570,-10.29086,-22.75216,142.1397,0.5571539,-0.1742471,0.5761744,-38.04206,-7.364492,-4.948899,1006.997
5.115255356,-31.41193,-34.15704,139.9405,0.5416791,-0.2178378,0.4896317,-38.87204,-1.829508,-4.599752,1006.995
5.150554180,-43.02851,-37.28896,132.4877,0.5849271,-0.4417378,0.4576153,-38.87204,-1.829508,-4.599752,1006.994
5.183331966,-29.36194,-44.38008,125.2792,0.6010653,-0.4989142,0.4104897,-38.59335,2.997758,-2.500109,1006.994
5.216109276,-56.57084,-41.07089,114.8329,0.5746148,-0.6173792,0.3558558,-38.67916,7.752422,-1.331423,1006.99
5.248887062,-61.04353,-41.72091,100.1105,0.5947937,-0.7443154,0.2876459,-38.67916,7.752422,-1.331423,1006.99
5.281664848,-53.27844,-43.13913,86.24329,0.603259,-0.8344,0.2800598,-36.86997,11.84718,0.7777231,1006.988
5.316963673,-44.14668,-48.10292,68.58856,0.5664221,-0.8665053,0.2599784,-35.83568,15.14827,2.46519,1006.987
5.349741459,-39.67399,-50.46663,49.77314,0.5500205,-0.9245642,0.1951209,-35.83568,15.14827,2.46519,1006.983
5.382518768,-30.91496,-50.11207,30.46901,0.5388131,-0.9222441,0.121977,-34.43003,18.0883,4.468711,1006.983
5.415296554,-14.76356,-44.971,14.83022,0.575641,-0.9044251,0.04869584,-33.34769,18.84427,6.6314,1006.981
5.450595379,6.295384,-39.17992,2.123709,0.5696136,-0.8161846,0.06831297,-33.34769,18.84427,6.6314,1006.98
5.483373165,9.152939,-34.21614,-3.496481,0.5996709,-0.8010232,0.04126257,-31.91625,20.31636,7.911936,1006.978
5.516150474,13.50139,-30.07965,-4.229549,0.6005039,-0.7425618,0.04261657,-32.27148,19.96978,9.161312,1006.978
5.548928261,22.50891,-26.77046,-2.702323,0.6082358,-0.7223682,0.06567316,-32.27148,19.96978,9.161312,1006.978
5.581705570,17.415,-22.3976,-1.908166,0.6450644,-0.6944337,0.04628924,-31.91344,20.33929,9.590223,1006.976
5.617004871,14.24684,-15.07011,0.9019286,0.6524001,-0.7228549,0.01261935,-31.54791,20.3503,10.45998,1006.974
5.649782658,13.62564,-5.260722,4.322913,0.6678976,-0.7122483,-0.02161008,-31.54791,20.3503,10.45998,1006.977
5.682559490,19.89983,7.385112,7.255186,0.667944,-0.734255,-0.03457379,-31.55468,20.71474,10.45425,1006.975
5.715337276,25.4907,19.32183,9.454391,0.7092443,-0.7587441,-0.1039509,-31.18456,20.34349,10.02439,1006.975
5.750636578,45.92844,40.5952,11.22597,0.7350381,-0.8177276,-0.2825084,-31.19278,20.69604,9.148442,1006.973
5.783414364,76.18126,86.92387,10.61508,0.7519289,-0.8121468,-0.4808779,-31.19278,20.69604,9.148442,1006.972
5.816192150,97.11596,159.076,4.017468,0.7008621,-0.8133575,-0.6636724,-30.86113,22.17883,6.575586,1006.97
5.848968983,160.2928,268.752,-1.114009,0.7376092,-0.7624542,-0.7418169,-32.33271,22.47713,1.474713,1006.968
5.881746769,610.6685,91.11945,242.2035,-11.19536,2.601808,15.8186,-32.33271,22.47713,1.474713,1006.968
5.917046070,-441.4712,-186.2025,86.79309,3.788735,-1.736948,-2.088177,-32.35816,22.68873,-9.719604,1006.968
5.949823856,116.0007,59.74123,40.18216,-1.645382,-0.3284826,0.9354318,-31.59362,20.81595,-8.820715,1006.966
6.015378475,68.10555,-16.78379,-29.64258,0.5613983,0.1233553,0.7841454,-29.82845,23.78782,-8.869859,1006.967
6.050677776,-57.9375,9.453356,-24.69437,0.3702448,-1.263244,0.3144727,-30.5513,23.41324,-9.733413,1006.965
6.083455563,60.52682,-11.82001,-25.91615,0.3923164,-0.4812536,0.6097606,-30.5513,23.41324,-9.733413,1006.965
6.116233349,-18.24232,-1.301512,-27.26011,0.4781522,-0.6459004,0.5727404,-31.25844,22.32762,-9.280171,1006.964
6.149010181,-7.433307,5.080498,-30.49783,0.4620142,-0.8079318,0.5441412,-31.61648,21.95811,-9.709083,1006.968
6.181787968,26.60888,5.198683,-38.4394,0.3940637,-0.8055181,0.6227606,-31.61648,21.95811,-9.709083,1006.966
6.217087269,15.42714,-2.36518,-57.07155,0.3424371,-0.7331294,0.6588761,-32.68876,20.79479,-10.55975,1006.966
6.249865055,1.077239,-1.183326,-72.46597,0.4234752,-0.7226573,0.5965724,-32.66775,19.70742,-10.10745,1006.966
6.282641888,8.718094,-6.56076,-89.99852,0.4478028,-0.7444144,0.5902898,-32.66775,19.70742,-10.10745,1006.964
6.315419674,28.7831,-11.99729,-105.8817,0.4004444,-0.6437837,0.5502975,-34.09025,17.88873,-10.07692,1006.964
6.350718975,25.05586,-17.19744,-114.7396,0.563763,-0.5099941,0.5429694,-35.50672,15.69965,-10.47577,1006.964
6.383496761,16.60743,-19.26569,-122.9255,0.4816402,-0.4793183,0.5705556,-35.50672,15.69965,-10.47577,1006.963
6.416274071,28.59674,-27.42048,-131.7223,0.5563952,-0.4835932,0.496255,-36.53061,12.06384,-9.981952,1006.963
6.449051380,37.66638,-29.19326,-140.0915,0.6181501,-0.3236145,0.4549516,-37.53985,7.638423,-9.475715,1006.965
6.481829166,13.812,-27.00683,-147.3611,0.6500298,-0.2395935,0.5226214,-37.53985,7.638423,-9.475715,1006.965
6.517127991,5.612056,-31.43878,-154.0809,0.670287,-0.1839794,0.5114183,-38.58949,2.119836,-8.952211,1006.963
6.549905777,16.79379,-27.30229,-161.656,0.8342564,-0.1430707,0.3838882,-38.12785,-2.959379,-7.132014,1006.963
6.582683563,23.06799,-21.39302,-168.9256,0.722778,-0.01457149,0.4364274,-38.12785,-2.959379,-7.132014,1006.963
6.615460873,11.94837,-20.27026,-172.2854,0.7660929,0.1469487,0.4288607,-38.03134,-8.116292,-6.615726,1006.969
6.650759697,23.81344,-11.34727,-159.3346,0.718383,0.3915986,0.3684349,-36.39806,-14.30432,-5.712211,1006.969
6.683537483,-30.85284,-3.842498,-151.8817,0.7773122,0.5372688,0.4441308,-33.38217,-19.83265,-5.193954,1006.967
6.716315269,-52.71935,11.28523,-140.0304,0.7517229,0.4741706,0.4361034,-33.38217,-19.83265,-5.193954,1006.967
6.749093056,-49.11634,26.23568,-130.9893,0.6563277,0.3537095,0.3874123,-30.74719,-24.58833,-5.992975,1006.967
6.781870365,-42.22094,27.41753,-125.4302,0.6294598,0.4469358,0.5187473,-26.97907,-28.31929,-7.182673,1006.967
6.817169189,-36.1331,24.58108,-124.1473,0.5799161,0.4619351,0.5640903,-26.97907,-28.31929,-7.182673,1006.967
6.849946976,-7.868153,21.62645,-116.7555,0.5786525,0.5907062,0.5932622,-22.55969,-31.27498,-9.31803,1006.972
6.882724762,-22.28017,26.41296,-114.373,0.5435484,0.6482837,0.5807433,-18.88125,-33.4941,-11.0288,1006.972
6.915502071,-27.56044,35.7496,-107.2867,0.5546715,0.6779835,0.6360288,-18.88125,-33.4941,-11.0288,1006.972
6.948279858,-32.71646,39.94518,-99.89494,0.5167601,0.70588,0.7010605,-14.77047,-36.07189,-12.23711,1006.972
6.983578682,-39.67399,37.99512,-89.0211,0.4584492,0.7320047,0.745926,-9.654154,-37.25599,-13.53088,1006.972
7.016356468,-52.59511,34.56775,-79.49121,0.4051801,0.6651024,0.7143833,-9.654154,-37.25599,-13.53088,1006.972
7.049134254,-51.60118,32.61769,-71.30528,0.3330088,0.5809092,0.6703961,-5.221417,-37.66076,-15.70642,1006.972
7.081911564,-51.10421,36.93145,-66.11272,0.2801518,0.5426652,0.6272566,-2.312328,-37.69661,-17.82358,1006.972
7.117210388,-54.6451,46.44537,-64.03569,0.2631989,0.5229754,0.6176992,-2.312328,-37.69661,-17.82358,1006.972
7.149988174,-51.16633,59.62304,-72.09944,0.2822791,0.4758702,0.6846342,1.743534,-37.36569,-19.575,1006.973
7.182765961,-38.86642,69.84608,-89.44872,0.2518792,0.4240506,0.8335252,5.367256,-36.67442,-21.70456,1006.976
7.215543747,17.72561,53.77287,-109.6692,0.1269437,0.5475432,1.162887,5.367256,-36.67442,-21.70456,1006.978
7.248320580,222.2893,-21.74758,-50.96265,0.04308797,1.736115,1.291262,10.50215,-35.54462,-22.59959,1006.978
7.283619881,-43.83608,-22.10214,22.89397,0.1289575,1.06234,0.8092681,15.58176,-34.4406,-20.94507,1006.981
7.316397667,-42.65578,-13.82916,39.4491,0.0805265,0.565872,0.6325086,15.58176,-34.4406,-20.94507,1006.981
7.349175453,-19.23626,-9.929044,25.21536,0.132418,0.3763961,0.5676873,16.70852,-36.25945,-20.48272,1006.979
7.381953240,-7.495428,3.071347,7.499542,0.2371173,0.4633059,0.6130374,14.88751,-36.26019,-20.85332,1006.979
7.417251587,-18.05596,16.78085,-8.505779,0.1787526,0.527484,0.7372705,14.88751,-36.26019,-20.85332,1006.979
7.450029373,-0.7242638,14.12168,-10.46063,0.132558,0.5745668,0.8398391,13.78779,-35.89907,-21.29275,1006.984
7.482807159,14.4332,5.13959,-4.901528,0.1138417,0.6960508,0.8926502,14.14365,-35.5474,-22.16917,1006.984
7.515584946,0.3939102,-0.8878632,1.634997,0.1134463,0.6489641,0.8455487,14.14365,-35.5474,-22.16917,1006.984
7.548362732,2.00905,-1.774253,2.06262,0.15004,0.5575612,0.7546222,14.87254,-35.5432,-21.735,1006.984
7.583661079,9.277181,-0.178751,-0.7474748,0.1291308,0.5705602,0.7580218,14.88606,-36.27207,-21.72354,1006.982
7.616438866,6.233263,0.7076392,-1.05292,0.1323566,0.6502149,0.7925521,14.88606,-36.27207,-21.72354,1006.982
7.649216652,2.071171,0.8849173,-0.01440668,0.1381874,0.6467907,0.7833976,14.8793,-35.90763,-21.72927,1006.982
7.681994438,-0.8485054,1.298566,0.1688604,0.1377837,0.6091717,0.7670889,15.24337,-35.90851,-21.72974,1006.982
7.717293262,2.568137,1.121288,-0.3198518,0.1256872,0.5915543,0.7695509,14.50919,-35.53638,-21.29942,1006.986
7.750070572,2.81662,0.05761972,-0.5642078,0.1372926,0.6161535,0.7911476,14.50919,-35.53638,-21.29942,1006.986
7.782848358,1.760567,0.4121758,-0.6252968,0.1353044,0.6346142,0.7867922,15.61567,-36.26193,-20.85426,1006.986
7.815625668,1.325722,0.5303612,-0.3198518,0.137291,0.6130974,0.7718978,14.51657,-35.89573,-20.92074,1006.986
7.848403454,0.8908764,0.4121758,-0.5031188,0.1304819,0.6169068,0.7675759,14.51657,-35.89573,-20.92074,1006.984
7.883702755,1.139359,0.4121758,-0.2587627,0.1338701,0.6218188,0.769486,14.88741,-36.26104,-20.91548,1006.984
7.916479588,0.8287556,0.2348978,-0.4420298,0.1304955,0.6135846,0.7800963,15.23734,-35.53813,-21.30036,1006.986
7.949257374,2.00905,-0.06056564,-0.1976737,0.1319364,0.6173892,0.765165,15.23734,-35.53813,-21.30036,1006.984
7.982035160,2.443896,-0.06056564,-0.1365847,0.1338835,0.6154606,0.7656446,15.23734,-35.53813,-21.30036,1006.984
8.017334461,1.884809,0.1167124,-0.4420298,0.1348232,0.629626,0.7704346,15.25221,-36.25596,-20.48084,1006.989
8.050112247,0.02118551,0.1167124,-0.2587627,0.1295004,0.6222928,0.7728651,15.25221,-36.25596,-20.48084,1006.989
8.082889080,0.7666348,0.2939905,-0.1976737,0.1324319,0.6130033,0.7642077,15.61669,-36.32352,-20.91546,1006.989
8.115666866,0.8908764,0.1758051,-0.1976737,0.1333927,0.6168909,0.7617927,14.88065,-35.8966,-20.92121,1006.99
8.148444653,1.884809,-0.1196583,-0.3198518,0.1304827,0.6169202,0.7695013,14.88065,-35.8966,-20.92121,1006.992
8.183743954,1.20148,-0.1196583,-0.0754957,0.1294828,0.6285839,0.7670794,15.25875,-36.69218,-21.28222,1006.992
8.216521740,-0.2272976,0.2348978,-0.2587627,0.1304646,0.6226975,0.7598655,15.24545,-35.89153,-20.48657,1006.99
8.249298573,0.08330628,0.6485465,-0.4420298,0.12998,0.6242249,0.7699729,15.24545,-35.89153,-20.48657,1006.99
8.282076359,0.8287556,0.1758051,-0.2587627,0.129984,0.6222667,0.7685318,15.25086,-36.267,-21.2889,1006.99
8.317375660,1.698446,0.2348978,-0.3809408,0.1275426,0.6286012,0.7718976,15.25294,-36.25002,-20.04572,1006.992
8.350153446,1.574205,-0.178751,-0.1365847,0.1251315,0.6202547,0.7651768,15.25294,-36.25002,-20.04572,1006.992
8.382931233,1.325722,-0.178751,-0.1976737,0.1319284,0.6213055,0.7680473,15.61556,-36.26278,-20.91642,1006.995
8.415708065,1.946929,-0.178751,-0.1365847,0.1314325,0.6241701,0.7603422,15.60214,-35.53306,-20.86572,1006.996
8.448485851,1.325722,0.3530831,-0.01440668,0.1357919,0.6285864,0.7598439,15.60214,-35.53306,-20.86572,1006.996
8.483785152,0.1454271,0.1758051,-0.0754957,0.1343386,0.6276169,0.7622557,15.61639,-36.25599,-20.41915,1006.996
8.516562939,0.3317894,0.3530831,-0.0754957,0.1304509,0.6285452,0.760338,15.25221,-36.25596,-20.48084,1006.996
8.549340248,1.20148,-0.1196583,-0.1365847,0.1275361,0.6290045,0.7598629,15.25221,-36.25596,-20.48084,1006.998
8.582117557,0.2696686,0.1758051,0.04668234,0.1285163,0.626124,0.7646785,14.88814,-36.25509,-20.48037,1006.996
8.617416859,0.1454271,-0.178751,0.1688604,0.1275355,0.6300054,0.7637123,15.6088,-35.89834,-20.92215,1006.998
8.650194168,0.02118551,-0.06056564,0.2299494,0.1270608,0.6266357,0.7699762,15.62356,-36.68711,-20.84758,1006.998
8.682971954,1.20148,-0.06056564,0.2299494,0.1270541,0.6285502,0.7651597,15.62356,-36.68711,-20.84758,1007.002
8.715749741,1.884809,-0.5333071,-0.0754957,0.1319268,0.6207749,0.7617903,15.61556,-36.26278,-20.91642,1007.002
8.748527050,2.81662,-0.06056564,-0.0754957,0.1333526,0.6344473,0.7651359,15.24472,-35.89747,-20.92168,1006.996
8.783825874,1.884809,-0.2378437,-0.1976737,0.1265553,0.6318751,0.7536032,15.24472,-35.89747,-20.92168,1007.001
8.816603661,2.381775,-0.2378437,-0.1365847,0.1324016,0.6256627,0.7637073,15.60953,-35.8924,-20.48704,1007.001
8.849381447,1.822688,-0.001472959,-0.01440668,0.1333353,0.6387234,0.7497259,15.62418,-36.68201,-20.47462,1007.001
8.882159233,0.2075478,0.1758051,-0.0754957,0.1314061,0.6348712,0.7584008,15.62418,-36.68201,-20.47462,1007.001
8.914936542,0.9529971,-0.2969364,0.04668234,0.1304399,0.6329184,0.7588874,15.61629,-36.25684,-20.48131,1006.999
8.950235367,1.325722,-0.4151217,0.1077714,0.1304227,0.6392162,0.7540644,15.25294,-36.25002,-20.04572,1006.999
8.983013153,0.704514,-0.5923998,0.1077714,0.1284776,0.6406711,0.7555109,15.25294,-36.25002,-20.04572,1006.999
9.015790939,1.263601,-0.7696778,0.04668234,0.1285011,0.6314411,0.7588942,15.25937,-36.68708,-20.90926,1006.999
9.048568726,2.00905,-0.6514925,0.04668234,0.1323779,0.6328676,0.7492557,15.24545,-35.89153,-20.48657,1006.999
9.083867073,2.81662,-1.065141,-0.1976737,0.1246112,0.6348614,0.765156,15.24545,-35.89153,-20.48657,1006.997
9.116644859,4.245399,-1.537883,-0.0754957,0.1323795,0.6333982,0.7555125,14.88814,-36.25509,-20.48037,1006.999
9.149422646,2.81662,-1.774253,-0.0754957,0.1333213,0.647597,0.7651162,15.61066,-35.95314,-20.48608,1006.995
9.182200432,-0.9106262,-1.124234,0.04668234,0.1371713,0.6637582,0.7732658,15.61066,-35.95314,-20.48608,1006.995
9.315832138,-7.433307,-6.501668,7.377364,0.1265642,0.6390885,0.810393,15.25149,-36.26191,-20.91595,1006.995
9.348609924,-8.613603,-7.742614,4.628358,0.1203705,0.5954312,0.843206,14.52479,-36.24827,-20.04478,1006.995
9.383908749,1.698446,-13.06096,1.390641,0.1492068,0.5147569,0.8336321,14.52479,-36.24827,-20.04478,1006.995
9.416686535,19.15438,-14.77464,-3.191036,0.1403295,0.5731539,0.8374159,13.4311,-36.25755,-20.9136,1006.995
9.449463844,6.605988,-11.70182,-3.55757,0.1289064,0.69182,0.8964717,13.43183,-36.2516,-20.47849,1006.995
9.482241630,-2.401525,-16.13378,5.300338,0.1168085,0.6777154,0.9138507,13.43183,-36.2516,-20.47849,1006.995
9.515019417,17.35288,-25.5886,18.98428,0.153876,0.5871433,0.801742,12.69909,-35.86758,-19.17794,1006.995
9.550318241,33.00732,-22.98853,21.42784,0.1814255,0.6303279,0.7452922,12.33574,-35.86077,-18.74236,1006.994
9.583096027,53.69354,-24.05219,21.12239,0.1965615,0.5862963,0.6986306,12.33574,-35.86077,-18.74236,1006.994
9.615873337,49.53145,-28.72052,25.88734,0.2558126,0.7849709,0.6919329,10.88692,-36.21577,-18.29964,1006.992
9.648651123,-5.196959,-9.279024,26.92585,0.2465286,0.8112603,0.7015426,9.382799,-36.59655,-15.30737,1006.992
9.683949947,-42.4073,-7.506244,29.9803,0.2564362,0.7502624,0.8128055,7.199062,-36.58538,-14.86944,1006.996
9.716727734,-77.44342,-12.05638,23.07724,0.2403435,0.5803533,0.8419815,7.199062,-36.58538,-14.86944,1006.996
9.749505520,-76.94646,-17.90656,16.60181,0.214849,0.4722679,0.8080282,6.11755,-37.33456,-16.53486,1006.996
9.782282829,-62.22383,-20.62482,14.46369,0.1807672,0.5104494,0.8066074,4.630888,-35.83041,-17.86219,1006.995
9.815060615,-48.80574,-21.45212,13.91389,0.2191641,0.4830607,0.7439806,4.630888,-35.83041,-17.86219,1006.995
9.850359440,-49.11634,-16.60652,18.55665,0.2175142,0.5527619,0.6837093,3.145354,-34.387,-19.18857,1006.995
9.883137226,-53.34056,-11.82001,25.76516,0.2559548,0.4987791,0.5787626,1.682283,-34.01908,-19.19242,1006.993
9.915915012,-64.46018,-3.960683,33.95108,0.2831141,0.485866,0.4400854,1.682283,-34.01908,-19.19242,1006.993
9.948692322,-73.84042,14.06258,37.43316,0.3346844,0.4504832,0.4727491,0.1293076,-32.21109,-20.52445,1006.991
9.983991146,-65.14351,25.2902,27.35347,0.4438568,0.2895223,0.5174994,-0.6151726,-31.50339,-22.21325,1006.991
10.016768932,-43.8982,36.28143,11.47033,0.5610479,0.2274798,0.5596747,-0.6151726,-31.50339,-22.21325,1006.991
10.049546719,-8.489362,36.87236,-13.14855,0.6187001,0.1006701,0.6747745,-1.371099,-30.04984,-22.67035,1006.991
10.082324505,39.90273,40.00427,-33.61337,0.7389488,0.2085984,0.8524305,-0.2856281,-29.68802,-22.67748,1006.991
10.115102291,63.63287,41.4225,-42.65454,0.577903,0.3638525,0.9599222,-0.2856281,-29.68802,-22.67748,1006.991
10.150400639,-7.122704,9.0988,-47.23622,0.208175,0.7267136,1.336677,1.590857,-29.31027,-21.38031,1006.989
10.183178425,17.35288,-6.619853,-46.01444,0.1174197,0.2321743,0.9977963,3.447126,-31.11983,-20.11083,1006.991
10.215956211,32.57248,-15.01101,-48.39691,0.09778666,0.5191544,0.967566,3.447126,-31.11983,-20.11083,1006.989
10.248733997,29.71492,-19.38387,-29.5204,0.04793984,0.6445796,0.9241726,5.981419,-30.40301,-20.56069,1006.992
10.284032822,-8.054516,-23.9931,-6.856377,0.1901703,0.6779625,1.001284,7.096841,-31.47516,-18.80447,1006.992
10.316810131,-9.110569,-34.15704,3.650934,0.2818281,0.5284439,1.031618,7.096841,-31.47516,-18.80447,1006.99
10.349587917,-10.29086,-56.37589,4.139647,0.1932108,0.4557166,1.185492,7.089354,-31.11667,-19.24531,1006.988
10.382365704,44.99663,-89.46779,1.146285,0.1904988,0.3482164,1.068208,5.646567,-31.84205,-19.23197,1006.988
10.415143490,95.31445,-109.7366,13.24191,0.2667499,0.5137709,0.9007453,5.646567,-31.84205,-19.23197,1006.987
10.450442314,92.14629,-109.1457,39.32692,0.4236023,0.7047057,0.8543562,4.184949,-31.46224,-18.36559,1006.987
10.483220100,71.70856,-107.0774,50.75056,0.5591515,0.6534747,0.7482123,1.290836,-32.14338,-15.36675,1006.985
10.515997410,51.45719,-103.8273,60.52481,0.5783214,0.7572729,0.7335696,1.290836,-32.14338,-15.36675,1006.985
10.548775196,22.38466,-96.79528,66.93916,0.704179,0.6870755,0.5730834,-1.651784,-33.56427,-13.16444,1006.987
10.584074020,-5.507563,-69.61265,84.96042,0.5264739,0.6489114,0.4113435,-6.367738,-34.25294,-11.03347,1006.985
10.616851807,-55.63903,-69.73083,105.914,0.3440155,0.4077554,0.4804931,-10.43858,-33.86687,-10.16373,1006.983
10.649629593,-7.930274,-87.63592,98.82763,0.6727254,0.2015881,0.4140776,-10.43858,-33.86687,-10.16373,1006.983
10.682406425,-3.892423,-74.28097,99.43851,0.6503042,0.4303935,0.3560226,-14.83528,-32.40459,-10.61612,1006.987
10.715184212,-93.03574,-51.70757,98.21674,0.5928457,0.5354917,0.5504706,-18.93171,-30.54889,-8.899077,1006.986
10.750483513,-136.2718,-52.2985,96.56734,0.3557211,0.1692473,0.4168037,-18.93171,-30.54889,-8.899077,1006.986
10.783261299,-55.70115,-56.90773,104.8754,0.6964388,0.00557756,0.2838678,-21.50947,-29.10286,-10.22404,1006.982
10.816039085,-26.69075,-39.88903,89.78645,0.9885491,0.09578501,0.2979612,-25.58307,-25.38815,-10.27713,1006.982
10.848816872,-76.76009,-53.0667,83.61646,1.178896,0.0464257,0.04486919,-25.58307,-25.38815,-10.27713,1006.98
10.884115219,-89.9297,-2.36518,53.80502,1.181141,-0.3448492,-0.264062,-27.88157,-22.46133,-9.884961,1006.977
10.916893005,-52.03602,19.79457,39.38801,1.082587,-0.3060095,-0.02320593,-30.12689,-19.17616,-9.933712,1006.975
10.949670792,-34.20736,31.37674,39.93781,0.985986,-0.3013361,0.06462398,-30.12689,-19.17616,-9.933712,1006.973
10.982448578,-4.886355,52.41373,27.10912,0.7647821,-0.1609206,0.2117524,-30.88427,-17.7345,-11.26103,1006.973
11.015226364,-27.7468,37.40419,26.86476,0.4946926,-0.07756151,0.4072188,-31.63736,-16.60758,-13.39163,1006.973
11.050525188,1.698446,-18.85204,38.41058,0.2860817,-0.1269449,0.5603797,-31.63736,-16.60758,-13.39163,1006.972
11.083302498,66.80102,-80.30843,66.26718,0.4061248,-0.0247697,0.2610154,-30.92491,-15.89828,-14.70937,1006.972
11.116080284,79.53578,-112.9276,101.8821,1.502151,0.3733325,0.3714171,-31.66368,-15.14388,-12.97944,1006.968
11.148858070,-47.43908,-102.0545,112.6337,1.011906,0.1073722,0.4654022,-31.66368,-15.14388,-12.97944,1006.968
11.181635380,-86.3267,-111.2139,158.8781,1.250186,-0.2584239,0.3850009,-32.77652,-13.63087,-9.147103,1006.971
11.216934681,-139.3778,-94.2543,172.9897,0.7490395,-0.9319879,0.008854445,-34.64529,-10.66431,-5.771859,1006.969
11.249711990,-55.63903,-44.85282,196.1424,0.8479195,-0.8313676,0.1418055,-34.64529,-10.66431,-5.771859,1006.969
11.282489300,-154.4732,-40.53905,150.57,0.5522563,-1.501335,-0.03410599,-35.82967,-5.469117,-3.676067,1006.967
11.315267086,-6.128771,-68.19442,73.04807,0.5113789,-1.126292,-0.4023347,-37.0279,0.3823247,-2.461002,1006.967
11.350566387,-57.37841,0.5894538,0.3521274,0.3691508,-1.117201,-0.2547143,-37.0279,0.3823247,-2.461002,1006.965
11.383344174,32.38611,-54.7213,-18.34111,0.4077044,-0.2551751,0.3942147,-36.37993,4.831545,-1.28848,1006.965
11.416121960,-86.45094,-55.37132,5.544694,1.001252,-0.1918096,0.03794781,-37.49027,5.945306,0.001074553,1006.964
11.448898792,-57.00568,11.34432,2.67351,0.7429894,-0.4395259,-0.04482323,-37.49027,5.945306,0.001074553,1006.968
11.481676578,-45.82394,19.67639,-3.374303,0.7683344,-0.4322571,0.1996375,-37.47456,5.234263,1.317869,1006.966
11.516975880,-47.06636,8.86243,-33.9799,0.9706842,-0.578601,0.203229,-38.26268,5.242097,1.753999,1006.966
11.549753666,-48.24665,-8.983561,-79.85774,1.429896,-0.7759015,-0.07578991,-38.26268,5.242097,1.753999,1006.966
11.582531452,-112.9144,37.10873,-107.6532,1.160498,-0.9959049,0.05803649,-38.24166,4.15473,2.206301,1006.964
11.615309238,-112.2311,32.26313,-133.9826,1.214552,-1.098596,-0.1364071,-38.5655,1.896353,1.371882,1006.963
11.650607586,-75.45556,16.42629,-152.9202,1.008614,-0.4536763,-0.08779176,-38.50537,-1.389523,0.9883406,1006.963
11.683385372,-75.14496,26.41296,-128.7901,0.7818348,-0.05634753,-0.1793114,-38.50537,-1.389523,0.9883406,1006.963
11.716163158,-93.15998,21.74463,-116.8166,0.589631,0.09887964,-0.2484056,-38.04737,-6.498457,0.6329789,1006.963
11.748940945,-112.6659,10.6943,-97.51247,0.2784166,0.09480338,-0.1802707,-37.19197,-10.22329,-0.6151192,1006.965
11.781718254,-67.25562,-41.78,-54.07819,0.5916109,0.05906991,-0.3725416,-37.19197,-10.22329,-0.6151192,1006.965
11.817017555,-78.06463,-29.48872,-55.60541,0.525761,0.1159798,-0.7243466,-36.03348,-13.88132,-1.367293,1006.965
11.849794865,-52.53299,-38.41172,-46.56424,0.3590466,0.0226272,-0.50094,-35.27089,-15.70015,-0.9666297,1006.965
11.882572174,-1.22123,-72.39,-11.37696,0.5426341,0.2223206,-0.4405435,-35.27089,-15.70015,-0.9666297,1006.965
11.915349960,-6.936341,-72.80365,-1.66381,0.8672554,0.06596293,-0.6933113,-34.50635,-17.57293,-0.06774139,1006.965
11.950649261,86.36906,-53.18489,-1.785988,0.6670021,0.146541,-0.7016224,-33.75574,-18.65016,1.253844,1006.967
11.983427048,35.86488,-61.10331,10.06528,1.231127,0.02234016,-0.5400729,-33.75574,-18.65016,1.253844,1006.967
12.048981667,25.61494,-31.2615,-14.37033,1.526845,-0.4044269,-0.6325526,-32.6632,-18.2306,5.473503,1006.967
12.081759453,19.77559,-13.77007,-25.91615,1.534373,-0.262642,-0.4233918,-32.6632,-18.2306,5.473503,1006.967
12.117058754,-30.23163,14.23986,-42.53236,1.176838,-0.4549778,-0.6874841,-31.92466,-18.56706,7.653852,1006.971
12.149836540,5.425694,44.84987,-61.04234,1.248041,-0.3914505,-0.742624,-31.91862,-18.93744,7.22447,1006.971
12.182614327,-32.90282,92.53767,-73.4434,1.218928,-0.1408302,-0.4570038,-31.91862,-18.93744,7.22447,1006.971
12.215391159,-60.29808,114.5792,-100.3837,0.695556,-0.1344976,-0.2478238,-31.89303,-20.40708,6.377167,1006.971
12.250690460,-36.94067,85.50565,-90.42615,0.9438419,0.03575839,-0.08596899,-31.14271,-21.90648,3.477683,1006.971
12.283468247,-100.1175,101.8152,-90.60941,0.8215352,0.2083555,-0.1225225,-31.14271,-21.90648,3.477683,1006.971
12.316246033,-134.4703,100.3379,-94.51911,0.7951893,0.2683088,-0.08404145,-30.35952,-25.23571,0.04741979,1006.971
12.349023819,-154.8459,85.56474,-86.45536,0.6492501,0.3704786,-0.1343923,-29.60287,-27.17302,-3.777761,1006.971
12.381801605,-161.9277,94.36954,-67.76212,0.7002599,0.3404822,-0.2369981,-29.60287,-27.17302,-3.777761,1006.971
12.417099953,-141.9869,81.96008,-56.82719,0.711296,0.4683393,0.1363197,-27.32795,-29.45333,-10.2108,1006.971
12.449877739,-166.5246,58.08663,-38.50049,0.7111037,0.5784846,0.2873017,-24.78199,-29.9003,-15.80265,1006.971
12.482655525,-182.2412,46.209,-45.15919,0.6265031,0.384091,0.09958297,-24.78199,-29.9003,-15.80265,1006.971
12.515432835,-145.7763,47.0363,-49.43542,0.5754989,0.3889158,0.08429309,-22.97022,-29.97514,-20.96418,1006.969
12.550732136,37.60426,-10.57906,-43.02108,0.3588226,-0.005603554,-0.07778,-20.45724,-28.59313,-26.08741,1006.969
12.583509922,101.2159,-27.71594,-34.28535,0.3946682,1.159121,0.4696133,-18.24848,-26.72747,-26.99014,1006.969
12.616286755,-12.15449,-15.66103,-3.740837,0.6087264,0.06868333,-0.06115568,-18.24848,-26.72747,-26.99014,1006.967
12.649064541,127.99,-18.02474,-0.8696529,0.6104949,0.7458375,-0.1093539,-18.19649,-29.3104,-24.83567,1006.967
12.681842327,0.3939102,15.5399,11.22597,0.7537764,1.056278,0.5170527,-18.23253,-30.3679,-22.20773,1006.967
12.717141628,55.92989,17.78543,-0.3198518,1.228246,0.3082104,-0.04950796,-18.23253,-30.3679,-22.20773,1006.967
12.749919414,35.18155,30.0767,-29.21496,0.9174581,0.8057993,0.3702267,-17.78749,-31.46223,-22.19109,1006.967
12.782697201,44.74815,3.721366,-35.81257,0.8757644,0.7610058,0.2823039,-17.0376,-32.54541,-21.30462,1006.972
12.815474033,106.7447,-6.383482,-28.48189,0.9499382,0.9582707,-0.01516957,-17.0376,-32.54541,-21.30462,1006.972
12.848251820,49.59357,3.662273,-7.89489,0.8320892,0.5191019,0.147028,-15.571,-32.88446,-19.18737,1006.966
12.883551121,96.74323,-12.47003,-2.885591,0.8013206,0.4902885,-0.3876484,-14.80613,-34.68462,-17.41921,1006.97
12.916328907,-9.17269,23.75379,-2.763412,0.8109847,1.204353,0.03003712,-14.80613,-34.68462,-17.41921,1006.97
12.949106693,-23.52259,19.67639,3.101133,0.9190074,0.4794352,-0.05865979,-14.77973,-35.79791,-14.41744,1006.968
12.981884480,17.35288,13.1171,3.467667,0.9881943,0.8236338,0.1182798,-14.7609,-36.90311,-15.27048,1006.97
13.017182827,-52.65723,31.61311,20.63368,1.035287,0.8471531,0.2221068,-14.7609,-36.90311,-15.27048,1006.968
13.049960613,-120.928,10.7534,27.10912,1.036494,0.5649615,0.3327611,-15.14774,-35.75922,-16.09622,1006.97
13.082738400,-34.021,-27.71594,26.92585,0.752484,-0.06449993,0.3647093,-15.89451,-35.07021,-19.15252,1006.97
13.115515709,76.6161,-87.7541,8.171522,0.5068495,0.2455529,0.001877778,-15.89451,-35.07021,-19.15252,1006.97
13.148293495,121.7158,-83.91308,34.37871,0.5358578,0.06148804,-0.1678343,-16.66468,-32.89373,-20.05618,1006.968
13.183592796,58.84956,-60.21692,21.85546,0.3074183,0.3965487,0.03341173,-18.88093,-33.91119,-14.87691,1006.968
13.216369629,76.05701,-76.94014,20.93913,0.5219318,0.2431146,0.05335139,-18.88093,-33.91119,-14.87691,1006.97
13.249147415,126.5612,-68.25352,-0.0754957,0.7033436,0.4244761,-0.4888842,-20.68946,-34.22965,-11.82305,1006.972
13.281925201,42.38756,13.47166,-7.650534,0.6077898,0.6126822,-0.3440514,-22.11833,-35.26088,-7.515023,1006.972
13.317224503,-18.67717,78.94636,7.988254,0.6760502,0.3666197,0.0489488,-22.11833,-35.26088,-7.515023,1006.972
13.350002289,-29.61043,51.52734,-4.657172,0.8003421,0.631116,0.324557,-21.7372,-35.96176,-5.390634,1006.972
13.382780075,-20.04383,4.725942,-22.06754,0.9677002,0.05971792,0.1791686,-21.37552,-36.05224,-7.503548,1006.97
13.415556908,30.08764,-0.4151217,-29.70367,1.114397,0.8972345,0.3951339,-21.37552,-36.05224,-7.503548,1006.968
13.448334694,-98.93721,15.18535,-26.16051,1.026168,0.6027623,0.248009,-20.65413,-35.68955,-7.510218,1006.968
13.483633995,50.2769,-29.13416,-30.98654,1.10035,0.7476221,-0.3016191,-19.55128,-36.44482,-9.240615,1006.968
13.516411781,49.22084,-21.51121,-29.76476,0.8750712,0.8779358,-0.6218681,-19.55128,-36.44482,-9.240615,1006.968
13.549189567,55.0602,0.2348978,16.84616,0.7562502,0.8443327,-0.4785712,-17.66804,-36.43149,-7.937707,1006.97
13.581967354,-9.669656,38.99969,52.58324,0.816349,1.563363,-0.1779836,-16.9377,-36.41541,-6.633312,1006.972
13.617265701,-172.8609,43.37255,62.8462,0.7355745,0.2452904,0.03936325,-17.27691,-37.89011,-7.915257,1006.972
13.650043487,29.9634,19.85367,46.6576,0.9687972,-0.241373,-0.04662018,-17.27691,-37.89011,-7.915257,1006.972
13.682821274,-57.37841,27.59481,-0.1365847,1.072784,0.8451225,0.4453728,-19.20611,-35.69089,-11.80201,1006.972
13.715598583,-150.7459,8.330595,-22.98388,0.9660066,-0.3394562,0.7704052,-20.68416,-34.60598,-12.68754,1006.972
13.748376369,69.09949,-54.24856,-49.06889,0.7997103,0.2328261,0.06089119,-20.68416,-34.60598,-12.68754,1006.976
13.783675671,-44.64365,-23.46127,-29.94802,0.521248,1.075926,-0.300259,-19.6226,-33.18056,-14.88743,1006.976
13.816452503,21.5771,-13.65188,36.39465,0.3820924,0.1349114,-0.490574,-18.05683,-35.72337,-13.97906,1006.976
13.849230289,134.7612,-11.16999,54.96571,0.5939161,0.4132426,-0.9223146,-18.05683,-35.72337,-13.97906,1006.974
13.882008076,-168.9473,18.73091,15.13567,0.4896626,0.8000477,0.3375547,-18.06963,-34.98856,-13.55541,1006.968
13.917307377,-163.7292,14.35805,-33.67446,0.6881622,-1.66118,-0.9819887,-19.94611,-35.36632,-14.85258,1006.966
13.950085163,393.1836,90.17397,-67.02905,0.4597233,0.1942308,-0.3180387,-19.94611,-35.36632,-14.85258,1006.971
13.982862949,90.09631,61.15945,-70.81657,0.2931224,2.25033,0.6958936,-18.53993,-32.84167,-16.57286,1006.971
14.015639782,-378.9777,97.1469,-105.3319,0.5601134,-0.5356821,-0.1352219,-15.87019,-35.71077,-12.67654,1006.971
14.048417568,39.03304,79.83275,-119.5045,0.2895875,-0.56977,-0.4397123,-15.87019,-35.71077,-12.67654,1006.971
14.083716869,57.42079,100.0424,-150.1101,-0.2120224,0.9567099,0.03668767,-12.26871,-34.36195,-20.0389,1006.969
14.116494656,-94.89936,138.7482,-132.6998,-0.0281805,0.8810673,0.2842669,-7.467535,-34.73193,-19.60424,1006.969
14.149272442,-36.87855,113.161,-139.053,-0.06975183,0.1062935,-0.1404719,-7.467535,-34.73193,-19.60424,1006.969
14.182050228,-16.6893,151.0985,-182.4873,-0.1868909,0.3312779,-0.283979,-1.283203,-34.78753,-22.59586,1006.969
14.217348576,-95.14784,232.351,-250.907,-0.6850953,-0.2352204,-0.04511349,4.956398,-34.46779,-24.78521,1006.971
14.250126362,99.35231,179.9357,-252.0677,-0.7870887,-0.09398541,0.6370052,4.956398,-34.46779,-24.78521,1006.969
14.282904148,44.62391,150.744,-364.166,-1.796762,-0.2779279,0.4028472,14.80587,-32.31082,-25.26747,1006.969
14.315681458,1525.024,-362.8896,344.1,0.4930552,15.9472,1.479131,26.12849,-30.43941,-19.71647,1006.969
14.348459244,-2032.757,101.4607,59.79174,0.6264839,-2.567055,-2.516021,26.12849,-30.43941,-19.71647,1006.972
14.383758545,2035.781,-569.5367,-43.4487,3.482578,7.684329,2.756733,32.35998,-29.76627,-22.71962,1006.976
14.416535377,-1553.557,234.8329,113.7944,0.05256534,1.251661,0.3908605,27.13437,-7.053891,-28.66585,1006.978
14.449313164,825.42,-136.5056,-28.11535,0.6620176,0.5718309,0.1598674,27.13437,-7.053891,-28.66585,1006.981
14.482090950,-533.8447,-18.73385,-78.20834,0.1262309,2.643142,0.9334901,18.48891,-35.75147,-36.34702,1006.981
14.514868736,-207.5864,-61.51695,-176.3173,-0.9480897,-1.278608,-0.8005806,17.69635,-31.6594,-30.44187,1006.983
14.550168037,358.5823,-75.58101,-315.9668,0.04237922,2.973619,0.8619493,18.96745,-22.61435,-39.60098,1006.989
14.582945824,-346.0537,62.69587,-218.2855,0.6728739,2.606629,0.488433,18.96745,-22.61435,-39.60098,1006.992
14.615723610,-624.2305,140.3437,-171.6745,-0.08761751,-0.2210369,1.556864,21.2126,-22.61973,-39.60388,1006.998
14.648500442,-21.96957,139.1618,-130.0729,-0.5719461,0.07610126,1.585003,25.63909,-6.109932,-39.86974,1006.998
14.683799744,65.86921,41.3634,-161.5338,-0.6461314,0.1675412,1.236053,25.63909,-6.109932,-39.86974,1006.998
14.716577530,117.9264,-45.8574,-133.9215,-0.5275232,0.9741206,0.3984311,29.43272,8.935625,-36.25703,1007
14.749355316,-268.3406,-7.21078,-145.2841,-0.1056812,0.6399432,0.512017,28.24465,10.74953,-37.09225,1007.001
14.782133102,-291.7601,1.180381,-154.3253,-0.2912481,-0.1654473,0.4101782,28.24465,10.74953,-37.09225,1007.003
14.814910889,-134.0976,-5.378907,-173.9348,-0.3496518,-0.3700992,0.1165131,26.32743,16.3279,-33.75808,1007.003
14.850209236,19.46499,-4.492517,-160.0065,-0.2153795,-0.2831684,0.05926291,21.39159,27.76206,-29.20649,1007.003
14.882987022,108.7325,-2.483366,-131.9667,-0.3250656,-0.05192516,0.3167031,21.39159,27.76206,-29.20649,1007.005
14.915764809,80.34335,-24.05219,-83.03437,-0.3577932,0.08317049,0.5928787,16.8715,32.55921,-30.14644,1007.007
14.948542118,42.13908,-23.34308,-37.82851,-0.2221583,-0.001571672,0.5002633,12.8624,32.53399,-32.68978,1007.008
14.983841419,59.28441,4.371386,-3.129947,-0.01475188,-0.08666355,0.200974,12.8624,32.53399,-32.68978,1007.008
15.016619205,15.73774,45.61808,12.32557,0.04077696,-0.05921851,0.7192275,10.33944,31.07047,-33.53379,1007.008
15.049396992,35.927,82.78738,19.71735,0.05053633,-0.3377145,0.4404342,9.205037,29.8954,-35.2546,1007.008
15.082173824,96.80535,117.8884,5.666872,0.07031664,-0.3062149,0.3238503,9.205037,29.8954,-35.2546,1007.008
15.114951611,82.76606,172.3719,-5.940042,0.004648277,-0.2419085,0.4052593,12.54845,29.51702,-35.68829,1007.008
15.150250912,162.467,149.7394,9.637658,-0.9110044,0.9102029,2.45437,15.86644,27.32849,-35.22303,1007.01
15.183028698,106.8689,28.59938,54.84353,-1.146616,1.099943,2.147534,15.86644,27.32849,-35.22303,1007.012
15.215806484,72.14341,-18.55658,81.47835,-0.9322989,0.1412982,0.7477081,21.06477,25.12951,-35.19531,1007.012
15.248584271,82.20697,9.98519,72.68153,-0.6890056,0.3154262,0.6318232,24.04282,21.46033,-36.4471,1007.012
15.283882618,16.54531,20.20822,67.42787,-0.9142753,0.5494541,0.8683534,24.04282,21.46033,-36.4471,1007.013
15.316660404,26.85736,10.7534,74.5142,-0.7036384,0.5405576,0.5963792,25.21596,17.01268,-37.18686,1007.013
15.349438191,4.307519,12.99892,67.79441,-0.5847776,0.3651737,0.5164556,27.45452,14.09195,-37.14384,1007.015
15.382215977,18.16045,3.307717,65.22867,-0.6906819,0.63424,0.7454294,27.45452,14.09195,-37.14384,1007.015
15.414993763,-23.02562,-23.04762,61.6855,-0.4510165,0.2506699,0.4185944,27.85916,11.90446,-37.10993,1007.017
15.450292587,16.29683,-8.156263,45.74126,-0.5895645,0.5702695,0.6697122,29.04701,10.01877,-37.08181,1007.019
15.483069897,18.84378,-26.12044,44.64166,-0.6374294,0.495812,0.7358845,29.04701,10.01877,-37.08181,1007.02
15.515847683,23.50284,-33.80249,39.26583,-0.3662132,0.56541,0.6128704,29.09361,7.461768,-37.47681,1007.02
15.548624992,11.57565,-13.29733,35.29504,-0.530195,0.7389745,0.7655895,29.47652,6.355696,-38.33032,1007.02
15.583924293,28.84522,-22.57488,39.14365,-0.4995439,0.489642,0.6633624,28.36272,4.15995,-39.16468,1007.024
15.616702080,20.83165,-15.18829,37.86078,-0.4138687,0.6063517,0.674536,28.36272,4.15995,-39.16468,1007.024
15.649479866,34.31186,-4.197053,39.93781,-0.4958027,0.7758494,0.7741168,27.65485,3.068384,-39.14655,1007.026
15.682257652,17.91197,-13.65188,41.77048,-0.2842921,0.4078353,0.5469671,28.05313,1.178643,-39.55252,1007.024
15.715034485,70.96311,10.16247,37.37207,-0.4860618,0.9652941,0.76033,28.05313,1.178643,-39.55252,1007.024
15.750333786,35.80276,11.16704,40.36543,-0.4193082,0.633055,0.5989349,27.367,-0.9943457,-38.64698,1007.026
15.783111572,61.70712,13.82621,32.54604,-0.2535355,0.5399817,0.5327355,27.0488,-3.55642,-39.47662,1007.027
15.815889358,40.21333,10.33975,36.21138,-0.3504515,0.8761234,0.5911848,27.0488,-3.55642,-39.47662,1007.027
15.848667145,43.44361,18.37635,33.46237,-0.3693715,0.8570364,0.5306069,27.44813,-5.367589,-38.57822,1007.029
15.883965969,35.74063,13.82621,30.5301,-0.3565192,0.7490669,0.4671994,28.23369,-8.327739,-37.22703,1007.029
15.916743278,25.67706,7.266927,27.84219,-0.3172897,0.7937748,0.4757035,28.23369,-8.327739,-37.22703,1007.029
15.949521065,26.17403,6.262352,25.33754,-0.3592996,0.9112351,0.5382031,28.27498,-10.50842,-36.75753,1007.033
15.982298851,19.34075,7.089649,24.60447,-0.3539248,0.8956412,0.530512,28.30868,-12.33145,-36.79105,1007.033
16.015076637,22.07406,4.666849,28.02545,-0.3108648,0.7511366,0.4998206,28.30868,-12.33145,-36.79105,1007.039
16.050375462,46.17693,3.012254,30.5301,-0.2880809,0.7663947,0.4954113,27.96707,-13.40606,-35.46805,1007.039
16.083153248,77.98276,10.04428,38.28841,-0.2366595,0.9761775,0.4145857,27.98735,-14.49937,-35.45086,1007.039
16.216784954,46.73601,3.130439,40.42652,-0.1910605,0.9950586,0.4134864,26.99454,-19.62989,-33.19271,1007.037
16.249562740,37.16941,3.662273,45.558,-0.2598986,1.002313,0.6990862,26.32266,-22.52581,-31.8406,1007.037
16.282340527,29.90128,-4.78798,56.06531,-0.5449544,0.5656244,0.5083572,26.02078,-25.79383,-30.9805,1007.037
16.315118313,245.5846,-61.04421,37.86078,-1.132673,1.100873,0.7934293,26.02078,-25.79383,-30.9805,1007.037
16.350416660,258.5678,-217.5807,69.26054,-0.581816,0.6922263,0.1982569,24.9589,-27.29187,-29.64988,1007.037
16.383194447,264.0345,-183.4842,-0.9918309,-0.5071153,0.3203678,-0.8377318,22.53995,-33.78109,-24.81938,1007.037
16.415972233,170.9776,-246.7134,32.24059,0.1501527,1.913422,-0.445531,22.53995,-33.78109,-24.81938,1007.037
16.448750019,-194.2305,-85.21311,30.65228,0.2046241,0.9929364,-0.7879651,17.52715,-41.04773,-19.53799,1007.037
16.484048843,-78.74796,-72.74456,-8.078156,-0.1446195,0.3017425,-0.3798257,12.91054,-47.70964,-23.28163,1007.033
16.516826630,14.18472,-58.7396,-32.08614,-0.07295962,1.030533,-0.2304278,10.24737,-45.55622,-30.64834,1007.037
16.549603939,-48.86786,-35.63436,-47.54166,0.01509212,0.936843,-0.3619072,10.24737,-45.55622,-30.64834,1007.035
16.582381725,-58.62082,-26.94774,-57.49917,-0.0222652,0.939045,-0.2804718,8.786809,-45.58754,-33.19497,1007.035
16.615159511,-31.0392,-34.33432,-58.35442,-0.2010033,1.203483,-0.06912862,9.846287,-44.17912,-36.63803,1007.035
16.650458336,-49.79967,-35.04343,-66.11272,-0.3370952,0.8497403,-0.06730995,9.846287,-44.17912,-36.63803,1007.031
16.683236122,4.121157,-49.75751,-86.27209,-0.3383387,0.7702241,-0.01423736,10.18427,-43.13423,-40.13659,1007.029
16.716013908,43.31937,-75.6401,-106.0038,-0.4579449,1.047111,0.02510067,10.51101,-41.34179,-42.2791,1007.029
16.748791218,-48.6815,-78.77201,-111.0742,-0.5157176,0.9861603,-0.2658943,10.51101,-41.34179,-42.2791,1007.026
16.781568527,-45.82394,-67.78078,-130.806,-0.3789252,1.247295,-0.2786464,12.03258,-41.72769,-43.58067,1007.026
16.816867828,-167.1458,-63.05336,-120.9706,-0.382971,1.180108,0.08007899,11.63033,-39.9403,-46.21952,1007.028
16.849645615,-152.9202,-50.52572,-145.1008,-0.6684815,0.5560105,0.04463195,11.63033,-39.9403,-46.21952,1007.026
16.882423401,-47.06636,-39.41629,-143.5125,-0.8711292,0.6042553,-0.05797153,14.08134,-35.21761,-51.39528,1007.025
16.915201187,-154.1004,-16.25196,-130.806,-0.5668555,0.8388849,-0.3016532,15.36844,-26.46143,-55.01652,1007.025
16.950500011,-301.6373,12.05343,-114.312,-0.4042249,0.7053589,-0.01783422,15.36844,-26.46143,-55.01652,1007.025
16.983277321,-361.7081,59.85941,-108.875,-0.4034601,-0.2605644,-0.1761923,16.71304,-20.6628,-57.22348,1007.025
17.016055107,-101.7948,98.68331,-71.12202,-0.6960173,0.6090271,0.6280278,18.63011,-6.345397,-58.32191,1007.025
17.048832893,-306.5449,111.861,-52.18443,-0.573054,0.1991932,0.8671092,18.63011,-6.345397,-58.32191,1007.025
17.081610680,-260.8861,161.8534,-78.39161,-1.1335,-0.7435262,0.02747634,21.70983,7.978974,-54.26168,1007.025
17.116909504,210.1137,63.99591,-41.06623,-0.8486071,-0.2921809,0.9955829,26.23364,20.17792,-45.44481,1007.025
17.149687290,83.69787,19.32183,0.1688604,-0.2115399,0.950141,1.052851,26.23364,20.17792,-45.44481,1007.025
17.182464600,-139.2536,67.48238,-7.650534,-0.5845282,-0.4471811,0.03005988,29.44143,27.15496,-45.55894,1007.029
17.215242386,73.26158,125.3341,-6.06222,-1.058015,-0.1681642,0.3109149,31.01486,20.97387,-44.15807,1007.029
17.250541210,35.67852,56.60931,13.54736,-1.144621,1.214879,0.7432241,31.01486,20.97387,-44.15807,1007.031
17.283318996,-117.8219,82.19645,-15.59211,-1.156392,-0.3887373,-0.4033415,34.24713,23.54085,-42.46196,1007.031
17.316096783,58.3526,65.65051,-0.3809408,-1.24398,0.2339602,0.2996786,37.24023,19.50508,-39.41811,1007.031
17.348874569,-29.85891,14.47623,18.98428,-0.9081308,0.0609578,0.0911945,37.24023,19.50508,-39.41811,1007.032
17.381652355,14.37108,32.97224,14.46369,-0.8232243,-0.1747767,-0.2220181,40.55307,21.04529,-37.27074,1007.031
17.416950703,26.17403,27.94937,23.50487,-1.180363,0.4472604,0.3598578,41.30326,19.89459,-36.88058,1007.031
17.449728489,-6.377254,-2.36518,29.06396,-0.9491335,-0.04527041,0.132849,41.30326,19.89459,-36.88058,1007.031
17.482506275,-18.42869,29.78124,16.11309,-0.9427741,0.1156253,0.009844137,42.78204,18.81562,-35.55993,1007.031
17.515284061,-10.22874,32.79496,17.88468,-1.115054,0.3485537,0.3747739,43.53724,17.35612,-35.53795,1007.035
17.550582886,-22.28017,7.385112,22.16091,-0.9726018,-0.02525956,-0.1131014,45.00998,16.64754,-33.78793,1007.033
17.583360672,-26.81499,38.99969,7.438453,-1.067662,0.3454169,-0.06337298,45.00998,16.64754,-33.78793,1007.033
17.616137981,-34.95281,5.494146,15.19676,-1.076874,0.1783782,0.1602525,45.74634,16.29324,-32.91291,1007.035
17.648915768,10.8302,-10.81543,11.34815,-1.015533,0.2192331,-0.3420149,46.85282,15.56769,-32.46775,1007.035
17.681693554,-40.79216,12.70345,3.345489,-1.100223,0.1805602,0.08184261,46.85282,15.56769,-32.46775,1007.033
17.716992378,-15.75749,-9.63358,5.972317,-1.029051,0.2723837,0.103678,46.84741,15.94317,-31.66542,1007.033
17.749770164,3.810553,-3.842498,0.8408396,-1.00842,0.3525204,-0.02357117,47.64239,15.57175,-32.03366,1007.033
17.782547951,-1.159109,-8.569912,1.207374,-1.064409,0.2350806,0.1047809,47.64239,15.57175,-32.03366,1007.031
17.815325260,25.73919,-29.72509,5.605783,-0.9460999,0.2899866,0.01392149,47.63625,15.94128,-31.66643,1007.031
17.850624084,18.71954,-20.32936,7.316275,-1.086299,0.2256847,-0.02945299,47.57349,15.92444,-32.90953,1007.031
17.883401871,18.71954,-38.589,12.14231,-1.017238,0.2052545,0.1013444,47.57349,15.92444,-32.90953,1007.031
17.916179657,32.13763,-31.20241,14.09716,-1.014504,0.2671328,0.0314472,46.4798,15.91517,-33.77834,1007.031
17.948957443,-31.16344,-59.98055,15.13567,-0.9000316,-0.08838248,0.03748785,45.03411,15.16601,-35.50546,1007.029
17.981735229,15.86198,-32.44336,14.52478,-1.045007,0.4884858,0.3123012,45.03411,15.16601,-35.50546,1007.028
18.017034054,8.966577,-42.72548,17.70141,-0.962031,0.2923169,0.2281617,43.9526,14.41683,-37.17087,1007.028
18.049811363,25.24222,-34.68888,18.49557,-0.7233424,0.1708072,0.1873443,43.24786,12.93111,-39.32257,1007.028
18.082589149,-8.924207,-32.50245,16.78507,-1.132547,0.329524,0.2506528,43.24786,12.93111,-39.32257,1007.029
18.115366936,39.96485,-35.51618,22.16091,-0.917836,0.2983744,0.2757026,42.16769,12.19296,-40.17992,1007.029
18.150665760,1.574205,-20.03389,13.05864,-0.9399976,0.432742,0.2943257,40.71597,11.81419,-41.47765,1007.029
18.183443546,36.2376,-21.74758,20.20606,-0.9279827,0.7844864,0.7847561,40.71597,11.81419,-41.47765,1007.029
18.216221333,-6.377254,-0.06056564,5.117071,-0.7949206,0.2544739,0.1883508,40.01525,10.2915,-41.88795,1007.025
18.248998642,-19.23626,-13.23823,2.306976,-1.053363,0.1984346,0.705068,38.5786,9.196587,-42.24183,1007.024
18.281776428,34.18761,-24.76131,10.98162,-1.026712,0.3755822,0.4433583,38.5786,9.196587,-42.24183,1007.024
18.317075253,21.08013,-6.383482,2.123709,-0.6717607,0.3325871,0.2071954,38.91553,10.65261,-42.32738,1007.024
18.349853039,-68.995,2.303142,-5.634596,-0.8873163,0.1631739,0.4775245,37.76876,10.28584,-42.69312,1007.024
18.382630825,-22.6529,14.65351,-13.08746,-0.731959,0.3388413,0.2684617,37.76876,10.28584,-42.69312,1007.024
18.415408611,-55.45266,22.09919,-11.25479,-1.091478,0.2100089,0.2439964,38.1396,9.920534,-42.68785,1007.024
18.448185921,-24.57864,9.394263,-6.123308,-1.010028,0.2829789,0.3438165,38.55291,10.66537,-41.45668,1007.024
18.483484745,-7.619669,-5.083444,6.644296,-0.9572089,0.09737203,0.2038947,39.25435,12.194,-40.61127,1007.024
18.516262531,5.736297,-13.71097,10.37073,-0.8528032,0.3079933,0.2500217,39.25435,12.194,-40.61127,1007.024
18.549040317,-18.67717,-21.03847,1.940442,-0.7848459,0.2945704,0.1290589,39.60418,12.91606,-41.05832,1007.024
18.581818104,-1.842438,-13.82916,2.429154,-1.0315,0.3114396,0.2600676,39.25965,11.81768,-41.47577,1007.025
18.617116928,-24.70288,-31.37969,4.933804,-0.8922322,0.1738061,0.401465,39.25965,11.81768,-41.47577,1007.025
18.649894714,-4.886355,-32.14789,-5.206973,-0.8728125,0.5451553,0.2001314,38.10539,11.8094,-42.28235,1007.025
18.682672024,-10.78783,-30.84785,-11.43805,-0.9511055,0.2275164,0.4217409,37.01171,11.80013,-43.15116,1007.025
18.715449810,-14.14235,-28.12959,-10.09409,-1.091407,0.3692019,0.1638502,37.01171,11.80013,-43.15116,1007.025
18.748227596,-41.66185,-29.07507,-10.52172,-1.069946,0.1774413,0.4375018,36.63338,12.52394,-43.59726,1007.025
18.783526421,-9.17269,-32.62064,-9.849738,-0.9556211,0.4701736,0.3029709,34.79126,13.60972,-44.48233,1007.025
18.816304207,-33.08918,-44.91191,-24.57219,-1.000867,0.3209319,0.3976501,34.79126,13.60972,-44.48233,1007.025
18.849081993,-14.01811,-33.97977,-24.26675,-0.8968071,0.2882646,0.5476373,33.30717,15.06502,-44.93848,1007.024
18.881859302,-56.63296,-19.73843,-5.756774,-0.9407426,0.1988857,0.6345214,30.71661,17.24586,-45.83979,1007.024
18.917158127,-1.904559,-24.76131,-4.290638,-0.9749882,0.2415687,0.2999918,30.71661,17.24586,-45.83979,1007.024
18.949935913,-34.70433,-29.72509,-1.602721,-0.9369913,0.4003766,0.3290254,29.5913,19.07661,-45.43192,1007.022
18.982713699,-34.6422,-26.4159,6.827563,-0.9302428,0.2208604,0.3499785,28.83538,20.53015,-45.88902,1007.022
19.015491486,-2.401525,-6.501668,33.89,-1.272505,0.4230534,0.4915246,28.83538,20.53015,-45.88902,1007.022
19.048269272,10.14687,7.680576,76.53014,-1.243972,0.2861194,0.5864916,26.94039,21.33022,-45.46389,1007.022
19.083568096,-92.29029,22.27647,101.7599,-1.122862,0.4474062,0.8020927,26.94184,21.34211,-44.59367,1007.02
19.116345406,61.45864,10.04428,144.7666,-1.38885,-0.4563149,0.5942119,26.94184,21.34211,-44.59367,1007.016
19.149123192,201.6031,-43.31641,166.331,-1.090301,-0.01354997,0.5918737,28.43526,19.47353,-43.2606,1007.016
19.181900978,352.1217,-77.17651,201.335,-1.153956,0.5165468,0.06606008,29.26707,16.88491,-45.83218,1007.014
19.217199802,170.2942,-35.69345,237.9273,-1.198472,1.958141,0.4630418,29.26707,16.88491,-45.83218,1007.014
19.249977589,-84.02823,-38.82537,261.2633,-1.35779,1.636293,0.8071157,27.24795,4.397937,-48.61713,1007.014
19.282755375,-165.0337,-112.6321,245.258,-1.391669,0.9639358,0.7432256,22.05128,-9.935383,-49.25493,1007.012
19.315532684,-167.7049,-145.1331,191.5607,-1.033703,0.4897009,0.613605,22.05128,-9.935383,-49.25493,1007.011
19.348310471,-232.2484,-127.8189,99.25525,-0.7487487,0.3222199,0.6300292,12.85195,-7.625302,-46.29482,1007.013
19.383609295,-368.9141,-99.92719,-20.84576,-0.2618479,-0.1918426,0.8515569,2.184025,-4.642747,-43.28117,1007.01
19.416387081,-291.8843,-35.10253,-152.4926,0.4657288,-1.245457,0.02588381,2.184025,-4.642747,-43.28117,1007.01
19.449164867,-42.22094,81.66462,-274.3041,0.9239391,-1.183612,-0.03594778,-4.131402,-0.9655657,-42.02507,1007.006
19.481942654,8.034765,167.1717,-359.0956,0.5870251,-0.3973872,-0.03103868,-6.074619,5.659403,-42.12682,1007.003
19.517241955,256.8906,180.2903,-322.1368,-0.1633839,0.7937039,-0.6303494,-3.891608,5.642279,-42.99986,1006.999
19.550018787,39.2194,219.4097,-257.3213,-0.03844621,1.567304,-0.5446852,-3.891608,5.642279,-42.99986,1006.997
19.582796574,-79.61765,309.2305,-150.6599,0.7275615,0.9045908,-0.2533167,2.101436,-0.2813911,-44.22015,1006.997
19.615574360,-102.9751,273.2431,-30.62,-0.8278975,1.746947,1.654814,11.30149,-2.095818,-42.02777,1006.994
19.648352146,-142.4218,85.56474,18.49557,-1.075891,0.3488255,1.06736,11.30149,-2.095818,-42.02777,1006.992
19.683651447,36.73457,75.99172,25.5208,-1.896243,-0.2248211,-0.2453912,23.69773,0.4602408,-39.53542,1006.99
19.716428757,19.03014,88.10572,21.55002,-1.569928,1.034332,0.9952945,25.83374,3.066803,-39.57931,1006.99
19.749206066,24.06193,54.95472,24.36011,-1.220956,-0.06624344,0.2452012,25.83374,3.066803,-39.57931,1006.99
19.781983852,32.38611,33.2677,30.28575,-0.7692089,0.4841443,0.2668869,28.79699,0.4658546,-38.23667,1006.989
19.817282677,13.62564,25.34929,33.82891,-0.9822662,0.2537188,0.3750832,30.68554,0.1028538,-37.79825,1006.989
19.850060463,33.75277,16.66266,38.59385,-1.083239,0.6411732,0.323233,30.68554,0.1028538,-37.79825,1006.989
19.882838249,24.74525,13.23529,40.73196,-0.9673629,0.2939343,0.2570536,31.79057,-0.634582,-38.22331,1006.99
19.915616035,21.20437,11.16704,42.62572,-1.020483,0.3642136,0.2017171,32.91651,-2.460234,-38.25823,1006.989
19.948393345,18.71954,11.46251,40.42652,-0.8546204,0.4725711,0.3162058,32.91651,-2.460234,-38.25823,1006.989
19.983692169,26.671,5.553239,45.25255,-1.102661,0.6263751,0.2496531,33.31377,-4.288386,-38.603,1006.99
20.016469955,-16.3787,1.416752,36.639,-1.03595,-0.06969069,0.2274386,34.80316,-6.120006,-39.01134,1006.989
20.049247742,36.67245,-4.669795,30.34683,-0.9102847,0.6112299,0.3618582,34.80316,-6.120006,-39.01134,1006.989
20.082025528,35.67852,10.45793,29.73594,-0.8704191,0.5678734,0.2424513,35.19501,-7.572682,-38.55378,1006.989
20.117324829,25.80131,17.1945,28.08654,-1.110229,0.5511559,0.2979206,34.13022,-9.094496,-38.96361,1006.989
20.150101662,28.22402,18.67181,20.87804,-0.9555875,0.8747721,0.3538667,34.13022,-9.094496,-38.96361,1006.989
20.182879448,21.39073,25.88112,23.62704,-1.028781,0.5958245,0.2500053,35.24492,-10.17259,-37.64249,1006.989
20.215657234,28.53462,21.2128,18.00685,-0.8946661,0.7282696,0.08438046,35.63604,-11.63121,-37.62004,1006.986
20.248435021,12.0105,9.512449,12.32557,-0.9759083,0.8277552,0.2707102,35.63604,-11.63121,-37.62004,1006.989
20.316511631,14.86805,-6.856224,8.599145,-0.7141331,-0.0157497,0.2434417,36.75885,-13.06271,-35.48513,1006.984
20.349288941,10.5196,-1.419697,8.171522,-0.7212093,0.7016208,0.1759493,36.75885,-13.06271,-35.48513,1006.983
20.382066727,-3.830303,-7.21078,6.277762,-0.9132797,0.4159706,0.2317106,36.4008,-13.43222,-35.91405,1006.983
20.414844513,-18.11808,-15.36557,2.06262,-0.7740209,0.4519515,0.1957053,35.31606,-13.78809,-35.47179,1006.983
20.450143337,-0.6621431,-18.02474,2.429154,-0.8233356,0.3498048,0.1338806,35.31533,-13.79404,-35.90691,1006.984
20.482921123,-19.91958,-11.8791,-9.055581,-0.7121703,0.1628803,0.1545972,35.31533,-13.79404,-35.90691,1006.984
20.515698910,-18.92565,-2.719736,-6.489842,-0.9919867,0.4631068,0.3810484,34.22851,-14.16689,-36.70783,1006.984
20.548476219,-12.89994,4.2532,-5.145884,-0.8716118,0.4654101,0.2873752,34.94314,-13.43977,-36.72023,1006.98
20.583775043,3.313586,0.8258246,-5.695685,-0.9936293,0.7187941,0.2415534,34.94314,-13.43977,-36.72023,1006.98
20.616552830,3.748432,-6.856224,-3.191036,-1.005469,0.5859771,0.2066422,34.94314,-13.43977,-36.72023,1006.982
20.649330616,-2.339404,-6.797132,1.879353,-0.9173428,0.5116483,0.337957,34.57834,-13.44484,-37.15487,1006.982
20.682108402,-9.856018,-1.951531,3.956379,-0.8268232,0.4226484,0.3176592,34.57834,-13.44484,-37.15487,1006.98
20.714886188,-15.44689,1.771308,-2.94668,-0.7430646,0.2912301,0.1588093,34.20895,-13.06764,-36.28991,1006.979
20.750184536,-10.47723,-9.574488,-11.62132,-0.6552761,0.1181762,0.1010985,34.57303,-13.06851,-36.29038,1006.98
20.782962322,-30.10739,-15.24739,-15.16448,-0.9184433,0.3272754,0.1601337,34.57303,-13.06851,-36.29038,1006.976
20.815740108,39.65424,-15.24739,-16.69171,-0.8660461,1.215996,0.4287139,33.4679,-12.33192,-35.92748,1006.976
20.848517895,6.046901,-15.77922,-27.19902,-0.9969956,0.5000667,0.2390029,32.71593,-11.26574,-38.05713,1006.976
20.883817196,-25.32409,-17.61109,-33.79663,-0.9148638,0.495801,0.3673381,32.71593,-11.26574,-38.05713,1006.978
20.916594505,-56.50872,-18.49748,-44.73157,-0.8466348,-0.0139199,0.3857549,33.05296,-9.808865,-38.08052,1006.979
20.949371815,5.301452,-16.54742,-53.03967,-0.8325621,1.046256,0.5627088,32.29776,-8.349371,-38.1025,1006.979
20.982149601,25.11798,4.548664,-57.80462,-0.9945359,0.5450445,0.5407431,32.29776,-8.349371,-38.1025,1006.979
21.014927387,6.73023,29.36759,-62.63065,-1.057374,0.3994607,0.4121066,31.91228,-7.194448,-38.12017,1006.983
21.050226212,-29.36194,39.41335,-77.41418,-0.985413,0.1510517,0.3930558,32.5878,-4.268809,-37.29673,1006.983
21.083003998,36.73457,32.61769,-73.93211,-1.156408,0.5974824,0.4317788,32.5878,-4.268809,-37.29673,1006.983
21.115781784,4.245399,33.09043,-75.52042,-1.132915,0.3045915,0.3777707,32.91276,-2.071172,-36.46135,1006.984
21.148559094,-12.09237,32.4995,-62.875,-1.230822,0.2464464,0.4685866,32.15287,-0.2302594,-35.24589,1006.984
21.183857918,-16.81355,17.1354,-32.51376,-1.329785,0.2369675,0.6252781,32.15287,-0.2302594,-35.24589,1006.984
21.216635704,28.72098,-21.21575,13.42518,-1.231956,0.1206459,0.5193218,32.46609,2.780767,-32.68249,1006.98
21.249413490,-10.29086,-37.22987,11.71468,-0.9713051,-0.07419598,0.3423375,30.96318,5.34126,-32.28561,1006.98
21.282191277,-70.29954,-25.5886,-4.962617,-0.7783063,-0.00892575,0.1112091,30.96318,5.34126,-32.28561,1006.98
21.314969063,-81.17067,-14.65646,0.3521274,-0.5935413,0.09701893,0.1361233,29.50219,5.72617,-31.04628,1006.98
21.350268364,-103.2857,-3.487941,9.332213,-0.7085813,0.2532482,-0.0217259,27.21117,8.294497,-30.21327,1006.98
21.383045197,-25.9453,-19.38387,42.44246,-0.5202103,0.06242724,-0.02381054,27.21117,8.294497,-30.21327,1006.979
21.415822983,68.78889,-25.82497,51.72799,-0.6584101,-0.2297709,-0.06395811,26.80267,10.8702,-28.51246,1006.979
21.448600769,145.8808,-20.09299,13.303,-0.6024053,-0.03125292,0.2610104,27.51014,12.02845,-28.09644,1006.977
21.483900070,-41.35125,18.67181,-24.14457,-0.6015068,0.001966739,0.2744363,26.46949,9.025118,-30.22379,1006.975
21.516677856,38.47395,15.30353,-2.641234,-0.9392869,0.3347365,0.2776241,26.46949,9.025118,-30.22379,1006.975
21.549454689,23.75132,7.680576,40.36543,-0.8423381,0.5920814,0.1879544,26.49799,7.579257,-29.33064,1006.973
21.582232475,8.904456,29.01303,20.81695,-0.7960705,-0.3104973,0.04912872,26.13995,7.209749,-29.75956,1006.973
21.615010261,80.09486,-4.256146,-14.4925,-0.9749193,-0.2392237,0.07784584,26.13995,7.209749,-29.75956,1006.973
21.650309086,77.11307,37.69966,-53.71165,-0.8107824,0.3770765,0.1184061,26.14671,6.845312,-29.75383,1006.972
21.683086872,21.32861,45.73626,-37.15653,-1.104417,0.816165,0.5795853,25.08755,5.019801,-30.15888,1006.972
21.715864658,-51.41481,35.57232,-62.14194,-1.058536,-0.2894329,0.662493,25.08755,5.019801,-30.15888,1006.97
21.748641968,-3.333337,43.018,-74.66518,-1.174833,0.3446828,0.2401402,25.82393,4.665507,-29.28386,1006.966
21.783940792,-82.72369,45.02715,-20.66249,-1.025118,0.2489283,0.08781913,24.69185,6.86069,-28.88172,1006.966
21.816718578,-55.70115,62.69587,-33.00248,-1.141266,-0.6769024,-0.678282,24.69185,6.86069,-28.88172,1006.966
21.849496365,-43.8982,48.92727,-35.20168,-1.015754,0.1829688,0.04649923,24.67978,7.601451,-28.02296,1006.964
21.882274151,-49.79967,41.18612,-3.618659,-1.165978,0.06622243,0.1076831,24.27056,10.17122,-26.75727,1006.964
21.915051937,-31.90889,62.16403,-24.69437,-1.08707,-0.3045748,-0.2202339,24.27056,10.17122,-26.75727,1006.964
21.950350285,9.960509,45.85445,-9.910827,-1.12548,0.1291945,-0.2005794,24.9805,11.27976,-25.53222,1006.964
21.983128071,2.133292,47.0363,-12.11003,-0.8061474,0.04232907,0.02118323,24.94775,13.18052,-24.25649,1006.964
22.015905857,-54.76934,74.57349,-24.69437,-0.8643211,-0.2183222,-0.06108017,24.94775,13.18052,-24.25649,1006.964
22.048683643,-4.824234,51.40916,2.001531,-1.198258,0.1315092,-0.06033402,26.03395,13.54828,-23.82852,1006.964
22.081461430,-78.12675,41.12703,13.05864,-1.024468,-0.4869573,-0.1883377,26.01657,14.66537,-22.10526,1006.964
22.116760731,11.1408,76.169,14.21933,-1.135309,0.2545796,0.1925275,26.01657,14.66537,-22.10526,1006.966
22.149537563,-32.21949,51.23188,29.55268,-0.9113684,0.1301091,-0.2564452,26.75284,14.31022,-21.29241,1006.966
22.182315350,-59.17991,62.10494,26.86476,-0.7359751,-0.3779806,-0.5526143,27.12731,13.97464,-19.11159,1006.966
22.215093136,10.58172,74.98714,38.83821,-1.012547,0.4486949,-0.05595756,27.12731,13.97464,-19.11159,1006.966
22.250391960,-25.75894,68.9006,62.72401,-1.326589,-0.0298515,-0.137767,28.58507,13.98303,-18.24324,1006.966
22.283169746,49.15872,96.73325,51.23928,-0.6666859,0.1284319,-0.3715872,28.60888,12.91859,-16.11265,1006.966
22.315947533,-70.17529,83.3783,75.00291,-1.0526,0.3224362,-0.16446,28.60888,12.91859,-16.11265,1006.966
22.348724842,9.277181,101.1061,89.66428,-1.036933,-0.06183888,-0.8137564,29.78499,11.84629,-14.35651,1006.966
22.381502628,52.88597,147.4348,92.04675,-1.057513,0.472517,-0.5685371,31.26634,10.71847,-12.16468,1006.966
22.416801453,-68.56015,176.8629,96.99496,-1.206997,0.3026792,-0.2285665,32.04898,8.224257,-7.836554,1006.966
22.449579239,14.55745,178.163,125.157,-0.6658976,0.9938319,-0.5230781,32.04898,8.224257,-7.836554,1006.966
22.482357025,20.02407,193.9407,180.5647,-0.06413562,0.7576422,-0.402365,33.19862,5.752944,-1.768448,1006.966
22.550433159,-50.29664,567.3474,187.59,0.6172383,2.106202,-1.650334,32.14933,4.0081,3.731587,1006.964
22.583210945,-676.8468,314.6079,228.2142,-1.325567,0.6668982,-1.709984,30.41814,0.05500174,12.00288,1006.964
22.615988731,-407.3047,135.2026,287.104,-0.5425625,-0.2420955,-0.5749391,24.71068,-8.614995,21.16198,1006.964
22.648766518,-140.3718,70.02336,260.7135,-0.4525528,0.1544328,-0.2517938,24.71068,-8.614995,21.16198,1006.964
22.681544304,-4.575752,-3.192478,213.1252,-0.09690325,0.3001484,-0.1060416,14.39746,-25.46703,17.58638,1006.964
22.716842651,-9.110569,-20.743,124.7294,-0.2736713,0.297328,-0.1590493,6.069402,-31.36232,15.94945,1006.964
22.749620438,-40.10883,-34.39342,35.11177,-0.5173893,0.3019387,-0.04343269,6.069402,-31.36232,15.94945,1006.964
22.782398224,-66.19956,-68.78535,-23.4115,-0.5049396,0.7609582,-0.1659385,2.453493,-32.82917,14.67173,1006.964
22.815176010,-29.11346,-90.82692,-50.22958,0.1984341,1.283734,-0.0750106,2.820076,-33.2293,12.12848,1006.966
22.850474834,153.7701,-159.3744,9.637658,1.829955,1.208123,-0.5129546,2.820076,-33.2293,12.12848,1006.966
22.883252621,205.641,-83.55852,90.76388,2.698921,1.612771,-1.009503,9.711552,-32.19927,8.683631,1006.966
22.916029930,-46.38303,80.48277,146.9658,0.9064819,1.36275,-0.5596149,15.50343,-27.10616,8.968768,1006.966
22.948807716,-107.0129,33.2677,136.6417,0.2295512,0.5522273,-0.5986662,15.50343,-27.10616,8.968768,1006.967
22.981585503,12.88019,12.05343,112.817,0.321379,0.1245321,-0.5794663,13.30047,-25.9231,10.69389,1006.967
23.016884327,109.0431,-15.01101,74.57529,0.6651399,0.2018375,-0.2415195,7.443448,-27.42154,11.16047,1006.967
23.049662113,97.30232,-15.54285,63.396,0.9815184,0.2850173,-0.2866805,7.443448,-27.42154,11.16047,1006.969
23.082439423,69.78281,5.257776,55.82095,0.6637365,0.3253829,-0.5435162,4.149701,-26.22397,13.75723,1006.969
23.115217209,35.98912,-5.67437,42.56464,0.6709406,0.3636025,-0.5190414,3.404792,-25.10004,15.85437,1006.969
23.150516033,40.58606,-11.93819,31.14099,0.9199313,0.3882713,-0.6327892,3.404792,-25.10004,15.85437,1006.967
23.183293819,13.43927,6.498722,19.4119,0.8238521,0.3722961,-0.5733297,0.7842286,-24.34708,17.15162,1006.967
23.216071606,-0.972747,33.50407,2.978955,0.7653907,0.2591907,-0.519108,0.4066286,-23.61734,17.14063,1006.967
23.248849392,-11.2848,6.735093,-4.596083,0.6119121,0.2840711,-0.4687199,0.4066286,-23.61734,17.14063,1006.967
23.281626701,-26.50439,17.31268,-21.88427,1.012704,0.2036382,-0.470512,-0.326834,-23.23927,18.00606,1006.967
23.316925526,-49.98604,26.70842,-40.33316,0.7326288,0.1684741,-0.4279163,-0.6773889,-23.96727,18.01799,1006.967
23.349703312,-42.53154,24.10834,-50.71829,0.7837452,0.1199441,-0.394269,-0.6773889,-23.96727,18.01799,1006.967
23.382481098,-17.37263,22.33556,-60.43145,0.686493,0.1679821,-0.4432096,-1.76504,-24.34692,16.7198,1006.967
23.415258884,-17.74536,7.621483,-64.95203,0.8665169,0.4206342,-0.4671228,-1.011293,-25.8183,15.87155,1006.967
23.450557709,-61.78898,44.90896,-86.82189,0.7078432,0.5800824,-0.4597663,0.08697325,-26.1913,15.44076,1006.967
23.483335018,-78.06463,59.80032,-85.05031,0.6204709,0.5899274,-0.3397149,0.08697325,-26.1913,15.44076,1006.967
23.516112804,-43.96032,53.24103,-73.50449,0.7140637,0.6529567,-0.2832312,1.991955,-27.74911,12.9137,1006.969
23.548890591,-19.6711,71.14612,-62.93609,0.7929277,0.5547348,-0.3549931,3.115087,-29.59769,11.20049,1006.969
23.581668377,-14.76356,72.80072,-53.71165,0.7485889,0.6378604,-0.2544086,3.115087,-29.59769,11.20049,1006.969
23.616967201,-24.76501,73.33255,-43.32652,0.7064052,0.824331,-0.2131925,3.485199,-29.96894,10.77064,1006.969
23.649744511,-43.71184,86.74659,-38.74485,0.5463529,0.7480993,-0.1972944,4.595535,-31.0827,9.481084,1006.969
23.682522297,-39.79823,85.50565,-37.09544,0.5080881,0.7240138,-0.112929,4.595535,-31.0827,9.481084,1006.971
23.715300083,-33.08918,75.63717,-29.21496,0.6477686,0.8181024,0.01223329,4.256426,-32.55656,8.261298,1006.971
23.750598907,-40.73004,71.26431,-29.58149,0.6556172,0.7865775,0.02188942,4.267768,-33.30327,6.967422,1006.971
23.783376694,-50.1724,73.21436,-31.53634,0.5461517,0.8742713,0.01720327,4.267768,-33.30327,6.967422,1006.973
23.816154003,-75.14496,81.90099,-26.77139,0.570021,0.8595043,0.1062208,3.557717,-34.41267,5.680217,1006.973
23.848931789,-71.04498,77.88269,-21.63992,0.4971598,0.6796921,0.180313,3.581336,-35.89843,3.651897,1006.971
23.881709576,-43.02851,73.21436,-31.96396,0.5033801,0.7273011,0.2254745,3.581336,-35.89843,3.651897,1006.971
23.917008400,-50.42088,66.18233,-23.71694,0.5839846,0.9476953,0.3048572,4.319781,-36.72546,1.052702,1006.969
23.949786186,-87.63123,69.90517,-14.85904,0.6537197,0.8110084,0.2456903,4.687713,-37.11454,-0.6824849,1006.969
23.982563972,-79.18281,78.00087,-15.53102,0.7076695,0.7945896,0.2710993,4.687713,-37.11454,-0.6824849,1006.969
24.015341282,-105.2735,83.55559,-13.88161,0.652333,0.7999705,0.3410198,5.048987,-37.13834,-2.361243,1006.969
24.050640106,-95.08572,83.67377,-10.6439,0.4458303,0.6557066,0.3648324,5.042551,-37.19099,-6.215089,1006.969
24.083417892,-62.34807,76.9372,-6.734199,0.3109206,0.636609,0.4421991,5.042551,-37.19099,-6.215089,1006.969
24.116195679,-53.1542,69.55062,-4.962617,0.2642717,0.6735707,0.560669,5.05026,-37.96741,-9.684523,1006.969
24.148973465,-46.63152,74.10075,-4.473905,0.3052272,0.6224889,0.6598094,5.038516,-37.64373,-12.67388,1006.969
24.181750298,-52.16026,69.49152,0.6575725,0.2636467,0.5557292,0.7047753,5.038516,-37.64373,-12.67388,1006.967
24.217049599,-48.3709,66.59599,-0.4420298,0.1774399,0.457996,0.6916489,5.749514,-36.94632,-14.86183,1006.969
24.249827385,-44.27092,64.88229,-7.772712,0.1546837,0.4517606,0.8029069,5.753473,-37.33369,-16.53439,1006.969
24.282605171,-29.29982,57.20024,-20.0516,0.1601697,0.4045688,0.8737252,5.753473,-37.33369,-16.53439,1006.969
24.315382958,-15.32265,42.60435,-30.74218,0.1439127,0.5073684,0.8981582,7.194079,-36.62613,-17.85307,1006.969
24.348159790,-28.49225,30.01761,-35.26277,0.08000969,0.4431622,0.986977,8.292346,-36.99913,-18.28386,1006.969
24.383459091,69.59646,-7.624429,-15.46993,0.1019459,0.6118665,0.9876336,10.8787,-35.86322,-19.17559,1006.969
24.416236877,49.59357,-18.3202,-5.206973,0.1523214,0.85179,0.900026,10.8787,-35.86322,-19.17559,1006.967
24.449014664,8.531732,-13.06096,0.5964835,0.1221013,0.653256,0.6818586,11.63045,-37.00119,-17.85305,1006.969
24.481792450,5.798418,-9.692673,-5.084795,0.1737466,0.5735821,0.6486422,12.35402,-36.62066,-16.55439,1006.967
24.517091274,16.17259,-3.960683,-12.17112,0.2693111,0.6214293,0.6907033,12.35402,-36.62066,-16.55439,1006.967
24.549868584,20.83165,-1.596975,-11.13261,0.3045594,0.7100543,0.7159983,11.63939,-37.34779,-16.54199,1006.967
24.582646370,11.57565,0.7667319,-4.534994,0.2310401,0.7967543,0.7352965,12.73297,-37.33937,-15.73533,1006.969
24.615424156,-11.906,3.189532,3.528756,0.1729445,0.7231974,0.7331383,12.73297,-37.33937,-15.73533,1006.969
24.648201942,-14.20447,2.775883,3.528756,0.1882096,0.636736,0.7481546,12.72694,-36.96899,-15.30595,1006.971
24.683500767,-12.34085,3.957736,0.2299494,0.2043814,0.5725085,0.7376232,12.72559,-36.98003,-16.11402,1006.971
24.716278076,-1.718196,1.416752,-0.0754957,0.1742726,0.5767477,0.7530917,12.72559,-36.98003,-16.11402,1006.971
24.749055862,11.63777,-2.069717,0.5353945,0.1570947,0.6535529,0.7525354,12.73838,-37.71485,-16.53767,1006.973
24.781833172,10.76808,-3.665219,-0.6863858,0.1696191,0.6930035,0.737524,12.3533,-36.62661,-16.9895,1006.971
24.817132473,1.698446,-0.1196583,-2.702323,0.1827201,0.6904401,0.7033201,12.3533,-36.62661,-16.9895,1006.971
24.849910259,-7.184824,2.775883,-2.213611,0.1910479,0.6598295,0.7038279,12.36754,-37.34954,-16.54293,1006.971
24.882688045,-5.756046,1.239473,-0.4420298,0.1891723,0.6421685,0.7577714,12.36827,-37.34359,-16.10782,1006.971
24.915464878,-1.842438,-0.2378437,-0.01440668,0.1887435,0.6203218,0.7683954,12.36827,-37.34359,-16.10782,1006.971
24.948242664,2.878741,-0.7696778,-0.3809408,0.1921378,0.61674,0.739511,12.73235,-37.34447,-16.10829,1006.971
24.983541965,4.556003,-0.7696778,-0.7474748,0.2022733,0.6396049,0.7235675,12.01023,-37.7131,-16.53673,1006.971
25.016319752,0.8908764,-0.1196583,0.1077714,0.1988114,0.6678911,0.7331603,12.01023,-37.7131,-16.53673,1006.971
25.049097538,0.456031,-0.178751,0.1077714,0.1837973,0.6501822,0.7260022,12.73973,-37.70381,-15.7296,1006.971
25.081874371,0.1454271,-0.06056564,-0.0754957,0.1813768,0.6472466,0.7269751,12.72476,-36.98682,-16.61129,1006.971
25.117173672,1.077239,0.1167124,-0.4420298,0.1866999,0.6545832,0.725026,12.72476,-36.98682,-16.61129,1006.971
25.149951458,-0.4757807,0.5894538,0.04668234,0.1813591,0.6555561,0.7312949,13.09643,-37.34534,-16.10876,1006.975
25.182729244,-0.3515391,1.121288,-0.1976737,0.1779579,0.6534726,0.7159024,12.73297,-37.33937,-15.73533,1006.973
25.215507031,-3.395457,3.189532,-0.8696529,0.1866743,0.6647906,0.7221225,12.73297,-37.33937,-15.73533,1006.973
25.248283863,-9.793898,6.616908,-0.01440668,0.20027,0.6649007,0.7216087,13.10173,-37.72166,-16.97325,1006.979
25.283583164,-11.16055,12.70345,0.2299494,0.2112589,0.7414972,0.7272435,11.99743,-36.97828,-16.11308,1006.973
25.316360951,-33.33767,20.68097,6.888652,0.2611051,0.8135509,0.7332744,11.99743,-36.97828,-16.11308,1006.973
25.349138737,-61.60262,19.67639,17.94576,0.2069492,0.7136132,0.7147804,12.36754,-37.34954,-16.54293,1006.974
25.381916046,-6.190892,19.26274,22.40526,0.3475997,0.7965769,0.7797869,12.35184,-36.63849,-17.85972,1006.974
25.417215347,-81.23279,9.571542,29.55268,0.823994,1.544894,1.569851,11.61547,-36.2842,-18.73474,1006.973
25.449992657,-136.4582,-22.33851,32.91257,0.6530846,0.3859346,0.8932827,11.61547,-36.2842,-18.73474,1006.973
25.482769966,-12.52721,-36.16619,13.18082,0.2748521,0.5564083,0.788986,10.07812,-35.53765,-22.16393,1006.973
25.515547752,-90.17818,-22.63397,2.67351,-0.03668346,0.4073942,0.465993,6.777511,-34.46621,-24.35245,1006.973
25.548325539,-116.0826,3.248625,12.50884,0.09821312,0.04191533,0.4854784,6.777511,-34.46621,-24.35245,1006.973
25.583624840,-61.78898,12.82164,18.80101,-0.04869705,-0.2458468,0.533434,3.832138,-33.04818,-27.79034,1006.973
25.616401672,17.22864,4.548664,20.87804,-0.1640459,-0.08432039,0.7876231,2.322789,-30.54033,-31.24731,1006.971
25.649179459,28.1619,-10.2836,17.45705,-0.09941558,-0.09663999,0.8293669,2.322789,-30.54033,-31.24731,1006.971
25.681957245,54.62535,-22.69306,1.085196,-0.1960558,-0.1198664,0.687148,1.952677,-30.16908,-30.81746,1006.975
25.717256546,126.0021,-34.5116,-15.83646,-0.1986931,-0.06608813,0.5094507,1.253644,-31.6081,-29.55042,1006.977
25.750034332,154.7641,-11.93819,-42.95999,0.06100251,0.189349,0.5801727,1.253644,-31.6081,-29.55042,1006.977
25.782811165,143.2096,37.69966,-105.8817,0.5263186,0.424273,1.0259,1.291811,-33.39462,-26.9111,1006.975
25.815588951,158.3671,44.43622,-153.7755,0.1324148,0.8930768,1.118068,3.92905,-37.78207,-22.99083,1006.975
25.848366737,391.1957,-68.78535,-88.89892,0.128178,2.190664,0.7185174,3.92905,-37.78207,-22.99083,1006.977
25.883666038,2.071171,-15.60194,15.86874,0.1298659,2.034159,0.4126032,10.18107,-40.64192,-17.79379,1006.977
25.916443825,-122.8537,29.54487,35.11177,0.1457548,0.6472246,0.3463025,13.61922,-45.28231,-10.01592,1006.977
25.949220657,-49.42695,22.0401,23.26051,0.1065542,0.3963884,0.3920215,13.61922,-45.28231,-10.01592,1006.977
25.981998444,-46.01031,21.80373,6.827563,0.2164408,0.5632739,0.5157007,12.50172,-44.22714,-13.01532,1006.977
26.014776230,-34.51796,16.66266,-7.955979,0.1908775,0.5157408,0.6448379,11.75183,-43.14397,-13.9018,1006.979
26.050075531,14.49533,1.771308,-14.37033,0.1613245,0.7261547,0.8222134,11.75183,-43.14397,-13.9018,1006.979
26.082853317,48.4754,-8.510819,-6.123308,0.1235305,0.8654819,0.6622809,12.10624,-42.80418,-15.64844,1006.979
26.115630627,19.89983,-4.315239,-1.724899,0.1209006,0.9400886,0.6082622,12.83657,-42.78809,-14.34405,1006.98
26.148407936,-7.743911,-1.833346,0.7797506,0.1056276,0.8193387,0.5617884,12.83657,-42.78809,-14.34405,1006.98
26.183707237,-7.495428,-1.065141,-1.236187,0.1082162,0.7546916,0.5772831,12.48747,-43.50421,-13.46189,1006.98
26.216484547,-8.799965,-0.7696778,-1.602721,0.1096272,0.784804,0.6335538,12.85758,-43.87546,-13.89175,1006.982
26.249262333,-17.62111,-1.183326,0.4743055,0.1072232,0.7831371,0.6768846,12.85758,-43.87546,-13.89175,1006.982
26.282040119,-10.66359,-3.25157,3.223311,0.113702,0.7085072,0.6529136,12.47998,-43.14572,-13.90274,1006.982
26.314817429,5.798418,-3.192478,1.940442,0.1521232,0.6789747,0.6321684,12.10769,-42.79229,-14.77822,1006.98
26.350116253,8.780214,0.6485465,-2.641234,0.1641249,0.7350137,0.6219469,12.10769,-42.79229,-14.77822,1006.98
26.382894039,6.357505,1.180381,-3.924104,0.136835,0.7771984,0.6277243,12.84333,-43.15253,-14.33832,1006.982
26.415671825,1.20148,0.3530831,-1.724899,0.1120276,0.7950017,0.6263123,12.84478,-43.14064,-13.4681,1006.982
26.448449612,-3.209095,-0.4742144,0.1688604,0.1043296,0.7667529,0.635519,12.84478,-43.14064,-13.4681,1006.982
26.483747959,1.387843,-1.301512,0.2299494,0.1096993,0.7561297,0.6422613,13.57076,-43.16022,-14.77437,1006.982
26.516525745,5.239331,-1.951531,-0.01440668,0.1188951,0.7648293,0.6215279,12.47853,-43.1576,-14.77296,1006.98
26.549303532,3.375707,-1.242419,-0.2587627,0.1174018,0.7783869,0.6118837,12.85685,-43.8814,-14.32686,1006.976
26.582081318,0.9529971,-0.8287705,-0.1976737,0.1275784,0.7877522,0.6156964,12.85685,-43.8814,-14.32686,1006.98
26.614859104,-1.593955,0.1758051,-0.3198518,0.1339189,0.7776377,0.6243611,12.85613,-43.88735,-14.76197,1006.98
26.650157452,-1.096989,0.5894538,-0.6252968,0.1373646,0.7581916,0.6253449,13.20741,-43.1534,-14.33879,1006.982
26.682935238,2.381775,-0.6514925,-0.1365847,0.1218022,0.7657641,0.6123737,13.20741,-43.1534,-14.33879,1006.98
26.715713024,1.636326,-1.301512,0.7186615,0.1227016,0.7979895,0.6229129,13.20741,-43.1534,-14.33879,1006.982
26.748490810,-2.650008,-0.7696778,1.329552,0.1329291,0.7839039,0.6161709,13.20814,-43.14746,-13.90368,1006.98
26.783790111,-2.898491,-0.2378437,0.4132164,0.1232816,0.7585545,0.624415,13.20814,-43.14746,-13.90368,1006.98
26.816567421,-0.7863846,-0.356029,0.04668234,0.1174557,0.7580155,0.6239484,12.84333,-43.15253,-14.33832,1006.98
26.849344730,0.2075478,-0.06056564,-0.3809408,0.1227887,0.761973,0.6263366,12.84333,-43.15253,-14.33832,1006.98
26.882122517,-0.1651768,-0.001472959,-0.01440668,0.1242228,0.7727433,0.6325747,12.84333,-43.15253,-14.33832,1006.98
26.914900303,0.3939102,-0.356029,0.1077714,0.1252025,0.7678343,0.6258407,13.2149,-43.5119,-13.89795,1006.98
26.950199127,-0.04093527,-0.001472959,-0.01440668,0.1290864,0.7663419,0.6166878,13.57149,-43.15428,-14.33926,1006.98
26.982976913,0.2075478,0.1167124,-0.3198518,0.1252038,0.7663397,0.6210292,13.57149,-43.15428,-14.33926,1006.981
27.015754223,0.456031,-0.06056564,-0.1365847,0.1261603,0.7742004,0.6296797,13.21417,-43.51784,-14.33306,1006.981
27.048532009,0.8287556,-0.1196583,0.1688604,0.1329554,0.7747175,0.6258119,12.83657,-42.78809,-14.34405,1006.983
27.083830833,0.456031,-0.4151217,0.2299494,0.1247113,0.7692578,0.621026,12.83657,-42.78809,-14.34405,1006.983
27.116608620,0.456031,-0.4742144,0.9019286,0.1276037,0.7780452,0.6205246,13.21417,-43.51784,-14.33306,1006.983
27.149386406,0.2075478,-1.833346,2.245887,0.1183804,0.7795231,0.6340224,12.48602,-43.5161,-14.33212,1006.983
27.182163715,5.17721,-7.151688,7.804987,0.125117,0.8124651,0.6705402,12.48602,-43.5161,-14.33212,1006.979
27.214941502,34.06337,-12.76549,19.9617,0.1317488,0.889733,0.7079543,12.47925,-43.15166,-14.33785,1006.979
27.250240326,54.25263,-26.29772,34.9896,0.117944,0.9757597,0.6987115,12.12266,-43.50928,-13.89654,1006.979
27.283018112,11.26505,-34.03886,47.81829,0.1734888,1.11102,0.7522883,12.12266,-43.50928,-13.89654,1006.979
27.315795899,-46.81788,-30.72967,56.1264,0.1828997,1.0261,0.7158105,11.40563,-43.83631,-11.2792,1006.979
27.348573208,-16.0681,-49.10749,74.94183,0.2062972,0.7842481,0.7175636,9.159035,-43.84282,-12.14652,1006.979
27.383872032,55.18444,-74.63552,109.2128,0.3333988,1.251196,0.7569928,6.225405,-42.74847,-12.59507,1006.979
27.416649818,27.72705,-75.75829,145.4996,0.3815481,1.184623,0.5808005,6.225405,-42.74847,-12.59507,1006.979
27.449427605,12.44534,-73.04002,175.3721,0.4221576,1.262491,0.5935836,0.349882,-43.06908,-10.40618,1006.979
27.482205391,-27.24984,-62.40334,207.3217,0.3893675,0.9384795,0.4742906,-6.220992,-41.93713,-8.736625,1006.979
27.514982700,-7.557549,-60.74875,226.5647,0.4534563,0.7141476,0.355099,-6.220992,-41.93713,-8.736625,1006.977
27.550281525,-14.8878,-49.8757,232.1238,0.5314574,0.583769,0.3527037,-13.98669,-38.62684,-7.908026,1006.975
27.583059311,-18.92565,-39.47539,228.092,0.5170817,0.3007546,0.3637543,-21.76487,-34.50911,-5.786507,1006.975
27.615837097,16.60743,-31.67515,220.8835,0.5807655,0.04434194,0.2542393,-21.76487,-34.50911,-5.786507,1006.971
27.648614883,58.41472,-14.77464,211.8423,0.6826934,0.0713165,0.2987235,-28.86337,-27.92147,-5.072577,1006.971
27.683913231,4.307519,5.848702,201.8237,0.6982341,0.09119014,0.4064817,-32.98887,-21.27344,-3.866167,1006.969
27.716691017,-22.15593,7.857854,195.5926,0.6916201,-0.1878364,0.4213588,-32.98887,-21.27344,-3.866167,1006.974
27.749468803,15.11653,-8.156263,185.3297,0.701788,-0.3821593,0.4100749,-37.12934,-13.90842,-3.541442,1006.972
27.782246590,26.42252,-15.66103,171.4624,0.7040852,-0.3048757,0.5249984,-39.13066,-7.332155,-2.771931,1006.969
27.815024376,-5.072718,-28.77961,161.566,0.6434779,-0.3348061,0.566103,-39.13066,-7.332155,-2.771931,1006.969
27.850322723,-5.010597,-49.40296,152.586,0.5738199,-0.4570408,0.5115772,-39.61008,-1.06917,-2.434715,1006.969
27.883100510,-19.60898,-59.68509,140.6736,0.5442775,-0.4949764,0.4847482,-39.72334,5.209924,-0.8547914,1006.967
27.948656082,-37.00279,-73.80823,114.4664,0.4947051,-0.7213627,0.2767774,-38.71537,9.974709,1.244867,1006.965
27.981433868,-53.71328,-71.79907,93.87942,0.4724434,-0.7784778,0.1445418,-37.28857,15.17978,4.518311,1006.961
28.016732216,-58.06174,-63.70338,72.00955,0.5027133,-0.8696072,0.03052459,-37.28857,15.17978,4.518311,1006.961
28.049510002,-53.1542,-56.73045,53.25521,0.464373,-0.8867974,-0.01412521,-35.13958,17.40277,7.526893,1006.963
28.082287788,-37.624,-47.57108,37.86078,0.4983737,-0.9009925,-0.0652088,-32.63484,19.9766,9.596893,1006.957
28.115065575,-23.21198,-36.75712,21.91655,0.5003542,-0.9210883,-0.08588178,-32.63484,19.9766,9.596893,1006.956
28.150364399,-8.862086,-26.06135,8.599145,0.5095177,-0.8891504,-0.05658857,-31.19591,21.09019,11.31827,1006.956
28.183142185,-8.737844,-18.20202,-1.297276,0.5618878,-0.8585106,-0.05579624,-30.45881,20.74184,12.6284,1006.956
28.215919495,3.189345,-11.82001,-6.61202,0.6201232,-0.8499492,-0.08531034,-30.45881,20.74184,12.6284,1006.954
28.248696804,13.37715,-6.501668,-8.505779,0.6341261,-0.8136812,-0.06951328,-29.73669,21.11048,13.05684,1006.952
28.281474590,21.8877,-1.006048,-6.795288,0.640361,-0.7749358,-0.03829794,-29.72993,20.74604,13.06257,1006.952
28.316773892,13.43927,4.430478,-4.351727,0.6544672,-0.7789773,-0.006074072,-29.72993,20.74604,13.06257,1006.952
28.349551678,20.45892,7.089649,-0.7474748,0.6471716,-0.7751853,-0.01232019,-30.45808,20.74779,13.06351,1006.955
28.382328510,19.52711,9.926098,1.879353,0.6525152,-0.7715675,0.01124841,-30.82289,20.74271,12.62887,1006.955
28.415106296,20.95589,13.53075,5.300338,0.6306376,-0.7635843,-0.005078029,-30.82289,20.74271,12.62887,1006.955
28.450405598,20.45892,18.0218,5.727961,0.6443329,-0.8114204,-0.03680829,-30.4663,21.10033,12.18755,1006.953
28.483183384,43.87846,23.99016,7.01083,0.7074167,-0.8221323,-0.182313,-30.46775,21.08845,11.31733,1006.951
28.515961170,76.3055,46.56356,7.560631,0.6637675,-0.8777589,-0.3549345,-30.48313,21.87212,10.8698,1006.951
28.548738003,108.3598,89.34666,1.512819,0.7418413,-0.9024612,-0.7093647,-30.48313,21.87212,10.8698,1006.951
28.581515789,143.2717,201.3273,-19.13527,0.6966091,-0.9742275,-1.240091,-31.238,22.91453,6.999707,1006.953
28.616815090,139.3581,359.282,-41.12732,0.3869894,-0.9609689,-0.7820833,-31.26971,23.91443,0.1450481,1006.953
28.649592876,766.8401,424.3431,-345.2895,-3.500632,2.347469,-7.111125,-31.26971,23.91443,0.1450481,1006.953
28.682370663,-194.1062,-31.97061,85.87675,3.315868,-1.26233,-0.5040911,-32.0208,23.72852,-13.59111,1006.953
28.715147495,-210.941,-43.4346,12.08122,-2.214819,-1.022652,-0.2208091,-32.35213,22.31835,-10.14898,1006.953
28.750446796,189.9244,1.180381,-12.72092,1.134601,-0.5844463,0.7766322,-32.35213,22.31835,-10.14898,1006.956
28.783224583,-70.61014,2.657698,-11.13261,0.4541675,0.3050337,0.8447775,-30.92359,23.76666,-10.6089,1006.954
28.816002369,-72.84649,23.6356,7.682809,0.4081384,-1.247974,0.4337376,-31.27164,22.63941,-13.13975,1006.956
28.848779678,-8.240878,-7.033502,3.528756,0.3774966,-0.5615861,0.701857,-31.27164,22.63941,-13.13975,1006.957
28.881556988,-37.81036,4.489571,-3.985193,0.4674011,-0.8273784,0.5427136,-31.63281,22.66406,-11.39883,1006.957
28.916856289,-2.898491,12.58527,-5.268062,0.4067073,-0.8253257,0.5606649,-30.55348,23.39541,-11.03875,1006.956
28.949633598,-12.15449,11.10795,-9.544292,0.3515921,-0.7235548,0.5539031,-30.55348,23.39541,-11.03875,1006.96
28.982411385,-34.021,11.22614,-22.00645,0.3518648,-0.84254,0.5324205,-30.54671,23.03097,-11.03302,1006.96
29.015189171,-11.03631,12.40799,-36.42346,0.2640497,-0.8724446,0.5398943,-31.26811,22.66828,-11.02635,1006.96
29.050487518,5.798418,5.907795,-60.92016,0.2603539,-0.9488297,0.5559031,-31.26811,22.66828,-11.02635,1006.958
29.083265305,15.55138,-0.8287705,-83.82853,0.1765318,-0.8007271,0.6627411,-31.26135,22.30384,-11.02062,1006.958
29.116043091,16.23471,-10.99271,-108.9361,0.2678475,-0.8323488,0.5581166,-32.34006,21.57759,-11.00775,1006.956
29.148820877,38.16335,-7.092595,-131.4169,0.3264172,-0.7625051,0.515994,-32.34006,21.57759,-11.00775,1006.956
29.181598663,53.32082,-12.7064,-146.8724,0.2858561,-0.6577843,0.4957151,-34.46327,18.23621,-11.38752,1006.955
29.216897011,72.51613,-22.57488,-157.8073,0.4898676,-0.484729,0.4829364,-36.21604,14.5962,-11.32787,1006.95
29.249674797,63.63287,-22.87034,-164.0995,0.4239168,-0.3238175,0.449155,-36.21604,14.5962,-11.32787,1006.95
29.282452583,66.61465,-37.52533,-173.2018,0.5273279,-0.3211672,0.4258003,-37.57043,9.067301,-11.61203,1006.955
29.315230370,66.86314,-43.4346,-184.2589,0.6159123,-0.2070256,0.4143469,-38.61443,3.245017,-11.08376,1006.952
29.350529671,61.52076,-40.47996,-189.6958,0.6033868,-0.03940562,0.4405988,-38.48204,-3.717099,-9.295642,1006.95
29.383306503,55.18444,-43.55278,-194.3386,0.6777828,0.1042617,0.3497098,-38.48204,-3.717099,-9.295642,1006.949
29.416084289,54.50111,-37.40714,-192.9946,0.6811349,0.3328702,0.3724627,-37.55468,-11.05064,-7.87577,1006.949
29.448862076,21.70134,-34.92525,-187.9853,0.7627151,0.5417262,0.4022802,-34.49541,-18.74266,-5.644845,1006.949
29.481639862,-25.07561,-9.869951,-192.0172,1.065966,0.6391715,0.3932309,-34.49541,-18.74266,-5.644845,1006.949
29.516939163,-83.28278,37.64056,-189.5125,0.9080325,0.7334145,0.6182594,-30.74573,-24.57644,-5.122752,1006.949
29.549715996,-119.9962,42.60435,-178.3333,0.6267731,0.5843042,0.665362,-25.48219,-30.5094,-7.150173,1006.949
29.582493782,-90.86151,31.43583,-166.7874,0.434047,0.5535862,0.6119529,-25.48219,-30.5094,-7.150173,1006.949
29.615271568,-70.85862,26.29477,-151.5763,0.3522892,0.6313771,0.620694,-19.96734,-33.86102,-11.39461,1006.949
29.650570393,-85.95397,36.81327,-135.632,0.3610187,0.6302718,0.5913119,-14.40962,-36.16916,-14.84729,1006.949
29.683348179,-83.84187,54.71835,-123.5364,0.3525542,0.508735,0.5635962,-14.40962,-36.16916,-14.84729,1006.95
29.716125488,-67.37986,70.02336,-114.9228,0.3282422,0.5398312,0.6521775,-8.926401,-37.68076,-17.81504,1006.952
29.748903274,-55.63903,80.89642,-111.9906,0.3160959,0.5613417,0.7484463,-3.410996,-37.74664,-21.67602,1006.954
29.781681061,-77.31918,91.5331,-117.6108,0.2418052,0.5860006,0.8819225,-3.410996,-37.74664,-21.67602,1006.954
29.816979885,-54.70721,85.21018,-124.3306,0.02113046,0.6013533,1.534187,3.178432,-36.70484,-24.31241,1006.957
29.849757671,108.981,7.916946,-78.51379,-0.005919423,1.118022,1.344778,9.335319,-35.236,-26.89279,1006.959
29.882534981,17.415,-25.52951,17.7625,0.1176762,1.84188,1.422819,9.335319,-35.236,-26.89279,1006.959
29.915312767,-52.40874,-14.65646,43.72533,0.08886597,0.5415077,0.6907704,14.46884,-33.76769,-25.24408,1006.959
29.948090553,-22.52866,-13.65188,43.66424,0.1191895,0.4315182,0.596036,15.2437,-36.32559,-25.57786,1006.959
29.983389378,-21.96957,-0.2969364,32.05733,0.2193274,0.379533,0.5641069,15.2437,-36.32559,-25.57786,1006.959
30.016167164,-17.43475,16.72176,17.45705,0.2421507,0.4014724,0.680028,12.67342,-35.23806,-26.46198,1006.959
30.048944473,-31.97101,27.77209,4.750536,0.1725279,0.5116325,0.8465782,11.21711,-35.23457,-26.4601,1006.961
30.081722260,-38.12097,25.58566,-4.046282,0.09505014,0.443097,0.9595039,11.21711,-35.23457,-26.4601,1006.961
30.117021084,-7.060583,8.330595,-2.213611,0.08105502,0.4160442,1.008195,11.2089,-34.88202,-27.33606,1006.961
30.149798870,9.463543,-4.669795,-0.3809408,0.1222863,0.4248236,0.9604296,11.92956,-34.52527,-27.77784,1006.961
30.182576656,17.97409,-7.683522,-0.5031188,0.1402179,0.4203908,0.8617145,11.92956,-34.52527,-27.77784,1006.963
30.215353966,23.19223,-8.097171,-2.396878,0.138111,0.4839709,0.8322607,11.92884,-34.53122,-28.21295,1006.964
30.248131752,19.27863,-5.733463,-4.901528,0.1525793,0.520432,0.8052152,12.29509,-34.51426,-26.90808,1006.964
30.283430576,17.04228,-2.956107,-5.39024,0.1573186,0.5716907,0.8166793,12.29509,-34.51426,-26.90808,1006.964
30.316208363,12.88019,-0.6514925,-3.313214,0.1533975,0.5882607,0.8229213,11.93778,-34.87782,-26.90189,1006.964
30.348986149,4.36964,-0.2378437,-0.6252968,0.1553221,0.5986082,0.8378234,11.58795,-35.59988,-26.45484,1006.964
30.381762982,-1.966679,1.948586,0.4132164,0.1487312,0.5083411,0.8220902,11.58795,-35.59988,-26.45484,1006.964
30.417062282,-1.22123,0.3530831,-0.7474748,0.1457845,0.5269912,0.8461371,11.95203,-35.60075,-26.45531,1006.966
30.449840069,1.636326,0.1167124,-0.5031188,0.1375804,0.5024571,0.8298272,12.3161,-35.60162,-26.45578,1006.968
30.482617855,5.549935,-0.6514925,-0.6863858,0.1505987,0.5420425,0.8335876,12.3161,-35.60162,-26.45578,1006.968
30.515395641,5.549935,-1.006048,-0.4420298,0.1471735,0.5512006,0.8239546,12.3161,-35.60162,-26.45578,1006.968
30.548172474,1.698446,-0.06056564,-0.5031188,0.1467036,0.5448753,0.8254094,11.95952,-35.95924,-26.01447,1006.969
30.583471775,1.139359,0.1758051,-0.3809408,0.1437709,0.5536409,0.8287727,12.32422,-35.95502,-25.64199,1006.969
30.616249561,-0.6621431,0.7076392,-0.1976737,0.1447807,0.53708,0.8273512,12.32422,-35.95502,-25.64199,1006.973
30.649027347,0.704514,0.1758051,-0.1976737,0.1462418,0.5366554,0.8345687,12.32963,-36.3305,-26.44432,1006.973
30.681805134,1.077239,-0.1196583,-0.3809408,0.1369972,0.5433566,0.8288043,11.59013,-35.58205,-25.14951,1006.973
30.717103481,1.574205,-0.178751,-0.5031188,0.1447715,0.5409762,0.8273453,11.59013,-35.58205,-25.14951,1006.975
30.749881267,2.381775,-0.1196583,-0.5642078,0.1496239,0.5424812,0.8278129,12.68767,-35.96099,-26.01541,1006.975
30.782659054,3.686311,-0.5333071,-0.2587627,0.1491247,0.5468102,0.8205872,11.95952,-35.95924,-26.01447,1006.975
30.815436840,2.257533,-0.178751,-0.3198518,0.1423266,0.5462463,0.8177159,11.95952,-35.95924,-26.01447,1006.975
30.848214626,2.071171,0.3530831,-0.2587627,0.145722,0.5497542,0.8278112,12.67415,-35.23212,-26.02687,1006.975
30.883512974,2.071171,0.2348978,0.04668234,0.141352,0.549214,0.8254156,12.32359,-35.96012,-26.01494,1006.975
30.916290760,1.449963,0.1758051,-0.4420298,0.1389292,0.5462415,0.8210935,12.32359,-35.96012,-26.01494,1006.975
30.949068546,0.704514,0.1758051,-0.3198518,0.1408548,0.5540802,0.8254094,12.32432,-35.95417,-25.57983,1006.977
30.981845856,1.015118,0.1167124,-0.1365847,0.143787,0.5448008,0.8181961,12.32432,-35.95417,-25.57983,1006.977
31.017145157,1.636326,-0.2378437,-0.1976737,0.1432952,0.5487399,0.8249303,12.32432,-35.95417,-25.57983,1006.974
31.049922466,3.313586,-0.1196583,-0.3809408,0.1408715,0.5457538,0.8186829,12.33181,-36.31266,-25.13899,1006.974
31.082699776,5.301452,-0.6514925,-0.4420298,0.1457147,0.5521659,0.824438,12.3397,-36.73784,-25.1323,1006.974
31.115477562,3.934794,-0.6514925,-0.3198518,0.1471544,0.5584793,0.8200929,12.3397,-36.73784,-25.1323,1006.972
31.148255348,1.760567,-0.4151217,-0.3198518,0.1418118,0.5589184,0.8196235,12.69578,-36.31439,-25.20162,1006.974
31.183554649,1.884809,-0.2378437,-0.1976737,0.1456906,0.560375,0.8143172,12.70294,-36.74551,-25.63004,1006.974
31.216331482,2.630258,-0.4151217,-0.2587627,0.1398818,0.5525273,0.81338,12.70294,-36.74551,-25.63004,1006.974
31.249109268,1.698446,0.2348978,-0.6252968,0.1437506,0.5593848,0.8143232,11.967,-36.31774,-25.57363,1006.974
31.281887055,1.325722,1.180381,-0.8696529,0.1456806,0.5647649,0.8152733,12.33108,-36.31861,-25.5741,1006.976
31.317186356,2.443896,0.7076392,-1.05292,0.1423053,0.5580354,0.8321391,12.33108,-36.31861,-25.5741,1006.978
31.349963188,6.046901,-0.7105852,-1.358365,0.1331029,0.5467067,0.8249575,12.33108,-36.31861,-25.5741,1006.978
31.382740975,7.662042,-1.419697,-2.824502,0.1374601,0.552097,0.8244577,12.69589,-36.31354,-25.13946,1006.978
31.415518761,11.57565,-3.665219,-3.435392,0.1471576,0.5575186,0.8220198,13.06847,-36.73449,-24.76029,1006.979
31.448296547,15.11653,-4.374331,-2.885591,0.1384055,0.5582691,0.8003781,13.06847,-36.73449,-24.76029,1006.979
31.483595848,18.03621,-4.728888,-4.534994,0.1368902,0.5841128,0.8066005,12.70585,-36.72173,-23.8896,1006.981
31.516372681,14.24684,-4.433424,-5.084795,0.1528967,0.5910482,0.8041452,12.34105,-36.7268,-24.32424,1006.981
31.549150467,17.47712,-7.269873,-3.191036,0.1281159,0.596639,0.7974565,12.34105,-36.7268,-24.32424,1006.981
31.581928253,19.71347,-8.392633,-2.030344,0.1329692,0.5976536,0.7974434,12.70658,-36.71579,-23.45449,1006.981
31.617227554,24.8695,-9.929044,-1.785988,0.1562523,0.6111082,0.8132529,12.36424,-37.79634,-22.5666,1006.981
31.650005340,33.13156,-12.35184,0.2299494,0.1304802,0.6345621,0.8551571,12.36424,-37.79634,-22.5666,1006.981
31.682782173,26.42252,-19.32478,1.390641,0.1105556,0.6583893,0.9437391,12.72904,-37.79127,-22.13196,1006.975
31.715559959,30.89521,-28.30687,2.306976,0.1334612,0.6154402,0.9033151,12.02335,-38.865,-20.8085,1006.975
31.748337746,56.30261,-36.34348,4.628358,0.1373301,0.6167428,0.8758664,12.02335,-38.865,-20.8085,1006.979
31.783636570,72.01917,-45.08919,5.117071,0.1782652,0.7406026,0.7783475,11.66135,-38.84715,-19.56485,1006.979
31.816414356,55.0602,-47.09834,6.39994,0.186606,0.9031382,0.7487197,10.16151,-39.54267,-17.37587,1006.979
31.849191666,14.30896,-45.20738,12.32557,0.2317826,0.8810765,0.6735533,10.16151,-39.54267,-17.37587,1006.975
31.881969452,-5.072718,-42.54821,17.94576,0.2129665,0.8146174,0.5942734,9.794206,-39.14849,-15.26773,1006.975
31.914747238,-29.85891,-42.37093,16.05201,0.1942936,0.6998876,0.5771616,8.345385,-39.50349,-14.82501,1006.973
31.950046062,-29.36194,-43.61187,12.32557,0.2494899,0.5428098,0.4747374,8.345385,-39.50349,-14.82501,1006.973
31.982823849,-15.69537,-38.17535,10.79835,0.2639506,0.5776356,0.4226635,6.874826,-38.77707,-15.2697,1006.972
32.048378944,-15.88173,-18.02474,-4.107371,0.400432,0.5581347,0.3958943,5.412482,-38.4032,-14.83844,1006.972
32.083677769,-29.2377,-0.9469559,-13.33181,0.4028435,0.5669917,0.4059839,5.033429,-37.68534,-15.71966,1006.972
32.116455555,-29.54831,7.266927,-26.95466,0.4068668,0.5141358,0.4344543,4.656555,-36.94965,-15.29554,1006.972
32.149232864,-9.110569,11.10795,-40.51643,0.430137,0.5405244,0.4892346,4.656555,-36.94965,-15.29554,1006.967
32.182010651,2.00905,21.44917,-54.81126,0.4040898,0.6793901,0.5290401,5.375146,-36.60988,-16.98049,1006.972
32.214788437,-1.656076,27.6539,-60.55362,0.3058595,0.7530752,0.5975153,7.174122,-35.4602,-17.00099,1006.972
32.250087261,6.233263,23.69469,-46.44206,0.2226876,1.034064,0.6925988,9.360039,-35.45354,-16.13358,1006.972
32.282865048,-47.62545,25.64475,-8.750135,0.1984178,1.276954,0.9113098,9.360039,-35.45354,-16.13358,1006.972
32.315642357,-82.72369,6.203259,4.689447,0.1720786,0.7238324,0.9656371,12.31764,-34.74963,-17.45422,1006.972
32.348420143,-10.84995,-14.3019,10.24855,0.2018632,0.6564464,0.9748139,14.12087,-34.05484,-19.64358,1006.97
32.383718968,17.78773,-27.89322,7.071919,0.1374884,0.560626,0.9303444,14.12087,-34.05484,-19.64358,1006.966
32.416496754,30.95733,-37.64351,12.14231,0.172711,0.642784,0.866116,12.65103,-33.32247,-19.65316,1006.966
32.449274540,29.90128,-44.26189,14.21933,0.1882985,0.6063045,0.7843025,11.57305,-34.04278,-19.20518,1006.967
32.482051849,38.34971,-52.2985,16.47963,0.2703862,0.5786126,0.6955789,11.57305,-34.04278,-19.20518,1006.972
32.514829159,50.09053,-52.41668,9.393302,0.2824119,0.6057277,0.5881659,9.700926,-34.38488,-17.89169,1006.972
32.550128460,51.27083,-50.58481,6.644296,0.3201937,0.6364183,0.5437447,7.898319,-35.07458,-15.32937,1006.972
32.582906246,62.76317,-47.15744,4.261825,0.3482764,0.6591386,0.4853991,7.898319,-35.07458,-15.32937,1006.972
32.615683079,57.23442,-42.6073,3.589845,0.3690335,0.716499,0.5146264,7.191174,-36.1602,-14.87613,1006.972
32.648460865,60.21622,-43.08004,1.940442,0.3336852,0.6697516,0.4883059,6.46738,-36.12279,-12.26452,1006.972
32.683760166,78.91457,-46.38923,4.200736,0.3841462,0.668059,0.3943232,6.46738,-36.12279,-12.26452,1006.97
32.716537952,82.33121,-45.08919,1.024107,0.4145111,0.7572191,0.3623469,5.750643,-36.51735,-10.14349,1006.966
32.749315739,75.18732,-43.49369,4.872715,0.4440404,0.7888852,0.3280525,4.670259,-36.83756,-7.090573,1006.966
32.782092571,95.19022,-43.31641,3.589845,0.3866941,0.7876338,0.2169958,4.670259,-36.83756,-7.090573,1006.966
32.814870357,81.33728,-39.23902,7.62172,0.4878047,0.946811,0.2232552,5.045354,-37.16806,-4.536801,1006.966
32.850169659,66.92526,-31.91152,13.303,0.4433053,0.8718563,0.2138464,5.057929,-37.48494,-1.050177,1006.964
32.882947445,75.68429,-41.78,22.16091,0.4777968,0.8446141,0.1069434,5.057929,-37.48494,-1.050177,1006.964
32.915725231,116.6219,-44.85282,21.42784,0.499687,0.816117,0.04483875,4.333303,-37.45433,1.064162,1006.964
32.948502064,94.44476,-34.21614,19.90061,0.5604213,1.019766,0.1214056,4.332148,-37.04404,4.415008,1006.964
33.016579151,75.12521,-34.45251,14.03607,0.4973956,0.9556096,0.006124999,3.595557,-36.27181,7.450269,1006.964
33.049356937,38.10122,-39.06174,23.07724,0.5477726,0.8005784,-0.006276234,3.949968,-35.44231,10.42101,1006.964
33.082133770,50.21478,-41.83909,30.46901,0.4973456,0.750768,-0.1047607,3.949968,-35.44231,10.42101,1006.964
33.114911556,45.43148,-42.37093,31.99624,0.4720162,0.760922,-0.2250564,3.582036,-35.05323,12.15619,1006.964
33.150210857,39.84061,-32.02971,27.04803,0.5478477,0.7259776,-0.2285531,3.941533,-34.67183,13.45533,1006.964
33.182988644,6.916592,-24.22947,29.79703,0.5129941,0.6869547,-0.1951976,3.941533,-34.67183,13.45533,1006.964
33.215765953,-5.818167,-18.08383,24.29902,0.477317,0.5704212,-0.2411481,3.196624,-33.5479,15.55248,1006.964
33.248543263,5.549935,-19.02932,9.454391,0.5472945,0.5552073,-0.2018195,2.468469,-33.54616,15.55342,1006.964
33.283842564,25.73919,-29.60691,-9.177759,0.5417699,0.6275589,-0.2264649,3.197351,-33.54196,15.98759,1006.964
33.316619873,45.8042,-44.32099,-27.80991,0.4829609,0.6246836,-0.3591769,3.197351,-33.54196,15.98759,1006.964
33.349397659,43.19513,-34.74797,-39.17247,0.5791941,0.8041935,-0.2946919,3.547905,-32.81396,15.97566,1006.964
33.382175446,4.183278,-34.15704,-42.95999,0.4459178,0.8909004,-0.3426426,6.085105,-32.07336,17.26625,1006.964
33.414952755,-12.71357,-36.22529,-40.02771,0.3504461,0.8167253,-0.3187177,6.085105,-32.07336,17.26625,1006.964
33.450251579,24.68313,-51.70757,-24.99981,0.4240781,0.6812759,-0.3446817,8.984927,-31.34553,17.68614,1006.964
33.483029365,49.22084,-42.78458,-27.93209,0.5506235,0.9476009,-0.4392488,11.20906,-30.26354,17.23094,1006.964
33.515807152,25.30434,-46.03468,-20.54032,0.3205941,1.057302,-0.6362268,11.20906,-30.26354,17.23094,1006.966
33.548584461,-4.203027,-27.53866,-8.444691,0.5316274,0.9626829,-0.4888067,13.75229,-29.89332,18.09214,1006.966
33.583883285,10.5196,-26.94774,11.77577,0.2891148,0.8295248,-0.5756387,15.91575,-28.81119,17.63702,1006.967
33.616661072,18.9059,-14.36099,22.03873,0.4862587,0.8423362,-0.5111418,15.91575,-28.81119,17.63702,1006.967
33.649438858,15.9241,-10.46088,32.1795,0.3663339,0.8414996,-0.4872693,17.38693,-29.53252,18.45467,1006.967
33.682216644,13.62564,-10.04723,34.62307,0.3306391,0.7413594,-0.4870337,17.01547,-29.1723,18.07645,1006.969
33.714993954,10.58172,-7.978985,31.44644,0.5346568,0.7367265,-0.3479157,17.01547,-29.1723,18.07645,1006.971
33.750292778,43.62997,-25.47042,21.42784,0.4633287,0.67832,-0.5368337,16.65888,-29.52992,18.51777,1006.971
33.783070564,39.2194,-10.69725,22.46635,0.2460145,0.7774222,-0.5923056,16.64671,-28.79001,19.31437,1006.971
33.815848350,34.68458,-23.93401,28.57525,0.4280818,0.7745765,-0.6601238,16.64671,-28.79001,19.31437,1006.971
33.848625660,23.62708,-10.40178,26.00951,0.6812268,0.7140952,-0.6269377,15.91324,-28.41194,20.1798,1006.969
33.881403446,41.08302,2.71679,28.14763,0.2125737,0.5164889,-0.744906,16.27201,-28.03649,21.04383,1006.969
33.916702270,89.47511,-7.388058,22.16091,0.5766707,0.5804293,-0.6024202,16.27201,-28.03649,21.04383,1006.97
33.949480057,84.75392,-10.93362,33.21802,0.3793987,0.6282502,-0.6323501,15.90335,-27.65335,22.3439,1006.97
33.982257843,59.22229,0.4121758,22.16091,0.6848884,0.6136707,-0.574808,15.51463,-26.10512,24.4339,1006.97
34.015035152,67.0495,-8.865376,36.27247,0.1605918,0.5116033,-0.8246814,15.51463,-26.10512,24.4339,1006.972
34.050333977,31.82702,-2.601551,30.28575,0.8337969,0.6684654,-0.6484107,15.14525,-25.72792,25.29886,1006.972
34.083111763,-12.03025,8.507874,37.1888,0.2794738,0.5562694,-0.7778572,14.75631,-24.25147,26.58175,1006.974
34.115889549,-16.93779,21.09461,35.05069,0.7218606,0.5701008,-0.6513665,14.75631,-24.25147,26.58175,1006.974
34.148666382,-10.53935,0.1758051,53.80502,0.3281668,0.5350699,-0.5930979,13.30072,-24.24203,27.01874,1006.974
34.181444168,3.375707,-4.669795,52.09452,0.7662519,0.4877989,-0.6335374,12.57788,-24.61661,26.15518,1006.974
34.216743469,-24.95137,-16.31105,60.03609,0.5001292,0.5068089,-0.5915377,11.85648,-24.97931,26.16185,1006.975
34.282299042,-12.03025,-14.47918,41.46503,0.4700483,0.268528,-0.7124104,9.618101,-25.33836,26.17048,1006.975
34.315075874,5.674177,-9.338117,22.09982,0.7414303,0.3083959,-0.6283945,9.98894,-25.70367,26.17574,1006.975
34.350375176,5.425694,-21.92486,13.60844,0.2937371,0.3279042,-0.5065402,9.98894,-25.70367,26.17574,1006.974
34.383152962,16.17259,-32.97519,7.743898,0.7755621,0.2634213,-0.5533152,8.902742,-26.07143,25.74777,1006.969
34.415930748,19.09226,-34.09795,-6.367664,0.3233378,0.3147186,-0.6173038,9.25257,-25.34938,25.30073,1006.967
34.448707580,-15.44689,-51.82576,-14.06488,0.6758455,0.3507746,-0.4785993,9.25257,-25.34938,25.30073,1006.967
34.481485367,22.69527,-62.52153,-13.57617,0.5312425,0.2247806,-0.9136988,11.13436,-25.34794,25.73341,1006.967
34.516784668,13.25291,-41.89819,-20.29596,0.6204478,0.4880206,-0.916714,14.03949,-24.99643,25.28881,1006.967
34.549562454,-9.421173,-21.21575,-11.25479,0.5170017,0.4767375,-1.014168,14.03949,-24.99643,25.28881,1006.967
34.582340240,21.01801,-2.246995,5.544694,0.4241752,0.517602,-0.9793515,15.85239,-24.6423,24.84562,1006.967
34.615117073,4.556003,7.148742,19.90061,0.6314734,0.5833789,-0.7344477,17.67216,-24.65176,24.47032,1006.967
34.650416374,1.946929,-12.05638,28.8807,0.4406809,0.3383797,-0.8578173,17.67216,-24.65176,24.47032,1006.965
34.683194160,-9.607535,28.24483,30.04139,0.4314778,0.5689852,-0.6728187,16.22396,-25.00167,25.28599,1006.965
34.715971947,3.872674,-13.23823,49.65096,0.5472077,0.4831163,-0.7634599,16.2172,-24.63723,25.28026,1006.965
34.748748779,-2.525766,17.84452,55.21006,0.5518402,0.3887618,-0.680053,16.2172,-24.63723,25.28026,1006.965
34.781526566,-55.45266,-0.5333071,40.5487,0.4791612,0.1244093,-0.6467496,15.13849,-25.36348,25.29313,1006.963
34.816825867,-68.37379,3.071347,19.47299,0.5449728,0.2315506,-0.586897,14.05094,-25.74229,24.05709,1006.965
34.849603176,-9.856018,-23.52036,4.017468,0.5358325,-0.0399484,-0.7472409,14.05094,-25.74229,24.05709,1006.965
34.882380962,51.27083,-21.33393,2.734599,0.6704044,0.5456413,-0.7450731,12.25655,-27.27424,22.77798,1006.963
34.915158272,-52.47087,-10.22451,1.390641,0.4700301,0.4778563,-0.7266853,12.62739,-27.63955,22.78324,1006.963
34.950457096,-51.6633,-12.17457,-0.01440668,0.5811554,0.3115208,-0.6867452,12.62739,-27.63955,22.78324,1006.963
34.983234882,-22.52866,-11.82001,-6.856377,0.361043,0.1785459,-0.6340356,14.42676,-26.55655,22.32859,1006.962
35.016012669,-8.924207,-34.68888,-23.71694,0.5284733,0.2280305,-0.5830016,14.44487,-27.66769,21.04045,1006.963
35.048789978,-41.59973,-43.3755,-41.37167,0.3943255,0.3137673,-0.4191497,14.44487,-27.66769,21.04045,1006.963
35.081567764,-67.1935,-77.35379,-58.53769,0.3293532,0.2389183,-0.5989121,16.27732,-28.41282,20.17933,1006.959
35.116866589,-7.743911,-86.51315,-55.05561,0.3571377,0.7661086,-0.812053,18.09418,-28.44605,18.06359,1006.965
35.149644375,-85.51913,-73.9855,-43.75414,0.3521403,0.7941547,-0.9752651,18.09418,-28.44605,18.06359,1006.967
35.182422161,-87.63123,-56.96682,-20.11269,0.2460072,0.7192112,-0.9089538,23.98926,-29.22469,15.45678,1006.967
35.215199471,-12.83782,-58.38504,-21.82318,0.3035019,0.4318424,-0.9101012,29.09488,-30.00654,12.47804,1006.967
35.250498295,7.724162,-47.92564,-11.37696,0.2466121,0.851891,-1.02035,31.70047,-30.04251,10.29911,1006.969
35.283276081,6.916592,-6.501668,12.99755,0.1742856,1.03651,-1.069074,31.70047,-30.04251,10.29911,1006.97
35.316053867,-81.23279,17.54905,39.57127,0.4008199,0.8050758,-0.6538473,34.60487,-29.69695,9.419399,1006.97
35.348831177,-51.47694,-3.428849,29.73594,0.02690169,0.1999091,-0.662157,33.51805,-30.0698,8.618474,1006.972
35.381608963,44.99663,-12.88368,11.40924,0.29197,0.4599265,-0.4995146,33.51805,-30.0698,8.618474,1006.972
35.416907787,-26.38015,-39.65266,-0.9918309,0.214487,0.7155605,-0.8357066,32.08057,-31.17151,7.767321,1006.972
35.449685573,-60.73293,-19.79752,-4.107371,0.1360478,0.429978,-0.7667367,32.42968,-30.4554,6.885167,1006.974
35.482462883,-5.072718,-43.84824,-14.67577,0.3051336,0.5967283,-0.7336938,32.42968,-30.4554,6.885167,1006.975
35.515240669,-34.20736,-38.70718,-17.24151,0.003909905,0.6637642,-0.7470399,34.6105,-30.49035,4.70679,1006.975
35.550539493,-49.48907,-45.97558,-17.8524,0.1999089,0.7041519,-0.9179677,36.42601,-30.53462,1.782976,1006.975
35.583317280,-77.87827,-25.23405,-24.08348,0.2665068,0.7286186,-0.6312709,36.42601,-30.53462,1.782976,1006.975
35.616095066,-61.97535,-32.02971,-35.50713,-0.139284,0.6623215,-0.6422426,38.9418,-29.12969,-1.661968,1006.977
35.681649685,-65.76472,-43.13913,-46.38097,0.03116399,1.112993,-0.4040893,41.17509,-28.81224,-4.716377,1006.973
35.716948986,-71.97679,-55.31223,-41.06623,-0.01288404,0.8081898,-0.6191755,44.77563,-27.05143,-8.603573,1006.973
35.749726772,-71.85255,-43.84824,-47.17513,-0.063288,0.7951161,-0.4775159,48.71737,-24.14932,-13.37961,1006.973
35.782503605,-10.66359,-71.44452,-53.71165,-0.2190827,0.9828447,-0.3989674,48.71737,-24.14932,-13.37961,1006.975
35.815281391,-30.04527,-65.23979,-64.46331,0.03434873,0.7641882,-0.5600137,51.97176,-20.21899,-18.60612,1006.975
35.848059177,-71.79044,-36.75712,-95.80198,-0.04048552,0.8046036,-0.4713266,55.1426,-15.14635,-24.72093,1006.977
35.883358479,6.73023,-75.93556,-119.9932,-0.4728502,0.6754965,-0.5177613,55.1426,-15.14635,-24.72093,1006.977
35.916135311,39.2194,-89.17233,-118.2827,-0.1945392,1.014953,-0.7138845,60.53558,-8.658313,-29.12016,1006.977
35.948913097,-23.14986,-48.81203,-115.4116,-0.6358696,0.6726614,-0.2391433,65.86852,-2.514582,-36.49815,1006.978
35.981690884,-46.81788,-125.337,-129.8897,-1.211579,1.211528,-0.2188541,65.86852,-2.514582,-36.49815,1006.98
36.016990185,-153.9141,-180.116,-158.7848,-0.5669289,1.037748,-0.4901652,73.10416,2.542368,-43.05331,1006.978
36.049767971,-102.1675,-166.7019,-149.5603,-0.2936938,0.9206732,-0.3548928,81.32121,12.14673,-63.42149,1006.978
36.082544804,-17.8696,-137.451,-66.11272,0.5372132,0.2356766,-0.544525,81.32121,12.14673,-63.42149,1006.978
36.115322590,31.26793,-175.9204,-99.40623,3.374686,1.598995,-0.3708736,75.46954,47.82771,-80.69995,1006.979
36.148100376,-593.6671,-47.92564,-24.75546,0.9492027,-0.9216144,-1.822255,68.53717,49.89111,-68.72398,1006.978
36.183399677,-79.80402,57.4957,-28.4208,0.8534756,-1.36952,-2.172746,50.97237,11.80235,-40.5585,1006.974
36.216176510,-274.739,528.9371,-126.041,0.5388072,0.895565,2.108224,50.97237,11.80235,-40.5585,1006.971
36.248954296,171.723,-47.21653,-144.0623,-4.27299,-2.546218,-1.333279,41.91423,7.572035,-27.17498,1006.971
36.281732082,-682.5619,-167.2338,-202.83,-3.583095,2.060469,0.04494521,42.16795,13.87403,-23.85508,1006.965
36.317031384,218.3136,-183.7206,-357.7517,-1.613899,1.267676,1.616004,42.16795,13.87403,-23.85508,1006.971
36.349809170,114.1992,-174.5612,-271.7383,-1.822243,0.1147941,1.928714,36.9895,14.55668,-28.14884,1006.974
36.382586002,254.6542,99.5697,-75.03172,-3.502242,1.112033,3.076355,25.06577,25.50812,-33.46576,1006.979
36.415363788,-428.4258,-138.1011,-140.2137,1.205079,-0.1675616,0.9688628,25.06577,25.50812,-33.46576,1006.979
36.448141575,-367.2368,3.721366,-41.61603,0.1550662,1.986108,0.05592679,20.75165,22.60904,-32.97917,1006.979
36.483439922,-559.687,122.2022,-229.4037,-1.061039,-0.9584107,-0.8445992,15.04381,33.76302,-22.39143,1006.982
36.516217708,159.361,55.132,-344.1288,-2.212415,-1.818567,-1.217478,15.04381,33.76302,-22.39143,1006.984
36.548995495,605.7609,-45.97558,-229.4648,-2.777313,-0.06895784,-2.056826,11.98543,43.14121,-7.924551,1006.986
36.581773281,120.5976,-327.3749,-223.2948,-2.315022,2.582615,-0.9841499,1.689431,44.08843,-20.42243,1006.983
36.617072105,-230.6333,-146.8468,-384.8141,-0.24886,-0.2791188,-1.980193,1.689431,44.08843,-20.42243,1006.983
36.649849415,427.9091,-79.77659,-341.9907,-0.6745925,0.07013203,-0.9717386,-8.401694,34.8887,-24.11884,1006.985
36.682627201,514.5055,-295.6422,-334.5378,-0.4658968,1.64721,-1.497369,-20.90063,34.50751,-27.51571,1006.985
36.715404987,250.3058,-302.0242,-315.417,0.6645055,2.305235,-0.2600917,-20.90063,34.50751,-27.51571,1006.985
36.748182774,130.6612,-333.2251,-317.5551,0.6308278,0.8334175,-0.8469803,-30.11551,17.63288,-28.10814,1006.985
36.783481121,226.5135,-283.8827,-376.6893,0.7015991,0.9457696,-0.533951,-39.32064,1.257696,-18.82306,1006.985
36.816258907,175.3881,-249.0771,-433.502,1.128466,1.855291,0.03456073,-39.32064,1.257696,-18.82306,1006.985
36.849036694,-282.3799,68.66423,-442.7876,5.134259,5.378835,2.965202,-41.2269,-12.48168,-6.542738,1006.979
36.881814480,164.7034,-161.1472,-229.648,0.9861687,3.222533,0.7130017,-33.22971,-27.47014,0.5216258,1006.982
36.917112827,-338.1022,166.4626,-46.31988,-1.126811,1.742862,-1.095453,-33.22971,-27.47014,0.5216258,1006.987
36.949890614,-89.55698,-20.38845,36.88336,0.6028873,0.5139394,0.100406,-22.45601,-36.3733,-4.512786,1006.989
