Time (s),Gyroscope X (deg/s),Gyroscope Y (deg/s),Gyroscope Z (deg/s),Accelerometer X (g),Accelerometer Y (g),Accelerometer Z (g),Magnetometer X (uT),Magnetometer Y (uT),Magnetometer Z (uT),Barometer (hPa)
-0.504454613,186.4698,-42.05939,43.01113,0.3173471,1.14306,1.194752,-15.68968,-50.25441,-58.89048,1006.586
-0.471679211,-225.0183,84.51714,17.29265,0.03463972,0.5187699,0.9181361,-15.68968,-50.25441,-58.89048,1006.586
-0.438904286,-92.6389,45.1614,13.81058,-0.4092837,-0.3267008,0.5459638,-21.85884,-50.49448,-50.85827,1006.586
-0.406129360,121.9884,-7.017433,6.052276,-0.2029249,0.8280535,1.205606,-17.41559,-35.10686,-53.22035,1006.586
-0.370832920,-41.88622,11.3013,18.08681,-0.1674038,0.7512162,0.9692892,-17.41559,-35.10686,-53.22035,1006.586
-0.338057518,-17.84548,1.491914,12.5888,-0.1188967,0.320499,0.7459902,-19.21634,-35.85136,-50.22197,1006.586
-0.305282593,43.40561,-6.899247,0.3099082,-0.07908199,0.5299102,0.7657973,-18.53269,-33.62867,-51.93653,1006.584
-0.272507668,-6.166778,-4.771911,-1.156228,-0.0522269,0.689544,0.8569517,-18.53269,-33.62867,-51.93653,1006.584
-0.237211227,-20.33031,-2.644574,-1.400584,-0.06061981,0.5317462,0.7975206,-19.21842,-35.86834,-51.46514,1006.584
-0.204436302,1.474078,-4.53554,-2.011474,-0.04698341,0.5218866,0.8340867,-19.59072,-35.51492,-52.34063,1006.584
-0.171660900,3.337701,-3.412779,0.06555218,-0.05632966,0.5719533,0.8311452,-19.59072,-35.51492,-52.34063,1006.584
-0.138885975,-2.066807,0.8418941,0.7986204,-0.01069844,0.5686068,0.7853127,-19.22664,-35.51579,-52.34109,1006.584
-0.106110096,3.958909,3.737436,1.165154,-0.02335737,0.5836261,0.7891709,-19.21988,-35.88023,-52.33537,1006.588
-0.070814610,7.313431,7.57846,0.7986204,-0.04230344,0.5878748,0.792579,-19.21988,-35.88023,-52.33537,1006.59
-0.038039207,-15.60914,6.869348,5.135941,-0.07292808,0.6189149,0.880694,-19.93982,-36.23103,-51.45847,1006.59
-0.005263329,-17.65912,7.105718,2.325846,-0.1047178,0.5019535,0.8385859,-19.21842,-35.86834,-51.46514,1006.59
0.027511597,10.97856,3.028323,-0.484249,-0.07704014,0.4971367,0.8130153,-19.21842,-35.86834,-51.46514,1006.59
0.062807083,15.82398,3.205601,-3.416522,-0.06996658,0.5858464,0.8143089,-18.51772,-34.34565,-51.05484,1006.592
0.095582962,8.86645,4.682918,-4.455035,-0.07187691,0.5747123,0.8263643,-19.25336,-33.98542,-51.49474,1006.586
0.128358364,10.60583,4.387455,-1.64494,-0.05243589,0.5635421,0.8075619,-19.25336,-33.98542,-51.49474,1006.586
0.161133289,1.225595,4.564733,-0.3620709,-0.06076241,0.6002346,0.8412216,-18.15301,-34.34143,-50.68236,1006.59
0.193908215,-6.042536,4.978382,0.6764423,-0.07862159,0.5567997,0.849994,-18.50888,-34.69311,-49.80594,1006.592
0.229204655,-0.3274248,3.264694,1.165154,-0.09562176,0.557585,0.8432941,-18.50888,-34.69311,-49.80594,1006.59
0.261979580,2.778614,1.019172,1.531689,-0.08788136,0.563767,0.8124592,-18.15083,-34.3236,-49.37703,1006.59
0.294754982,2.530131,0.4282454,0.1266412,-0.08745418,0.5886194,0.8138648,-17.42268,-34.32534,-49.37796,1006.59
0.327529907,-2.998618,-0.2217741,0.6153533,-0.08745474,0.5941675,0.8412941,-17.42268,-34.32534,-49.37796,1006.592
0.362826347,-0.8243911,-1.403628,2.814558,-0.08302693,0.5718711,0.8514258,-17.42195,-34.3194,-48.94285,1006.593
0.395601273,-2.936497,-3.353686,1.714956,-0.08441649,0.5375494,0.8201923,-17.4234,-34.33129,-49.81308,1006.593
0.428376675,7.25131,-2.880945,2.203668,-0.08207265,0.5716146,0.8133963,-17.4234,-34.33129,-49.81308,1006.595
0.461151600,-0.01682095,0.5464308,0.9207984,-0.06700445,0.5623863,0.7989337,-17.43693,-33.60241,-49.82454,1006.595
0.493926525,2.840735,0.7828014,1.898223,-0.06027438,0.5937098,0.81283,-17.42268,-34.32534,-49.37796,1006.595
0.529222965,-2.501652,2.791953,2.325846,-0.07334061,0.5756005,0.8157765,-18.15156,-34.32954,-49.81214,1006.595
0.561998367,4.455875,1.669192,0.6153533,-0.08545289,0.5602608,0.7956111,-18.15156,-34.32954,-49.81214,1006.595
0.594773292,3.586184,0.8418941,0.3709973,-0.07873155,0.5985199,0.8263447,-17.79497,-33.97192,-50.25345,1006.597
0.627548218,-4.241034,1.19645,0.7986204,-0.076263,0.5814976,0.8268458,-18.5224,-33.96423,-49.8174,1006.597
0.662844658,1.722561,-1.108164,0.6153533,-0.0839918,0.5643835,0.8264086,-18.5224,-33.96423,-49.8174,1006.597
0.695620060,-1.259236,-1.758184,1.40951,-0.08259036,0.589798,0.8374383,-18.15156,-34.32954,-49.81214,1006.597
0.728394985,-1.445599,-1.935462,0.4931753,-0.08106381,0.5535223,0.8018686,-18.16508,-33.60067,-49.8236,1006.598
0.761170864,3.710426,-2.349111,-0.484249,-0.07238471,0.5794111,0.8022903,-18.16508,-33.60067,-49.8236,1006.598
0.793945789,-1.50772,-0.3990522,-0.484249,-0.067529,0.5804625,0.8075722,-17.4234,-34.33129,-49.81308,1006.598
0.829242229,-0.8243911,0.01459661,0.06555218,-0.07188461,0.5771173,0.8220284,-17.79424,-33.96598,-49.81834,1006.598
0.862017155,-0.07894173,0.6055234,0.3099082,-0.07526428,0.5672881,0.8133867,-17.79424,-33.96598,-49.81834,1006.598
0.894792557,4.08315,-0.04449607,-0.2398929,-0.08112681,0.5803189,0.8032724,-17.78821,-34.33636,-50.24772,1006.598
0.927567482,-2.501652,0.4873381,-1.522762,-0.08113552,0.5847289,0.8071166,-18.16508,-33.60067,-49.8236,1006.598
0.960342407,-3.060739,-0.3990522,-1.950385,-0.06848521,0.5771524,0.822983,-18.16508,-33.60067,-49.8236,1006.597
0.995638847,-0.3274248,0.07368929,-1.64494,-0.06939212,0.5518825,0.8321691,-17.43765,-33.60836,-50.25965,1006.592
1.028414249,3.027097,0.3691527,-0.3009819,-0.06705155,0.5864013,0.8205588,-17.79352,-33.96004,-49.38322,1006.592
1.061189175,2.592252,0.7828014,-0.05662585,-0.06607825,0.5803808,0.7940907,-17.79352,-33.96004,-49.38322,1006.592
1.093964100,-1.445599,1.669192,0.3709973,-0.08114788,0.5916076,0.8157709,-17.4234,-34.33129,-49.81308,1006.592
1.129260540,-6.663744,1.432821,0.1877302,-0.08207459,0.57411,0.8220571,-18.16508,-33.60067,-49.8236,1006.592
1.162035942,-5.048604,0.5464308,-0.606427,-0.09466448,0.5609118,0.83029,-18.16508,-33.60067,-49.8236,1006.591
1.194810867,-3.433464,-0.4581448,-1.095139,-0.08109554,0.5717165,0.8268721,-17.78676,-34.32447,-49.37749,1006.591
1.227585793,-4.489517,0.132782,-1.278406,-0.07865714,0.5653351,0.8167673,-17.44369,-33.23798,-49.83027,1006.591
1.260361195,-2.750135,0.2509673,-1.095139,-0.07328723,0.5547153,0.8239909,-17.44369,-33.23798,-49.83027,1006.589
1.295657635,0.9149907,0.07368929,-1.03405,-0.08154636,0.5581125,0.8321885,-17.4362,-33.59647,-49.38942,1006.589
1.328432560,3.089218,-0.2808668,-0.05662585,-0.0684666,0.5688562,0.8205886,-17.43693,-33.60241,-49.82454,1006.587
1.361207485,3.089218,0.5464308,-0.484249,-0.06214905,0.5639381,0.8061402,-17.43693,-33.60241,-49.82454,1006.587
1.393982887,3.337701,1.078265,-0.42316,-0.06315904,0.5825173,0.8176673,-18.16508,-33.60067,-49.8236,1006.587
1.429279327,-1.010753,2.319211,0.3099082,-0.07916401,0.5756055,0.8234921,-17.78072,-34.69485,-49.80688,1006.587
1.462054252,2.095285,1.491914,-0.728605,-0.09222967,0.5554845,0.8172956,-17.78072,-34.69485,-49.80688,1006.589
1.494829178,4.145271,0.6646161,-2.866721,-0.1049073,0.5757673,0.8076679,-17.43016,-33.96685,-49.81881,1006.593
1.527605057,-1.197116,1.19645,-4.271768,-0.07818636,0.5726847,0.8225315,-17.79955,-33.58965,-48.95384,1006.592
1.560379982,-0.8243911,0.07368929,-4.14959,-0.07672524,0.5707453,0.8220494,-17.79955,-33.58965,-48.95384,1006.592
1.595675945,-1.631961,1.551006,-4.271768,-0.08690178,0.5644128,0.8341172,-18.15011,-34.31765,-48.94191,1006.587
1.628451824,-4.924362,-2.644574,-5.982261,-0.1291118,0.5550009,0.8621505,-17.42268,-34.32534,-49.37796,1006.592
1.661226749,7.189189,-7.194711,-7.448397,-0.09999376,0.5549929,0.8259793,-17.06391,-33.94989,-48.51394,1006.592
1.694001675,7.25131,-7.431081,-6.409883,-0.08017028,0.5902014,0.8225098,-17.06391,-33.94989,-48.51394,1006.592
1.729298115,-2.501652,-3.117316,-2.011474,-0.04617539,0.5915763,0.8392746,-17.78603,-34.31853,-48.94238,1006.592
1.762073517,0.9771115,-0.8127009,-1.64494,-0.0712981,0.5261659,0.7782999,-18.12869,-35.47171,-48.92377,1006.587
1.794848442,13.40127,-1.580906,-2.011474,-0.07149643,0.6119663,0.7902051,-18.12869,-35.47171,-48.92377,1006.589
1.827623367,1.846802,1.964655,-4.393946,-0.0991666,0.606291,0.7777638,-18.48601,-35.83527,-48.91757,1006.591
1.860398769,-4.675879,4.564733,-7.142952,-0.1029657,0.5687007,0.7696463,-18.10248,-36.93624,-49.39812,1006.592
1.895695209,-5.172845,8.523943,-11.60245,-0.1344591,0.545768,0.8015255,-18.10248,-36.93624,-49.39812,1006.592
1.928470135,0.1074206,3.146509,-12.27443,-0.1834499,0.5294979,0.831992,-17.74434,-36.56589,-48.90705,1006.594
1.961245060,10.48159,-2.703667,-10.7472,-0.09331609,0.6183314,0.8913332,-17.73685,-36.92438,-48.46621,1006.592
1.994020462,3.648305,-0.8717936,-4.882658,-0.03108559,0.5609638,0.7613044,-17.73685,-36.92438,-48.46621,1006.597
2.029316902,7.686156,0.2509673,6.785344,-0.0487367,0.6521047,0.8618135,-18.07326,-38.37616,-48.06986,1006.597
2.062091827,-6.663744,4.978382,5.074852,-0.07621959,0.5483311,0.7498778,-17.33834,-38.74234,-48.06507,1006.598
2.094866753,4.704358,2.73286,4.586139,-0.09913292,0.5926743,0.7806724,-17.33834,-38.74234,-48.06507,1006.598
2.127642155,-8.651609,5.037475,-1.400584,-0.1286839,0.5662249,0.7947419,-17.69493,-39.09997,-47.62376,1006.598
2.160417080,2.592252,0.07368929,-1.950385,-0.1268355,0.6077086,0.8047836,-17.69493,-39.09997,-47.62376,1006.598
2.195713520,-9.086454,-4.890096,0.1266412,-0.1725854,0.6622364,0.856797,-17.69493,-39.09997,-47.62376,1006.597
2.228488445,-11.69553,-2.349111,-1.156228,-0.09786334,0.4710698,0.8015513,-17.35114,-38.00753,-47.64142,1006.598
2.261264324,13.02854,-1.049072,-2.744543,-0.09750596,0.526148,0.8072438,-18.08678,-37.64729,-48.08132,1006.598
2.294039249,-0.5759079,2.910138,-1.400584,-0.1045344,0.6300791,0.843206,-18.08678,-37.64729,-48.08132,1006.598
2.329335213,-1.631961,-0.1035888,1.042976,-0.107335,0.5797906,0.8288475,-16.99382,-37.64396,-47.64762,1006.597
2.362111092,1.225595,-1.639998,1.042976,-0.1000321,0.5670213,0.8047814,-17.35862,-37.64903,-48.08226,1006.597
2.394886017,6.257378,-0.6354229,-0.667516,-0.1078339,0.5730098,0.7648379,-17.35862,-37.64903,-48.08226,1006.597
2.427660942,3.461942,1.432821,-2.011474,-0.09626091,0.6087203,0.773421,-17.35114,-38.00753,-47.64142,1006.597
2.460436344,-1.56984,3.264694,-2.133652,-0.1097922,0.5884029,0.8095859,-17.71594,-38.0126,-48.07606,1006.597
2.495732784,0.8528699,1.728284,-0.9729611,-0.1209262,0.5772253,0.8264768,-17.71594,-38.0126,-48.07606,1006.591
2.528507709,-1.445599,1.905563,0.004463164,-0.1058778,0.5818312,0.8403937,-17.34365,-38.36602,-47.20058,1006.591
2.561282635,-2.066807,1.078265,0.004463164,-0.1359491,0.5634195,0.8202755,-17.70024,-38.72364,-46.75927,1006.597
2.594058037,3.524063,-1.639998,0.3099082,-0.09858527,0.5744559,0.8216143,-17.70024,-38.72364,-46.75927,1006.598
2.629354477,5.139204,-2.171833,1.226243,-0.09576641,0.6078541,0.7883434,-16.99382,-37.64396,-47.64762,1006.598
2.662129402,-0.4516664,1.787377,0.4320863,-0.1093085,0.5823148,0.7739732,-17.72062,-37.63118,-46.83862,1006.598
2.694904327,-2.128927,2.910138,-0.42316,-0.1151024,0.577227,0.819724,-17.70773,-38.36515,-47.20011,1006.598
2.727679729,-4.675879,-2.171833,1.4706,-0.1267573,0.5973173,0.9212887,-17.70773,-38.36515,-47.20011,1006.6
2.760454655,-29.33783,-21.19968,1.042976,-0.1673297,0.5346813,1.067813,-17.35717,-37.63715,-47.21204,1006.6
2.795751095,15.01641,-64.21915,4.280694,-0.3416401,0.3611304,1.253813,-17.35935,-37.65498,-48.51737,1006.6
2.828526020,56.32673,-109.2478,-13.80165,-0.2642322,0.2927124,1.337489,-17.35935,-37.65498,-48.51737,1006.596
2.861301422,158.1427,-157.4083,-9.586513,-0.2099631,0.5024991,1.113692,-19.55411,-37.31417,-50.63368,1006.596
2.894076347,153.7942,-201.7278,22.42413,-0.1004801,1.01462,1.086667,-22.32722,-45.40038,-56.036,1006.602
2.929372787,132.7974,-216.3828,60.17714,0.07825387,0.9253776,0.7152478,-22.32722,-45.40038,-56.036,1006.6
2.962147713,117.7642,-215.7328,105.0165,0.2053431,0.9390562,0.498313,-25.82663,-53.53963,-61.0013,1006.6
2.994922638,150.3776,-208.5235,110.8199,0.3515548,0.8350604,0.07548732,-30.09074,-42.07226,-53.90207,1006.594
3.027698517,173.5486,-178.6817,137.3326,0.5288964,0.9533973,-0.139799,-30.09074,-42.07226,-53.90207,1006.592
3.060473919,209.2681,-148.6035,160.1799,0.5732303,0.8853513,-0.1730156,-35.68122,-33.81269,-41.71459,1006.592
3.095770359,122.8581,-104.5204,146.9235,0.5559637,0.8047006,-0.1237541,-41.97161,-30.3505,-29.51281,1006.591
3.128545284,70.80087,-74.67855,136.9049,0.5614797,0.49734,-0.2758957,-41.97161,-30.3505,-29.51281,1006.591
3.161320210,64.27818,-50.0369,125.1148,0.590263,0.441094,-0.2744351,-46.37968,-27.30226,-20.60214,1006.591
3.194095612,15.07853,-27.69987,102.2675,0.6453587,0.3491205,-0.2595049,-49.01509,-22.13035,-16.01716,1006.589
3.229391575,4.8286,-7.962915,82.90226,0.6786727,0.2186419,-0.2926012,-49.01509,-22.13035,-16.01716,1006.589
3.262166977,23.27847,4.564733,66.04169,0.6522307,0.3377114,-0.1574553,-50.18752,-17.67676,-14.84229,1006.593
3.294941902,11.1028,5.569309,46.85974,0.690662,0.3154091,-0.1190039,-50.632,-13.2967,-14.47547,1006.587
3.327717304,1.163474,3.323787,28.34977,0.8222058,0.3319646,-0.1376326,-50.632,-13.2967,-14.47547,1006.587
3.360492230,-2.004686,10.11944,20.89691,0.7925289,0.3606261,-0.1125746,-51.03592,-11.10326,-14.07427,1006.588
3.395788670,9.425537,-0.2808668,17.41483,0.8479176,0.3449491,-0.1223096,-51.42704,-9.644643,-14.09672,1006.588
3.428563595,4.766479,-4.771911,11.18375,0.9440591,0.3204759,-0.2553566,-51.42704,-9.644643,-14.09672,1006.586
3.461338520,2.343769,-1.639998,8.984549,0.8954121,0.1565296,-0.2400719,-51.4466,-8.545387,-13.67879,1006.586
3.494113922,47.07073,-7.903823,7.0297,0.900277,0.3638015,-0.2057378,-52.17476,-8.543642,-13.67785,1006.586
3.529410362,13.64975,-3.353686,2.997825,0.937714,0.3411295,-0.2192705,-52.17476,-8.543642,-13.67785,1006.586
3.562185287,13.2149,1.314636,5.441386,0.9169371,0.3066944,-0.17344,-52.18016,-8.168167,-12.87552,1006.586
3.594960213,14.64368,-1.22635,4.52505,0.8865632,0.4062953,-0.2418714,-52.90686,-8.154533,-12.00436,1006.585
3.627735615,17.62548,4.210177,3.791982,0.9274271,0.3411461,-0.414679,-52.90686,-8.154533,-12.00436,1006.585
3.660510540,58.50095,8.287572,2.936736,0.8995532,0.207531,-0.4750631,-52.54206,-8.149463,-11.56972,1006.585
3.695806980,101.1158,8.464849,-1.217317,0.8630588,0.2226931,-0.5621259,-52.19223,-7.427405,-12.01676,1006.585
3.728581905,92.35677,28.61545,-20.15491,0.8423333,0.1092454,-0.8126952,-52.17445,-8.121465,-9.456785,1006.585
3.761357784,90.67951,76.89418,-50.63833,0.7906166,-0.03747889,-1.0487,-52.17445,-8.121465,-9.456785,1006.583
3.794132709,111.7385,160.1558,-97.5547,0.7200198,-0.04407211,-1.491857,-51.79009,-9.215649,-9.440065,1006.583
3.829428673,77.1993,361.0118,-187.1112,0.3570265,0.3572589,-1.054043,-49.57077,-11.45421,-12.82724,1006.579
3.862204552,41.04501,431.8639,-199.9399,0.1357586,0.9866673,0.4247579,-49.57077,-11.45421,-12.82724,1006.579
3.894979477,-42.44531,284.4277,-85.64233,-4.088336,1.879596,12.32644,-42.20473,-17.07662,-22.88257,1006.578
3.927754402,-146.4355,-184.7682,41.72826,1.610328,1.805082,1.200314,-28.1977,-23.82393,-29.63388,1006.579
3.960529804,-49.34072,-37.27288,-19.97165,0.6065752,0.5452381,-0.165843,-28.1977,-23.82393,-29.63388,1006.581
3.995826244,40.67229,57.27541,-26.8747,1.044288,0.7548267,0.3117579,-26.69584,-25.97329,-26.61776,1006.583
4.028601170,-63.62849,40.25671,-42.94112,0.7811078,0.5005409,0.06053182,-27.42472,-25.97749,-27.05193,1006.583
4.061376095,60.79942,18.86516,-33.16687,0.7232214,0.5600619,0.1448177,-27.42472,-25.97749,-27.05193,1006.583
4.094151497,71.98116,8.287572,-19.54402,0.6604586,0.8727822,0.4362005,-26.27388,-25.99723,-28.29659,1006.583
4.129447937,0.04529982,16.85601,-21.74323,0.4892197,0.826479,0.5671254,-24.78169,-27.80593,-27.02665,1006.583
4.162222862,-63.38001,11.06493,-30.41787,0.3552447,0.8229843,0.6459104,-24.78169,-27.80593,-27.02665,1006.583
4.194997788,-101.6464,-3.944613,-39.82558,0.422617,0.6610288,0.5978585,-23.3051,-28.90273,-27.01134,1006.583
4.227773190,-70.77238,-17.0041,-53.75387,0.3217107,0.6186851,0.5832395,-22.94517,-28.93757,-29.49816,1006.583
4.260548115,-65.7406,-21.08149,-72.44711,0.2778093,0.678325,0.4576183,-22.94517,-28.93757,-29.49816,1006.585
4.295844555,-100.6525,-28.34989,-101.0368,0.3176844,0.6684616,0.5321497,-22.9744,-27.49765,-30.82641,1006.585
4.328619480,-148.734,-28.05443,-126.0833,0.2541521,0.6267059,0.4871153,-22.98687,-27.17992,-34.25088,1006.585
4.361394882,-131.8992,-32.48638,-133.8416,0.3106826,0.7147138,0.3279992,-22.98687,-27.17992,-34.25088,1006.585
4.394169808,-130.0356,-33.31367,-147.5866,0.2905246,0.8470292,0.469368,-20.81415,-26.86147,-37.24305,1006.585
4.429466248,-156.4991,-34.55462,-154.062,0.351859,0.797905,0.5453516,-21.20484,-25.81908,-41.05146,1006.586
4.462241173,-138.0492,-28.17261,-135.0634,0.2742003,0.9644345,0.423019,-21.20484,-25.81908,-41.05146,1006.585
4.495017052,-140.8446,-16.35408,-133.8416,0.3205861,0.8758963,0.5222029,-20.88308,-24.0674,-46.1776,1006.586
4.527791977,-135.4401,-4.240077,-117.2864,0.2516484,0.8962365,0.6585612,-20.19184,-22.69207,-52.10655,1006.586
4.560567379,-147.4294,2.023748,-93.645,0.2513245,0.8437058,0.7390285,-20.19184,-22.69207,-52.10655,1006.586
4.595863819,-105.8085,9.587611,-85.2758,0.1279407,0.6489548,0.6866649,-19.17155,-19.43553,-58.12772,1006.585
4.628638744,-83.32078,10.76946,-78.12839,0.08405074,0.5330086,0.7350799,-17.46172,-14.04806,-63.686,1006.586
4.661413670,-37.35141,12.24678,-70.12572,0.02916059,0.331701,0.7080759,-15.3797,-9.014862,-68.43095,1006.586
4.694189072,26.75723,8.878499,-60.90129,-0.03583238,0.2969424,0.690472,-15.3797,-9.014862,-68.43095,1006.586
4.729485512,101.9855,25.60173,-39.03142,-0.2260421,0.4590613,0.7696222,-13.63376,-5.360817,-71.91029,1006.588
4.762260437,320.2158,-51.75059,-12.15225,0.5856932,1.184011,1.017875,-10.31842,-4.70957,-77.02309,1006.588
4.795035362,132.611,-29.8863,1.592777,0.2047327,0.740612,0.2574513,-10.31842,-4.70957,-77.02309,1006.588
4.827810764,112.4839,-21.7906,5.74683,0.2863593,1.269436,0.9852423,-11.89137,-17.8619,-75.07305,1006.59
4.860585690,6.071015,-4.003706,6.785344,0.07882354,0.8574905,0.5473535,-12.11847,-25.20541,-74.58407,1006.592
4.895882130,-10.20463,-7.312896,5.258119,0.2322413,0.8806586,0.6129013,-12.11847,-25.20541,-74.58407,1006.592
4.928657055,-33.68628,6.160235,-4.76048,0.2058338,0.7669103,0.6761938,-12.44125,-27.38522,-74.11411,1006.592
4.961432457,-1.880444,3.973806,-5.554637,0.1010566,0.7121207,0.6274259,-12.45685,-26.67333,-75.36875,1006.592
4.994207382,-0.7622703,6.751162,-8.975622,0.1043976,0.7410443,0.6504799,-12.45685,-26.67333,-75.36875,1006.593
5.029503822,20.11031,1.787377,-6.532062,0.06414928,0.7137675,0.6284738,-12.4711,-25.9504,-75.81532,1006.593
5.062278748,17.56336,-8.49475,-1.522762,0.06833729,0.7902605,0.6273858,-12.0935,-26.68015,-75.80433,1006.593
5.095054150,11.22704,-4.29917,1.959312,0.09835471,0.8219709,0.5988665,-12.0935,-26.68015,-75.80433,1006.593
5.127829552,8.245242,0.7828014,1.165154,0.1062691,0.7631892,0.6109703,-11.72204,-27.04036,-75.42612,1006.593
5.160604954,7.561914,-1.580906,-1.339495,0.09744731,0.798209,0.6147894,-12.07863,-27.39798,-74.9848,1006.593
5.195900440,4.145271,1.84647,-3.599789,0.09452839,0.7991084,0.6075745,-12.07863,-27.39798,-74.9848,1006.591
5.228676319,13.46339,2.73286,-4.638302,0.08975953,0.7600154,0.5946479,-12.07114,-27.75647,-74.54396,1006.595
5.261451244,13.96035,-6.012857,-3.172166,0.07894634,0.8134457,0.5868913,-12.05824,-28.49044,-74.90546,1006.591
5.294226646,4.393754,-2.940037,-3.294344,0.0997595,0.8454173,0.607011,-12.05824,-28.49044,-74.90546,1006.591
5.327001572,-30.58024,-9.322047,-3.5387,0.08649973,0.7151892,0.6659648,-12.05086,-28.84978,-74.52677,1006.589
5.362298012,35.51627,-43.18216,25.72294,0.4755027,0.776008,1.100102,-11.68064,-29.22019,-74.89446,1006.592
5.395072937,189.4516,-92.52454,67.75219,0.3979491,1.548779,1.169881,-11.68064,-29.22019,-74.89446,1006.592
5.427848339,64.27818,-103.634,96.83056,0.6238364,1.655223,0.8668895,-13.19878,-28.80626,-71.54166,1006.594
5.460623264,36.94504,-106.7068,126.3365,0.5648531,1.332939,0.8174536,-20.35981,-34.09913,-60.00909,1006.594
5.495919704,49.86617,-100.0293,137.8213,0.5616429,1.193914,0.5095992,-20.35981,-34.09913,-60.00909,1006.596
5.528694630,1.784682,-66.05102,131.8346,0.4637792,1.062691,0.317003,-29.17087,-32.08178,-47.28383,1006.591
5.594244957,-26.10755,-30.24086,76.67118,0.1843963,0.474643,0.06535569,-33.59257,-28.30552,-38.44678,1006.592
5.627019882,-22.31818,-19.07234,52.96864,0.1764482,0.5470414,0.05034322,-36.2704,-20.89219,-34.33225,1006.592
5.662316322,-36.04687,1.255543,37.51312,0.1529471,0.4231047,0.04577214,-37.07002,-16.85786,-32.65389,1006.586
5.695091724,-40.58169,15.43779,27.25016,0.2196146,0.3804635,0.137137,-37.10321,-15.03058,-32.30959,1006.585
5.727866650,-44.12257,23.76986,19.98057,0.3773704,0.4152897,0.1930297,-37.10321,-15.03058,-32.30959,1006.583
5.760641575,-39.33927,17.7424,12.16118,0.414598,0.5156264,0.3593413,-36.41021,-13.22118,-33.14724,1006.581
5.795938015,-30.58024,9.233055,4.097427,0.5377691,0.3782388,0.3452967,-35.36,-11.04906,-34.05326,1006.578
5.828713417,9.549778,6.632977,-5.004836,0.6361477,0.4644616,0.3694829,-35.36,-11.04906,-34.05326,1006.578
5.861488819,-10.39099,8.228479,-11.72463,0.6245741,0.6474487,0.4332557,-35.74508,-9.960824,-34.50509,1006.578
5.894264221,-23.31211,5.746587,-15.93977,0.6552685,0.6119486,0.4741521,-35.01755,-9.967664,-34.87898,1006.578
5.927039146,-18.34245,2.437397,-19.36076,0.6494204,0.6140907,0.4390233,-35.01755,-9.967664,-34.87898,1006.578
5.962335587,-9.272817,-0.2808668,-17.28373,0.6323932,0.6301112,0.4520364,-35.01755,-9.967664,-34.87898,1006.574
5.995110512,-3.184981,-0.9308863,-14.16819,0.6241226,0.6363602,0.4501211,-34.667,-9.239662,-34.89091,1006.574
6.027885914,6.319499,0.31006,-10.99156,0.5755795,0.6240455,0.4184849,-34.667,-9.239662,-34.89091,1006.577
6.060660839,-7.284952,1.787377,-7.998198,0.5394413,0.7200314,0.4675249,-33.55386,-10.3305,-34.50218,1006.575
6.095957279,-12.62734,2.910138,-4.638302,0.5795206,0.6042538,0.439204,-34.27598,-10.69913,-34.93062,1006.573
6.128732204,5.63617,4.446548,-2.805632,0.5766692,0.579438,0.4459872,-34.27598,-10.69913,-34.93062,1006.573
6.161507607,9.301295,1.551006,-0.1177149,0.5886807,0.6381566,0.470901,-33.55594,-10.34748,-35.74535,1006.573
6.194282532,-0.7001495,0.31006,-0.9118721,0.5896327,0.645947,0.4694429,-33.91866,-10.33557,-34.93682,1006.572
6.227057457,-11.26068,2.969231,-4.943747,0.5897157,0.6083489,0.4555399,-33.91866,-10.33557,-34.93682,1006.57
6.262353897,2.778614,3.855621,-5.310281,0.587813,0.5897588,0.4459452,-33.54845,-10.70597,-35.30451,1006.568
6.295129299,1.287715,3.323787,-4.943747,0.5794331,0.6483473,0.4766839,-33.92677,-9.98217,-35.75061,1006.568
6.327904224,-2.439531,2.08284,-4.821569,0.5741097,0.6420149,0.4829638,-33.92677,-9.98217,-35.75061,1006.566
6.360679150,-5.607691,2.73286,-6.348794,0.6008474,0.6265658,0.4704083,-33.55594,-10.34748,-35.74535,1006.566
6.395975590,-1.694082,4.269269,-6.532062,0.5964537,0.6377779,0.4771408,-33.1851,-10.71279,-35.74009,1006.565
6.428750515,-3.060739,2.437397,-4.210679,0.5968515,0.6778286,0.4929645,-33.1851,-10.71279,-35.74009,1006.565
6.461525917,-4.675879,-0.8127009,-2.072563,0.59251,0.6620767,0.4742254,-33.5499,-10.71786,-36.17474,1006.563
6.494300842,-0.2653041,-2.526389,-2.133652,0.5847844,0.6465275,0.488708,-33.54918,-10.71192,-35.73962,1006.561
6.527076721,2.095285,-2.99913,-2.011474,0.588656,0.6514101,0.4858033,-33.54918,-10.71192,-35.73962,1006.561
6.562372208,3.337701,-2.349111,-1.64494,0.5881221,0.6718644,0.4862551,-32.82175,-10.71961,-36.17567,1006.563
6.595148086,-3.247101,-0.6354229,-1.767118,0.5944636,0.6587339,0.4814463,-33.91325,-10.71104,-35.73915,1006.563
6.627923489,-3.806188,-0.6354229,-0.3620709,0.5755784,0.6326162,0.4603505,-33.91325,-10.71104,-35.73915,1006.563
6.660698414,-4.862241,0.6055234,-0.3620709,0.5653811,0.6335353,0.4647055,-33.1851,-10.71279,-35.74009,1006.563
6.695994854,-3.99255,-0.4581448,-2.744543,0.5858396,0.6119868,0.4930898,-33.54918,-10.71192,-35.73962,1006.563
6.728769779,-8.77585,1.905563,-7.692753,0.6008675,0.6233441,0.4973693,-33.18583,-10.71873,-36.17521,1006.563
6.761544704,-11.13644,1.314636,-11.41918,0.5630072,0.61668,0.4950624,-33.18583,-10.71873,-36.17521,1006.563
6.794320106,-6.539502,1.255543,-14.22928,0.5761201,0.6117786,0.4748214,-33.19186,-10.34835,-35.74582,1006.561
6.827095032,-3.247101,-0.5172375,-12.64096,0.5502999,0.651654,0.4969653,-32.81426,-11.0781,-35.73483,1006.56
6.862391472,0.4801453,-2.053647,-7.631664,0.5551102,0.6716927,0.5012559,-32.81426,-11.0781,-35.73483,1006.56
6.895166397,-4.675879,-1.876369,-3.966323,0.5565696,0.6677083,0.4868176,-33.19186,-10.34835,-35.74582,1006.56
6.927941799,-9.024334,0.132782,-3.355433,0.5667394,0.6820176,0.5012128,-32.82705,-10.34328,-35.31118,1006.56
6.960716724,-8.278885,-0.8127009,-2.072563,0.5527225,0.6541161,0.4979185,-32.82705,-10.34328,-35.31118,1006.558
6.996013165,6.071015,-2.703667,-2.561275,0.5648859,0.6409572,0.4820246,-33.18583,-10.71873,-36.17521,1006.562
7.028788090,1.287715,-1.403628,-1.828207,0.5656769,0.724021,0.5194437,-32.82851,-10.35517,-36.1814,1006.564
7.061563492,-7.595555,-0.3990522,-0.1177149,0.5691683,0.6800328,0.4930268,-32.82851,-10.35517,-36.1814,1006.564
7.094338417,-2.253169,-0.9899789,1.592777,0.5629051,0.6625643,0.5099157,-32.82851,-10.35517,-36.1814,1006.56
7.127113342,-2.191048,-0.1035888,2.509113,0.5653419,0.6531269,0.480561,-33.54314,-11.0823,-36.16901,1006.56
7.162409782,-6.415261,0.2509673,3.486537,0.5464188,0.6471279,0.4810963,-33.54314,-11.0823,-36.16901,1006.56
7.195185185,-3.12286,0.01459661,3.608715,0.5586417,0.6086336,0.4637963,-33.19934,-9.989859,-36.18666,1006.562
7.227960110,2.281648,-0.5172375,0.7986204,0.5615309,0.6254544,0.4979408,-33.19258,-10.3543,-36.18093,1006.562
7.260735989,-1.259236,1.078265,-1.03405,0.5770022,0.6548458,0.5036362,-33.19258,-10.3543,-36.18093,1006.562
7.296031475,-2.253169,1.964655,-2.011474,0.5693061,0.6185436,0.4753088,-33.19258,-10.3543,-36.18093,1006.562
7.328806877,-1.756203,3.028323,-2.133652,0.5746095,0.6371889,0.4887463,-32.47254,-10.00264,-36.99567,1006.56
7.361582279,-1.942565,3.382879,-1.64494,0.5663204,0.6537559,0.4998123,-32.47254,-10.00264,-36.99567,1006.558
7.394357681,-3.93043,4.742011,-0.606427,0.5746437,0.6240861,0.495505,-33.5627,-9.983042,-35.75108,1006.56
7.427132607,-1.134995,4.682918,0.3099082,0.5702382,0.6361248,0.4810564,-32.4584,-10.72642,-36.61126,1006.56
7.462429047,-3.433464,4.387455,-1.278406,0.564387,0.6513548,0.5070409,-32.4584,-10.72642,-36.61126,1006.56
7.495203972,2.405889,3.382879,-3.416522,0.5493233,0.6545915,0.5003327,-32.83599,-9.996675,-36.62225,1006.558
7.527979374,0.3559037,5.214753,-5.127014,0.5473166,0.6899359,0.542644,-32.46516,-10.36198,-36.61699,1006.558
7.560754299,-7.222831,8.464849,-2.805632,0.5409669,0.7095049,0.5628467,-32.46516,-10.36198,-36.61699,1006.558
7.596050739,-15.7955,8.583035,2.020401,0.5085575,0.6561107,0.5577092,-32.82248,-10.72555,-36.61079,1006.558
7.628825664,-10.63947,5.923865,4.402872,0.5314458,0.6245071,0.5379666,-32.0964,-10.74428,-37.8549,1006.557
7.661601067,-9.894025,4.742011,3.853071,0.5222689,0.6029708,0.5336886,-32.0964,-10.74428,-37.8549,1006.558
7.694375992,-7.968281,4.801104,2.386935,0.5315557,0.5782396,0.5380361,-31.75187,-9.645895,-37.43745,1006.558
7.727150917,-8.278885,5.510216,-0.3009819,0.5354508,0.5769214,0.5539138,-31.75863,-9.281458,-37.44318,1006.558
7.762447357,-6.228899,2.673767,-2.988899,0.5305595,0.5909746,0.5495719,-31.75863,-9.281458,-37.44318,1006.558
7.795222759,-3.309222,2.555582,-6.165527,0.5471079,0.5694957,0.5226088,-31.75863,-9.281458,-37.44318,1006.558
7.827997684,9.177053,2.851045,-6.226616,0.5003616,0.6210947,0.5048316,-31.40205,-8.923838,-37.88449,1006.558
7.860772610,4.766479,10.76946,-4.455035,0.482816,0.6350808,0.4360174,-31.03869,-8.930654,-38.32008,1006.563
7.896069050,6.505861,29.50184,-3.844145,0.3930493,0.5888485,0.3390649,-31.03869,-8.930654,-38.32008,1006.558
7.928844452,7.624035,57.09813,0.4931753,0.2745529,0.5911152,0.3171999,-31.76081,-9.29929,-38.74852,1006.561
7.961619377,6.940706,84.10349,6.968611,0.1726188,0.5847549,0.3655874,-30.30658,-9.319762,-39.99357,1006.561
7.994395256,-15.05005,98.69938,10.87831,0.1040535,0.6432329,0.4527884,-30.30658,-9.319762,-39.99357,1006.561
8.027170181,-42.25895,102.3631,9.289993,0.1270301,0.587253,0.4995103,-27.74743,-10.07852,-41.72585,1006.557
8.062466621,-49.09223,103.2495,4.586139,0.2406992,0.5818547,0.5671209,-25.878,-9.758501,-44.65547,1006.557
8.095241547,-54.55886,101.7131,-7.204041,0.2151933,0.4932924,0.6091933,-25.878,-9.758501,-44.65547,1006.558
8.128016949,-27.97117,86.82175,-11.78572,0.1745347,0.4661827,0.7518137,-22.28994,-7.190243,-47.24974,1006.558
8.160791874,-6.539502,72.40314,-24.00352,0.267873,0.438365,0.8416488,-17.95449,-5.795612,-51.13215,1006.558
8.196088314,18.55729,54.49805,-37.07657,0.1963534,0.5072922,0.894183,-17.95449,-5.795612,-51.13215,1006.56
8.228863239,3.337701,45.81142,-45.07923,0.2674966,0.6123056,0.921775,-15.03864,-6.1959,-53.24358,1006.56
8.261638641,2.778614,44.57048,-51.9212,0.2766089,0.4565568,0.925839,-12.42088,-6.971786,-56.2191,1006.562
8.294413567,67.38422,29.0291,-54.12041,0.1636859,0.5544179,0.8465347,-12.42088,-6.971786,-56.2191,1006.562
8.327188492,148.017,17.62422,-53.81496,0.01684183,0.6293294,0.7995966,-9.507833,-7.395,-60.00882,1006.564
8.362484932,161.0623,-38.98657,-45.38468,-0.08431283,0.758895,1.133225,-5.822132,-10.0444,-62.08586,1006.565
8.395260334,133.7913,-58.72353,-14.41255,0.2983425,1.351457,1.069329,-5.822132,-10.0444,-62.08586,1006.567
8.428035259,80.36746,-89.03807,-2.866721,0.1292755,1.171866,1.010793,-3.148656,-17.00368,-64.09367,1006.569
8.460810184,114.099,-103.043,15.45998,0.4074749,0.8625442,0.3886797,-3.351517,-25.82786,-65.26006,1006.571
8.496106624,95.27645,-65.99193,7.946035,0.4422363,1.187028,0.5734325,-3.351517,-25.82786,-65.26006,1006.571
8.528882027,-33.99688,-8.317472,5.685741,0.2669891,0.9574251,0.5443498,-6.557693,-29.44061,-63.45809,1006.571
8.561656952,-36.66808,24.41987,-10.56394,0.1268839,0.6435606,0.4724695,-9.753982,-33.81194,-63.82021,1006.572
8.594431877,77.44779,10.23763,-9.219978,0.1217852,0.7462994,0.4747336,-9.753982,-33.81194,-63.82021,1006.572
8.627207756,57.25854,-1.049072,-3.844145,0.06711707,1.051527,0.3790936,-9.781754,-32.36013,-64.27824,1006.572
8.662503719,7.686156,-8.435658,2.448024,0.1448829,1.005358,0.3000354,-9.745145,-34.15939,-62.57131,1006.572
8.695279121,-13.24855,-13.57672,6.296632,0.1436672,0.921226,0.3896984,-8.631176,-35.24343,-61.6853,1006.574
8.728054523,-12.68946,-6.07195,1.776045,0.1856951,0.8171819,0.4354849,-8.631176,-35.24343,-61.6853,1006.578
8.760829449,14.3952,4.446548,-0.545338,0.1508911,0.9612717,0.4666388,-9.724861,-35.2527,-62.55412,1006.577
8.796125889,29.0557,1.787377,-3.111077,0.1681617,0.8283296,0.378709,-9.731622,-34.88827,-62.55985,1006.574
8.828900814,23.52695,-0.1626814,-3.477611,0.1215359,1.029799,0.3409697,-9.731622,-34.88827,-62.55985,1006.574
8.861676216,-13.24855,-0.8717936,-3.905234,0.147384,0.9832898,0.3453107,-8.996707,-35.25445,-62.55506,1006.574
8.894451141,-22.50454,-0.9308863,-3.721967,0.1373825,0.9099886,0.392137,-9.340099,-36.41357,-62.97156,1006.576
8.927226067,-13.00006,-0.8127009,-3.721967,0.1341718,0.8336008,0.407182,-9.340099,-36.41357,-62.97156,1006.576
8.962522507,5.884653,-1.108164,-1.278406,0.1234695,0.8433058,0.4148946,-9.710835,-36.04741,-62.91465,1006.576
8.995297909,17.377,-4.417355,0.1266412,0.1316257,0.8787066,0.383052,-8.988818,-35.67963,-62.54838,1006.58
9.028072834,16.38306,-4.53554,1.592777,0.1416814,0.9356834,0.3699455,-8.988818,-35.67963,-62.54838,1006.58
9.060847759,6.195257,-2.053647,1.104065,0.1479827,0.940613,0.3708858,-9.352895,-35.67875,-62.5479,1006.58
9.093623161,5.760411,-1.049072,0.7375314,0.1398347,0.8947302,0.3661607,-9.332611,-36.77206,-62.53072,1006.58
9.128919601,12.78006,-1.344535,0.1266412,0.1359212,0.9058626,0.3608582,-9.332611,-36.77206,-62.53072,1006.58
9.161694527,11.59976,-1.639998,0.1266412,0.140739,0.9199599,0.3511983,-9.695235,-36.7593,-61.66002,1006.578
9.194469452,13.27703,-2.526389,0.3099082,0.1348269,0.9544399,0.3439399,-10.05255,-37.12287,-61.65382,1006.578
9.227244854,-2.191048,-1.167257,-1.400584,0.1411874,0.9330199,0.3376994,-10.05255,-37.12287,-61.65382,1006.578
9.262540817,-6.104657,0.01459661,-0.728605,0.1358307,0.9428364,0.3550264,-9.687125,-37.1127,-60.84622,1006.58
9.295316219,2.902856,0.01459661,-0.728605,0.1442052,0.8922478,0.35412,-10.0512,-37.11183,-60.84576,1006.578
9.328092098,5.325566,-0.9899789,-0.1177149,0.140227,0.9281281,0.3357837,-10.0512,-37.11183,-60.84576,1006.582
9.360867024,1.287715,-0.8717936,-0.1788039,0.1392676,0.9222422,0.3309812,-9.309525,-37.84245,-60.83524,1006.582
9.393641949,2.095285,-0.7536082,-0.606427,0.1450846,0.9292096,0.3453977,-9.674225,-37.84667,-61.20772,1006.578
9.428938389,0.6043868,0.01459661,-0.728605,0.1402048,0.9373783,0.3352884,-9.674225,-37.84667,-61.20772,1006.578
9.461713791,1.474078,0.7237088,-1.278406,0.1373518,0.9140537,0.3464016,-9.68109,-37.48308,-61.2756,1006.578
9.494488716,2.902856,-0.5172375,-1.278406,0.13047,0.9475382,0.3372216,-9.66008,-38.57045,-60.8233,1006.584
9.527263641,-3.247101,-0.4581448,-0.667516,0.136322,0.9368689,0.3367424,-9.66008,-38.57045,-60.8233,1006.584
9.562560081,-3.557705,-0.2808668,0.06555218,0.1378933,0.8906872,0.3473983,-9.295276,-38.56538,-60.38866,1006.584
9.595335483,6.133136,-0.4581448,0.3099082,0.1407436,0.9170009,0.3459078,-9.302764,-38.20689,-60.82951,1006.582
9.628110409,4.02103,0.1918747,0.1877302,0.1392248,0.9402622,0.3309541,-9.302764,-38.20689,-60.82951,1006.582
9.660885334,1.908923,0.4873381,-0.3009819,0.1329226,0.9368339,0.3357879,-9.673498,-37.84072,-60.77261,1006.58
9.693660736,0.6043868,-0.5172375,-0.05662585,0.1348795,0.930512,0.33483,-10.03082,-38.20429,-60.76641,1006.578
9.728956699,-0.1410625,-0.1626814,-0.2398929,0.1412115,0.922789,0.3372334,-9.666842,-38.20601,-60.82903,1006.578
9.761732101,1.101353,0.132782,-0.1177149,0.1392588,0.9281669,0.3425249,-9.666842,-38.20601,-60.82903,1006.578
9.794507027,0.7907491,-0.1626814,0.004463164,0.1324413,0.934875,0.3348292,-9.666842,-38.20601,-60.82903,1006.578
9.827282429,0.6043868,-0.6945156,0.1266412,0.1358505,0.930013,0.3319403,-10.03092,-38.20514,-60.82857,1006.578
9.862578392,-0.6380287,-0.6354229,-0.484249,0.1353623,0.9329981,0.3415642,-10.03092,-38.20514,-60.82857,1006.578
9.895353794,0.3559037,-0.5763302,-0.3620709,0.1378368,0.9125331,0.3372569,-9.666115,-38.20007,-60.39392,1006.578
9.928128719,1.101353,-0.2217741,-0.2398929,0.1353826,0.923214,0.3353212,-9.659353,-38.56451,-60.38819,1006.584
9.960904598,2.902856,-0.2217741,-0.3009819,0.1300502,0.9182556,0.3290836,-9.659353,-38.56451,-60.38819,1006.584
9.993679523,3.027097,-0.8717936,0.004463164,0.1348834,0.9280467,0.3305014,-9.673498,-37.84072,-60.77261,1006.582
10.028975487,4.145271,-1.22635,-0.9729611,0.1353557,0.9328943,0.3266421,-9.659353,-38.56451,-60.38819,1006.582
10.061750889,1.163474,-0.5172375,-1.156228,0.1392395,0.9319057,0.3198953,-9.659353,-38.56451,-60.38819,1006.584
10.094526291,2.840735,-0.04449607,-2.072563,0.1334007,0.9392463,0.3319322,-9.659353,-38.56451,-60.38819,1006.584
10.127301216,-2.625894,0.31006,-2.194741,0.143543,0.9596927,0.3183992,-9.666115,-38.20007,-60.39392,1006.584
10.162597656,-9.645541,4.032899,-4.14959,0.1203197,0.9269679,0.3329445,-9.666115,-38.20007,-60.39392,1006.584
10.195372582,-5.918294,8.287572,-6.837507,0.1275902,0.9354119,0.3478367,-10.38824,-38.5687,-60.82236,1006.584
10.228147984,-15.60914,10.41491,-2.194741,0.1230342,1.020866,0.3852649,-8.925787,-38.94173,-61.19147,1006.584
10.260922909,-48.84375,10.71037,9.656528,0.2009977,1.115679,0.4085238,-8.925787,-38.94173,-61.19147,1006.584
10.293697834,-124.6311,23.88804,12.16118,0.3325202,1.162212,0.4986377,-8.938583,-38.20691,-60.76781,1006.582
10.328994274,-137.6765,13.07408,30.18244,0.2941695,1.161026,0.514134,-8.610492,-36.40343,-62.10227,1006.582
10.361769676,-132.2098,1.551006,43.01113,0.4017447,1.043819,0.4793975,-8.610492,-36.40343,-62.10227,1006.584
10.394544602,-136.6825,5.096567,49.97528,0.3612043,0.9518797,0.5441347,-9.079918,-30.89819,-63.86699,1006.584
10.427319527,-169.6687,25.60173,64.881,0.2777066,0.5049878,0.3948214,-11.001,-25.42133,-63.51548,1006.584
10.462615967,-22.56666,18.86516,66.95803,0.2824184,0.3760076,0.4715412,-11.001,-25.42133,-63.51548,1006.584
10.495391369,58.56307,19.81064,54.61804,0.3395349,0.4615563,0.5184503,-14.08433,-19.52841,-64.03939,1006.584
10.528166294,100.8052,23.4153,38.06292,0.3479131,0.6049774,0.4715221,-15.22868,-16.59416,-62.9028,1006.584
10.560941219,66.26605,44.80685,16.25414,0.2758595,0.6605095,0.3493434,-15.22868,-16.59416,-62.9028,1006.582
10.593717098,-3.744068,71.1031,-3.172166,0.2160877,0.6880697,0.3922848,-16.22938,-21.29951,-60.65134,1006.582
10.629013061,-40.58169,92.25828,-24.30897,0.0839527,0.5122718,0.4145245,-16.46917,-27.90735,-59.67656,1006.582
10.661788464,-33.4378,102.895,-39.45904,-0.08136645,0.4108943,0.4627242,-16.46917,-27.90735,-59.67656,1006.582
10.694563866,12.78006,113.7089,-54.7313,-0.1924449,0.3243985,0.2744242,-15.34459,-29.74404,-60.51954,1006.581
10.727338791,80.98867,133.9777,-58.15228,-0.1850858,0.4327047,-0.05837743,-12.68055,-32.65985,-60.04195,1006.581
10.762635231,-133.4522,134.4505,-39.33686,-0.3988715,2.053204,0.635255,-11.77769,-41.37627,-53.12911,1006.579
10.795410156,-787.8325,94.26743,-5.554637,-0.9875724,0.7744907,1.029926,-11.77769,-41.37627,-53.12911,1006.579
10.828185558,-164.6369,9.587611,8.984549,-0.7193308,-2.036891,1.732464,-13.12099,-50.51542,-50.86955,1006.579
10.860960484,373.9502,-71.31026,-34.26648,0.3603632,0.2988451,1.678728,-8.655097,-13.58329,-54.81438,1006.579
10.893735409,223.7422,-41.46847,-4.210679,-0.4432102,0.4725537,0.5896063,-8.655097,-13.58329,-54.81438,1006.579
10.929031849,91.11436,-26.39983,-10.7472,-0.1691804,0.8128666,0.591813,-12.14006,-21.53443,-50.45682,1006.581
10.961807251,-50.83162,4.210177,-1.828207,-0.06983231,0.6838997,0.5566322,-14.89693,-32.83889,-46.85566,1006.581
10.994582176,-64.31182,13.7241,-5.37137,0.0006124106,0.5168861,0.8282049,-14.89693,-32.83889,-46.85566,1006.582
11.027357101,9.984624,3.973806,-9.342156,-0.03762679,0.5103774,1.058878,-15.20183,-36.20161,-48.48096,1006.582
11.062653542,48.87223,-11.80394,-6.04335,-0.1169323,0.5400747,0.8722527,-15.23614,-34.3136,-48.1376,1006.582
11.095428944,26.69511,-6.426506,-1.278406,-0.1171472,0.6099536,0.7657669,-15.23614,-34.3136,-48.1376,1006.584
11.128203869,-9.086454,2.673767,3.120003,-0.07292076,0.5973065,0.7849356,-15.55561,-36.53631,-46.36135,1006.586
11.160978794,-3.744068,3.678343,3.730893,-0.06648444,0.5528272,0.824459,-14.80125,-38.0026,-46.83664,1006.586
11.193754673,0.542266,2.378304,3.853071,-0.08889674,0.5908499,0.8562248,-14.80125,-38.0026,-46.83664,1006.586
11.229050636,-1.818323,2.73286,4.830495,-0.1378413,0.540446,0.8106874,-15.17198,-37.63644,-46.77975,1006.586
11.261826038,-0.8243911,2.260118,4.341783,-0.1596745,0.5375056,0.8343304,-16.27773,-36.90495,-46.7898,1006.59
11.294601440,-2.31529,0.7828014,1.4706,-0.1329709,0.5407175,0.8438894,-16.27773,-36.90495,-46.7898,1006.59
11.327376366,4.207392,-0.5172375,-1.950385,-0.1407415,0.5396184,0.835245,-15.56914,-35.80744,-46.37281,1006.59
11.362672806,6.381619,-2.230925,-2.805632,-0.1116887,0.5714244,0.82165,-15.19768,-36.16765,-45.9946,1006.592
11.395447731,3.337701,-2.230925,-2.561275,-0.09810143,0.5734223,0.8124689,-15.19768,-36.16765,-45.9946,1006.592
11.428223133,-1.56984,-0.6354229,-2.133652,-0.09467234,0.5617989,0.8177733,-15.20506,-35.80831,-46.37329,1006.594
11.460998058,2.095285,-0.2808668,-1.950385,-0.1097214,0.5607193,0.8206988,-15.54292,-37.27198,-46.84716,1006.595
11.493772983,2.530131,-0.3399595,-1.64494,-0.1097183,0.5592516,0.8197383,-15.54292,-37.27198,-46.84716,1006.595
11.529069424,0.6665075,0.132782,-0.667516,-0.09032132,0.5716395,0.826894,-15.18415,-36.89653,-45.98314,1006.595
11.561844826,-0.3895456,0.3691527,0.6153533,-0.1014901,0.5710292,0.8225892,-15.54823,-36.89565,-45.98267,1006.599
11.594619751,-2.004686,0.4873381,1.042976,-0.1136336,0.5718718,0.8182845,-15.54823,-36.89565,-45.98267,1006.599
11.627394676,-1.50772,0.7237088,0.7986204,-0.1145699,0.55776,0.8211961,-15.5475,-36.88971,-45.54756,1006.599
11.662691116,-1.259236,0.07368929,0.06555218,-0.1150549,0.5572589,0.8197539,-15.91231,-36.89478,-45.9822,1006.601
11.695466518,-0.5137872,-0.8717936,-0.606427,-0.1150473,0.5543468,0.8212024,-15.91231,-36.89478,-45.9822,1006.601
11.728241444,0.7286283,-1.167257,-1.217317,-0.1135992,0.5577614,0.8202311,-15.91834,-36.5244,-45.55282,1006.602
11.761016369,1.349836,-1.049072,-1.400584,-0.1092526,0.5675317,0.8192433,-15.92511,-36.15996,-45.55855,1006.602
11.793792248,0.7286283,-0.6354229,-0.9729611,-0.1048787,0.5656067,0.8173104,-15.92511,-36.15996,-45.55855,1006.602
11.829088211,0.1695414,-0.2217741,-0.9118721,-0.1024626,0.571001,0.8197034,-15.54823,-36.89565,-45.98267,1006.604
11.861863613,-0.3274248,0.07368929,-0.606427,-0.102439,0.5612672,0.8206807,-15.5475,-36.88971,-45.54756,1006.604
11.894639015,-1.56984,0.3691527,0.004463164,-0.1073023,0.5656534,0.8269433,-15.18343,-36.89058,-45.54803,1006.604
11.927413940,0.4801453,0.1918747,-0.1177149,-0.1092175,0.5539386,0.8255214,-15.18343,-36.89058,-45.54803,1006.604
11.962710381,2.033165,-0.3399595,-0.606427,-0.1126474,0.5655485,0.8182916,-15.54823,-36.89565,-45.98267,1006.604
11.995485306,0.1695414,-0.04449607,-0.7896941,-0.1102148,0.5651387,0.8264697,-15.92438,-36.15402,-45.12344,1006.604
12.028260708,0.4180245,0.07368929,-0.728605,-0.1106994,0.5636334,0.8206967,-15.92438,-36.15402,-45.12344,1006.604
12.061035633,0.1695414,-0.1626814,-0.2398929,-0.1111933,0.5670352,0.8202114,-16.2689,-37.2524,-45.54089,1006.604
12.093810558,-0.3895456,0.07368929,-0.42316,-0.1140942,0.5606393,0.8144515,-15.53398,-37.61858,-45.5361,1006.608
12.129106998,2.902856,1.019172,-2.133652,-0.1062938,0.5435143,0.7937603,-15.53398,-37.61858,-45.5361,1006.608
12.161882401,10.54371,2.496489,-4.14959,-0.1097398,0.5624498,0.7894077,-15.89806,-37.61771,-45.53563,1006.608
12.194657326,0.7286283,4.210177,-4.76048,-0.09517445,0.5681028,0.8143954,-15.54823,-36.89565,-45.98267,1006.608
12.227432251,-0.3895456,3.855621,-4.332857,-0.1228981,0.5898784,0.8274251,-15.54823,-36.89565,-45.98267,1006.608
12.262728691,1.722561,3.441972,-3.844145,-0.1256895,0.5392302,0.831359,-15.52649,-37.97708,-45.09526,1006.608
12.295504093,6.133136,1.491914,-5.004836,-0.1485364,0.554305,0.8554585,-15.16772,-37.60162,-44.23124,1006.608
12.328279018,21.29061,1.314636,-5.432459,-0.126183,0.5360696,0.7976696,-15.16772,-37.60162,-44.23124,1006.608
12.361053944,28.12389,1.19645,-6.04335,-0.121449,0.5902771,0.8129802,-15.1671,-37.59653,-43.85828,1006.608
12.393829823,29.98751,4.50564,-13.12968,-0.07360186,0.4654496,0.734593,-15.50944,-38.67708,-42.9704,1006.608
12.429125786,68.813,3.087416,-19.36076,-0.1059524,0.5922794,0.7320717,-15.50944,-38.67708,-42.9704,1006.608
12.461901188,59.68125,5.15566,-22.90392,-0.1080494,0.6615717,0.7536335,-15.83618,-40.46952,-40.82788,1006.608
12.494676590,51.41918,3.205601,-23.08718,-0.1639981,0.7033566,0.7363742,-15.76359,-44.07313,-37.78696,1006.61
12.527451515,40.85865,-0.2808668,-13.67948,-0.2060566,0.8256116,0.717998,-15.76359,-44.07313,-37.78696,1006.61
12.562747955,21.66333,2.023748,-2.988899,-0.2477826,0.8020349,0.6695149,-16.45295,-45.85282,-34.77375,1006.61
12.595522880,-15.05005,2.969231,5.930098,-0.2798076,0.8041408,0.7307206,-17.87869,-47.27821,-32.63554,1006.606
12.628298283,-19.77123,0.4282454,6.602077,-0.1672179,0.6253102,0.7230213,-17.87869,-47.27821,-32.63554,1006.608
12.661073208,-9.459179,-3.353686,6.357721,-0.1528333,0.6983451,0.70266,-17.14377,-47.64439,-32.63076,1006.608
12.693848133,-16.47883,-2.585481,5.502475,-0.160646,0.7142684,0.6906205,-17.53635,-46.19765,-33.52343,1006.608
12.729144573,-28.46814,-2.526389,4.708317,-0.1673633,0.6846606,0.7133051,-17.54591,-45.85614,-35.20745,1006.61
12.761919975,-25.17574,-2.644574,3.791982,-0.175993,0.6408557,0.7278324,-17.54591,-45.85614,-35.20745,1006.61
12.794694900,-11.88189,-2.880945,2.264757,-0.164304,0.6263521,0.7292706,-17.20357,-44.77559,-36.09533,1006.612
12.827469826,-2.439531,-3.176408,1.40951,-0.1536752,0.6478269,0.7229553,-17.21106,-44.4171,-36.53617,1006.612
12.862766266,-5.297087,-1.46272,0.7375314,-0.1439884,0.6596467,0.7301349,-17.21106,-44.4171,-36.53617,1006.612
12.895541668,-3.619826,-0.6354229,0.3099082,-0.1487973,0.6396281,0.7287324,-16.8605,-43.68909,-36.5481,1006.612
12.928316593,2.405889,-1.108164,0.1877302,-0.1512598,0.6562405,0.7393032,-17.22593,-43.69926,-37.3557,1006.612
12.961092472,0.7286283,-0.5763302,-0.1177149,-0.1420399,0.6572345,0.7310967,-17.22593,-43.69926,-37.3557,1006.61
12.993867397,-0.9486327,0.07368929,0.9207984,-0.1459225,0.659254,0.746025,-16.85582,-44.07051,-37.78555,1006.612
13.029163837,-2.936497,0.4873381,1.348421,-0.1551422,0.6552306,0.7388325,-16.86727,-43.32466,-36.55383,1006.613
13.061938763,-1.259236,0.1918747,0.6764423,-0.1648217,0.6409991,0.7350261,-16.86727,-43.32466,-36.55383,1006.613
13.094714165,1.598319,-0.6945156,-0.3009819,-0.1648336,0.644348,0.7263566,-17.2199,-44.06964,-37.78508,1006.613
13.127489090,0.1695414,-0.8127009,-0.7896941,-0.1507672,0.6533223,0.7393064,-16.86185,-43.70013,-37.35617,1006.613
13.160264015,1.349836,-0.9308863,-0.8507831,-0.1449322,0.6504688,0.7421851,-16.86185,-43.70013,-37.35617,1006.613
13.195560455,1.287715,-0.5763302,0.004463164,-0.1483413,0.6553342,0.7455553,-16.86789,-43.32975,-36.92678,1006.613
13.228335857,0.2937829,0.4282454,0.5542643,-0.1483351,0.6518949,0.7412283,-17.22531,-43.69417,-36.98274,1006.613
13.261110783,-0.3274248,0.7828014,0.6764423,-0.1507677,0.6533156,0.7383438,-17.22531,-43.69417,-36.98274,1006.613
13.293885708,-0.5137872,0.8418941,0.8597094,-0.151738,0.6533209,0.7402714,-17.58262,-44.05773,-36.97654,1006.613
13.329182148,-0.2031833,0.07368929,1.104065,-0.1551348,0.6518114,0.7373936,-17.59677,-43.33395,-37.36096,1006.618
13.361957550,-1.631961,0.6646161,0.9818874,-0.1570661,0.645904,0.730668,-17.59677,-43.33395,-37.36096,1006.618
13.394732475,1.722561,-0.2217741,0.2488192,-0.1594951,0.6473816,0.7359665,-17.21844,-44.05775,-36.91486,1006.615
13.427507401,1.474078,-0.6354229,-0.1177149,-0.1527184,0.657209,0.7402679,-17.6028,-42.96357,-36.93158,1006.619
13.460283279,0.3559037,0.01459661,0.3709973,-0.1396029,0.6563879,0.7464957,-17.6028,-42.96357,-36.93158,1006.619
13.495578766,-2.37741,0.07368929,1.348421,-0.1517472,0.658228,0.7455591,-17.59542,-43.32291,-36.55289,1006.619
13.528354168,-2.439531,-0.1626814,1.653867,-0.1565914,0.6517992,0.737397,-17.21917,-44.0637,-37.34997,1006.615
13.561130047,-0.9486327,-0.1626814,1.348421,-0.1526864,0.6415438,0.7287388,-17.21917,-44.0637,-37.34997,1006.613
13.593904972,-1.880444,-0.5763302,0.7986204,-0.1488668,0.6739008,0.7546746,-17.95336,-43.69157,-36.91964,1006.618
13.629201412,-1.818323,0.07368929,0.9818874,-0.1521983,0.6425989,0.7398074,-18.32565,-43.33815,-37.79513,1006.618
13.661976337,-2.066807,-0.2808668,0.6764423,-0.1560937,0.6469431,0.7388473,-18.32565,-43.33815,-37.79513,1006.612
13.694751739,-1.072874,-0.5763302,-0.2398929,-0.1493014,0.6489312,0.7364214,-17.23197,-43.32888,-36.92632,1006.61
13.727526665,-0.9486327,-0.4581448,-0.9729611,-0.1560892,0.643477,0.7306694,-17.61102,-42.61102,-37.80753,1006.61
13.760301590,0.4180245,-0.9899789,-1.583851,-0.1463891,0.6499496,0.7393011,-17.61102,-42.61102,-37.80753,1006.608
13.795598030,0.9771115,-0.9899789,-1.706029,-0.1536539,0.6436144,0.747511,-17.59677,-43.33395,-37.36096,1006.608
13.828372955,0.7286283,-0.9308863,-1.217317,-0.1463978,0.6558743,0.7508448,-17.59677,-43.33395,-37.36096,1006.608
13.861148357,1.349836,-0.4581448,-1.03405,-0.1453971,0.6411912,0.739312,-17.59677,-43.33395,-37.36096,1006.607
13.893923283,3.151339,-0.6945156,-0.728605,-0.1488248,0.6533419,0.7397832,-17.59677,-43.33395,-37.36096,1006.605
13.929219723,0.3559037,-0.1626814,-0.2398929,-0.1381459,0.6569105,0.7498611,-17.22593,-43.69926,-37.3557,1006.605
13.961994648,-0.1410625,0.2509673,0.3709973,-0.1449374,0.652914,0.7436255,-17.59001,-43.69839,-37.35523,1006.603
13.994770050,-0.4516664,0.4282454,0.9207984,-0.1536745,0.6513733,0.7426858,-17.59001,-43.69839,-37.35523,1006.603
14.027544975,-1.50772,0.2509673,1.042976,-0.1522291,0.6547444,0.7354569,-17.59001,-43.69839,-37.35523,1006.603
14.060320854,-0.8243911,0.132782,0.3099082,-0.15659,0.6508118,0.7354732,-17.60353,-42.96951,-37.36669,1006.601
14.095617294,0.1695414,-0.3990522,-0.667516,-0.1517219,0.6475101,0.7450938,-17.60353,-42.96951,-37.36669,1006.603
14.128392220,0.3559037,-0.6354229,-0.606427,-0.1400821,0.6539587,0.7479447,-17.59074,-43.70433,-37.79034,1006.601
14.161167622,0.2937829,-0.3990522,-0.3009819,-0.1439765,0.6562979,0.7388045,-17.2252,-43.69332,-36.92059,1006.601
14.193942547,0.1074206,-0.1035888,-0.1788039,-0.1473567,0.6484804,0.7393056,-17.2252,-43.69332,-36.92059,1006.601
14.229238987,-0.2653041,0.07368929,-0.05662585,-0.1478547,0.6543441,0.7426675,-17.95409,-43.69752,-37.35476,1006.601
14.262013912,-0.3895456,0.31006,0.004463164,-0.1473643,0.6524034,0.7431506,-17.59001,-43.69839,-37.35523,1006.603
14.294788838,-0.2031833,0.07368929,0.4931753,-0.1493002,0.6514767,0.7523025,-17.59001,-43.69839,-37.35523,1006.601
14.327564240,-0.9486327,0.07368929,0.3099082,-0.146855,0.6421698,0.7417207,-17.59001,-43.69839,-37.35523,1006.601
14.360339165,1.598319,-0.4581448,-0.3009819,-0.1546393,0.6469184,0.7335489,-16.87538,-42.97126,-37.36763,1006.601
14.395635605,0.7286283,-0.2808668,-0.667516,-0.1429863,0.6490273,0.742664,-16.87538,-42.97126,-37.36763,1006.6
14.428410530,0.2316622,0.01459661,-0.1177149,-0.1444442,0.6500059,0.7450728,-17.95481,-43.70346,-37.78987,1006.6
14.461185932,-0.7622703,0.07368929,0.4320863,-0.1459248,0.660228,0.7460236,-17.9466,-44.05601,-36.91391,1006.6
14.493960857,-0.2031833,0.01459661,0.1877302,-0.1483303,0.6499501,0.7417125,-17.9466,-44.05601,-36.91391,1006.598
14.529257297,-0.1410625,-0.2217741,-0.05662585,-0.144936,0.6514195,0.7388141,-17.96085,-43.33308,-37.36049,1006.598
14.562032223,0.04529982,-0.1035888,-0.2398929,-0.1463906,0.6504298,0.7383377,-17.59677,-43.33395,-37.36096,1006.598
14.594808102,-0.2653041,0.2509673,-0.1177149,-0.1425018,0.6505293,0.7479556,-17.59677,-43.33395,-37.36096,1006.596
14.627583027,0.1074206,0.07368929,0.1877302,-0.1473636,0.6534243,0.7498882,-17.23873,-42.96444,-36.93204,1006.596
14.660358429,0.4180245,0.31006,0.06555218,-0.147365,0.6528971,0.7441126,-17.2252,-43.69332,-36.92059,1006.594
14.695654869,-0.4516664,0.1918747,-0.1788039,-0.150271,0.6499574,0.7450867,-17.2252,-43.69332,-36.92059,1006.594
14.728429794,0.4801453,0.1918747,-0.2398929,-0.147834,0.6455743,0.7421993,-17.59687,-43.3348,-37.42311,1006.594
14.761204719,-0.2653041,0.31006,-0.1788039,-0.146883,0.654866,0.7465153,-17.59001,-43.69839,-37.35523,1006.594
14.793980122,-0.5759079,0.5464308,0.06555218,-0.1488263,0.6548331,0.7441131,-17.59001,-43.69839,-37.35523,1006.594
14.829276562,0.9149907,0.1918747,-0.05662585,-0.154144,0.6440438,0.7398098,-17.96761,-42.96864,-37.36622,1006.593
14.862051487,1.846802,-0.1035888,-0.2398929,-0.1473915,0.663595,0.7416897,-17.23873,-42.96444,-36.93204,1006.597
14.894826412,0.4180245,0.7237088,-0.05662585,-0.1429894,0.6499879,0.7407371,-17.59001,-43.69839,-37.35523,1006.597
14.927601814,0.4180245,0.7828014,0.6764423,-0.1498056,0.6582342,0.7441103,-17.59001,-43.69839,-37.35523,1006.597
14.960376739,-1.197116,1.078265,0.6153533,-0.1517315,0.6508959,0.7417192,-17.58939,-43.69329,-36.98227,1006.597
14.995673180,-0.2031833,0.5464308,0.1877302,-0.1551331,0.6508273,0.735951,-17.58939,-43.69329,-36.98227,1006.595
15.028448105,0.2937829,0.07368929,-0.3620709,-0.1536754,0.6513599,0.7407603,-17.58939,-43.69329,-36.98227,1006.593
15.061223507,0.6043868,-0.2217741,-0.545338,-0.1522121,0.6479394,0.7373925,-17.96085,-43.33308,-37.36049,1006.593
15.093998909,0.9771115,-0.3990522,-0.606427,-0.1454193,0.6514522,0.7441102,-17.23124,-43.32294,-36.4912,1006.595
15.129295349,1.225595,-0.2217741,-0.484249,-0.1478581,0.6553014,0.7402592,-17.23124,-43.32294,-36.4912,1006.597
15.162070751,0.2316622,0.31006,-0.2398929,-0.1507715,0.6542662,0.7349728,-17.58928,-43.69244,-36.92012,1006.595
15.194845676,0.8528699,0.31006,-0.1788039,-0.1434805,0.6534333,0.7465094,-17.96085,-43.33308,-37.36049,1006.595
15.227620602,0.1074206,0.6055234,0.004463164,-0.1522277,0.653757,0.7335329,-17.96085,-43.33308,-37.36049,1006.595
15.260396004,0.542266,0.2509673,0.1266412,-0.1493123,0.6538115,0.7378582,-17.95336,-43.69157,-36.91964,1006.597
15.295692444,-0.3895456,0.3691527,-0.2398929,-0.1517258,0.6489645,0.7441289,-17.59604,-43.32801,-36.92585,1006.597
15.328467369,2.654372,-0.2217741,-0.1788039,-0.1595019,0.6498,0.7335561,-17.59604,-43.32801,-36.92585,1006.599
15.361242294,1.784682,-0.1035888,-0.667516,-0.15224,0.659121,0.7344876,-17.59532,-43.32206,-36.49073,1006.6
15.394017696,1.225595,0.1918747,-0.42316,-0.1396161,0.6607276,0.7402315,-17.95336,-43.69157,-36.91964,1006.6
15.429314137,-0.2031833,0.5464308,0.06555218,-0.1546758,0.6640279,0.7426691,-17.95336,-43.69157,-36.91964,1006.6
15.462089062,-1.134995,0.6646161,0.3099082,-0.153181,0.6474611,0.7398024,-17.95346,-43.69242,-36.9818,1006.602
15.494863987,0.7907491,-0.1035888,-0.1177149,-0.153192,0.6503196,0.7306522,-17.21709,-44.04671,-36.10679,1006.602
15.527639389,-0.07894173,-0.3399595,-0.1177149,-0.1512808,0.6650036,0.7388087,-17.21709,-44.04671,-36.10679,1006.602
15.560414314,-0.07894173,-0.1626814,0.1266412,-0.1420435,0.6607141,0.7412001,-17.59677,-43.33395,-37.36096,1006.6
15.595710754,-0.3274248,0.2509673,0.4320863,-0.1478692,0.6591675,0.7359212,-17.59604,-43.32801,-36.92585,1006.6
15.628486633,-1.134995,0.01459661,0.5542643,-0.1527144,0.6552508,0.7388268,-17.59604,-43.32801,-36.92585,1006.6
15.661261558,-0.3895456,-0.5172375,0.3099082,-0.1541568,0.6483902,0.7345083,-17.23269,-43.33482,-37.36143,1006.6
15.694036484,-0.6380287,-0.2217741,0.1266412,-0.1488363,0.6577083,0.7373697,-17.23134,-43.32378,-36.55336,1006.602
15.729332924,-1.134995,-0.3399595,-0.606427,-0.1488223,0.6528749,0.742672,-17.23134,-43.32378,-36.55336,1006.602
15.762108326,-1.072874,-0.04449607,0.004463164,-0.1410646,0.6578133,0.7431275,-17.60291,-42.96442,-36.99373,1006.602
15.794883251,0.1074206,-0.2808668,0.1266412,-0.1527053,0.6503404,0.7330578,-16.50454,-43.33657,-37.36237,1006.602
15.827658176,0.6665075,-0.2808668,-0.1788039,-0.1435133,0.6655487,0.7378267,-16.50454,-43.33657,-37.36237,1006.602
15.860433578,-0.07894173,-0.1035888,-0.484249,-0.146383,0.6485287,0.7450796,-17.60218,-42.95847,-36.55862,1006.6
15.895730019,0.04529982,-0.04449607,0.004463164,-0.1497932,0.6538811,0.7484491,-17.59677,-43.33395,-37.36096,1006.6
15.928504944,-0.8243911,-0.1035888,0.06555218,-0.1498002,0.6557924,0.7431512,-17.95346,-43.69242,-36.9818,1006.6
15.961279869,-0.8865119,0.01459661,0.1877302,-0.1497819,0.645471,0.7296887,-17.95346,-43.69242,-36.9818,1006.6
15.994055271,-0.2653041,-0.3399595,0.004463164,-0.1483398,0.6533359,0.7383379,-17.23197,-43.32888,-36.92632,1006.599
16.029351711,-0.5759079,-0.5172375,-0.1788039,-0.1536872,0.6562269,0.7402717,-18.3114,-44.06108,-37.34856,1006.6
16.062126637,0.1695414,-0.2808668,-0.05662585,-0.1449416,0.6538579,0.7392918,-18.3114,-44.06108,-37.34856,1006.599
16.094902515,0.1074206,-0.3399595,-0.05662585,-0.1478527,0.6543743,0.7469997,-17.21917,-44.0637,-37.34997,1006.599
16.127677441,-0.1410625,-0.2217741,0.06555218,-0.151243,0.648925,0.7378701,-17.58325,-44.06282,-37.34949,1006.599
16.160452366,-0.2031833,-0.04449607,0.004463164,-0.1454225,0.6519058,0.7392959,-17.58325,-44.06282,-37.34949,1006.6
16.195748806,-0.7001495,0.07368929,0.06555218,-0.148825,0.6548532,0.7470013,-17.2252,-43.69332,-36.92059,1006.604
16.228524208,-0.3895456,-0.2217741,0.1266412,-0.1459181,0.6578063,0.7479527,-17.96012,-43.32714,-36.92537,1006.606
16.261299133,-1.197116,-0.04449607,0.4931753,-0.1556201,0.6528215,0.7431695,-17.96012,-43.32714,-36.92537,1006.608
16.294074059,2.033165,-0.5172375,-0.3620709,-0.1546461,0.6503477,0.736432,-17.22593,-43.69926,-37.3557,1006.608
16.329370499,0.4801453,-0.1035888,-0.545338,-0.1410651,0.6583105,0.7445709,-17.95274,-43.68648,-36.54669,1006.608
16.362145901,-0.1410625,-0.1035888,-0.1177149,-0.1458935,0.6470783,0.7460433,-17.95274,-43.68648,-36.54669,1006.608
16.394920826,-0.3274248,0.01459661,0.4320863,-0.1502977,0.6601481,0.7397764,-17.9467,-44.05686,-36.97607,1006.608
16.427695751,-0.5759079,-0.04449607,0.1266412,-0.1478403,0.6469919,0.7359395,-17.95409,-43.69752,-37.35476,1006.608
16.460471153,-0.3274248,0.132782,0.1266412,-0.149309,0.6528541,0.7402664,-17.95409,-43.69752,-37.35476,1006.608
16.495767593,-0.07894173,-0.04449607,-0.1177149,-0.148828,0.6548063,0.7402623,-17.21844,-44.05775,-36.91486,1006.608
16.528542519,0.1695414,-0.04449607,-0.1788039,-0.1458971,0.6480322,0.7431537,-17.22531,-43.69417,-36.98274,1006.606
16.561318397,0.2316622,-0.1035888,-0.1177149,-0.1449291,0.6484973,0.7388185,-17.22531,-43.69417,-36.98274,1006.608
16.594093323,-0.5759079,0.31006,0.004463164,-0.145429,0.6558455,0.7455477,-17.60353,-42.96951,-37.36669,1006.606
16.629389763,-0.01682095,0.2509673,-0.3009819,-0.1517329,0.6523904,0.7465305,-17.95346,-43.69242,-36.9818,1006.606
16.662164688,-0.07894173,0.4282454,-0.05662585,-0.1473683,0.6543615,0.7445918,-17.95346,-43.69242,-36.9818,1006.606
16.694940090,-0.3895456,0.6055234,0.1266412,-0.1429908,0.6504716,0.7402549,-17.59001,-43.69839,-37.35523,1006.606
16.727715015,-0.8243911,0.4873381,0.1877302,-0.1463977,0.6538558,0.7407393,-17.2199,-44.06964,-37.78508,1006.606
16.760489941,0.8528699,0.5464308,-0.1177149,-0.1488081,0.6450156,0.7330565,-17.2199,-44.06964,-37.78508,1006.604
16.795786381,1.474078,-0.04449607,-0.42316,-0.1507544,0.649483,0.7474953,-17.59001,-43.69839,-37.35523,1006.604
16.828561783,1.411957,0.132782,-0.3620709,-0.143481,0.6534266,0.7455467,-17.59001,-43.69839,-37.35523,1006.604
16.861336708,0.2937829,0.6055234,0.06555218,-0.1459197,0.656772,0.7392897,-17.59604,-43.32801,-36.92585,1006.604
16.894111633,-0.8243911,0.5464308,0.3099082,-0.1473702,0.6558461,0.7479591,-17.59604,-43.32801,-36.92585,1006.604
16.929408073,-0.2031833,0.4873381,0.2488192,-0.1526948,0.6474752,0.7412453,-17.59604,-43.32801,-36.92585,1006.603
16.962183475,0.8528699,0.2509673,-0.3620709,-0.1551262,0.6468943,0.7306619,-17.59074,-43.70433,-37.79034,1006.603
16.994958401,0.542266,-0.4581448,-0.2398929,-0.1478529,0.6553817,0.7518119,-17.59074,-43.70433,-37.79034,1006.603
17.027734280,0.9149907,0.132782,-0.3009819,-0.145909,0.653403,0.7450711,-17.59542,-43.32291,-36.55289,1006.603
17.060509205,0.542266,0.6646161,-0.2398929,-0.1493119,0.6523035,0.7311214,-17.96012,-43.32714,-36.92537,1006.604
17.095805645,0.4801453,0.4873381,-0.2398929,-0.1497917,0.6503681,0.7335322,-17.96012,-43.32714,-36.92537,1006.604
17.128580570,0.4801453,0.31006,-0.1177149,-0.1507682,0.6528018,0.7344936,-17.96012,-43.32714,-36.92537,1006.603
17.161355972,-0.2653041,0.5464308,-0.42316,-0.1507705,0.6537759,0.7344921,-17.96012,-43.32714,-36.92537,1006.603
17.194130898,0.542266,-0.1626814,0.06555218,-0.1517328,0.6518866,0.7441245,-17.96012,-43.32714,-36.92537,1006.603
17.229427338,-0.4516664,0.6646161,-0.1177149,-0.1512534,0.6517936,0.730164,-17.59532,-43.32206,-36.49073,1006.601
17.262202263,2.343769,-0.04449607,-0.3009819,-0.1531969,0.6517573,0.7272805,-17.23873,-42.96444,-36.93204,1006.601
17.294977665,1.722561,-0.1626814,-0.42316,-0.1473786,0.6572301,0.7368857,-17.23873,-42.96444,-36.93204,1006.601
17.327752590,1.163474,0.4873381,-0.3009819,-0.1430033,0.6558323,0.7407283,-17.2252,-43.69332,-36.92059,1006.599
17.360527515,-0.8865119,0.4282454,0.3099082,-0.1590349,0.6591111,0.7412428,-17.59604,-43.32801,-36.92585,1006.599
17.395823956,-1.010753,0.07368929,0.2488192,-0.1575678,0.6537292,0.7359524,-17.59604,-43.32801,-36.92585,1006.599
17.428599358,0.9149907,-0.1626814,0.1877302,-0.1556268,0.6532215,0.7306536,-17.59677,-43.33395,-37.36096,1006.599
17.461374760,-0.2653041,-0.3990522,-0.1788039,-0.1444712,0.6596862,0.7363937,-16.86789,-43.32975,-36.92678,1006.598
17.494150162,-0.2653041,-0.3399595,0.06555218,-0.1473656,0.6538979,0.747962,-16.86789,-43.32975,-36.92678,1006.596
17.526925087,-0.2653041,-0.3990522,0.3709973,-0.1473831,0.6581707,0.7320707,-17.23197,-43.32888,-36.92632,1006.596
17.562221527,-1.197116,-0.04449607,0.1266412,-0.1532011,0.654723,0.7335337,-17.59542,-43.32291,-36.55289,1006.596
17.594996452,-0.5137872,-0.1626814,0.1877302,-0.1556178,0.6498257,0.7325842,-17.59542,-43.32291,-36.55289,1006.594
17.627771854,-0.7622703,0.07368929,-0.42316,-0.1498048,0.6562258,0.7354489,-17.23134,-43.32378,-36.55336,1006.594
17.660546780,-0.8865119,-0.3399595,-0.2398929,-0.151256,0.6552898,0.7426742,-17.23134,-43.32378,-36.55336,1006.594
17.695843220,-0.4516664,-0.3990522,0.1266412,-0.1459236,0.659741,0.7460243,-17.23134,-43.32378,-36.55336,1006.592
17.728618145,-0.2653041,-0.1035888,0.06555218,-0.1507573,0.6479215,0.7330568,-17.60208,-42.95763,-36.49646,1006.592
17.761393547,0.542266,-0.1035888,-0.05662585,-0.1536959,0.6586152,0.733529,-17.23134,-43.32378,-36.55336,1006.591
17.794168472,0.4180245,-0.04449607,-0.42316,-0.14638,0.6470609,0.744119,-17.23134,-43.32378,-36.55336,1006.591
17.826944351,0.2937829,0.132782,-0.05662585,-0.1488322,0.6557503,0.7359287,-17.2252,-43.69332,-36.92059,1006.591
17.862239838,-0.6380287,0.2509673,0.1266412,-0.1391163,0.6528723,0.730615,-17.59532,-43.32206,-36.49073,1006.591
17.895015717,-0.3274248,0.132782,-0.05662585,-0.1492944,0.6455052,0.7340198,-17.22666,-43.7052,-37.79081,1006.591
17.927790642,-0.7001495,-0.1035888,0.3099082,-0.1507686,0.653806,0.7388243,-17.22666,-43.7052,-37.79081,1006.592
17.960566044,-0.01682095,0.132782,-0.42316,-0.1512455,0.6504028,0.7402747,-17.59001,-43.69839,-37.35523,1006.591
17.995862484,0.4180245,-0.7536082,0.004463164,-0.1463888,0.6534894,0.7580689,-17.6028,-42.96357,-36.93158,1006.591
18.028637409,-0.01682095,-0.6945156,0.3709973,-0.1488306,0.6572917,0.747479,-17.6028,-42.96357,-36.93158,1006.589
18.061412334,-0.8243911,-0.1035888,0.004463164,-0.1488281,0.6542992,0.7373748,-17.5819,-44.05178,-36.54143,1006.589
18.094187737,0.2316622,0.31006,-0.1177149,-0.1517231,0.6444607,0.7268066,-17.22593,-43.69926,-37.3557,1006.589
18.126962662,-1.010753,-0.3399595,0.004463164,-0.150273,0.6524528,0.7537474,-17.22593,-43.69926,-37.3557,1006.589
18.162259102,-1.383478,-0.2808668,0.4320863,-0.1454147,0.6489971,0.7412257,-17.96085,-43.33308,-37.36049,1006.587
18.195034027,-0.7622703,0.132782,0.3099082,-0.1473643,0.6524034,0.7431506,-17.58928,-43.69244,-36.92012,1006.587
18.227809429,1.287715,-0.3990522,-0.1788039,-0.156091,0.6439539,0.7292246,-17.58928,-43.69244,-36.92012,1006.585
18.260584831,1.039232,-0.4581448,-0.2398929,-0.1502903,0.6572326,0.7407435,-17.59001,-43.69839,-37.35523,1006.585
18.295880795,-0.3274248,0.132782,-0.1788039,-0.1459152,0.6558315,0.7441047,-17.59677,-43.33395,-37.36096,1006.585
18.328656674,-0.2031833,0.07368929,0.06555218,-0.1507713,0.6547734,0.7378602,-17.59677,-43.33395,-37.36096,1006.584
18.361431599,-0.3274248,0.01459661,0.2488192,-0.1522218,0.651829,0.736424,-17.59001,-43.69839,-37.35523,1006.584
18.394206524,-0.4516664,-0.1035888,0.4320863,-0.1473641,0.6529105,0.746038,-17.96085,-43.33308,-37.36049,1006.584
18.426981926,-0.2653041,-0.2808668,-0.1788039,-0.1492929,0.6465396,0.7426827,-17.96085,-43.33308,-37.36049,1006.584
18.462278366,-0.01682095,-0.04449607,-0.3009819,-0.1478479,0.6524295,0.747484,-17.58939,-43.69329,-36.98227,1006.584
18.495053291,0.1074206,-0.1035888,0.004463164,-0.14541,0.6465452,0.7388226,-17.95274,-43.68648,-36.54669,1006.584
18.527828216,-0.07894173,-0.04449607,-0.05662585,-0.1517405,0.6553025,0.7450821,-17.95274,-43.68648,-36.54669,1006.58
18.560603619,-0.3895456,0.132782,-0.05662585,-0.1492991,0.648968,0.7417163,-18.31816,-43.69664,-37.35429,1006.58
18.595900059,-0.2031833,0.07368929,0.004463164,-0.1492983,0.6484743,0.7407543,-17.59001,-43.69839,-37.35523,1006.58
18.628674984,-0.07894173,0.132782,-0.05662585,-0.1532004,0.6557439,0.7402712,-17.59001,-43.69839,-37.35523,1006.58
18.661449909,-0.5137872,0.5464308,0.1266412,-0.1483412,0.6548305,0.7431493,-17.95346,-43.69242,-36.9818,1006.58
18.694225788,-0.2031833,0.7237088,0.1266412,-0.1473591,0.6484436,0.7340107,-17.58928,-43.69244,-36.92012,1006.578
18.727000713,1.287715,0.31006,-0.484249,-0.1502839,0.6527858,0.7316043,-17.58928,-43.69244,-36.92012,1006.58
18.762297153,0.2937829,0.2509673,-0.3620709,-0.1497845,0.6514928,0.7551918,-17.59677,-43.33395,-37.36096,1006.58
18.795072555,0.7907491,-0.04449607,0.1877302,-0.1473663,0.6543916,0.748924,-17.22531,-43.69417,-36.98274,1006.58
18.827847481,-0.8243911,0.6055234,0.1877302,-0.1546642,0.6581468,0.7373829,-17.22531,-43.69417,-36.98274,1006.58
18.860622406,-1.259236,0.07368929,0.004463164,-0.1570739,0.6523492,0.7470247,-17.58939,-43.69329,-36.98227,1006.578
18.895918846,-0.5759079,0.01459661,-0.1177149,-0.1512598,0.6577551,0.7470027,-17.94597,-44.05091,-36.54096,1006.578
18.928694248,0.1695414,0.31006,-0.728605,-0.1507686,0.6522914,0.7311249,-17.95409,-43.69752,-37.35476,1006.583
18.961469173,0.9745995,-0.4579032,-0.2383896,-0.1439676,0.6559314,0.756134,-17.95409,-43.69752,-37.35476,1006.583
18.994244099,0.5987989,0.6646304,-0.420283,-0.1478579,0.6532831,0.7301537,-17.22458,-43.68822,-36.54763,1006.584
19.027019501,0.6596289,0.2494951,-0.1754014,-0.1483388,0.6533526,0.7407447,-17.97375,-42.59911,-36.99899,1006.584
19.062315464,0.223251,0.2491412,-0.2361802,-0.1541651,0.6507852,0.7287284,-17.97375,-42.59911,-36.99899,1006.584
19.095090866,0.9038001,0.6618116,-0.4190787,-0.1497967,0.6518058,0.7301605,-17.95409,-43.69752,-37.35476,1006.586
19.127866745,-0.2144532,0.1288728,0.3750051,-0.1498047,0.6582476,0.7460358,-17.59604,-43.32801,-36.92585,1006.586
19.160641670,0.5917105,0.06829103,0.4971488,-0.1483397,0.6573794,0.7595117,-17.59604,-43.32801,-36.92585,1006.586
19.195938110,0.4686507,0.3025272,0.06841682,-0.1580402,0.6478707,0.7345183,-17.58866,-43.68735,-36.54716,1006.586
19.228713036,2.32516,-0.2888722,-0.2368276,-0.1561196,0.6576509,0.7378685,-17.95346,-43.69242,-36.9818,1006.586
19.261488438,1.69615,0.1253799,-0.6014187,-0.1473577,0.6494745,0.7421923,-17.95346,-43.69242,-36.9818,1006.586
19.294263363,0.4483607,0.3610539,-0.1723215,-0.1469013,0.6616509,0.7416915,-17.58939,-43.69329,-36.98227,1006.586
19.327038288,-1.228174,0.2998594,0.1940527,-0.1527331,0.6630399,0.7383338,-17.21782,-44.05266,-36.5419,1006.586
19.362334728,-0.4783868,0.121636,-0.05117413,-0.1580406,0.647864,0.7335556,-17.21782,-44.05266,-36.5419,1006.588
19.395110130,0.9481314,-0.1142853,-0.2947849,-0.1512666,0.6576479,0.7315993,-17.58939,-43.69329,-36.98227,1006.586
19.427885056,-0.4199928,-0.05465297,-0.04941895,-0.1464065,0.6577587,0.7416962,-17.58793,-43.6814,-36.11205,1006.586
19.460660934,0.2016989,-0.05441155,0.2564953,-0.1463899,0.6509471,0.7426692,-17.58793,-43.6814,-36.11205,1006.586
19.495956421,-0.481949,-0.1135246,0.2551582,-0.1507944,0.6640101,0.7354395,-17.22531,-43.69417,-36.98274,1006.586
19.528732300,-0.6032709,-0.1137286,0.3145366,-0.1517413,0.6542782,0.7378632,-17.22458,-43.68822,-36.54763,1006.586
19.561507225,-0.1671553,-0.2901167,0.1910957,-0.1590291,0.6551613,0.7335469,-17.22458,-43.68822,-36.54763,1006.584
19.594282627,-1.097135,-0.4655077,0.06827293,-0.1541717,0.6552286,0.7373861,-17.2252,-43.69332,-36.92059,1006.586
19.627057552,-0.4729559,-0.6995546,-0.05374248,-0.1531867,0.6493924,0.7373926,-17.58928,-43.69244,-36.92012,1006.584
19.662353992,-1.029752,-0.5784846,0.4957387,-0.1434786,0.6524525,0.7455482,-17.58928,-43.69244,-36.92012,1006.586
19.695128918,-0.2809261,-0.8733699,0.4949439,-0.1522324,0.6572198,0.7412295,-17.95274,-43.68648,-36.54669,1006.586
19.727904320,0.3385037,-0.5177748,0.3110773,-0.1537017,0.6655976,0.7571052,-17.95263,-43.68563,-36.48453,1006.586
19.760679245,1.332632,-0.1623874,-0.05498059,-0.1429761,0.6461554,0.7498887,-17.95263,-43.68563,-36.48453,1006.59
19.795975685,0.7109719,0.3694727,0.006273258,-0.1439667,0.6534192,0.7450665,-17.96688,-42.9627,-36.93111,1006.592
19.828750610,-0.217094,0.4284121,-0.116505,-0.1454209,0.6489,0.7272663,-17.22531,-43.69417,-36.98274,1006.592
19.861526489,-0.46175,-0.516872,0.1883428,-0.1526925,0.6465012,0.7412468,-17.22531,-43.69417,-36.98274,1006.592
19.894301414,-0.8323784,0.1931798,-0.2395115,-0.1512598,0.652704,0.7210168,-17.2381,-42.95935,-36.55909,1006.592
19.927076817,0.4127095,-0.4555331,-0.4831209,-0.1468656,0.6475605,0.7465262,-17.2381,-42.95935,-36.55909,1006.592
19.962373257,0.4118707,-0.6901087,0.4340515,-0.1449589,0.664196,0.7551612,-17.58928,-43.69244,-36.92012,1006.594
19.995148182,0.3509925,-0.512372,0.2502797,-0.1488253,0.6548498,0.7465199,-17.58928,-43.69244,-36.92012,1006.594
20.027923107,0.2902849,-0.3346922,0.0661845,-0.1449391,0.6538981,0.7450681,-17.21917,-44.0637,-37.34997,1006.594
20.060698509,0.4156798,-0.5703104,0.2489523,-0.1473658,0.6538946,0.7474806,-17.21782,-44.05266,-36.5419,1006.594
20.095994473,-1.074881,-0.2144925,0.004212345,-0.1488358,0.6597368,0.7489194,-17.21782,-44.05266,-36.5419,1006.596
20.128769875,-0.9484404,-0.7462861,0.6152765,-0.144947,0.66034,0.7609433,-17.23207,-43.32973,-36.98847,1006.596
20.161544800,-1.81442,0.317348,0.3083956,-0.151732,0.6498782,0.735463,-17.59677,-43.33395,-37.36096,1006.598
20.194320202,0.05197994,-0.3922973,-0.05895471,-0.1585332,0.6502751,0.7306649,-17.59677,-43.33395,-37.36096,1006.6
20.227095604,1.10334,-0.4492532,-0.4243669,-0.1464016,0.6553102,0.7397745,-17.95336,-43.69157,-36.91964,1006.6
20.262392044,0.1686928,-0.2703555,-0.3005372,-0.1463947,0.6528918,0.7421849,-17.58325,-44.06282,-37.34949,1006.6
20.295167446,0.6649128,-0.03392081,0.1889786,-0.1459245,0.6612422,0.7517985,-17.58325,-44.06282,-37.34949,1006.602
20.327942371,-0.5739207,-0.624951,0.6161956,-0.150298,0.663174,0.7546941,-17.21855,-44.05861,-36.97701,1006.6
20.360717297,-1.439207,-0.152072,0.8585185,-0.1498127,0.6636785,0.7566175,-17.95346,-43.69242,-36.9818,1006.6
20.396013737,-4.233426,0.3207464,0.7356859,-0.1502606,0.6440595,0.7373937,-17.95346,-43.69242,-36.9818,1006.6
20.428788662,-2.18344,0.1434683,-0.1195603,-0.1376449,0.6485682,0.7402452,-17.95346,-43.69242,-36.9818,1006.6
20.461564064,-1.313749,0.3207464,0.06370676,-0.1536595,0.6460529,0.7479888,-17.59001,-43.69839,-37.35523,1006.598
20.494338989,-0.2576963,-0.03380971,-0.2417383,-0.1556068,0.6459563,0.7364408,-17.59001,-43.69839,-37.35523,1006.598
20.527114391,-0.7546625,-0.09290238,-0.4250054,-0.1483538,0.6606949,0.7460286,-17.24018,-42.97633,-37.80227,1006.596
20.562410355,-0.5061794,0.1434683,-0.6693614,-0.14733,0.6377859,0.7422099,-17.23945,-42.97039,-37.36716,1006.596
20.595185757,-0.1334547,0.08437566,-0.3028273,-0.1526923,0.6465045,0.7417281,-17.23945,-42.97039,-37.36716,1006.596
20.627961636,-0.009213155,0.1434683,0.1247958,-0.1395951,0.6534791,0.7484256,-17.24018,-42.97633,-37.80227,1006.596
20.660736561,-0.4440586,0.7934878,0.3080628,-0.1400704,0.6470701,0.7378464,-17.59074,-43.70433,-37.79034,1006.594
20.696033001,1.605927,0.3207464,-0.1806493,-0.1517326,0.6508791,0.7393124,-17.59074,-43.70433,-37.79034,1006.594
20.728807926,0.05290762,0.6753024,-0.2417383,-0.1444439,0.6505164,0.7484416,-17.23269,-43.33482,-37.36143,1006.594
20.761583328,0.4256323,0.6753024,0.4913299,-0.1478238,0.6421986,0.747018,-17.22593,-43.69926,-37.3557,1006.594
20.794358253,0.3013907,-0.03380971,0.796775,-0.1590322,0.6606693,0.7551999,-17.22593,-43.69926,-37.3557,1006.594
20.827133179,-0.5683001,0.9116732,0.06370676,-0.149763,0.6381891,0.7330691,-16.88141,-42.60088,-36.93824,1006.596
20.862429619,0.9225985,0.3798391,-0.2417383,-0.1487814,0.6348248,0.7383669,-17.23945,-42.97039,-37.36716,1006.594
20.895204544,0.1150284,-0.4474585,-0.4250054,-0.1565847,0.6498846,0.7422136,-17.96022,-43.32799,-36.98753,1006.599
20.927980423,0.1771492,-0.03380971,-0.6082724,-0.1444495,0.651944,0.7436258,-17.96022,-43.32799,-36.98753,1006.599
20.960755825,0.8604777,0.3207464,0.2469738,-0.1424981,0.6490716,0.7484391,-17.23873,-42.96444,-36.93204,1006.599
20.993530750,-0.9410248,-0.09290238,0.1247958,-0.1512442,0.6529484,0.7561558,-17.23269,-43.33482,-37.36143,1006.597
21.028827190,1.419565,0.4980244,-0.1806493,-0.152685,0.6430819,0.7398078,-17.23269,-43.33482,-37.36143,1006.597
21.061602116,-0.5061794,-0.1519951,0.1858848,-0.1614671,0.6605386,0.7393209,-17.25298,-42.24151,-37.37862,1006.597
21.094377518,-0.6304209,0.8525805,1.285487,-0.1639005,0.6629568,0.7398044,-17.23197,-43.32888,-36.92632,1006.597
21.127152443,-2.804648,-0.6838292,1.774199,-0.1594797,0.6440862,0.7523378,-17.23197,-43.32888,-36.92632,1006.597
21.162448883,-2.245561,-2.338424,3.301425,-0.1434505,0.6432961,0.7595214,-17.5975,-43.33989,-37.79607,1006.599
21.195223808,3.096826,-0.5065512,3.301425,-0.1275233,0.6747518,0.7113,-17.60353,-42.96951,-37.36669,1006.599
21.227999210,-7.463706,1.325322,3.118158,-0.1435149,0.6710801,0.7628492,-17.60353,-42.96951,-37.36669,1006.599
21.260774612,-4.295547,0.6753024,2.324,-0.1657292,0.6238028,0.7846344,-17.60426,-42.97546,-37.8018,1006.599
21.293550015,-1.189508,-0.4474585,0.6745969,-0.1404111,0.592253,0.7696997,-16.87683,-42.98315,-38.23785,1006.599
21.328846455,5.333174,-2.042961,1.346576,-0.1489191,0.692781,0.7382799,-16.87683,-42.98315,-38.23785,1006.597
21.361621380,-7.898551,0.1434683,-0.3639164,-0.1477905,0.6225133,0.7176846,-17.61102,-42.61102,-37.80753,1006.597
21.394396305,5.333174,-0.7429219,-1.891142,-0.1589781,0.6312067,0.7205861,-17.24839,-42.62378,-38.67822,1006.597
21.427171707,3.966516,-1.392941,-0.3639164,-0.1536807,0.6618855,0.7835857,-17.24839,-42.62378,-38.67822,1006.595
21.462467670,10.86192,0.5571171,2.201822,-0.1157072,0.619303,0.7777835,-17.24621,-42.60595,-37.37289,1006.595
21.495243072,12.97403,0.202561,5.867163,-0.1300551,0.7226074,0.7324138,-17.2537,-42.24746,-37.81373,1006.595
21.528017998,-9.513693,2.979917,5.195184,-0.1236387,0.6732695,0.7035912,-17.2537,-42.24746,-37.81373,1006.595
21.560793400,-1.437991,0.1434683,2.934891,-0.1691637,0.6318061,0.7490097,-16.50454,-43.33657,-37.36237,1006.594
21.593568802,-1.437991,-2.220239,2.262911,-0.1652921,0.6387072,0.7562106,-17.59219,-43.71622,-38.66056,1006.592
21.628865242,-2.556165,-5.233966,2.812712,-0.1254965,0.6498242,0.7662081,-17.59219,-43.71622,-38.66056,1006.592
21.661640644,0.9847193,-5.706707,2.507267,-0.1045743,0.6259165,0.734906,-17.23415,-43.34671,-38.23165,1006.592
21.694415569,8.625574,-2.752073,4.706472,-0.09892999,0.6918057,0.6779925,-17.59219,-43.71622,-38.66056,1006.592
21.727190494,1.419565,4.929976,10.75428,-0.1389847,0.7857423,0.6471388,-17.59219,-43.71622,-38.66056,1006.59
21.762486935,-16.96819,12.31656,8.55508,-0.04760515,0.5500562,0.6833794,-17.59146,-43.71027,-38.22545,1006.596
21.795262337,9.992231,10.42559,8.799437,-0.1728905,0.7721252,0.7608411,-17.23487,-43.35266,-38.66676,1006.594
21.828037262,-34.362,11.66654,1.774199,-0.1699107,0.544381,0.784764,-17.23487,-43.35266,-38.66676,1006.594
21.860812187,7.010435,2.861732,-4.334702,-0.1887026,0.4843656,0.7916381,-17.62527,-41.88809,-38.2541,1006.594
21.893588066,13.09827,3.393566,-4.212524,-0.1829233,0.7104589,0.7999482,-16.57506,-39.71598,-39.16011,1006.591
21.928883553,-3.425856,3.393566,-6.96153,-0.1252926,0.5661327,0.777405,-15.48813,-39.34227,-38.29703,1006.591
21.961659431,11.04828,-1.038385,-6.594996,-0.1007352,0.6585782,0.804645,-15.48813,-39.34227,-38.29703,1006.589
21.994434834,2.227135,-1.333849,-4.640148,-0.06968459,0.6604541,0.7569137,-16.20131,-40.05751,-37.41441,1006.589
22.027209759,6.451348,0.02528298,-3.723812,-0.09457824,0.7011526,0.6861513,-16.54511,-41.14995,-37.39675,1006.589
22.062506199,-2.618286,1.975342,-2.318765,-0.1678561,0.6916155,0.7335129,-16.54511,-41.14995,-37.39675,1006.587
22.095281124,0.6119946,0.4389318,0.002617747,-0.176509,0.6580549,0.7504316,-16.54448,-41.14486,-37.02379,1006.587
22.128056526,0.3635115,-1.865683,3.545781,-0.1931498,0.7134448,0.7513504,-16.91667,-40.79058,-37.83712,1006.59
22.160831451,-5.475841,-1.038385,7.516567,-0.2256364,0.690663,0.7360582,-16.91667,-40.79058,-37.83712,1006.59
22.193606377,-4.730392,-4.406668,8.066368,-0.1983065,0.6384987,0.7659164,-16.92343,-40.42614,-37.84285,1006.59
22.228902817,3.221067,-4.288483,-0.7915395,-0.1446582,0.5234201,0.6817243,-16.94444,-39.33878,-38.29515,1006.588
22.261678696,2.289255,-3.106629,-8.305489,-0.130359,0.6446255,0.7248303,-16.94444,-39.33878,-38.29515,1006.588
22.294453621,1.978652,-3.57937,-11.6043,-0.1001445,0.6046611,0.7546633,-16.91667,-40.79058,-37.83712,1006.586
22.327229023,19.55883,-4.997595,-11.90974,-0.1139316,0.682882,0.7435067,-16.90991,-41.15502,-37.83139,1006.586
22.362524986,0.1771492,-1.333849,-9.099646,-0.1275255,0.6858313,0.7637517,-16.90991,-41.15502,-37.83139,1006.586
22.395300388,10.24071,-1.688405,-1.646786,-0.1236495,0.6857298,0.7444882,-16.50995,-42.96109,-36.56003,1006.585
22.428075314,-1.251629,0.7934878,4.584294,-0.1053699,0.7539101,0.7217181,-16.86581,-43.31277,-35.68361,1006.585
22.460850716,-7.960673,2.211712,10.26557,-0.1208139,0.7138342,0.7203711,-16.86581,-43.31277,-35.68361,1006.585
22.493625641,-9.948538,2.034434,13.38111,-0.1465102,0.7000832,0.7348936,-16.8605,-43.68909,-36.5481,1006.581
22.528922081,-10.1349,2.093527,8.005279,-0.1763137,0.5701858,0.7212006,-16.8761,-42.9772,-37.80274,1006.581
22.561697960,-2.494044,1.148044,0.918953,-0.1870544,0.5964631,0.7308137,-16.8761,-42.9772,-37.80274,1006.584
22.594472885,4.152879,-1.274756,-5.495394,-0.1438106,0.5866597,0.7398717,-16.89566,-41.87795,-37.38482,1006.582
22.627247810,9.06042,-1.865683,-8.000044,-0.1168667,0.6951471,0.7598615,-16.54583,-41.15589,-37.83186,1006.58
22.662544250,3.221067,0.5571171,-9.221824,-0.08900682,0.608319,0.7069765,-16.54583,-41.15589,-37.83186,1006.582
22.695319652,10.86192,3.9254,-9.282913,-0.1042495,0.6860407,0.6958242,-16.88214,-42.60682,-37.37336,1006.582
22.728094578,4.028638,9.480111,-11.05449,-0.1177278,0.6377585,0.702668,-17.25163,-42.23047,-36.57055,1006.58
22.760869503,3.096826,8.711906,-13.43697,-0.1667499,0.6401929,0.7615068,-17.25163,-42.23047,-36.57055,1006.578
22.793644905,15.76946,2.743546,-11.90974,-0.2114559,0.6594988,0.789984,-17.24414,-42.58897,-36.12971,1006.583
22.828940868,28.1315,-1.215663,-5.678661,-0.18009,0.7294319,0.7233763,-16.87788,-42.57201,-34.82484,1006.581
22.861716747,5.02257,0.4389318,-2.196587,-0.2283215,0.7947158,0.7142465,-16.87788,-42.57201,-34.82484,1006.581
22.894492149,-16.65758,-1.038385,3.851226,-0.2844926,0.7330211,0.7346899,-17.24061,-42.5601,-34.01631,1006.581
22.927267075,-17.09243,-5.588522,13.25893,-0.260767,0.7665182,0.7605767,-17.22033,-43.65341,-33.99912,1006.583
22.962563515,-16.03637,-10.37503,14.5418,-0.2069852,0.609584,0.750577,-17.95732,-43.30421,-35.24709,1006.583
22.995338440,8.128608,-14.33424,10.75428,-0.1622274,0.5718949,0.7399377,-17.95732,-43.30421,-35.24709,1006.583
23.028113842,15.39674,-11.85235,11.05973,-0.07072265,0.6806132,0.7154887,-16.86654,-43.31871,-36.11872,1006.585
23.060888767,15.64522,-5.233966,10.32666,-0.03234122,0.6550018,0.6283098,-17.57441,-44.41028,-36.10059,1006.585
23.093663692,7.321039,-3.697556,7.577656,-0.08585026,0.7086112,0.697672,-17.57441,-44.41028,-36.10059,1006.585
23.128960133,-6.656136,-1.156571,10.32666,-0.05865317,0.707911,0.7043476,-18.27021,-46.24261,-36.94122,1006.585
23.161736012,1.233202,1.857156,11.12082,-0.06534445,0.6559783,0.6683397,-17.52916,-46.97832,-37.30366,1006.589
23.194510937,2.102893,5.166346,8.738347,-0.06391121,0.668757,0.6832392,-17.52916,-46.97832,-37.30366,1006.589
23.227286339,-7.339465,8.830092,5.683896,-0.06189005,0.6391951,0.7020521,-17.89396,-46.98339,-37.7383,1006.589
23.262582779,-6.656136,8.475535,4.706472,-0.1135303,0.7219787,0.76222,-17.92101,-45.52565,-37.76122,1006.59
23.295357704,-10.07278,7.352776,2.201822,-0.1545905,0.6289922,0.7470539,-17.92101,-45.52565,-37.76122,1006.59
23.328132629,16.82552,2.979917,-0.4250054,-0.1657418,0.6140069,0.7066686,-17.2199,-44.06964,-37.78508,1006.59
23.360908032,19.12399,-2.811166,2.568357,-0.2337146,0.8150761,0.7070081,-17.61175,-42.61696,-38.24264,1006.59
23.393683434,-10.38338,-5.588522,7.150033,-0.2389867,0.7898468,0.7272758,-17.61175,-42.61696,-38.24264,1006.59
23.428979397,-26.41054,-11.91144,11.60953,-0.1406647,0.7034557,0.7926381,-18.33241,-42.97371,-37.80086,1006.59
23.461755276,-9.762176,-13.56603,12.3426,-0.06904583,0.5901154,0.7266924,-18.33459,-42.99155,-39.10619,1006.592
23.494530201,8.377091,-10.49321,12.3426,-0.02741507,0.6389722,0.6986011,-18.33459,-42.99155,-39.10619,1006.592
23.527305126,8.874058,-4.761224,11.18191,-0.05577004,0.7109963,0.6542745,-18.34884,-42.26862,-39.55276,1006.592
23.562601566,-7.587947,-1.747497,5.561718,-0.0934459,0.6349853,0.6949129,-18.70147,-43.0136,-40.78401,1006.595
23.595376968,10.4892,-3.047536,-5.006681,-0.09139504,0.5866922,0.6815026,-18.70147,-43.0136,-40.78401,1006.595
23.628151894,5.146811,-3.756649,-11.90974,-0.05175068,0.6666675,0.7183529,-19.07304,-42.65423,-41.22438,1006.593
23.660926819,15.89371,-1.333849,-14.71984,-0.03619309,0.6504306,0.6759806,-19.0641,-43.00084,-39.91332,1006.593
23.693702698,21.42245,2.38899,-9.588358,-0.03405143,0.7727615,0.6854184,-19.0641,-43.00084,-39.91332,1006.591
23.728999138,2.102893,9.952853,-3.84599,-0.04856468,0.7507505,0.6893369,-18.67766,-44.07804,-38.65342,1006.591
23.761774063,-0.4440586,14.97573,0.796775,-0.06306323,0.7183614,0.6716098,-19.00575,-45.88152,-37.31897,1006.591
23.794549465,-2.991011,17.04398,3.790137,-0.1092786,0.7570357,0.6856205,-19.00575,-45.88152,-37.31897,1006.59
23.827324390,-9.451571,14.62117,3.423603,-0.1712613,0.6950264,0.7378481,-18.66196,-44.78908,-37.33663,1006.59
23.862620831,-5.662203,8.35735,0.7356859,-0.1681886,0.635918,0.7788457,-18.31816,-43.69664,-37.35429,1006.588
23.895395756,-1.500112,2.38899,-0.5471834,-0.1269441,0.6479343,0.7763229,-18.31816,-43.69664,-37.35429,1006.59
23.928171158,13.47099,-1.452034,-0.5471834,-0.08040319,0.6709122,0.7328553,-17.98123,-42.24062,-37.43983,1006.591
23.960946083,11.85585,-2.338424,0.980042,-0.1005261,0.7578067,0.7159244,-18.00142,-41.14646,-37.39487,1006.591
23.993721962,-0.9410248,-1.038385,1.10222,-0.1057666,0.7078142,0.6770219,-18.00142,-41.14646,-37.39487,1006.591
24.029018402,-3.425856,-1.333849,0.06370676,-0.1340759,0.7744926,0.7044262,-17.61643,-42.23555,-37.00519,1006.591
24.061793327,-21.81361,-2.456609,3.60687,-0.1527602,0.6712022,0.7214738,-18.33845,-42.60333,-37.37148,1006.591
24.094568253,13.16039,-5.233966,4.462116,-0.0968857,0.6514924,0.6915266,-18.35946,-41.51596,-37.82378,1006.591
24.127343655,8.687695,-1.274756,1.529843,-0.1024161,0.7207211,0.6380042,-18.35946,-41.51596,-37.82378,1006.591
24.162640095,7.196797,2.920825,-2.01332,-0.1489408,0.6742536,0.5953434,-17.98331,-42.2576,-38.68301,1006.59
24.195415020,2.848342,2.684454,-3.174011,-0.1282228,0.7628291,0.7010604,-18.34459,-42.2338,-37.00425,1006.588
24.228189945,-13.17882,3.216288,-0.6693614,-0.05615991,0.6938025,0.7736791,-18.34459,-42.2338,-37.00425,1006.588
24.260965824,-13.92427,2.802639,3.60687,-0.01104229,0.7177976,0.808194,-18.70117,-42.59142,-36.56294,1006.592
24.293740749,-8.333398,1.029859,5.683896,-0.08224399,0.6371255,0.7791213,-18.34531,-42.23975,-37.43936,1006.592
24.329037190,3.034705,-3.933927,5.011917,-0.1488982,0.6819961,0.7281874,-18.34531,-42.23975,-37.43936,1006.59
24.361812592,7.445281,-6.120356,3.484692,-0.1591309,0.6838741,0.6603369,-17.99007,-41.89317,-38.68874,1006.59
24.394587517,11.29677,-3.461185,1.346576,-0.1398295,0.7255788,0.6111293,-18.72499,-41.52698,-38.69353,1006.589
24.427362442,-5.662203,0.4389318,-1.463519,-0.1340179,0.7375137,0.6394979,-18.72499,-41.52698,-38.69353,1006.587
24.462658882,-8.51976,1.679878,-4.51797,-0.1207393,0.6766093,0.6901011,-18.7175,-41.88547,-38.25269,1006.591
24.495434284,-7.712189,0.2616537,-6.106284,-0.09937045,0.6824059,0.7275881,-18.3527,-41.8804,-37.81805,1006.591
24.528209686,-0.6304209,-2.042961,-6.106284,-0.08139729,0.6831735,0.7463173,-18.3527,-41.8804,-37.81805,1006.591
24.560985088,-1.127387,-3.402092,-4.395792,-0.06588798,0.6975005,0.7568489,-18.35342,-41.88634,-38.25316,1006.589
24.593760013,-1.437991,-1.511127,0.6135079,-0.05334593,0.7281346,0.7346303,-18.33917,-42.60928,-37.80659,1006.589
24.629056454,-4.295547,1.148044,3.179247,-0.05228704,0.6850634,0.7029228,-18.33917,-42.60928,-37.80659,1006.589
24.661831379,-2.494044,4.398141,4.21776,-0.08389371,0.7017789,0.6933454,-18.70325,-42.6084,-37.80612,1006.589
24.694606781,-5.786445,7.648239,6.355875,-0.1348933,0.7051594,0.6804646,-18.35342,-41.88634,-38.25316,1006.589
24.727381706,-4.60615,8.002794,4.645383,-0.1790769,0.7028192,0.6772034,-18.35342,-41.88634,-38.25316,1006.589
24.762678146,-11.87428,7.057312,0.980042,-0.1449594,0.6566094,0.7147383,-18.73102,-41.1566,-38.26415,1006.589
24.795454025,-14.9182,3.866307,2.873801,-0.1100689,0.7017695,0.7935308,-17.64701,-40.80667,-39.14151,1006.587
24.828228950,-6.221291,2.625361,7.455478,-0.1178785,0.7167289,0.7829368,-17.64701,-40.80667,-39.14151,1006.587
24.861003876,-15.60153,0.6162097,12.03715,-0.1027496,0.6872363,0.7959421,-17.66802,-39.7193,-39.59381,1006.586
24.893779278,-8.209156,-0.8611073,11.67062,-0.08986764,0.574174,0.7705698,-17.3316,-38.26752,-39.99016,1006.584
24.929075718,0.4256323,-3.165722,8.677258,-0.07255348,0.6424366,0.7607986,-18.0687,-37.91917,-41.30028,1006.584
24.961850643,-6.283411,-4.347576,10.6932,-0.06485606,0.6747188,0.7713217,-18.0687,-37.91917,-41.30028,1006.584
24.994625568,3.096826,-6.297634,11.54844,-0.09637441,0.6498798,0.7391826,-17.71139,-37.55561,-41.30648,1006.584
25.027401447,13.84372,-5.647614,6.05043,-0.1395483,0.6223879,0.6897462,-17.7195,-37.20221,-42.12028,1006.584
25.060176373,2.972584,-6.356727,1.346576,-0.1115547,0.7043313,0.7434688,-17.7195,-37.20221,-42.12028,1006.584
25.095472813,-1.624353,-5.293058,-3.601634,-0.08800422,0.5987172,0.7257617,-18.06267,-38.28955,-41.72966,1006.584
25.128248215,11.35889,-6.474912,-7.816776,-0.05810938,0.6815486,0.6947588,-19.16301,-37.93354,-42.54205,1006.582
25.161023140,-6.283411,-5.233966,-5.12886,-0.2009013,0.9055888,0.7265297,-19.16301,-37.93354,-42.54205,1006.582
25.193798065,-41.44377,-5.588522,-3.907079,-0.1068523,0.5661092,0.7518492,-19.1549,-38.28693,-41.72825,1006.582
25.229094505,3.034705,-11.20233,-3.112922,-0.06519187,0.6139168,0.7829667,-18.40854,-39.39897,-42.95518,1006.586
25.261869907,15.21038,-8.484064,1.468754,-0.002269199,0.6850438,0.7100247,-18.40854,-39.39897,-42.95518,1006.586
25.294645310,-2.12132,-4.052112,2.079644,0.01999457,0.7234995,0.7503483,-18.77938,-39.03366,-42.96044,1006.586
25.327420712,-9.203089,1.561693,1.835288,0.00380625,0.5824001,0.7202736,-18.38825,-40.49228,-42.93799,1006.586
25.360195637,1.978652,4.870883,-2.135498,-0.02298959,0.6237118,0.7400107,-18.38825,-40.49228,-42.93799,1006.586
25.395492077,-15.97425,5.46181,-4.273613,-0.1042759,0.7245261,0.8372867,-19.11037,-40.86092,-43.36643,1006.586
25.428267002,-21.00603,0.2616537,-6.472818,-0.132451,0.5185275,0.8039686,-18.75306,-40.49735,-43.37263,1006.585
25.461042404,15.70734,-6.65219,-7.205886,-0.1167109,0.6248446,0.7354177,-18.75306,-40.49735,-43.37263,1006.583
25.493817329,27.94514,-6.711283,-1.524608,-0.1215462,0.8029107,0.643702,-18.04591,-39.41173,-43.82587,1006.583
25.529113769,-19.26665,-0.7429219,-0.9137175,-0.09516335,0.7384855,0.6625097,-19.11713,-40.49648,-43.37217,1006.581
25.561889648,-39.26954,0.9707659,-2.074409,-0.0428183,0.5949886,0.7656132,-19.11713,-40.49648,-43.37217,1006.581
25.594664574,-16.34698,-0.2701804,-4.395792,0.003987907,0.5261446,0.8248134,-18.71998,-42.32548,-43.77909,1006.581
25.627439499,4.587725,-0.9202,-9.221824,0.03750728,0.5216107,0.8329239,-18.39106,-40.51521,-44.61628,1006.581
25.660214901,18.13005,1.207137,-13.92568,0.03549603,0.5412245,0.7842816,-18.39106,-40.51521,-44.61628,1006.581
25.695511341,14.58917,5.639088,-17.46884,0.04931329,0.636717,0.7022734,-17.65552,-40.87629,-44.23853,1006.587
25.728286266,-2.742527,10.30741,-2.990744,-0.2940566,1.087291,0.7736503,-17.99713,-41.9509,-42.91554,1006.587
25.761062145,-74.18142,13.85297,-0.6693614,-0.1254659,0.4331135,0.7694228,-17.99713,-41.9509,-42.91554,1006.585
25.793837070,18.13005,-0.6247365,1.71311,-0.1563091,0.5531723,0.8420005,-18.70428,-43.03653,-42.4623,1006.587
25.829133511,-3.612218,5.46181,1.224398,-0.09493003,0.6542451,0.7348403,-16.96044,-39.04992,-43.83301,1006.587
25.861908436,-8.209156,6.111829,-1.158074,-0.07688853,0.6282998,0.7641997,-16.96044,-39.04992,-43.83301,1006.585
25.894683838,-10.19702,4.16177,-1.768964,-0.09521363,0.5861797,0.8225515,-17.6886,-39.04817,-43.83207,1006.585
25.927458763,0.6741154,2.329898,0.5524189,-0.1307828,0.6329614,0.7989786,-17.33201,-38.69055,-44.27338,1006.585
25.960233688,-7.712189,2.15262,1.407665,-0.1185745,0.6068671,0.8139111,-17.33201,-38.69055,-44.27338,1006.59
25.995530128,-5.3516,0.6753024,-1.707875,-0.1412192,0.5351909,0.8294765,-16.98,-37.95066,-43.41509,1006.588
26.028306007,3.46955,-3.047536,-4.701237,-0.1218209,0.5445697,0.8241214,-16.99425,-37.22773,-43.86166,1006.588
26.061080933,11.9801,-5.293058,-5.861928,-0.06612631,0.5978133,0.7796237,-17.35833,-37.22686,-43.86119,1006.588
26.093856335,10.55132,-3.933927,-2.196587,-0.1145394,0.7355203,0.7496866,-17.35833,-37.22686,-43.86119,1006.588
26.129152775,-7.090981,-0.1519951,-0.4250054,-0.09526306,0.5934866,0.7527431,-17.33731,-38.31422,-43.40889,1006.586
26.161927700,-1.500112,0.7934878,0.4913299,-0.07683415,0.608946,0.7825205,-17.6886,-39.04817,-43.83207,1006.584
26.194702625,-1.748595,3.452659,0.4913299,-0.09380088,0.5951005,0.7729543,-17.6886,-39.04817,-43.83207,1006.583
26.227478504,-2.680407,3.866307,1.163309,-0.1098985,0.6296763,0.7917135,-17.68933,-39.05412,-44.26719,1006.583
26.260253429,-4.668271,2.743546,1.529843,-0.1224343,0.5940883,0.8019056,-17.6886,-39.04817,-43.83207,1006.583
26.295549870,0.1771492,1.384415,0.5524189,-0.1224221,0.5872063,0.79277,-17.6886,-39.04817,-43.83207,1006.583
26.328325272,-1.37587,1.029859,-0.7304505,-0.1214874,0.6028093,0.7941883,-16.97396,-38.32104,-43.84447,1006.583
26.361100197,-0.3819378,-0.1519951,-1.524608,-0.1205113,0.6013798,0.7975577,-17.35084,-37.58535,-43.42035,1006.587
26.393875122,2.475618,-1.688405,-1.707875,-0.105469,0.6053848,0.7951092,-17.35084,-37.58535,-43.42035,1006.585
26.429171562,1.978652,-0.8020146,-1.40243,-0.0952951,0.6121811,0.7796713,-17.35084,-37.58535,-43.42035,1006.585
26.461946964,-1.127387,0.4980244,-1.219163,-0.09626145,0.6117429,0.7878573,-17.71564,-37.59042,-43.85499,1006.585
26.494722366,-0.9410248,1.088951,-0.1806493,-0.1098514,0.6097014,0.7907808,-17.71564,-37.59042,-43.85499,1006.583
26.527497768,-1.251629,0.9116732,0.3691518,-0.1103349,0.6107418,0.800889,-16.97324,-38.3151,-43.40936,1006.583
26.560272694,-1.065266,1.5026,0.6135079,-0.1224474,0.5969133,0.7879418,-17.33731,-38.31422,-43.40889,1006.583
26.595569134,0.6741154,0.7343951,-0.2417383,-0.1355637,0.6002467,0.7927815,-17.33731,-38.31422,-43.40889,1006.585
26.628344059,1.357444,-0.9202,-1.280252,-0.1161251,0.5951016,0.7999636,-16.98603,-37.58028,-42.98571,1006.585
26.661119461,2.227135,-1.038385,-1.341341,-0.1035092,0.5996136,0.8032964,-16.61592,-37.95153,-43.41556,1006.583
26.693894863,1.978652,-1.038385,-0.4250054,-0.1045178,0.6126582,0.7893196,-16.61592,-37.95153,-43.41556,1006.588
26.729191303,-0.6925417,0.1434683,0.5524189,-0.1021001,0.6155503,0.7820891,-17.35084,-37.58535,-43.42035,1006.586
26.761966705,-0.1334547,0.6162097,0.796775,-0.1142135,0.6032231,0.7749161,-17.33731,-38.31422,-43.40889,1006.584
26.794741631,-0.878904,1.029859,0.3691518,-0.1127683,0.6086127,0.7777926,-17.33731,-38.31422,-43.40889,1006.584
26.827516556,-1.872836,0.9707659,-0.1195603,-0.1151639,0.5984887,0.795624,-17.34408,-37.94979,-43.41462,1006.582
26.860291958,-0.2576963,0.02528298,-0.3028273,-0.1170812,0.5912877,0.8129684,-16.25049,-37.94137,-42.60797,1006.582
26.895588398,1.916531,-0.9202,-0.5471834,-0.1180875,0.6023473,0.7936996,-16.25049,-37.94137,-42.60797,1006.581
26.928363800,0.7362362,-0.8611073,-0.7304505,-0.1117936,0.6076669,0.7806799,-16.98,-37.95066,-43.41509,1006.579
26.961139202,-0.2576963,-0.6247365,-0.9748065,-0.111309,0.608665,0.7835654,-16.98,-37.95066,-43.41509,1006.579
26.993914127,0.4877531,-0.8611073,-0.8526285,-0.1108194,0.6097435,0.7980034,-16.98,-37.95066,-43.41509,1006.579
27.029210567,-0.009213155,-1.097478,-0.4860944,-0.1156754,0.6081818,0.7893528,-16.98676,-37.58622,-43.42082,1006.581
27.061985493,-0.3819378,-0.5656438,-0.7304505,-0.1137152,0.5998916,0.7855098,-17.71419,-37.57853,-42.98477,1006.581
27.094760895,2.351376,-1.215663,-1.219163,-0.1171222,0.6042834,0.7908062,-17.34408,-37.94979,-43.41462,1006.581
27.127536774,0.9847193,-0.8611073,-0.9748065,-0.1054913,0.6126133,0.784027,-17.34408,-37.94979,-43.41462,1006.581
27.160311699,-0.1334547,0.202561,-0.9748065,-0.1117938,0.6076635,0.7801985,-16.97324,-38.3151,-43.40936,1006.581
27.195608139,-0.009213155,0.2616537,-0.3028273,-0.1050073,0.6130975,0.7830624,-17.34335,-37.94384,-42.97951,1006.582
27.228383064,-2.307682,1.207137,-0.05847127,-0.1084048,0.6120818,0.7811466,-17.34335,-37.94384,-42.97951,1006.587
27.261157990,-4.792512,0.4389318,0.4913299,-0.1244193,0.6115882,0.799477,-17.70067,-38.30741,-42.97331,1006.587
27.293933392,-3.301615,-0.3883658,0.2469738,-0.1209372,0.5765474,0.7990403,-16.60916,-38.31597,-43.40983,1006.587
27.329229832,1.419565,-0.8611073,0.06370676,-0.09525547,0.5976472,0.7907643,-16.60916,-38.31597,-43.40983,1006.587
27.362005711,0.6741154,-0.2110877,0.1858848,-0.09577622,0.6112365,0.7844874,-16.60771,-38.30408,-42.53961,1006.588
27.394780636,-0.6304209,0.3798391,0.6745969,-0.1181141,0.612538,0.7883894,-16.98603,-37.58028,-42.98571,1006.587
27.427555561,-1.251629,0.5571171,0.7356859,-0.1244067,0.604713,0.7913042,-16.98603,-37.58028,-42.98571,1006.588
27.460330963,-0.1334547,0.7934878,0.4913299,-0.117123,0.6037663,0.7864748,-16.98676,-37.58622,-43.42082,1006.587
27.495626926,-3.674339,0.2616537,0.4913299,-0.1069097,0.6020873,0.812928,-17.35084,-37.58535,-43.42035,1006.587
27.528402328,-14.23487,3.511751,4.401027,-0.09373836,0.5733483,0.7965738,-17.35084,-37.58535,-43.42035,1006.588
27.561178207,8.936178,-9.193176,-1.035896,-0.1637356,0.6210895,0.8823501,-17.3448,-37.95573,-43.84973,1006.593
27.593953133,-2.369803,-18.11617,-2.990744,-0.184442,0.5655333,0.9724977,-16.99352,-37.22179,-43.42655,1006.594
27.629249573,7.755884,-44.23514,-10.01598,-0.1745092,0.5008903,1.119868,-16.99352,-37.22179,-43.42655,1006.594
27.662024498,49.0662,-77.26794,-8.855289,-0.2465978,0.4073869,1.207788,-17.34408,-37.94979,-43.41462,1006.593
27.694799900,66.89487,-126.2558,-10.93232,-0.1730001,0.5365831,1.418255,-19.1267,-40.15497,-45.05618,1006.593
27.727574825,222.1968,-154.5021,11.54844,-0.05596868,0.3977716,0.7163614,-19.1267,-40.15497,-45.05618,1006.591
27.760350704,322.4597,-182.3347,63.96282,0.06009363,1.19292,0.619578,-21.91261,-47.50636,-50.03485,1006.591
27.795647144,254.1269,-171.6981,132.5658,0.1753305,1.271077,0.303895,-24.97607,-59.25604,-52.39481,1006.591
27.828422070,140.6944,-141.2653,170.9908,0.32807,1.33921,0.1826082,-24.97607,-59.25604,-52.39481,1006.594
27.861196995,41.11474,-122.0602,173.6176,0.3494811,1.074926,-0.02739933,-30.4453,-61.33093,-45.14288,1006.594
27.893972397,35.15115,-109.7689,164.8208,0.4734238,0.8182613,-0.03548961,-36.46602,-49.90394,-36.85939,1006.59
27.929268837,67.26759,-91.62746,156.0851,0.490648,0.7138914,-0.07677027,-40.38706,-37.35007,-30.21293,1006.588
27.962043762,15.33462,-70.64956,137.2085,0.5119401,0.542716,-0.06452874,-40.38706,-37.35007,-30.21293,1006.587
27.994819641,17.57097,-56.99916,121.8752,0.497494,0.4773043,-0.1385256,-43.43573,-29.57143,-26.10365,1006.585
28.027594566,13.47099,-49.02164,108.4967,0.5792111,0.4074614,-0.1949335,-46.07333,-24.41735,-22.82401,1006.585
28.060369492,11.48313,-40.92595,94.75169,0.6343377,0.2993022,-0.1963453,-46.07333,-24.41735,-22.82401,1006.583
28.095665932,40.18293,-41.57597,76.79151,0.7616691,0.2354467,-0.2870471,-48.3486,-19.2085,-19.91874,1006.581
28.128441334,63.22974,-38.62133,67.3838,0.8233373,0.2031394,-0.4546585,-50.2391,-15.16052,-17.43091,1006.58
28.161216736,114.0445,-38.03041,56.75431,0.8671331,0.1271928,-0.6428604,-50.2391,-15.16052,-17.43091,1006.582
28.193992138,129.699,-17.70252,33.17395,0.8830705,0.1441564,-0.7440097,-51.37368,-12.56608,-14.48599,1006.579
28.229288578,124.4808,8.002794,10.6932,0.8463777,0.02236766,-0.9141412,-51.74557,-11.78963,-11.07824,1006.579
28.262063503,128.9535,51.49501,-22.23379,0.792915,0.01911344,-1.037719,-51.74557,-11.78963,-11.07824,1006.577
28.294838429,79.00842,131.5065,-73.54855,0.692217,0.07800652,-1.132398,-51.37796,-11.76164,-8.965314,1006.573
28.327613831,80.93416,275.8108,-132.866,0.523432,0.1593999,-1.341512,-51.00182,-12.50327,-9.824547,1006.572
28.360389233,89.56895,447.7705,-191.7558,0.1592637,0.7166573,-0.5414653,-51.00182,-12.50327,-9.824547,1006.566
28.395685673,66.7085,443.8704,-185.8302,-0.0008758353,1.096722,0.5866537,-45.12454,-16.28897,-19.09859,1006.566
28.428461075,237.1058,-56.23095,-170.5579,0.2550502,3.745191,4.823814,-32.59087,-22.33279,-27.97288,1006.565
28.461236000,-211.4062,9.952853,15.33596,-0.5855957,0.6539298,0.2286493,-32.59087,-22.33279,-27.97288,1006.566
28.494010925,13.16039,-7.952229,-24.9217,1.789601,-0.3234195,-0.08502684,-23.65638,-29.63667,-27.43452,1006.565
28.529307365,26.08151,33.88539,-59.62026,0.1742186,1.244651,0.9176736,-25.92478,-25.28112,-29.17875,1006.567
28.562082767,-67.03753,-22.37084,-68.17272,0.4047929,0.61865,0.6884607,-25.92478,-25.28112,-29.17875,1006.567
28.594858169,15.39674,-54.16271,-64.75174,0.4168316,0.6090906,0.4198467,-24.06528,-27.484,-30.01694,1006.567
28.627633572,-32.31202,-58.77194,-69.45559,0.2520368,0.9134068,0.5357871,-23.35668,-26.38648,-29.59996,1006.567
28.660408497,-70.8269,-82.29082,-91.87526,0.1549397,0.6981903,0.5204569,-23.35668,-26.38648,-29.59996,1006.567
28.695704937,-92.87978,-102.9733,-110.3241,0.2632926,0.8547603,0.4232101,-23.68768,-28.21374,-30.00595,1006.567
28.728479862,-182.3337,-90.44561,-124.8022,0.3262263,0.8851392,0.1635611,-24.76919,-28.96292,-31.67137,1006.572
28.761255741,-200.8457,-80.34076,-134.21,0.3995182,0.8762043,0.05124347,-24.76919,-28.96292,-31.67137,1006.572
28.794030666,-180.4701,-71.9496,-143.0068,0.3589557,0.9940365,0.09544736,-25.49702,-29.37826,-35.51854,1006.572
28.826806068,-187.614,-58.89012,-141.2963,0.4556073,0.9861197,0.1014877,-25.89874,-28.00625,-41.88119,1006.572
28.862102509,-184.0731,-34.0121,-117.9603,0.4937764,1.084485,0.1931891,-25.89874,-28.00625,-41.88119,1006.572
28.894877434,-188.1109,10.60287,-114.1728,0.4026823,0.6144741,0.3004945,-25.57021,-26.619,-47.0016,1006.572
28.927652359,-85.798,12.96658,-86.01071,0.3040032,0.6963111,0.4912244,-24.20636,-22.34181,-53.84755,1006.572
28.960428238,-3.177373,14.08934,-68.78362,0.3494758,0.7839351,0.5704091,-24.20636,-22.34181,-53.84755,1006.572
28.995724678,38.07082,10.24832,-52.96156,0.3149043,0.8341727,0.6224025,-21.04072,-16.89199,-59.03571,1006.572
29.028499603,34.59206,14.79845,-40.13287,0.301891,0.7896134,0.6037275,-19.2456,-15.8438,-62.03887,1006.576
29.061275005,48.38287,31.46259,-33.47416,0.2390307,0.6462135,0.4389856,-17.03293,-17.71708,-65.36961,1006.576
29.094049931,93.6068,49.89951,-13.86459,0.3863803,0.9524532,0.3861875,-17.03293,-17.71708,-65.36961,1006.576
29.126825810,-274.1482,-9.72501,21.38377,0.07944616,1.830968,1.65061,-13.70786,-20.68713,-68.74674,1006.576
29.162122250,-142.887,1.620785,-18.8128,0.1833016,-0.2076344,0.496724,-9.190251,-25.92429,-73.33319,1006.578
29.194897175,85.03413,-27.15735,-12.64281,0.2769125,0.133999,0.9759048,-9.190251,-25.92429,-73.33319,1006.578
29.227672100,164.9836,-8.83862,-10.68796,0.1307116,0.7361605,0.8270845,-9.072782,-12.76167,-74.78407,1006.578
29.260447502,78.51145,-6.474912,2.690535,0.1730241,0.8678816,0.5976574,-10.09064,-16.76786,-74.71964,1006.578
29.295743942,38.0087,2.979917,-3.540545,0.1279157,0.8571652,0.6516931,-10.09064,-16.76786,-74.71964,1006.578
29.328518868,-2.742527,-2.161146,0.6135079,0.1333704,0.8135246,0.6729258,-9.973222,-23.01299,-73.8132,1006.578
29.361294746,-7.525827,-3.933927,-0.4860944,0.136501,0.7229922,0.6773871,-9.574612,-24.8301,-73.34991,1006.578
29.394069672,-1.500112,-2.102053,-0.4860944,0.1442896,0.7193215,0.7004796,-9.574612,-24.8301,-73.34991,1006.582
29.426844597,2.165014,-1.097478,-0.4250054,0.1346471,0.6859686,0.6784101,-9.588964,-24.10802,-73.85865,1006.584
29.462141037,1.978652,-2.752073,0.6135079,0.116563,0.7415574,0.7096577,-9.946177,-24.47074,-73.79028,1006.584
29.494916439,-2.556165,-3.756649,2.873801,0.1467257,0.7113886,0.6773803,-9.946177,-24.47074,-73.79028,1006.585
29.527692318,-5.475841,-6.238542,4.156671,0.1631446,0.7545655,0.7032699,-10.31629,-24.09949,-73.36043,1006.585
29.560467243,-26.47266,-7.184024,7.150033,0.1708304,0.7861599,0.6849123,-9.952211,-24.10036,-73.3609,1006.587
29.595763683,-57.90578,-4.583946,12.09824,0.1431357,0.7876761,0.656094,-9.952211,-24.10036,-73.3609,1006.587
29.628538608,-33.86504,-3.165722,10.50993,0.1676243,0.6855946,0.5849482,-10.69389,-23.36974,-73.37142,1006.587
29.661313534,-69.95721,-2.574795,6.111519,0.1661066,0.7487841,0.7788454,-12.21093,-20.01539,-72.67616,1006.587
29.694089413,-66.10572,0.4980244,9.960128,0.104006,0.524313,0.791365,-12.21093,-20.01539,-72.67616,1006.587
29.726864815,-29.70294,-5.233966,4.706472,0.1779643,0.4419383,0.6931159,-12.25274,-17.83895,-73.45644,1006.587
29.762160778,-22.86966,7.411868,1.468754,0.2433541,0.5086505,0.6827517,-12.68371,-14.18777,-73.07817,1006.587
29.794936180,46.64349,4.929976,-1.280252,0.08773611,0.4142661,0.744396,-12.68371,-14.18777,-73.07817,1006.587
29.827711105,38.07082,-3.283907,3.60687,0.2532032,0.6957525,0.8923201,-13.11523,-13.82231,-73.08335,1006.587
29.860486507,13.7816,8.534629,-2.746388,0.1510557,0.4956245,0.5313613,-12.32494,-13.81231,-72.21415,1006.587
29.895782471,9.184661,5.993644,-4.151435,0.1843481,0.8264706,0.7223657,-12.32494,-13.81231,-72.21415,1006.587
29.928558350,-17.40303,6.702756,-6.106284,0.2417952,0.5752339,0.8044396,-12.65386,-15.62259,-71.37696,1006.585
29.961333752,15.33462,7.530054,-10.68796,0.1266119,0.6075037,0.7507517,-11.90001,-17.09312,-72.16305,1006.585
29.994108677,13.40887,16.33486,-16.43033,0.06448493,0.5851609,0.694132,-11.90001,-17.09312,-72.16305,1006.585
30.026883602,16.08007,19.11222,-14.3533,0.1138649,0.6787337,0.8536859,-11.54207,-16.72446,-71.7963,1006.587
30.062180042,22.04366,18.22583,-12.39845,0.1741336,0.6301365,0.7265367,-9.702126,-17.82808,-72.21656,1006.587
30.094955921,21.23609,26.32153,-15.57508,0.1308165,0.671123,0.7193573,-8.589506,-18.92316,-72.13863,1006.587
30.127730846,9.86799,38.08097,-16.30815,0.1302471,0.7258787,0.8198807,-8.589506,-18.92316,-72.13863,1006.587
30.160506249,7.818005,48.36309,-21.62289,0.1199113,0.5478472,0.6545851,-7.126435,-19.29109,-72.13477,1006.587
30.195802689,35.58599,41.44925,-29.86991,0.01351051,0.79552,0.7492924,-4.21309,-19.29212,-71.70342,1006.589
30.228577614,-1.934957,42.45383,-25.16606,0.08393425,0.768074,0.6398976,-4.21309,-19.29212,-71.70342,1006.591
30.261353493,-22.43481,21.77139,-27.182,-0.07046067,0.7771356,0.727858,-1.623358,-21.47976,-71.29938,1006.589
30.294128418,-9.637934,1.207137,-30.78625,-0.1725959,0.6292337,0.6633393,2.070712,-21.12929,-71.68284,1006.593
30.326903343,26.01939,-23.5527,-30.17536,-0.07226386,0.6913991,0.5874339,2.070712,-21.12929,-71.68284,1006.593
30.362199783,-5.413721,-42.1078,-33.16872,-0.08202188,0.7188761,0.6283314,3.520156,-20.76919,-71.75261,1006.595
30.394975185,0.4877531,-51.08989,-42.94296,-0.04097239,0.8369539,0.7498405,2.455473,-22.29016,-72.10027,1006.595
30.427750111,-15.72577,-42.28508,-45.87523,-0.006617406,0.6868669,0.7673143,2.455473,-22.29016,-72.10027,1006.593
30.460525989,-4.978875,-14.98426,-38.3002,0.09232225,0.5439513,0.8279466,0.599998,-23.75528,-72.94515,1006.595
30.495822430,31.54814,11.07561,-30.35862,0.01059323,0.6206795,0.8939714,-0.835301,-24.83916,-72.49097,1006.595
30.528597355,34.59206,30.51711,-25.89913,-0.04201401,0.672198,0.8015971,-0.835301,-24.83916,-72.49097,1006.595
30.561372280,41.54959,40.85833,-25.10497,-0.06753767,0.7596285,0.65808,-0.4299296,-27.02071,-72.02195,1006.595
30.594147682,22.10578,50.84499,-27.24308,-0.1080033,0.829978,0.6676972,2.188856,-27.36847,-70.34129,1006.595
30.626923084,-11.12883,57.04972,-22.23379,-0.1059896,0.8063609,0.700942,2.188856,-27.36847,-70.34129,1006.595
30.662219524,-45.97859,61.18621,-9.40509,-0.08919583,0.889734,0.6935561,4.402442,-28.81447,-69.07802,1006.596
30.694994926,-77.47382,76.84577,-4.273613,-0.08349284,0.7610766,0.815521,7.679865,-28.81639,-68.64714,1006.596
30.727769852,-80.51774,82.45958,-6.472818,-0.2308107,0.4209825,0.7624705,7.679865,-28.81639,-68.64714,1006.595
30.760544777,7.010435,59.29524,6.478054,-0.3258152,0.6117083,1.058927,10.88967,-25.17392,-68.27356,1006.593
30.795841217,-6.221291,72.94566,10.81537,-0.2507623,0.8711904,0.882661,14.52384,-21.4658,-67.46636,1006.593
30.828617096,-19.20453,80.33224,16.13012,-0.1813314,0.5822536,0.4314145,14.52384,-21.4658,-67.46636,1006.595
30.861392021,-16.28486,103.9693,0.6745969,-0.1747866,0.2657029,0.357265,16.33631,-20.69544,-64.1236,1006.593
30.894167423,24.8391,96.70092,-16.79686,-0.4536223,0.5862958,0.7098,18.4852,-18.47329,-61.17717,1006.593
30.926942348,39.93445,76.55031,0.4913299,-0.42855,0.8979116,0.8767847,18.4852,-18.47329,-61.17717,1006.591
30.962238789,24.40425,68.63189,20.34526,-0.03424973,0.4635837,0.7691605,21.73765,-17.00047,-59.52603,1006.591
30.995014668,98.20374,73.65477,27.06505,0.06749283,0.3002652,0.4837178,25.3962,-17.70326,-56.97076,1006.591
31.027789593,58.81916,105.4466,22.11684,-0.008171319,0.4297416,0.2834556,25.3962,-17.70326,-56.97076,1006.595
31.060564518,67.14335,139.7795,2.812712,-0.2292276,0.2507067,0.1571703,26.88381,-19.12968,-54.40121,1006.595
31.095860958,53.29041,137.9476,-34.08506,-0.4697464,0.5062803,0.07841221,28.82966,-22.45194,-52.67282,1006.595
31.128636360,73.91451,149.6479,-49.17404,-0.6793432,1.037505,0.03045389,31.77296,-23.88695,-50.4781,1006.595
31.161411762,-35.04533,167.0212,-42.63752,-0.7447832,0.9492912,-0.179613,31.77296,-23.88695,-50.4781,1006.595
31.194187164,-3.550097,162.4711,-50.02929,-0.9664851,0.4712754,-0.08594529,36.11764,-22.41674,-48.82837,1006.595
31.226962090,85.5311,137.8885,-39.82742,-0.9328982,1.051176,-0.08015989,38.24646,-19.02951,-45.09203,1006.595
31.262258530,1.792289,108.7558,-32.49674,-1.031274,0.9134747,-0.3632411,38.24646,-19.02951,-45.09203,1006.595
31.295033455,-31.56657,91.38258,-21.37854,-0.8052433,0.8489242,-0.1822065,40.40636,-17.13699,-39.59137,1006.595
31.327809334,-42.00286,63.60901,5.744985,-0.9692042,0.7768289,-0.1971126,40.76938,-16.72672,-36.17883,1006.6
31.360584259,36.76629,38.02188,-4.090346,-1.19608,0.4064387,-0.2388574,40.76938,-16.72672,-36.17883,1006.598
31.395880699,26.14363,-5.706707,-7.57242,-1.39015,0.8088196,0.07676975,41.54074,-15.61238,-34.51875,1006.598
31.428656101,41.05262,-37.49857,-2.196587,-1.303237,0.7988819,0.01400157,40.40811,-16.70292,-34.50008,1006.598
31.461431026,-5.3516,-42.40326,15.09161,-1.396835,1.096901,-0.3010362,40.40811,-16.70292,-34.50008,1006.6
31.494206905,-28.83325,-43.7033,-0.4250054,-1.009373,0.6831087,-0.3889394,40.83745,-17.08621,-35.80022,1006.6
31.526981830,-40.3256,-20.83443,-18.69062,-1.03026,0.8979784,-0.3516674,42.67677,-18.19492,-36.59345,1006.6
31.562278271,50.5571,4.516326,-37.38386,-0.7958414,0.3294777,-0.3711025,42.67677,-18.19492,-36.59345,1006.6
31.595053196,121.7475,0.02528298,-49.23513,-0.5057303,0.4884957,-0.1246103,45.95845,-18.16202,-33.61406,1006.6
31.627828598,16.14219,-1.215663,-68.78362,0.1869897,0.462612,0.3633306,49.9793,-18.46048,-28.08136,1006.598
31.660604477,-76.16929,17.33944,-69.76104,-0.149796,-0.1245416,-0.1110524,49.9793,-18.46048,-28.08136,1006.596
31.695900440,46.39501,40.03103,-54.48878,-0.253349,0.1862836,0.1669518,53.26378,-18.40465,-23.42368,1006.594
31.728675842,125.2263,5.993644,-8.427667,-1.037507,1.256629,0.5248502,54.34585,-14.36974,-21.3748,1006.597
31.761450767,77.14479,17.04398,-10.13816,-0.7540593,0.553953,-0.2184669,54.34585,-14.36974,-21.3748,1006.597
31.794226170,-54.86186,19.11222,-21.19527,-0.852308,0.4490544,-0.05681953,59.40371,-12.18429,-20.60769,1006.597
31.827001572,84.28868,-1.629312,-17.22449,-0.8578621,0.5128604,-0.1897584,60.17847,-14.74304,-21.00363,1006.595
31.862298012,1.04684,20.0577,-13.43697,-0.8387972,0.4685467,-0.1416006,60.17847,-14.74304,-21.00363,1006.593
31.895073414,12.78767,19.88042,-14.29221,-0.9901718,0.3903959,-0.2720542,60.88176,-13.26921,-19.72216,1006.593
31.927848339,29.80876,19.46678,-8.427667,-0.7713662,0.4984319,-0.1273648,61.60596,-12.88359,-18.05054,1006.593
31.960623264,-8.892485,37.07639,-2.379854,-0.9273598,0.3092804,-0.3158848,61.60596,-12.88359,-18.05054,1006.593
31.995919704,11.9801,7.352776,0.1858848,-0.903994,0.492221,-0.3008124,61.60669,-12.87765,-17.61543,1006.593
32.028695583,-21.68936,-3.697556,-9.282913,-0.880518,0.4637432,-0.08180557,62.69496,-12.4929,-15.94428,1006.593
32.061470509,-5.848566,14.79845,-6.656085,-0.8212128,0.4642611,0.06149878,63.05914,-12.49292,-15.88259,1006.593
32.094245911,-0.7546625,-15.57519,-4.273613,-0.7706574,0.7691049,-0.3559399,63.05914,-12.49292,-15.88259,1006.593
32.127020836,8.066487,-17.82071,-4.823414,-0.9881886,0.1839675,-0.1932858,63.04489,-11.76999,-16.32916,1006.593
32.162317276,10.98616,-18.35254,-4.151435,-0.8432735,0.5001853,-0.2090283,63.0374,-11.4115,-16.77,1006.592
32.195093155,28.93907,-17.22978,3.118158,-0.8446066,0.4622036,-0.1362823,63.0374,-11.4115,-16.77,1006.592
32.227868080,76.95843,-11.79325,11.7928,-0.9338164,0.1670655,-0.3079534,63.03595,-11.42339,-17.64023,1006.594
32.260643005,79.44326,-9.902288,24.07169,-0.8329069,0.655462,-0.09424149,62.32132,-12.15052,-17.62783,1006.594
32.295939446,98.3901,-6.41582,49.36254,-0.7701372,0.3453743,-0.3572279,62.32132,-12.15052,-17.62783,1006.594
32.328714848,93.54468,-72.54053,92.18594,-0.2979981,0.3862904,0.1966007,61.62842,-13.95907,-16.72802,1006.594
32.361490250,38.19506,-120.4647,74.28687,-0.1537286,0.1044932,-0.08828293,59.50731,-17.63302,-19.21641,1006.592
32.394265652,-129.7795,-58.59466,64.20718,-0.3264607,0.3864024,-0.4536517,59.50731,-17.63302,-19.21641,1006.591
32.427040577,-241.2242,-11.55688,43.92562,-0.4425676,0.6467057,-0.2819225,54.85129,-22.51859,-26.34528,1006.591
32.462337017,-109.1554,6.998219,56.14342,-0.6369042,1.132311,-0.1146796,49.32199,-22.98612,-34.84818,1006.589
32.495112896,-169.9716,81.69138,12.64804,-0.9440717,0.6060037,-0.2792276,49.32199,-22.98612,-34.84818,1006.589
32.527887821,128.5808,78.97311,9.288148,-1.32264,0.7348788,-0.2717848,44.13631,-18.59172,-38.703,1006.589
32.560662746,72.36149,93.74628,12.83131,-2.451577,1.632241,0.2084953,39.63117,-14.16201,-35.40947,1006.589
32.593438148,-240.603,-17.28887,27.79812,-0.6965097,-0.4654681,-0.7143136,39.63117,-14.16201,-35.40947,1006.589
32.628734589,131.0035,115.5515,-49.05186,-0.1189783,0.8121605,-0.06055022,37.90585,-18.83673,-31.04367,1006.593
32.661509991,-68.09358,80.92317,-57.48215,-0.3366162,0.7496135,-0.5990649,38.57668,-15.52968,-28.98278,1006.593
32.694285393,-175.5625,122.1699,-60.23115,-0.8384591,0.8718643,0.5653925,38.57668,-15.52968,-28.98278,1006.593
32.727060318,-19.88786,22.30322,-23.33339,-0.9978009,0.1627069,-0.08733138,41.55423,-15.50199,-26.43811,1006.595
32.762356758,10.05435,57.46337,-42.1488,-0.4147734,0.8012979,-0.2865537,41.85423,-11.82962,-24.38248,1006.595
32.795131683,1.916531,46.88578,-33.65743,-1.506127,0.5241346,-0.1704274,41.85423,-11.82962,-24.38248,1006.595
32.827907562,12.84979,51.67229,-48.44098,-0.9923541,0.2467141,-0.4802621,41.84704,-11.04895,-20.60225,1006.595
32.860682487,-4.357667,38.43552,-54.85532,-1.120998,0.2431034,-0.4245949,41.82966,-9.931864,-18.87899,1006.599
32.893457890,24.65273,45.34937,-54.06116,-0.3894095,0.7997668,-0.04689336,41.82966,-9.931864,-18.87899,1006.599
32.928754330,23.6588,29.7489,-54.12225,-1.12723,0.8039483,-0.5197724,42.16419,-8.075738,-16.3596,1006.601
32.961529255,-26.22418,18.58039,-57.42106,-0.8679759,0.01503224,-0.4681739,43.22429,-6.172505,-14.71233,1006.601
32.994305134,10.67556,19.70315,-69.94431,-0.9392691,0.6148089,-0.3495311,43.22429,-6.172505,-14.71233,1006.601
33.027080059,4.090758,-1.215663,-67.01203,-0.7165522,0.4778149,-0.3565919,43.19256,-4.333337,-13.4978,1006.601
33.062376499,33.2254,-21.77992,-61.14749,-1.253361,0.3652928,-0.4138752,44.25171,-2.507826,-13.09275,1006.599
33.095151424,-35.16957,-7.124932,-70.92173,-0.8767815,-0.1173766,-0.2378625,43.84634,-0.3262758,-13.56177,1006.599
33.127927303,1.916531,11.60745,-81.24577,-1.106474,0.3375247,-0.03101778,43.84634,-0.3262758,-13.56177,1006.599
33.160702705,-27.21811,5.993644,-71.96024,-1.084096,0.2398615,-0.4448948,43.80515,1.855251,-13.9691,1006.599
33.228774071,-47.71797,12.61202,-45.56979,-0.8876172,-0.09208551,-0.4400468,43.40404,4.071616,-11.88962,1006.602
33.261548996,46.70561,0.7934878,-26.93764,-0.9730949,0.36505,-0.2253644,44.06417,7.780923,-11.5137,1006.602
33.294324875,-7.090981,-1.274756,-3.479456,-1.11747,0.2325364,-0.1973846,44.39652,9.619219,-10.29964,1006.602
33.327099800,48.44499,-12.02962,-0.6082724,-1.263321,-0.1478134,-0.438109,44.39652,9.619219,-10.29964,1006.6
33.362396240,137.3398,-13.74331,2.812712,-1.125122,0.1393236,-0.4253915,45.47596,10.35142,-9.8774,1006.6
33.395171166,68.26152,-16.46157,6.661321,-1.068154,0.07608753,-0.4124345,44.74926,10.36505,-9.006237,1006.6
33.427946568,81.49325,-25.56185,1.041131,-1.068221,-0.1002335,-0.414094,44.74926,10.36505,-9.006237,1006.6
33.460722446,125.7232,-28.93013,-2.074409,-0.9959574,-0.05046183,-0.3474312,46.20547,10.36071,-9.070275,1006.598
33.493497372,110.4415,-23.4936,-4.212524,-1.06487,-0.06862029,-0.3544608,46.58848,9.255491,-9.86162,1006.6
33.528793812,89.19622,-14.74789,-3.357278,-0.9290286,-0.01073639,-0.3182867,46.58848,9.255491,-9.86162,1006.599
33.561568737,56.39645,0.6753024,-8.488755,-0.9513965,0.01939522,-0.2306713,46.5682,10.3488,-9.87881,1006.599
33.594344616,42.29504,-3.697556,-12.1541,-0.995513,-0.02483442,-0.3046297,46.21088,9.985237,-9.87261,1006.597
33.627119541,56.14797,0.9707659,-27.67071,-0.9011006,0.1126127,-0.1933848,46.21088,9.985237,-9.87261,1006.594
33.662415981,6.886193,-5.056688,-25.53259,-0.8080443,0.2061618,-0.0897724,46.54998,11.4591,-8.652824,1006.594
33.695191383,5.519536,-10.55231,-22.23379,-0.8261087,0.0372891,-0.1193195,45.79479,12.91859,-8.674805,1006.596
33.727966309,23.22396,-29.52106,-13.43697,-0.9960628,0.03073637,-0.1569341,45.79479,12.91859,-8.674805,1006.596
33.760742187,29.933,-38.56224,-8.610933,-0.9392575,0.01343121,-0.2624609,44.66875,14.74339,-8.702044,1006.592
33.793517113,14.58917,-40.74867,-7.389153,-1.005575,0.1544847,-0.139769,44.28304,15.82654,-9.52683,1006.591
33.828813553,-6.904619,-44.17604,-8.855289,-0.9677035,-0.05182985,-0.1578396,44.28304,15.82654,-9.52683,1006.589
33.861588478,29.00119,-47.36705,4.645383,-0.9112771,-0.09777474,-0.1790841,42.45974,15.80712,-11.26493,1006.586
33.894364357,43.53745,-44.76697,18.69586,-0.865573,-0.1151327,-0.138732,42.09432,15.79696,-12.07252,1006.586
33.927139282,41.67383,-37.08492,31.28019,-0.936635,-0.03653792,-0.09728476,42.09432,15.79696,-12.07252,1006.584
33.962435722,28.00726,-35.07577,39.22176,-0.923059,-0.04027226,-0.1603697,41.35649,16.13936,-13.81776,1006.58
33.995211124,33.03904,-27.86646,41.72641,-0.9270175,0.0009704966,-0.1079541,40.29527,14.29687,-15.46599,1006.581
34.027986050,10.17859,-28.22102,43.31473,-0.9247651,0.08816025,-0.03925608,40.29527,14.29687,-15.46599,1006.578
34.060761929,-11.3152,-24.97092,40.32137,-0.9346561,-0.04150401,-0.04336945,41.04911,12.82634,-16.25207,1006.576
34.093536854,11.66949,-31.64839,44.23106,-0.9784185,-0.02312905,-0.07987683,40.34583,11.3525,-17.53355,1006.576
34.128833294,15.83158,-30.70291,40.19919,-0.933894,0.04110441,-0.07141475,40.72874,10.24643,-18.38705,1006.574
34.161608219,-35.5423,-20.47988,29.50861,-0.9211715,0.007886156,-0.03096047,40.72874,10.24643,-18.38705,1006.572
34.194384098,-68.71479,-9.665917,30.1195,-0.9544389,-0.09830247,-0.06297275,39.98515,7.680282,-19.5891,1006.569
34.227159023,-43.99072,-11.20233,35.18989,-1.010818,-0.0935542,-0.1528608,39.97912,8.050663,-19.15972,1006.567
34.262455463,98.57646,-23.96634,58.28154,-1.00397,-0.1093718,-0.1244529,39.97912,8.050663,-19.15972,1006.567
34.295230866,138.8929,-35.96216,52.11155,-0.9645351,0.2880688,0.040443,40.05186,7.309756,-20.01856,1006.564
34.328005791,43.53745,-27.39372,43.86453,-0.9178916,0.2722419,0.01965767,40.03746,4.680272,-21.28275,1006.564
34.360781670,35.02691,-27.27554,40.93226,-0.950275,0.2071289,0.01020538,40.03746,4.680272,-21.28275,1006.563
34.393556595,25.95727,-24.14362,34.579,-0.9268806,0.1783797,0.05014624,39.004,1.385973,-22.47295,1006.559
34.428853035,43.59957,-24.67546,29.87514,-0.990487,0.1768849,0.05174345,38.30893,-0.4404101,-22.87847,1006.559
34.461627960,43.91018,-27.03917,25.59892,-0.94677,0.1729534,0.06416108,38.30893,-0.4404101,-22.87847,1006.559
34.494403839,56.58281,-29.46197,23.70515,-0.9555413,0.1890628,0.08004255,37.97117,-1.903229,-23.29019,1006.557
34.527178764,60.4343,-32.77116,20.71179,-0.9381715,0.2440536,0.1227597,37.63955,-3.73558,-24.06913,1006.56
34.562475204,56.27221,-36.4349,15.58032,-0.9304137,0.2449519,0.1025227,37.63955,-3.73558,-24.06913,1006.557
34.595250606,48.81772,-35.48942,9.654682,-0.948032,0.3037697,0.1072895,36.5857,-5.937416,-25.33868,1006.557
34.628025532,38.69203,-33.12571,3.790137,-0.9227435,0.2879219,0.1091788,36.25583,-7.825411,-25.74372,1006.557
34.660801411,42.41928,-28.28011,0.4913299,-0.9305576,0.3149348,0.1510351,36.25583,-7.825411,-25.74372,1006.555
34.693576336,35.71024,-22.96177,-1.891142,-0.8952817,0.3954042,0.1941527,35.55338,-9.292453,-26.52792,1006.555
34.728872776,8.749816,-14.21605,-2.440943,-0.8977927,0.4410625,0.2494465,34.4679,-9.654272,-26.52078,1006.553
34.761647701,-13.92427,-9.48864,1.163309,-0.916172,0.4076903,0.2350995,34.4679,-9.654272,-26.52078,1006.553
34.794423580,-18.89393,-7.774951,4.095582,-0.920862,0.3314393,0.2015302,34.48143,-10.38315,-26.50932,1006.553
34.827198982,-8.084915,-6.65219,6.844588,-0.8828996,0.2907045,0.1812844,34.11662,-10.38822,-26.94396,1006.552
34.862494945,8.501332,3.216288,7.455478,-0.8629774,0.2865409,0.1889452,34.11662,-10.38822,-26.94396,1006.55
34.895270348,8.811936,10.3665,6.661321,-0.9671695,0.4121151,0.2323256,34.10841,-10.03567,-27.81992,1006.548
34.928046226,-8.644002,6.939126,7.883101,-0.9535536,0.4044595,0.2356744,33.38701,-10.39836,-27.81325,1006.548
34.960821152,-9.389451,9.421019,9.288148,-0.8626614,0.3647136,0.223966,33.38701,-10.39836,-27.81325,1006.548
34.993596077,-13.55154,13.43932,10.6932,-0.8743563,0.3771049,0.1989443,33.39377,-10.7628,-27.80752,1006.552
35.028892517,-14.54548,11.43017,9.532504,-0.917563,0.3698088,0.1822101,33.75182,-10.39329,-27.3786,1006.552
35.061667919,-6.034928,6.58457,7.150033,-0.9302041,0.3699528,0.1480632,33.75254,-10.38734,-26.94349,1006.551
35.094443321,-2.680407,4.220863,5.683896,-0.9186354,0.4071109,0.1547188,33.75254,-10.38734,-26.94349,1006.551
35.127218723,-3.550097,3.984493,6.416965,-0.9473217,0.4229504,0.1557257,34.11735,-10.38227,-26.50885,1006.551
35.162515163,-6.283411,1.207137,9.960128,-0.9560639,0.4188039,0.1302405,34.48819,-10.74758,-26.50359,1006.549
35.195290089,-2.991011,0.4980244,13.74765,-0.9317597,0.4042584,0.110469,34.48819,-10.74758,-26.50359,1006.549
35.228065968,-3.73646,-0.3883658,18.02388,-0.9113706,0.4053624,0.1046426,33.76003,-10.74584,-26.50265,1006.549
35.260840893,-1.934957,-0.3883658,19.79546,-0.9361444,0.4060126,0.08785271,34.50098,-11.4824,-26.92724,1006.547
35.293615818,-3.177373,-2.279331,19.36783,-0.912326,0.3924673,0.07241305,34.50098,-11.4824,-26.92724,1006.551
35.328912258,2.040772,-3.224814,16.37447,-0.9210392,0.3766521,0.04983356,33.77959,-11.84509,-26.92057,1006.551
35.361687660,5.02257,-2.279331,11.60953,-0.9132828,0.3805596,0.04210749,33.04467,-11.47891,-26.92536,1006.551
35.394463062,7.010435,-1.747497,4.706472,-0.9472984,0.3874475,0.02292331,33.04467,-11.47891,-26.92536,1006.549
35.427238464,0.6741154,-4.465761,-2.807477,-0.9181635,0.387704,0.02477927,33.79311,-12.57397,-26.90911,1006.549
35.462534904,-15.2288,0.3207464,-13.19261,-0.8685975,0.3725491,0.02709136,32.34283,-12.94086,-27.33661,1006.546
