Time (s),Gyroscope X (deg/s),Gyroscope Y (deg/s),Gyroscope Z (deg/s),Accelerometer X (g),Accelerometer Y (g),Accelerometer Z (g),Magnetometer X (uT),Magnetometer Y (uT),Magnetometer Z (uT),Barometer (hPa)
0.003971100,0.5528849,0.1819095,0.05430131,0.06744521,-0.9781159,-0.2306781,2.245837,34.04227,-7.893939,1008.087
0.039032936,-0.00086217,-0.05601428,0.1155007,0.0644659,-0.9718657,-0.224296,1.507215,34.40078,-7.894173,1008.085
0.071590424,-0.3700269,0.1224285,-0.06809749,0.06013332,-0.9758189,-0.2224186,1.880998,34.0422,-7.446678,1008.085
0.104148388,-0.246972,-0.1154952,0.1155007,0.05919371,-0.9796991,-0.2268273,1.880998,34.0422,-7.446678,1008.085
0.139210224,0.1221927,0.1224285,0.4214977,0.06161677,-0.9791704,-0.2292385,1.508846,34.40337,-7.448101,1008.085
0.171763897,0.1837202,-0.1749762,0.2378995,0.06207794,-0.9767389,-0.2282351,1.868004,34.76724,-7.897973,1008.088
0.204321861,0.3683026,0.003466659,0.1155007,0.05915906,-0.9763065,-0.224842,1.868004,34.76724,-7.897973,1008.088
0.239384174,0.1221927,0.003466659,0.05430131,0.0620944,-0.9772447,-0.2238924,1.518577,33.67316,-7.88895,1008.089
0.271941662,-0.06238963,0.1224285,-0.1904963,0.06497983,-0.9742867,-0.2248168,1.520208,33.67575,-7.442878,1008.089
0.304499149,-0.06238963,0.1819095,-0.1292969,0.06250204,-0.9709105,-0.226213,1.520208,33.67575,-7.442878,1008.089
0.337057114,-0.06238963,-0.1749762,-0.1292969,0.06208155,-0.9767455,-0.226785,1.866373,34.76466,-8.344045,1008.089
0.372115612,-0.3084995,0.1224285,-0.06809749,0.06454002,-0.9786597,-0.2263332,1.510477,34.40595,-7.002028,1008.089
0.404672623,-0.246972,0.003466659,0.1767001,0.06304213,-0.9752817,-0.2253135,1.510477,34.40595,-7.002028,1008.089
0.437230587,-0.7391917,-0.1749762,0.3602983,0.06349081,-0.9718762,-0.2247786,1.880998,34.0422,-7.446678,1008.089
0.472292900,-0.246972,0.1819095,-0.1292969,0.05722338,-0.9777809,-0.2267961,2.249099,34.04743,-7.001795,1008.089
0.504850865,0.3067751,0.0629476,-0.4352939,0.06009836,-0.9743282,-0.2296465,2.249099,34.04743,-7.001795,1008.091
0.537407875,0.6144124,0.1224285,-0.006898092,0.06156242,-0.9747908,-0.2306217,1.875317,34.40601,-7.449289,1008.091
0.572466374,0.42983,-0.1749762,0.1155007,0.06401721,-0.9752712,-0.2248309,1.886679,33.67839,-7.444067,1008.091
0.605024338,0.1221927,0.1224285,-0.1904963,0.05961458,-0.9733891,-0.2238312,1.886679,33.67839,-7.444067,1008.091
0.637581349,-0.246972,-0.1154952,-0.2516957,0.06156844,-0.9748017,-0.228205,1.508846,34.40337,-7.448101,1008.091
0.672643662,-0.1854445,-0.1154952,0.1155007,0.06157408,-0.9752876,-0.2282124,1.497483,35.13099,-7.453323,1008.095
0.705201626,-0.1854445,-0.1154952,0.1767001,0.0635005,-0.9733208,-0.2277009,1.497483,35.13099,-7.453323,1008.095
0.737759590,0.1221927,0.0629476,0.1155007,0.06111405,-0.9762943,-0.2219434,1.863954,35.13364,-7.454512,1008.095
0.770312786,0.1221927,-0.1154952,-0.006898092,0.05579713,-0.9797655,-0.2219913,2.240156,34.40608,-7.89655,1008.097
0.805375099,-0.00086217,0.003466659,-0.1292969,0.06647854,-0.9781418,-0.2277773,2.240156,34.40608,-7.89655,1008.095
0.837933063,0.06066529,-0.05601428,-0.4352939,0.0601567,-0.9782397,-0.2243891,2.234475,34.76989,-7.899161,1008.095
0.870490551,0.06066529,0.0629476,-0.3740945,0.06694046,-0.9747604,-0.2219257,1.510477,34.40595,-7.002028,1008.094
0.905552387,-0.00086217,0.003466659,-0.2516957,0.06154101,-0.9714224,-0.2233197,1.510477,34.40595,-7.002028,1008.094
0.938110352,-0.4315544,-0.1749762,-0.1292969,0.06354922,-0.9772147,-0.2263102,1.873685,34.40343,-7.895361,1008.094
0.970664024,-0.4930818,-0.05601428,0.05430131,0.06209643,-0.977724,-0.2253498,1.501534,34.7646,-7.896784,1008.092
1.005725861,-0.1239171,0.003466659,0.05430131,0.06104406,-0.9718859,-0.2296101,1.501534,34.7646,-7.896784,1008.092
1.038283825,0.1221927,0.3008713,-0.4964933,0.06160353,-0.9791463,-0.2345552,2.240156,34.40608,-7.89655,1008.09
1.070841312,0.8605222,0.3008713,-0.2516957,0.06596822,-0.9757273,-0.2258065,1.505584,34.3982,-8.340244,1008.094
1.105903149,0.7374673,0.1224285,0.05430131,0.06350811,-0.972859,-0.2223767,1.505584,34.3982,-8.340244,1008.093
1.138461113,0.1221927,0.1224285,-0.006898092,0.06744236,-0.9771594,-0.2272799,2.241787,34.40866,-7.450478,1008.093
1.171014786,-0.3084995,0.0629476,-0.1904963,0.06357132,-0.9782063,-0.221975,1.508846,34.40337,-7.448101,1008.093
1.203572750,-0.1854445,-0.2344571,-0.1292969,0.06256323,-0.9757784,-0.2243538,1.508846,34.40337,-7.448101,1008.093
1.238634586,-0.1854445,-0.05601428,0.2378995,0.06697227,-0.9771966,-0.2205127,2.241787,34.40866,-7.450478,1008.097
1.271192551,-0.06238963,-0.05601428,0.05430131,0.06111329,-0.9772442,-0.2267917,1.512896,34.03697,-7.891562,1008.097
1.303750038,0.3067751,0.003466659,0.1767001,0.05673118,-0.9768264,-0.2243642,1.512896,34.03697,-7.891562,1008.099
1.338812828,-0.1854445,0.1224285,-0.2516957,0.06451709,-0.977191,-0.2287277,2.241787,34.40866,-7.450478,1008.099
1.371366024,-0.3084995,0.0629476,-0.1292969,0.06400715,-0.9743016,-0.2243327,1.869635,34.76982,-7.4519,1008.097
1.403923512,-0.4315544,-0.05601428,-0.4352939,0.06106737,-0.9728798,-0.2247916,1.869635,34.76982,-7.4519,1008.095
1.438986302,-0.1854445,0.0629476,-0.3128951,0.06596538,-0.9747709,-0.2224083,1.869635,34.76982,-7.4519,1008.095
1.471543789,-0.00086217,0.2413904,-0.1904963,0.06253745,-0.9733533,-0.2233501,1.873685,34.40343,-7.895361,1008.097
1.504100800,-0.06238963,-0.05601428,0.1155007,0.06841182,-0.976663,-0.2267899,2.236106,34.77247,-7.453089,1008.097
1.539163590,-0.3700269,-0.1154952,0.1767001,0.06113059,-0.978227,-0.2243898,2.236106,34.77247,-7.453089,1008.101
1.571717262,-0.3700269,-0.1154952,-0.06809749,0.06254751,-0.9743229,-0.2238483,1.514527,34.03955,-7.445489,1008.099
1.604275227,0.4913574,0.0629476,-0.06809749,0.06211417,-0.9796588,-0.2273129,1.508846,34.40337,-7.448101,1008.099
1.639337063,0.7989948,0.003466659,0.2378995,0.06398624,-0.9733122,-0.2281846,1.508846,34.40337,-7.448101,1008.101
1.671894550,0.3683026,0.0629476,-0.06809749,0.06351457,-0.9738221,-0.2243249,1.142375,34.40072,-7.446912,1008.101
1.704452515,-0.1854445,0.003466659,-0.06809749,0.06158205,-0.9743509,-0.2204641,1.508846,34.40337,-7.448101,1008.101
1.737010479,-0.5546093,-0.05601428,-0.1904963,0.06450822,-0.9762235,-0.2277462,1.508846,34.40337,-7.448101,1008.103
1.772068024,-0.00086217,0.1819095,0.05430131,0.06494524,-0.9723211,-0.2296205,1.868004,34.76724,-7.897973,1008.103
1.804625988,-0.00086217,-0.1154952,0.2378995,0.0615922,-0.9767475,-0.2277513,1.514527,34.03955,-7.445489,1008.101
1.837183952,0.06066529,-0.05601428,0.05430131,0.06253383,-0.9733467,-0.2248001,1.514527,34.03955,-7.445489,1008.101
1.872245789,0.1221927,0.003466659,0.05430131,0.06454085,-0.9791368,-0.228274,2.241787,34.40866,-7.450478,1008.101
1.904803276,0.1837202,-0.1154952,-0.1904963,0.06399789,-0.9738091,-0.2257753,2.234475,34.76989,-7.899161,1008.099
1.937361240,-0.1854445,0.0629476,0.05430131,0.06549256,-0.9767054,-0.225821,2.234475,34.76989,-7.899161,1008.104
1.972418785,-0.1239171,0.0629476,0.05430131,0.06495082,-0.9713801,-0.2228389,2.673387,34.04535,-7.895326,1008.104
2.004976749,0.06066529,0.0629476,0.05430131,0.0679454,-0.9781337,-0.2253617,1.880998,34.0422,-7.446678,1008.102
2.037534714,0.06066529,-0.1749762,0.2378995,0.06403533,-0.9767311,-0.2243698,1.880998,34.0422,-7.446678,1008.102
2.072597027,-0.1854445,-0.2344571,0.2378995,0.06403691,-0.9762584,-0.2214623,1.507215,34.40078,-7.894173,1008.102
2.105154038,-0.06238963,-0.2344571,0.1155007,0.06060944,-0.9757928,-0.2267691,2.247468,34.04485,-7.447867,1008.104
2.137712002,-0.3700269,0.1819095,-0.2516957,0.06358469,-0.9810843,-0.2302363,2.247468,34.04485,-7.447867,1008.104
2.170265675,0.3683026,0.1224285,-0.1292969,0.06161189,-0.9777347,-0.2243828,1.868004,34.76724,-7.897973,1008.105
2.205328465,0.42983,0.1819095,0.2990989,0.06304295,-0.9757589,-0.2272543,1.863954,35.13364,-7.454512,1008.108
2.237885475,-0.06238963,-0.1154952,0.1767001,0.06594764,-0.9728361,-0.2204452,1.863954,35.13364,-7.454512,1008.108
2.270443440,-0.1854445,0.003466659,0.05430131,0.05816743,-0.9743844,-0.2228782,1.508846,34.40337,-7.448101,1008.104
2.305505753,-0.5546093,-0.2344571,0.1767001,0.06493796,-0.9708809,-0.2257316,1.879367,34.03962,-7.89275,1008.104
2.338063717,-0.6161367,-0.2344571,0.3602983,0.06695219,-0.9766843,-0.2263054,1.879367,34.03962,-7.89275,1008.104
2.370617390,-0.1239171,-0.1154952,0.2990989,0.06160024,-0.9772379,-0.2267921,1.882629,34.04478,-7.000606,1008.104
2.405679226,0.3067751,0.1224285,0.1767001,0.06644668,-0.9742786,-0.2224012,1.871266,34.77241,-7.005828,1008.104
2.438237190,0.2452476,-0.1154952,0.1767001,0.0606038,-0.9753069,-0.2267617,1.871266,34.77241,-7.005828,1008.104
2.470794678,-0.3084995,0.3008713,-0.2516957,0.06252902,-0.9733379,-0.2267335,2.234475,34.76989,-7.899161,1008.104
2.505856514,-0.4315544,0.1224285,-0.6188921,0.05963675,-0.9758077,-0.226285,2.240156,34.40608,-7.89655,1008.104
2.538414478,-1.600576,0.3008713,-1.353285,0.06783581,-0.96747,-0.2193984,2.240156,34.40608,-7.89655,1008.104
2.570968151,-0.8622466,0.657757,-1.536883,0.06298537,-0.9708976,-0.2276634,1.876948,34.4086,-7.003217,1008.104
2.606029987,-1.169884,0.1819095,-0.9860885,0.07134837,-0.9776033,-0.2253569,1.873685,34.40343,-7.895361,1008.102
2.638587952,-1.169884,-0.1154952,-0.1292969,0.06739327,-0.9737405,-0.2310947,1.873685,34.40343,-7.895361,1008.107
2.671145439,-0.5546093,-0.293938,0.2990989,0.06064244,-0.9782312,-0.2248728,2.241787,34.40866,-7.450478,1008.107
2.703703404,0.7374673,0.0629476,-0.2516957,0.06013745,-0.9782045,-0.2321225,1.863954,35.13364,-7.454512,1008.107
2.738765240,1.537324,0.1819095,-0.1904963,0.06115713,-0.9797023,-0.2205454,1.863954,35.13364,-7.454512,1008.107
2.771318913,0.1837202,0.1819095,0.05430131,0.06108263,-0.9733832,-0.2209322,1.875317,34.40601,-7.449289,1008.105
2.803876877,-1.846686,0.3008713,-0.6800915,0.05967013,-0.9777711,-0.2219646,2.241787,34.40866,-7.450478,1008.103
2.838939190,-2.646543,0.3603523,-1.230886,0.06390934,-0.9669888,-0.2295382,2.241787,34.40866,-7.450478,1008.105
2.871497154,-2.215851,0.0629476,-0.9248891,0.07320233,-0.9697968,-0.2266898,1.880998,34.0422,-7.446678,1008.105
2.904054165,-0.6161367,0.1819095,-0.8024903,0.06839497,-0.9766322,-0.2335567,1.882629,34.04478,-7.000606,1008.105
2.939116955,1.475797,0.2413904,-0.1904963,0.06940066,-0.9790556,-0.2321445,1.882629,34.04478,-7.000606,1008.103
2.971670628,2.521764,0.0629476,0.1155007,0.0717645,-0.9727116,-0.2310832,1.880998,34.0422,-7.446678,1008.106
3.004228592,2.583291,-0.2344571,0.6662952,0.06549775,-0.9762393,-0.2214635,1.869635,34.76982,-7.4519,1008.106
3.039290428,2.091071,-0.1154952,0.6050959,0.06550459,-0.9767274,-0.2209875,1.869635,34.76982,-7.4519,1008.104
3.071847916,1.537324,0.003466659,0.2378995,0.06116036,-0.9801838,-0.2215195,1.880998,34.0422,-7.446678,1008.104
3.104405880,0.5528849,0.003466659,0.05430131,0.06500998,-0.9757686,-0.2195223,1.878579,34.41118,-6.557146,1008.104
3.136963844,-0.6161367,0.003466659,0.1767001,0.06547482,-0.9747707,-0.2238579,1.878579,34.41118,-6.557146,1008.102
3.172021389,-0.9853015,-0.05601428,0.2990989,0.0723037,-0.9751787,-0.2214538,1.507215,34.40078,-7.894173,1008.102
3.204579353,-1.354466,-0.05601428,0.05430131,0.06735982,-0.9703501,-0.2286261,1.503165,34.76718,-7.450712,1008.102
3.237136841,-1.231411,0.2413904,-0.2516957,0.06447357,-0.972831,-0.2257609,1.503165,34.76718,-7.450712,1008.101
3.272198677,-1.477521,0.3603523,-0.9248891,0.06397864,-0.973774,-0.2335088,1.510477,34.40595,-7.002028,1008.101
3.304756641,0.2452476,0.1224285,-0.2516957,0.07178698,-0.9732282,-0.2243239,1.510477,34.40595,-7.002028,1008.101
3.337314606,-0.1854445,-0.4723809,0.9722923,0.06547128,-0.976191,-0.232097,1.510477,34.40595,-7.002028,1008.099
3.372373104,-0.1239171,0.003466659,-0.006898092,0.06056066,-0.970472,-0.2213707,1.875317,34.40601,-7.449289,1008.099
3.404930115,-0.8007191,0.3008713,-0.7412909,0.06111893,-0.9777301,-0.2267991,1.866373,34.76466,-8.344045,1008.099
3.437488079,-0.9853015,0.3008713,-1.047288,0.06640488,-0.9722999,-0.230105,1.880998,34.0422,-7.446678,1008.099
3.472550392,-0.3700269,0.1819095,-0.9860885,0.07808343,-0.9702302,-0.2242842,1.880998,34.0422,-7.446678,1008.103
3.505108357,0.5528849,-0.1154952,-0.2516957,0.08047792,-0.9677469,-0.2290824,1.508846,34.40337,-7.448101,1008.102
3.537665844,2.460236,-0.4128999,0.9110928,0.07907829,-0.9726339,-0.2272221,1.510477,34.40595,-7.002028,1008.102
3.570219040,3.075511,-0.5318618,1.951483,0.06691799,-0.9742437,-0.228685,1.510477,34.40595,-7.002028,1008.102
3.605281830,2.583291,-0.8292665,2.318679,0.06160948,-0.9777303,-0.2253495,1.873685,34.40343,-7.895361,1008.102
3.637839317,1.721907,-0.4128999,1.400688,0.05342563,-0.9851445,-0.2215877,1.872054,34.40085,-8.341434,1008.1
3.670397282,0.4913574,0.3603523,0.1155007,0.05919154,-0.9763659,-0.2117918,1.872054,34.40085,-8.341434,1008.098
3.705459118,-2.154323,0.4793141,-0.9248891,0.06261104,-0.9777682,-0.2142334,1.879367,34.03962,-7.89275,1008.102
3.738017082,-3.20029,0.2413904,-1.169687,0.06699634,-0.9772405,-0.2108459,1.514527,34.03955,-7.445489,1008.102
3.770570755,-2.831125,0.1819095,-0.7412909,0.07089246,-0.9809957,-0.2287919,1.514527,34.03955,-7.445489,1008.102
3.805633068,1.906489,-0.7697856,1.461887,0.0698467,-0.9789746,-0.2485785,1.880998,34.0422,-7.446678,1008.1
3.838190079,11.75088,-2.31629,5.807045,0.09430325,-0.9926496,-0.2705627,2.241787,34.40866,-7.450478,1008.099
3.870748043,4.859807,4.761942,13.15097,0.09930424,-1.061735,-0.3470283,2.241787,34.40866,-7.450478,1008.099
3.905810356,91.92116,0.598276,16.21094,0.06307316,-1.082716,-0.3260448,2.244206,34.03968,-8.340011,1008.097
3.938368320,106.3186,3.929209,12.04938,0.08323885,-1.004457,-0.2707321,2.659783,34.39662,-10.06457,1008.095
3.970921516,100.9657,10.11523,7.949023,0.0369617,-0.9755409,-0.1368343,2.659783,34.39662,-10.06457,1008.095
4.005983829,76.72388,17.19346,2.441078,0.07961807,-0.8491759,-0.01555354,3.404498,32.92933,-13.05156,1008.092
4.038541794,47.1907,30.21978,-0.7412909,0.01625966,-0.9829046,-0.07360431,3.404677,32.18399,-16.10512,1008.092
4.071099758,39.56129,31.88525,-3.678862,0.09027968,-0.9401492,-0.07205671,3.404677,32.18399,-16.10512,1008.09
4.103656769,32.36258,34.38345,-3.434064,0.04076106,-0.9781125,0.01103609,4.508927,31.45398,-17.88775,1008.092
4.138719082,34.82368,38.904,1.706685,0.005416459,-0.9741895,0.1150561,4.882101,30.72162,-19.15821,1008.092
4.171273232,1.537324,15.70643,0.7274947,-0.02395935,-0.9504992,0.1647503,4.882101,30.72162,-19.15821,1008.092
4.203830719,49.83638,21.47608,9.785005,0.002582876,-0.9710592,0.1663445,5.97825,30.7244,-20.05392,1008.092
4.238892555,-3.261817,13.98149,10.1522,-0.01072815,-0.964749,0.1302004,6.348771,30.36065,-20.49857,1008.092
4.271450520,9.720475,16.00384,12.96737,-0.003445366,-0.9973764,0.1649821,6.348771,30.36065,-20.49857,1008.091
4.304008484,6.090356,14.51682,12.96737,0.02493805,-0.9056384,0.05952799,8.182146,30.0027,-21.77639,1008.091
4.339070797,-40.97815,22.18986,14.86455,-0.01170818,-0.9001783,0.03644457,8.182146,30.0027,-21.77639,1008.092
4.371623993,-44.97743,14.5763,20.0053,-0.03452908,-0.9196208,-0.02811914,8.182146,30.0027,-21.77639,1008.091
4.404181481,-44.73132,25.10442,41.91469,-0.001700799,-0.7799581,-0.07919153,8.914064,30.37918,-20.50689,1008.091
4.439244270,857.8149,-57.93097,42.03709,-0.1248345,-1.191325,-0.8113806,10.37022,31.11997,-20.07079,1008.091
4.471801758,435.1829,61.74468,77.22675,-0.05822392,-1.100213,0.1779673,10.37022,31.11997,-20.07079,1008.091
4.504359722,301.5452,78.10194,111.6208,-0.3051895,-0.2496573,0.4241697,12.21284,28.167,-29.67826,1008.093
4.536916733,88.04493,35.98944,135.0602,-0.4576226,-0.08911625,0.5930478,14.2152,16.1468,-34.37737,1008.095
4.571975231,-723.5023,25.28286,25.75805,-0.7839231,2.39481,1.066781,14.2152,16.1468,-34.37737,1008.093
4.604533196,-932.7571,-16.11587,85.06026,-0.936,-1.946841,-2.536179,17.63008,8.899206,-33.50743,1008.093
4.637091160,172.5836,-45.49945,72.69799,-0.4330527,-0.9466308,0.3841739,19.68762,21.7396,-17.86599,1008.092
4.672152996,-135.792,-66.61519,64.55847,-0.50194,-0.7206312,-0.02463214,19.68762,21.7396,-17.86599,1008.092
4.704710484,-77.89462,-71.909,54.21577,-0.3284363,-1.151375,-0.03233794,20.65333,30.1104,-18.75803,1008.09
4.737268448,-8.922344,-60.78605,54.39936,-0.4311899,-0.8586285,0.1699286,21.7371,31.21198,-18.38708,1008.09
4.772326946,-62.45123,-78.21397,55.62335,-0.5824213,-0.7313636,0.0734073,21.7371,31.21198,-18.38708,1008.092
4.804883957,-81.58627,-83.80518,68.65883,-0.5203505,-1.145265,-0.2147759,22.81379,32.67517,-18.40109,1008.094
4.837441921,-0.9237741,-46.80803,75.39076,-0.6943434,-1.151476,-0.09675881,24.63725,33.79275,-16.18451,1008.094
4.872504234,14.76573,-53.58886,78.81792,-0.8788486,-1.142133,-0.2211494,24.63725,33.79275,-16.18451,1008.096
4.905062199,86.32216,-64.17647,83.46908,-0.7955069,-1.113177,-0.2575247,26.45885,34.90738,-14.47772,1008.096
4.937620163,64.78755,-50.49585,84.69307,-0.7698477,-0.7021394,-0.1555699,29.05255,33.10685,-14.47299,1008.098
4.970172882,-28.05738,-50.61481,65.78246,-0.8799717,-0.7471389,-0.194337,29.05255,33.10685,-14.47299,1008.098
5.005235672,-17.41313,-51.09066,54.33817,-0.7483531,-0.8430764,-0.2022115,30.5649,29.83576,-15.72873,1008.098
5.037819862,-4.184729,-33.30586,36.46794,-0.7229613,-0.7136754,-0.1562746,30.97417,27.29653,-14.88323,1008.098
5.070377827,-5.538333,-12.60649,5.011452,-0.7103892,-0.7607988,-0.01875986,30.97417,27.29653,-14.88323,1008.104
5.105439663,-28.85724,-18.73303,-13.96036,-0.7197061,-1.279028,-0.1218824,31.38609,24.38869,-14.86353,1008.105
5.137997627,99.36598,-23.55099,-11.81838,-0.672702,-0.8994292,-0.2045944,31.76961,23.2999,-14.85688,1008.105
5.170551300,67.1256,-19.20888,-18.18312,-0.7330284,-0.4851311,0.001902493,31.76961,23.2999,-14.85688,1008.105
5.205613613,69.95586,-15.04521,-22.22228,-0.7517325,-0.6317487,0.01998552,31.04337,22.55961,-16.12377,1008.105
5.238171101,85.5223,-17.9003,-17.99952,-0.754437,-0.5471598,0.1136036,29.95145,21.44511,-18.72508,1008.107
5.270728588,57.52731,-22.36137,-19.34591,-0.7270791,-0.5303204,0.2288778,29.95145,21.44511,-18.72508,1008.107
5.305791378,24.30248,-28.13102,-25.52705,-0.7384977,-0.6639671,0.3008065,29.213,21.05829,-21.77887,1008.111
5.338348866,14.0274,-35.0308,-27.05703,-0.7270928,-0.7506465,0.3700461,28.13469,19.59252,-22.21093,1008.113
5.370903015,18.5189,-34.37651,-25.46585,-0.6890468,-0.7540737,0.3776911,28.13469,19.59252,-22.21093,1008.113
5.405964375,26.45595,-28.66635,-24.48666,-0.6764675,-0.7561381,0.3336602,27.40658,18.84928,-23.98762,1008.115
5.438522339,42.08392,-25.63282,-20.4475,-0.6566268,-0.7979254,0.2817656,26.30251,18.83396,-25.25854,1008.118
5.471080303,53.77414,-25.3949,-18.18312,-0.6589809,-0.7092757,0.3387087,25.20715,18.45962,-25.69844,1008.118
5.503638268,34.45451,-28.66635,-19.28471,-0.6299701,-0.7279636,0.3630478,25.20715,18.45962,-25.69844,1008.12
5.538699627,33.40855,-31.16455,-22.65067,-0.5671849,-0.6781558,0.3845323,24.11118,17.71152,-27.85629,1008.12
5.571253777,28.73246,-31.16455,-26.50624,-0.5034848,-0.6762093,0.353081,23.01255,17.33202,-29.18832,1008.12
5.603811264,35.56201,-30.03441,-25.77184,-0.4924099,-0.6648962,0.3551764,23.01255,17.33202,-29.18832,1008.122
5.638874054,48.79041,-27.95258,-22.16108,-0.5074944,-0.619985,0.3752112,21.90685,17.31411,-30.90532,1008.126
5.671431542,46.76001,-30.80766,-22.09988,-0.5306508,-0.6278202,0.4282855,20.82122,16.20957,-31.78606,1008.126
5.703989029,50.26707,-33.54378,-23.81346,-0.5375656,-0.6519315,0.4733618,20.82122,16.20957,-31.78606,1008.126
5.739051342,53.77414,-41.33578,-28.58702,-0.5547817,-0.6574895,0.5767363,19.72991,15.46885,-32.66942,1008.126
5.771605015,50.26707,-41.69267,-35.07415,-0.5318373,-0.683876,0.6729869,18.28451,13.62666,-34.81824,1008.126
5.804162979,49.09805,-42.28748,-39.48051,-0.4931989,-0.6927211,0.6979503,18.28451,13.62666,-34.81824,1008.126
5.839224815,65.34129,-36.51783,-35.93095,-0.4394462,-0.6368318,0.6392957,16.83646,12.15308,-36.14126,1008.126
5.871782780,68.7253,-35.68509,-34.58456,-0.4129758,-0.6040475,0.666356,15.00676,11.77124,-36.96112,1008.126
5.904340267,72.54001,-35.74458,-32.80978,-0.3873173,-0.5796573,0.7198748,15.00676,11.77124,-36.96112,1008.124
5.936898231,72.78612,-35.80406,-31.89178,-0.3656065,-0.5542712,0.7569779,13.56844,9.567455,-38.72499,1008.124
5.971955776,70.20197,-36.16094,-29.01541,-0.3188256,-0.5062187,0.7977861,12.1407,7.007611,-39.14803,1008.124
6.004513741,52.05136,-35.92302,-27.79142,-0.2532372,-0.4808328,0.8536984,12.1407,7.007611,-39.14803,1008.126
6.037071705,44.91418,-28.42842,-27.11823,-0.2206957,-0.4735959,0.8518438,10.71295,4.447767,-39.57107,1008.126
6.072134018,52.72817,-22.36137,-25.64944,-0.2274018,-0.4838756,0.8487932,9.259451,3.338366,-40.83297,1008.126
6.104691982,52.91275,-21.945,-24.54786,-0.2131596,-0.5390278,0.8339201,9.259451,3.338366,-40.83297,1008.128
6.137249947,72.35543,-23.4915,-27.11823,-0.2144444,-0.4667106,0.8519428,8.549235,1.87783,-40.82015,1008.126
6.172307491,78.13901,-26.28711,-26.07784,-0.2360088,-0.3256461,0.8705506,7.47823,0.05083609,-40.80353,1008.128
6.204865456,59.37313,-27.65517,-24.48666,-0.2662321,-0.2675351,0.9367222,7.47823,0.05083609,-40.80353,1008.133
6.237422943,35.00826,-33.4843,-25.40465,-0.2810626,-0.2862888,0.9567523,6.789108,-2.867527,-41.22633,1008.133
6.272484779,47.99055,-41.33578,-23.14027,-0.2742849,-0.3341091,0.9115455,6.451044,-4.689227,-41.21209,1008.133
6.305042744,35.13132,-53.17249,-24.18066,-0.2134421,-0.4477252,0.9542241,6.451044,-4.689227,-41.21209,1008.133
6.337600708,94.99753,-54.0647,-9.921201,-0.08312447,-0.5064559,0.9899389,4.643046,-6.15512,-40.74963,1008.135
6.372659206,129.0837,-38.42122,21.59649,0.04499866,-0.01948012,0.9329556,3.20152,-7.618368,-40.28836,1008.133
6.405216694,59.37313,-34.43599,33.77517,0.1221799,-0.1547812,0.9815714,3.20152,-7.618368,-40.28836,1008.133
6.437774658,85.09161,-17.48393,37.75313,0.1357412,-0.2385422,0.9503111,1.006456,-11.69503,-39.86952,1008.133
6.470331669,104.2266,-7.848017,40.9967,0.1102173,-0.251288,1.007663,-0.4204457,-13.88073,-38.51089,1008.133
6.505394459,108.7797,-23.84839,44.36266,-0.1005754,0.04136139,1.241935,-0.4204457,-13.88073,-38.51089,1008.132
6.538136006,114.4402,-62.03515,43.07748,-0.07337885,-0.09263808,0.9701405,-1.463833,-17.15522,-37.1456,1008.132
6.570689678,134.4366,-64.94972,28.14482,0.2354061,0.1083753,0.9371393,-2.872293,-20.43014,-35.39679,1008.132
6.605752468,67.55628,-68.34013,9.846204,0.2745101,0.3095742,1.157207,-2.872293,-20.43014,-35.39679,1008.136
6.638309956,36.48492,-74.94252,-3.495264,0.2320697,0.3135523,1.547394,-5.358229,-24.79668,-32.29835,1008.135
6.670867920,61.95729,-82.97245,-7.534424,0.242428,0.05742183,1.57683,-7.515043,-26.98288,-30.10892,1008.135
6.705929756,114.5633,-119.8506,4.766655,-0.3018957,0.6867201,1.851846,-7.515043,-26.98288,-30.10892,1008.133
6.738487721,72.66306,-164.9372,-1.720481,-0.7251235,0.7659397,2.026995,-9.310835,-28.80226,-27.85956,1008.133
6.771041393,70.63266,-212.0461,-8.452415,-0.8928341,0.4482858,2.036329,-12.91728,-31.71891,-24.32193,1008.133
6.806103706,77.03152,-260.7015,-29.01541,-0.2870229,-0.4274953,1.633748,-12.91728,-31.71891,-24.32193,1008.131
6.838661194,425.4615,-203.4808,38.73232,-0.1212018,-0.0680323,0.4489984,-16.89689,-33.90322,-19.51385,1008.129
6.871218681,414.6327,-201.399,93.81178,0.3228539,0.1618718,-0.09510525,-19.02747,-35.67505,-8.596756,1008.129
6.903776646,309.3592,-168.0302,153.3588,0.7065241,0.007146021,-0.8755894,-19.02747,-35.67505,-8.596756,1008.129
6.938838959,172.7682,-146.0817,124.0443,1.490491,-0.03433649,-0.7290657,-21.86293,-37.78057,8.442879,1008.124
6.971393108,-128.4702,-95.04708,49.38101,1.166617,-0.1837722,-0.6459586,-24.09414,-33.00122,19.75904,1008.127
7.003950596,-85.83167,-12.54701,-21.73268,1.027207,-0.5272678,-0.5379544,-24.09414,-33.00122,19.75904,1008.121
7.039012432,-161.3874,67.69277,-183.2991,1.093523,-0.8153535,-0.4819914,-25.26312,-28.64565,19.34892,1008.118
7.071570396,-13.90607,98.44441,-210.1656,0.2267161,-1.281598,-0.4747334,-23.76236,-31.18949,18.02423,1008.116
7.104128361,191.8418,92.49632,-171.916,-0.03594146,0.2932645,-0.4103329,-23.76236,-31.18949,18.02423,1008.116
7.139190674,-68.4194,114.3258,-174.058,-0.0398423,0.6798722,-0.3643107,-19.29799,-36.27137,14.54167,1008.113
7.171743870,-74.51061,132.4675,-166.2857,-0.04457297,0.1028836,-0.4649505,-14.50891,-37.31585,16.70069,1008.111
7.204301357,-42.51633,74.83048,-152.5158,-0.236289,-0.13592,-0.3369302,-14.50891,-37.31585,16.70069,1008.107
7.239364147,-48.91519,81.07598,-157.8401,-0.3595375,0.2169303,-0.2637553,-10.80994,-40.21758,13.65091,1008.106
7.271921635,-119.5487,49.13472,-177.9747,-0.4594501,0.5744344,-0.1852147,-5.647502,-42.73975,11.48591,1008.106
7.304479599,-188.4595,90.77138,-239.1129,-0.2327454,0.4110059,-0.4673187,-5.647502,-42.73975,11.48591,1008.104
7.337037563,68.54073,109.4484,-38.19532,0.3041998,5.200491,8.3239,-1.608047,-44.18876,7.532354,1008.106
7.372095108,-1002.345,-350.0419,106.0517,-2.043746,6.19939,1.291839,7.26071,-45.22361,6.236969,1008.106
7.404653072,-657.5448,-142.037,9.540207,0.2276103,0.3079045,-0.3098216,12.31418,-40.46217,5.294237,1008.107
7.437211037,-27.13447,31.34992,-7.412025,0.1190747,-1.759326,-0.3625238,12.31418,-40.46217,5.294237,1008.107
7.472273350,188.2732,-125.0255,75.63556,-0.6003406,1.048066,0.4200843,10.10204,-44.22723,-13.85361,1008.107
7.504830361,-137.8224,-47.10543,62.47768,0.166907,0.1064346,-0.001542024,9.738417,-43.47975,-9.970448,1008.112
7.537388325,-88.47735,-16.05639,32.91838,0.05035141,-0.02015678,-0.07151698,9.738417,-43.47975,-9.970448,1008.112
7.572446823,-33.84097,25.63975,20.4337,0.3550326,0.1119133,0.08053404,6.048135,-42.80111,-13.85098,1008.112
7.605004788,-21.41242,45.86327,-15.42915,0.08577536,0.7597028,0.6030563,4.181085,-41.00525,-15.57866,1008.112
7.637562275,-224.0223,46.16068,-49.57841,0.1710073,0.7879489,0.9393519,4.181085,-41.00525,-15.57866,1008.112
7.672624111,-239.2811,32.24214,-57.28954,0.05407109,0.2974486,1.373305,5.276625,-41.37625,-18.19232,1008.113
7.705182076,-36.97886,-31.99728,-25.89424,-0.3321606,1.076242,2.88451,8.496468,-38.1213,-25.68229,1008.113
7.737740040,-396.5453,4.583499,8.867014,0.1442746,-0.558179,0.72694,8.496468,-38.1213,-25.68229,1008.115
7.772798538,214.0532,-0.7697856,27.77763,-0.02155386,-0.4125762,0.723521,9.15591,-34.87714,-31.82573,1008.115
7.805356026,131.3603,-5.171375,21.96369,0.1399983,0.08513641,0.645884,8.671764,-27.23717,-31.4333,1008.115
7.837913513,113.948,7.022218,2.379879,0.06606095,-0.03666604,0.5005342,8.671764,-27.23717,-31.4333,1008.117
7.870471001,92.72102,30.63615,-17.14273,0.07380561,0.2143661,0.6807891,8.040907,-33.04573,-28.33036,1008.119
7.905533791,138.6205,32.06369,-14.38876,-0.1798519,0.3687764,1.051239,8.464011,-35.93586,-25.25189,1008.125
7.938091278,236.0185,8.747166,5.684646,-0.2642773,1.255878,1.421104,8.464011,-35.93586,-25.25189,1008.126
7.970644951,100.4119,8.211837,16.33334,-0.07496069,0.9401016,0.6572016,9.246096,-37.71677,-19.56972,1008.126
8.005706787,27.44039,2.799071,4.521857,-0.07547792,0.6385254,0.6032967,9.327696,-41.68843,-14.31559,1008.128
8.038264751,53.65108,-3.149023,-4.107258,-0.003556055,0.383234,0.5186086,9.327696,-41.68843,-14.31559,1008.126
8.070822716,84.41481,0.9551617,-1.475684,-0.06411096,0.7091212,0.6087132,8.60696,-42.04721,-12.52631,1008.128
8.105885029,58.88091,-0.8887475,5.31745,-0.0483975,1.048228,0.682511,9.360583,-42.75477,-9.974482,1008.126
8.138442993,11.87394,2.204261,5.439848,-0.04411387,1.009045,0.6543567,9.360583,-42.75477,-9.974482,1008.126
8.170996189,-5.169168,-1.424076,-3.189267,-0.04244857,0.8186679,0.6282485,9.007716,-43.10868,-7.804047,1008.126
8.206058502,-18.15146,-4.160199,-9.431605,-0.03911528,0.7381068,0.6120315,9.38555,-43.83366,-7.800013,1008.126
8.238616467,-26.64225,-4.517085,-8.942011,-0.05641811,0.7611884,0.6167508,9.38555,-43.83366,-7.800013,1008.126
8.271173954,-39.13232,-4.933451,-3.80126,-0.06621993,0.7773473,0.6687281,9.376839,-43.47465,-8.631043,1008.125
8.303731918,-39.7476,-3.149023,-1.047288,-0.06738029,0.6798655,0.726214,9.745729,-43.84097,-9.521765,1008.125
8.338793755,-21.47394,-3.922275,-1.598082,-0.06772259,0.586486,0.739291,9.745729,-43.84097,-9.521765,1008.126
8.371347427,-1.969741,-3.922275,-1.720481,-0.05369577,0.5935014,0.7331005,9.729473,-43.1211,-10.8652,1008.125
8.403905392,12.98143,-2.197328,-0.1292969,-0.05935323,0.6600361,0.7278373,9.720763,-42.76209,-11.69623,1008.125
8.438967705,16.85766,-1.007709,1.278289,-0.04741228,0.6782174,0.7184355,9.720763,-42.76209,-11.69623,1008.123
8.471525669,23.99485,0.3603523,2.685875,-0.05427695,0.6805932,0.7107443,9.344328,-42.0349,-11.31792,1008.123
8.504082680,32.23952,-0.9482284,3.542667,-0.052827,0.7257598,0.7220663,9.729473,-43.1211,-10.8652,1008.123
8.539145470,34.94673,-2.97058,1.461887,-0.04512813,0.7341152,0.7236365,9.729473,-43.1211,-10.8652,1008.121
8.571699143,40.42268,-3.684352,-0.06809749,-0.04119734,0.7269675,0.7037052,9.728685,-42.74954,-9.529598,1008.121
8.604257107,49.03652,-4.636046,0.1767001,-0.03723639,0.753002,0.6547942,9.376839,-43.47465,-8.631043,1008.121
8.639318466,47.68292,-3.208504,0.8498935,-0.04923087,0.7657778,0.5902281,9.376839,-43.47465,-8.631043,1008.119
8.671876431,44.79113,-2.911099,3.359069,-0.02034839,0.8290188,0.5534617,9.392073,-43.82333,-6.015726,1008.119
8.704434395,37.3463,1.133604,1.339489,-0.011045,0.8618072,0.5307509,9.041625,-44.54622,-4.734823,1008.119
8.736991882,24.36401,1.252566,-0.1292969,-0.02037687,0.8642106,0.5100113,9.041625,-44.54622,-4.734823,1008.123
8.772050381,15.25795,0.2413904,-0.8636897,-0.05055352,0.8585598,0.4906191,8.670316,-43.81091,-2.954569,1008.123
8.804608345,9.412838,-0.293938,-1.536883,-0.02855845,0.859646,0.5283179,9.403257,-43.80561,-2.956946,1008.125
8.837166309,1.229687,1.133604,-0.9860885,-0.03682867,0.8196278,0.5407665,9.403257,-43.80561,-2.956946,1008.125
8.872228146,4.55217,1.074124,-0.3740945,-0.07217682,0.8054841,0.5570197,9.045496,-44.16727,-2.124727,1008.125
8.904785633,11.01255,1.014643,-0.9860885,-0.05858089,0.8057321,0.5415423,9.78575,-44.52321,-1.678422,1008.125
8.937343597,7.136323,0.0629476,-0.1904963,-0.05639771,0.8242965,0.5268387,9.78575,-44.52321,-1.678422,1008.127
8.972402096,8.120762,0.1819095,0.2990989,-0.04411664,0.8080882,0.4927432,9.409548,-43.79565,-1.236382,1008.127
9.004959106,12.05852,1.609452,0.6050959,-0.05014176,0.8625084,0.4785946,9.411179,-43.79307,-0.7903109,1008.127
9.037517071,4.79828,2.025819,-0.3128951,-0.04920568,0.9086691,0.4836483,9.411179,-43.79307,-0.7903109,1008.127
9.072579384,-5.415278,1.906857,-0.4352939,-0.0652525,0.9107967,0.503998,9.056071,-44.52334,-0.7839003,1008.125
9.105137348,-13.84454,0.2413904,-0.4964933,-0.05895948,0.8748564,0.5164949,9.784962,-44.15165,-0.3428173,1008.125
9.137695313,-14.09065,0.2413904,-0.1904963,-0.05930974,0.8242409,0.5307077,9.784962,-44.15165,-0.3428173,1008.125
9.170248985,0.06066529,0.5387951,0.1767001,-0.06533877,0.8060105,0.5676554,9.05444,-44.52592,-1.229972,1008.125
9.205310822,12.12005,1.49049,1.033492,-0.05348834,0.8300645,0.5491592,10.15222,-44.52056,-1.67961,1008.127
9.237868786,17.1653,0.598276,3.420268,-0.03233074,0.8479553,0.5233094,10.15222,-44.52056,-1.67961,1008.127
9.270426273,13.3506,1.074124,2.685875,-0.008282395,0.8317521,0.5215889,9.056071,-44.52334,-0.7839003,1008.127
9.305489063,7.997706,0.1819095,1.645486,-0.004615827,0.8046912,0.4979704,9.057702,-44.52076,-0.3378286,1008.127
9.338046551,6.644103,0.5387951,0.5438964,0.0001365601,0.8121026,0.4850277,9.057702,-44.52076,-0.3378286,1008.127
9.370599747,3.137038,2.14478,-1.047288,0.01574926,0.84739,0.4652492,8.692863,-44.52082,0.1094332,1008.127
9.405662060,-6.891937,2.14478,-0.6188921,-0.03843468,0.8987145,0.4593172,9.059334,-44.51817,0.1082439,1008.128
9.438220024,-20.24339,3.155956,-1.230886,-0.1030398,0.9241594,0.4501002,9.059334,-44.51817,0.1082439,1008.128
9.470777989,-27.01141,1.431009,-3.740061,-0.106323,0.9181786,0.4732142,9.059334,-44.51817,0.1082439,1008.128
9.505839825,-28.91877,0.657757,-4.352056,-0.09562024,0.9345073,0.546443,9.05039,-44.15953,-0.7865114,1008.128
9.538397312,-38.57858,-1.186152,-5.270046,-0.09778266,0.8741066,0.5696924,9.058491,-44.89231,-1.673433,1008.128
9.570951462,-45.03896,-2.375771,-3.617662,-0.05875181,0.7804168,0.5503404,9.058491,-44.89231,-1.673433,1008.126
9.606013775,-40.54746,-1.721481,-0.5576927,-0.05697478,0.7161818,0.5730441,9.039206,-44.17724,-3.84529,1008.126
9.638571739,-28.42655,-3.208504,3.971063,-0.05832624,0.7188168,0.6306075,9.761573,-43.81588,-5.188495,1008.126
9.671129227,-7.691794,-1.780962,5.684646,-0.05076803,0.7502584,0.6847346,9.761573,-43.81588,-5.188495,1008.128
9.703687191,8.305345,-2.31629,2.135081,-0.01332902,0.7579833,0.6964175,10.12665,-43.81545,-5.572031,1008.128
9.738749027,25.40998,-0.5913427,-1.047288,-0.02357971,0.7493343,0.6455408,9.392073,-43.82333,-6.015726,1008.124
9.771302700,30.51676,-1.959404,0.2378995,-0.016532,0.805489,0.608204,9.392073,-43.82333,-6.015726,1008.124
9.803860664,26.76358,-0.7103046,1.400688,-0.002837926,0.8786912,0.581755,9.396732,-43.81594,-4.741234,1008.124
9.838922977,23.62568,-0.4723809,3.787465,-0.05397742,0.9117563,0.538805,9.040836,-44.17466,-3.399219,1008.124
9.871480465,15.50406,-2.375771,1.829084,-0.02912257,0.8716709,0.5541208,9.040836,-44.17466,-3.399219,1008.124
9.904037952,2.091071,-2.673176,5.684646,-0.02261625,0.8989618,0.5564644,9.403257,-43.80561,-2.956946,1008.122
9.939100742,-4.984586,-3.446428,11.80458,-0.02293104,0.8444768,0.5667512,9.04978,-44.5333,-2.504463,1008.121
9.971654415,6.090356,-3.56539,14.86455,0.006934093,0.8298252,0.5611817,9.04978,-44.5333,-2.504463,1008.122
10.004212379,19.87251,-0.9482284,16.82294,-0.01725134,0.8177975,0.5716559,9.042467,-44.17207,-2.953147,1008.121
10.039273739,15.381,-5.885146,19.88291,-0.03618159,0.9399806,0.5817556,7.961731,-45.26886,-2.495674,1008.121
10.071831703,-24.48879,-9.632444,18.59772,-0.02441858,0.884878,0.5490007,7.961731,-45.26886,-2.495674,1008.121
10.104389668,-36.85581,-12.9039,15.41535,0.02292965,0.7907488,0.5431685,7.220456,-44.54174,-1.6701,1008.119
10.136947155,-36.42512,-14.21248,16.14974,-0.01901699,0.7998418,0.5607492,6.475542,-44.19318,-3.390897,1008.122
10.172005653,-35.68679,-18.13822,18.23052,0.01807684,0.7345882,0.4818943,6.475542,-44.19318,-3.390897,1008.122
10.204563618,-25.47323,-19.03044,21.96369,0.07588565,0.708065,0.4949684,5.369606,-44.21145,-5.171618,1008.122
10.237121582,-22.58144,-11.6548,28.57322,0.03209682,0.8461398,0.572524,5.731417,-44.21619,-6.447299,1008.122
10.272183418,-41.1012,-13.97455,37.07993,-0.04406609,0.9557448,0.6192237,5.731417,-44.21619,-6.447299,1008.122
10.304740906,-55.4371,-18.79251,40.9967,0.04832097,0.7719818,0.6806201,4.267954,-44.59575,-7.332077,1008.122
10.337298870,-21.47394,-14.92625,45.46425,0.1291982,0.6342423,0.6354201,3.08981,-43.88647,-9.054097,1008.122
10.372357369,25.04081,-18.79251,46.44344,0.06909159,0.7612025,0.7587427,3.08981,-43.88647,-9.054097,1008.122
10.404914379,-29.65709,-16.05639,46.99424,0.1978366,0.6921934,0.6995604,1.248514,-43.54107,-9.942908,1008.122
10.437472344,-30.58001,-34.43599,39.40551,0.2029737,0.2599916,0.7432328,-2.042409,-43.92611,-9.483527,1008.122
10.472534657,91.85963,-24.32424,42.34308,0.1933851,0.55313,0.8066862,-2.042409,-43.92611,-9.483527,1008.12
10.505092621,59.61924,-9.572964,41.18029,0.3251813,0.7560597,0.7004119,-2.786713,-43.20378,-9.486372,1008.124
10.537650585,51.55915,-13.2013,36.83514,0.3076228,0.7050483,0.6459956,-3.863579,-43.92163,-6.418804,1008.124
10.572708130,40.54573,-18.67355,29.43001,0.2661058,0.8097394,0.6969374,-3.863579,-43.92163,-6.418804,1008.124
10.605266094,37.22325,-21.17175,25.88045,0.355492,0.7528492,0.5326018,-5.683959,-44.28872,-4.689686,1008.124
10.637824059,43.12989,-13.37974,27.47163,0.3399921,0.8569639,0.4650823,-7.522782,-43.56658,-3.350749,1008.126
10.670381546,8.428399,-21.23123,20.8621,0.3496977,0.7778354,0.4725664,-7.522782,-43.56658,-3.350749,1008.128
10.705444336,8.243816,-13.61767,18.35292,0.4263397,0.7879389,0.394823,-8.241099,-44.29433,-2.451005,1008.128
10.738001824,-5.538333,-4.992932,12.53898,0.4642844,0.7799406,0.339076,-9.715315,-43.5725,-1.623054,1008.128
10.770555973,-15.93647,5.713637,9.601407,0.4824383,0.8022236,0.3007283,-9.715315,-43.5725,-1.623054,1008.13
10.805617332,-22.51991,22.24934,7.031033,0.4535191,0.7276349,0.2681987,-10.0761,-43.93895,-1.619253,1008.129
10.838175297,-31.74903,18.02619,1.584286,0.4036842,0.6936341,0.4402936,-10.44155,-44.31279,-2.889945,1008.129
10.870733261,-21.16631,18.14515,-1.904079,0.4440786,0.6125069,0.4409504,-10.44155,-44.31279,-2.889945,1008.127
10.905795574,-25.78086,5.95156,-5.820841,0.398534,0.6742187,0.6323864,-10.82265,-43.59298,-3.786121,1008.127
10.938353538,-38.64011,-4.160199,-5.88204,0.3588027,0.6652507,0.673375,-10.46917,-42.8653,-4.238605,1008.127
10.970906734,-44.73132,-20.81486,-6.800031,0.3834274,0.614702,0.7441198,-10.46917,-42.8653,-4.238605,1008.127
11.005969048,-26.33461,-24.4432,-1.904079,0.3845853,0.6518966,0.7973742,-10.83625,-43.24172,-5.955369,1008.127
11.038527012,-15.3212,-28.13102,2.808274,0.4043269,0.7423441,0.7368628,-9.741733,-43.24153,-7.297151,1008.129
11.071084499,0.3683026,-28.72583,8.438618,0.3454654,0.7456934,0.58084,-9.741733,-43.24153,-7.297151,1008.129
11.103642464,-9.845256,-34.67392,11.80458,0.3584443,0.7941542,0.5424133,-10.11388,-42.88036,-7.298573,1008.129
11.138704300,-7.691794,-32.47313,11.92698,0.4858085,0.8522775,0.523842,-10.1212,-42.51913,-7.747256,1008.129
11.171257973,-24.55032,-23.13462,8.438618,0.5014167,0.8443477,0.4956701,-10.1212,-42.51913,-7.747256,1008.128
11.203815937,-26.82683,-12.13064,7.337029,0.4034019,0.7431377,0.5609266,-11.22061,-42.52707,-7.74369,1008.126
11.238878250,-19.56659,-11.59532,6.357839,0.4070083,0.5684934,0.6070797,-12.32733,-42.17379,-8.188807,1008.126
11.271436215,2.275654,-11.89272,8.744616,0.453109,0.5000585,0.6117917,-12.32733,-42.17379,-8.188807,1008.126
11.303994179,25.10234,-0.8887475,6.786235,0.4873471,0.4764448,0.5591937,-12.32468,-42.5424,-9.014614,1008.126
11.339056015,29.90148,0.7172379,-1.108487,0.5196363,0.4998376,0.5310002,-12.68952,-42.54246,-8.567354,1008.126
11.371609688,30.45523,4.583499,-10.90039,0.5251179,0.5419528,0.5833588,-12.33301,-41.80998,-8.191418,1008.122
11.404167652,23.87179,3.096475,-13.47077,0.4715997,0.61478,0.5535854,-12.33301,-41.80998,-8.191418,1008.122
11.439229965,39.56129,3.750766,-11.20639,0.4423276,0.7560663,0.6079739,-12.31513,-42.52727,-6.401907,1008.122
11.471787930,30.02454,-0.1749762,-8.391216,0.4353617,0.8066083,0.5889332,-13.04909,-42.16137,-5.127649,1008.122
11.504345417,28.97857,-1.662,-5.759642,0.3857024,0.8007123,0.5676226,-13.04909,-42.16137,-5.127649,1008.127
11.537054539,26.94817,-8.02646,-6.371635,0.4175101,0.741919,0.5488099,-11.5629,-43.23705,-4.232428,1008.127
11.572113037,30.51676,-3.803313,-3.005668,0.4812065,0.7737805,0.4588431,-11.1948,-43.23182,-3.787544,1008.128
11.604671002,34.6391,6.070523,1.21709,0.4368079,0.7762148,0.4376545,-11.1948,-43.23182,-3.787544,1008.128
11.637228012,36.11575,6.605851,2.808274,0.4615813,0.7367537,0.4225273,-11.17957,-43.5805,-1.172226,1008.128
11.672290325,42.76072,7.854951,3.909863,0.4699147,0.8151255,0.4193645,-11.54036,-43.94696,-1.168426,1008.128
11.704848290,29.83996,5.059347,1.767884,0.5058647,0.8086144,0.3515577,-11.54036,-43.94696,-1.168426,1008.127
11.737406254,21.71833,8.44976,-1.230886,0.4973133,0.7862318,0.3328561,-11.53951,-43.57282,0.6132507,1008.127
11.772464752,9.597421,11.95914,-6.432835,0.4837023,0.7038413,0.3494973,-11.89727,-43.93447,1.44547,1008.127
11.805021763,11.93546,13.80305,-11.94078,0.5019845,0.6484762,0.3926222,-11.89727,-43.93447,1.44547,1008.127
11.837579727,15.31947,21.53556,-16.22474,0.4878934,0.6439562,0.3843495,-10.79297,-43.91879,2.78012,1008.127
11.872642040,21.28764,27.60262,-18.79511,0.4061247,0.6736796,0.3471785,-11.52591,-43.92408,2.782497,1008.127
11.905200005,27.93261,27.90003,-21.18189,0.3619945,0.8385365,0.4125752,-11.52591,-43.92408,2.782497,1008.125
11.937757492,1.968017,22.13037,-33.11577,0.2904957,0.8692639,0.3976449,-10.78729,-44.2826,2.782731,1008.125
11.972815514,-20.42798,14.39785,-32.19778,0.3413651,1.031947,0.4653336,-10.41755,-44.27479,3.673685,1008.125
12.005373478,-41.28579,12.01862,-21.91628,0.3206668,1.071606,0.5549001,-10.41755,-44.27479,3.673685,1008.127
12.037930965,-41.96259,0.598276,-8.880811,0.3540898,0.9436972,0.6689268,-8.217942,-44.63047,2.330948,1008.131
12.070488930,-29.28793,-7.491131,5.25625,0.288332,0.8616028,0.4724535,-7.496974,-44.27132,0.6053963,1008.131
12.105551243,-28.98029,-9.454002,3.665066,0.3542846,0.721397,0.2865676,-7.496974,-44.27132,0.6053963,1008.131
12.138109207,-30.51848,8.330799,-8.330016,0.3941506,0.6635888,0.1817212,-7.861025,-44.64295,-0.2829475,1008.131
12.170662880,-32.91805,21.83297,-17.38753,0.3474923,0.4932463,0.2067199,-7.499448,-44.64805,-1.622353,1008.131
12.205724716,-2.215851,23.26051,-23.87466,0.4242091,0.6106459,0.4723607,-7.499448,-44.64805,-1.622353,1008.131
12.238282681,-38.20941,46.16068,-44.62126,0.2973215,0.6077186,0.7503802,-7.498425,-45.01924,-2.894233,1008.133
12.270840645,-6.461245,17.49086,-38.56252,0.1139355,0.8439296,0.9697471,-5.667704,-45.00859,-3.346248,1008.133
12.305902958,34.6391,-4.100718,-17.75472,0.09172557,1.164837,0.9828818,-5.667704,-45.00859,-3.346248,1008.135
12.338460922,-7.076519,-5.587741,-10.1048,0.1636318,1.016365,0.6025465,-4.205083,-45.00317,-4.243147,1008.135
12.371014595,-4.123202,-6.896322,-14.02156,0.3466923,0.6278233,0.3214006,-3.829669,-45.35917,-3.349581,1008.135
12.406076431,-9.353036,11.18588,-21.48789,0.2567859,0.6899995,0.4974184,-3.829669,-45.35917,-3.349581,1008.135
12.438633919,29.0401,10.65056,-14.63355,0.1818644,0.843305,0.6627277,-4.197771,-45.3644,-3.794463,1008.135
12.471191883,19.50334,6.070523,-7.106028,0.1340581,1.051831,0.6272849,-3.10241,-44.99006,-3.354569,1008.135
12.503749848,6.705631,7.438584,-3.128067,0.1858043,1.041748,0.4293801,-3.10241,-44.99006,-3.354569,1008.135
12.538812161,-39.80913,12.25654,-8.268817,0.2203046,0.8081875,0.4808885,-1.999736,-44.97696,-2.465991,1008.139
12.571365833,-25.04254,12.91083,-11.26759,0.2037211,0.660804,0.5661471,-1.625165,-45.7071,-3.354102,1008.139
12.603923321,-13.5369,11.66173,-18.67271,0.1916491,0.6067711,0.5503498,-1.625165,-45.7071,-3.354102,1008.139
12.638985634,9.658948,14.21941,-33.78897,0.2854607,0.5584207,0.4441454,-1.634108,-45.34845,-4.248857,1008.14
12.671543598,15.19642,24.92598,-46.70204,0.2692837,0.7066326,0.5092612,-0.5493207,-44.61805,-5.149789,1008.14
12.704101086,24.30248,31.58785,-45.96765,0.06911476,0.9392372,0.619346,-0.5493207,-44.61805,-5.149789,1008.14
12.739163876,8.366872,17.43138,-21.42669,-0.2515946,1.319513,0.9338516,0.1982453,-45.33522,-4.254801,1008.139
12.771717072,-17.53619,16.53917,-29.9946,-0.09399851,0.4363459,0.2314135,2.401962,-45.31159,-2.923717,1008.139
12.804274559,21.41069,8.925608,-13.77676,-0.0283423,0.9656218,0.5236506,2.401962,-45.31159,-2.923717,1008.139
12.839337349,11.5663,3.096475,-14.63355,0.03849485,0.8465742,0.6020104,4.297025,-45.29533,-2.483788,1008.139
12.871894836,6.397994,0.598276,-13.59316,-0.02445513,0.7547936,0.512213,5.035647,-45.65385,-2.483554,1008.145
12.904452801,19.68793,13.38668,-18.97871,-0.1991947,0.4402359,0.2499427,5.035647,-45.65385,-2.483554,1008.143
12.937010765,112.0406,-19.1494,-10.96159,0.09996685,1.358198,0.4918126,5.044357,-46.01286,-1.652524,1008.143
12.972068310,-212.2706,26.1156,-7.350826,-0.2086071,1.342375,0.09695017,5.40762,-45.26968,0.5714254,1008.143
13.004626274,-215.5931,133.0623,-19.8355,-0.7806706,0.2542193,0.3709271,5.40762,-45.26968,0.5714254,1008.143
13.037184238,146.5575,-77.5002,75.26836,-0.7055355,0.9729151,1.460716,5.750702,-44.93126,-4.275441,1008.143
13.072246552,133.6983,-45.32101,-28.70942,-0.1661132,0.2759637,0.4499395,6.842192,-44.93587,-6.445642,1008.143
13.104804516,667.3875,51.395,-22.34468,-0.008267275,1.418106,-0.2689708,6.842192,-44.93587,-6.445642,1008.141
13.137362003,94.13615,81.73027,-45.60045,-0.9231021,2.019954,-0.6794436,5.033837,-44.9111,0.1239319,1008.139
13.172420025,95.92044,62.87482,-77.05694,-0.1952237,1.387187,0.007229472,6.538418,-42.97519,18.45879,1008.138
13.204977512,22.14902,122.6532,-110.9002,-0.2201266,0.5567291,0.01101854,6.538418,-42.97519,18.45879,1008.138
13.237535477,287.7015,126.4599,-124.4865,-0.3604013,1.121648,0.1058136,6.504151,-40.04699,21.49669,1008.14
13.272597790,283.5177,-37.64796,-149.2722,-0.6200435,1.573362,-0.3597868,8.329624,-38.55342,25.81357,1008.138
13.305155754,50.14402,96.42207,-226.5671,0.01490575,0.2669161,-0.4552547,8.329624,-38.55342,25.81357,1008.137
13.337713718,-307.3305,7.676508,-290.4592,-0.7845827,-0.04488181,0.9343355,9.70588,-31.22861,32.32022,1008.135
13.372771263,236.7568,71.55903,-265.0003,-1.40284,-0.3048406,-0.2020691,13.65854,-26.47733,30.99871,1008.135
13.405329228,6.828686,-85.58961,-282.0137,-1.317764,2.09089,1.386039,19.52612,-26.80138,30.53623,1008.133
13.437887192,-195.1044,-98.67542,-298.8435,-1.072247,0.8288566,0.7782779,19.52612,-26.80138,30.53623,1008.131
13.470444679,-169.8167,-139.8362,-258.6967,-0.7289219,1.454548,0.7594566,25.22592,-16.57971,29.16961,1008.13
13.505507469,-191.4128,-139.0035,-183.1155,-0.3168411,1.428664,0.2617525,31.03928,-14.37996,24.73792,1008.128
13.538064957,-243.3419,-114.1999,-121.9773,-0.1314891,0.7858762,0.1062705,31.03928,-14.37996,24.73792,1008.128
13.570619106,-109.6428,-113.4862,-56.12675,-0.1357087,0.5237368,-0.07947437,37.57035,-11.82624,17.68855,1008.126
13.605680943,-115.7955,-102.5417,-6.065639,0.01027368,0.1948237,0.09759977,40.11086,-11.47416,12.4522,1008.125
13.638238430,56.54287,19.51321,49.07502,0.001087483,0.3376073,-1.391431,40.11086,-11.47416,12.4522,1008.123
13.670796395,-20.18187,68.94187,64.55847,-1.184172,0.633271,0.08030616,41.56393,-11.48386,8.942593,1008.121
13.705858708,-184.5832,30.63615,42.71028,-1.936062,-0.03198938,1.527297,41.96347,-13.29289,10.22895,1008.121
13.738416672,-81.15558,10.65056,18.78132,-1.788531,-0.5780332,0.303131,41.96347,-13.29289,10.22895,1008.127
13.770970345,41.71475,0.7172379,11.86578,-1.339105,0.0433198,-0.1644327,40.53269,-15.85753,8.977491,1008.129
13.806032181,130.2528,17.0745,20.9845,-0.3812961,0.6715004,0.1734062,40.93488,-18.03517,9.438042,1008.129
13.838590145,-25.53476,39.49881,27.96123,-0.3327596,0.3993354,0.2044936,40.93488,-18.03517,9.438042,1008.129
13.871148109,-13.78301,37.83335,20.9845,-0.6675999,0.05032358,0.4300629,41.30927,-18.01997,11.60349,1008.129
13.903705597,-22.76602,32.48006,19.02612,-1.462267,0.3168062,0.3648058,39.49723,-19.11947,12.50941,1008.127
13.938768387,-92.35358,17.31242,20.2501,-2.183988,0.2537246,-0.1198035,39.49723,-19.11947,12.50941,1008.127
13.971322060,42.02239,-24.97853,11.74339,-1.044981,0.0006940134,0.2169842,39.15083,-20.20876,13.34685,1008.127
14.003880024,30.76287,-4.636046,19.08731,-0.6322069,0.5545509,0.3748824,39.53295,-21.29976,12.97115,1008.127
14.038941383,-19.32048,2.918033,6.051842,-0.9094476,0.1987873,0.2222924,39.53295,-21.29976,12.97115,1008.127
14.071499348,-2.031268,-1.543038,-0.006898092,-1.008303,0.2730203,0.1809832,38.80569,-21.66886,12.97614,1008.127
14.104057312,11.01255,-4.041237,-6.800031,-1.058749,0.3308664,0.1413108,39.18189,-22.39642,12.5341,1008.129
14.139119625,-12.73705,-5.171375,-13.40957,-0.9562503,0.1536282,0.1863621,39.18189,-22.39642,12.5341,1008.129
14.171673298,1.291214,0.598276,-19.22351,-0.867393,0.2312955,0.2478834,39.54431,-22.02738,12.97637,1008.13
14.204231262,15.13489,13.6246,-21.18189,-0.8830686,0.1505197,0.2244308,39.17356,-21.664,13.35729,1008.136
14.239293099,35.00826,17.6693,-23.69106,-0.9464145,0.2101206,0.2954909,39.17356,-21.664,13.35729,1008.136
14.271851063,1.291214,24.56909,-27.48543,-0.9458604,0.2384852,0.2587031,39.52158,-20.57214,12.96593,1008.136
14.304408550,-5.415278,31.52836,-24.67025,-0.9289007,0.1495556,0.198358,39.87567,-19.47068,14.2314,1008.136
14.336966515,4.367588,41.04532,-22.58948,-0.938758,0.07365806,0.1875421,39.87567,-19.47068,14.2314,1008.138
14.372025013,20.85695,39.43933,-25.40465,-0.9965729,0.09400946,0.1424709,39.49705,-18.37414,15.56297,1008.138
14.404582977,12.9199,39.37985,-31.21859,-0.9580055,0.20736,0.1224111,39.8625,-18.0003,16.83366,1008.138
14.437139988,9.658948,36.28684,-35.56375,-0.982165,0.1344618,0.05268272,39.8625,-18.0003,16.83366,1008.138
14.472202301,-8.676234,33.25331,-37.03254,-0.9835188,0.04827251,0.08472209,39.47983,-16.53737,18.60869,1008.138
14.504760265,9.535893,29.14913,-34.33976,-1.012579,0.01526507,-0.007111648,39.46907,-15.43598,20.32142,1008.138
14.537318230,15.99628,21.89245,-31.52459,-1.045739,0.008261308,-0.05794106,39.46907,-15.43598,20.32142,1008.138
14.572376728,7.136323,10.47211,-29.07661,-0.9782273,-0.04797728,-0.002309131,38.71341,-13.98603,20.31335,1008.138
14.604934216,-10.399,3.750766,-21.73268,-0.9908555,-0.09808528,-0.02771363,39.06205,-12.52039,21.63993,1008.138
14.637492180,6.521049,0.4793141,-15.73514,-0.9900123,-0.0370109,0.01043735,39.06205,-12.52039,21.63993,1008.143
14.672554016,-12.79857,-4.041237,-11.63478,-0.9998899,-0.1200059,-0.04254064,39.058,-12.154,22.08339,1008.143
14.705111981,9.905058,-8.502307,-9.064409,-0.995683,-0.006543187,0.02734246,39.03364,-10.70134,21.62688,1008.143
14.737669468,22.14902,-10.34622,-7.228427,-0.9976317,-0.09967586,-0.01806382,39.03364,-10.70134,21.62688,1008.143
14.772727966,22.27208,-8.68075,-4.84165,-1.026098,-0.0235938,0.05563092,39.40984,-11.4289,21.18484,1008.143
14.805285931,15.381,-11.35739,2.624676,-1.056589,-0.1507367,-0.0734075,40.14278,-11.4236,21.18246,1008.143
14.837843895,48.05208,-19.32784,2.930673,-0.9637884,0.04188223,0.1566287,40.14278,-11.4236,21.18246,1008.144
14.870400906,7.382433,-8.561788,2.441078,-0.9990382,-0.09646496,0.01968992,40.12574,-10.33217,21.17463,1008.143
14.905463219,20.18015,-19.26836,10.7642,-1.023821,-0.1496208,-0.01154986,39.74628,-9.609778,20.72453,1008.144
14.938021183,14.0274,-17.9003,11.25379,-0.9492937,0.08693216,0.1244324,39.74628,-9.609778,20.72453,1008.144
14.970574856,3.075511,-21.52864,14.80336,-1.072308,-0.1269082,-0.01502357,40.11843,-9.970942,20.72595,1008.143
15.005637169,40.05351,-32.29468,23.12647,-1.007403,-0.07786639,0.07363658,41.21053,-9.601774,20.2737,1008.143
15.038195133,12.2431,-34.49548,27.83883,-0.9857801,0.07973452,0.1064729,41.21053,-9.601774,20.2737,1008.147
15.070752144,10.8895,-43.35814,30.22561,-1.094162,-0.1182649,0.05183539,40.1235,-10.70853,19.0106,1008.147
15.105814934,49.40569,-47.16492,35.30515,-1.104225,0.1933378,0.008744726,41.21802,-10.70834,17.66882,1008.147
15.138372421,5.536609,-56.02758,44.05667,-1.161649,0.1573836,0.05513917,41.21802,-10.70834,17.66882,1008.147
15.170926571,16.79613,-72.74173,66.51685,-1.387397,-0.05496462,-0.06582654,41.58956,-11.44327,15.95229,1008.141
15.205988884,93.33629,-88.98003,99.13612,-1.99453,-0.0735581,-0.2811103,41.96655,-12.54239,14.17465,1008.145
15.238546848,168.6459,-143.7619,123.0039,-2.081969,0.200379,-0.2792635,41.96655,-12.54239,14.17465,1008.143
15.271104336,21.28764,-160.5356,140.0173,-2.140772,0.5115972,0.2596727,40.88762,-14.38193,12.02464,1008.143
15.303661823,-8.184014,-152.5056,141.5473,-1.398231,0.575533,0.2986016,40.54243,-16.58774,8.536642,1008.142
15.338724136,-115.2418,-122.4678,120.6783,-0.7314986,0.6605511,0.5061405,38.75183,-20.63573,2.899822,1008.14
15.371277809,-221.6228,-86.60078,60.27451,-0.08980455,-0.3958351,0.3758109,38.75183,-20.63573,2.899822,1008.138
15.403835774,-6.645827,-18.97095,79.85831,0.214132,-0.3603812,-0.2392803,36.22503,-24.69418,-3.626764,1008.136
15.438898087,-0.1239171,93.68594,63.33448,0.4403441,0.2466938,-0.2408711,34.40887,-26.17299,-5.394663,1008.136
15.471456051,-35.31762,163.7545,45.70905,0.372871,0.3166546,-0.2150864,34.40887,-26.17299,-5.394663,1008.136
15.504014015,-204.3951,202.0007,10.7642,0.08199978,0.1845527,0.1036577,32.98119,-27.98713,-2.700421,1008.135
15.539075852,-278.7818,208.9005,2.318679,-0.006410836,0.4894999,0.6541279,33.01914,-29.79106,-0.07465839,1008.135
15.571629524,-311.4529,192.5433,18.90372,-0.5541211,-0.1599694,0.8260143,33.01914,-29.79106,-0.07465839,1008.133
15.604187489,-169.2014,168.9293,67.12885,-0.553588,0.4265566,0.8484967,32.64373,-29.43506,-0.9682255,1008.137
15.639249802,-276.3206,170.2974,56.17415,-0.8154775,-0.3684438,0.5006737,32.29998,-30.89295,-0.9565916,1008.137
15.671807766,-117.2722,146.8024,50.7886,-1.002782,-0.4594386,0.9465898,32.29998,-30.89295,-0.9565916,1008.135
15.704365254,-148.8358,56.92673,29.36881,-1.937631,-0.006127556,1.606483,30.87326,-33.82399,-2.651511,1008.135
15.736923218,-69.15772,25.87767,-32.62618,-1.649601,-0.5703712,0.1929039,29.80468,-36.01995,-3.524422,1008.134
15.771980763,87.9834,-2.97058,-36.78774,-1.129479,-0.101353,-0.7700965,29.80468,-36.01995,-3.524422,1008.134
15.804538727,149.5724,-2.494733,-13.28717,-0.9954668,1.333408,-0.07885969,29.79005,-35.2975,-4.421788,1008.134
15.837096691,-143.6675,23.97428,-36.17574,-0.9937416,0.5492939,0.2813761,30.88765,-34.54681,-1.81787,1008.132
15.872159004,-69.40383,0.1819095,-55.75955,-0.958412,-0.282428,0.4141493,30.88765,-34.54681,-1.81787,1008.132
15.904716969,-66.94273,3.453361,-53.67877,-0.7155285,-0.1621842,0.5317599,31.24052,-34.1929,-3.988304,1008.13
15.937274933,-88.35429,2.977514,-44.68246,-0.6743059,-0.1708506,0.418961,33.41601,-33.09555,-5.723834,1008.13
15.972332478,-3.323345,22.3683,-33.36057,-0.8397884,-0.4307127,0.01975395,33.41601,-33.09555,-5.723834,1008.13
16.004890442,60.84979,19.09685,-28.77061,-1.472335,0.03129525,0.06559981,34.83886,-30.54345,-6.63901,1008.128
16.037447929,-27.196,-15.99691,-35.07415,-1.61387,0.05524876,0.05691771,35.93157,-29.80051,-5.373307,1008.128
16.072510719,-40.73204,-32.59209,-32.80978,-1.059258,-0.1516556,0.2257913,35.93157,-29.80051,-5.373307,1008.128
16.105068207,-34.82541,-30.27233,-27.60783,-0.8189579,-0.1119706,0.09758659,37.01333,-29.07491,-7.102659,1008.133
16.137626171,-13.90607,-23.66995,-21.48789,-0.8889839,-0.1775733,0.4267997,38.08372,-27.62169,-8.837233,1008.133
16.172684193,-8.430124,-23.4915,-21.42669,-0.9380124,-0.1077941,0.2263435,38.08372,-27.62169,-8.837233,1008.133
16.205241680,-24.91948,-18.43563,-27.60783,-1.044248,-0.1931017,0.1917915,38.05774,-26.17162,-9.739821,1008.133
16.237799645,-37.10192,-29.26116,-23.26267,-1.222992,-0.01337464,0.4475121,38.77847,-25.81284,-11.5291,1008.134
16.270357609,-82.93987,-27.29829,-23.69106,-0.9494922,-0.238,0.2896239,38.77847,-25.81284,-11.5291,1008.134
16.305419922,-63.62025,-17.95978,-18.97871,-1.060061,-0.2944429,0.4135808,39.11858,-24.73352,-14.0871,1008.134
16.337977886,-48.11533,-13.49871,-15.00075,-1.112273,-0.2958744,0.3652716,39.82553,-23.27815,-14.99207,1008.134
16.370531559,-7.384157,-2.375771,-14.51116,-1.023467,-0.5116527,0.402981,39.82553,-23.27815,-14.99207,1008.136
16.405593395,-7.691794,3.215437,-14.87835,-0.9638104,-0.1812268,0.4809544,39.44709,-22.92695,-16.71405,1008.134
16.438151360,-3.754037,17.01501,-12.18558,-0.8889263,-0.2456357,0.3252189,40.54814,-22.91643,-16.27155,1008.133
16.470708847,-6.461245,21.53556,-12.55278,-0.8137079,-0.2403752,0.2396688,40.54814,-22.91643,-16.27155,1008.133
16.505771637,23.87179,30.21978,16.27214,-0.7605222,-0.005738079,0.2025936,41.65486,-23.26972,-15.82643,1008.133
16.538329125,-31.56445,24.56909,13.88536,-0.6483022,-0.2199151,0.06338879,42.39409,-23.25446,-14.10825,1008.134
16.570883274,-27.99585,10.76952,9.662606,-0.7045034,-0.3427612,0.196431,42.39409,-23.25446,-14.10825,1008.134
16.605944634,-9.476091,5.356751,11.98818,-0.7303906,-0.3035327,0.1530672,42.04224,-23.97956,-13.20969,1008.134
16.638502598,-26.7653,-6.242032,2.869474,-0.9414639,-0.3091422,0.246477,42.41113,-24.34589,-14.10041,1008.134
16.671060562,-15.50578,-11.53584,4.889054,-1.020464,-0.269113,0.1954427,42.41113,-24.34589,-14.10041,1008.134
16.703618527,-10.52206,-10.88154,10.091,-1.038509,-0.2412909,0.1180609,42.03898,-23.98473,-14.10183,1008.134
16.738680840,-5.722916,-16.11587,11.07019,-1.049594,-0.2677503,0.2394789,42.03432,-23.99211,-15.37633,1008.13
16.771234513,-11.93719,-15.46158,12.47778,-0.9288616,-0.2205179,0.2454001,42.03432,-23.99211,-15.37633,1008.13
16.803792477,-12.24483,-12.13064,11.00899,-0.8722707,-0.2973877,0.317646,42.41052,-24.71967,-15.81836,1008.134
16.838854313,0.6144124,-4.21968,10.397,-0.8568268,-0.2289748,0.386831,41.3119,-25.09917,-17.1504,1008.134
16.871411800,11.13561,1.668933,5.439848,-0.8522608,-0.2857952,0.39031,41.3119,-25.09917,-17.1504,1008.136
16.903969765,19.44182,6.367927,6.602637,-0.8885043,-0.2094196,0.2716328,40.95679,-25.82944,-17.14399,1008.136
16.939032078,-0.246972,6.486889,2.012682,-0.967853,-0.2024117,0.3196706,40.59032,-25.83208,-17.1428,1008.132
16.971586227,-9.045399,6.665332,0.6662952,-0.9742445,-0.2023821,0.295025,40.59032,-25.83208,-17.1428,1008.138
17.004143715,-12.73705,6.962737,0.05430131,-0.9484046,-0.2163724,0.2396816,40.57654,-24.73548,-16.25849,1008.138
17.039206505,-3.569455,9.936784,2.624676,-0.9631755,-0.2105584,0.2015978,39.85497,-25.4684,-16.25089,1008.138
17.071763515,-11.81413,6.962737,3.848664,-0.9848918,-0.2230929,0.2236629,39.85497,-25.4684,-16.25089,1008.138
17.104321480,-20.55103,2.858552,2.869474,-0.931108,-0.2864726,0.2076594,40.58953,-25.46052,-15.8072,1008.136
17.136878967,-14.39829,2.14478,6.847435,-0.9210134,-0.2756361,0.2049147,40.21738,-25.09936,-15.80862,1008.134
17.171937466,-18.27452,2.085299,12.78378,-0.9373578,-0.2401477,0.2625104,40.21738,-25.09936,-15.80862,1008.136
17.204495430,-34.27166,-2.31629,13.02857,-0.920191,-0.3760101,0.2628379,39.84523,-24.73819,-15.81004,1008.136
17.237053394,-31.37986,0.3008713,21.47409,-0.9238034,-0.4017855,0.2561643,40.22144,-25.46575,-16.25208,1008.136
17.272115707,-20.30492,2.858552,44.30146,-0.9356305,-0.2083292,0.3238996,39.48686,-25.47363,-16.69578,1008.136
17.304673672,-36.67123,6.962737,56.90854,-0.8763444,-0.1118463,0.3315983,39.48686,-25.47363,-16.69578,1008.136
17.337231159,-38.394,18.02619,63.88527,-0.8199646,-0.2448727,0.2487904,38.0234,-25.85319,-17.58055,1008.136
17.372289181,2.275654,26.59145,70.12761,-0.850993,-0.1685894,0.2712528,36.56646,-26.22243,-16.68104,1008.136
17.404847145,16.42697,38.96349,67.92444,-0.9011508,0.07013665,0.2145212,36.56646,-26.22243,-16.68104,1008.136
17.437404633,-9.168454,47.40978,59.29531,-0.9808475,0.1376519,0.2088608,34.38389,-26.95818,-15.33047,1008.138
17.472467423,-31.6875,55.97503,54.15457,-1.010512,0.11484,0.1176666,32.95676,-29.14425,-14.03556,1008.138
17.505024910,-18.95132,70.54786,54.03217,-1.067886,0.09015354,0.03855493,32.95676,-29.14425,-14.03556,1008.138
17.537582874,-19.62812,67.75225,45.58665,-1.157794,0.05161484,0.1323122,31.88091,-30.23329,-12.23987,1008.138
17.572640419,-22.64297,73.99775,33.16317,-1.280969,-0.247433,-0.0799833,30.43813,-31.32571,-10.57045,1008.138
17.605198383,40.73031,85.71549,20.5561,-1.44963,-0.004696109,-0.1824601,30.43813,-31.32571,-10.57045,1008.138
17.637756348,22.21055,95.82726,8.805815,-1.460094,0.349016,-0.1886547,30.0725,-30.95422,-8.78758,1008.136
17.670313835,-68.11176,121.642,-5.88204,-1.27501,0.5679476,-0.1352221,29.72997,-31.66456,-5.340043,1008.136
17.705376625,-130.0699,131.04,-2.026478,-1.361359,0.5985069,-0.04959818,29.72997,-31.66456,-5.340043,1008.136
17.737934590,-164.2792,84.34743,7.643026,-1.313496,0.2844023,-0.09552351,30.10055,-31.2826,-2.667411,1008.134
17.770488262,-187.2289,30.69563,-1.414484,-1.207312,-0.1588862,-0.2087319,29.34628,-29.83044,-2.293131,1008.134
17.805550098,-90.13859,42.05649,6.051842,-0.7411647,0.1348192,0.02393633,29.34628,-29.83044,-2.293131,1008.133
17.838107586,-158.5571,72.33228,3.603867,-1.008721,0.01057256,-0.2450084,28.60626,-29.47414,-2.675712,1008.133
17.905727863,-78.38684,149.4791,-10.2884,-0.7834651,0.007161798,-0.5570558,28.96198,-28.3701,-0.9641705,1008.131
17.938285828,-42.76244,157.5685,-34.27856,-0.8389271,0.0248961,-0.4484554,30.435,-27.9754,2.533315,1008.129
17.970839500,-82.14001,191.8295,-80.7901,-0.8183109,-0.2829459,-0.4536552,31.89097,-26.48928,6.022966,1008.126
18.005901337,-89.46178,198.6698,-124.4865,-0.9600087,-0.4334989,-0.563125,31.89097,-26.48928,6.022966,1008.128
18.038459301,-83.30904,147.5162,-155.8818,-0.7777008,-0.4742223,-0.4909323,34.07886,-24.62667,10.78212,1008.125
18.071017265,33.90076,177.1377,-138.4399,-0.6780126,-0.2850842,-0.6486241,35.86885,-20.95245,14.70099,1008.125
18.103574753,190.7343,52.04929,-140.8879,-1.317014,0.1994218,-0.5458736,35.86885,-20.95245,14.70099,1008.123
18.138637543,-39.68607,124.3186,-193.4582,-0.8622828,-0.8547443,-0.8442039,37.6343,-15.08024,21.2169,1008.119
18.171191216,7.19785,111.7087,-205.0861,-0.7414202,-0.05532381,-0.5894692,37.16134,-7.422564,24.6681,1008.116
18.203749180,-59.9286,87.67837,-208.8804,-0.7903843,-0.09768473,-0.4996767,37.16134,-7.422564,24.6681,1008.114
18.238811493,-23.68893,69.83408,-211.9404,-0.7248867,-0.2369486,-0.4680283,35.96827,-0.8061461,27.23694,1008.114
18.271368504,0.9220497,58.05687,-195.539,-0.5897944,-0.1491759,-0.571229,32.94706,5.741568,30.7043,1008.112
18.303926468,23.87179,41.64013,-182.3199,-0.5157385,-0.03145046,-0.5965735,32.94706,5.741568,30.7043,1008.109
18.338988781,32.30105,24.92598,-161.6957,-0.456091,0.09184685,-0.7122105,29.20771,10.8162,32.01785,1008.109
18.371542931,21.96444,6.843775,-143.2747,-0.431029,0.2399235,-0.7123925,25.44945,16.97931,32.81376,1008.105
18.404100418,-2.154323,2.442185,-114.5722,-0.3341645,0.1927986,-0.7591258,25.44945,16.97931,32.81376,1008.105
18.439163208,-3.138762,-16.29431,-67.75463,-0.5117196,0.5055708,-0.5792001,21.73198,20.22456,32.35608,1008.108
18.471720696,-33.34874,-47.40284,-39.72531,-0.5418713,0.4362534,-0.4927374,18.39561,22.75,32.79457,1008.107
18.504278660,-37.34803,-76.13214,-0.6800915,-0.5738075,0.3252343,-0.5383877,18.39561,22.75,32.79457,1008.105
18.539340496,-20.18187,-104.683,40.1399,-0.5389264,0.3250669,-0.6147974,18.02345,23.11116,32.79315,1008.105
18.571894169,-11.62955,-129.8434,68.72002,-0.2854577,0.344378,-1.032385,18.77507,22.0276,33.24468,1008.105
18.604452133,-207.656,39.79622,24.22806,0.008719603,0.0549545,-3.007329,18.77507,22.0276,33.24468,1008.103
18.637009621,-38.82469,-65.78246,44.48506,-0.5439025,-0.9993099,-1.588217,21.72062,20.95218,32.35086,1008.101
18.672072411,76.60082,-84.16206,52.99178,-1.496407,0.5258167,-0.05589397,23.62525,16.97899,35.05007,1008.1
18.704629898,-70.88049,-64.83076,22.45328,-0.718677,-0.008320385,-1.02478,23.62525,16.97899,35.05007,1008.1
18.737187863,-9.783729,-89.93172,22.33088,-0.2471728,-0.6428371,-1.428868,25.47622,15.15767,32.38075,1008.1
18.772245884,184.4585,-77.2028,21.65769,-0.09848402,0.3112799,-0.8078169,28.79089,13.71629,30.65993,1008.1
18.804803371,-2.46196,-77.14332,7.704226,-0.2737553,0.1384745,-0.6111328,28.79089,13.71629,30.65993,1008.098
18.837361336,101.7655,-70.48145,5.990643,-0.5308397,-0.5319013,-0.9899287,30.96959,14.0731,26.69926,1008.094
18.872423649,154.31,-65.90142,-2.271276,-0.8374165,-0.1766133,-0.591227,32.7583,16.25407,24.06495,1008.093
18.904981613,96.16655,-66.07986,-11.57358,-0.9915628,-0.1434034,-0.5344998,32.7583,16.25407,24.06495,1008.091
18.937539577,91.49046,-58.94214,-21.97748,-0.8576087,-0.3921084,-0.7134058,33.82459,17.32798,19.65655,1008.091
18.972597122,99.42751,-48.05713,-30.0558,-0.6643146,-0.3424605,-0.4977324,34.50356,19.85744,15.7487,1008.093
19.005155087,87.24507,-32.35416,-38.68492,-0.5858903,-0.2498041,-0.4490235,34.50356,19.85744,15.7487,1008.092
19.037713051,55.06621,-17.95978,-49.63961,-0.592335,-0.293323,-0.3037014,34.46233,21.6562,12.23079,1008.09
19.070270538,39.31518,-5.885146,-54.65796,-0.7032668,-0.3823394,-0.2846506,34.43005,23.09632,9.607641,1008.088
19.105333328,5.228972,5.89208,-56.98354,-0.7034612,-0.5682023,-0.4528009,34.43005,23.09632,9.607641,1008.088
19.137890816,-21.35089,11.84017,-61.4511,-0.6538231,-0.6506205,-0.4623236,32.93087,24.89703,8.261126,1008.088
19.170444965,-40.30135,24.45013,-51.78159,-0.6619704,-0.6243885,-0.4827007,32.18252,25.98576,8.701742,1008.086
19.205507278,-67.49648,34.97826,-41.43889,-0.7113057,-0.599121,-0.6219635,30.31506,28.52658,9.963898,1008.085
19.238065243,-56.17543,30.81459,-44.00927,-0.6796846,-0.6998475,-0.7177892,30.31506,28.52658,9.963898,1008.083
19.270622253,-48.29992,9.223013,-53.12798,-0.5314682,-0.7718647,-0.5952865,29.21244,29.25917,12.1926,1008.083
19.305684567,-10.33748,15.17111,-40.0313,-0.3791945,-0.6826956,-0.6361269,27.37501,29.98352,13.91389,1008.083
19.338242531,18.14974,31.52836,-33.72777,-0.4226236,-0.4731514,-0.6691414,27.37501,29.98352,13.91389,1008.081
19.370796204,28.60941,10.35315,-49.94561,-0.4140691,-0.6079802,-0.6006336,25.91239,29.97811,14.81079,1008.081
19.405858994,36.11575,15.70643,-53.49517,-0.2626521,-0.7593647,-0.5431506,24.79431,31.05901,14.36045,1008.08
19.438416481,84.96856,23.20103,-44.43766,-0.2890515,-0.7124867,-0.5602949,24.79431,31.05901,14.36045,1008.08
19.470974445,74.93958,22.6657,-34.52336,-0.3665988,-0.6158819,-0.5442449,22.92562,32.85229,12.1867,1008.08
19.503532410,-5.107641,25.87767,-49.15002,-0.309593,-0.7919056,-0.5755046,21.43781,33.92538,10.84541,1008.078
19.538593769,20.48778,24.15273,-45.11086,-0.2786448,-0.8946211,-0.5572831,21.43781,33.92538,10.84541,1008.078
19.571147919,24.17943,39.67725,-38.74612,-0.3280359,-0.7656795,-0.6239077,19.58841,35.00358,10.84352,1008.078
19.603705406,11.32019,43.18663,-33.36057,-0.405682,-0.7985698,-0.6673551,17.75037,35.35416,10.84685,1008.078
19.638768196,10.02811,45.32795,-36.97134,-0.4553493,-0.7498111,-0.6307935,17.75037,35.35416,10.84685,1008.078
19.671325684,9.351311,41.34272,-38.37892,-0.4213706,-0.7434632,-0.6466808,16.27881,35.70738,10.84899,1008.076
19.703883648,1.229687,41.16428,-33.66657,-0.3494937,-0.6029869,-0.6581416,13.71352,35.68885,10.85731,1008.074
19.738945484,-23.50435,40.39103,-37.76693,-0.2575431,-0.6196551,-0.5772774,13.71352,35.68885,10.85731,1008.073
19.771499157,-36.11748,44.13832,-37.15493,-0.2361573,-0.7067048,-0.6110123,12.61247,35.67833,10.41481,1008.073
19.804057121,-29.04182,39.67725,-35.62495,-0.2519583,-0.7725074,-0.6144178,11.14743,36.04189,12.20124,1008.073
19.839119434,9.658948,36.58425,-27.54663,-0.3101922,-0.662507,-0.6030158,11.14743,36.04189,12.20124,1008.073
19.871677399,7.136323,29.14913,-27.91382,-0.2376596,-0.6439229,-0.5278789,8.590849,35.66435,13.04059,1008.073
19.904235363,-21.597,22.60622,-28.58702,-0.1194741,-0.7128758,-0.5232445,7.86927,34.93143,13.04819,1008.071
19.936792850,-22.51991,20.46491,-35.50255,0.002013266,-0.8685154,-0.5769742,7.86927,34.93143,13.04819,1008.071
19.971850872,27.31733,24.21221,-35.13535,0.04341431,-0.8319043,-0.600141,6.399337,35.28724,13.4964,1008.071
20.004408836,26.20984,27.18625,-27.79142,0.02183825,-0.5772582,-0.4434882,5.294244,35.64311,13.49736,1008.071
20.036966324,0.9220497,25.58027,-22.52828,0.05027313,-0.6984109,-0.545423,5.294244,35.64311,13.49736,1008.069
20.072029114,13.78129,17.49086,-16.22474,0.08703759,-0.6584837,-0.4568747,3.831014,35.26392,12.67631,1008.069
20.104586601,-6.33819,9.163532,-15.12315,0.1870776,-0.6276693,-0.4270152,2.734021,34.887,11.79034,1008.069
20.137144566,-19.68965,4.880904,-15.00075,0.1385308,-0.5416479,-0.3521827,2.734021,34.887,11.79034,1008.069
20.172203064,-18.70521,7.676508,-11.08399,0.07909598,-0.5604454,-0.4495708,1.576793,34.88378,12.68625,1008.069
20.204761028,-31.31834,3.036994,-5.759642,-0.0783862,-0.9668546,-0.6639546,0.4844599,34.51424,13.07477,1008.069
20.237318516,-89.83095,16.47968,-31.34099,-0.07075414,-0.1228298,-0.4954378,0.4844599,34.51424,13.07477,1008.067
20.272380352,12.12005,30.87407,-1.659282,0.5048351,-1.04329,-1.522227,-0.5954344,33.7916,15.31392,1008.072
20.304938316,76.53929,33.43176,-32.68738,-0.07536215,-0.6278604,-0.6017472,-0.5558441,31.99026,18.38576,1008.072
20.337496281,143.0505,-12.01168,11.07019,0.1294871,-0.7517274,-0.6700573,-0.5558441,31.99026,18.38576,1008.072
20.372554302,79.43108,-16.17535,17.61853,-0.0282885,-0.796944,-0.4786943,-1.3016,31.96467,14.88328,1008.072
20.405112267,17.96516,-15.6995,14.13016,0.00674881,-0.6439404,-0.3589332,-0.9674077,33.40743,12.25894,1008.07
20.437670231,-15.75189,3.39388,2.808274,0.04882061,-0.7920297,-0.589387,-0.9674077,33.40743,12.25894,1008.07
20.470228195,6.274939,6.427408,-3.372865,-0.001096162,-0.8924668,-0.7682704,-1.722286,34.48582,10.91527,1008.07
20.505289555,48.72888,3.453361,-0.9860885,0.03723666,-0.8536682,-0.6410707,-0.2434096,33.77137,11.36181,1008.07
20.537847519,57.21967,10.59107,3.114271,-0.001922158,-0.9003038,-0.5450691,-0.2434096,33.77137,11.36181,1008.07
20.570401192,17.04225,0.7767189,3.359069,0.09065769,-0.8445679,-0.4597172,-0.9926066,34.48595,10.02075,1008.072
20.605463982,1.598852,0.2413904,1.951483,0.1240519,-0.8275847,-0.4648075,-1.001317,34.84496,9.18972,1008.072
20.638021469,2.767874,0.4198332,2.379879,0.08954033,-0.8386112,-0.490078,-1.001317,34.84496,9.18972,1008.07
20.670579434,6.213411,4.048171,5.31745,0.1082241,-0.8605767,-0.522334,-0.6364772,34.84502,8.74246,1008.07
20.705641747,10.33575,6.189485,7.887824,0.1131387,-0.8553638,-0.4792387,0.09078288,35.21413,8.737473,1008.076
20.738199711,7.074795,6.070523,8.867014,0.08561438,-0.9008563,-0.5997836,0.09078288,35.21413,8.737473,1008.076
20.770752907,14.39656,0.8956807,11.92698,0.07767911,-0.8716821,-0.5190903,-0.2659562,34.48127,8.297812,1008.077
20.805815220,9.412838,-6.836841,10.88659,0.04207451,-0.8568207,-0.4695248,-0.6437893,35.20625,8.293777,1008.079
20.838373184,6.028829,-1.364595,2.869474,-0.01938109,-0.902089,-0.5233275,-0.6437893,35.20625,8.293777,1008.079
20.870931148,8.612982,2.501666,-3.495264,-0.03318067,-0.8435205,-0.5103363,0.4596727,34.8478,7.846748,1008.079
20.903488636,8.059235,1.966338,-1.108487,-0.01082177,-0.9300803,-0.5421311,0.08588982,35.20638,7.399254,1008.079
20.938551426,8.366872,1.549971,-1.965279,0.00411668,-0.9480904,-0.4935993,0.08588982,35.20638,7.399254,1008.079
20.971105099,3.56773,3.274918,-4.413255,0.03117648,-0.8760667,-0.4369383,0.8228812,34.84528,6.953417,1008.079
21.003663063,0.1837202,3.453361,-5.88204,0.05178805,-0.8989214,-0.4817775,-0.2765305,34.83734,6.956984,1008.079
21.038724899,4.736752,2.323223,-6.065639,0.1180663,-0.996497,-0.5302177,-0.2765305,34.83734,6.956984,1008.077
21.071282387,-1.662103,2.918033,-6.249237,0.1234511,-0.5931838,-0.3911411,0.44365,35.56804,6.567036,1008.077
21.103840351,-13.47538,2.263742,0.1767001,0.1015377,-1.174896,-0.5706268,0.08122993,35.199,6.124763,1008.077
21.138902664,20.11862,-0.4723809,0.6662952,0.04707604,-0.9373214,-0.6003028,-0.2822115,35.20115,6.954372,1008.077
21.171456814,54.26635,3.988689,-7.840421,0.0110193,-0.8954201,-0.4072447,-0.2822115,35.20115,6.954372,1008.077
21.204014301,59.55772,2.382704,-2.88327,0.05927127,-0.7984345,-0.3284713,-0.2885025,35.19118,5.233809,1008.077
21.239076138,24.97929,-0.5913427,-2.087677,0.09876024,-0.8407546,-0.3141704,-1.032018,35.54196,3.895359,1008.077
21.271634102,9.905058,0.7767189,-1.965279,0.08769103,-0.9926928,-0.386084,-1.032018,35.54196,3.895359,1008.079
21.304192066,2.706346,1.014643,-1.108487,0.05520448,-0.9734513,-0.4350636,-0.6669459,35.54239,3.511824,1008.079
21.339254379,6.890213,4.761942,-3.005668,0.04651965,-0.92906,-0.3894239,-0.668577,35.5398,3.065751,1008.081
21.371808052,-2.338906,-0.7103046,1.461887,0.0867247,-0.9124519,-0.3993602,-0.668577,35.5398,3.065751,1008.081
21.404366016,3.075511,0.1819095,-0.8636897,0.09545856,-0.8984879,-0.3459841,-0.674258,35.90361,3.06314,1008.083
21.436923981,1.414269,0.1819095,-1.047288,0.08134258,-0.9461876,-0.3708671,-0.6718388,35.53464,2.173608,1008.085
21.471986294,0.8605222,0.657757,-1.292085,0.06379409,-0.9454313,-0.3737389,-0.6718388,35.53464,2.173608,1008.085
21.504543305,-3.69251,0.598276,-0.9860885,0.07438163,-0.9345993,-0.3740672,-1.036678,35.53458,2.620869,1008.087
21.537101269,-4.061674,0.4198332,-0.6188921,0.08285525,-0.913026,-0.3911479,-0.2964246,35.17864,3.067173,1008.087
21.572159767,-2.277378,-0.1154952,-0.2516957,0.08921085,-0.9144165,-0.3877915,-0.2964246,35.17864,3.067173,1008.085
21.604717255,-4.861531,0.1224285,-0.2516957,0.0796771,-0.9353695,-0.4030867,-0.6612644,35.17858,3.514435,1008.085
21.637275219,-3.630982,0.1819095,-0.2516957,0.07036623,-0.9277727,-0.390394,-1.040729,35.90097,3.064329,1008.087
21.672337532,-1.108356,0.4793141,-0.4352939,0.07570406,-0.9252909,-0.3864943,-1.040729,35.90097,3.064329,1008.087
21.704895497,4.982862,0.003466659,0.1155007,0.08016466,-0.9315593,-0.3846607,-1.027735,35.17593,3.515623,1008.087
21.737453461,5.536609,-0.353419,0.1155007,0.08214822,-0.9335017,-0.3793751,-1.027968,35.17556,3.451899,1008.085
21.772511006,3.013983,0.003466659,-0.1904963,0.07666977,-0.9219339,-0.3738762,-1.027968,35.17556,3.451899,1008.085
21.805068970,-3.569455,0.2413904,-0.3740945,0.07761832,-0.9204481,-0.3772381,-0.6702077,35.53722,2.619679,1008.085
21.837626934,-3.938619,0.003466659,-0.06809749,0.08292042,-0.9174255,-0.3854145,-0.3037369,35.53987,2.618491,1008.085
21.870184422,0.1837202,-0.05601428,-0.1292969,0.07616846,-0.923341,-0.386465,-0.3037369,35.53987,2.618491,1008.085
21.905247211,2.398709,-0.05601428,0.1767001,0.07863618,-0.9257475,-0.3845706,-1.048041,36.2622,2.615646,1008.087
21.937804699,1.537324,0.1224285,0.1155007,0.08015286,-0.9282085,-0.3734919,-0.6728599,35.90583,3.445488,1008.087
21.970358849,-0.6776642,0.2413904,-0.3128951,0.0767708,-0.9297283,-0.3696448,-0.6728599,35.90583,3.445488,1008.087
22.005420685,-0.9237741,0.1819095,-0.8024903,0.08205276,-0.9247664,-0.3768249,-1.033416,35.53975,3.513012,1008.087
22.037978172,-1.354466,0.1224285,-0.6188921,0.07860272,-0.9223571,-0.382102,-0.6702077,35.53722,2.619679,1008.087
22.070536137,-1.846686,-0.1154952,0.1767001,0.08444005,-0.92227,-0.3845231,-0.6702077,35.53722,2.619679,1008.087
22.105598450,-0.8622466,-0.05601428,-0.006898092,0.08304287,-0.9285882,-0.3884852,-1.035047,35.53716,3.06694,1008.087
22.138156414,1.045105,-0.1154952,0.2990989,0.0806504,-0.9315508,-0.3851444,-0.6671789,35.54202,3.448099,1008.089
22.170710087,1.475797,-0.1154952,0.05430131,0.08206163,-0.9257338,-0.3778064,-0.6671789,35.54202,3.448099,1008.089
22.205772877,-0.00086217,0.0629476,0.1767001,0.07871586,-0.9316004,-0.3798262,0.0586834,35.90891,3.060762,1008.089
22.238330364,0.5528849,0.0629476,-0.006898092,0.08013444,-0.9286505,-0.3831662,-0.3077872,35.90626,3.061952,1008.089
22.270888329,0.5528849,-0.1749762,-0.06809749,0.07913117,-0.9262315,-0.3836117,-0.3077872,35.90626,3.061952,1008.089
22.303445339,-0.6161367,0.1224285,-0.4352939,0.07672748,-0.9296492,-0.3870451,-0.668577,35.5398,3.065751,1008.091
22.338508129,0.4913574,0.3603523,-0.8024903,0.08440508,-0.9207792,-0.391751,-0.6645262,35.17341,2.622291,1008.093
22.371061802,0.3067751,0.003466659,0.1155007,0.07848877,-0.9126368,-0.3824369,-0.6645262,35.17341,2.622291,1008.091
22.403619289,-0.3700269,-0.1154952,0.1155007,0.0811018,-0.9262478,-0.3744297,-0.3134685,36.27007,3.05934,1008.091
22.438682079,0.1837202,-0.2344571,0.1767001,0.0918263,-0.928032,-0.3788176,-1.036678,35.53458,2.620869,1008.093
22.471239567,1.660379,-0.5913427,0.788694,0.07671043,-0.9253375,-0.3734448,-1.036678,35.53458,2.620869,1008.093
22.503797531,1.783434,-0.5318618,0.9722923,0.07723945,-0.9330178,-0.3928975,-1.035047,35.53716,3.06694,1008.095
22.538859367,0.4913574,-0.353419,0.2378995,0.07292492,-0.937004,-0.38377,-1.036678,35.53458,2.620869,1008.09
22.571413040,-0.9237741,0.3603523,-0.5576927,0.07378922,-0.9263276,-0.3778075,-1.036678,35.53458,2.620869,1008.095
22.603971005,-1.292939,0.598276,-0.9860885,0.07327814,-0.9248631,-0.3806849,-0.6799393,36.26742,3.060529,1008.095
22.639033318,-0.6776642,0.7767189,-1.292085,0.08154523,-0.9218815,-0.3714632,-0.6702077,35.53722,2.619679,1008.09
22.671591282,-2.154323,0.657757,-1.047288,0.08250753,-0.9227988,-0.3806623,-0.6702077,35.53722,2.619679,1008.092
22.704149246,-1.169884,0.7172379,-0.6188921,0.08692309,-0.926607,-0.3855585,-0.6702077,35.53722,2.619679,1008.09
22.739211083,-0.246972,-0.05601428,0.2378995,0.08647517,-0.9290627,-0.3812451,-0.309418,35.90368,2.61588,1008.095
22.771764755,-0.00086217,-0.293938,0.6050959,0.07812795,-0.9252394,-0.3908463,-0.309418,35.90368,2.61588,1008.095
22.804322720,1.106632,-0.2344571,-0.006898092,0.07808729,-0.9218358,-0.3912776,-1.395836,35.1707,3.07074,1008.093
22.836880207,1.906489,0.003466659,-0.5576927,0.07374583,-0.9248216,-0.3884187,-0.674258,35.90361,3.06314,1008.093
22.871942997,3.444675,1.49049,-2.760871,0.07673997,-0.9306232,-0.3865766,-0.674258,35.90361,3.06314,1008.093
22.904500484,8.612982,1.312047,-1.598082,0.06543877,-0.9220229,-0.3864345,-0.668577,35.5398,3.065751,1008.093
22.937058449,11.01255,1.193085,-1.108487,0.08810348,-0.9426666,-0.3775872,-1.032628,35.16818,2.177407,1008.093
22.972116947,13.96587,1.609452,-1.475684,0.1006427,-0.9284871,-0.3604648,-1.032628,35.16818,2.177407,1008.093
23.004674912,11.62783,1.252566,-0.3740945,0.1060414,-0.9251653,-0.3275497,-0.6718388,35.53464,2.173608,1008.093
23.037231922,3.875368,-1.06719,3.175471,0.08612382,-0.9297922,-0.3290512,-1.410461,35.89315,2.173374,1008.093
23.072294235,0.3067751,-1.186152,2.869474,0.08223589,-0.938418,-0.3668824,-1.410461,35.89315,2.173374,1008.095
23.104852200,1.291214,-0.5913427,1.890283,0.08325804,-0.9413471,-0.3611276,-1.04399,35.8958,2.172186,1008.095
23.137410164,6.090356,-0.293938,1.461887,0.07688064,-0.937063,-0.3596059,-1.047252,35.89064,1.280042,1008.095
23.172468662,15.75017,1.371528,1.645486,0.08172736,-0.9398118,-0.3823712,-1.045621,35.89322,1.726113,1008.095
23.205026150,23.62568,4.226614,1.278289,0.06745221,-0.9634402,-0.3575824,-1.045621,35.89322,1.726113,1008.095
23.237584114,18.45738,3.512842,0.2990989,0.07467508,-0.9489281,-0.3220814,-1.043202,35.52425,0.8365803,1008.095
23.270142078,15.19642,4.821423,-0.8024903,0.07717109,-0.9475814,-0.2906438,-1.043202,35.52425,0.8365803,1008.095
23.305203438,10.82797,3.810247,-0.06809749,0.08436669,-0.9415805,-0.306994,-1.0446,35.52203,0.4542332,1008.095
23.337761402,10.02811,3.631804,0.7274947,0.08554911,-0.9581195,-0.3004802,-1.046231,35.51945,0.008161545,1008.095
23.370315075,10.82797,3.036994,1.278289,0.0904717,-0.9624336,-0.299584,-0.6887038,35.88073,-0.8877831,1008.095
23.405377865,5.905774,0.2413904,2.135081,0.08855786,-0.9591917,-0.2700467,-0.6887038,35.88073,-0.8877831,1008.095
23.437935352,5.228972,-0.8292665,2.991873,0.08314694,-0.9596376,-0.2942171,-0.6903348,35.87815,-1.333855,1008.095
23.470493317,8.736036,-0.2344571,3.23667,0.07793143,-0.9704282,-0.2876094,-0.3108704,35.15576,-0.883749,1008.095
23.505555153,10.2127,0.0629476,2.930673,0.07482765,-0.952536,-0.2766992,-0.3108704,35.15576,-0.883749,1008.095
23.538113117,3.013983,-0.5318618,3.23667,0.08692016,-0.9422414,-0.2615691,-1.058436,35.87292,-1.778737,1008.095
23.570666790,-2.46196,-2.435252,3.909863,0.08261917,-0.9443498,-0.2379117,-0.6846538,35.51434,-1.331244,1008.095
23.605729103,-1.415994,-2.435252,4.644256,0.06577478,-0.964435,-0.251253,-0.6846538,35.51434,-1.331244,1008.095
23.638287068,0.6759399,-2.078366,3.053072,0.06628019,-0.9730233,-0.2847375,-0.3295453,36.24461,-1.337654,1008.095
23.670845032,6.151884,-2.97058,1.584286,0.04730153,-0.9761468,-0.2934676,0.04828787,35.51964,-1.333621,1008.095
23.703402519,-4.676949,1.312047,-0.006898092,0.04877901,-0.9718777,-0.2663349,0.04828787,35.51964,-1.333621,1008.095
23.738465309,-8.06096,3.334399,-2.271276,0.07071783,-0.9687865,-0.24214,0.7739167,35.88616,-1.784681,1008.097
23.771018982,0.5528849,1.847376,-2.332475,0.06328679,-0.9572352,-0.238573,0.04665685,35.51706,-1.779693,1008.097
23.803575993,-3.630982,1.074124,-2.699672,0.07157061,-0.9604671,-0.2521648,0.04665685,35.51706,-1.779693,1008.097
23.838638782,-7.876377,1.668933,-3.495264,0.07399749,-0.9642259,-0.2734931,0.04260659,35.88345,-1.336232,1008.095
23.871196270,-1.292939,1.549971,-2.210076,0.08035052,-0.9703679,-0.2938948,-0.319814,35.51441,-1.778503,1008.095
23.903754234,3.629258,1.549971,-0.06809749,0.07701513,-0.9753022,-0.2871995,-0.319814,35.51441,-1.778503,1008.095
23.938816547,0.6759399,2.680109,0.05430131,0.06914996,-0.9610001,-0.248787,-0.325495,35.87822,-1.781115,1008.095
23.971370697,-4.923059,2.561147,1.890283,0.05613174,-0.9728224,-0.2513717,-0.321445,35.51183,-2.224576,1008.095
24.003928185,-29.2264,-8.740231,2.441078,0.02158672,-0.9804586,-0.2741735,-0.321445,35.51183,-2.224576,1008.095
24.038990021,-61.34374,-22.2424,2.869474,0.07633007,-0.9668612,-0.3281571,-0.3181829,35.51699,-1.332432,1008.095
24.071547985,-103.7977,-21.88552,1.339489,0.09529682,-0.9228688,-0.3289544,0.05318069,35.52739,0.004594803,1008.095
24.104105949,-136.3457,-19.92265,-0.006898092,0.09949888,-0.9148723,-0.3650897,0.05318069,35.52739,0.004594803,1008.095
24.139168263,-122.2559,-10.64362,1.400688,0.1071646,-0.8908166,-0.5020092,0.4265521,35.91377,3.441922,1008.095
24.171721935,-101.6442,-9.751407,3.297869,0.07038463,-0.8295211,-0.5131229,-0.2805805,35.20373,7.400444,1008.095
24.204279900,-50.9456,-0.293938,5.990643,-5.156349E-05,-0.7737911,-0.5721434,-0.2805805,35.20373,7.400444,1008.099
24.236837864,-16.55175,6.843775,10.091,0.03972679,-0.6983789,-0.4762895,-0.6285553,34.85757,10.9091,1008.099
24.271899223,7.136323,17.13398,5.745845,0.04010551,-0.9604354,-0.7732142,0.1190107,34.14041,11.80408,1008.099
24.304457188,14.08893,-3.149023,-1.047288,0.08417293,-0.7893083,-0.6585025,0.1190107,34.14041,11.80408,1008.099
24.337015152,80.66164,11.84017,2.19628,0.006019358,-0.8991057,-0.6779872,0.1271112,33.40762,10.91716,1008.099
24.372073650,152.8333,9.579899,4.338259,-0.06029945,-0.8883821,-0.6613247,0.1181679,33.76627,10.02241,1008.093
24.404631138,48.79041,-30.15337,7.031033,-0.1780699,-0.7042487,-0.3451737,0.1181679,33.76627,10.02241,1008.093
24.437189102,-47.19242,-5.766184,6.357839,0.09614217,-0.9692314,-0.6032538,0.455801,34.46886,5.236652,1008.093
24.472251415,-40.85509,14.45734,14.98695,0.1172448,-0.7565166,-0.7203897,0.4363382,35.92927,6.118353,1008.091
24.504808903,-40.54746,16.1228,10.5806,0.04198657,-0.8885262,-0.6570752,0.4363382,35.92927,6.118353,1008.091
24.537550449,-14.21371,23.43896,12.17178,0.1463397,-0.8751256,-0.7391455,1.550141,35.21438,6.948429,1008.091
24.572608948,-7.814849,31.17148,20.9233,0.0615115,-0.6124161,-0.7191042,1.553403,35.21955,7.840572,1008.091
24.605166912,-48.42297,40.09362,25.45205,0.05893762,-0.6297914,-0.8590627,1.553403,35.21955,7.840572,1008.09
24.637724877,-34.39471,39.02296,24.65646,0.03333554,-0.7221863,-0.8145269,1.916612,35.21703,6.947239,1008.092
24.670282364,-2.277378,43.00819,35.97834,-0.02687152,-0.7389867,-0.8195588,2.293657,34.86361,8.286879,1008.092
24.705345154,5.413554,37.95231,42.22068,-0.05934617,-0.6565661,-0.7617149,2.293657,34.86361,8.286879,1008.088
24.737902165,19.31876,49.61057,48.89142,-0.01497456,-0.6884389,-0.8922724,3.077102,35.22541,6.943476,1008.086
24.770455837,34.39299,51.51396,58.86692,-0.1137541,-0.5325949,-0.7124001,5.639368,35.23914,6.106735,1008.086
24.805518150,36.23881,56.51036,62.11049,-0.2193146,-0.580246,-0.6898232,5.639368,35.23914,6.106735,1008.084
24.838076115,31.07051,50.32434,63.94647,-0.2430974,-0.5635765,-0.5769191,7.829248,35.61367,5.204845,1008.084
24.870634079,23.19499,40.39103,62.60008,-0.2700072,-0.5427099,-0.3281191,10.37992,36.35465,4.29916,1008.084
24.905696392,-6.645827,35.69203,64.31367,-0.3022603,-0.5419124,-0.1695282,10.37992,36.35465,4.29916,1008.084
24.938254356,-50.76101,20.46491,63.27328,-0.3212054,-0.658071,0.09505856,14.40643,36.37638,3.011592,1008.084
24.970808029,-107.3047,6.843775,76.79835,-0.3254128,-0.8037632,0.2707225,17.70528,36.77398,4.718845,1008.084
25.005869865,-133.7,-2.078366,80.28671,-0.2651399,-1.120574,0.1082501,17.70528,36.77398,4.718845,1008.084
25.038427830,-85.83167,-27.77413,79.12392,-0.297014,-1.425004,0.1635752,19.92828,36.08253,8.221786,1008.084
25.070985317,-14.82898,-51.92339,57.27574,-0.2575749,-1.541848,0.001273356,21.81485,33.57197,12.18504,1008.089
25.103543282,57.46578,-71.13574,29.98081,-0.2633341,-1.495579,-0.1425449,21.81485,33.57197,12.18504,1008.09
25.138605595,97.02794,-78.86826,11.68219,-0.2634937,-1.311028,-0.3258292,24.39798,32.1275,10.84895,1008.09
25.171159744,135.9133,-77.61916,3.848664,-0.4895292,-1.060215,-0.5509051,25.84373,32.47902,6.890661,1008.092
25.203717232,14.21198,-110.5121,-15.18435,-0.7428038,-0.4066283,-1.036634,25.84373,32.47902,6.890661,1008.092
25.238779068,-119.0565,-126.5125,-29.74981,0.03373999,-0.6626887,-0.9639497,26.18946,32.44883,1.217987,1008.092
25.271337032,-26.58072,-48.11661,-8.330016,-0.8178588,-1.160499,-1.661951,25.07156,32.7844,-2.28591,1008.09
25.303894997,-71.68035,-18.67355,-18.48911,-0.5168954,-0.9411808,-0.6201192,25.07156,32.7844,-2.28591,1008.091
25.338957310,20.11862,-41.2763,-16.53074,-0.6587034,-1.104319,-0.6350389,24.3232,33.87313,-1.845293,1008.091
25.371510983,89.52159,-71.67107,-24.42546,-0.6406794,-0.3388845,-0.5745575,23.21569,34.59797,-0.9548054,1008.091
25.404068947,166.3079,-91.12134,1.584286,-0.4732241,-0.6685559,-0.3830144,22.47562,34.20857,-4.454667,1008.093
25.439131260,342.6456,-56.44394,53.90977,-0.3957841,-0.5331436,-0.3341357,22.47562,34.20857,-4.454667,1008.095
25.471688748,247.401,-11.6548,63.02848,-0.4210292,-0.658532,-0.3007377,21.35625,33.79624,-11.45819,1008.101
25.504246235,213.9916,28.79224,55.68455,-0.6712565,-0.3869181,-0.3611249,22.13197,29.39557,-18.37521,1008.101
25.571862698,-70.81896,33.49124,42.34308,-0.02088537,-0.8554742,-0.5182645,25.12236,25.03589,-20.96609,1008.097
25.604420662,156.7096,84.58536,58.74452,-0.4842887,-0.6684176,-0.1263285,26.24371,23.96015,-19.62361,1008.097
25.636978150,59.25008,93.26958,63.02848,-0.698469,-0.149317,-0.00074159,26.24371,23.96015,-19.62361,1008.097
25.672040939,-195.6582,47.29082,49.13622,-0.578604,-0.3197893,0.208261,28.83414,22.15446,-20.51102,1008.097
25.704598427,-278.2896,42.77026,58.25492,-0.5662487,-0.8325371,0.0312445,32.16956,20.74591,-16.56035,1008.098
25.737156391,-180.3994,18.85892,66.08846,-0.6539048,-0.8759986,-0.173319,32.16956,20.74591,-16.56035,1008.098
25.772213936,-129.4546,13.80305,73.55478,-0.5877477,-0.7800006,-0.1462993,34.37836,21.89603,-9.183271,1008.1
25.804771900,-83.73973,13.50564,75.32956,-0.6591207,-0.9898852,-0.2596424,36.23061,21.56796,-5.299406,1008.102
25.837329864,-1.415994,23.20103,69.45442,-0.7991394,-0.9802834,-0.3139823,36.23061,21.56796,-5.299406,1008.106
25.872392178,62.63409,29.26809,73.30998,-1.07119,-0.9005675,-0.4536496,37.37934,19.04435,-2.671987,1008.106
25.904950142,57.77342,17.19346,75.45196,-1.094806,-0.5474931,-0.4641916,38.15774,16.13916,-2.653476,1008.106
25.937508106,-33.77944,6.903256,60.4581,-1.109833,-0.4533344,-0.585035,38.15774,16.13916,-2.653476,1008.108
25.972565651,-36.17901,-4.755008,48.15702,-0.9752203,-0.4705257,-0.5868772,39.66502,13.60566,-2.193881,1008.109
26.005123615,-32.61042,13.44616,39.83391,-0.8390179,-0.4518421,-0.5644884,40.08262,10.33401,-2.17157,1008.109
26.037681103,-22.70449,21.17868,34.38716,-0.7758651,-0.4635289,-0.4859372,40.08262,10.33401,-2.17157,1008.111
26.070239067,-0.5546093,32.30162,33.95877,-0.7800968,-0.3759842,-0.4053237,40.11429,8.520121,-1.26637,1008.111
26.105301380,10.95103,33.07487,28.08363,-0.8608108,-0.3763038,-0.353046,40.50512,7.070107,-0.8110428,1008.109
26.137859345,8.366872,32.77747,21.53529,-0.9207987,-0.4068217,-0.3336352,40.50512,7.070107,-0.8110428,1008.11
26.170413017,14.21198,26.17508,15.47655,-0.9669576,-0.4199751,-0.3521596,40.52682,5.986054,0.471282,1008.112
26.205475807,2.398709,17.0745,8.132621,-0.9367769,-0.4214657,-0.3652627,40.91522,4.905018,1.816143,1008.112
26.238032818,-3.69251,15.05215,5.807045,-0.8340682,-0.4357543,-0.4550045,40.91522,4.905018,1.816143,1008.112
26.270590782,-7.138047,4.761942,2.991873,-0.792309,-0.4154926,-0.4092983,40.92659,4.177396,1.821365,1008.116
26.305653095,-23.75046,23.73636,0.9722923,-0.7402475,-0.4081342,-0.5943696,40.92822,4.17998,2.267438,1008.118
26.338211060,4.490642,26.29404,16.63934,-0.8376222,-0.2213653,-0.6895517,40.92822,4.17998,2.267438,1008.118
26.370764732,25.77914,32.48006,35.97834,-0.9776006,-0.003320615,-0.7310441,40.56501,4.182498,3.160769,1008.118
26.405827046,5.413554,24.21221,39.46671,-0.9149249,0.0182058,-0.6896891,41.68855,2.737409,3.549996,1008.118
26.438385010,21.71833,38.36868,48.83022,-0.8263309,0.05598241,-0.7269017,41.68855,2.737409,3.549996,1008.118
26.470942974,24.17943,29.74393,63.70167,-0.9712679,0.1098422,-0.5896278,41.34238,1.648497,4.45116,1008.116
26.503500462,10.82797,15.29007,65.96606,-0.9414001,0.1061247,-0.541859,41.37163,0.2035861,6.245893,1008.114
26.538562298,26.76358,5.118828,72.51439,-0.827595,0.08651894,-0.5002142,41.37163,0.2035861,6.245893,1008.114
26.571116448,23.25652,3.810247,77.41034,-0.7893285,0.09214558,-0.5586539,41.04087,-1.979342,6.708822,1008.114
26.603673935,53.58955,-4.636046,85.48866,-0.8398491,0.07461684,-0.5893253,39.99236,-5.261948,6.672163,1008.114
26.638736725,87.92188,-3.446428,88.24264,-0.8671384,0.0500425,-0.7134183,39.99236,-5.261948,6.672163,1008.112
26.671294212,110.1333,-1.245633,86.89625,-0.7474167,0.1357982,-0.7383279,39.30745,-8.23578,7.141937,1008.112
26.703852177,114.7478,6.843775,86.40665,-0.7403219,0.2431778,-0.711561,38.98969,-11.14375,8.056158,1008.112
26.738914013,126.9918,18.38308,79.79712,-0.7597441,0.1511402,-0.7274477,38.98969,-11.14375,8.056158,1008.112
26.771467686,128.0378,24.74754,73.98318,-0.6998464,0.1353239,-0.6054524,37.19632,-13.3321,9.415985,1008.112
26.804025650,132.0986,37.00061,69.14842,-0.7750158,0.1808089,-0.4572561,35.76676,-15.14919,11.60043,1008.11
26.839087963,116.286,34.79982,60.27451,-0.8332823,0.1641027,-0.2650707,35.76676,-15.14919,11.60043,1008.11
26.871645927,100.5965,34.38345,56.11295,-0.908705,0.1549906,-0.08193713,34.34615,-17.32493,14.67963,1008.109
26.904203415,63.98769,36.34632,52.44098,-0.9661428,0.03356296,-0.04989785,33.27334,-18.40917,17.30374,1008.109
26.939265251,32.54716,35.39463,50.3602,-1.065562,-0.0915506,-0.07539614,33.27334,-18.40917,17.30374,1008.109
26.971819401,2.091071,30.57667,46.93304,-1.019074,-0.2068264,-0.1356883,32.20154,-19.86461,18.65596,1008.107
27.004376888,-17.7823,26.17508,40.7519,-0.964007,-0.3325324,-0.1226746,30.035,-21.3206,21.28625,1008.107
27.036934853,-37.22498,10.88848,33.77517,-1.100426,-0.493758,-0.1153351,30.035,-21.3206,21.28625,1008.107
27.071997166,-0.6776642,-29.20168,34.93796,-1.061168,-0.6130691,-0.1640808,28.62025,-24.60548,21.3145,1008.107
27.104555130,43.74516,-40.20565,35.36635,-0.9650381,-0.5984505,-0.217122,28.29192,-27.15739,20.8879,1008.107
27.137113094,71.8632,-39.67032,52.25739,-0.9322911,-0.3583964,-0.2217086,28.29192,-27.15739,20.8879,1008.109
27.172171593,203.1628,-136.9216,90.87421,-1.341296,-0.4834697,-0.182135,28.32437,-29.34284,20.45749,1008.109
27.204729080,-141.4525,106.5338,47.78983,-0.4347465,-1.010512,-2.015315,27.602,-29.70419,21.8007,1008.11
27.237287045,116.9013,-1.840443,27.47163,-0.8678219,-0.3087237,-0.9088582,27.602,-29.70419,21.8007,1008.11
27.272348881,-26.64225,24.45013,42.15948,-1.256427,0.4915273,-0.2693345,27.21747,-28.24422,23.06593,1008.11
27.304906845,-77.03324,15.58747,29.91961,-0.8724579,0.1944358,-0.2080151,26.11159,-27.51679,24.40249,1008.11
27.337464333,-72.41868,20.1675,26.79844,-0.6780025,-0.04186668,-0.4820155,26.11159,-27.51679,24.40249,1008.114
27.372522831,-17.29008,27.18625,29.49121,-0.647486,0.02387523,-0.6357226,25.03266,-29.35633,22.25248,1008.114
27.405080795,-7.199574,19.69166,17.43493,-0.7510168,0.3076332,-0.5955236,23.58787,-30.82474,21.82161,1008.112
27.437638760,-28.98029,12.43498,2.012682,-0.8241729,0.3277612,-0.741609,22.1374,-31.92934,21.38812,1008.112
27.470196247,-9.229981,2.858552,-8.452415,-0.8874049,0.2721667,-0.7742991,22.1374,-31.92934,21.38812,1008.112
27.505258083,22.7643,-8.323864,-18.79511,-0.8702753,0.1952927,-0.7073323,21.40851,-32.30103,20.94704,1008.11
27.537816048,12.61227,-18.43563,-23.56866,-0.8193207,0.188724,-0.6137066,22.51118,-32.28792,21.83562,1008.11
27.570369721,-20.9202,-27.71465,-28.70942,-0.798574,0.1029525,-0.5038585,22.51118,-32.28792,21.83562,1008.11
27.605432511,-17.16702,-24.20528,-27.60783,-0.7770209,-0.05378657,-0.6019792,22.87034,-31.92405,21.38575,1008.11
27.637989998,32.8548,-19.1494,-20.1415,-0.8030546,0.01186799,-0.5792005,23.96081,-31.55746,20.48743,1008.11
27.670547962,46.45237,-12.84442,-16.22474,-0.8038594,0.08467964,-0.561654,23.96081,-31.55746,20.48743,1008.11
27.705609799,34.8852,-15.81846,-18.12192,-0.8718184,0.03542,-0.5053015,24.6897,-31.18577,20.92851,1008.112
27.738167286,33.03938,-25.57334,-21.61028,-0.8868342,-0.01765939,-0.5254319,25.78101,-30.44505,21.81186,1008.114
27.770721436,39.06907,-33.72223,-23.07907,-0.691889,-0.001688108,-0.5925657,25.78101,-30.44505,21.81186,1008.114
27.805783749,38.08463,-15.04521,-22.89547,-0.8415239,0.07076374,-0.4956074,26.86338,-29.34568,21.80046,1008.114
27.838341713,4.675225,-16.53224,-23.07907,-1.118454,-0.09126326,-0.3948528,27.94473,-27.87511,23.06094,1008.114
27.870899200,22.45666,-19.56576,-12.79757,-0.9286836,-0.2846861,-0.3878359,27.94473,-27.87511,23.06094,1008.114
27.903457165,53.15886,-0.1749762,4.032262,-0.7326878,-0.2464886,-0.3173528,28.66328,-27.147,22.22493,1008.116
27.938519001,14.58114,6.903256,14.49736,-0.7842489,-0.05348971,-0.3689801,29.38057,-26.04806,22.59706,1008.117
27.971072674,-33.53333,6.962737,18.65892,-0.7832076,0.04278259,-0.4811059,29.38057,-26.04806,22.59706,1008.117
28.003630638,-48.91519,10.76952,17.61853,-0.9289646,-0.02434601,-0.4587873,29.01168,-25.68172,23.48779,1008.119
28.038692951,-51.56087,6.011042,21.29049,-0.9335313,-0.1731871,-0.4455856,28.29844,-27.14706,22.67218,1008.119
28.071250916,-23.62741,8.925608,26.92084,-0.8464096,-0.1258959,-0.4420479,28.29844,-27.14706,22.67218,1008.121
28.103808880,-21.04325,19.51321,28.69562,-0.8376102,-0.01947398,-0.5197065,27.58091,-28.24637,22.23632,1008.121
28.138871193,-12.73705,14.81422,28.45082,-0.9019326,0.05956327,-0.5566254,26.8577,-28.98187,21.79785,1008.122
28.171424866,-7.199574,6.367927,22.39208,-0.8352479,0.08140881,-0.4674152,26.8577,-28.98187,21.79785,1008.122
28.203982830,0.7989948,0.8361998,16.76174,-0.79967,0.1326508,-0.4120462,25.76802,-29.72001,21.36057,1008.124
28.239044666,-6.707355,-5.647223,13.27337,-0.7384421,0.1750056,-0.4655973,25.40397,-30.09163,20.47223,1008.126
28.271602631,-18.76674,-2.673176,9.846204,-0.726065,0.1823471,-0.5476713,25.40397,-30.09163,20.47223,1008.126
28.304160118,-23.01213,5.356751,8.561017,-0.8426471,0.1432057,-0.6105115,23.95108,-30.82726,20.92828,1008.126
28.339222908,-11.01428,5.713637,4.766655,-0.9341668,0.05979491,-0.5928441,24.31997,-31.19359,20.03755,1008.126
28.371776581,9.782003,2.799071,1.706685,-0.9052278,0.05360439,-0.5383448,24.31997,-31.19359,20.03755,1008.126
28.404334545,14.82725,2.977514,-2.332475,-0.942285,0.06367556,-0.508186,23.95755,-31.56263,19.59528,1008.124
28.436892033,17.71905,-4.517085,-6.494034,-0.8921446,0.06245407,-0.5232378,24.6897,-31.18577,20.92851,1008.122
28.471953869,17.59599,-5.706703,-8.391216,-0.8498694,0.10687,-0.5501534,24.6897,-31.18577,20.92851,1008.122
28.504511833,8.305345,-6.420475,-8.513615,-0.8353153,0.117623,-0.5219675,23.95839,-31.18849,21.37696,1008.122
28.537069798,1.475797,-6.598917,-9.9824,-0.8283774,0.07426622,-0.4800986,24.67671,-30.46074,20.47721,1008.122
28.572127819,1.721907,-5.230856,-8.330016,-0.8470039,0.04291379,-0.4791088,24.67671,-30.46074,20.47721,1008.122
28.604685784,-0.4315544,-2.792138,-5.88204,-0.861658,0.04566073,-0.4838865,25.41859,-30.81409,21.36959,1008.122
28.637243748,-0.4315544,-1.364595,-2.454874,-0.8790725,0.03761145,-0.4738416,25.04076,-30.08912,21.36556,1008.122
28.672305584,-8.860816,0.598276,1.094691,-0.8699583,0.005697493,-0.4835215,25.04076,-30.08912,21.36556,1008.122
28.704863072,-8.799289,0.7767189,3.603867,-0.8758783,0.01527355,-0.4688683,25.77938,-30.44763,21.36579,1008.122
28.737421036,-5.845971,2.025819,5.439848,-0.8536954,0.03118066,-0.4831484,25.40397,-30.09163,20.47223,1008.116
28.772479534,-2.46196,2.73959,6.663836,-0.8302904,0.06799433,-0.4956605,25.40397,-30.09163,20.47223,1008.118
28.805037498,-3.630982,2.977514,6.23544,-0.8607599,0.0895127,-0.5054536,25.05454,-31.18571,20.48125,1008.116
28.837594986,-5.845971,-0.1749762,2.25748,-0.9098869,0.08306464,-0.5108218,24.67671,-30.46074,20.47721,1008.116
28.870152950,3.075511,-6.598917,-1.904079,-0.8542894,0.07364376,-0.5240704,24.67671,-30.46074,20.47721,1008.116
28.905214787,19.44182,-3.922275,-1.720481,-0.8155405,0.1215594,-0.5823487,24.69375,-31.55217,20.48505,1008.116
28.937772751,19.87251,-9.156597,-5.025249,-0.8436331,0.1175875,-0.5379115,25.40965,-30.45544,20.47484,1008.116
28.970326424,16.30392,-12.42805,-8.636014,-0.8713974,0.08400384,-0.5002103,25.40965,-30.45544,20.47484,1008.116
29.005388737,9.658948,-13.91507,-10.472,-0.894428,0.06024354,-0.471548,25.40397,-30.09163,20.47223,1008.116
29.037946701,-1.662103,-14.09352,-10.59439,-0.8798336,0.02484423,-0.4474499,25.04481,-30.45551,20.9221,1008.116
29.070504665,-5.722916,-11.17895,-8.391216,-0.8456694,-0.01712798,-0.4181539,25.04481,-30.45551,20.9221,1008.116
29.105566978,-7.322629,-5.825665,-3.495264,-0.8459418,-0.03227004,-0.4024332,26.13123,-29.72253,20.46724,1008.115
29.138124943,2.460236,-1.662,1.094691,-0.8717189,0.001525496,-0.4265449,26.4977,-29.71988,20.46605,1008.115
29.170678139,8.120762,1.549971,3.542667,-0.8879945,0.05062549,-0.475568,26.4977,-29.71988,20.46605,1008.115
29.205740452,-10.399,-2.851619,2.073882,-0.9011924,0.05672911,-0.4662779,26.86822,-30.08363,20.0214,1008.115
29.238298416,-22.51991,-5.885146,-0.3128951,-0.8781435,0.04484026,-0.4577808,26.49039,-29.35865,20.01736,1008.116
29.270855904,-14.6444,-5.111894,-2.454874,-0.8781812,0.04443347,-0.4751885,26.49039,-29.35865,20.01736,1008.116
29.303413868,-2.892653,-5.171375,-5.637243,-0.8725098,0.06004337,-0.4715722,26.1152,-29.00229,19.18752,1008.116
29.338476181,6.951741,-5.052413,-10.166,-0.9013601,0.06559634,-0.4927282,26.49872,-30.09107,19.19417,1008.116
29.371030331,6.459521,-7.788536,-14.75595,-0.9152968,0.05223332,-0.4798675,26.49304,-29.72726,19.19156,1008.116
29.403587341,-0.9237741,-9.513483,-20.0803,-0.9312719,0.04899843,-0.4557326,26.49304,-29.72726,19.19156,1008.116
29.438649654,4.79828,-9.513483,-27.30183,-0.9994663,0.008254173,-0.4553216,27.59385,-29.71711,19.57034,1008.118
29.471207619,9.535893,-12.30909,-37.64453,-1.116486,-0.07135562,-0.4912263,27.95161,-29.35545,18.73812,1008.12
29.503765583,22.70277,-32.65157,-64.75586,-1.233194,-0.3629039,-0.4124208,27.95161,-29.35545,18.73812,1008.12
29.538827896,67.3717,-58.94214,-84.70686,-1.340748,-0.5482013,-0.2667473,28.66485,-27.89011,19.55372,1008.121
29.571381569,148.0342,-64.83076,-89.48042,-1.4338,-0.636313,-0.500506,31.19466,-25.69094,19.14738,1008.121
29.603939533,220.0213,-60.42916,-65.12305,-1.394861,-0.03543416,-0.6373562,31.19466,-25.69094,19.14738,1008.121
29.639001370,143.9734,-27.65517,-62.91988,-1.182115,-0.06068692,-0.9912952,34.07022,-21.65788,20.82971,1008.121
29.671558857,92.96712,-1.483557,-76.68974,-0.9592067,-0.4298988,-0.8163603,35.08503,-15.81901,22.50493,1008.12
29.704116821,82.50745,41.1048,-76.56734,-1.044188,-0.4927356,-0.8153034,35.08503,-15.81901,22.50493,1008.118
29.739179135,60.60368,55.97503,-99.70071,-1.10861,-0.3602479,-0.6377541,35.73764,-10.3488,23.8016,1008.118
29.771733284,36.36187,84.58536,-100.1903,-1.186087,-0.2087118,-0.7301094,35.30266,-5.551311,25.48898,1008.116
29.804290771,-11.56802,70.84526,-93.51958,-1.126247,0.01215481,-0.5005771,35.30266,-5.551311,25.48898,1008.115
29.836848736,-50.14574,82.86041,-77.73013,-0.8013951,-0.1917602,-0.471132,34.51436,-1.170581,28.96487,1008.113
29.871910572,24.91776,107.426,-43.82567,-0.728476,-0.4494596,-0.5577914,32.30804,-0.07989979,31.57687,1008.113
29.904468536,145.327,119.3222,-32.44258,-0.6993986,-0.1348334,-0.5128991,32.30804,-0.07989979,31.57687,1008.113
29.937026024,120.4084,120.5713,-29.50501,-0.5417008,0.09489658,-0.4544416,29.02201,-0.4572001,33.37447,1008.111
29.972084522,82.44593,126.4005,-27.11823,-0.5739467,0.02629686,-0.4245209,25.31084,2.798009,34.63735,1008.108
30.004642487,45.77557,127.828,-25.95544,-0.4951302,-0.08082249,-0.3696761,25.31084,2.798009,34.63735,1008.106
30.037200451,33.77771,135.5011,-19.46831,-0.450727,-0.1830328,-0.423483,20.86634,5.67452,34.24838,1008.102
30.072262287,23.74874,135.8579,-18.06072,-0.5984802,-0.3032556,-0.2748444,15.70814,7.08496,32.91636,1008.102
30.104819775,34.76215,143.8284,-2.210076,-0.5484574,-0.4757361,-0.3567979,15.70814,7.08496,32.91636,1008.101
30.137377739,53.15886,153.9401,13.70177,-0.417498,-0.445019,-0.429929,10.92636,7.768211,31.20603,1008.097
30.172436237,36.54645,169.7026,38.85472,-0.3992833,-0.2275925,-0.310619,6.858625,9.545237,28.97569,1008.095
30.204994202,-55.74474,169.5242,57.52053,-0.5308853,-0.2674884,-0.1453024,6.858625,9.545237,28.97569,1008.092
30.237551689,-112.35,153.3453,78.45073,-0.660335,-0.6198766,-0.1897071,5.348314,12.07394,27.68768,1008.092
30.270109654,-114.1343,114.9801,92.2206,-0.6503446,-0.8838408,-0.1487899,3.132447,13.14949,27.68697,1008.09
30.305171490,-90.75386,74.71152,92.0982,-0.5545485,-1.074694,-0.1213413,3.132447,13.14949,27.68697,1008.087
30.337729454,-66.57357,38.30919,76.18636,-0.4812178,-1.265244,-0.1180353,1.997711,11.69067,28.5296,1008.085
30.370283127,-24.67337,-0.05601428,43.62827,-0.3858359,-1.503742,-0.08841296,2.382856,10.60447,28.98232,1008.082
30.405345440,92.35185,-31.58091,6.725036,-0.4371083,-1.45902,-0.1302183,2.382856,10.60447,28.98232,1008.083
30.437903404,127.1149,-40.50305,-30.5454,-0.3532124,-1.285927,-0.6497055,3.915498,10.25168,28.97998,1008.083
30.470461369,147.9111,13.44616,-22.65067,-0.5033194,-0.9786915,-1.623711,4.985894,11.7049,27.2454,1008.083
30.505522728,52.72817,-18.55459,-30.1782,-0.7867813,-1.021,-0.8332788,4.985894,11.7049,27.2454,1008.083
30.538087368,12.61227,-40.08669,-22.03868,-0.478765,-0.625008,-0.2503828,5.650839,15.33059,24.15814,1008.083
30.570640564,-6.522773,-45.85633,-19.34591,-0.2436846,-0.471551,0.02145581,5.992165,17.15746,25.03604,1008.086
30.605702877,-0.3084995,-19.62524,-24.60905,-0.3452716,-0.9465361,-0.7663462,5.992165,17.15746,25.03604,1008.086
30.638260842,65.46436,-53.88626,-32.38138,-0.257018,-0.9018435,-0.5105266,5.983222,17.5161,24.14128,1008.086
30.670818806,62.4495,-50.19844,-27.54663,-0.1778169,-0.7180835,-0.5073162,7.447474,17.52411,23.69046,1008.086
30.703376293,99.36598,-36.33939,-21.73268,-0.2147732,-0.6228085,-0.8282393,7.447474,17.52411,23.69046,1008.088
30.738439083,74.3243,-41.21682,-20.99829,-0.4167134,-0.4965024,-0.7536108,7.059066,18.60514,22.34559,1008.083
30.770992756,1.045105,-50.91222,-9.309207,-0.5698721,-0.5530846,-0.7204899,7.755679,20.41694,20.16352,1008.083
30.803549766,-26.21156,-67.44792,-2.699672,-0.6087979,-0.9682457,-0.490415,7.755679,20.41694,20.16352,1008.083
30.838612556,12.55074,-52.39924,8.622216,-0.4611802,-1.023419,-0.3333349,8.107525,21.14205,19.26497,1008.083
30.871170044,18.76501,-45.61841,0.4214977,-0.3008133,-1.106174,-0.2723967,9.579089,20.78882,19.26283,1008.083
30.903728008,50.75929,-35.26873,9.173011,-0.1321178,-0.8379356,-0.3134212,9.579089,20.78882,19.26283,1008.083
30.938790321,75.18569,-41.21682,0.6050959,-0.3053559,-0.5606574,-0.3302923,10.29601,21.51436,17.98074,1008.083
30.971344471,37.40783,-41.69267,12.53898,-0.4067999,-0.5550281,-0.3624948,11.3808,22.24475,17.07981,1008.083
31.003901958,-37.65567,-43.89346,17.80213,-0.45098,-1.067415,-0.3548012,11.3808,22.24475,17.07981,1008.083
31.038969994,67.24865,-28.90427,26.73724,-0.4899724,-1.183263,-0.3212445,12.09203,23.3341,15.7951,1008.083
31.071527481,45.65251,-32.59209,17.80213,-0.4773097,-0.9360054,0.06051623,12.82739,22.97042,14.90319,1008.083
31.104085445,5.167444,-28.72583,24.10567,-0.3214337,-1.073315,-0.1834175,12.82739,22.97042,14.90319,1008.083
31.139147759,52.66664,-25.15697,32.67358,-0.3273791,-0.9041089,-0.2161168,13.90813,24.06721,14.44572,1008.083
31.171701908,39.99199,-22.53981,37.56953,-0.4063855,-0.7419474,-0.08595506,15.00023,24.43637,13.99347,1008.085
31.204259396,17.41141,-17.00808,36.89634,-0.5160058,-0.7841175,-0.1043776,15.00023,24.43637,13.99347,1008.085
31.236817360,9.289783,-16.9486,31.87799,-0.6488798,-0.8819265,-0.1381278,15.36446,24.06266,11.82826,1008.085
31.271879196,2.952456,-13.97455,25.02365,-0.5666358,-0.8945001,-0.02383867,17.5576,24.44236,11.81851,1008.085
31.304437161,11.99699,-2.494733,20.8621,-0.4804835,-0.8082854,-0.03227403,17.5576,24.44236,11.81851,1008.085
31.336994648,4.736752,6.427408,18.78132,-0.4855087,-0.6204195,0.002016462,17.9338,23.7148,11.37648,1008.085
31.372053146,-36.17901,14.63578,13.33457,-0.5326595,-0.7584723,-0.02082942,18.67243,23.35628,11.37671,1008.089
31.404611111,-46.33104,24.33117,13.45697,-0.5821633,-0.8202432,-0.0454095,19.76942,23.7332,12.26268,1008.089
31.437169075,-48.85366,37.89283,11.00899,-0.6144754,-0.9761236,-0.0598409,19.76942,23.7332,12.26268,1008.089
31.472230911,-14.33676,57.46206,22.69808,-0.6253297,-0.8548903,-0.137738,19.06386,22.28004,13.54999,1008.089
31.504788399,-36.17901,65.55146,31.0824,-0.6137956,-0.7366183,-0.03588575,18.70229,22.28514,14.88939,1008.089
31.537346363,-103.9207,79.05363,41.66989,-0.5305614,-0.9008182,-0.2395559,18.70229,22.28514,14.88939,1008.089
31.572404862,-86.75458,86.13186,53.97097,-0.5477599,-0.7910568,-0.3775607,18.72562,21.20367,16.61779,1008.089
31.604962826,-78.32532,80.48117,64.19127,-0.5618411,-0.5509323,-0.2124358,18.04363,18.66942,19.69723,1008.089
31.637520313,-133.9461,100.0504,64.68087,-0.545008,-0.6144785,-0.4033886,18.04363,18.66942,19.69723,1008.089
31.670078278,-133.7616,101.6564,61.1313,-0.6683009,-0.6125804,-0.4259594,17.7208,16.49903,22.32679,1008.089
31.705140114,-129.3316,97.96857,58.13253,-0.7311548,-0.6461471,-0.5980096,15.95505,12.86319,25.03527,1008.087
31.737698078,-111.6117,81.61131,59.54012,-0.5068631,-0.5155761,-0.6658403,15.95505,12.86319,25.03527,1008.089
31.770251751,-103.367,91.3067,44.48506,-0.4611286,-0.4484346,-0.7634689,13.83069,8.491545,26.7943,1008.087
31.805314064,-91.43066,74.94945,27.16563,-0.3996597,-0.5010557,-0.7720652,11.32282,5.208684,28.54668,1008.087
31.837872028,-67.43495,63.82651,-8.024019,-0.3365521,-0.7140974,-0.8744685,11.32282,5.208684,28.54668,1008.087
31.870429516,-11.0758,71.73747,-5.698442,-0.2983077,-0.4063849,-1.097965,9.544247,1.552546,27.75032,1008.083
31.905491352,-17.3516,57.40258,-39.60291,-0.2652904,-0.2955487,-1.009298,8.474873,-0.2718644,28.21302,1008.081
31.938049316,1.906489,52.76306,-58.14633,-0.2131012,-0.3031122,-1.013331,8.474873,-0.2718644,28.21302,1008.081
31.970602989,20.79542,53.11995,-60.10471,-0.3277061,-0.159393,-0.9902422,5.922339,-1.0158,28.60891,1008.081
32.005665779,-6.768882,39.91518,-56.67754,-0.2974616,-0.06123292,-0.9007992,5.19266,-1.015927,29.50343,1008.079
32.038223267,-0.246972,37.95231,-52.27118,-0.2273465,-0.1462844,-0.9137655,5.19266,-1.015927,29.50343,1008.077
32.070781231,34.14688,35.1567,-46.27364,-0.315737,-0.02294675,-0.8228571,3.722727,-0.6601205,29.95164,1008.077
32.103339195,9.658948,20.64335,-47.80363,-0.4013743,-0.1448218,-0.773396,3.359519,-0.6576009,30.84498,1008.077
32.138401032,17.22683,5.713637,-47.62003,-0.4085062,-0.2008227,-0.769893,3.359519,-0.6576009,30.84498,1008.079
32.170954704,11.19713,-6.479956,-50.986,-0.3972727,-0.2396832,-0.7424608,2.559818,-0.2995248,30.84494,1008.079
32.203512669,31.00898,-20.33902,-50.4964,-0.531068,-0.286766,-0.7121139,1.821195,0.05899239,30.84471,1008.079
32.238574982,52.359,-41.51423,-45.17205,-0.5023178,-0.4702686,-0.782614,1.821195,0.05899239,30.84471,1008.079
32.271132946,91.73657,-66.61519,-34.09496,-0.335238,-0.3579654,-0.6326653,2.174672,0.7866769,30.39223,1008.077
32.303690434,122.8695,-74.4072,-10.59439,-0.3744753,-0.05680918,-0.7063399,2.89867,1.150616,29.49509,1008.079
32.338752270,81.89218,-91.77563,11.13139,-0.2750293,0.1295531,-0.5769479,2.89867,1.150616,29.49509,1008.079
32.371306419,40.79184,-101.3521,45.64785,-0.224308,0.3841887,-0.5305749,4.749071,3.7058,28.57853,1008.079
32.403863907,-126.5013,-52.99405,-29.6886,0.4229871,-0.3350804,-1.348929,6.917247,5.164377,26.39432,1008.075
32.438926697,44.29891,-44.25035,-21.67148,-0.04878228,-2.271991,-2.344294,6.917247,5.164377,26.39432,1008.075
32.471484184,80.41553,22.60622,-0.5576927,-0.6455317,-0.3128208,-0.4426767,9.846771,4.809195,24.22078,1008.075
32.504042149,66.75643,-8.264383,-11.75718,-1.094082,-0.2462949,-0.3271519,10.23029,3.720409,24.22743,1008.075
32.539103985,42.02239,-26.16815,-39.48051,-0.8881345,-0.3761946,-0.7730724,10.23029,3.720409,24.22743,1008.077
32.571657658,2.091071,-39.55135,-15.55155,-0.298284,-1.196261,-0.8639767,10.55131,6.633542,24.20535,1008.078
32.604215622,60.97285,-17.72186,17.74093,-0.1259382,-0.6542691,-0.4976919,10.89747,7.722455,23.30419,1008.08
32.636773110,45.09876,-9.691926,5.745845,-0.2251563,-0.5708128,-0.6437528,10.89747,7.722455,23.30419,1008.082
32.671835900,75.37027,-11.05999,-7.840421,-0.3132212,-0.5165026,-0.5490642,11.61663,8.824347,24.18612,1008.084
32.704393387,26.76358,-17.42445,-4.168457,-0.34592,-0.602713,-0.3893833,11.60201,9.546803,23.28875,1008.084
32.736951351,10.08964,-7.966979,7.949023,-0.3780177,-0.7785406,-0.6110046,11.60201,9.546803,23.28875,1008.084
32.772009373,78.38512,-16.11587,8.499818,-0.4273654,-0.6587147,-0.7033873,12.30896,11.00217,22.38379,1008.085
32.804566860,105.3341,-12.07116,0.6050959,-0.456916,-0.8294287,-0.6547253,12.67403,11.0026,22.00025,1008.085
32.837124824,62.01881,-11.11947,2.624676,-0.5452655,-0.9123042,-0.5326433,12.67403,11.0026,22.00025,1008.087
32.872187138,56.05065,-7.134246,-4.535654,-0.6815134,-0.9878671,-0.4456901,13.00721,12.81656,20.64779,1008.087
32.904745102,67.61781,-3.267985,-8.636014,-0.6350328,-0.7245114,-0.2991209,13.34364,14.63567,20.18747,1008.087
32.937302113,22.70277,2.442185,-13.34837,-0.4094268,-0.6776704,-0.2275676,13.34364,14.63567,20.18747,1008.089
32.972360611,-20.36645,17.13398,-8.697213,-0.315481,-0.7300707,-0.298064,12.95849,15.72188,19.73476,1008.089
33.004918575,-74.94131,19.63218,-13.77676,-0.2644558,-0.8052009,-0.3031265,12.94713,16.4495,19.72953,1008.089
33.037476540,-99.42923,29.38705,-26.56744,-0.2026756,-1.033725,-0.4246165,12.94713,16.4495,19.72953,1008.089
33.070034027,-49.46894,47.6477,-26.01664,-0.2919388,-0.919677,-0.5363839,12.21745,16.44937,20.62405,1008.089
33.105096817,-44.36216,45.68483,-26.38384,-0.3800472,-0.7916784,-0.507277,10.77895,14.99092,21.91375,1008.085
33.137653828,-73.15701,33.72916,-28.28102,-0.2125425,-0.7586271,-0.561556,10.77895,14.99092,21.91375,1008.085
33.170207500,-132.7156,27.54314,-53.43397,0.1109877,-1.061156,-0.546182,10.45146,12.81316,23.26882,1008.087
33.205270290,-55.25252,30.75511,-77.11813,0.1253673,-1.110376,-0.4763738,9.003468,12.08528,25.06308,1008.087
33.237827778,43.19141,22.78466,-91.74479,-0.05489764,-1.049826,-0.4148539,9.003468,12.08528,25.06308,1008.087
33.270385742,108.472,30.1603,-76.20014,-0.2908574,-0.6828631,-0.5603245,7.574701,9.896627,25.91192,1008.085
33.305447579,159.1707,18.9184,-49.02761,-0.4035698,-0.4031593,-0.5100277,5.377509,9.883329,26.36513,1008.085
33.338005543,123.9154,4.940385,-26.01664,-0.3548144,-0.02026758,-0.4578291,3.148648,11.68392,25.91313,1008.085
33.370559216,12.48921,-15.04521,-17.38753,-0.3689553,0.108784,-0.4481125,3.148648,11.68392,25.91313,1008.085
33.405621529,-350.7074,87.32148,-97.25274,-0.7175857,-2.944586,-3.410572,2.686402,13.48992,24.1809,1008.081
33.438179493,-138.0685,-0.2344571,-4.90285,-0.2629971,-1.723926,-2.494274,1.990577,11.30656,25.02737,1008.081
33.470736981,-14.58287,27.48366,-3.923659,0.3285052,-1.068569,-0.8553828,1.990577,11.30656,25.02737,1008.081
33.505798817,-61.40527,18.3236,-32.32018,-0.1804293,-0.6390057,-0.8019338,2.425222,6.94348,25.05751,1008.081
33.538428307,-12.36788,8.747166,-9.676403,-0.07531662,-0.7790772,-0.9056814,0.9707026,6.205271,25.06749,1008.083
33.570981980,12.42768,-0.5318618,0.05430131,-0.04464281,-0.804298,-0.8297223,0.9707026,6.205271,25.06749,1008.083
33.603539944,18.9496,-5.825665,-3.556463,-0.04173867,-0.7205756,-0.6370305,0.9780148,5.844043,25.51617,1008.083
33.638601780,-20.67409,-19.56576,-12.55278,0.03182742,-0.7073194,-0.5629426,0.2450738,5.83875,25.51855,1008.083
33.671159268,-42.70092,-17.54341,-4.107258,0.0455519,-0.6579534,-0.690781,0.2450738,5.83875,25.51855,1008.083
33.703717232,-32.61042,-11.83324,3.542667,-0.01961566,-0.5701274,-0.6328231,0.9853269,5.482815,25.96485,1008.081
33.738779545,-18.33604,-4.576565,7.337029,-0.04893178,-0.6662893,-0.7314206,0.9910082,5.119005,25.96746,1008.081
33.771333695,-4.369312,-0.7697856,7.704226,-0.03880293,-0.703021,-0.7474588,0.9910082,5.119005,25.96746,1008.081
33.803891182,8.612982,0.2413904,9.173011,-0.0108684,-0.7248638,-0.7802052,1.013733,3.663762,25.97791,1008.081
33.838953018,25.59456,3.453361,9.723805,-0.05499578,-0.6996754,-0.7812285,1.012102,3.661179,25.53184,1008.081
33.871510982,31.37814,-0.4723809,8.744616,-0.04993974,-0.7104163,-0.7562617,1.012102,3.661179,25.53184,1008.082
33.904068947,41.83781,0.1819095,8.132621,-0.05931561,-0.6936641,-0.7265111,1.372892,4.027637,25.52804,1008.082
33.939131260,29.16315,2.263742,7.643026,-0.05745263,-0.6293317,-0.6539916,1.355848,5.11907,25.5202,1008.084
33.971684933,4.79828,-0.8292665,4.827854,-0.0965797,-0.7463604,-0.6813582,1.355848,5.11907,25.5202,1008.086
34.004242897,12.12005,0.1819095,4.766655,-0.08396958,-0.7399203,-0.672088,1.355848,5.11907,25.5202,1008.086
34.036800861,22.70277,-0.1154952,6.174241,-0.0646925,-0.7193241,-0.6572911,1.337406,6.208288,25.13002,1008.084
34.071862221,20.36473,-0.4723809,6.602637,-0.0684238,-0.6888155,-0.6437709,1.337406,6.208288,25.13002,1008.084
34.104420185,-4.307784,0.7767189,4.27706,-0.05859462,-0.7506276,-0.7027286,0.9652543,6.569451,25.1286,1008.086
34.136978149,-2.46196,1.252566,3.848664,-0.05110807,-0.7908168,-0.8203261,1.326044,6.935909,25.1248,1008.081
34.172036648,24.24096,-0.8292665,7.704226,-0.06675116,-0.8113047,-0.7423166,1.326044,6.935909,25.1248,1008.081
34.204594135,51.31304,1.014643,10.2134,-0.05805314,-0.8210005,-0.6167949,1.688231,7.30458,25.50335,1008.083
34.237151623,33.65466,-1.543038,5.133851,-0.1133213,-0.7870291,-0.5509674,1.680919,7.665807,25.05466,1008.083
34.272213936,20.42625,-3.803313,3.787465,-0.07099063,-0.7997328,-0.628059,1.680919,7.665807,25.05466,1008.085
34.304771900,50.20554,-0.6508237,7.643026,-0.07303863,-0.8090873,-0.7137574,1.671187,8.396011,25.49551,1008.085
34.337329388,54.75858,0.7767189,5.990643,-0.1012132,-0.7919825,-0.6022926,1.658194,9.12105,25.04422,1008.082
34.372387409,63.557,2.918033,6.051842,-0.0794301,-0.8223198,-0.6018097,1.658194,9.12105,25.04422,1008.082
34.404945374,56.23523,1.431009,4.644256,-0.1014917,-0.8612224,-0.4477014,1.638121,10.20769,24.20797,1008.084
34.437502861,49.28263,1.431009,0.5438964,-0.08374782,-0.8889698,-0.4935793,1.615396,11.66293,24.19753,1008.084
34.470060825,72.78612,-1.126671,5.684646,-0.07050486,-0.8538331,-0.4872555,1.615396,11.66293,24.19753,1008.086
34.505123139,120.1007,-10.76258,8.744616,-0.09212317,-1.144978,-0.7565669,1.589409,13.11301,23.29494,1008.086
34.537681103,169.5688,-30.15337,-2.332475,0.005393911,-1.013204,-0.280458,1.192291,14.55305,21.11904,1008.086
34.570234776,4.613697,8.509241,10.7642,-0.3679784,-1.024996,-0.4663776,1.192291,14.55305,21.11904,1008.087
34.605297566,23.01041,6.367927,-11.14519,-0.09779191,-1.141932,-0.2702379,2.260035,16.37488,20.21028,1008.087
34.637855053,30.51676,11.00744,-17.02033,-0.08486394,-1.025897,-0.2066079,1.865158,18.19129,20.19841,1008.087
34.670413017,12.67379,-3.743833,-25.22105,-0.01714775,-0.9728648,-0.3445933,1.865158,18.19129,20.19841,1008.087
34.705474854,22.51819,3.39388,-24.91505,-0.1237489,-0.8417986,-0.2951199,0.751122,18.90581,19.30461,1008.087
34.738032818,24.36401,7.676508,-16.10234,-0.09255656,-0.9164788,-0.2426345,1.11433,18.90328,18.41128,1008.087
34.770586491,13.04296,3.39388,-6.616433,-0.06710367,-1.052724,-0.241354,1.11433,18.90328,18.41128,1008.087
34.805648804,26.64053,8.747166,-12.24678,-0.02507565,-1.061014,-0.2217026,0.7350993,19.62605,18.0249,1008.089
34.838206768,37.777,10.47211,-10.0436,-0.04854303,-0.9694648,-0.22125,0.003789186,19.62334,18.47335,1008.087
34.870764732,28.91704,7.676508,-5.270046,-0.01053167,-0.9091522,-0.1232078,0.003789186,19.62334,18.47335,1008.089
34.905826092,-2.523488,1.312047,-2.516073,-0.0206543,-1.051516,-0.1606565,0.7204747,20.3485,17.12753,1008.089
34.938384056,-5.169168,0.3008713,-2.393674,-0.02696329,-0.9647108,-0.1366074,0.3466918,20.70708,16.68004,1008.089
34.970937729,-8.983871,0.657757,-0.7412909,-0.03419808,-0.9730182,-0.1473614,0.3466918,20.70708,16.68004,1008.089
35.003495693,-10.58358,0.657757,0.6662952,-0.02650052,-0.9708434,-0.1758549,-0.7510891,20.70173,17.12968,1008.085
35.038558006,-6.768882,1.549971,0.4826971,-0.007350407,-0.9975209,-0.2391194,-0.7437768,20.3405,17.57836,1008.089
35.071115494,14.76573,3.631804,-1.230886,-0.04734129,-1.031167,-0.2226759,-0.7437768,20.3405,17.57836,1008.085
35.103672981,29.47079,3.691285,-2.516073,0.008108668,-1.032233,-0.2565821,-0.7494581,20.70431,17.57575,1008.085
35.138735771,55.98912,5.594675,-3.189267,-0.01278791,-0.9784181,-0.1808175,-1.110247,20.33785,17.57955,1008.085
35.171289444,48.85194,5.535194,-10.59439,-0.009510257,-1.027487,-0.06942584,-1.110247,20.33785,17.57955,1008.085
35.203847408,40.66879,3.572323,-10.3496,0.006451433,-0.9401553,-0.09711149,-0.7600324,21.06037,16.23492,1008.087
35.238909245,47.12917,12.13758,-11.38999,0.03379969,-1.06201,-0.04872576,-0.7817361,22.14442,14.9526,1008.087
35.271466732,35.43895,22.13037,-13.71556,-0.02290128,-1.060927,-0.1284117,-0.7817361,22.14442,14.9526,1008.087
35.304024696,26.45595,17.13398,-9.431605,0.1242196,-1.016796,0.0993067,-1.15715,22.50042,14.05903,1008.087
35.339087010,-3.015707,14.93318,-14.57236,0.01437072,-1.005867,-0.1590271,-1.532564,22.85642,13.16546,1008.085
35.371641159,8.120762,-0.05601428,-6.677632,-0.0004461738,-0.8250548,0.2202963,-2.259824,22.48732,13.17045,1008.085
35.404198647,-6.030553,3.155956,-3.311665,-0.08657879,-1.182127,-0.05769276,-2.259824,22.48732,13.17045,1008.085
35.436756611,-18.02841,-1.721481,-3.617662,0.0111605,-0.9777369,0.0569912,-1.910397,23.58139,13.16143,1008.087
35.471818447,-32.61042,0.598276,-7.840421,0.0266601,-0.9859439,-0.01710563,-2.271186,23.21494,13.16523,1008.087
35.504376412,-30.02626,0.8956807,-4.290856,0.04536463,-0.9699537,-0.05941689,-2.271186,23.21494,13.16523,1008.087
35.537022114,-12.36788,0.3008713,2.19628,0.05378443,-1.042818,-0.1499614,-2.262243,22.85629,14.05999,1008.087
35.572080612,7.013268,-0.2344571,3.665066,0.02538726,-1.017697,-0.09154548,-2.983821,22.12338,14.06758,1008.087
35.604638100,2.890928,-0.05601428,1.829084,0.02813673,-0.9978439,-0.06755979,-2.983821,22.12338,14.06758,1008.089
35.637195587,-1.662103,0.003466659,1.033492,0.01983967,-0.9945879,-0.05928471,-1.882779,22.1339,14.51009,1008.089
35.672257900,-1.046829,-0.05601428,1.15589,0.02483112,-1.004735,-0.05799421,-2.995184,22.851,14.06236,1008.089
35.704815865,0.6759399,-0.05601428,0.4214977,0.025215,-0.996455,-0.06076851,-2.995184,22.851,14.06236,1008.089
35.737373352,-0.246972,0.003466659,-0.3740945,0.03114138,-1.005567,-0.07058078,-2.256562,22.49248,14.0626,1008.089
35.772431374,-0.3084995,0.0629476,-0.006898092,0.03200416,-0.9967906,-0.07431474,-2.254931,22.49506,14.50867,1008.087
35.804989338,1.229687,-0.05601428,0.4214977,0.02764498,-0.9978415,-0.06949279,-2.254931,22.49506,14.50867,1008.087
35.837546825,3.32162,0.1224285,0.8498935,0.02867885,-1.002694,-0.0681177,-2.621401,22.49242,14.50986,1008.083
35.870104790,4.675225,0.1224285,0.7274947,0.02771934,-1.001307,-0.0555278,-2.617351,22.12602,14.0664,1008.081
35.905167103,3.32162,-0.1749762,0.6050959,0.02229891,-0.9955521,-0.05398465,-2.617351,22.12602,14.0664,1008.081
35.937725067,1.352742,0.0629476,0.9110928,0.02918175,-1.000815,-0.05262145,-2.256562,22.49248,14.0626,1008.081
35.970278740,-0.3700269,-0.1154952,-0.006898092,0.02380845,-0.9994269,-0.05259509,-2.260612,22.85887,14.50606,1008.081
36.005340576,-0.246972,0.3008713,-0.5576927,0.02383798,-1.004713,-0.06572694,-2.260612,22.85887,14.50606,1008.081
36.037898541,0.7374673,0.1224285,-0.3128951,0.02864737,-0.9983564,-0.06031746,-2.621401,22.49242,14.50986,1008.081
36.070456505,1.844962,0.0629476,0.05430131,0.02485051,-1.007624,-0.06383882,-2.262243,22.85629,14.05999,1008.081
36.105518818,1.660379,0.1819095,0.1767001,0.02382904,-1.002318,-0.05795637,-2.262243,22.85629,14.05999,1008.077
36.138075829,0.9220497,-0.1154952,-0.1904963,0.02668787,-0.996458,-0.05593621,-2.258193,22.4899,13.61652,1008.081
36.170629501,0.6144124,0.0629476,-0.1904963,0.0218603,-0.9999272,-0.05501772,-1.890091,22.49513,14.06141,1008.081
