Time (s),Gyroscope X (deg/s),Gyroscope Y (deg/s),Gyroscope Z (deg/s),Accelerometer X (g),Accelerometer Y (g),Accelerometer Z (g),Magnetometer X (uT),Magnetometer Y (uT),Magnetometer Z (uT),Barometer (hPa)
0.000000000,-0.2400769,0.05816277,0.1533946,0.443253,-0.8194594,0.3799837,3.534204,38.94259,-22.66449,1007.68
0.034647942,-0.05421174,0.1175007,0.09193384,0.4431865,-0.8287078,0.3765341,3.912143,38.93723,-22.66643,1007.68
0.066820145,0.9883024,0.05783666,-0.1529933,0.4422185,-0.8257943,0.3760851,3.9124,39.31836,-22.66829,1007.68
0.101468086,1.105342,0.4123216,-0.09143795,0.4389203,-0.8169661,0.3858287,3.9124,39.31836,-22.66829,1007.68
0.133641243,0.3647895,-0.1211145,0.03131655,0.4476382,-0.8132011,0.3761384,4.284822,39.68844,-23.11836,1007.679
0.168288708,-0.3720881,-0.06195447,0.214963,0.4471202,-0.8204795,0.3760832,4.295863,38.93754,-22.22208,1007.683
0.200461865,0.0581696,-0.06198022,0.09216615,0.4461645,-0.8204561,0.3785023,4.295863,38.93754,-22.22208,1007.683
0.235109806,0.3031729,-0.06215373,0.0917425,0.4436964,-0.8214367,0.3756253,4.296121,39.31867,-22.22394,1007.683
0.267282486,-0.005137801,0.05593128,0.03025455,0.4447065,-0.8141571,0.3761579,4.290599,39.69412,-22.67208,1007.683
0.301929951,0.1176102,0.114852,-0.0312038,0.4432249,-0.826255,0.379928,4.290599,39.69412,-22.67208,1007.681
0.334102631,0.4849998,0.1739028,-0.03101867,0.4451644,-0.8214404,0.3760935,4.290084,38.93185,-22.66836,1007.681
0.368750572,0.54355,-0.06334051,-0.1534566,0.4452291,-0.817513,0.3819093,3.150487,38.94228,-23.10884,1007.679
0.400923252,0.05046904,0.1731936,-0.09194771,0.4446965,-0.8185182,0.377086,3.150487,38.94228,-23.10884,1007.679
0.435571194,-0.5643651,0.0547129,-0.2145033,0.4437714,-0.8179836,0.382883,3.906623,39.31268,-23.11457,1007.677
0.467744351,0.6011052,0.1137683,0.03084632,0.4447208,-0.8155948,0.3785559,3.912143,38.93723,-22.66643,1007.677
0.499916554,-0.4428087,0.05452796,0.2142738,0.4480574,-0.820036,0.3712581,3.912143,38.93723,-22.66643,1007.677
0.534564495,-0.07453637,0.05438178,0.0296645,0.4490844,-0.8243466,0.379407,3.917922,38.94291,-22.22015,1007.677
0.566737175,0.2324566,-0.06402428,0.09060007,0.4496431,-0.8179983,0.3847561,3.9124,39.31836,-22.66829,1007.676
0.601385117,0.2964519,0.1724951,-0.2157522,0.4397583,-0.8228991,0.3722759,3.906365,38.93154,-23.11271,1007.674
0.633557797,0.3572907,-0.06394588,-0.3982531,0.4490841,-0.818544,0.3765628,3.906365,38.93154,-23.11271,1007.674
0.668205261,1.704243,0.4093133,0.1537133,0.449576,-0.8175758,0.3765662,3.528426,38.93691,-23.11077,1007.678
0.700378895,0.1629822,0.1715544,0.2142583,0.4472274,-0.8111942,0.3843528,4.284564,39.3073,-23.1165,1007.676
0.735025883,-0.6340157,-0.06567875,0.03007197,0.4457052,-0.8242962,0.383777,4.284564,39.3073,-23.1165,1007.676
0.767199040,0.3502211,0.1117912,0.1526003,0.4471607,-0.8185083,0.3799551,3.912658,39.69949,-22.67015,1007.674
0.801846981,0.286637,0.1114118,0.2742546,0.443761,-0.8136408,0.3795449,4.290599,39.69412,-22.67208,1007.674
0.834019661,0.04032473,-0.184429,0.08958334,0.4451866,-0.8190024,0.3775594,4.290599,39.69412,-22.67208,1007.673
0.868667603,-0.2044181,-0.06549086,-0.03315306,0.4446948,-0.8238391,0.3794521,3.528684,39.31804,-23.11263,1007.674
0.900839806,0.04186681,0.05297918,-0.03288313,0.4422653,-0.8262354,0.3818651,3.906623,39.31268,-23.11457,1007.674
0.935487747,0.8997426,0.1117832,-0.0327773,0.4461423,-0.8219271,0.3765624,3.906623,39.31268,-23.11457,1007.678
0.967660904,0.4052679,0.1115504,0.02854724,0.4482155,-0.811188,0.3857896,3.906365,38.93154,-23.11271,1007.678
0.999833584,-0.5160475,0.1112071,0.1505051,0.4457494,-0.8145846,0.3843386,3.912658,39.69949,-22.67015,1007.678
1.034481525,-0.4519861,0.05235069,0.2109393,0.4436983,-0.81805,0.3742072,3.912658,39.69949,-22.67015,1007.678
1.066654205,-0.02078602,-0.006620739,0.08787061,0.4471627,-0.8180229,0.3799591,4.295863,38.93754,-22.22208,1007.678
1.101301670,-0.2659923,-0.1843326,0.2710381,0.447187,-0.8170337,0.382377,3.912143,38.93723,-22.66643,1007.678
1.133474350,-0.4485055,-0.006564397,0.3316046,0.4403314,-0.8199227,0.3809711,3.912143,38.93723,-22.66643,1007.677
1.168122292,-0.3843167,-0.06555355,0.1468839,0.446124,-0.8224273,0.3746305,3.528684,39.31804,-23.11263,1007.677
1.200295448,-0.07613775,-0.06543499,0.1462465,0.4407484,-0.8214405,0.3732427,4.662761,39.68307,-23.1203,1007.678
1.234942913,-0.2600752,-0.006055526,0.1458353,0.4447452,-0.8165398,0.3819219,4.662761,39.68307,-23.1203,1007.678
1.267116070,-0.5656271,-0.242344,-0.03850477,0.4467375,-0.8145784,0.3857754,3.534204,38.94259,-22.66449,1007.678
1.301764011,-0.6239778,-0.3006879,-0.03887397,0.446189,-0.8214011,0.3818683,4.290084,38.93185,-22.66836,1007.678
1.333936215,0.114555,-0.1223896,0.1446843,0.4461302,-0.8229052,0.3755905,4.290084,38.93185,-22.66836,1007.677
1.368584156,-1.112127,-0.2401479,0.1439147,0.4447065,-0.8151242,0.3766319,4.290084,38.93185,-22.66836,1007.677
1.400756836,-0.8634717,-0.2987062,-0.1014742,0.4506211,-0.818485,0.385225,3.906365,38.93154,-23.11271,1007.677
1.435404778,-0.6145386,-0.06145331,0.1432735,0.4427835,-0.8228253,0.3838163,3.906365,38.93154,-23.11271,1007.678
1.467577458,-1.163211,-0.06111006,-0.2243214,0.4378048,-0.8301443,0.3756085,3.90688,39.69381,-23.11643,1007.677
1.499750614,-0.7306344,-0.4147455,-0.3452312,0.4446824,-0.8209489,0.3765841,4.284564,39.3073,-23.1165,1007.677
1.534398079,0.9266457,0.1777921,0.1458108,0.4491267,-0.8170546,0.3809127,3.91818,39.32404,-22.22201,1007.677
1.566570759,-0.3045442,0.1178642,-0.03885601,0.4476624,-0.8083434,0.3766602,3.91818,39.32404,-22.22201,1007.677
1.601218701,-1.528674,-0.1187064,-0.03874313,0.4456684,-0.8185269,0.3765948,4.295863,38.93754,-22.22208,1007.678
1.633391380,-0.6018735,0.000184454,0.08381585,0.4432267,-0.8209341,0.3775618,4.290599,39.69412,-22.67208,1007.68
1.668039322,-0.1090224,-0.1180938,0.2669054,0.4422083,-0.8243529,0.3741691,4.290599,39.69412,-22.67208,1007.68
1.700212479,-0.4148248,-0.05837192,0.08228334,0.4402604,-0.8204709,0.3727733,3.912915,40.08063,-22.67201,1007.68
1.734859467,-1.270852,-0.116744,-0.03994071,0.4431981,-0.8190258,0.3732398,4.290856,40.07526,-22.67394,1007.68
1.767032623,-0.5905728,-0.116194,-0.1008151,0.4387603,-0.8282335,0.3722413,4.290856,40.07526,-22.67394,1007.68
1.801680565,0.2085525,-0.05651755,-0.16116,0.4446765,-0.8243393,0.3775202,3.54024,39.32941,-22.22007,1007.684
1.833853245,0.1453666,0.06171166,-0.03773694,0.4491365,-0.8117263,0.3795106,3.912143,38.93723,-22.66643,1007.684
1.868501187,-1.141996,-0.2926666,0.02385018,0.4491365,-0.8117263,0.3795106,3.912143,38.93723,-22.66643,1007.684
1.900673866,-1.320842,-0.173419,-0.03720742,0.4451438,-0.8175905,0.3717875,3.917922,38.94291,-22.22015,1007.684
1.935321331,-0.6408138,-0.05438079,0.08535706,0.4456097,-0.8229324,0.3717391,4.296378,39.69981,-22.2258,1007.682
1.967494011,-0.2706983,0.005174387,0.146373,0.4465957,-0.8214774,0.3722239,4.296378,39.69981,-22.2258,1007.682
2.002141953,-0.4527224,0.005207468,-0.09889844,0.4466059,-0.8219517,0.3736659,4.668538,39.68876,-22.67402,1007.68
2.034315109,0.1012834,0.005148809,-0.09862973,0.4475656,-0.8248727,0.3731508,4.302155,39.70549,-21.77952,1007.679
2.066487789,0.5907527,0.1232935,-0.0368255,0.4437148,-0.8238378,0.3789793,4.302155,39.70549,-21.77952,1007.679
2.101135731,0.4657231,0.1229006,0.02462304,0.449088,-0.8156391,0.3756228,3.9124,39.31836,-22.66829,1007.679
2.133307934,-0.0271753,0.06354879,0.02469572,0.4446702,-0.8199929,0.3746641,3.923957,39.32973,-21.77573,1007.677
2.167955875,0.2796912,0.004344605,-0.2201187,0.4466363,-0.8204733,0.3765698,3.923957,39.32973,-21.77573,1007.677
2.200129032,0.5859149,-0.05450544,0.08673292,0.4466584,-0.8170682,0.3775616,3.54024,39.32941,-22.22007,1007.675
2.234776497,-0.2135943,-0.05435876,-0.03585663,0.4465673,-0.8215032,0.36885,3.917922,38.94291,-22.22015,1007.673
2.266949654,-0.02928025,-0.4090426,-0.158496,0.4534616,-0.821964,0.3764938,3.917922,38.94291,-22.22015,1007.673
2.301597595,0.03216296,0.005339995,0.02538808,0.4436782,-0.8238711,0.3746414,3.534461,39.32373,-22.66636,1007.677
2.333770275,-0.3957263,0.06396514,-0.09669331,0.4387587,-0.8354886,0.3755555,3.918694,40.08631,-22.22573,1007.679
2.368417740,1.26124,-0.1721086,-0.4628569,0.4499506,-0.8254184,0.3668581,3.918694,40.08631,-22.22573,1007.679
2.400590420,1.929887,0.4195328,0.08976637,0.4520747,-0.8170509,0.3832952,3.546018,39.33509,-21.77379,1007.679
2.435238361,0.3881424,0.06293426,-0.03327827,0.4446759,-0.811767,0.3713578,3.540755,40.09168,-22.22379,1007.679
2.467411518,-0.5322748,0.2403817,-0.1553899,0.4466081,-0.8253347,0.375566,3.540755,40.09168,-22.22379,1007.681
2.502058983,0.4507701,0.1216245,0.02857625,0.4505521,-0.8204819,0.3779792,3.540498,39.71054,-22.22194,1007.679
2.534232140,0.7550051,0.1206461,0.3948941,0.4456543,-0.8219246,0.376567,3.912658,39.69949,-22.67015,1007.681
2.568880081,0.1391407,0.06107993,0.1485896,0.4476081,-0.8195149,0.3756046,3.9124,39.31836,-22.66829,1007.681
2.601052284,0.01629088,0.1793863,-0.03518499,0.4426741,-0.8277605,0.3731727,3.9124,39.31836,-22.66829,1007.679
2.633224964,0.2620611,-0.1164163,-0.2188256,0.4441319,-0.8272898,0.3721989,3.534204,38.94259,-22.66449,1007.679
2.667872906,1.302568,-0.4117374,-0.7079682,0.4407685,-0.8185207,0.3742306,3.923957,39.32973,-21.77573,1007.677
2.700046063,1.359824,-2.656619,-1.194513,0.425236,-0.8411325,0.4532371,3.923957,39.32973,-21.77573,1007.675
2.734694004,0.4376104,-7.271307,-2.848473,0.4407511,-0.7943581,0.360452,3.9124,39.31836,-22.66829,1007.675
2.766866684,-7.486913,-8.395822,-2.787186,0.432853,-0.9259322,0.4134249,3.156522,39.32909,-22.66442,1007.675
2.801514149,23.044,-17.39194,-8.915888,0.4121625,-0.9071856,0.4393185,3.156522,39.32909,-22.66442,1007.675
2.868334770,-2.756771,-40.77003,-32.14367,0.4434187,-0.9707032,0.5310471,2.76677,38.94196,-23.55319,1007.674
2.900507450,-45.38948,-56.86835,-52.3071,0.4435113,-0.9541777,0.5340745,2.76677,38.94196,-23.55319,1007.674
2.935155392,-60.93137,-69.47475,-76.82191,0.4634398,-1.079481,0.4109097,1.260789,38.96912,-23.09917,1007.672
2.967328548,-39.9836,-75.03815,-99.25297,0.5042527,-1.060951,0.3224757,-2.117297,39.42131,-21.2985,1007.672
3.001975536,-39.18501,-79.47703,-118.6197,0.5251364,-0.8522817,0.2676072,-2.117297,39.42131,-21.2985,1007.67
3.034148693,-68.79446,-80.24643,-132.2254,0.5861817,-0.7374535,0.2173743,-6.629204,39.88961,-19.49203,1007.669
3.068796635,-97.05245,-82.37709,-146.873,0.7053419,-0.6788932,0.08323131,-12.64894,38.85971,-17.28786,1007.669
3.100969315,-77.7633,-87.52618,-149.9986,0.847084,-0.6797268,-0.1224659,-12.64894,38.85971,-17.28786,1007.672
3.133142471,-17.74579,-73.44016,-142.828,0.9725696,-0.5308996,-0.1281939,-18.33062,37.84808,-13.30018,1007.671
3.167789459,21.38538,-57.99287,-125.4838,0.8187937,-0.3393282,0.004960168,-24.3341,35.24719,-9.749412,1007.671
3.199963093,3.32484,-54.02747,-119.0487,0.8169131,-0.1719014,-0.1257099,-24.3341,35.24719,-9.749412,1007.669
3.234610558,69.30111,-46.45179,-105.2591,0.9130455,-0.2785795,-0.3651121,-28.87195,31.50027,-9.707598,1007.667
3.266783238,121.2098,-32.60249,-86.68913,1.028001,-0.003262601,-0.4656169,-31.88623,28.12439,-8.782819,1007.667
3.301431179,83.49153,-10.58567,-74.5543,1.048102,0.02145974,-0.5827265,-31.88623,28.12439,-8.782819,1007.665
3.368251801,-1.15958,55.05051,-49.05889,1.040062,0.04591164,-0.5641339,-36.8442,20.53253,-11.78067,1007.664
3.400424957,-23.8274,82.27562,-41.27544,0.9607801,0.06536599,-0.4841858,-36.8442,20.53253,-11.78067,1007.66
3.435071945,-39.86074,107.8435,-32.32753,0.8801587,0.04290773,-0.4272248,-37.625,17.85259,-13.5489,1007.66
3.467245102,-46.49523,132.5237,-22.70547,0.8788934,0.03625098,-0.284114,-37.65466,16.68077,-15.77472,1007.66
3.501893044,-32.98054,148.0894,-15.04459,0.8538053,0.005169238,-0.1766503,-37.65466,16.68077,-15.77472,1007.658
3.534065724,-20.75588,164.1877,-6.157973,0.868356,0.08718488,-0.1688799,-36.56593,15.85854,-19.21954,1007.658
3.568713665,-2.879632,194.1353,16.39565,0.72908,-0.02397129,-0.1964526,-34.34978,16.53743,-23.25139,1007.657
3.600885868,20.77108,255.0367,34.29146,0.5176378,-0.01832602,-0.04115732,-34.34978,16.53743,-23.25139,1007.655
3.635533810,-12.09419,310.5522,41.6459,0.4248539,-0.08424833,0.09942684,-30.63337,16.0409,-28.1142,1007.653
3.667706967,112.1181,-42.24965,105.3844,-5.556785,5.142913,15.85175,-24.27036,17.03131,-32.99799,1007.65
3.699879646,-673.0854,-379.8409,-29.14061,-1.272966,-1.623453,-3.46277,-24.27036,17.03131,-32.99799,1007.65
3.734527588,356.9183,138.3238,100.4814,2.324361,-0.4527969,-0.3956234,-15.53132,18.03328,-34.38721,1007.65
3.766700268,73.96982,15.9884,38.52027,-1.099526,0.4081854,0.2844823,-16.26844,29.17088,-28.69909,1007.65
3.801348210,21.6311,-3.424281,66.09942,1.045577,-0.08265252,1.084639,-11.74807,23.6966,-34.43446,1007.65
3.833521366,144.3076,11.78627,53.41301,0.4359604,-0.6046585,0.9766099,-11.74807,23.6966,-34.43446,1007.65
3.868168354,124.4042,-25.08599,42.93293,0.6234105,-0.1359889,0.7565228,-11.01004,22.90654,-35.77345,1007.65
3.900341511,106.1594,-36.86382,69.22506,0.6340864,-0.02785208,0.8132266,-9.523193,20.1944,-37.55328,1007.65
3.934989452,129.0115,-59.05819,74.61832,0.5818706,-0.03979445,0.9934012,-9.523193,20.1944,-37.55328,1007.655
3.967162132,72.92551,-74.15038,67.57031,0.5573558,-0.01511584,0.9678055,-9.919442,17.51559,-38.81342,1007.655
4.001810074,67.21248,-82.25872,88.04018,0.5534528,-0.1058197,0.7212744,-10.68393,13.32817,-39.23536,1007.651
4.033982277,96.69907,-73.97282,106.1199,0.6400689,0.01490015,0.6332555,-10.68393,13.32817,-39.23536,1007.655
4.068630219,37.35729,-56.74998,121.9932,0.8229532,0.2410159,0.742345,-12.5857,12.58138,-40.11453,1007.655
4.100803375,-60.62422,-51.1274,126.5897,1.041446,-0.07484056,0.6470863,-13.71502,10.6975,-39.65314,1007.655
4.135450840,-44.03801,-18.22053,138.0504,0.9034073,-0.3355211,0.4905395,-13.71502,10.6975,-39.65314,1007.655
4.199796677,-17.13149,-18.45727,149.6949,0.47309,-0.2419035,0.4572486,-14.07915,15.28703,-38.84473,1007.654
4.234444618,-38.38641,-21.53489,151.0432,0.434067,-0.4070005,0.4229937,-14.07915,15.28703,-38.84473,1007.654
4.266617775,-42.56368,-17.09602,153.6786,0.4794494,-0.5725701,0.4448233,-11.80285,18.31038,-38.36119,1007.655
4.301264763,-19.09726,-11.17752,147.1822,0.5177816,-0.81999,0.4221819,-9.89484,20.96771,-37.1088,1007.655
4.333437920,20.77108,-6.383532,131.6765,0.5235093,-0.9738734,0.4232698,-9.89484,20.96771,-37.1088,1007.655
4.368085861,69.17825,7.110651,117.9482,0.5156804,-1.028981,0.4474705,-7.24772,23.21694,-37.1335,1007.655
4.400258541,73.47838,13.68019,97.53967,0.4002234,-0.9915497,0.5693563,-3.863082,23.91383,-38.49346,1007.655
4.434906483,47.12472,13.73937,73.45387,0.3130035,-0.8866205,0.6505651,-3.863082,23.91383,-38.49346,1007.655
4.467078686,18.37529,5.867766,48.08104,0.3609118,-0.9153115,0.6744635,-0.4731293,22.71156,-39.33409,1007.655
4.501726627,5.474905,6.282062,25.77257,0.3806244,-0.9355057,0.6490491,1.39795,20.76199,-40.6733,1007.657
4.533899784,-4.476822,5.926951,11.73784,0.3397407,-0.9119926,0.6505885,1.39795,20.76199,-40.6733,1007.661
4.568547249,5.536335,2.020741,-4.809658,0.3302659,-0.8387033,0.707193,2.154088,21.13239,-40.67903,1007.661
4.600720406,2.833397,-3.069171,-20.56042,0.2950766,-0.8443805,0.7036186,2.903672,20.3537,-41.12546,1007.661
4.635368347,39.01591,-8.928487,-30.24377,0.3405337,-0.8082712,0.6948161,2.903672,20.3537,-41.12546,1007.661
4.667541027,48.41476,-11.41426,-35.39188,0.3578815,-0.6800041,0.7227036,2.531512,20.36476,-40.67724,1007.661
4.702188492,36.74298,-16.44498,-42.25603,0.364411,-0.6653597,0.7377054,2.135722,19.5908,-42.01043,1007.663
4.734361172,22.92114,-16.44498,-44.21721,0.3929221,-0.4913016,0.7943043,0.9950972,18.07669,-42.44347,1007.663
4.766534329,-44.83661,-22.83696,-49.79433,0.4348693,-0.5828483,0.7198942,0.9950972,18.07669,-42.44347,1007.665
4.801182270,-48.70672,-18.7532,-53.90056,0.4525776,-0.6426955,0.6493457,-0.1339722,16.57394,-41.98394,1007.665
4.833354950,-61.72997,-19.22668,-64.44194,0.4942352,-0.7205194,0.5919214,-2.767222,17.76629,-41.08342,1007.665
4.900175095,-10.55843,-13.01225,-69.09975,0.5433385,-0.5807341,0.5603217,-3.888198,19.69944,-40.19436,1007.665
4.934823036,-4.783975,-10.70404,-65.1161,0.563064,-0.5052071,0.5482283,-6.521706,20.51065,-39.29198,1007.665
4.966996193,-2.695341,-7.744787,-57.63907,0.6014591,-0.4146674,0.5437965,-6.521706,20.51065,-39.29198,1007.665
5.001643658,-15.59573,-3.601836,-49.61047,0.6390688,-0.3862925,0.5340394,-8.034492,19.00759,-39.27681,1007.665
5.033816814,-30.83047,-1.707915,-41.52058,0.6486427,-0.4222941,0.5293153,-9.168312,19.0237,-39.27101,1007.665
5.068464756,-13.50709,1.42889,-31.71466,0.6655139,-0.4617377,0.5235307,-9.168312,19.0237,-39.27101,1007.665
5.100637436,4.676309,2.730961,-26.75041,0.6594723,-0.4464405,0.5521511,-10.29032,19.43231,-38.3745,1007.665
5.135284901,5.044891,0.4227452,-21.54102,0.6791419,-0.4667112,0.5797565,-10.66222,19.82449,-37.92815,1007.665
5.167457581,13.64515,-0.46503,-15.16716,0.6720479,-0.4210141,0.5845374,-10.66222,19.82449,-37.92815,1007.665
5.202105522,8.300703,-2.181396,-11.48994,0.6725789,-0.3909959,0.57514,-11.42522,19.06647,-38.4306,1007.667
5.234278679,-7.978356,-3.601836,-6.096686,0.6946878,-0.4025751,0.5984561,-11.42548,18.68533,-38.42873,1007.67
5.266451359,-23.27453,-4.903906,-3.277483,0.695161,-0.4335393,0.6116925,-11.42548,18.68533,-38.42873,1007.67
5.301099300,-25.30173,-7.567232,-4.074214,0.6677579,-0.493881,0.5738547,-11.42573,18.3042,-38.42687,1007.672
5.333271504,-17.43864,-10.58567,-6.893417,0.6942664,-0.5392873,0.556363,-12.93063,18.7133,-37.91096,1007.672
5.367919445,-7.855495,-11.17752,-8.915888,0.703012,-0.5190558,0.5419883,-12.93063,18.7133,-37.91096,1007.67
5.400092602,-3.555366,-12.65714,-11.12222,0.7039751,-0.5045655,0.5334228,-12.16928,19.46971,-37.53603,1007.67
5.434740067,2.956257,-13.07144,-11.61252,0.7127852,-0.4765382,0.5229676,-12.92516,19.48044,-37.53216,1007.67
5.466913223,1.85051,-13.42655,-11.36737,0.7275925,-0.436806,0.523639,-12.92516,19.48044,-37.53216,1007.67
5.501561165,-0.5452762,-14.7878,-13.32855,0.7436504,-0.477064,0.5376173,-14.05898,19.49655,-37.52636,1007.669
5.533733845,7.010665,-15.32047,-13.88014,0.7330292,-0.4798077,0.5526357,-14.43692,19.50192,-37.52443,1007.669
5.568381310,9.28359,-18.93075,-14.37043,0.755156,-0.4430138,0.5546606,-14.43692,19.50192,-37.52443,1007.667
5.600553990,4.676309,-21.41652,-14.9833,0.7788423,-0.4133935,0.5715537,-15.18728,19.13721,-37.07242,1007.667
5.635201931,-7.671204,-23.60637,-13.20598,0.771781,-0.4063146,0.54083,-16.00641,18.7677,-37.06637,1007.665
5.667375088,-20.20301,-29.22894,-13.81885,0.8070887,-0.4111683,0.5635965,-16.00641,18.7677,-37.06637,1007.665
5.702023029,-34.63916,-33.19434,-9.773907,0.8571236,-0.4333864,0.5470405,-17.50712,18.03828,-36.16235,1007.665
5.734195709,-43.05512,-36.15359,-8.548166,0.8549721,-0.4601545,0.5362359,-18.25119,18.44152,-35.26778,1007.664
5.768843651,-40.59791,-38.63937,-16.20904,0.7606426,-0.5245435,0.4339194,-19.3732,18.85013,-34.37128,1007.664
5.801015854,-38.01783,-41.00677,-24.72794,0.7730654,-0.5267817,0.403419,-19.3732,18.85013,-34.37128,1007.662
5.833189011,-35.37632,-37.51485,-33.4307,0.7863726,-0.4855871,0.3409746,-20.86107,20.03774,-32.584,1007.66
5.867836952,-40.65934,-30.82694,-37.10792,0.8010409,-0.4314741,0.3181478,-22.74499,20.07027,-32.12805,1007.66
5.900009632,-39.79931,-27.15747,-41.09158,0.7889693,-0.4873536,0.3023758,-22.74499,20.07027,-32.12805,1007.658
5.934657574,-13.3228,-21.47571,-41.70444,0.8532145,-0.483476,0.2801183,-24.23998,20.48912,-30.84709,1007.658
5.966830254,-1.528163,-20.11445,-40.47871,0.8986335,-0.416453,0.2518091,-25.73466,20.14652,-29.49865,1007.656
6.001477718,5.536335,-14.84699,-34.04357,0.9177827,-0.3501545,0.1755391,-25.73466,20.14652,-29.49865,1007.66
6.033651352,-0.4838458,-10.4673,-26.07625,0.9308706,-0.3295438,0.2131828,-27.62488,19.41109,-29.48526,1007.659
6.068298340,-3.801088,-10.82241,-22.52161,0.950298,-0.4138283,0.1848327,-28.36393,18.67662,-28.13883,1007.659
6.100471497,10.69649,-4.667166,-19.82498,0.9620574,-0.4491439,0.2075678,-28.36393,18.67662,-28.13883,1007.659
6.135119438,28.01987,-1.64873,-25.15695,0.9631177,-0.5007766,0.1844783,-29.12059,17.54395,-28.12938,1007.657
6.167292118,34.40863,1.31052,-29.07932,0.998073,-0.4170114,0.1805047,-29.1324,17.15145,-29.02008,1007.657
6.201940060,25.8698,6.755541,-40.53999,1.035807,-0.4247539,0.1449028,-29.1324,17.15145,-29.02008,1007.655
6.234112263,16.10237,13.73937,-49.91691,1.118244,-0.3826397,0.1203808,-30.26725,15.64302,-29.00683,1007.655
6.268760204,1.174775,25.22127,-64.6258,1.076183,-0.3713575,0.04567437,-30.64673,13.36159,-28.99374,1007.653
6.300933361,-6.626887,37.65012,-79.39597,1.116692,-0.3430232,0.03251598,-30.64673,13.36159,-28.99374,1007.652
6.367753983,43.68462,72.4509,-125.4225,1.071373,-0.4452187,0.03161435,-31.05582,8.765743,-31.13712,1007.646
6.399926663,93.62756,84.22872,-140.5604,0.9331594,-0.1556085,0.1109655,-31.05582,8.765743,-31.13712,1007.646
6.434574127,95.59332,82.98584,-149.7535,0.8111188,0.1175426,0.2064181,-29.94088,6.445783,-32.4706,1007.65
6.466747761,63.8338,78.90207,-152.634,0.7673793,0.2682396,0.2712105,-27.71233,-0.1633289,-35.12794,1007.643
6.501395226,50.62626,82.98584,-146.3214,0.6930708,0.2853744,0.3053031,-27.71233,-0.1633289,-35.12794,1007.643
6.533567906,61.6223,81.21029,-141.3571,0.5884466,0.3571733,0.4220691,-24.33759,-5.570254,-36.90442,1007.641
6.568215847,62.48233,75.52853,-134.8607,0.4604624,0.3910193,0.4486063,-21.32345,-10.95476,-37.34012,1007.645
6.600388527,75.87416,58.95672,-130.1416,0.3816959,0.4288718,0.5229173,-21.32345,-10.95476,-37.34012,1007.645
6.635036469,146.8877,31.96836,-130.2029,0.3322439,0.333816,0.3751032,-17.16291,-14.81946,-36.89651,1007.643
6.667209625,247.2036,19.30277,-135.2897,0.3480414,0.7878628,0.351225,-12.92808,-19.05482,-35.55879,1007.642
6.701856613,181.1659,15.39655,-118.5584,0.3273824,1.322978,0.3052194,-12.92808,-19.05482,-35.55879,1007.64
6.734029770,-12.89279,7.406577,-101.3367,0.2476325,1.363804,0.2609922,-9.840164,-25.1285,-30.25288,1007.64
6.768677712,-116.2802,19.30277,-94.28872,0.3048556,0.9734714,0.3488202,-6.408971,-32.44777,-27.55693,1007.638
6.800850392,-92.99804,28.35807,-88.09873,0.1918741,0.7948045,0.5214393,-6.408971,-32.44777,-27.55693,1007.638
6.835498333,-63.08144,14.39041,-83.74735,0.05770459,0.7317035,0.4975891,-2.646093,-31.31158,-28.92101,1007.636
6.867670536,-2.081037,-1.41199,-82.64419,0.1685466,0.7313266,0.3312258,-0.02652264,-28.32771,-31.11708,1007.638
6.899844170,31.27568,-2.654876,-85.83111,0.1854267,0.9481453,0.2605559,2.614305,-26.84644,-31.58434,1007.636
6.934491634,-21.1859,3.559551,-77.98637,0.2069162,1.076647,0.2585227,2.614305,-26.84644,-31.58434,1007.636
6.966664314,-89.49651,7.288207,-69.8352,0.1733196,0.9327787,0.3371801,4.514476,-27.24385,-30.76334,1007.636
7.001312256,-86.97786,10.60257,-67.56757,0.09817061,0.6614255,0.4108362,6.765862,-26.91117,-32.0519,1007.636
7.033484936,-39.55359,16.28433,-70.26421,0.0124113,0.6778886,0.4763601,6.765862,-26.91117,-32.0519,1007.636
7.068132877,-33.59484,20.3681,-75.35103,-0.04956997,0.7999756,0.5328928,7.50698,-23.12763,-33.41321,1007.636
7.100306034,-50.24248,25.93149,-77.92509,-0.09637887,0.7968584,0.5390879,9.782197,-20.48622,-32.99156,1007.636
7.134953976,-64.06432,31.13977,-76.45419,-0.1157616,0.7288967,0.5883545,9.782197,-20.48622,-32.99156,1007.636
7.167126179,-61.54568,34.1582,-71.67381,-0.1864041,0.6660068,0.6328391,11.28368,-18.6134,-33.90116,1007.64
7.201774120,-38.87786,32.50102,-66.40312,-0.2234846,0.6279954,0.6521517,13.17519,-15.97231,-33.92385,1007.64
7.233946800,-12.83136,29.4234,-65.48382,-0.2712835,0.6234195,0.65738,13.17519,-15.97231,-33.92385,1007.636
7.268594742,-1.09815,32.61939,-61.255,-0.3000835,0.6646211,0.6946203,15.06745,-12.18781,-33.95213,1007.64
7.300767899,-14.30569,32.08672,-57.27135,-0.3095052,0.7012447,0.7171821,16.58576,-11.0602,-33.51917,1007.64
7.335414887,-39.9836,39.72159,-54.57472,-0.3201341,0.6608129,0.691402,16.58576,-11.0602,-33.51917,1007.64
7.367588043,-71.86598,47.5932,-51.51037,-0.3271087,0.6408908,0.6840729,17.73217,-9.540405,-32.63985,1007.64
7.399760723,-93.85807,52.91985,-51.32651,-0.3764,0.4951688,0.6380235,19.70399,-6.883153,-31.32403,1007.64
7.434408665,-69.04018,52.86066,-56.96492,-0.4331438,0.313504,0.7098373,19.70399,-6.883153,-31.32403,1007.64
7.466581822,-38.69357,48.65853,-66.34184,-0.5322373,0.3090951,0.7666376,20.46688,-3.839949,-30.96025,1007.642
7.501229763,-33.65627,40.25426,-74.00272,-0.6194997,0.3159332,0.7159342,21.99829,-0.4141672,-29.64589,1007.642
7.533402443,-38.87786,35.46027,-81.05072,-0.617709,0.3278661,0.6909518,21.99829,-0.4141672,-29.64589,1007.642
7.568050385,-50.91822,38.47871,-86.44398,-0.6559758,0.3123961,0.6743114,22.77335,2.323607,-28.32426,1007.646
7.600222588,-65.78437,41.14203,-91.34694,-0.6748984,0.240092,0.6642519,23.54861,5.378993,-27.00417,1007.644
7.634870529,-56.44695,49.66467,-87.66972,-0.7503302,0.1362801,0.62313,23.54861,5.378993,-27.00417,1007.646
7.667043686,-42.68654,49.72386,-85.4021,-0.8173567,0.1707524,0.6442836,23.57956,8.456486,-24.78765,1007.646
7.701691151,-41.08935,42.20736,-80.92815,-0.8096289,0.1358238,0.6516355,23.60493,13.05201,-23.08861,1007.646
7.733864308,-34.332,41.85225,-69.40619,-0.7904972,0.1058762,0.6198801,23.60493,13.05201,-23.08861,1007.647
7.768512249,-18.48296,41.02366,-52.06195,-0.8592268,0.1521529,0.7230868,22.87898,14.61571,-20.86078,1007.651
7.800684452,-51.47109,22.14365,-49.85562,-0.9317238,0.2044133,0.7815521,22.52621,17.69289,-19.08861,1007.653
7.835332394,-69.16304,1.251336,-52.91997,-0.7997298,-0.0869486,0.6598286,21.78869,19.24521,-17.75335,1007.653
7.867505074,-35.68348,8.412722,-39.13039,-0.7668244,-0.1245266,0.5285899,21.78869,19.24521,-17.75335,1007.653
7.902153015,-52.14682,17.29048,-29.14061,-0.7535757,0.1409536,0.408709,20.66607,21.17673,-16.9918,1007.657
7.934326172,-140.1766,17.40885,-34.65644,-0.732019,-0.006564363,0.4901957,19.93433,22.73474,-15.21025,1007.657
7.966498852,-184.8979,36.99908,-22.33775,-0.7757033,-0.1501612,0.4715855,19.93433,22.73474,-15.21025,1007.657
8.001146793,-170.5232,18.94766,-26.44398,-0.8406378,-0.5646573,0.4943202,19.22622,25.07776,-11.6473,1007.659
8.033319950,-90.72512,22.91305,-34.04357,-0.7624238,-0.7718152,0.4942926,18.91833,27.43733,-6.364919,1007.659
8.067966938,4.73774,34.39494,-36.86277,-0.7406232,-0.5945991,0.3895102,18.91833,27.43733,-6.364919,1007.659
8.100140095,21.6311,41.55633,-33.24684,-0.7758654,-0.2928494,0.3470188,18.12964,29.38306,-4.13863,1007.657
8.134788036,-33.84056,31.08058,-34.59515,-0.8821478,-0.4880378,0.3955653,16.61814,29.78566,-4.132755,1007.659
8.166960716,-0.4224154,28.94992,-28.16001,-0.8072541,-0.5515464,0.4536288,16.61814,29.78566,-4.132755,1007.66
8.201608658,41.28883,33.86227,-28.28259,-0.8309537,-0.3273424,0.3703845,15.12892,30.2102,-2.405512,1007.656
8.233780861,-6.135444,28.2397,-26.26012,-0.8282745,-0.3933485,0.3727072,13.99536,30.60744,-2.40157,1007.656
8.268428803,14.38231,26.40497,-22.21517,-0.7891878,-0.5675098,0.3463248,13.99536,30.60744,-2.40157,1007.656
8.300601959,31.95141,24.21512,-24.23764,-0.7884184,-0.3980445,0.3559087,13.24577,31.38613,-1.955144,1007.66
8.335249424,-14.7357,12.61486,-27.85358,-0.8209237,-0.5263009,0.3826286,12.86758,31.01036,-1.951349,1007.662
8.367422581,8.239273,6.933096,-26.07625,-0.7757184,-0.4923549,0.3448907,12.86758,31.01036,-1.951349,1007.662
8.402070522,-1.651024,1.547261,-25.15695,-0.8363091,-0.4210046,0.2428964,11.74005,31.79442,-1.502989,1007.662
8.434243202,-0.2381242,-5.969236,-22.88933,-0.8346498,-0.5582051,0.3906876,10.22277,32.19134,-1.943395,1007.662
8.466416359,-28.92613,-8.632562,-22.88933,-0.8306592,-0.5199811,0.4406115,10.22277,32.19134,-1.943395,1007.664
8.501064301,-35.9292,-20.76549,-20.13141,-0.8167133,-0.700498,0.3290973,9.850867,32.58353,-1.497041,1007.665
8.533236504,13.39943,-21.00223,-19.2734,-0.7414388,-0.6054585,0.2395265,9.101281,33.36222,-1.050613,1007.664
8.567884445,-6.99547,-18.45727,-10.2642,-0.707284,-0.5187396,0.4293485,9.101281,33.36222,-1.050613,1007.664
8.600057125,-17.93008,-17.33276,-4.687084,-0.6715024,-0.6410784,0.449214,8.339368,32.98614,-1.491166,1007.664
8.634705067,3.509131,-10.99996,-1.316298,-0.6988029,-0.6350403,0.3333567,7.211326,33.00793,-1.039083,1007.664
8.666878224,13.09228,-5.732496,3.647951,-0.725017,-0.4786663,0.3903204,7.211326,33.00793,-1.039083,1007.664
8.701525211,8.853577,-11.47344,2.912507,-0.7670874,-0.6163312,0.3866861,7.967462,33.37832,-1.044813,1007.665
8.733698368,9.775033,-13.01225,5.915571,-0.7024431,-0.5492269,0.3813341,7.57771,32.99119,-1.933578,1007.664
8.768346310,44.36036,-17.68787,13.08615,-0.652837,-0.5684499,0.3122688,7.57771,32.99119,-1.933578,1007.664
8.800518990,31.64426,-11.2367,7.754181,-0.7068387,-0.6396731,0.4828133,7.955907,33.36695,-1.937373,1007.664
8.835166931,42.51744,-7.922342,8.673488,-0.7491051,-0.5029612,0.4973487,7.561458,33.35608,-3.210526,1007.664
8.867340088,39.26163,-7.567232,9.102496,-0.7636465,-0.48048,0.3819899,7.561458,33.35608,-3.210526,1007.668
8.901987076,19.05103,-5.850866,7.815468,-0.7682893,-0.4798312,0.5261564,7.916028,32.94684,-4.995723,1007.666
8.934160709,19.05103,-7.448862,4.812405,-0.7951971,-0.5667649,0.5020729,8.293712,32.56034,-4.995796,1007.666
8.968808174,28.26559,-6.797827,0.3384518,-0.9350491,-0.5610498,0.5236689,8.654317,32.53791,-6.336572,1007.666
9.000980854,24.57976,-11.76937,-6.21926,-1.049493,-0.5230693,0.5915658,8.654317,32.53791,-6.336572,1007.666
9.033154011,1.604788,-22.77778,-17.49607,-1.137481,-0.5004123,0.3886878,8.64828,32.1511,-6.780991,1007.666
9.067801476,-6.381166,-35.26582,-18.04766,-1.184699,-0.4387694,0.5472505,9.38079,31.73648,-8.568121,1007.67
9.099974632,115.8039,-57.40102,0.767461,-1.163277,-0.272276,0.7513449,9.38079,31.73648,-8.568121,1007.67
9.134622574,139.7618,-78.29333,15.66021,-1.117538,-0.09708878,0.6506605,8.224942,32.1118,-10.28555,1007.67
9.166794777,113.7767,-91.25484,69.47021,-0.8674786,-0.02943831,0.583815,9.289424,32.02747,-15.64672,1007.672
9.201442719,187.3089,-73.61771,126.7736,-0.8650033,0.008374783,0.4534817,9.289424,32.02747,-15.64672,1007.668
9.233615875,131.8373,-32.72086,179.5417,-0.8229771,0.4862079,0.6358507,9.965291,30.79537,-21.76542,1007.67
9.268263340,-52.26969,-21.41652,219.317,-1.058878,0.3422008,0.5660108,12.90539,25.71891,-27.94088,1007.668
9.300436497,-122.6689,-17.80624,247.1413,-1.047558,0.1561337,0.5513572,12.90539,25.71891,-27.94088,1007.668
9.335084438,-92.5066,-11.94692,263.0759,-1.161553,0.06503767,0.5608279,17.79319,22.19618,-29.73439,1007.667
9.367257118,-28.49611,-30.11672,262.2179,-1.231302,-0.163387,0.7919193,23.1576,20.22583,-28.85992,1007.667
9.401904583,73.41695,-33.60864,260.8083,-1.03346,-0.213991,0.840266,23.1576,20.22583,-28.85992,1007.663
9.434077263,106.5279,-0.9385101,262.463,-0.8367177,0.1560031,0.6703706,28.04539,16.7031,-30.65344,1007.661
9.468725205,33.42574,15.10063,264.3016,-0.7748231,0.5559797,0.5251167,29.9011,7.882571,-32.78796,1007.659
9.500898361,-80.40481,13.97611,246.1607,-0.7483005,0.4366,0.545093,29.9011,7.882571,-32.78796,1007.659
9.533071041,-146.0739,0.8962253,226.9166,-0.6984712,0.1917906,0.5536958,31.41769,-2.100526,-31.85445,1007.656
9.567718983,-149.3912,-19.58179,222.9329,-0.4698868,0.0869857,0.453817,29.87318,-7.824479,-34.0502,1007.654
9.599892140,-128.1977,-21.00223,205.1597,-0.2724692,0.04365865,0.5644056,29.87318,-7.824479,-34.0502,1007.656
9.634539127,-104.6698,-10.82241,184.8737,-0.1456295,-0.1987913,0.6769031,27.95882,-10.10718,-35.81449,1007.653
9.666712284,-62.15998,-2.714061,167.7133,-0.1386228,-0.3007367,0.8051732,25.29488,-11.61119,-37.13235,1007.653
9.701360226,-23.8274,-2.595691,138.5407,-0.1380163,-0.3151385,0.8262568,25.29488,-11.61119,-37.13235,1007.651
9.733532906,-3.985379,-2.891616,110.4712,-0.1323507,-0.2655703,0.8376985,23.01022,-12.35748,-38.39212,1007.65
9.768180847,-11.97133,-5.969236,86.69186,-0.06826662,-0.1448904,0.8559294,21.4966,-13.86136,-38.44069,1007.648
9.800354004,-39.00072,-8.987672,60.76746,-0.03562939,-0.08804473,0.8213895,21.4966,-13.86136,-38.44069,1007.648
9.835000992,-75.85896,-7.271307,36.31393,0.06491663,-0.06918382,0.8143408,19.2167,-16.1265,-39.24673,1007.648
9.867174626,-92.26088,-3.779391,22.46307,0.1022686,-0.1276021,0.8159207,18.01385,-16.49632,-39.68503,1007.648
9.901822090,-83.78348,3.145256,11.98299,0.141476,-0.1755167,0.8590218,18.01385,-16.49632,-39.68503,1007.648
9.933994770,-49.01387,7.761687,-0.4582795,0.08633348,-0.2632516,0.901711,17.68363,-13.45984,-41.03714,1007.648
9.968642712,-34.57773,10.89849,-9.896481,0.03866627,-0.190374,0.9432446,18.05155,-11.18977,-41.9428,1007.646
10.000815392,-34.94631,12.14138,-18.41538,0.008075792,-0.1248375,0.9879321,18.05155,-11.18977,-41.9428,1007.646
10.035463333,-34.14771,12.37812,-27.731,-0.02676735,-0.106505,1.013954,17.67464,-9.65987,-41.94831,1007.646
10.067636490,-33.47198,10.60257,-32.4501,0.008967048,-0.07470299,1.069795,17.68171,-7.748518,-41.51134,1007.644
10.099808693,-40.35218,13.08834,-31.46951,-0.01305335,-0.004531573,1.028645,18.06068,-6.229352,-41.52071,1007.648
10.134456635,-42.62511,15.57411,-26.44398,0.02683069,-0.008755814,1.073064,18.06068,-6.229352,-41.52071,1007.648
10.166629791,-31.07619,15.04144,-23.0119,-0.04097908,-0.04079854,1.091267,19.20156,-4.334105,-41.08954,1007.648
10.201277256,-36.91208,12.79241,-17.80251,-0.00748083,0.02992385,1.094429,19.19681,-2.815256,-41.54326,1007.648
10.233450413,-47.72383,11.37197,-10.32549,-0.02318914,-0.0435852,1.119034,19.19681,-2.815256,-41.54326,1007.648
10.268098354,-35.9292,9.241312,-8.854601,-0.04703134,-0.1255726,1.10894,19.20965,-0.8982189,-40.66,1007.648
10.300271034,-20.14158,3.914661,-10.01905,-0.06563462,-0.2038728,1.139798,20.34425,0.2290761,-40.67139,1007.648
10.334918499,-6.749748,0.2451902,-10.20292,-0.04918593,-0.1726533,1.107608,20.34425,0.2290761,-40.67139,1007.652
10.367091179,-9.206964,-3.009986,-10.20292,-0.03432782,-0.1662038,1.072337,19.9616,1.816816,-41.12349,1007.654
10.401739121,-11.11131,-2.418136,-9.09975,0.01708647,-0.1648111,1.034272,19.97341,2.209319,-40.23279,1007.654
10.433912277,-11.11131,-2.536506,-7.015991,-0.009915658,-0.202544,1.033249,19.97341,2.209319,-40.23279,1007.652
10.468560219,-10.06699,-2.832431,-6.525695,-0.003749344,-0.1954834,1.008668,19.97341,2.209319,-40.23279,1007.652
10.500732899,-7.548343,-1.7671,-6.280547,-0.01398854,-0.2215,0.9642053,19.97945,2.596138,-39.78837,1007.652
10.535380840,-10.68129,2.908516,-9.590046,-0.02221567,-0.1937955,0.9008865,19.97945,2.596138,-39.78837,1007.652
10.567553043,-17.93008,10.18827,-13.94142,-0.01376136,-0.1980074,0.8636589,19.96866,3.728168,-40.68651,1007.652
10.599726200,-15.16571,16.93537,-19.02825,-0.07357443,-0.2318141,0.8470683,19.98048,4.120671,-39.79581,1007.652
10.634374142,-5.828292,28.06215,-20.98943,-0.05378745,-0.1566775,0.7843612,19.98048,4.120671,-39.79581,1007.65
10.666546822,-24.99458,44.0421,-16.3929,-0.06543227,-0.08930489,0.7016394,20.35919,5.258703,-39.80333,1007.65
10.701194763,-42.13367,74.69994,-8.548166,-0.1040726,-0.1016922,0.580916,20.74868,5.264705,-38.9127,1007.65
10.733367443,-42.74797,100.623,6.038145,-0.1372117,-0.1339234,0.6600074,20.74868,5.264705,-38.9127,1007.65
10.768014908,-20.51016,132.3461,4.996265,-0.1423777,-0.3149394,0.5973493,22.66722,6.408875,-36.7603,1007.65
10.800188542,109.968,187.4474,4.873692,-0.3465048,-0.4999712,0.263221,25.33694,7.918569,-34.99616,1007.65
10.834836006,206.1681,185.5535,10.08309,-0.5270187,-0.08435622,0.4163055,25.33694,7.918569,-34.99616,1007.65
10.867008686,202.5437,212.1275,-5.545103,-0.7177113,0.3879499,0.5501905,29.92288,7.142232,-31.06287,1007.652
10.901656628,77.3485,208.1622,-9.467471,-0.802785,0.6240934,0.5910091,34.14646,2.577795,-25.70645,1007.654
10.933829308,-8.899813,205.6764,-10.50935,-0.9273536,0.3090093,0.437744,34.14646,2.577795,-25.70645,1007.654
10.968477249,-32.24337,192.9516,-6.770843,-0.9240042,0.08809029,0.3043056,38.75315,-1.669526,-19.97098,1007.654
11.000650406,-6.504026,162.2346,3.402803,-1.073583,0.05717059,0.2895404,41.1053,-2.380356,-13.41216,1007.656
11.035298347,-110.5671,103.819,-72.59311,-2.54678,-0.01674337,2.659655,42.31417,-1.17997,-7.685656,1007.656
11.067470551,-117.8159,-175.2975,-107.4654,-0.7672257,-0.7641345,1.487802,42.31417,-1.17997,-7.685656,1007.657
11.102118492,60.70084,17.46803,-31.28565,-0.9869444,-0.3692653,0.1203726,43.82041,-0.825995,-8.141532,1007.659
11.134291172,19.84962,-34.79234,-43.97206,-0.609767,0.603621,0.5152933,42.28841,3.42873,-9.939697,1007.659
11.166464329,-79.42192,7.406577,-36.80148,-0.4720356,-0.1473805,0.7762905,42.28841,3.42873,-9.939697,1007.661
11.201112270,-86.67071,-2.063025,-39.31425,-0.7763569,-0.4413805,0.5347427,42.28893,4.190997,-9.943419,1007.661
11.233284950,-27.02178,2.13911,-24.17636,-0.7395042,-0.8609579,0.5935997,42.29047,6.477798,-9.954584,1007.664
11.267932415,-17.25435,9.418867,-26.50526,-0.9063866,-0.02618609,0.5398609,42.29047,6.477798,-9.954584,1007.666
11.300105095,-83.84491,1.902371,-33.18555,-0.7897443,-0.2838266,0.3751786,41.92563,8.781338,-9.071253,1007.666
11.334753037,-55.58693,24.39268,-25.21824,-0.8586436,-0.7263684,0.3461452,42.30357,8.775969,-9.073187,1007.668
11.366926193,12.47797,39.36648,-23.44091,-0.8410186,-0.267312,0.595585,42.30357,8.775969,-9.073187,1007.668
11.401574135,-37.58782,39.3073,-35.02416,-0.779991,-0.3303037,0.3968765,42.31616,10.31187,-8.188068,1007.67
11.433746815,-15.10428,43.39106,-29.01803,-0.7304378,-0.427913,0.3594594,41.58968,11.1133,-5.956519,1007.67
11.468394756,-3.063923,52.80148,-30.30506,-0.73396,-0.1709208,0.5129588,41.58968,11.1133,-5.956519,1007.67
11.500566959,-36.48207,43.39106,-33.24684,-0.733999,-0.4517603,0.411834,41.98598,12.64952,-4.627054,1007.672
11.535214901,22.12255,62.62619,-21.72488,-0.7195953,-0.336921,0.2699745,41.25348,13.06413,-2.839925,1007.672
11.567388058,0.37618,58.06895,-23.86992,-0.9754713,-0.4349344,0.298064,41.25348,13.06413,-2.839925,1007.673
11.602035523,-14.18283,62.09353,-21.29587,-0.7364381,-0.4324421,0.460698,41.27076,14.22377,-1.570419,1007.673
11.634208679,-31.38334,64.5793,-17.43478,-0.7598726,-0.5584349,0.3461261,41.30042,15.3956,0.6554012,1007.673
11.668856621,-37.34209,61.73842,-14.12529,-0.8448845,-0.5114955,0.02099263,41.30042,15.3956,0.6554012,1007.673
11.701028824,-29.23328,52.56474,-7.322426,-0.9024037,-0.3772773,0.07999378,40.9574,15.81621,3.333158,1007.675
11.733202458,-72.91029,39.78078,-8.180444,-0.8818322,-0.6529072,0.1642894,39.85217,16.6222,5.502888,1007.675
11.767849922,-15.78002,48.24423,2.054489,-0.8652837,-0.6186582,0.08440545,39.85217,16.6222,5.502888,1007.677
11.800022602,-6.626887,46.4095,9.592793,-0.8167064,-0.4518251,0.0351996,39.1244,15.51796,7.74374,1007.677
11.834670544,-12.21705,50.31571,16.33437,-0.8463156,-0.6038574,0.1277304,39.51968,15.52964,9.080647,1007.677
11.866843224,3.263409,54.99133,16.39565,-0.9826466,-0.6806043,-0.03069001,39.51968,15.52964,9.080647,1007.679
11.901491165,17.20811,51.32185,20.62446,-0.8316945,-0.3306932,-0.06488181,39.16903,14.41922,11.25581,1007.68
11.933664322,26.23838,46.52787,25.71128,-0.8454832,-0.6231861,-0.1124724,38.05229,14.07125,12.60232,1007.676
11.968312263,44.79037,43.80536,27.54989,-0.8947803,-0.4117051,-0.09966498,38.05229,14.07125,12.60232,1007.68
12.000484467,20.2182,34.57249,30.92068,-0.9158906,-0.4455658,-0.09830115,38.06911,13.32604,13.94488,1007.676
12.035132408,49.88909,24.86616,34.47532,-0.8887511,-0.4066289,-0.2558472,38.08092,13.71854,14.83558,1007.676
12.067305088,25.56265,8.708647,38.15255,-0.9291563,-0.4126995,-0.1248984,38.08092,13.71854,14.83558,1007.678
12.101953030,25.13264,1.547261,46.18114,-0.8863438,-0.432412,-0.07292244,37.71402,12.97301,15.7338,1007.682
12.134126186,4.062005,1.251336,48.57134,-1.007832,-0.3911308,-0.1480864,37.70773,12.20506,15.29124,1007.682
12.168773174,27.34413,-23.31044,58.25469,-0.9734168,-0.3562512,-0.134624,38.4568,10.6641,14.84853,1007.682
12.200946331,19.48104,-26.86154,57.33538,-0.9610398,-0.3919722,-0.0381521,38.4568,10.6641,14.84853,1007.682
12.233119011,4.062005,-20.76549,60.95132,-0.9648727,-0.3062964,-0.07114998,39.20587,9.123148,14.40583,1007.682
12.267766953,11.24936,-27.74932,62.17706,-1.004019,-0.1388848,-0.1648405,40.71109,7.952589,13.95739,1007.684
12.299940109,-0.6067067,-38.22507,52.73886,-0.9663773,-0.2798046,0.02741035,40.71109,7.952589,13.95739,1007.684
12.334588051,14.68947,-30.5902,51.26797,-0.8860784,-0.2288122,0.2087953,40.69798,5.654418,13.076,1007.684
12.366760731,-49.56675,-22.18593,36.43651,-0.9677038,-0.08829106,0.1254015,41.44154,4.48891,12.18515,1007.684
12.401408672,-53.62115,-29.76161,33.06572,-0.9032422,-0.05806659,0.05805123,41.44154,4.48891,12.18515,1007.686
12.433580875,-20.20301,-18.45727,30.12395,-0.8913361,-0.1657093,0.01704676,41.42921,3.33414,11.29817,1007.687
12.468228817,10.38934,-3.601836,27.79504,-0.9616897,-0.1166321,0.0417258,42.1791,1.793996,10.91922,1007.689
12.500401974,6.642082,-7.448862,29.3885,-0.9843735,-0.007523461,0.07705894,42.1791,1.793996,10.91922,1007.691
12.535049439,1.297636,-10.053,28.95949,-0.9728351,-0.02131658,0.1211815,42.17778,-0.1751933,10.92883,1007.691
12.567222595,6.519221,-5.022276,31.77869,-0.9040986,0.1324984,0.09626222,42.17669,-0.557139,10.86694,1007.691
12.601870537,-13.26137,2.079925,34.41404,-0.839454,0.2083821,-0.02951726,42.17669,-0.557139,10.86694,1007.687
12.634042740,12.23225,19.24358,43.05551,-0.899756,0.04989095,-0.1020791,42.16989,-2.087358,10.4281,1007.687
12.668690682,12.47797,4.802436,3.157655,-1.115213,-0.4192975,0.09561108,42.54788,-3.235315,10.4955,1007.687
12.700863838,74.89127,23.03142,19.88901,-0.9551525,-0.1683791,0.3222439,42.54788,-3.235315,10.4955,1007.687
12.735511303,28.0813,35.81538,7.141311,-1.065512,0.4114178,0.03306987,42.17386,-4.749608,10.88741,1007.685
12.767684460,-41.82652,2.730961,-8.854601,-0.9736892,0.07848899,-0.02885356,41.80882,-3.96979,11.84194,1007.685
12.799857140,10.45077,14.21285,-14.37043,-0.8701643,-0.1733422,-0.01502569,41.80882,-3.96979,11.84194,1007.687
12.834505081,44.60608,27.29274,-3.216195,-0.9448579,0.1615186,-0.006266106,41.44136,-4.334998,12.67454,1007.687
12.866678238,-13.62995,15.69248,-5.974112,-1.043543,0.09956497,-0.04730798,41.45317,-3.942494,13.56524,1007.687
12.901326180,-3.985379,6.577986,-11.30608,-1.02372,-0.1525674,-0.06354952,41.45317,-3.942494,13.56524,1007.687
12.933498383,18.06814,9.833162,-11.24479,-1.005888,0.08107465,-0.02901379,40.70333,-3.544939,14.01353,1007.687
12.968146324,-9.514116,0.3635602,-15.04459,-0.9918855,0.002567942,-0.06690563,40.33142,-3.152752,14.45988,1007.685
13.000319004,-3.862519,-1.88547,-17.12835,-0.9531543,-0.0366293,-0.02662022,40.33142,-3.152752,14.45988,1007.685
13.034966946,-3.923949,-2.063025,-14.30915,-0.9654229,0.01607784,-0.06029318,40.7041,-2.401539,14.00794,1007.685
13.067140102,-7.794065,-7.093751,-14.43172,-1.007056,-0.01480411,-0.06353328,41.08755,-2.782355,14.45415,1007.679
13.101787090,-2.142467,-10.94078,-14.55429,-0.9942492,-0.05441177,-0.03023936,41.08755,-2.782355,14.45415,1007.679
13.133960247,-5.398279,-14.61025,-14.79944,-0.9914469,-0.07537132,0.02306364,41.08807,-2.020089,14.45043,1007.679
13.168608189,-8.346939,-12.30203,-14.61558,-0.9950637,-0.07505342,-0.0009999601,41.07703,-1.269191,13.55415,1007.678
13.200780869,-7.855495,-12.65714,-14.18657,-1.012542,-0.09180956,0.01782297,41.07703,-1.269191,13.55415,1007.678
13.235428810,-5.152557,-15.85313,-14.00271,-0.9915511,-0.1426822,0.04323568,41.44367,-0.9047961,12.65779,1007.678
13.267601967,4.492018,-8.277452,-10.99965,-0.945342,-0.1063353,0.06575812,41.81057,-0.1592673,11.75957,1007.678
13.299774647,1.359067,-2.654876,-12.10281,-1.038644,-0.1199824,0.06121422,41.43841,-0.1482139,12.20779,1007.678
13.334422588,3.693422,-8.455007,-14.86073,-1.073348,-0.1527444,0.07042594,41.43841,-0.1482139,12.20779,1007.678
13.366594791,3.079118,-8.455007,-16.08647,-0.99215,-0.1341512,0.1421215,41.43288,0.2272347,11.75965,1007.676
13.401242733,-12.52421,-4.193686,-18.04766,-0.9584736,-0.2367932,0.1342131,41.81686,0.6086845,12.20214,1007.676
13.433415890,27.2827,-0.1691049,-14.92202,-0.9929826,-0.3703691,0.09921192,41.81686,0.6086845,12.20214,1007.676
13.468063355,43.31604,18.0007,-17.43478,-0.9729318,-0.1810945,0.3613469,41.81742,1.434474,12.1981,1007.676
13.500236511,-54.1126,15.33737,-37.47564,-1.139492,-0.3075494,0.3464346,41.81794,2.196741,12.19438,1007.678
13.534884453,-65.8458,-17.39194,-55.18759,-1.068205,-0.5972629,0.0845473,41.81794,2.196741,12.19438,1007.678
13.567056656,57.87505,-4.607981,-36.12733,-0.8006423,-0.5755479,-0.200222,41.4468,3.732328,12.63515,1007.678
13.601704598,187.6161,-32.01064,-75.9639,-0.991816,-0.4588784,-0.3001422,40.69721,4.511017,13.08158,1007.678
13.633877754,132.8202,-57.75613,-65.42253,-0.7920735,0.0817897,0.3276046,40.69721,4.511017,13.08158,1007.678
13.668525219,122.2541,-72.31564,-70.57064,-0.9942382,-0.7770756,-0.08584309,40.68219,7.924164,11.72599,1007.676
13.700698376,283.6318,-80.48317,-71.42866,-0.8006976,-0.6766269,-0.2159968,40.6454,12.07765,8.645313,1007.674
13.735346317,343.7108,-33.66782,-41.58187,-0.6569723,0.1085052,-0.2754531,40.6454,12.07765,8.645313,1007.674
13.767518997,227.5459,-15.43884,-32.57268,-0.604785,0.3909961,-0.2413172,40.57915,16.58303,3.267616,1007.673
13.802166462,103.0878,50.19734,-15.84132,-0.6005066,0.121932,-0.008359614,40.12872,19.18324,-2.481369,1007.673
13.834340096,18.62101,70.61617,3.893099,-1.057206,0.1055839,0.4729466,40.12872,19.18324,-2.481369,1007.673
13.866512299,12.23225,35.28271,18.11169,-1.230566,-0.007454663,0.745962,39.36263,19.94569,-3.310029,1007.673
13.901160240,-76.16611,33.21124,2.177063,-1.255171,-0.2624341,0.2056961,39.74552,19.9452,-2.929438,1007.673
13.933332920,16.59381,24.33349,4.015673,-1.044064,-0.3844409,0.06679658,39.74552,19.9452,-2.929438,1007.673
13.967980862,-2.818201,39.54404,3.096368,-1.039453,0.03525066,0.2384313,40.15184,19.20598,-0.6962452,1007.673
14.000154018,-34.94631,23.09061,-4.870945,-0.9518181,-0.3013397,0.2025448,40.17495,19.22872,1.088877,1007.673
14.034801006,10.5122,44.21965,6.834876,-0.7975922,-0.1140542,0.2301236,40.17495,19.22872,1.088877,1007.674
14.066974163,-35.00774,36.22968,3.647951,-0.9646104,-0.288911,0.3584524,39.80831,18.86433,1.985231,1007.673
14.101622105,1.543358,36.99908,5.792997,-0.8992231,-0.3727847,0.224119,39.82456,18.49944,3.26218,1007.673
14.133794785,14.01373,45.87683,5.670423,-0.8920521,-0.2622564,0.2109853,39.82456,18.49944,3.26218,1007.671
14.168442726,16.53238,49.01364,1.319044,-1.012877,-0.3190203,0.2622547,39.09153,18.15178,5.05303,1007.673
14.200615883,14.50517,45.2258,-6.83213,-0.9457358,-0.4224267,0.1137659,39.10335,18.54428,5.943731,1007.673
14.235262871,66.59818,56.64851,-5.912825,-0.8458549,-0.1629444,0.02724916,39.49837,18.17484,7.282499,1007.673
14.267436504,21.07823,54.6954,-4.56451,-1.005789,-0.04474944,0.3343396,39.49837,18.17484,7.282499,1007.673
14.302083969,-22.47593,39.3073,-1.68402,-0.9316897,-0.3244286,0.05371077,38.7543,18.57808,8.177067,1007.673
14.334256649,16.40952,47.71157,-1.806594,-0.9477934,-0.1469161,0.02592249,38.77685,18.98114,9.896576,1007.673
14.366429806,2.526245,43.74617,-3.95164,-1.032415,-0.07611328,0.0263318,38.77685,18.98114,9.896576,1007.673
14.401077271,-8.162647,34.45412,-4.56451,-1.009058,-0.3184093,-0.09686551,38.03278,19.38438,10.79114,1007.671
14.433250427,18.12957,34.63168,-7.199852,-1.059516,-0.288393,-0.07638525,38.04986,19.0203,12.13185,1007.671
14.467898369,-3.862519,22.02528,-11.91895,-1.063117,-0.2619846,-0.05299798,38.04986,19.0203,12.13185,1007.671
14.500070572,28.32702,20.66402,-10.20292,-0.9300006,-0.1326257,-0.1866875,36.93941,19.44028,13.92091,1007.675
14.534718514,-18.9744,11.72708,-11.61252,-0.9700972,-0.1591344,-0.1253179,36.93389,19.81573,13.47277,1007.675
14.566891670,-12.83136,4.447326,-10.57064,-0.870883,-0.2865926,-0.1619985,36.93389,19.81573,13.47277,1007.675
14.601539135,-28.55754,1.251336,-7.567574,-0.8251699,-0.1062218,-0.09394009,36.18956,19.83783,14.3692,1007.675
14.633712292,-38.07926,5.926951,-6.403121,-0.8251593,-0.3160811,0.008923595,35.81162,19.8432,14.37113,1007.677
14.668360233,-37.34209,11.96382,-2.29689,-0.8337129,-0.3090207,-0.02516035,35.81162,19.8432,14.37113,1007.677
14.700532913,-20.3873,26.10904,-3.338769,-0.9323028,-0.2751038,-0.1594026,35.07256,19.10873,15.71756,1007.679
14.735180378,-26.71463,24.86616,-6.893417,-1.043481,-0.3325774,-0.005081219,35.08464,19.88236,16.6064,1007.679
14.767354012,-5.52114,31.25814,-3.95164,-0.9540419,-0.2549304,-0.2009674,35.08464,19.88236,16.6064,1007.677
14.802001000,-7.732635,33.38879,-4.074214,-1.016554,-0.3141057,-0.236058,33.9616,18.76644,17.51035,1007.677
14.834174156,-4.783975,39.07056,-0.3969924,-0.9627004,-0.2943506,-0.2831515,34.74002,19.15876,19.22599,1007.677
14.868822098,3.079118,39.24811,-0.09055731,-0.9332587,-0.2301087,-0.1787848,34.74002,19.15876,19.22599,1007.679
14.900994778,-3.985379,35.51945,4.07696,-0.9119788,-0.3487896,-0.2604557,33.61172,18.79942,19.67993,1007.679
14.933167934,6.089209,36.76234,6.95745,-0.9009221,-0.2436166,-0.2731877,33.25138,19.20298,21.01884,1007.677
14.967814922,-9.821268,30.01525,9.531506,-0.9426103,-0.3466006,-0.2481018,33.25138,19.20298,21.01884,1007.675
14.999988079,6.33493,24.86616,12.35071,-0.9123453,-0.2113057,-0.3706607,32.50654,18.46281,21.91899,1007.673
15.034636021,-5.459709,24.6886,11.9217,-0.9948672,-0.2757406,-0.3453579,32.12886,18.84932,21.91907,1007.673
15.066808701,-11.72561,21.78854,14.43447,-0.9622791,-0.291475,-0.3506117,32.12886,18.84932,21.91907,1007.673
15.101456642,-11.97133,17.40885,16.45694,-0.8985143,-0.2068693,-0.3529192,31.77351,18.11516,23.70985,1007.673
15.133629799,-2.203897,16.46189,16.21179,-0.900405,-0.175893,-0.3025182,30.64362,16.6116,24.10562,1007.672
15.168276787,-6.258305,19.06603,17.31496,-0.9275555,-0.174108,-0.3403281,30.64362,16.6116,24.10562,1007.676
15.200450420,-11.04988,18.23744,16.27308,-0.9144008,-0.3303481,-0.3253509,30.6494,16.61729,24.5519,1007.676
15.235097885,-5.951152,18.0007,15.2312,-0.9066238,-0.142344,-0.3619516,31.03368,16.23728,25.06186,1007.673
15.267270565,-17.74579,18.35581,17.1311,-0.9041448,-0.1378938,-0.4756899,31.03368,16.23728,25.06186,1007.673
15.301918507,-16.1486,14.92307,16.15051,-0.9491191,-0.2412636,-0.3768305,31.0439,15.48557,25.89439,1007.673
15.334091663,-20.69445,9.478052,12.412,-0.9113679,-0.08997075,-0.3711155,31.04364,15.10444,25.89625,1007.672
15.368739128,-31.50621,9.004572,12.10556,-0.8496413,-0.09147196,-0.4001418,30.67675,14.35891,26.79447,1007.672
15.400912285,-19.52727,9.182127,9.163783,-0.9039327,-0.1232312,-0.399415,30.67675,14.35891,26.79447,1007.672
15.433084488,-21.1859,12.37812,7.815468,-0.8807631,-0.08493051,-0.3901575,31.05943,12.83469,27.24625,1007.672
15.467732430,-24.50314,13.44345,11.9217,-0.8427203,-0.1363968,-0.3678008,30.68702,12.46461,27.69633,1007.672
15.499905586,-14.36712,14.56796,11.79913,-0.8601433,-0.1613234,-0.3384418,30.68702,12.46461,27.69633,1007.673
15.534553051,-12.89279,18.88847,12.28942,-0.8720314,-0.02357094,-0.484205,30.69202,11.3269,28.14819,1007.673
15.566726208,-29.72472,19.48032,22.7695,-0.9477827,-0.08370601,-0.5264099,29.5695,10.97324,29.04842,1007.673
15.601374149,-20.3873,19.42114,23.68881,-0.9960801,-0.09026062,-0.4633533,29.5695,10.97324,29.04842,1007.675
15.633546829,-32.42766,17.64559,21.17604,-1.003135,-0.07294618,-0.6144926,29.58524,9.846081,30.32909,1007.675
15.668194294,-40.72077,26.16823,27.73375,-0.9752633,0.2538217,-0.7079767,29.96292,9.459579,30.32901,1007.675
15.700367928,-61.97569,28.53563,36.13007,-0.9732862,0.09660035,-0.5126355,29.96292,9.459579,30.32901,1007.673
15.735014916,-95.08668,36.34805,32.94315,-0.9866262,0.07137088,-0.519949,28.83442,7.576514,30.85416,1007.673
15.767188072,-134.0336,42.32573,21.66634,-0.8999648,0.2525406,-0.57373,28.47119,4.930191,32.1442,1007.673
15.801836014,-147.3025,31.67243,3.647951,-0.9122538,0.03543508,-0.5373272,28.47119,4.930191,32.1442,1007.673
15.834008694,-123.959,19.65788,-15.59617,-0.9182412,0.1604395,-0.3810369,27.34631,1.082809,33.06148,1007.673
15.868656635,-152.4012,6.400431,-45.38167,-0.8660559,0.2025948,-0.2307925,25.84957,-2.308864,34.4248,1007.672
15.900828839,-195.2797,-1.41199,-73.88014,-0.9239956,0.2257307,-0.2262052,25.84957,-2.308864,34.4248,1007.672
15.935476780,-213.2788,-26.44725,-90.05991,-0.9646714,0.1938223,-0.1730687,26.21967,-5.368986,33.99147,1007.67
15.967649937,-239.6939,-33.84538,-106.9751,-0.8979592,0.4296759,-0.07197294,26.56564,-9.976379,31.78047,1007.668
15.999822617,-350.6986,-38.93529,-118.3745,-0.8592122,0.6380805,-0.1496643,26.56564,-9.976379,31.78047,1007.668
16.034470558,-452.0588,-31.0045,-128.1804,-0.8495322,0.5089958,-0.3291586,28.04123,-13.46135,29.17555,1007.666
16.066643715,-450.4002,-23.01452,-141.2346,-0.8564075,0.4635721,-0.3704389,29.45777,-18.90884,22.11713,1007.666
16.101290703,-408.2589,-4.312056,-164.2172,-0.9412352,0.04016657,-0.4459199,29.45777,-18.90884,22.11713,1007.666
16.133464336,-236.9295,-0.34666,-154.7177,-0.9888603,-0.3380128,-0.2972454,33.10123,-24.80947,11.925,1007.664
16.168111801,-1.835315,3.263626,-122.0517,-1.121344,-0.1163584,-0.02570813,35.66045,-25.69378,5.284731,1007.664
16.200284481,77.7785,-11.71018,-101.827,-1.03025,0.1536911,0.05664409,35.66045,-25.69378,5.284731,1007.664
16.234932423,75.01414,-8.218266,-88.58903,-1.014693,0.2237523,-0.1005373,38.67473,-22.31789,4.359953,1007.663
16.267105579,52.83775,-8.987672,-75.9639,-0.9698028,0.2583413,-0.118023,39.82794,-19.26788,5.678108,1007.663
16.301753044,24.08832,-2.950801,-59.4164,-0.8741362,0.2176732,0.0200469,39.82794,-19.26788,5.678108,1007.661
16.333926201,-6.381166,3.796291,-46.05582,-0.8675629,0.09844615,0.04695862,41.72599,-15.4777,6.096109,1007.661
16.368574143,-13.3228,4.447326,-32.69525,-0.8780003,-0.02639867,0.0267468,42.10573,-12.81513,6.081152,1007.661
16.400746346,-0.2381242,1.784001,-21.47973,-0.875259,-0.03432012,0.008339937,42.86264,-11.30134,6.069839,1007.659
16.435394287,-10.18985,3.204441,-11.48994,-0.899956,-0.03792898,0.09096254,42.86264,-11.30134,6.069839,1007.659
16.467566967,-39.00072,1.547261,-6.464408,-0.9632491,-0.08241562,0.0719064,43.24712,-10.15762,6.508606,1007.657
16.499740124,-56.81554,-1.589545,-2.603325,-0.9827995,-0.1528728,-0.01380593,43.24135,-10.1633,6.062325,1007.657
16.534388065,-62.83572,-1.88547,1.748053,-0.9779597,-0.162084,-0.07224896,43.24135,-10.1633,6.062325,1007.657
16.566560745,-78.50047,-0.5834,-1.745307,-0.9909026,-0.2386568,-0.06552947,43.61325,-10.55549,5.615973,1007.657
16.601208210,-71.25168,1.19215,-7.383713,-1.006337,-0.3471795,-0.04941015,42.85134,-10.93157,5.175419,1007.657
16.633381844,-42.31796,2.49422,-10.14163,-0.9135789,-0.3785533,-0.02980834,42.85134,-10.93157,5.175419,1007.656
16.668028832,-2.081037,7.229022,-15.9639,-0.8946973,-0.4362544,-0.1360181,43.21798,-10.56718,4.279062,1007.654
16.700201988,26.79126,11.84545,-20.80557,-0.8871807,-0.5032533,-0.1964085,43.59566,-10.95368,4.27899,1007.652
16.734849930,51.17913,19.9538,-26.62784,-0.9385869,-0.5467089,-0.1370012,43.59566,-10.95368,4.27899,1007.652
16.767022610,37.11156,23.20898,-41.27544,-0.949349,-0.5718251,-0.1279498,43.60221,-9.804592,4.719688,1007.65
16.801670551,20.40249,23.97838,-58.37452,-1.038727,-0.6995582,-0.1329889,43.61428,-9.030956,5.608528,1007.65
16.833843708,25.2555,9.359682,-86.75041,-1.030659,-0.8656331,-0.1378073,43.61428,-9.030956,5.608528,1007.649
16.868490696,32.44285,8.590277,-106.2397,-0.8751279,-0.6481093,-0.02756938,44.01636,-7.489051,7.384274,1007.649
16.900663853,36.68155,7.347392,-109.6105,-0.8369086,-0.5087768,-0.2509071,44.40214,-4.439667,7.813736,1007.649
16.935311794,92.7061,4.151401,-91.40823,-0.817434,-0.324154,-0.4038066,44.40214,-4.439667,7.813736,1007.645
16.967484474,107.4494,-11.29589,-70.99965,-0.7948031,-0.2372062,-0.1917032,44.41075,-0.2415137,8.239546,1007.643
16.999657631,109.5995,-5.554941,-47.83315,-0.7178881,-0.3011076,-0.1833077,44.03593,4.400979,8.218842,1007.643
17.034304619,132.3287,6.518801,-20.62171,-0.7334516,-0.3126256,-0.1133675,44.03593,4.400979,8.218842,1007.642
17.066478252,109.1694,15.51492,17.06981,-0.9166819,-0.2301675,-0.2387079,44.77628,7.041122,6.863108,1007.642
17.101125717,51.17913,-14.7878,33.92374,-0.8810603,-0.5707788,-0.07411245,44.7723,9.703371,6.403801,1007.642
17.133298397,35.94439,-6.501902,43.30066,-1.125246,-0.5051646,0.2207987,44.7723,9.703371,6.403801,1007.642
17.167946339,-19.65014,-26.56562,30.67553,-1.186422,-0.5605575,0.110535,44.00435,8.940472,5.518829,1007.644
17.200119495,13.338,-35.68011,16.27308,-1.052311,-0.5432999,-0.08289196,44.74791,7.774965,4.627983,1007.64
17.234766960,27.46699,-18.7532,15.41506,-0.9174617,-0.2964199,0.1073109,44.74791,7.774965,4.627983,1007.638
17.266940117,-16.88577,-7.803972,21.29861,-0.8151582,-0.2657312,0.1875852,45.49698,6.234009,4.185276,1007.638
17.301588059,-9.268394,5.867766,38.52027,-0.7877858,-0.4779635,0.06315223,45.86444,6.599216,3.352676,1007.638
17.333760262,53.20633,4.092216,49.06163,-0.7028001,-0.3347347,0.06064802,45.86444,6.599216,3.352676,1007.636
17.368408203,17.33097,2.790146,49.24549,-0.6859599,-0.2611262,0.1126717,45.48548,5.08005,3.362053,1007.636
17.400581360,-44.09944,-7.922342,48.2649,-0.6232055,-0.4468247,0.1789991,45.48362,3.554704,3.30574,1007.636
17.435228825,-61.48425,-7.271307,31.41097,-0.6089527,-0.8722318,0.222595,46.23352,2.014561,2.92679,1007.636
17.467401981,-32.85767,3.677921,1.012609,-0.6526812,-1.074902,0.2854381,46.23352,2.014561,2.92679,1007.636
17.502049923,5.966348,16.93537,-33.00169,-0.6570703,-0.9419705,0.3376669,46.22115,0.7962682,2.040121,1007.636
17.534222126,17.63813,17.70477,-63.40005,-0.7741089,-0.7677146,0.2630757,45.48101,-0.3201528,3.324659,1007.635
17.566395760,16.22523,8.412722,-79.08954,-0.8552131,-0.6426399,0.1911177,45.48101,-0.3201528,3.324659,1007.633
17.601042748,18.9896,-2.595691,-79.64112,-0.9010396,-0.5727373,0.1627196,45.49441,2.422674,4.203884,1007.633
17.633215904,32.38142,-6.146791,-74.5543,-0.9092153,-0.4140135,0.1583204,46.25787,5.085556,4.633272,1007.633
17.667863846,19.91105,-8.810117,-63.58392,-0.9010449,-0.2841261,0.138589,46.25787,5.085556,4.633272,1007.633
17.700036526,-9.452686,-6.383532,-47.64929,-0.8535281,-0.2111774,0.124769,45.87646,8.515441,4.172178,1007.631
17.734684467,-34.70059,-3.601836,-21.05072,-0.7652433,-0.235312,0.07313632,44.73238,10.42584,3.276115,1007.631
17.766857624,-32.3048,4.861621,9.654079,-0.7739908,-0.2990663,0.1083603,44.73238,10.42584,3.276115,1007.635
17.801504612,-0.6681371,1.961555,31.2884,-0.8910635,-0.4366689,0.06445635,45.1069,12.7024,2.880491,1007.635
17.833677769,24.14975,-1.352805,42.93293,-0.9089167,-0.3977094,0.06976412,44.74445,11.19948,4.164955,1007.635
17.868325710,13.46086,-2.122211,47.40689,-0.941953,-0.372786,0.1334198,44.74445,11.19948,4.164955,1007.635
17.900498390,-3.985379,-4.489611,46.91659,-0.9772986,-0.4294173,0.1940147,45.49486,10.4216,3.782282,1007.635
17.935146332,-24.50314,-7.330492,43.36194,-0.9225264,-0.4160428,0.2013258,45.49249,8.133991,3.729694,1007.635
17.967319489,-41.21221,-9.993817,41.2169,-0.8998664,-0.4255951,0.1730797,45.49249,8.133991,3.729694,1007.635
18.001966476,-59.7642,-12.00611,43.97481,-0.841655,-0.4069344,0.2387243,45.49229,6.61027,3.80089,1007.635
18.034139633,-78.86905,-7.271307,47.3456,-0.8484423,-0.4261653,0.1952491,45.86888,5.841822,3.738924,1007.637
18.068787575,-76.22754,-12.65714,51.32925,-0.8712212,-0.4993365,0.1331625,45.86888,5.841822,3.738924,1007.637
18.100960255,-40.10646,-13.24899,55.43549,-0.8629501,-0.5772174,0.1097893,45.48419,3.174383,3.371357,1007.635
18.133133411,-5.152557,-7.508047,57.2741,-0.8613178,-0.5036065,0.1523149,46.22145,1.240924,2.037951,1007.635
18.167780876,-4.661114,-3.897761,53.90331,-0.8829327,-0.4248831,0.2134155,46.22145,1.240924,2.037951,1007.635
18.199954033,-21.73877,-1.826285,49.98094,-0.887147,-0.3947185,0.2199695,45.84796,-0.7172124,2.495779,1007.635
18.234601975,-40.35218,-3.305911,41.76848,-0.8883722,-0.4070294,0.1962615,46.22436,-3.009382,2.505011,1007.635
18.266774178,-44.89804,-2.832431,33.92374,-0.8681076,-0.4078251,0.1690738,46.22436,-3.009382,2.505011,1007.641
18.301422119,-45.0209,-0.05073489,25.77257,-0.830836,-0.4024853,0.1302101,45.46115,-5.291131,2.073761,1007.641
18.333595276,-41.51936,4.979991,20.19545,-0.8144006,-0.3920713,0.1065246,46.21022,-6.832087,1.631054,1007.641
18.368242741,-32.05908,13.85774,19.15357,-0.7696857,-0.3861723,0.08205605,46.21022,-6.832087,1.631054,1007.641
18.400415897,-17.68436,22.26202,22.15663,-0.7753633,-0.4004507,0.05210735,45.83151,-7.970119,1.638571,1007.641
18.435063839,6.826374,26.10904,25.77257,-0.8440472,-0.4691097,0.04206022,45.07538,-8.340515,1.644299,1007.641
18.467236042,23.59688,24.33349,26.63058,-0.9341305,-0.4554271,0.05891958,45.07538,-8.340515,1.644299,1007.641
18.501883984,16.04094,17.40885,20.07287,-0.9546126,-0.4514443,0.05866153,44.71952,-9.836941,3.438801,1007.641
18.534057140,6.2735,10.24746,6.099432,-0.9768705,-0.4641792,0.02936226,45.10247,-10.98003,3.888727,1007.641
18.568704605,-8.776952,4.447326,-15.35103,-0.9409631,-0.4312153,0.04713295,44.72953,-12.11237,4.342525,1007.641
18.600877762,-27.32894,4.447326,-33.79842,-1.00404,-0.4489092,0.04082766,44.72953,-12.11237,4.342525,1007.641
18.633050442,-29.97044,-5.614126,-52.36839,-1.008689,-0.5341918,-0.006585987,44.35706,-11.33986,4.723265,1007.641
18.667698383,-6.504026,-1.53036,-68.30302,-0.9792545,-0.617779,-0.06394368,44.72422,-10.2132,3.823187,1007.641
18.699871540,8.915008,9.833162,-84.4828,-1.036631,-0.5940937,-0.05068105,44.72422,-10.2132,3.823187,1007.641
18.734519482,10.20505,20.30891,-96.06604,-1.083124,-0.5118148,-0.04812292,45.86484,-8.699089,4.256222,1007.641
18.766691685,4.8606,22.38039,-101.2754,-1.021554,-0.6130744,-0.04760421,45.495,-5.257833,4.687691,1007.641
18.801339626,25.50122,27.29274,-97.96594,-0.9212016,-0.6301733,-0.06024956,45.495,-5.257833,4.687691,1007.641
18.833512306,48.2919,32.02754,-89.56962,-0.8617229,-0.5797832,-0.03339717,45.89284,-1.434812,6.005989,1007.641
18.868160248,68.0725,24.6886,-80.31528,-0.8303444,-0.4821238,-0.06325081,45.90727,2.832548,6.877775,1007.645
18.900333405,69.73112,16.4027,-66.34184,-0.8584914,-0.4088592,-0.02189622,45.90727,2.832548,6.877775,1007.645
18.934980392,51.60914,-9.638707,-52.18453,-0.9054187,-0.4014456,-0.03489321,45.92088,5.892985,7.755449,1007.646
18.967153549,49.82766,-28.69628,-38.45623,-0.8052378,-0.4636354,-0.1043026,45.16758,9.715057,7.740709,1007.648
19.001801491,64.38667,-33.25353,-23.37963,-0.8057599,-0.359734,-0.1005492,45.16758,9.715057,7.740709,1007.646
19.033974171,36.49726,-36.33115,-10.38678,-0.8534909,-0.2699896,-0.07478196,44.76781,11.60335,5.948215,1007.646
19.068622112,-15.5343,-41.00677,3.46409,-0.7968936,-0.2852704,-0.06868806,44.74599,13.48628,4.15379,1007.646
19.100795269,-23.95026,-26.86154,19.33743,-0.8557761,-0.3785649,-0.1199997,44.74599,13.48628,4.15379,1007.642
19.135442257,-18.85154,-28.04524,32.82058,-0.8864601,-0.4223628,-0.09163649,44.72948,13.47004,2.878702,1007.642
19.167615891,-9.022674,-18.39809,48.44876,-0.8653152,-0.5093629,-0.0303731,45.0956,13.07217,1.986069,1007.648
19.199788094,11.74081,-6.383532,63.40279,-1.00041,-0.4912109,-0.02944487,45.0956,13.07217,1.986069,1007.648
19.234436035,-5.951152,-8.395822,76.33435,-1.017215,-0.3647019,0.0001928508,45.84442,11.15008,1.545223,1007.648
19.266609192,-39.67645,-13.42655,82.95335,-0.9674602,-0.4051039,0.01722949,45.83106,8.470774,0.6656876,1007.648
19.301257134,-42.93226,-12.36122,85.83384,-0.8136892,-0.5030541,0.128739,45.83106,8.470774,0.6656876,1007.65
19.333429813,-38.75499,3.737106,85.40483,-0.8092052,-0.5228186,0.1492602,46.21298,5.803156,1.12306,1007.65
19.368077755,-27.94324,3.677921,83.13721,-0.8169574,-0.4961702,0.2011262,46.57153,2.731665,-0.2028294,1007.65
19.400249958,-18.85154,3.026886,80.93088,-0.8204901,-0.4798554,0.2374436,46.57153,2.731665,-0.2028294,1007.651
19.434897900,-3.432506,-0.524215,79.27613,-0.858076,-0.4554997,0.2244991,46.58099,-0.3695552,0.7049274,1007.651
19.467071056,5.106322,-5.199831,80.3793,-0.8567548,-0.4131202,0.2450802,46.20047,-4.175522,0.7254696,1007.651
19.501718521,1.359067,-4.726351,78.29554,-0.9252873,-0.390768,0.2671119,46.20047,-4.175522,0.7254696,1007.653
19.533891678,-16.76291,-10.88159,71.55396,-0.9326276,-0.3462992,0.301287,46.57058,-7.235643,0.292141,1007.653
19.568539620,-37.46496,-9.342782,63.28022,-0.931161,-0.3520695,0.2462777,45.8066,-10.66079,-0.1335258,1007.653
19.600712299,-44.40659,-8.928487,52.37114,-0.9429741,-0.3395306,0.2281754,44.65917,-13.70513,-1.0054,1007.653
19.635359764,-55.40264,-9.579522,39.99116,-0.955798,-0.3599012,0.2218611,44.65917,-13.70513,-1.0054,1007.653
19.667532921,-49.44389,-7.922342,27.85633,-0.9188949,-0.3873331,0.2130966,44.6521,-15.61648,-1.442376,1007.649
19.699705601,-44.40659,-4.785536,17.37625,-0.9014209,-0.3686464,0.1928436,43.87342,-16.38993,-3.156155,1007.647
19.734353542,-32.91911,1.19215,6.283293,-0.8712525,-0.3804817,0.1881266,43.87342,-16.38993,-3.156155,1007.647
19.766526222,-26.89892,7.998427,-5.974112,-0.8878413,-0.373143,0.1849679,43.10522,-17.53397,-4.039267,1007.647
19.801174164,-25.73174,14.33122,-13.38984,-0.9070193,-0.342233,0.1526257,43.11017,-17.52909,-3.65674,1007.647
19.833347321,-25.79318,14.09448,-18.17023,-0.9012844,-0.3684849,0.1509098,43.11017,-17.52909,-3.65674,1007.649
19.867995262,-13.81425,17.46803,-22.5829,-0.8363619,-0.4127946,0.1745206,43.48341,-17.1582,-4.043061,1007.647
19.900167465,4.123435,27.41111,-20.74428,-0.9122624,-0.422328,0.1481583,43.48919,-17.15252,-3.59678,1007.647
19.934815407,22.12255,20.24973,-18.53795,-1.024312,-0.438486,0.1206327,43.48919,-17.15252,-3.59678,1007.647
19.966988087,31.82855,13.44345,-20.98943,-1.04495,-0.4133675,0.09163034,44.26787,-16.37906,-1.883,1007.647
20.001636028,22.73685,9.596422,-29.01803,-1.025907,-0.3829871,0.07820712,44.65262,-14.85421,-1.446097,1007.647
20.033809185,18.92817,16.93537,-43.17533,-1.025806,-0.4346001,0.0570547,44.65262,-14.85421,-1.446097,1007.646
20.068456173,32.99573,20.78239,-65.17738,-1.029801,-0.4380485,0.04790556,44.2865,-14.45634,-0.553463,1007.646
20.100629330,47.61617,21.72935,-82.03131,-1.006012,-0.41265,0.020901,45.81636,-13.31736,0.7720604,1007.644
20.135277271,53.75921,21.96609,-94.90159,-0.9325302,-0.4141696,-0.002933161,45.81636,-13.31736,0.7720604,1007.644
20.167449951,60.88514,21.96609,-99.13039,-0.8896828,-0.4236207,-0.06799881,45.82971,-10.63805,1.651596,1007.644
20.202097893,70.77544,22.14365,-99.37554,-0.8930783,-0.4825059,-0.1532845,46.61128,-6.814716,3.414246,1007.644
20.234271050,87.17736,22.3212,-94.77901,-0.9222887,-0.5509269,-0.169964,46.61128,-6.814716,3.414246,1007.644
20.266443729,100.5078,22.55794,-82.88934,-1.001524,-0.5579892,-0.1297589,46.62484,-2.61169,4.222582,1007.646
20.301091671,80.48145,7.229022,-77.31221,-1.042415,-0.5625294,-0.1154368,46.26159,2.042173,5.094439,1007.646
20.333263874,57.62932,4.979991,-75.59618,-0.8934385,-0.5911529,-0.1435728,46.26159,2.042173,5.094439,1007.646
20.367911816,46.38756,14.50878,-75.53489,-0.8979715,-0.5656302,-0.1727221,45.89174,5.483428,5.525908,1007.646
20.400084972,45.52753,11.43116,-80.00884,-0.8638374,-0.5687618,-0.1161905,45.88827,8.907944,5.062878,1007.646
20.434732914,44.8518,22.02528,-80.43785,-0.8291862,-0.5433389,-0.07003227,45.88827,8.907944,5.062878,1007.647
20.466905594,29.06418,25.1029,-73.57371,-0.8160485,-0.4607861,-0.05646031,44.76281,12.74107,5.496355,1007.647
20.501553536,8.792147,31.73162,-60.70342,-0.7787775,-0.4138972,-0.05738553,44.00924,16.18201,5.483475,1007.647
20.533726215,14.50517,39.54404,-45.56553,-0.7672923,-0.4171004,-0.02474314,44.00924,16.18201,5.483475,1007.647
20.568373680,10.26648,39.72159,-29.01803,-0.8637542,-0.3604174,0.0253062,42.89456,18.8831,6.815094,1007.646
20.600546837,1.604788,27.17437,-7.383713,-0.8931535,-0.3947142,0.02770777,41.39564,20.82161,7.706087,1007.646
20.635194302,6.457791,6.518801,18.11169,-0.8713795,-0.4549547,0.03471996,40.65184,21.60599,8.598793,1007.646
20.667367458,13.15371,-9.816262,35.21077,-0.8913923,-0.491165,0.1098001,40.65184,21.60599,8.598793,1007.646
20.702015400,7.194956,-29.16976,45.99728,-0.9033607,-0.4769078,0.1885952,41.41298,20.83867,9.044928,1007.646
20.734188080,-35.7449,-40.8884,57.88697,-0.9244098,-0.412623,0.2659595,41.77333,20.43511,7.706013,1007.647
20.766361237,-74.01604,-53.9091,64.62853,-0.8702375,-0.5327006,0.1502302,41.77333,20.43511,7.706013,1007.647
20.801009178,-85.50353,-60.41945,68.30576,-0.7401987,-0.5906414,0.1475752,43.26646,18.49092,6.36874,1007.646
20.833181381,-70.26879,-53.61317,71.24753,-0.7025813,-0.6657059,0.1306994,44.00873,15.41974,5.487196,1007.647
20.867829323,-38.20212,-47.9906,78.66326,-0.7056577,-0.6266946,0.1522577,44.00873,15.41974,5.487196,1007.647
20.900002003,-32.91911,-47.16201,83.07593,-0.6486018,-0.6647323,0.1658717,45.50218,12.71409,4.2174,1007.647
20.934649944,-13.13851,-37.81078,91.41096,-0.669525,-0.6950005,0.1296674,46.23866,9.63723,2.889574,1007.647
20.966823101,16.83953,-36.03522,97.17194,-0.7284395,-0.6529996,0.1252614,46.23866,9.63723,2.889574,1007.647
21.001470089,25.56265,-33.31271,97.3558,-0.7231901,-0.5453728,0.1752636,47.3468,5.787051,1.117258,1007.647
21.033643246,7.133525,-27.21665,92.14641,-0.7409748,-0.5329474,0.20156,47.3269,1.958661,-0.2029762,1007.643
21.068291187,-18.72868,-16.50417,83.99523,-0.7431009,-0.5079879,0.2268496,47.3269,1.958661,-0.2029762,1007.643
21.100463867,-30.52332,-3.897761,75.41505,-0.7720519,-0.5244311,0.2158982,47.6904,-2.314068,-1.076693,1007.643
21.135111809,-34.5163,2.612591,58.49984,-0.8097258,-0.5992497,0.1823749,46.92669,-5.358084,-1.504219,1007.645
21.167284966,-24.626,12.25975,46.05857,-0.7466894,-0.5869495,0.2445481,46.92669,-5.358084,-1.504219,1007.643
21.201932430,-20.94017,26.64171,31.59483,-0.7776735,-0.5314423,0.2472228,46.54092,-8.407467,-1.93368,1007.647
21.234105587,-15.84145,30.01525,17.86654,-0.7441806,-0.5168188,0.2769148,45.7953,-10.29103,-1.027946,1007.647
21.268753052,-9.759838,33.68472,5.976858,-0.7685559,-0.5451688,0.2354566,45.7953,-10.29103,-1.027946,1007.647
21.300925732,9.529311,33.80309,-2.174316,-0.7829343,-0.5424031,0.2071756,46.19558,-11.41706,0.7608223,1007.647
21.333098888,24.02689,36.28886,-6.648269,-0.8962216,-0.5283669,0.1919604,45.8292,-11.40032,1.655317,1007.647
21.367746830,30.16993,28.06215,-11.48994,-1.073535,-0.5218771,0.2269264,45.8292,-11.40032,1.655317,1007.646
21.399919510,26.23838,18.11907,-23.25705,-1.137777,-0.573588,0.2145675,45.47437,-11.37221,3.442375,1007.646
21.434567452,28.14273,16.75781,-39.49811,-1.188635,-0.5898365,0.1517662,45.10247,-10.98003,3.888727,1007.646
21.466739655,38.77019,10.42501,-56.65848,-1.104181,-0.6173075,0.1685857,45.10247,-10.98003,3.888727,1007.646
21.501387596,59.96368,15.10063,-72.83826,-1.099666,-0.6263685,0.1294269,45.87563,-9.83112,5.154366,1007.646
21.533560753,77.71708,7.465762,-86.75041,-1.013079,-0.5932378,0.138532,46.26667,-7.538317,6.033829,1007.646
21.568208218,82.93866,2.967701,-95.02416,-0.9571682,-0.5714624,0.1030039,46.26667,-7.538317,6.033829,1007.647
21.600381374,95.3476,-2.358951,-97.2305,-0.9555687,-0.5519664,0.05157575,46.26898,-4.108115,6.017082,1007.647
21.635029316,93.07468,-13.24899,-96.43376,-0.9898965,-0.5770579,-0.01434473,45.89413,0.4708549,5.996687,1007.646
21.667201996,86.99306,-20.94304,-93.98228,-0.9749777,-0.5657175,-0.04475641,45.89413,0.4708549,5.996687,1007.646
21.701849461,77.3485,-26.86154,-92.94041,-0.9221168,-0.5933994,-0.0127019,46.26968,5.478059,5.523973,1007.646
21.734023094,62.97377,-21.29815,-95.51446,-0.8855407,-0.5177196,0.005896695,45.49904,9.283077,4.170391,1007.646
21.768670082,24.70262,-21.59408,-95.69832,-0.8449863,-0.5057852,0.006098667,45.10113,12.69672,2.434212,1007.646
21.800843239,8.177842,-16.26743,-93.67585,-0.7589316,-0.580008,0.003719792,45.10113,12.69672,2.434212,1007.646
21.835491181,8.915008,-7.863157,-86.62784,-0.7221379,-0.5804969,0.02699042,43.58064,16.89929,1.528915,1007.644
21.867663861,8.484995,-4.016131,-79.08954,-0.6721614,-0.5810448,0.05110154,42.43732,19.9531,0.6272697,1007.644
21.899837017,14.25945,4.092216,-68.67075,-0.6477522,-0.5666503,0.04520845,42.43732,19.9531,0.6272697,1007.644
21.934484959,13.82944,10.83931,-57.63907,-0.68776,-0.6471631,0.02708403,40.54416,23.40445,0.173914,1007.646
21.966657162,50.68769,19.24358,-47.89444,-0.7187848,-0.7009423,0.01970017,39.02791,25.32591,-0.2739372,1007.646
22.001305103,74.15411,26.46415,-38.45623,-0.6449637,-0.5311196,0.1857372,39.02791,25.32591,-0.2739372,1007.646
22.033477783,66.53674,37.53175,-25.21824,-0.6428724,-0.4242459,0.3249326,37.51693,26.49079,-0.2717838,1007.644
22.068125725,40.6131,34.45412,-1.867881,-0.6235587,-0.3738303,0.392166,37.12319,28.7659,-1.619855,1007.644
22.100298882,21.0168,32.67857,28.8982,-0.6480058,-0.3631136,0.3813964,37.12319,28.7659,-1.619855,1007.644
22.134945869,32.75001,26.87845,63.70923,-0.7075214,-0.3337859,0.3696615,37.12923,29.15272,-1.175436,1007.644
22.167119503,25.13264,34.98679,102.0136,-0.9174955,-0.2148396,0.2381236,37.88434,27.99858,-1.173721,1007.644
22.201766968,10.45077,38.41952,149.5111,-0.9136165,-0.1750796,-0.01656255,37.88434,27.99858,-1.173721,1007.64
22.233939648,42.21029,58.2465,174.9452,-1.208136,-0.6631507,0.07325983,39.78405,25.69631,-0.279665,1007.642
22.268587589,158.7438,57.95058,160.4814,-1.283935,-0.7993637,0.9920171,42.82156,20.71568,1.067896,1007.642
22.300760746,161.5082,96.12491,128.3671,-0.9767511,-0.3490955,0.917671,42.82156,20.71568,1.067896,1007.643
22.335408211,64.6324,103.7598,116.1096,-0.9201527,-0.02423947,0.4686694,45.08482,14.2042,1.087925,1007.643
22.367581368,-26.40748,75.29179,121.5642,-0.9909717,-0.04228071,0.4123056,45.87145,9.653156,3.720316,1007.643
22.399753571,-75.18322,41.61551,100.175,-0.9575973,-0.3178316,0.4521385,45.87145,9.653156,3.720316,1007.643
22.434401512,-102.8883,20.07217,87.12087,-0.8087689,-0.3939793,0.429396,46.66521,5.870879,6.85902,1007.643
22.466574669,-119.4131,10.95768,80.13415,-0.7154171,-0.4942972,0.320694,45.92854,0.1238307,8.676231,1007.643
22.501222134,-108.0485,4.979991,61.87062,-0.5876378,-0.5317145,0.2714753,45.92854,0.1238307,8.676231,1007.643
22.533395290,-82.37058,14.39041,46.18114,-0.5545336,-0.5107119,0.3098995,46.30442,-2.930606,8.689184,1007.643
22.568043232,-71.4974,20.07217,25.64999,-0.5641138,-0.5143684,0.3330947,45.54019,-6.736889,8.265377,1007.645
22.600215912,-47.90813,22.3212,7.631608,-0.5818322,-0.5681317,0.3993328,45.54019,-6.736889,8.265377,1007.645
22.634863377,5.044891,28.71318,-9.28361,-0.7030727,-0.5290806,0.412836,45.53839,-9.404823,8.278402,1007.647
22.667037010,62.48233,20.66402,-25.64725,-0.8413144,-0.5618876,0.4124095,44.42113,-10.51506,9.62863,1007.647
22.701683998,157.5152,17.82314,-38.33366,-1.011397,-0.4022621,0.4206145,44.42113,-10.51506,9.62863,1007.647
22.733857155,140.9904,-5.732496,-48.38473,-1.207819,-0.2319301,0.5414594,44.43898,-9.735743,10.96375,1007.647
22.768505097,89.14314,-34.61478,-61.43887,-1.282882,-0.3296033,0.5413545,44.45729,-7.051565,12.22581,1007.649
22.800677777,53.69778,-40.77003,-66.21926,-1.358566,-0.2344515,0.4319853,44.45729,-7.051565,12.22581,1007.645
22.835325718,22.79828,-79.06273,-80.43785,-1.247837,-0.3273307,0.3549945,45.5698,-4.422475,10.42186,1007.649
22.867498875,40.6131,-69.59312,-93.12427,-1.146254,-0.3321508,0.4248608,45.55535,-1.38965,9.131887,1007.649
22.902145863,48.53762,-85.75063,-100.4174,-1.133209,-0.3526085,0.3609465,46.28495,2.446046,6.877701,1007.646
22.934319019,67.21248,-80.60154,-99.43683,-0.9829115,-0.3485234,0.3581317,46.28495,2.446046,6.877701,1007.646
22.966491699,75.32129,-72.8483,-89.44704,-0.9824795,-0.2886141,0.3224716,46.62007,6.207345,3.35067,1007.648
23.001139641,53.45206,-72.13808,-75.22845,-0.876838,-0.250276,0.3897639,46.1927,9.972885,-0.6825294,1007.65
23.033312798,21.50824,-72.78912,-65.97411,-0.847903,-0.4209139,0.3731452,46.1927,9.972885,-0.6825294,1007.65
23.067959785,30.29279,-62.78685,-58.4358,-0.7911574,-0.5002998,0.3117113,45.39374,13.36916,-4.2019,1007.65
23.100133419,27.71271,-56.45406,-50.46849,-0.7885872,-0.3957801,0.3347209,43.84307,15.63764,-7.329293,1007.646
23.134780884,18.49815,-53.31725,-45.99454,-0.7641168,-0.3871327,0.3389019,43.84307,15.63764,-7.329293,1007.646
23.166953564,4.983461,-48.81919,-41.82702,-0.7614326,-0.4014297,0.3749089,43.43175,17.51456,-10.01435,1007.646
23.201601505,-16.51718,-43.84764,-33.06298,-0.7401402,-0.4239437,0.3644027,42.28823,19.04465,-10.8448,1007.642
23.233774185,-19.52727,-37.92915,-24.4215,-0.6990556,-0.436598,0.3234271,42.28823,19.04465,-10.8448,1007.642
23.268422127,-12.7085,-24.79007,-14.12529,-0.6855897,-0.3609255,0.2631933,41.50397,19.78922,-13.07605,1007.642
23.300595284,-23.2131,-15.14291,-4.441936,-0.6568952,-0.3321429,0.2376169,40.35937,20.93736,-13.96839,1007.638
23.335243225,-32.79625,0.7186702,6.95745,-0.6310318,-0.3052664,0.340745,40.35937,20.93736,-13.96839,1007.634
23.367415428,-28.43468,18.17825,20.80832,-0.7101141,-0.3198892,0.3447363,39.60427,22.0915,-13.97011,1007.636
23.402063370,-27.39037,29.36422,38.76542,-0.9013162,-0.2482172,0.2632434,40.0048,21.3466,-12.1832,1007.636
23.434236050,-52.88399,27.4703,54.70004,-0.7227843,-0.2182979,0.3558141,40.0048,21.3466,-12.1832,1007.633
23.466409206,-75.7361,58.2465,77.13109,-0.9069987,-0.2379876,0.4532886,40.77827,21.73405,-10.85008,1007.633
23.501057148,-78.50047,46.52787,92.57542,-0.9647396,-0.4003241,0.513221,41.93309,19.83421,-9.125215,1007.633
23.533229828,-47.41668,49.30956,95.57848,-0.8828263,-0.3292639,0.5284664,41.93309,19.83421,-9.125215,1007.635
23.567877293,-51.59395,48.12586,95.57848,-0.8991898,-0.3193024,0.5508732,43.48928,17.19028,-5.54968,1007.631
23.600049973,-71.43597,40.37263,96.74294,-0.8912173,-0.3095949,0.6819827,45.40581,14.14279,-3.31306,1007.631
23.634697914,-71.86598,25.45801,97.11066,-0.8553071,-0.4254557,0.5977886,45.40581,14.14279,-3.31306,1007.632
23.666871071,-47.6624,21.96609,94.0463,-0.8042192,-0.4045709,0.5695281,46.1814,10.34265,-1.576952,1007.632
23.701518536,-47.10953,18.05988,86.56928,-0.8150211,-0.4006717,0.5016991,46.95833,7.305583,0.2191887,1007.63
23.733691693,-41.88795,18.29662,78.9697,-0.7681188,-0.3955353,0.5056418,46.95833,7.305583,0.2191887,1007.63
23.768339634,-54.23546,24.86616,73.14743,-0.7862954,-0.3476821,0.4681279,46.9668,2.743351,1.134079,1007.63
23.800511837,-71.12881,26.99682,69.65407,-0.7543447,-0.3079769,0.4763511,47.73792,-0.3629215,2.484249,1007.632
23.835159779,-96.25385,25.04371,63.89309,-0.7864214,-0.3468295,0.4527121,47.74633,-3.782565,3.329802,1007.628
23.867332936,-103.8098,16.52107,55.55806,-0.8378373,-0.4912479,0.3854854,47.74633,-3.782565,3.329802,1007.628
23.901980400,-46.98667,8.767832,44.64897,-0.79738,-0.5199842,0.335707,47.36767,-6.063186,3.406656,1007.628
23.934153557,-29.11042,13.14752,28.4692,-0.7645265,-0.4475052,0.37745,46.23123,-8.715826,3.361727,1007.63
23.966326237,-11.35703,12.61486,10.45081,-0.7475189,-0.4549092,0.3724102,46.23123,-8.715826,3.361727,1007.63
24.000973701,-0.7295675,21.1375,-6.096686,-0.7153254,-0.4377109,0.4204516,46.23629,-10.99613,3.882927,1007.626
24.033147335,7.80926,25.69475,-15.71875,-0.870618,-0.5240455,0.3913049,46.24676,-11.36671,4.713594,1007.627
24.067794323,32.62714,14.39041,-26.99556,-0.9319493,-0.6473546,0.4115866,46.24676,-11.36671,4.713594,1007.627
24.099967480,71.69689,9.655607,-38.21109,-1.000012,-0.61628,0.3690979,45.88667,-10.58202,6.050648,1007.627
24.134615421,76.85705,2.553406,-50.52978,-1.077036,-0.5094766,0.3851571,46.26513,-9.825117,6.044992,1007.627
24.166788101,68.19536,-9.224412,-64.31937,-1.192034,-0.4995268,0.3424502,46.26513,-9.825117,6.044992,1007.627
24.201436043,46.57185,-25.02681,-78.96696,-1.165346,-0.4485392,0.2997236,46.27848,-7.145813,6.92453,1007.623
24.233608246,32.19713,-27.63095,-90.73407,-1.094563,-0.4522171,0.2460128,47.40832,-4.49967,6.459421,1007.622
24.268256188,16.53238,-26.74317,-101.2141,-1.076527,-0.4252443,0.2306429,47.40832,-4.49967,6.459421,1007.623
24.300429344,22.06112,-31.47798,-109.1815,-1.024926,-0.4792556,0.1834442,46.6432,-1.070101,5.553982,1007.623
24.335076809,23.47402,-24.96762,-110.8975,-1.040173,-0.471068,0.165338,47.0075,3.164279,4.256182,1007.623
24.367249966,44.48322,-35.56174,-106.3623,-1.071892,-0.5312814,0.07837766,47.0075,3.164279,4.256182,1007.622
24.401897907,39.44592,-39.2904,-102.0722,-1.006464,-0.4856713,0.1186311,46.60929,7.339376,2.452526,1007.622
24.434070110,33.61003,-44.73542,-95.02416,-0.9281324,-0.5041674,0.09943175,45.82734,11.51416,0.2045212,1007.623
24.468718052,17.26954,-37.81078,-90.91793,-0.8268803,-0.4609321,0.1065554,45.82734,11.51416,0.2045212,1007.619
24.500891209,-1.773885,-30.05754,-87.73101,-0.7734844,-0.4537567,0.1273243,44.67273,14.93773,-1.591546,1007.619
24.533063889,-21.43162,-21.17978,-82.64419,-0.7061753,-0.4913571,0.1413282,43.5192,18.74324,-3.32572,1007.621
24.567711830,-23.52025,-10.99996,-72.71569,-0.6635957,-0.5253049,0.172463,43.5192,18.74324,-3.32572,1007.621
24.599884510,-19.40441,-6.205976,-61.80659,-0.6229079,-0.5379114,0.2004174,42.38718,21.42728,-3.332943,1007.621
24.634532452,-11.23417,-1.05688,-46.05582,-0.5894077,-0.538718,0.1803362,40.12134,24.12742,-3.334365,1007.621
24.666705609,-6.934039,5.098361,-28.28259,-0.5676315,-0.4872895,0.1916429,40.12134,24.12742,-3.334365,1007.621
24.701352596,-9.268394,8.471907,-11.42866,-0.5635266,-0.4914782,0.2175981,39.74964,26.04333,-2.959209,1007.623
24.733525753,-9.882699,12.49649,5.425275,-0.5689448,-0.5031402,0.2753924,38.61659,27.20284,-2.95899,1007.625
24.768173695,-3.002493,11.31279,23.56623,-0.6372969,-0.5115724,0.3338006,38.61659,27.20284,-2.95899,1007.626
24.800346375,3.754853,6.933096,38.27512,-0.6865196,-0.4643627,0.3187432,39.38955,26.82802,-1.622155,1007.628
24.834994316,3.263409,12.20056,58.1934,-0.8289514,-0.4001384,0.1210539,39.00557,26.44657,-2.064641,1007.628
24.867166519,-11.04988,3.263626,82.40177,-0.8455064,-0.3057639,0.1378924,39.00557,26.44657,-2.064641,1007.628
24.901814461,-57.49127,6.400431,103.8522,-0.8139254,-0.3414975,0.3710729,40.14465,25.67389,-1.62044,1007.624
24.933987617,-89.37365,16.817,121.6255,-0.9388175,-0.4902311,0.389328,41.66566,22.23358,-0.7188663,1007.626
24.968635082,-71.19025,6.282062,137.9891,-0.9271936,-0.6871446,0.4160341,43.95435,19.17504,1.069538,1007.626
25.000808239,-23.39739,9.122942,138.4181,-0.823742,-0.6407925,0.4511189,43.95435,19.17504,1.069538,1007.628
25.035456181,-9.514116,9.537237,134.4345,-0.9014971,-0.6062227,0.4150155,45.10216,14.22125,2.426767,1007.628
25.067628860,-4.353962,-0.5834,132.7797,-0.8742518,-0.5155599,0.4193647,46.23237,8.869279,2.447018,1007.628
25.099802017,-26.16176,-6.205976,126.4059,-0.8154988,-0.495811,0.3746353,46.23237,8.869279,2.447018,1007.628
25.134449959,-45.51234,-6.265162,115.7419,-0.7713249,-0.6001739,0.3391408,46.60697,3.909175,2.469273,1007.629
25.166622162,-38.81643,1.902371,103.9748,-0.7221935,-0.5749689,0.3663642,47.35368,-1.125505,2.043623,1007.629
25.201270104,-38.69357,6.045321,85.40483,-0.7566561,-0.5630228,0.3826902,47.35368,-1.125505,2.043623,1007.631
25.233442783,-33.77913,8.649462,66.22199,-0.7408984,-0.6480047,0.3244846,47.35689,-4.931155,2.508512,1007.631
25.268090725,-13.44566,17.11292,47.71332,-0.7070748,-0.6146674,0.3263718,46.59266,-8.737438,2.084705,1007.631
25.300263405,-6.934039,23.09061,26.63058,-0.7166833,-0.5463356,0.3694408,46.59266,-8.737438,2.084705,1007.631
25.334910870,-9.206964,25.99067,1.319044,-0.7124818,-0.564906,0.3557525,46.59664,-11.39969,2.544012,1007.631
25.367084026,5.352044,39.36648,-12.96083,-0.7835204,-0.5474003,0.3141437,45.85154,-12.52098,3.446024,1007.631
25.401731491,24.88692,30.42955,-23.86992,-0.977218,-0.5846071,0.3368524,45.85154,-12.52098,3.446024,1007.631
25.433904648,51.91629,25.63556,-33.92099,-1.125801,-0.6343734,0.3334905,45.86753,-13.26701,4.724833,1007.629
25.468552590,67.70392,9.833162,-45.99454,-1.255651,-0.5244817,0.2753582,45.50167,-12.488,5.615606,1007.629
25.500725269,54.18922,-10.23056,-64.50323,-1.201864,-0.3970248,0.284583,45.50167,-12.488,5.615606,1007.629
25.535372734,37.7873,-12.36122,-86.62784,-1.11805,-0.3859463,0.2646123,44.76518,-9.41114,6.94343,1007.629
25.599718571,47.92332,-15.49802,-114.2683,-1.06472,-0.3816954,0.2207698,45.52812,-7.510526,7.376537,1007.631
25.634366512,47.55474,-19.46342,-118.0068,-1.066182,-0.3744331,0.2174693,46.28054,-4.096745,6.909645,1007.631
25.666539192,58.12077,-28.51872,-112.6135,-1.029793,-0.4192564,0.1560283,47.02769,0.07361603,5.992744,1007.633
25.701187134,61.37658,-33.43108,-99.06911,-0.9841648,-0.4148701,0.1247907,47.02769,0.07361603,5.992744,1007.633
25.733359814,51.36342,-39.58633,-83.9925,-0.9115247,-0.4133617,0.1154494,47.01926,4.69937,5.077545,1007.633
25.768007279,30.90709,-37.39648,-70.08035,-0.8595644,-0.4742992,0.1144622,46.61609,8.869595,2.891363,1007.633
25.800180435,24.39547,-35.26582,-62.90976,-0.7950763,-0.4948627,0.1329709,46.61609,8.869595,2.891363,1007.635
25.834827900,9.836464,-27.63095,-58.74224,-0.7523817,-0.5025559,0.1069631,46.59504,11.89592,1.091354,1007.636
25.867001057,9.099298,-22.89615,-54.57472,-0.709962,-0.545837,0.1235624,46.20683,13.79559,0.1914234,1007.636
25.901648998,1.297636,-13.42655,-47.89444,-0.694726,-0.540978,0.1340643,46.20683,13.79559,0.1914234,1007.638
25.933821678,-4.04681,-5.318201,-39.0691,-0.6786532,-0.5149736,0.1177407,45.05722,16.08144,-1.152781,1007.638
25.968469620,-4.353962,6.104506,-27.66972,-0.7026094,-0.4810454,0.09607201,44.68031,17.61135,-1.158291,1007.638
26.000641823,-9.268394,12.96997,-15.53489,-0.7019739,-0.4267539,0.08735567,44.30943,19.52806,-0.7193794,1007.638
26.035289764,-3.002493,19.71706,-0.7647146,-0.6978061,-0.469571,0.1395017,44.30943,19.52806,-0.7193794,1007.633
26.067462921,4.000575,24.39268,13.76031,-0.7290243,-0.4505818,0.1900775,44.69367,20.29065,-0.2787552,1007.633
26.102110386,8.730717,24.80697,31.71741,-0.7633041,-0.3983333,0.2086621,44.32702,19.92625,0.6176014,1007.633
26.134283543,-1.03672,18.17825,45.01669,-0.8044128,-0.4233819,0.2069112,44.32702,19.92625,0.6176014,1007.633
26.166456223,-9.882699,14.39041,57.33538,-0.8247827,-0.4265507,0.2234631,44.71626,19.55112,1.510088,1007.631
26.201103687,-21.06303,10.78012,73.20872,-0.865181,-0.4030798,0.2828375,45.10447,17.65145,2.410021,1007.631
26.233276844,-18.60582,4.920806,85.5274,-0.9276159,-0.4104436,0.2317855,45.10447,17.65145,2.410021,1007.631
26.267924309,-45.6352,-2.240581,97.8461,-0.8787588,-0.3869386,0.2271853,45.86484,15.74073,2.861736,1007.631
26.300097466,-69.10161,4.388141,110.2261,-0.8904296,-0.486421,0.2221361,46.62341,11.16208,3.326479,1007.631
26.334745407,-60.43993,3.677921,117.0289,-1.000102,-0.5553947,0.2707908,46.62341,11.16208,3.326479,1007.631
26.366918087,-48.58386,-0.46503,113.9033,-0.9595851,-0.5662221,0.2775535,47.38167,7.344882,3.723745,1007.627
26.401566029,-41.94938,3.145256,105.3231,-0.8887646,-0.4978884,0.30975,47.75157,2.761039,3.361614,1007.627
26.433738232,-47.60098,9.300497,94.47531,-0.8562905,-0.4059652,0.3550307,47.75157,2.761039,3.361614,1007.629
26.468386173,-76.59612,8.945387,80.3793,-0.9064202,-0.4761952,0.4050474,48.12664,-1.50032,3.380459,1007.627
26.500559330,-69.34734,1.843186,67.69289,-0.8864668,-0.6624433,0.3724778,47.36215,-5.687737,2.958513,1007.627
26.535206795,-35.1306,6.341246,56.47736,-0.8076555,-0.5673856,0.413496,47.36215,-5.687737,2.958513,1007.625
26.567379952,-25.48602,7.998427,41.82977,-0.7739561,-0.4548935,0.420375,46.98711,-8.726564,3.357861,1007.623
26.602027893,-28.00467,13.97611,26.50801,-0.7844126,-0.4516473,0.3939894,46.22422,-11.76977,2.994087,1007.623
26.634200096,-26.89892,14.86389,15.66021,-0.8108127,-0.4578468,0.3912926,46.22422,-11.76977,2.994087,1007.623
26.666373730,-7.732635,11.90464,5.670423,-0.7864822,-0.4517446,0.3800299,45.85623,-12.89724,3.830412,1007.623
26.701020718,11.74081,11.01686,-6.893417,-0.7517135,-0.4140881,0.3761599,45.4781,-14.4156,3.903542,1007.623
26.733193875,15.48806,12.08219,-18.59924,-0.7519785,-0.3650424,0.3789767,45.4781,-14.4156,3.903542,1007.623
26.767841816,9.713603,11.37197,-27.85358,-0.7960935,-0.3630678,0.3548227,45.48305,-14.41072,4.286068,1007.623
26.800014496,15.24234,10.72094,-32.9404,-0.8401302,-0.4151444,0.3080503,45.87832,-14.39904,5.622976,1007.625
26.834662438,30.66137,9.714792,-35.26931,-0.9413614,-0.4307972,0.2900679,45.87832,-14.39904,5.622976,1007.625
26.866834641,38.21731,4.092216,-37.04663,-1.04162,-0.4217958,0.2597476,45.88538,-12.48768,6.059952,1007.621
26.901482582,43.74605,-2.00384,-40.60128,-1.05673,-0.4269861,0.2063439,46.64756,-11.73047,6.498644,1007.623
26.933655739,42.76316,-5.791681,-45.50424,-1.13315,-0.4002787,0.1585952,46.64756,-11.73047,6.498644,1007.623
26.968303204,42.026,-12.65714,-55.06502,-1.098488,-0.3835126,0.152144,47.03204,-10.58675,6.937408,1007.625
27.000476360,32.62714,-12.06529,-65.48382,-1.046072,-0.3391012,0.154431,47.42308,-8.293949,7.816872,1007.623
27.035124302,27.03698,-9.697892,-74.24786,-0.9906964,-0.3570184,0.1325586,48.54715,-5.653491,6.905483,1007.623
27.067296505,33.11859,-7.626417,-77.67994,-1.000965,-0.3357092,0.1198161,48.54715,-5.653491,6.905483,1007.625
27.101944447,34.53149,-13.6041,-75.41232,-0.9430086,-0.3225623,0.09962173,48.54844,-3.747823,6.896179,1007.625
27.134117126,31.64426,-11.11833,-65.60639,-0.9395924,-0.2940485,0.08584694,49.30637,-0.7094922,6.877426,1007.626
27.168765068,14.87376,-19.16749,-52.67482,-0.9113581,-0.2928015,0.07691777,49.30637,-0.7094922,6.877426,1007.628
27.200938225,6.33493,-17.45113,-39.25296,-0.8886707,-0.3593903,0.07953111,49.68089,2.773178,6.412155,1007.628
27.233110905,6.887804,-15.43884,-28.34387,-0.9310004,-0.3687363,0.09912901,50.05484,5.430059,5.950914,1007.632
27.267758846,-5.029696,-17.74705,-20.98943,-0.8885508,-0.3607319,0.09446091,50.05484,5.430059,5.950914,1007.632
27.299931049,-12.95422,-12.4204,-15.22845,-0.8445525,-0.3468547,0.09705676,50.04984,6.567775,5.499052,1007.632
27.334578991,-17.31578,-7.152936,-9.09975,-0.8266443,-0.3881821,0.09944095,50.04458,7.324357,5.049049,1007.632
27.366751671,-20.44873,-2.477321,0.03201674,-0.8045331,-0.4060455,0.1260793,50.04458,7.324357,5.049049,1007.632
27.401399613,-10.98845,1.42889,13.02487,-0.8322266,-0.4773271,0.1170741,50.80072,7.694754,5.04332,1007.632
27.433572769,1.973371,2.198295,23.01465,-0.8348655,-0.4446506,0.1356841,50.80124,8.45702,5.039598,1007.629
27.468219757,-3.862519,0.8962253,31.77869,-0.8521485,-0.4239944,0.1596336,50.80124,8.45702,5.039598,1007.629
27.500392914,-13.62995,-0.5834,37.29453,-0.8798022,-0.4488545,0.1910167,50.05036,7.330042,5.495331,1007.629
27.535040856,-24.25742,-7.508047,39.74601,-0.9082225,-0.5078154,0.2057378,50.48475,6.174693,5.052376,1007.629
27.567213535,-18.1758,-15.02454,39.07185,-0.9225002,-0.5267187,0.1999312,50.48475,6.174693,5.052376,1007.629
27.601861477,-16.1486,-23.25126,35.70107,-0.9274761,-0.4770115,0.2225594,50.7984,4.264552,5.060068,1007.629
27.634034157,-33.7177,-33.43108,33.12701,-0.9229172,-0.4502853,0.2294852,51.15798,2.717595,3.726736,1007.631
27.668681622,-63.32716,-44.26194,33.31087,-0.9036581,-0.4380838,0.250614,51.15798,2.717595,3.726736,1007.627
27.700855255,-80.52767,-52.25192,36.25265,-0.9194168,-0.5087001,0.2096909,50.7622,0.737531,2.463196,1007.627
27.733027458,-89.0665,-58.99901,38.94928,-0.8961075,-0.5267751,0.1466645,50.35408,-1.191192,0.2430305,1007.627
27.767675400,-100.554,-59.47249,38.21383,-0.7495561,-0.5404192,0.1712125,50.35408,-1.191192,0.2430305,1007.631
27.799848080,-99.20251,-46.62934,34.29146,-0.6588147,-0.5535034,0.2324359,50.70211,-2.749519,-1.982863,1007.625
27.834496021,-84.58208,-28.16361,31.34969,-0.6477099,-0.5541884,0.2766705,50.72496,-3.551663,-5.039675,1007.625
27.866668225,-63.69574,-18.04298,31.34969,-0.6828176,-0.5984395,0.2433754,50.72496,-3.551663,-5.039675,1007.627
27.901316166,-26.28462,-9.046857,34.04631,-0.7149087,-0.6412112,0.2780261,49.50427,-4.700802,-6.81309,1007.625
27.933489323,-0.2995546,-1.05688,32.698,-0.7897085,-0.5665697,0.3419994,49.48642,-5.480124,-8.148211,1007.625
27.968136787,2.034801,2.553406,28.59177,-0.8532599,-0.430065,0.3789037,49.48642,-5.480124,-8.148211,1007.624
28.000309944,-14.67427,-0.46503,22.7695,-0.8873844,-0.3858586,0.3617526,49.11926,-6.606787,-7.248135,1007.622
28.034957886,-21.8002,-3.128356,19.64386,-0.8948249,-0.401406,0.3549458,48.73478,-7.750504,-7.686898,1007.626
28.067130566,-15.10428,-4.252871,18.78585,-0.9486932,-0.3930906,0.3285251,48.73478,-7.750504,-7.686898,1007.622
28.101778030,-13.62995,-13.18981,18.35684,-0.9719598,-0.3280331,0.3157825,48.72849,-8.518456,-8.129457,1007.622
28.133950710,-14.48998,-19.16749,17.74397,-0.9276037,-0.3084742,0.3001059,48.35003,-9.275354,-8.123802,1007.62
28.168598652,-13.44566,-19.64097,17.25367,-0.936837,-0.2532661,0.2779932,47.96053,-9.281355,-9.014429,1007.62
28.200771809,-23.15167,-23.25126,18.0504,-0.9255613,-0.2112043,0.2637748,47.96053,-9.281355,-9.014429,1007.62
28.235419273,-30.52332,-26.21051,20.62446,-0.9131277,-0.2284232,0.2418268,47.57052,-10.04962,-9.901335,1007.62
28.267592430,-34.02485,-26.6248,23.44366,-0.8926086,-0.2381754,0.249267,47.17582,-10.44163,-11.17263,1007.618
28.299764633,-37.77211,-27.57176,26.079,-0.8861176,-0.265153,0.2798319,47.17582,-10.44163,-11.17263,1007.618
28.334412575,-34.02485,-23.96148,26.079,-0.8821684,-0.2825397,0.2936297,46.77451,-10.84014,-12.95396,1007.618
28.366585732,-40.41362,-25.08599,22.64693,-0.8951132,-0.2914519,0.325489,45.62284,-11.60335,-14.28327,1007.618
28.401233196,-49.07531,-26.21051,19.52129,-0.8616461,-0.2870068,0.3570254,45.62284,-11.60335,-14.28327,1007.62
28.433406353,-58.78131,-27.63095,16.6408,-0.8261133,-0.3172476,0.3607825,45.97715,-12.39373,-16.06661,1007.62
28.468053341,-53.49829,-29.22894,12.16685,-0.7906206,-0.3581634,0.364934,45.58791,-12.01859,-16.9591,1007.62
28.500226975,-50.91822,-27.57176,10.0218,-0.7543078,-0.3402676,0.3801667,45.58791,-12.01859,-16.9591,1007.62
28.534874439,-53.86688,-26.50643,8.060617,-0.7334406,-0.3574028,0.3745287,44.06047,-12.01255,-18.16269,1007.618
28.567047119,-45.69663,-22.24511,6.528441,-0.7313097,-0.3978322,0.3573055,43.65416,-11.27334,-20.39589,1007.622
28.601695061,-38.87786,-18.81238,4.934978,-0.7286594,-0.3812117,0.3742878,43.65416,-11.27334,-20.39589,1007.617
28.633867741,-40.53648,-14.07758,3.280229,-0.7505953,-0.3767288,0.3750114,43.64889,-10.51676,-20.84589,1007.619
28.668515682,-42.56368,-11.11833,1.80934,-0.7615368,-0.3904023,0.3571669,42.49877,-8.993174,-22.18637,1007.619
28.700688839,-32.18194,-7.034566,-0.7034276,-0.7543023,-0.3992207,0.3512427,42.49877,-8.993174,-22.18637,1007.619
28.735335827,-21.30876,-0.9976951,-3.52263,-0.7627609,-0.3510079,0.366661,42.49903,-8.61204,-22.18823,1007.619
28.767508984,-25.42459,3.677921,-5.361241,-0.785558,-0.3207867,0.3685689,42.10979,-8.236906,-23.08072,1007.619
28.799681664,-32.91911,8.945387,-1.867881,-0.8831961,-0.343028,0.3167587,42.10979,-8.236906,-23.08072,1007.615
28.834329605,-32.73481,-1.116065,2.973794,-0.9643737,-0.372762,0.311005,42.49376,-7.855458,-22.63823,1007.615
28.866502762,-29.35614,-2.714061,3.586664,-0.8359884,-0.3859333,0.3222304,41.73866,-6.701319,-22.63995,1007.615
28.901149750,-28.80327,3.559551,2.667359,-0.8623295,-0.3485581,0.3054324,41.73866,-6.701319,-22.63995,1007.617
28.933323383,-35.80634,1.014595,3.096368,-0.8856166,-0.3947027,0.2859893,42.11107,-6.331239,-23.09002,1007.615
28.967970371,-33.53341,2.079925,5.792997,-0.9038089,-0.4358405,0.2896759,42.11133,-5.950106,-23.09188,1007.617
29.000143528,-30.03187,-3.601836,7.386459,-0.8966382,-0.4708295,0.2888385,42.11133,-5.950106,-23.09188,1007.617
29.034791470,-19.83442,-5.259016,6.467154,-0.8702646,-0.5033396,0.3071224,42.48978,-5.193207,-23.09754,1007.617
29.066964149,-7.671204,-7.508047,4.199534,-0.8989713,-0.4910301,0.3113477,41.73416,-4.801336,-23.09553,1007.617
29.101612091,-12.46278,-16.08987,2.115776,-0.9516793,-0.4743312,0.3028192,41.73416,-4.801336,-23.09553,1007.617
29.133784294,-27.08321,-24.84925,1.748053,-0.9598982,-0.4896568,0.2613176,42.10658,-4.431257,-23.54561,1007.617
29.168432236,-35.43775,-34.49641,-1.561446,-0.8883153,-0.4882172,0.2423456,40.97276,-4.415151,-23.53981,1007.615
29.200605393,-39.92217,-36.27197,-6.21926,-0.8278893,-0.4668348,0.221714,40.95099,-3.674812,-25.2649,1007.615
29.235252857,-44.83661,-35.08826,-10.69321,-0.8084936,-0.4162698,0.1824259,40.95099,-3.674812,-25.2649,1007.615
29.267426014,-49.01387,-36.44952,-10.99965,-0.8030468,-0.4466523,0.1483847,39.42216,-3.289259,-26.59786,1007.617
29.302073956,-47.72383,-33.96375,-6.21926,-0.8049641,-0.4490288,0.153685,38.65601,-1.384224,-27.49586,1007.617
29.334246159,-45.45091,-33.31271,-0.8872886,-0.8344071,-0.463539,0.1413081,38.65601,-1.384224,-27.49586,1007.618
29.366418839,-44.52945,-31.24124,4.322108,-0.8596926,-0.4372183,0.139351,38.26728,-0.2468245,-28.39207,1007.618
29.401066780,-53.68259,-31.47798,9.163783,-0.8572129,-0.4246214,0.1379857,37.87886,1.33523,-29.29045,1007.618
29.433239937,-60.07135,-27.15747,13.76031,-0.8660449,-0.4236544,0.1318101,37.87886,1.33523,-29.29045,1007.618
29.467887402,-66.27581,-26.6248,18.72456,-0.8884706,-0.4607577,0.1524395,37.11194,2.096865,-30.18287,1007.618
29.500060558,-63.51145,-24.55333,25.03712,-0.8920079,-0.5058231,0.159813,35.21698,2.880289,-30.6232,1007.62
29.534708500,-57.30698,-24.90844,31.59483,-0.8787248,-0.5188473,0.1788616,35.21698,2.880289,-30.6232,1007.62
29.566880703,-56.07837,-27.8085,34.23018,-0.8480811,-0.5292832,0.2300636,35.21331,4.781084,-31.01503,1007.62
29.601528645,-58.22844,-29.70243,35.02691,-0.8538584,-0.5475583,0.2482828,34.82407,5.156216,-31.90752,1007.62
29.633701325,-58.53559,-35.20663,34.41404,-0.8488019,-0.5537083,0.2722849,34.82407,5.156216,-31.90752,1007.62
29.668349266,-66.46011,-40.8884,34.41404,-0.8503098,-0.5663137,0.2731591,34.06293,5.923535,-32.35365,1007.618
29.700522423,-69.22447,-46.86608,34.23018,-0.8689254,-0.5942965,0.2200821,34.05163,6.293299,-33.24807,1007.618
29.735169411,-65.35435,-51.95599,32.698,-0.8295412,-0.5951068,0.20332,34.05163,6.293299,-33.24807,1007.618
29.767342568,-58.9656,-46.03749,31.10454,-0.8137036,-0.5789876,0.1637811,32.51753,7.435434,-35.03104,1007.618
29.834163189,-65.60007,-31.24124,27.91761,-0.789599,-0.511306,0.2701541,31.37845,8.208122,-35.47524,1007.618
29.866335869,-49.44389,-20.76549,23.68881,-0.7941863,-0.5071471,0.3030071,29.86143,8.986177,-35.91751,1007.618
29.900983811,-27.26751,-11.94692,20.07287,-0.795557,-0.4403971,0.3980421,28.72864,10.52682,-35.91915,1007.618
29.933156967,-13.07708,-13.18981,19.64386,-0.8154753,-0.3764227,0.4358693,28.72864,10.52682,-35.91915,1007.618
29.967803955,-14.24426,-17.1552,20.07287,-0.7901419,-0.3422539,0.4142247,29.47925,11.27266,-36.37302,1007.624
29.999977112,-26.10033,-21.94919,27.36603,-0.7231837,-0.31199,0.3535994,29.09553,11.27235,-36.81737,1007.626
30.034625053,-26.89892,-17.62868,35.82364,-0.6682979,-0.3221321,0.2696177,29.09553,11.27235,-36.81737,1007.626
30.066797733,-15.84145,-9.993817,40.84917,-0.6903389,-0.3347071,0.3241857,27.95594,11.28277,-37.25785,1007.628
30.101445675,-33.7177,-10.053,40.05244,-0.7503983,-0.3505118,0.5019916,28.34569,11.6699,-36.36908,1007.628
30.133617878,-38.93929,-16.44498,34.41404,-0.7765721,-0.4342853,0.4475613,28.34569,11.6699,-36.36908,1007.626
30.168265820,-37.1578,-21.94919,25.58871,-0.7745748,-0.4424371,0.3987935,28.33965,11.28308,-36.8135,1007.624
30.200438499,-63.63431,-24.61251,15.47635,-0.7313804,-0.3321685,0.3751995,28.33965,11.28308,-36.8135,1007.624
30.235086441,-94.65666,-21.89,3.525377,-0.6748445,-0.5045157,0.2175653,27.96172,11.28845,-36.81157,1007.622
30.267259598,-54.97263,1.251336,0.5223129,-0.6448228,-0.5396583,0.1485515,27.96172,11.28845,-36.81157,1007.622
30.301907063,-31.26048,22.49876,4.873692,-0.832047,-0.4308159,0.2321718,26.84781,15.13295,-35.48553,1007.62
30.334080219,-37.1578,12.31893,6.651015,-0.8890982,-0.5040694,0.389232,26.85487,17.0443,-35.04855,1007.622
30.368727684,-19.95729,21.31506,7.263885,-0.8579066,-0.4776273,0.3134851,26.85487,17.0443,-35.04855,1007.622
30.400900364,-24.68743,19.30277,3.157655,-0.8821965,-0.3603826,0.2698523,27.99472,17.41501,-34.60993,1007.624
30.433073521,-36.72779,20.72321,-3.645205,-0.8723727,-0.3628281,0.3367384,28.77449,18.57041,-32.83426,1007.625
30.467720986,-46.4338,15.39655,-7.996583,-0.9342117,-0.426711,0.3840247,28.77449,18.57041,-32.83426,1007.625
30.499894142,-32.79625,0.5411153,-8.303018,-0.8952542,-0.5473508,0.3744727,29.1582,18.57073,-32.38992,1007.627
30.534541130,-10.61986,-5.140646,-7.199852,-0.8793467,-0.5383841,0.2886022,29.54295,20.09558,-31.95301,1007.627
30.566714287,2.710536,-17.33276,-5.790251,-0.9058174,-0.5117652,0.2615947,29.54295,20.09558,-31.95301,1007.627
30.601362229,-14.7357,-29.28813,-8.05787,-0.9148925,-0.500939,0.3379246,28.79254,20.87346,-31.57034,1007.633
30.633534908,-44.46803,-36.50871,-14.49301,-0.8833558,-0.6216343,0.3163913,28.03774,21.26614,-31.50458,1007.633
30.668182850,-46.12664,-40.35573,-23.86992,-0.887232,-0.6742612,0.2870736,28.03774,21.26614,-31.50458,1007.631
30.700355530,-42.56368,-46.92527,-36.67891,-0.8596939,-0.7249056,0.2203652,27.2766,22.03346,-31.95071,1007.631
30.735003472,-34.332,-43.55172,-43.23662,-0.8293221,-0.6929973,0.1605769,26.14433,24.33637,-31.95607,1007.631
30.767176628,-47.29382,-39.94144,-47.46543,-0.7807559,-0.6576678,0.1155891,26.14433,24.33637,-31.95607,1007.629
30.801823616,-32.05908,-28.28198,-49.61047,-0.7213234,-0.651287,0.1001451,23.88267,25.89798,-31.56939,1007.629
30.833996773,-14.7357,-20.64712,-48.81374,-0.7669033,-0.6382212,0.1286341,21.62318,28.22349,-31.05891,1007.629
30.868644715,11.74081,-13.07144,-40.60128,-0.7902811,-0.615298,0.06493533,21.62318,28.22349,-31.05891,1007.629
30.900817394,26.17695,-8.750932,-30.91793,-0.7997288,-0.5394915,0.007326489,20.10641,29.38268,-31.50304,1007.629
30.932990074,35.20722,-0.05073489,-20.07013,-0.7527476,-0.4559825,0.04083452,18.58361,30.15505,-32.39159,1007.628
30.967637539,30.90709,10.36583,-5.728963,-0.7770669,-0.3697502,0.06683633,18.58361,30.15505,-32.39159,1007.628
30.999811172,22.36827,12.61486,11.61526,-0.7414214,-0.3786115,0.07366066,18.19938,29.39247,-32.83221,1007.628
31.034458160,21.69253,19.59869,32.14642,-0.7470542,-0.3629052,0.09264068,17.43143,28.62957,-33.71719,1007.624
31.066631317,29.00275,15.87003,50.77767,-0.8370953,-0.4202688,0.1489199,17.43143,28.62957,-33.71719,1007.625
31.101279259,31.33711,9.004572,55.3742,-0.9597197,-0.4445225,0.260724,18.19206,27.09999,-33.26733,1007.625
31.133451939,-13.07708,-0.46503,59.90944,-1.040783,-0.4925279,0.2774726,20.44762,26.29414,-34.16777,1007.624
31.168099880,-66.33724,-15.14291,63.28022,-0.9124185,-0.496568,0.3398655,20.44762,26.29414,-34.16777,1007.624
31.200272083,-60.13278,-14.55106,53.16787,-0.8023852,-0.5003225,0.4274957,21.95232,24.36131,-34.61249,1007.624
31.234920025,-44.59089,-5.199831,44.0361,-0.829257,-0.4654014,0.4068264,23.10296,23.59999,-33.27573,1007.625
31.267092705,-48.82958,-7.922342,42.68779,-0.8308085,-0.3489708,0.3981608,23.10296,23.59999,-33.27573,1007.625
31.301740646,-60.99281,-10.23056,47.03917,-0.8088791,-0.3379481,0.3310491,23.49374,25.51166,-32.3944,1007.625
31.333913803,-52.94542,-16.50417,53.22915,-0.8065179,-0.31921,0.3707055,24.26118,25.51229,-31.50571,1007.624
31.368560791,-52.63827,-23.90229,55.55806,-0.8291054,-0.3288971,0.3587864,25.03382,25.89893,-30.23635,1007.624
31.400733948,-60.00992,-31.89227,54.63876,-0.8022169,-0.3250801,0.304583,25.03382,25.89893,-30.23635,1007.622
31.435381413,-67.01298,-32.01064,51.75827,-0.7600183,-0.3356795,0.2790379,25.78996,26.26933,-30.24208,1007.622
31.467554569,-76.16611,-26.26969,45.87471,-0.7434607,-0.3710935,0.2920874,26.94715,26.6571,-28.46462,1007.62
31.499727249,-67.44299,-20.23282,37.66225,-0.7436242,-0.4611487,0.2580886,26.94715,26.6571,-28.46462,1007.622
31.534375191,-53.49829,-7.448862,34.65918,-0.7837159,-0.425756,0.2900844,26.95896,27.0496,-27.57392,1007.622
31.566548348,-53.49829,-2.536506,33.67859,-0.8019279,-0.4412826,0.2790404,26.97655,27.44779,-26.23693,1007.622
31.601195336,-51.40966,4.979991,30.30781,-0.6887787,-0.5357168,0.31673,26.97655,27.44779,-26.23693,1007.616
31.633368492,-20.32587,20.07217,24.54683,-0.6445615,-0.6202515,0.3349005,27.74501,28.97295,-25.35568,1007.616
31.668016434,15.11948,32.67857,13.57645,-0.6821297,-0.5528794,0.3613524,29.27328,28.96772,-24.08833,1007.622
31.700189114,21.44681,35.51945,4.996265,-0.7728847,-0.5219528,0.3479942,29.27328,28.96772,-24.08833,1007.622
31.734837055,27.71271,39.95833,1.073896,-0.8735406,-0.5979002,0.2533534,29.66804,28.21714,-22.7477,1007.622
31.767009258,39.13877,32.5602,-0.5195665,-0.9817435,-0.5793501,0.2603,30.79608,28.19535,-23.19979,1007.618
31.801657200,44.36036,27.4703,-5.238667,-1.149315,-0.5821135,0.2975088,30.79608,28.19535,-23.19979,1007.618
31.833829880,42.51744,7.998427,-20.07013,-1.172212,-0.5906684,0.3063279,31.93517,27.42266,-22.75558,1007.618
31.868477822,44.42178,2.435035,-42.80761,-1.07814,-0.5182183,0.2578475,31.92258,25.88676,-23.6407,1007.618
31.900650978,37.60301,-0.34666,-65.5451,-1.038461,-0.403671,0.2203436,31.92258,25.88676,-23.6407,1007.618
31.935297966,23.65831,-7.744787,-83.62478,-0.9657363,-0.391447,0.2159098,31.16117,26.27295,-24.08498,1007.618
31.967471600,25.93123,-14.55106,-87.17943,-0.9057629,-0.4168987,0.1640484,30.01714,27.04076,-24.9117,1007.618
32.002118587,44.17606,-19.9369,-79.15083,-0.8584304,-0.4272541,0.1105014,30.01714,27.04076,-24.9117,1007.616
32.034291744,49.82766,-24.79007,-65.5451,-0.8907883,-0.4170758,0.08775128,27.73294,28.19932,-26.24452,1007.618
32.066464424,34.9615,-33.31271,-50.03948,-0.8673143,-0.4026394,0.08668727,24.69235,28.60634,-27.56976,1007.618
32.101112366,7.379247,-32.24738,-35.82089,-0.8214881,-0.4584815,0.05013133,24.69235,28.60634,-27.56976,1007.618
32.133285522,1.113345,-27.57176,-27.30199,-0.8249479,-0.5430915,0.02777611,23.16352,28.9919,-28.90272,1007.614
32.167932510,6.519221,-21.17978,-26.99556,-0.8540613,-0.5669734,0.05918085,21.25648,29.00169,-30.2319,1007.614
32.200105667,8.484995,-15.49802,-28.52773,-0.8294314,-0.5402889,0.073631,21.25648,29.00169,-30.2319,1007.614
32.234753132,-0.1152633,-4.844721,-29.81476,-0.8155488,-0.509693,0.08483969,20.1174,29.77437,-30.67609,1007.614
32.266926289,-1.466733,0.1860052,-27.48586,-0.7928552,-0.5395249,0.07040402,19.36178,30.16624,-30.67409,1007.614
32.301574230,15.67235,10.42501,-20.49914,-0.7830862,-0.5342458,0.06891038,19.36178,30.16624,-30.67409,1007.616
32.333746910,21.93826,13.38426,-10.99965,-0.8000299,-0.4745956,0.1143862,18.53796,30.173,-31.05243,1007.617
32.368394375,21.32395,16.4027,-0.5808535,-0.8250514,-0.4499689,0.1447067,17.39861,30.56456,-31.49476,1007.615
32.400567055,21.13966,15.9884,8.612201,-0.8550557,-0.4278296,0.1639671,17.39861,30.56456,-31.49476,1007.617
32.435214996,20.64822,7.288207,16.70209,-0.892974,-0.3956302,0.2238723,18.15976,29.79724,-31.04863,1007.617
32.467387676,14.44374,11.07605,26.81445,-0.9233881,-0.3134547,0.2233876,18.15372,29.41042,-31.49305,1007.617
32.502035618,-20.51016,0.9554104,40.66531,-1.117241,-0.2134314,0.1031112,19.34894,28.24921,-31.55735,1007.617
32.534208775,-65.90723,-11.71018,52.30985,-0.7624317,-0.2548872,0.2430945,19.34894,28.24921,-31.55735,1007.617
32.566380978,-68.42588,17.94151,67.93803,-0.9672499,-0.3485219,0.3054477,20.48307,27.47165,-31.49567,1007.615
32.601028919,-39.3693,-3.483466,75.10861,-0.9834544,-0.4181675,0.3271967,22.40134,28.23468,-29.34141,1007.615
32.633201599,-23.15167,-1.88547,78.9697,-0.8932031,-0.3093918,0.3291793,22.40134,28.23468,-29.34141,1007.615
32.667849541,-40.04503,-9.046857,80.3793,-0.924431,-0.2541063,0.3029345,23.92466,28.22458,-28.45659,1007.615
32.700022221,-58.71988,-15.02454,82.52435,-0.8314044,-0.2924517,0.2998224,25.44168,27.44652,-28.01432,1007.615
32.734669686,-77.33329,-17.27357,83.32108,-0.849748,-0.2854075,0.3202956,25.44168,27.44652,-28.01432,1007.615
32.766842365,-81.51055,-19.58179,82.46306,-0.8386732,-0.359064,0.2800611,27.34819,26.67447,-26.68143,1007.615
32.801490307,-91.33942,-18.27972,77.13109,-0.8799303,-0.3509187,0.3026851,28.1209,25.91852,-25.34273,1007.615
32.833663464,-126.109,-19.28586,67.93803,-0.9144434,-0.3506617,0.3767552,28.1209,25.91852,-25.34273,1007.611
32.868310929,-162.353,-26.32888,56.66123,-0.9343314,-0.3900686,0.3520339,30.40612,26.2845,-24.01735,1007.616
32.900484085,-125.5562,-35.85767,43.97481,-0.8773445,-0.5865929,0.1435863,30.81842,27.07469,-21.40908,1007.616
32.935132027,-68.61017,-25.67784,30.18523,-0.795154,-0.5317219,0.1996657,30.81842,27.07469,-21.40908,1007.612
32.967304230,-45.26662,-19.04912,18.66327,-0.7872002,-0.5447218,0.2814242,32.3651,27.46846,-18.74099,1007.618
33.001952171,-29.41757,-7.389677,12.84101,-0.7143854,-0.5121434,0.3359613,32.37743,28.62323,-17.85401,1007.618
33.034124851,-20.69445,3.322811,5.915571,-0.6878546,-0.5149754,0.3005044,32.37743,28.62323,-17.85401,1007.612
33.066298008,-7.855495,10.30664,-3.277483,-0.6707484,-0.5034305,0.2980299,32.38239,28.6281,-17.47149,1007.614
33.100944996,-13.01565,11.96382,-13.63499,-0.6604658,-0.4512618,0.334996,32.76554,29.00874,-17.09276,1007.614
33.133118629,-13.26137,20.60484,-13.63499,-0.6564401,-0.5086032,0.2028999,32.76554,29.00874,-17.09276,1007.616
33.167765617,9.652172,21.84772,-8.05787,-0.8070565,-0.6314149,0.1671429,32.3989,28.64435,-16.1964,1007.616
33.199938774,43.25461,30.31118,-3.706491,-1.022359,-0.6874957,0.1831495,32.40519,29.4123,-15.75384,1007.616
33.234586716,59.84082,21.25587,-12.71568,-1.205149,-0.6766889,0.1449383,32.40519,29.4123,-15.75384,1007.616
33.266759396,62.60519,18.35581,-34.96287,-1.110008,-0.5815057,0.2127971,32.02699,29.03653,-15.75005,1007.618
33.301407337,59.90225,25.39882,-64.68709,-1.105159,-0.4316888,0.194707,32.77106,28.63329,-16.64462,1007.618
33.333579540,53.51348,18.7701,-89.44704,-1.033233,-0.4037878,0.1455839,32.77106,28.63329,-16.64462,1007.618
33.368227482,71.20545,24.80697,-98.57881,-1.096962,-0.4772009,0.08869742,31.62207,29.39623,-17.85387,1007.618
33.400400162,74.5227,3.026886,-97.53693,-1.109104,-0.3900456,0.05337927,30.1053,30.55542,-18.29799,1007.619
33.435048103,72.24977,-5.614126,-90.42764,-0.9781961,-0.4268112,0.0277547,30.1053,30.55542,-18.29799,1007.619
33.467221260,83.06152,1.014595,-82.0926,-1.07348,-0.4158513,0.0658481,28.18698,30.93498,-20.52159,1007.619
33.501868248,58.12077,-15.2021,-80.37656,-1.036878,-0.3328943,0.08402447,25.89122,32.08216,-22.74697,1007.621
33.534041405,40.36738,-13.54492,-78.10895,-0.883666,-0.3766721,0.04463796,22.83385,32.09182,-25.34543,1007.621
33.568688870,34.71578,-2.477321,-72.71569,-0.916495,-0.4162837,0.04799173,22.83385,32.09182,-25.34543,1007.621
33.600862026,37.60301,-5.495756,-65.36124,-0.8832316,-0.4424886,0.07011929,20.93286,32.48842,-26.23018,1007.623
33.633034706,39.13877,-2.773246,-52.91997,-0.8716093,-0.4663605,0.1291,18.58516,32.8856,-27.55896,1007.621
33.667682648,38.21731,-13.42655,-42.80761,-0.8272095,-0.5242075,0.2723266,18.58516,32.8856,-27.55896,1007.623
33.699854851,45.89611,-11.71018,-37.53693,-0.7870194,-0.498581,0.2225169,16.67838,33.27653,-28.88999,1007.623
33.734502793,45.83468,-20.05527,-39.19168,-0.7423486,-0.4826417,0.3041714,14.77083,32.52405,-30.21544,1007.619
33.766675949,37.60301,-17.86542,-33.79842,-0.8386529,-0.4784871,0.3402903,14.77083,32.52405,-30.21544,1007.619
33.801323414,8.853577,-29.99835,-20.56042,-0.9095752,-0.4420536,0.3614964,13.99793,31.75627,-31.48294,1007.619
33.833496571,0.9904841,-40.41492,-8.241731,-0.8920307,-0.452317,0.363658,12.47436,31.38524,-32.36591,1007.619
33.868143559,2.649105,-40.00062,6.283293,-0.8744037,-0.4054442,0.347974,12.47436,31.38524,-32.36591,1007.621
33.900317192,-3.985379,-36.33115,22.70822,-0.8452484,-0.3234961,0.2934296,10.95656,31.0199,-32.80259,1007.621
33.934964657,-17.5615,-27.45339,45.13927,-0.8276498,-0.2620673,0.1511,10.18939,31.4004,-33.69315,1007.621
33.967137337,-19.28155,-22.83696,63.83181,-0.6829131,-0.2625581,0.2437353,10.18939,31.4004,-33.69315,1007.621
34.001785278,-26.46891,-0.7017701,83.01464,-0.7075039,-0.3178122,0.3640091,10.19516,31.40609,-33.24686,1007.619
34.033957958,-21.55448,2.079925,99.56213,-0.7779475,-0.3509116,0.2434117,10.96286,31.78785,-32.36003,1007.613
34.068605900,-17.31578,1.902371,113.7807,-0.6784251,-0.2896097,0.3263743,10.96286,31.78785,-32.36003,1007.611
34.100778103,-28.74184,9.833162,120.5223,-0.781616,-0.3081614,0.3088683,14.00319,30.99969,-31.03294,1007.611
34.135426044,-52.82256,3.737106,125.0575,-0.7679417,-0.3396516,0.325351,16.64826,30.19985,-31.04276,1007.611
34.167598724,-57.06126,6.873911,126.4059,-0.7743416,-0.4165212,0.297785,16.64826,30.19985,-31.04276,1007.61
34.199771881,-61.7914,6.755541,117.3967,-0.7796324,-0.4870254,0.3411151,20.1287,29.40461,-29.78167,1007.608
34.234419823,-57.49127,14.74552,106.8553,-0.7788668,-0.4746861,0.3682017,23.17481,28.62213,-28.0083,1007.608
34.266592503,-68.36445,18.0007,94.47531,-0.7940512,-0.495456,0.3715461,23.17481,28.62213,-28.0083,1007.608
34.301239967,-67.07441,20.60484,77.98911,-0.8188218,-0.5943201,0.3753002,26.59809,26.69089,-26.23128,1007.61
34.333412647,-68.85589,21.96609,62.05449,-0.7817981,-0.6037876,0.4303067,29.63895,26.665,-24.90791,1007.611
34.368060589,-62.52856,27.4703,41.46204,-0.6962926,-0.6413496,0.4610111,29.63895,26.665,-24.90791,1007.611
34.400233269,-36.17492,33.21124,21.29861,-0.6458401,-0.6375214,0.4234579,31.18429,26.29568,-22.29985,1007.611
34.434881210,-20.94017,40.0767,-0.8872886,-0.6293169,-0.640605,0.4748523,32.34623,25.1646,-20.06867,1007.611
34.467053413,-0.2381242,52.80148,-11.61252,-0.7297994,-0.6632394,0.4331873,32.34623,25.1646,-20.06867,1007.613
34.501701355,26.17695,40.60937,-16.08647,-0.9719087,-0.717185,0.3940318,34.25981,26.3039,-18.2988,1007.613
34.533874512,58.05934,40.31344,-20.683,-1.158611,-0.7769675,0.3890151,33.8973,25.94357,-17.08367,1007.613
34.568521977,75.68987,17.76396,-29.38575,-1.411328,-0.5918973,0.307585,34.64822,25.92796,-17.47007,1007.613
34.600695133,38.46304,-9.993817,-53.53284,-1.175011,-0.4271648,0.3587939,34.64822,25.92796,-17.47007,1007.613
34.635342121,14.25945,3.796291,-79.21211,-1.101826,-0.3835366,0.3358167,34.25955,25.92277,-18.29694,1007.613
34.667515278,24.88692,-7.212121,-103.3592,-1.06949,-0.5014586,0.233805,32.74279,27.08196,-18.74107,1007.613
34.699687958,75.62844,-1.7671,-113.2877,-1.060165,-0.4472963,0.2139205,32.74279,27.08196,-18.74107,1007.613
34.734335900,97.92768,-16.32661,-108.5073,-1.220491,-0.3374553,0.1295621,30.83678,28.61628,-20.07768,1007.613
34.766508579,84.96587,-44.61705,-98.51752,-1.033912,-0.2908413,0.1262774,27.77988,30.53079,-22.7492,1007.615
34.801156521,66.16816,-44.08438,-82.5829,-0.8865426,-0.312817,0.0779672,27.77988,30.53079,-22.7492,1007.615
34.833329678,43.31604,-38.1067,-66.46441,-0.8781703,-0.3098874,0.08562522,23.9556,31.30207,-26.24007,1007.615
34.867976666,14.56661,-41.18432,-52.49096,-0.8471075,-0.3972384,0.1077512,20.90897,31.32228,-28.00972,1007.618
34.900149822,5.597765,-34.73315,-38.76267,-0.8083986,-0.4668835,0.1019959,20.90897,31.32228,-28.00972,1007.616
34.934797287,13.89087,-34.1413,-36.31119,-0.7816978,-0.6576692,0.1777758,18.63004,31.72425,-28.89254,1007.618
34.966970444,33.36431,-24.2574,-39.0691,-0.7661057,-0.6728337,0.2984872,16.28786,31.74599,-29.77318,1007.618
35.001618385,27.52842,-21.1206,-43.7882,-0.8043724,-0.6191906,0.3065165,16.28786,31.74599,-29.77318,1007.62
35.033790588,24.14975,-21.53489,-45.13652,-0.7693828,-0.6020894,0.280785,14.75959,31.75122,-31.04053,1007.62
35.068438530,25.62408,-22.12674,-49.05889,-0.782968,-0.6478891,0.3123462,13.23653,32.14246,-31.92722,1007.62
35.100611210,21.20109,-21.53489,-48.0783,-0.7721202,-0.5975868,0.3594135,13.23653,32.14246,-31.92722,1007.616
35.135259151,10.63506,-19.5226,-45.25909,-0.7510508,-0.5187914,0.3314286,10.57362,32.16299,-33.25252,1007.616
35.167431831,-0.2995546,-16.97765,-41.15286,-0.7162316,-0.4346664,0.3110712,9.055568,31.41651,-33.68734,1007.616
35.199604988,-13.01565,-11.71018,-33.55327,-0.6797687,-0.368761,0.3209143,9.055568,31.41651,-33.68734,1007.617
35.234251976,-14.85856,1.19215,-18.47666,-0.7305661,-0.3714148,0.2587065,7.549844,31.8248,-33.23519,1007.617
35.266425133,-3.063923,2.790146,-0.8872886,-0.7519005,-0.3228263,0.2515942,6.032567,32.22172,-33.67559,1007.613
35.301072598,-5.152557,10.66175,21.54376,-0.6104459,-0.2660798,0.27436,6.032567,32.22172,-33.67559,1007.613
35.333245754,-10.25128,29.54177,46.61015,-0.7257719,-0.2685915,0.3149394,6.038344,32.22741,-33.22931,1007.613
35.367893696,-9.391255,22.61713,70.51208,-0.777129,-0.3076131,0.3199169,6.038344,32.22741,-33.22931,1007.613
35.400065899,-15.04285,22.49876,85.95641,-0.7431455,-0.2659097,0.3368136,6.038344,32.22741,-33.22931,1007.615
35.434713841,-31.13762,25.45801,98.64283,-0.7220014,-0.2571639,0.3516304,9.073674,32.57697,-32.35408,1007.611
35.466886520,-56.99983,22.55794,111.8195,-0.8293429,-0.2604836,0.3554966,11.35235,31.79385,-31.4694,1007.613
35.501534462,-76.3504,13.38426,121.1965,-0.7946501,-0.3592253,0.3505028,11.35235,31.79385,-31.4694,1007.615
35.533707142,-83.66062,11.43116,129.5315,-0.815149,-0.4156666,0.3193809,15.52016,31.36422,-30.66001,1007.615
35.568355084,-84.58208,14.56796,133.6377,-0.8580574,-0.4381491,0.3345379,19.01402,32.10571,-28.45005,1007.615
35.600528240,-103.3184,12.96997,130.696,-0.9171082,-0.4741266,0.3516623,19.01402,32.10571,-28.45005,1007.616
35.635175228,-96.68387,8.649462,123.0964,-0.9314176,-0.6506276,0.3021407,22.83912,31.33523,-24.89543,1007.616
35.667347908,-69.59306,14.09448,111.1454,-0.9020236,-0.6685611,0.3243726,26.27969,30.56363,-21.8489,1007.614
35.701995850,-45.14376,20.24973,92.14641,-0.8866633,-0.6408988,0.3967572,30.46488,29.00847,-19.63133,1007.614
35.734169007,-38.44784,24.92534,71.24753,-0.8610399,-0.6383817,0.4249769,30.46488,29.00847,-19.63133,1007.614
35.766341686,-32.98054,27.4703,51.26797,-0.8397246,-0.6337948,0.4040898,32.75486,27.85559,-17.85223,1007.616
35.800989151,-23.27453,23.5049,26.99831,-0.7850202,-0.6465946,0.4160058,35.03715,26.31428,-16.64505,1007.616
35.833161831,-14.98142,24.09675,4.199534,-0.76213,-0.638083,0.4645444,35.03715,26.31428,-16.64505,1007.616
35.867809773,-14.1214,22.20283,-18.53795,-0.7424585,-0.5746946,0.4518694,36.57125,25.17214,-14.86208,1007.618
35.899982453,-1.589593,20.48647,-29.50833,-0.8877078,-0.6414024,0.3307289,36.58307,25.56465,-13.97138,1007.618
35.934630394,28.14273,12.20056,-37.90465,-0.9655831,-0.6789939,0.3152397,36.58307,25.56465,-13.97138,1007.619
35.966802597,50.13481,11.2536,-42.07217,-1.172961,-0.6397066,0.2408607,36.20538,25.95115,-13.97131,1007.621
36.001450539,55.41783,-11.47344,-56.16818,-1.227283,-0.5675632,0.2458183,35.44449,27.0996,-14.41931,1007.617
36.033623219,53.51348,-13.6041,-77.3735,-1.132359,-0.5402401,0.2625098,35.44449,27.0996,-14.41931,1007.619
36.068271160,64.57097,-13.30818,-98.88525,-1.064854,-0.4219536,0.2242952,34.29989,28.24774,-15.31165,1007.619
36.100444317,65.2467,-16.50417,-113.1651,-1.008996,-0.4234364,0.1938777,32.00496,29.39574,-17.47328,1007.619
36.135091305,75.99702,-14.37351,-114.2683,-1.002827,-0.4207259,0.1716706,32.00496,29.39574,-17.47328,1007.619
36.167264462,67.2739,-25.08599,-105.8107,-1.049694,-0.4350183,0.176328,29.33813,30.93593,-19.18855,1007.619
36.201911926,62.17517,-43.2558,-93.4307,-1.038793,-0.5349452,0.1281666,25.12956,32.08722,-23.18938,1007.619
36.234085083,58.05934,-50.47637,-80.25399,-0.966147,-0.4468726,0.07760483,25.12956,32.08722,-23.18938,1007.619
36.268732071,28.32702,-53.9091,-74.86073,-0.8954588,-0.4115419,0.1100125,21.70081,33.25132,-25.34521,1007.619
36.300905705,0.3147496,-48.81919,-71.30608,-0.8496298,-0.4915972,0.1436288,18.65444,33.65266,-27.11672,1007.617
36.333077908,0.683332,-41.36188,-68.4256,-0.82236,-0.5860443,0.1242798,18.65444,33.65266,-27.11672,1007.617
36.367725849,11.86367,-31.47798,-63.70649,-0.7549826,-0.5699062,0.1204101,15.17844,33.69051,-27.99156,1007.617
36.399898529,18.86673,-19.70016,-58.68095,-0.7167543,-0.5559219,0.1331827,12.14413,34.86548,-28.87423,1007.617
36.434546471,27.52842,-2.536506,-48.56859,-0.6985835,-0.5297943,0.1341925,12.14413,34.86548,-28.87423,1007.617
36.466718674,37.23442,5.098361,-38.33366,-0.7020085,-0.5148323,0.1839938,9.493079,35.34203,-29.30914,1007.618
36.501366615,51.30199,14.92307,-26.19883,-0.6803304,-0.4920236,0.1974755,7.597301,34.91854,-29.74358,1007.614
36.533539772,53.88207,18.82929,-14.37043,-0.6933296,-0.3970553,0.2306737,7.597301,34.91854,-29.74358,1007.614
36.568187237,33.5486,19.53951,-0.8872886,-0.7013494,-0.3494106,0.2986212,6.446204,33.775,-31.00729,1007.614
36.600360394,14.25945,19.83543,13.08615,-0.7102877,-0.3741694,0.2922345,6.044637,32.99536,-32.78675,1007.614
