Time (s),Gyroscope X (deg/s),Gyroscope Y (deg/s),Gyroscope Z (deg/s),Accelerometer X (g),Accelerometer Y (g),Accelerometer Z (g),Magnetometer X (uT),Magnetometer Y (uT),Magnetometer Z (uT),Barometer (hPa)
0.011703491,-2.389186,0.447228,-1.354048,-0.03289523,0.702422,0.724512,-9.945901,-27.74968,-73.67648,1007.829
0.044480801,-5.93007,0.0926719,-1.170781,-0.04552429,0.7047752,0.7279079,-9.939763,-28.11921,-74.0437,1007.825
0.077257633,-6.986124,-0.9709963,-0.4988016,-0.02892688,0.669417,0.736105,-9.939763,-28.11921,-74.0437,1007.827
0.110034943,-3.631602,-1.26646,-0.6209796,-0.02551244,0.6631206,0.7370691,-9.163726,-27.38628,-73.62107,1007.827
0.142811775,0.7789731,-1.384645,-0.6209796,-0.0211339,0.6602584,0.7404326,-9.958696,-27.01486,-73.25282,1007.827
0.178110123,2.083509,-0.4391622,-0.4988016,-0.01292599,0.6787907,0.7341275,-9.163726,-27.38628,-73.62107,1007.827
0.210887432,1.275939,0.624506,-0.5598906,-0.01779357,0.68311,0.730763,-9.163726,-27.38628,-73.62107,1007.827
0.243664742,0.53049,1.097248,0.4786227,-0.02118929,0.6816173,0.7302919,-9.595243,-27.02083,-73.62625,1007.821
0.276441574,0.8410938,1.215433,0.7229788,-0.02363951,0.6918547,0.7346146,-9.582447,-27.75564,-74.0499,1007.824
0.311739922,0.4683693,0.6835987,0.7229788,-0.02703303,0.6888807,0.7312576,-9.582447,-27.75564,-74.0499,1007.824
0.344517231,-0.7740463,0.447228,1.028424,-0.02119979,0.6865043,0.7326913,-9.595345,-27.02168,-73.68841,1007.824
0.377294064,-1.830099,0.624506,0.9673348,-0.02215768,0.6806418,0.7312585,-9.589312,-27.39206,-74.11779,1007.82
0.410071373,-0.5255632,0.5063207,0.6008008,-0.021666,0.6787212,0.7346297,-9.589312,-27.39206,-74.11779,1007.822
0.442848206,-0.3392008,0.0926719,-0.01008946,-0.02506141,0.676728,0.7322339,-9.165179,-27.39817,-74.49129,1007.824
0.478146553,-1.08465,0.7426914,-0.3155345,-0.01537688,0.6880072,0.7317126,-9.595969,-27.02677,-74.06136,1007.824
0.510923863,-1.705858,0.7426914,0.3564446,-0.007569852,0.6709859,0.7259434,-9.595969,-27.02677,-74.06136,1007.822
0.543701172,-1.519496,1.274526,-0.1322675,-0.01778355,0.679731,0.7351003,-9.582447,-27.75564,-74.0499,1007.824
0.576478004,-1.208892,0.801784,-0.5598906,-0.03720947,0.6795188,0.7279263,-9.595969,-27.02677,-74.06136,1007.82
0.611776352,-0.8982879,-0.4391622,-0.6209796,-0.03866373,0.6790397,0.7308187,-9.595969,-27.02677,-74.06136,1007.82
0.644553661,-0.4013216,-0.852811,0.4786227,-0.031362,0.6718084,0.7327376,-9.952559,-27.38439,-73.62005,1007.82
0.677330494,1.524422,-0.9709963,0.4175337,-0.03283195,0.6776506,0.7341764,-9.966808,-26.66146,-74.06662,1007.826
0.710108280,1.33806,-0.6164403,0.05099956,-0.02507148,0.6816217,0.7355961,-9.966808,-26.66146,-74.06662,1007.824
0.742884636,0.03352382,-0.6164403,-0.1322675,-0.01681842,0.6821708,0.734613,-9.164556,-27.39307,-74.11834,1007.824
0.778182983,-1.08465,-0.02551346,0.05099956,-0.01488154,0.6836181,0.730274,-9.960047,-27.0259,-74.06089,1007.824
0.810960293,-1.89222,0.6835987,0.2342666,-0.01972921,0.6806721,0.7326967,-9.960047,-27.0259,-74.06089,1007.822
0.843738079,-1.395254,0.624506,-0.07117847,-0.01971477,0.6753416,0.7365556,-9.966185,-26.65636,-73.69366,1007.822
0.876514912,-0.2149593,0.3290426,-0.3155345,-0.02504856,0.6718777,0.7351294,-9.178701,-26.66929,-74.50275,1007.82
0.911813736,0.4683693,0.2108573,0.05099956,-0.02797006,0.6752626,0.7351313,-9.178701,-26.66929,-74.50275,1007.82
0.944590569,1.027456,-0.02551346,0.1731776,-0.02604025,0.6791249,0.7279004,-9.184839,-26.29976,-74.13553,1007.819
0.977367878,-0.02859696,-0.3209769,-0.01008946,-0.02021888,0.6821191,0.7312516,-9.602004,-26.65639,-73.63198,1007.819
1.010144711,-0.6498048,0.1517646,-0.1933565,-0.01778523,0.680715,0.7365429,-9.602004,-26.65639,-73.63198,1007.819
1.042922020,-1.022529,0.3290426,-0.6209796,-0.02894226,0.6752378,0.7327267,-9.960047,-27.0259,-74.06089,1007.819
1.078220367,-1.395254,-0.2618842,-0.2544455,-0.02894528,0.6777165,0.7389807,-9.588482,-27.38526,-73.62052,1007.821
1.110997200,-0.9604087,-0.2027915,0.05099956,-0.02651872,0.6777167,0.7360868,-9.184736,-26.29891,-74.07337,1007.817
1.143774509,0.03352382,-0.08460614,0.2342666,-0.02066639,0.665536,0.7283895,-9.184736,-26.29891,-74.07337,1007.817
1.176551819,0.7168523,-0.2027915,0.1731776,-0.0206832,0.6733552,0.7322286,-9.595969,-27.02677,-74.06136,1007.817
1.211850166,0.03352382,-0.02551346,0.05099956,-0.02068706,0.6758205,0.7365572,-9.171213,-27.02779,-74.06191,1007.817
1.244626999,-0.7740463,0.1517646,-0.2544455,-0.02264258,0.6816587,0.7379971,-9.171213,-27.02779,-74.06191,1007.817
1.277404308,-0.8361671,0.1517646,-0.01008946,-0.02554843,0.6777114,0.7341591,-9.960773,-27.03184,-74.496,1007.817
1.310181141,-0.2149593,0.1517646,-0.1322675,-0.02068247,0.6728615,0.7312667,-9.595345,-27.02168,-73.68841,1007.821
1.342958450,0.3441277,-0.2618842,0.1120886,-0.02311113,0.6738387,0.7346405,-9.595345,-27.02168,-73.68841,1007.821
1.378256798,0.2820069,-0.02551346,0.05099956,-0.02166252,0.6772601,0.7346319,-9.96015,-27.02674,-74.12305,1007.817
1.411033630,-0.4634424,0.0926719,-0.07117847,-0.02166609,0.679225,0.7370357,-9.171213,-27.02779,-74.06191,1007.821
1.443810940,-0.4634424,-0.02551346,-0.1933565,-0.02068146,0.6743929,0.7413729,-9.171213,-27.02779,-74.06191,1007.817
1.476588249,-0.6498048,-0.02551346,-0.1322675,-0.02748638,0.6762475,0.7360913,-9.17194,-27.03373,-74.49702,1007.823
1.511886597,0.1577654,-0.02551346,-0.01008946,-0.02164273,0.6694878,0.7375317,-9.972946,-26.29193,-73.69939,1007.823
1.544663429,0.3441277,0.03357922,-0.01008946,-0.02408899,0.6767561,0.7351198,-9.972946,-26.29193,-73.69939,1007.823
1.577440739,0.2820069,0.03357922,-0.07117847,-0.02602791,0.6747717,0.7322392,-9.602107,-26.65724,-73.69414,1007.825
1.610217571,-0.09071773,0.2108573,-0.1933565,-0.0226325,0.676765,0.7346349,-9.170486,-27.02184,-73.6268,1007.825
1.642994881,-0.5255632,0.2699499,-0.1933565,-0.02409859,0.6801419,0.7317452,-9.170486,-27.02184,-73.6268,1007.825
1.678293228,-0.4634424,-0.08460614,-0.07117847,-0.02456369,0.6733865,0.7413837,-9.609595,-26.29874,-74.13498,1007.825
1.711070061,0.09564459,0.03357922,-0.07117847,-0.0245572,0.6694467,0.7351319,-9.96015,-27.02674,-74.12305,1007.825
1.743847370,0.3441277,0.2108573,-0.01008946,-0.02164349,0.6689706,0.7332003,-9.96015,-27.02674,-74.12305,1007.825
1.776625156,0.4683693,0.0926719,0.1120886,-0.02118146,0.6797194,0.7375152,-9.95932,-27.01995,-73.62578,1007.825
1.811923504,0.2198862,-0.4391622,0.05099956,-0.02458068,0.6786768,0.7317485,-9.960047,-27.0259,-74.06089,1007.827
1.844700813,-0.02859696,-0.02551346,0.2342666,-0.01730249,0.6821902,0.7379836,-9.960047,-27.0259,-74.06089,1007.831
1.877477646,-0.09071773,-0.2027915,-0.01008946,-0.02067485,0.6709602,0.7380086,-9.595345,-27.02168,-73.68841,1007.831
1.910254955,1.151698,0.0926719,-0.07117847,-0.02697767,0.666511,0.7361048,-9.596072,-27.02762,-74.12352,1007.831
1.943031788,1.959268,-0.6164403,-0.07117847,-0.02604466,0.6810763,0.7283788,-9.596072,-27.02762,-74.12352,1007.829
1.978330135,0.6547315,-0.4391622,-0.07117847,-0.01730429,0.6826672,0.7365388,-9.589312,-27.39206,-74.11779,1007.831
2.011107445,0.3441277,0.03357922,-0.1322675,-0.01972534,0.6782068,0.7283682,-8.792887,-27.75159,-73.61581,1007.829
2.043884277,0.1577654,0.2699499,-0.2544455,-0.02118929,0.6816173,0.7302919,-8.792887,-27.75159,-73.61581,1007.829
2.076661587,0.2198862,0.03357922,-0.5598906,-0.02555632,0.6811239,0.7346353,-9.595345,-27.02168,-73.68841,1007.829
2.109438896,0.5926108,-0.02551346,-0.1933565,-0.02359943,0.6748021,0.7336774,-9.608766,-26.29195,-73.63771,1007.829
2.144737244,-0.1528385,-0.1436988,-0.1933565,-0.02119045,0.6821043,0.7302912,-9.966808,-26.66146,-74.06662,1007.831
2.177514076,-0.4634424,-0.08460614,-0.1933565,-0.02506086,0.6772418,0.736084,-9.966808,-26.66146,-74.06662,1007.833
2.210291386,-0.09071773,-0.02551346,-0.4377126,-0.02894744,0.6766721,0.7288737,-9.603457,-26.66828,-74.5022,1007.833
2.243068218,-0.2149593,-0.02551346,-0.1933565,-0.02020774,0.6772422,0.7302962,-9.960047,-27.0259,-74.06089,1007.833
2.278366566,-0.3392008,-0.02551346,-0.07117847,-0.0265182,0.6772196,0.7346435,-9.960047,-27.0259,-74.06089,1007.833
2.311143875,-0.3392008,0.1517646,-0.1322675,-0.02213332,0.672436,0.7418607,-9.960047,-27.0259,-74.06089,1007.839
2.343920708,0.3441277,0.1517646,0.05099956,-0.02312574,0.6801768,0.7355937,-9.60138,-26.65129,-73.25903,1007.837
2.376698017,0.3441277,-0.02551346,-0.07117847,-0.02554904,0.6787122,0.7380085,-9.60138,-26.65129,-73.25903,1007.835
2.409475327,0.2198862,0.03357922,0.05099956,-0.01972881,0.6796679,0.728366,-9.602004,-26.65639,-73.63198,1007.835
2.444773674,-0.7119256,0.0926719,0.05099956,-0.02215333,0.680205,0.7384795,-10.32412,-27.02502,-74.06042,1007.837
2.477550507,-0.8361671,0.03357922,-0.1322675,-0.02360077,0.6762967,0.7384888,-10.32412,-27.02502,-74.06042,1007.837
2.510327816,-0.1528385,0.3881353,0.1731776,-0.02359532,0.673351,0.7351238,-9.953389,-27.39118,-74.11732,1007.837
2.543104648,0.2198862,0.3290426,0.2953556,-0.02409173,0.6777235,0.7341556,-9.595345,-27.02168,-73.68841,1007.837
2.578402996,-0.2770801,0.1517646,0.1731776,-0.02312081,0.6777283,0.7336719,-9.595345,-27.02168,-73.68841,1007.837
2.611180782,-0.7740463,0.0926719,0.05099956,-0.02457815,0.6777061,0.7322313,-9.960773,-27.03184,-74.496,1007.837
2.643958092,-1.022529,0.2699499,0.2342666,-0.02362267,0.6850464,0.7360688,-9.960773,-27.03184,-74.496,1007.839
2.676734924,-1.457375,0.3881353,0.1731776,-0.03089461,0.6801153,0.7360935,-9.960773,-27.03184,-74.496,1007.837
2.709512234,-1.333133,-0.02551346,0.3564446,-0.02117443,0.6762934,0.7351136,-9.595969,-27.02677,-74.06136,1007.835
2.744810581,-1.395254,0.2699499,0.3564446,-0.02213399,0.6714151,0.7351232,-9.595243,-27.02083,-73.62625,1007.835
2.777587891,-0.5255632,0.2108573,0.2342666,-0.0226184,0.6709239,0.7351251,-9.595243,-27.02083,-73.62625,1007.835
2.810364723,0.4683693,0.2108573,-0.1933565,-0.02406932,0.6684766,0.7351322,-9.960773,-27.03184,-74.496,1007.835
2.843142033,0.6547315,0.0926719,-0.3766236,-0.02507051,0.6821421,0.7404089,-9.959423,-27.0208,-73.68793,1007.833
2.878440380,-0.4634424,0.03357922,-0.2544455,-0.0236125,0.6796489,0.7303006,-9.959423,-27.0208,-73.68793,1007.832
2.911217213,-1.581616,0.03357922,0.2342666,-0.02505602,0.675297,0.7365683,-9.170589,-27.02269,-73.68896,1007.83
2.943994522,-0.8982879,0.0926719,0.3564446,-0.02503105,0.6660904,0.7433212,-9.602731,-26.66233,-74.06709,1007.83
2.976771355,0.7168523,-0.08460614,0.1120886,-0.02019087,0.6714447,0.7370439,-9.602731,-26.66233,-74.06709,1007.828
3.009548664,0.9653354,-0.02551346,-0.07117847,-0.02360762,0.6787151,0.7360784,-9.178078,-26.6642,-74.1298,1007.826
3.044847012,-0.3392008,0.2108573,0.05099956,-0.02021992,0.6831132,0.7341383,-9.178078,-26.6642,-74.1298,1007.825
3.077624321,-1.271012,0.2108573,0.1120886,-0.02313938,0.6870354,0.7413597,-9.610219,-26.30384,-74.50793,1007.825
3.110401154,-0.4634424,-0.02551346,0.05099956,-0.02164282,0.6699915,0.7399377,-9.610219,-26.30384,-74.50793,1007.825
3.143178463,0.4683693,-0.02551346,-0.01008946,-0.0265003,0.670428,0.7385045,-9.95932,-27.01995,-73.62578,1007.829
3.178476810,-0.2770801,-0.02551346,0.2953556,-0.02166596,0.6797321,0.7399231,-9.966185,-26.65636,-73.69366,1007.831
3.211253643,-3.569481,1.15634,0.6618897,-0.01729038,0.6742973,0.7235546,-9.966185,-26.65636,-73.69366,1007.828
3.244030953,-4.501293,0.801784,1.394958,-0.02948368,0.6991115,0.7346175,-10.33016,-26.65464,-73.63104,1007.828
3.276807785,-8.725506,2.870028,1.88367,-0.03388507,0.7112138,0.7293147,-9.95932,-27.01995,-73.62578,1007.834
3.309585095,-20.40421,6.770144,7.015147,-0.01664229,0.813719,0.7411534,-9.95932,-27.01995,-73.62578,1007.834
3.344883442,-43.14042,12.62032,31.38966,0.0210119,1.11719,0.7723765,-9.608766,-26.29195,-73.63771,1007.836
3.377660751,43.33171,1.747267,74.70178,-0.02345917,1.220973,0.6919382,-9.627699,-25.1876,-72.84683,1007.836
3.410438538,-41.33891,17.82048,129.9873,0.05500256,1.123046,0.8030942,-9.627699,-25.1876,-72.84683,1007.836
3.443215370,80.41781,14.80675,170.5504,0.1490373,0.7343391,0.5430403,-9.978579,-25.49852,-68.98679,1007.836
3.478513718,130.425,17.52501,186.1892,0.2069618,1.116873,0.7132099,-13.61179,-25.00818,-60.4099,1007.836
3.511291027,53.39527,24.9116,189.8546,0.01170922,0.9451925,0.7731392,-13.61179,-25.00818,-60.4099,1007.834
3.544067860,-6.73764,16.28407,181.3021,0.05256678,0.7011467,0.7185349,-16.47024,-27.07658,-52.22896,1007.834
3.576845169,-25.31175,5.529198,169.7563,0.05520076,0.425578,0.7993314,-18.7009,-24.09132,-47.54791,1007.832
3.609622002,-54.26003,-29.2173,135.7908,0.06535244,0.2810142,1.00988,-18.7009,-24.09132,-47.54791,1007.832
3.644920826,-80.28864,-69.69579,102.4973,0.1202471,0.261159,0.9601997,-20.66696,-19.32535,-45.87953,1007.832
3.677697658,-53.32822,-95.04655,73.66327,0.248428,0.0474206,0.8865695,-22.60196,-13.05293,-45.10532,1007.831
3.710474968,28.04999,-118.6245,51.97666,0.3971189,0.1796307,0.7396836,-22.60196,-13.05293,-45.10532,1007.831
3.743251800,17.42734,-120.9882,32.67253,0.5132065,0.3422956,0.5990868,-26.33604,-7.931052,-44.37278,1007.829
3.778550148,-1.581616,-110.8243,17.64464,0.6128173,0.2775295,0.4107357,-29.63448,-6.352065,-40.53857,1007.827
3.811327457,-0.4634424,-89.01909,11.65791,0.7287758,0.4836317,0.2132731,-29.63448,-6.352065,-40.53857,1007.825
3.844104290,16.61977,-56.28175,13.97929,0.7786016,0.3371635,0.1021811,-34.06721,-5.947292,-38.36303,1007.825
3.876881599,32.89542,-22.95347,14.95672,0.824079,0.4086971,0.1087045,-36.99586,-4.812186,-35.82795,1007.824
3.909658432,29.29241,9.252038,15.50652,0.813854,0.4339358,0.1784882,-36.99586,-4.812186,-35.82795,1007.822
3.944957256,51.34529,26.97984,17.95008,0.8119305,0.4246159,0.1712863,-39.17211,-5.159499,-34.94918,1007.822
3.977734089,44.26352,50.02599,14.95672,0.8138477,0.4383827,0.1876274,-38.44395,-5.161244,-34.95012,1007.82
4.010511398,101.2904,88.08168,21.61542,1.014833,0.3116158,-0.5640639,-38.44395,-5.161244,-34.95012,1007.82
4.043288231,197.8261,265.8325,17.95008,1.282319,0.6047956,-1.308844,-37.69021,-6.632626,-35.79836,1007.82
4.076066017,0.09564459,460.1883,-4.530677,0.2991701,0.6102368,0.09568625,-34.74483,-8.540362,-37.07785,1007.818
4.111364365,-641.3635,276.351,-105.1443,-1.033932,-0.1184001,2.255965,-24.40915,-13.36036,-41.2434,1007.818
4.144141674,437.6122,60.83995,34.01649,0.0786771,1.67546,0.2298664,-24.40915,-13.36036,-41.2434,1007.817
4.176918507,23.45306,47.60319,-11.0672,0.8345021,0.6350823,0.7138917,-17.92009,-6.773442,-42.66136,1007.817
4.209695816,-38.35711,52.09423,-17.7259,0.1253072,0.5340995,0.7022478,-16.3267,-14.12047,-42.11257,1007.817
4.244994164,-7.607331,47.36682,-22.00214,0.2598935,0.5461391,0.9411473,-16.3267,-14.12047,-42.11257,1007.815
4.277771473,10.28345,25.20706,-14.06056,0.3643776,0.676655,0.7438258,-14.89213,-13.04254,-43.00187,1007.813
4.310548306,3.263804,15.63405,-9.539976,0.35786,0.5597521,0.7497937,-13.44185,-12.67564,-42.57436,1007.811
4.343325615,-31.95868,9.074759,-20.84144,0.2081549,0.4349412,0.8413143,-13.44185,-12.67564,-42.57436,1007.811
4.376102448,-11.21034,-1.975572,-32.93707,0.1119086,0.27392,0.8441921,-11.98024,-13.05546,-43.44073,1007.811
4.411400795,14.44554,1.924545,-52.48555,0.2761509,0.4029309,0.7088268,-11.63041,-12.3334,-43.88778,1007.81
4.444178105,-22.51632,24.49795,-65.0088,0.2697752,0.4327007,0.7251633,-11.63041,-12.3334,-43.88778,1007.808
4.476954937,-21.46026,22.84335,-73.3169,0.07350869,0.5224949,0.9868729,-12.00197,-11.97404,-44.32815,1007.808
4.509732247,-17.29817,16.16588,-83.09115,0.1735241,0.4983938,0.8326363,-11.61906,-13.08011,-45.18166,1007.808
4.545030594,-22.14359,16.52044,-89.93311,0.2430625,0.4540997,0.8229109,-11.61906,-13.08011,-45.18166,1007.808
4.577807903,-15.49667,9.074759,-93.53737,0.1600109,0.4692663,0.8625567,-9.800027,-13.09551,-45.99207,1007.812
4.610584736,35.87721,13.86127,-80.89194,0.2051557,0.6457095,0.6874494,-8.644715,-13.49837,-48.5985,1007.812
4.643362045,-3.134636,15.87042,-94.51479,0.2101465,0.6266541,0.8828991,-8.644715,-13.49837,-48.5985,1007.812
4.676138878,-36.86621,14.68856,-90.48292,0.04237013,0.7409765,0.9254846,-7.538961,-14.22987,-48.58845,1007.809
4.711437225,11.96071,7.479257,-74.11106,0.04089994,0.4998164,0.7063506,-6.039578,-16.81923,-51.09873,1007.809
4.744214535,-57.98728,7.833813,-86.87866,-0.2099666,0.8741835,0.9138483,-6.039578,-16.81923,-51.09873,1007.809
4.776992321,-121.9717,2.279101,-83.27441,-0.1872493,0.5166557,0.9509168,-4.929969,-17.93893,-52.82339,1007.809
4.809769154,11.89859,0.2699499,-81.1363,-0.1590666,0.06463042,0.7695764,-3.499653,-16.89581,-56.2612,1007.807
4.845067501,43.0211,-9.066693,-78.50947,-0.1787719,0.8111308,0.8440719,-3.499653,-16.89581,-56.2612,1007.813
4.877844810,-24.5663,-5.757504,-75.57719,-0.1625247,0.7379832,0.9514872,-1.75935,-12.93807,-59.74531,1007.813
4.910622120,-12.39063,-11.78496,-71.17879,-0.1380197,0.6295903,0.8832392,1.627133,-15.90232,-62.6874,1007.813
4.943398952,-6.364916,-7.412099,-64.76444,-0.08685185,0.7268173,0.7255659,1.627133,-15.90232,-62.6874,1007.813
4.976176262,-68.05085,7.065608,-54.37931,-0.06690749,0.7320966,0.8304475,4.130851,-13.75663,-65.27358,1007.813
5.011474609,-50.22218,12.38395,-53.15754,-0.09477827,0.4086192,0.8521811,5.863238,-9.024158,-65.41258,1007.813
5.044251442,5.251669,16.22497,-47.17081,-0.0273448,0.4183369,0.7677682,8.296438,-2.768154,-65.07912,1007.813
5.077028751,39.04537,32.06181,-39.59577,-0.04564512,0.5452992,0.6973414,8.296438,-2.768154,-65.07912,1007.811
5.109805584,44.63624,47.89865,-14.61036,-0.0876433,0.6755746,0.8517618,8.972683,0.1634283,-63.82057,1007.811
5.145103931,45.87866,35.54828,-9.662154,-0.08346578,0.5665383,0.9255646,11.95805,-0.5844598,-64.68317,1007.811
5.177881241,88.92835,36.9665,-1.170781,-0.1000885,0.5646194,0.6695224,11.95805,-0.5844598,-64.68317,1007.811
5.210658550,64.2664,36.61195,-15.28234,-0.3978699,0.6803585,1.002194,15.99213,-2.033975,-63.36008,1007.811
5.243435383,91.22682,14.03854,-17.11502,-0.3918411,0.369894,0.8933784,17.52354,-6.040329,-62.86382,1007.811
5.276212692,109.6767,12.7976,-27.43906,-0.3254404,0.5786508,0.6469305,17.52354,-6.040329,-62.86382,1007.815
5.311511040,67.18608,12.44304,-36.29697,-0.2058752,0.7814766,0.8846152,20.93038,-9.747493,-62.37476,1007.813
5.344288826,38.61053,13.5658,-31.1044,-0.1723685,0.7656289,0.806579,22.47521,-14.48357,-61.92919,1007.813
5.377065659,7.7365,23.55247,-33.05925,-0.3610147,0.6384869,0.6796572,22.47521,-14.48357,-61.92919,1007.813
5.409842968,15.68796,33.18457,-33.3036,-0.4768581,0.5589316,0.7248185,23.23935,-16.28967,-60.59615,1007.813
5.445141316,34.82116,37.14378,-31.34875,-0.4271521,0.6798102,0.6783078,25.43806,-17.01783,-60.1524,1007.815
5.477918148,18.91824,39.86205,-33.05925,-0.4130706,0.6667929,0.610422,25.43806,-17.01783,-60.1524,1007.815
5.510695458,20.90611,46.83498,-34.46429,-0.4604967,0.6057519,0.6443218,27.98878,-17.00611,-58.85035,1007.813
5.543472767,24.57123,48.90322,-35.50281,-0.49785,0.5847772,0.6145976,29.8256,-17.71557,-57.10079,1007.813
5.576249599,48.17713,50.49873,-34.21994,-0.5179925,0.6774256,0.5846612,29.8256,-17.71557,-57.10079,1007.813
5.611547947,5.686515,55.99435,-37.2133,-0.5903767,0.6752687,0.5015606,33.53662,-18.06595,-55.42155,1007.813
5.644325256,34.13783,59.00808,-34.58647,-0.6018475,0.6032723,0.5276899,35.73936,-18.83109,-53.2364,1007.813
5.677102089,16.80613,59.599,-39.53468,-0.615138,0.6675257,0.468417,35.73936,-18.83109,-53.2364,1007.818
5.709879398,20.5955,63.79459,-38.00746,-0.6568156,0.6300594,0.4536501,39.3769,-18.4465,-51.13343,1007.818
5.745177746,12.45768,62.31727,-39.41251,-0.7052281,0.564222,0.4293148,41.99111,-18.412,-48.15318,1007.82
5.777954578,20.84398,61.60816,-37.03003,-0.6748417,0.6410892,0.3805093,41.99111,-18.412,-48.15318,1007.82
5.810731888,5.748635,61.01723,-37.15221,-0.7209005,0.612,0.3849947,45.62908,-17.95394,-45.11877,1007.82
5.843509197,15.25311,58.94898,-36.35806,-0.8343031,0.4978089,0.2790548,48.1616,-16.83192,-42.59074,1007.818
5.876286030,24.69547,52.98062,-33.91449,-0.7945278,0.515177,0.2774901,48.1616,-16.83192,-42.59074,1007.816
5.911585331,11.65011,46.95317,-33.18143,-0.7778069,0.6287257,0.2671708,51.07098,-16.4456,-40.48683,1007.814
5.944362164,8.606191,42.40303,-30.79895,-0.8483066,0.4483961,0.1939614,53.31372,-16.05088,-37.88479,1007.814
5.977139473,19.1046,36.73013,-26.46163,-0.832406,0.5011588,0.1981765,53.31372,-16.05088,-37.88479,1007.811
6.009916306,0.9653354,35.54828,-29.57717,-0.8441723,0.5568839,0.2414429,55.47468,-14.5695,-35.79713,1007.811
6.042693615,-6.67552,33.24366,-28.2943,-0.9130594,0.5098184,0.1396286,56.54277,-13.09059,-34.08101,1007.811
6.077991962,-16.18,31.05724,-26.58381,-0.8671968,0.429778,0.2007734,57.98233,-11.9719,-31.98668,1007.809
6.110768795,-14.6891,27.86623,-26.40055,-0.8361867,0.6658927,0.2191171,57.98233,-11.9719,-31.98668,1007.809
6.143546104,-17.42241,17.76138,-32.38727,-0.9345644,0.3508736,0.07108441,59.41304,-10.50576,-31.14126,1007.809
6.176322937,-6.489158,11.85212,-28.96628,-0.9106162,0.4888612,0.06456193,59.74477,-8.672556,-30.30015,1007.807
6.211621761,-12.39063,10.49298,-28.2943,-0.9012136,0.4457403,0.2258608,59.74477,-8.672556,-30.30015,1007.807
6.244398594,-6.924003,7.183794,-27.1947,-0.9410188,0.4284106,0.1629229,60.45296,-7.508363,-29.44902,1007.807
6.277175903,3.822891,1.80636,-28.59975,-0.9157864,0.4202698,0.08248796,61.1676,-6.781234,-29.46142,1007.807
6.309952736,1.089577,1.983638,-29.51608,-0.9205381,0.3819517,0.1109573,61.1676,-6.781234,-29.46142,1007.809
6.342730045,0.8410938,3.874604,-32.204,-0.9625915,0.3078088,0.1453455,61.55855,-4.960067,-29.49062,1007.809
6.378028393,4.568341,1.038155,-34.64756,-0.9588234,0.3605741,0.1645115,60.74943,-3.864866,-29.50679,1007.811
6.410806179,10.46981,-4.812021,-40.5732,-0.9884359,0.3402298,0.07604184,60.74943,-3.864866,-29.50679,1007.811
6.443583012,5.438032,-11.78496,-47.17081,-0.937408,0.5494332,0.1925764,61.08105,-2.032515,-28.72784,1007.813
6.476360321,-9.408834,-7.293914,-48.75912,-0.9779015,0.2390188,0.2870058,61.06077,-0.9392037,-28.74503,1007.813
6.511658669,17.67582,5.824662,-44.48289,-0.9598094,0.1916377,0.3154347,61.06077,-0.9392037,-28.74503,1007.811
6.544435978,-3.258877,25.02978,-39.59577,-0.8832761,0.02470104,0.1003361,61.01958,1.242323,-29.15237,1007.811
6.577212810,-22.7648,32.9482,-44.42181,-1.251868,-0.2675187,-0.4365117,60.99276,2.77185,-28.36818,1007.811
6.609990120,-9.781559,27.68895,-40.63428,-0.9744002,0.1674004,0.1393274,60.99276,2.77185,-28.36818,1007.811
6.642766952,-20.09361,42.10757,-41.48953,-0.9177557,0.5547159,0.7186502,60.95582,4.988191,-26.227,1007.811
6.678065300,-42.64345,46.06678,-38.37399,-0.9613256,0.4482995,0.4560904,62.0898,6.089777,-25.43761,1007.811
6.743619442,-12.26639,49.43506,-43.01676,-1.08976,0.007992951,-0.2332141,62.4109,8.675627,-22.86752,1007.811
6.776396751,2.456234,50.55782,-44.17745,-1.020783,0.01454158,-0.144817,62.73867,10.89619,-20.35386,1007.811
6.811695099,-0.5255632,54.22157,-41.00082,-1.017319,0.01508735,-0.0004174837,62.73867,10.89619,-20.35386,1007.811
6.844472408,8.295587,55.99435,-39.84013,-1.009002,-0.002055312,0.04579936,63.05865,13.54278,-17.78473,1007.811
6.877249241,24.01214,53.68973,-33.73123,-0.9560606,-0.04887073,-0.1665362,63.77224,14.68105,-14.38412,1007.811
6.910026550,29.72725,51.5033,-29.27173,-0.9846474,-0.07137905,-0.14718,63.77224,14.68105,-14.38412,1007.813
6.942804337,40.97112,49.19869,-26.70599,-1.046069,0.0203241,-0.1933833,63.74872,16.16767,-12.29364,1007.813
6.978102684,65.32246,38.6211,-34.95301,-0.9880048,-0.3061333,-0.2132461,63.73207,17.2907,-10.13527,1007.813
7.010879517,71.28605,39.56658,-34.83083,-1.042595,-0.007267431,-0.1731327,63.73207,17.2907,-10.13527,1007.813
7.043656826,74.64057,28.22079,-35.44172,-0.9579207,-0.3107609,-0.2845521,64.45023,18.0467,-8.034272,1007.813
7.076433659,70.16788,28.1026,-34.70865,-0.9397288,-0.176261,-0.1553116,63.33844,19.14857,-7.614941,1007.813
7.111732006,44.26352,34.42552,-20.84144,-0.9797275,0.1044252,-0.1556398,62.23123,19.86817,-8.495214,1007.814
7.144509316,49.97863,29.16627,-27.68341,-0.8936298,-0.176852,-0.2256989,62.23123,19.86817,-8.495214,1007.814
7.177286625,34.07571,35.01645,-28.96628,-0.8843601,-0.38772,-0.1637887,61.84906,20.98019,-7.206599,1007.814
7.210063458,8.792553,38.73928,-29.33282,-0.865582,-0.3218569,-0.1701902,60.69084,21.35927,-6.340618,1007.814
7.242840767,19.1046,41.39846,-24.9955,-0.9386361,-0.2612368,-0.3299204,60.69084,21.35927,-6.340618,1007.82
7.278139114,-8.973989,38.56201,-25.30094,-0.8867444,-0.4289871,-0.2821359,60.31604,22.11195,-4.67332,1007.818
7.310915947,-1.830099,39.09384,-20.71927,-0.9343523,-0.2352759,-0.3838822,59.58548,22.51379,-2.06744,1007.817
7.343693256,6.680447,36.49376,-23.40718,-0.9187973,-0.2480166,-0.4137444,59.58548,22.51379,-2.06744,1007.817
7.376471043,22.02428,36.84832,-27.56124,-0.9461256,-0.3993763,-0.4351127,58.46653,24.04679,-1.219682,1007.818
7.411769390,26.74546,23.96611,-14.67145,-0.9028267,-0.4047795,-0.2835783,57.71413,25.52921,0.4366255,1007.818
7.444546223,-19.84513,35.371,-23.04065,-0.8986189,-0.3395953,-0.3000529,57.71413,25.52921,0.4366255,1007.817
7.477323532,-57.49031,40.03933,-30.31024,-0.9270883,-0.420885,-0.3292258,56.26604,25.18015,1.314458,1007.817
7.510100842,-44.07223,41.10299,-25.66748,-0.8464373,-0.2634163,-0.474063,55.15695,26.3041,3.349919,1007.817
7.542877674,-35.12683,40.15751,-20.59709,-0.8490324,-0.2003876,-0.5121794,55.15695,26.3041,3.349919,1007.821
7.578176021,-45.25252,39.98023,-18.64224,-0.8271818,-0.1961617,-0.4910577,53.69002,27.06023,5.080785,1007.819
7.610953331,-50.84339,37.32106,-23.10174,-0.7797345,-0.3433913,-0.4986501,52.59601,27.46805,8.060087,1007.819
7.643730163,-56.12366,26.21164,-28.17213,-0.8286694,-0.38455,-0.4753666,52.59601,27.46805,8.060087,1007.819
7.676507473,-34.25714,11.61574,-30.5546,-0.811606,-0.4237487,-0.5297419,49.98221,27.85657,9.36306,1007.819
7.711805820,-19.4724,-1.561923,-23.65154,-0.8404441,-0.1370246,-0.5156649,49.26372,27.51766,11.11018,1007.815
7.744582653,-22.7648,-6.99845,-5.752457,-0.8005589,-0.1522855,-0.4469017,49.26372,27.51766,11.11018,1007.817
7.777359962,22.64549,-31.75828,21.43216,-0.9078612,-0.3197258,-0.2331516,47.05149,28.9747,10.65496,1007.817
7.810137272,52.40134,-57.52269,36.15461,-0.9440009,-0.2182052,-0.1586078,45.9706,28.23061,9.362498,1007.816
7.842914104,15.00463,-72.88679,32.79471,-0.9548079,-0.2157023,-0.4161144,45.9706,28.23061,9.362498,1007.814
7.878213406,-65.8145,-69.16395,30.41224,-0.9383904,-0.2154896,-0.6154374,45.6264,26.71514,5.096931,1007.814
7.910990238,-74.57353,-64.14107,34.01649,-0.9392166,-0.2869819,-0.6697216,44.90689,25.9481,2.187866,1007.814
7.943767548,1.586543,-69.5185,42.69113,-0.9978647,-0.3105697,-0.5593152,44.90689,25.9481,2.187866,1007.814
7.976544380,36.31206,-74.89594,43.974,-0.9021448,-0.347174,-0.615325,43.11137,24.47689,0.9078007,1007.814
8.011842728,44.512,-66.91843,38.72035,-0.8985195,-0.2461313,-0.6573644,43.14881,22.19471,-1.605376,1007.814
8.044620037,31.59088,-52.55891,42.26351,-0.8727867,-0.2267567,-0.563589,42.44261,20.6971,-4.627298,1007.814
8.077396870,50.22711,-44.04956,43.36311,-0.9522723,-0.2796651,-0.5122964,42.44261,20.6971,-4.627298,1007.814
8.110174179,46.87259,-35.95387,34.56629,-0.9242876,-0.1877569,-0.4263375,41.73267,19.58856,-5.852345,1007.812
8.142951012,23.26669,-29.92641,31.87838,-0.9264912,-0.07618707,-0.4183173,42.12691,17.73578,-7.999723,1007.81
8.178249836,22.0864,-29.04002,31.38966,-0.9454438,-0.2614476,-0.3520466,42.12691,17.73578,-7.999723,1007.809
8.211026669,36.93327,-24.19442,30.16788,-0.9865267,-0.1098119,-0.2087319,42.14502,16.62464,-9.287868,1007.809
8.243803978,19.16672,-27.14906,31.14531,-1.008927,-0.08523355,-0.2193058,42.53479,15.15498,-10.07348,1007.809
8.276581764,37.36811,-31.52191,34.99392,-0.9537076,-0.2333691,-0.2264339,42.53479,15.15498,-10.07348,1007.809
8.311880112,59.04826,-28.74456,34.99392,-1.008913,-0.07541757,-0.1384518,41.81871,14.41596,-10.93131,1007.807
8.344656944,31.15603,-30.75371,36.52114,-1.013614,0.07191592,-0.09726564,42.20016,13.298,-12.65503,1007.807
8.377434254,19.60157,-29.86732,32.91689,-0.9665204,-0.1278095,-0.08937452,42.20016,13.298,-12.65503,1007.807
8.410211086,26.37273,-32.99923,32.48927,-1.010896,-0.04525642,-0.07110195,41.86749,11.38708,-14.73836,1007.807
8.442988396,50.84832,-38.25848,37.92619,-0.9987506,-0.0501158,-0.0841202,41.17241,9.560696,-15.14388,1007.803
8.478286743,43.82867,-39.26305,39.57559,-0.9843878,0.04278855,-0.04867351,41.17241,9.560696,-15.14388,1007.806
8.511064053,26.68334,-39.20396,42.8744,-1.011114,0.05438158,-0.03033585,41.19655,8.079172,-16.86141,1007.804
8.543840885,22.64549,-39.85398,45.50123,-1.018347,0.02984226,-0.04857346,40.07464,6.236825,-18.50956,1007.804
8.576618194,40.41203,-39.7358,47.08954,-0.9494162,0.03870035,-0.04826894,40.07464,6.236825,-18.50956,1007.804
8.609395027,46.87259,-38.9085,49.96072,-0.9854797,0.1010011,-0.01073109,40.11375,4.038314,-19.3454,1007.802
8.644693375,51.71801,-34.8902,49.16657,-0.9387969,0.07518099,0.002193873,39.77382,2.557664,-21.06246,1007.801
8.677470684,45.81654,-29.33549,45.80667,-0.9467685,0.1603458,0.002084422,39.77382,2.557664,-21.06246,1007.801
8.710248470,26.74546,-21.41706,40.79737,-0.9565085,0.1764873,0.02374447,39.82092,-0.06517363,-21.82945,1007.801
8.743025303,22.64549,-16.39419,35.91025,-0.9375092,0.1548865,0.04635597,38.41652,-2.995011,-23.08707,1007.801
8.811100960,9.041037,-9.893991,21.79869,-0.9725889,0.2093125,0.07090659,38.43681,-4.088322,-23.06988,1007.799
8.843878269,7.550138,-10.07127,18.25553,-0.9472626,0.1763753,0.06656391,37.36413,-5.184958,-23.48639,1007.803
8.876655102,13.07889,-7.64847,16.23959,-0.8924497,0.200704,0.06735995,37.36413,-5.184958,-23.48639,1007.803
8.909432411,11.27738,-4.043816,13.49058,-0.9420484,0.2335325,0.0852385,37.74776,-6.285086,-23.90479,1007.803
8.944730759,11.65011,-0.675533,14.16256,-0.8861799,0.2243382,0.09667252,37.04705,-7.807772,-24.31508,1007.801
8.977507591,10.84254,6.651959,13.12405,-0.8590375,0.2485432,0.112938,37.04705,-7.807772,-24.31508,1007.8
9.010284901,-4.31493,12.26576,7.992571,-0.9309945,0.2975083,0.1669473,37.03989,-7.376652,-23.88666,1007.801
9.043061733,-14.44062,12.44304,2.677827,-0.9819454,0.2809407,0.1569846,37.78946,-8.532448,-23.86945,1007.801
9.078360081,-18.78907,10.07934,-2.514739,-0.9979923,0.2870112,0.1387217,37.42756,-8.513743,-22.56364,1007.801
9.111137390,-18.54059,7.833813,-3.247807,-1.018872,0.2883483,0.1459897,37.42756,-8.513743,-22.56364,1007.801
9.143915176,-22.95116,1.688174,-2.759095,-1.068424,0.3022061,0.1672662,37.78342,-8.162066,-23.44007,1007.8
9.176692486,-19.03756,-10.72129,2.555649,-1.076093,0.2521833,0.1269254,37.4047,-7.371581,-23.45201,1007.8
9.209469318,8.668311,-20.17612,10.74158,-0.9812602,0.1749569,0.04354132,37.4047,-7.371581,-23.45201,1007.798
9.244767666,33.57874,-21.1216,15.20108,-0.9755901,0.2407474,0.04246599,37.40397,-7.377524,-23.88713,1007.8
9.277544975,40.72263,-19.58519,13.30732,-0.9639814,0.2613567,0.05059054,36.6837,-7.800956,-23.8795,1007.8
9.310321808,33.51662,-15.86235,4.021786,-0.9655762,0.3177793,0.04184477,36.6837,-7.800956,-23.8795,1007.8
9.343099117,16.61977,-10.78038,-7.646216,-0.9505388,0.3237291,0.03891197,36.71002,-9.264647,-24.29169,1007.8
9.378397465,2.642596,-4.634743,-17.7259,-0.9345039,0.3205005,0.04561787,35.98863,-9.627339,-24.28502,1007.8
9.411174297,-10.83761,0.624506,-21.6356,-0.9325721,0.3218673,0.02972629,35.98863,-9.627339,-24.28502,1007.799
9.443951607,-13.81941,2.929121,-21.51342,-0.9329861,0.293686,0.03987834,36.00008,-10.3732,-25.51674,1007.799
9.476728916,-10.2164,3.283677,-19.9862,-0.9630753,0.2850985,0.0317795,36.34522,-9.269719,-24.72633,1007.799
9.509505749,-5.992191,3.047306,-18.15353,-0.9723187,0.2928273,0.03371523,36.34522,-9.269719,-24.72633,1007.797
9.577581882,-5.681587,5.588291,-14.24383,-0.9679827,0.3064738,0.02983348,36.30353,-7.022357,-24.76167,1007.795
9.610359192,-8.539144,7.656535,-11.55591,-0.9757326,0.2996374,0.03660123,36.30353,-7.022357,-24.76167,1007.795
9.643136024,-8.911868,8.42474,-9.356709,-0.9878449,0.2878341,0.03472229,36.67436,-7.387667,-24.75641,1007.795
9.678434372,-9.222472,8.365647,-7.585127,-0.9766922,0.2947591,0.03661086,37.01139,-5.930792,-24.7798,1007.795
9.711211681,-8.601264,8.011091,-5.874635,-0.9732485,0.2767976,0.04096202,37.01139,-5.930792,-24.7798,1007.795
9.743988514,-6.116433,7.833813,-4.103054,-0.9586444,0.2598196,0.03325118,37.36871,-5.567227,-24.786,1007.795
9.776765823,-5.992191,7.53835,-3.247807,-0.969813,0.2607273,0.03712719,37.74027,-5.926593,-24.34562,1007.793
9.809542656,-6.054312,8.18837,-2.45365,-0.9726656,0.233873,0.03091673,37.74027,-5.926593,-24.34562,1007.793
9.844841480,-3.010394,8.956574,-2.209294,-0.9526665,0.1910066,0.005903094,37.72675,-5.197719,-24.35709,1007.795
9.877618313,-2.761911,13.21125,-5.019389,-0.972062,0.179653,0.007410293,38.09832,-5.557085,-23.91672,1007.793
9.910395622,-6.67552,16.87499,-10.76176,-1.003052,0.1413488,-0.0006416219,38.09832,-5.557085,-23.91672,1007.795
9.943172455,-8.663385,20.42055,-18.76442,-1.011741,0.1158132,-0.02031836,38.44357,-4.452759,-23.06415,1007.793
9.978471756,-11.76942,24.26158,-27.98886,-1.009301,0.1134854,-0.00780523,38.08552,-4.822267,-23.49306,1007.793
10.011248589,-13.44668,27.51167,-35.62498,-1.024242,0.06913745,0.006256539,38.79485,-3.718814,-22.64097,1007.793
10.076802731,-7.917935,25.6798,-41.18409,-1.026129,0.04069291,-0.01968965,39.13406,-2.244107,-21.35903,1007.793
10.109580040,-7.110365,25.56162,-45.33814,-1.024641,0.02654112,-0.02544819,39.84401,-1.135558,-20.13398,1007.793
10.144878387,-16.05576,27.86623,-52.30229,-1.044633,0.06346269,-0.01486646,39.84401,-1.135558,-20.13398,1007.793
10.177655697,-13.26032,25.44343,-54.92912,-1.005589,-0.02806883,-0.05718095,40.9706,0.3253698,-19.72327,1007.793
10.210432529,-6.613399,25.91617,-58.41119,-0.9357513,0.0009980161,-0.09349253,41.30305,2.164514,-18.44706,1007.793
10.243209839,-27.05113,34.66189,-62.13762,-0.9751292,0.02165553,-0.08717256,41.30305,2.164514,-18.44706,1007.793
10.278508186,-23.19965,38.6211,-65.98622,-0.9399143,-0.08369067,-0.08035826,41.62616,4.416947,-18.04775,1007.793
10.311285019,-11.3967,43.23033,-66.35275,-0.9657376,-0.05497842,-0.1227001,41.57487,7.355369,-16.4153,1007.793
10.344062328,-24.50418,43.99854,-66.84147,-0.9633496,-0.04346037,-0.1501607,41.57487,7.355369,-16.4153,1007.793
10.376840115,-28.79052,45.71222,-65.92513,-0.9305856,-0.1431265,-0.1640477,41.53649,9.559822,-15.14435,1007.793
10.409616947,-28.66628,45.35767,-66.04731,-0.9757847,-0.131018,-0.1894709,42.5843,12.13204,-13.44542,1007.792
10.444915295,-11.33458,39.38931,-66.35275,-0.9324501,-0.1914304,-0.2443579,42.5843,12.13204,-13.44542,1007.792
10.477692604,-14.06789,38.32564,-63.11504,-0.8793981,-0.2501534,-0.2780906,41.80373,15.13295,-11.81299,1007.792
10.510469914,-0.6498048,38.91656,-56.57852,-0.9138178,-0.2632091,-0.223114,42.12411,17.71285,-9.678011,1007.792
10.543246746,5.127428,35.48919,-52.91318,-0.8604364,-0.2531468,-0.2410662,42.12411,17.71285,-9.678011,1007.792
10.576024055,12.70616,32.83002,-48.20932,-0.8240516,-0.2584096,-0.3412678,40.99339,19.91908,-8.467805,1007.792
10.611322403,3.574408,35.371,-42.71131,-0.9622778,-0.3141295,-0.2734653,41.70271,21.02253,-7.615711,1007.792
10.644099235,0.8410938,32.29818,-38.67944,-0.8918241,-0.3476726,-0.3491557,41.70271,21.02253,-7.615711,1007.792
10.676876545,-1.643737,35.01645,-31.22658,-0.8665168,-0.3819186,-0.4016325,40.14693,23.2973,-5.908642,1007.792
10.709653377,-3.755844,34.66189,-21.75778,-0.8767313,-0.3747017,-0.4021005,40.54538,24.75998,-5.496999,1007.792
10.744951725,-7.669452,28.22079,-14.12165,-0.8788744,-0.4990744,-0.4250133,40.54538,24.75998,-5.496999,1007.796
10.777729511,2.207751,24.26158,-13.81621,-0.8513755,-0.4278883,-0.4468471,40.10313,25.87723,-3.835352,1007.796
10.810506821,0.5926108,26.44801,-12.83878,-0.8960224,-0.4455447,-0.4808913,40.51655,26.62292,-2.542025,1007.796
10.843283653,10.90466,27.74805,-12.83878,-0.8002652,-0.4936903,-0.5157039,40.51655,26.62292,-2.542025,1007.796
10.876060963,-1.022529,25.08887,-16.87066,-0.8369815,-0.5633081,-0.4673757,40.51125,26.99924,-1.677532,1007.797
10.911359310,11.40163,21.48422,-16.87066,-0.7637721,-0.5038213,-0.4055434,40.86991,27.37384,-0.8756669,1007.799
10.944136620,1.213819,21.18876,-18.09244,-0.7677489,-0.4820632,-0.4936559,40.86991,27.37384,-0.8756669,1007.801
10.976913452,-1.146771,24.26158,-21.0858,-0.75513,-0.4648733,-0.418138,40.85711,28.10866,-0.4520152,1007.801
11.009690762,-2.202824,18.05685,-17.78699,-0.7379999,-0.5136333,-0.376708,40.84504,28.84943,0.4067481,1007.801
11.044989109,28.54696,8.897482,-9.662154,-0.7540808,-0.5126425,-0.4950864,41.19705,29.58931,1.265042,1007.801
11.077765942,25.25456,1.274526,-5.813546,-0.7600464,-0.4320185,-0.3801483,41.19705,29.58931,1.265042,1007.805
11.110543251,35.56661,-10.48492,-1.964938,-0.7506499,-0.5121152,-0.4233724,41.20309,29.21893,0.83566,1007.805
11.143320560,61.65734,-12.55316,2.311293,-0.7567942,-0.3787219,-0.4240402,41.17459,30.66479,-0.05748343,1007.805
11.176097870,10.84254,-14.26685,9.092174,-0.7340114,-0.5483419,-0.329973,41.17459,30.66479,-0.05748343,1007.803
11.211396694,46.74835,-14.26685,9.092174,-0.6460965,-0.592146,-0.5014803,41.51693,31.74534,-0.9453666,1007.803
11.244173527,27.61515,-8.357581,7.137325,-0.7350571,-0.5262817,-0.37814,42.26933,30.26292,-2.601674,1007.803
11.276950836,32.27421,-0.2618842,13.18514,-0.748367,-0.6492128,-0.3904385,42.26933,30.26292,-2.601674,1007.805
11.309727669,109.5525,0.7426914,21.67651,-0.7690924,-0.5191981,-0.4392029,42.63195,30.25016,-3.472368,1007.805
11.345026016,-1.208892,23.72974,22.40958,-0.7378523,-0.1739284,-0.4128411,44.07932,30.59328,-4.785313,1007.803
11.377803326,-24.37994,12.56123,18.25553,-0.8409368,-0.7301134,-0.4266806,44.07932,30.59328,-4.785313,1007.803
11.410580158,15.87432,-13.085,10.13069,-0.8015077,-0.9353326,-0.2189979,44.82848,29.50417,-4.33395,1007.801
11.443357468,125.0826,-37.60846,21.55433,-0.7618208,-0.4672894,-0.1971734,46.66239,28.77093,-4.32484,1007.801
11.476134300,20.22278,-50.13611,45.44014,-0.7589121,-0.02234712,-0.02119116,46.66239,28.77093,-4.32484,1007.801
11.511433125,3.885012,-43.28136,80.26089,-0.8324606,-0.1866378,-0.3057353,47.02149,28.7293,-7.308932,1007.803
11.544210911,101.1661,-35.95387,71.03645,-0.8097919,-0.9535456,-0.3768374,48.13723,27.24006,-9.400822,1007.801
11.576987743,1.027456,-39.26305,52.46537,-0.7501935,-0.03119984,-0.1141013,48.13723,27.24006,-9.400822,1007.801
11.609765053,-33.51169,-35.42203,41.22499,-0.9003038,-0.6548121,-0.3125705,51.53037,23.91052,-12.39934,1007.807
11.645063400,-79.8538,-35.42203,-0.7431576,-1.193718,-1.06188,-0.57601,53.04586,20.54343,-14.02698,1007.809
11.677840233,45.25745,-19.58519,27.41888,-1.122664,0.01861669,0.0734754,53.04586,20.54343,-14.02698,1007.809
11.710617542,-9.346714,-24.25351,39.63668,-0.9464421,-0.6068454,-0.08292382,55.6072,19.80251,-14.45392,1007.809
11.743394375,-54.26003,-24.01714,29.61808,-0.9227654,-0.5008646,0.2109723,56.33993,19.4185,-15.75447,1007.809
11.776171684,-129.0535,-21.06251,25.21967,-0.9513608,-0.1967314,-0.2134979,56.33993,19.4185,-15.75447,1007.809
11.811470032,-34.62987,-5.934782,18.19444,-0.9536482,-0.472361,-0.2756541,57.45848,17.95218,-16.16807,1007.81
11.844247341,-29.90869,-12.2577,22.04305,-0.9682612,-0.4519872,-0.2698738,57.45245,18.32257,-15.73869,1007.815
11.877024174,-1.333133,-22.24436,23.87572,-0.9233902,-0.3232479,-0.2307026,57.45245,18.32257,-15.73869,1007.815
11.909801960,5.003186,-25.199,23.44809,-0.9849452,-0.1341106,-0.06284643,58.89981,18.66568,-17.05163,1007.815
11.945100307,-11.95579,-21.47616,21.00453,-0.911511,-0.2004242,-0.1620812,58.92083,17.57831,-16.59933,1007.817
11.977877617,-1.581616,-19.05336,20.88235,-0.9675177,-0.3191494,-0.07849382,60.02523,16.83578,-17.39734,1007.818
12.010654449,-8.104299,-13.61683,21.37107,-1.040102,-0.2234189,-0.09242543,60.02523,16.83578,-17.39734,1007.82
12.043431759,0.5926108,-15.33052,22.53176,-0.9472899,-0.2584391,-0.1272508,60.04469,15.73568,-17.87743,1007.822
12.076208591,-4.25281,-11.60768,21.00453,-0.941011,-0.2250626,-0.02767415,61.21653,14.62857,-18.66979,1007.822
12.111506939,-8.601264,-13.55774,18.62206,-1.033323,-0.2039496,-0.03230063,61.21653,14.62857,-18.66979,1007.822
12.144284248,-13.07396,-14.08957,17.58355,-1.108877,-0.1081131,-0.1675285,60.49514,14.26587,-18.66312,1007.822
12.177061558,-1.08465,-7.88484,19.23295,-0.9751352,-0.1900729,-0.1378778,60.8638,13.88273,-19.96319,1007.82
12.209838390,-3.383119,-2.507406,13.67385,-0.9954094,-0.2308018,-0.08722533,60.8638,13.88273,-19.96319,1007.82
12.245137692,-8.477023,-2.566499,11.47465,-1.000338,-0.1951085,-0.0612739,60.87805,13.1598,-19.51662,1007.818
12.277914524,-4.128568,-5.46204,8.298017,-0.9990496,-0.1431772,-0.1590717,61.62616,11.99212,-20.36964,1007.818
12.310691834,-0.7740463,-11.37131,4.510498,-0.9454684,-0.2027244,-0.101827,61.62616,11.99212,-20.36964,1007.817
12.343468666,-1.208892,-13.0259,3.716341,-1.036571,-0.279412,-0.09427487,61.63219,11.62174,-20.79902,1007.815
12.376245976,6.494085,-11.66677,13.24623,-0.9665969,-0.09112179,-0.06632427,61.63219,11.62174,-20.79902,1007.813
12.411544323,-1.89222,-17.28058,12.32989,-1.050744,-0.2142677,0.04573684,61.63219,11.62174,-20.79902,1007.812
12.444321156,-0.1528385,-10.6031,15.13999,-0.9839291,-0.1632021,-0.1152734,62.00907,10.88605,-21.22314,1007.812
12.477098465,-0.3392008,-7.589377,13.18514,-1.035384,-0.1436967,0.02008187,61.6376,11.24626,-21.60136,1007.81
12.509875298,5.624394,-6.348431,16.23959,-1.005433,-0.0811931,0.007401224,61.6376,11.24626,-21.60136,1007.81
12.542652607,3.574408,-8.475767,11.23029,-1.014226,-0.06239252,-0.009935279,62.02124,10.14614,-22.01975,1007.81
12.577950954,20.96823,-6.348431,28.45739,-1.130742,0.2920166,-0.2426908,61.67068,9.418133,-22.00782,1007.81
12.610728741,23.01821,-16.39419,19.11077,-0.9596549,-0.1443735,-0.0282329,61.67068,9.418133,-22.00782,1007.81
12.643506050,4.692582,-11.48949,15.50652,-0.9998,-0.1988248,0.03404005,61.31795,8.672302,-23.30122,1007.808
12.676282883,-2.016462,-8.239396,22.16522,-0.9978713,-0.1975082,0.01092813,61.32398,8.30192,-23.73061,1007.806
12.711581230,-2.63767,-7.116636,16.05632,-1.172098,-0.4773504,-0.1701916,61.32398,8.30192,-23.73061,1007.806
12.744358540,-4.998259,-15.92144,28.51848,-1.009149,-0.1311229,0.1157917,60.91951,7.209628,-23.71287,1007.805
12.777135372,-17.79514,-14.20776,34.19976,-1.00448,-0.08045536,-0.02774156,61.35706,6.473791,-24.13707,1007.805
12.809912682,-31.77231,-12.31679,32.61145,-1.149578,0.3242591,0.1443201,61.35706,6.473791,-24.13707,1007.805
12.842689514,-7.48309,-15.86235,43.17984,-1.014459,0.02892406,-0.04521177,60.95717,4.99923,-25.41893,1007.806
12.877988338,21.03035,-20.05793,43.54638,-1.041545,0.2465365,0.2539315,60.98963,3.166006,-26.19835,1007.805
12.910765171,-11.02397,5.292828,42.56895,-0.9907143,0.3183088,0.2883608,60.98963,3.166006,-26.19835,1007.803
12.943542480,-13.07396,7.479257,43.85183,-0.9540188,-0.05436378,0.02167969,61.01635,1.635631,-27.0447,1007.805
12.976320267,-9.905801,10.67026,33.58887,-1.072333,-0.144721,-0.08284036,60.68535,-0.1916256,-27.45069,1007.805
13.011618614,3.139563,3.460955,39.57559,-1.012726,0.337321,0.03711354,61.08469,-2.002796,-26.55228,1007.803
13.044395447,-2.69979,-3.866538,27.54106,-1.01056,0.02464019,-0.03558732,61.08469,-2.002796,-26.55228,1007.803
13.142726898,-18.97543,15.9886,21.12671,-0.972487,0.3735416,0.08461832,60.76648,-4.564869,-27.38193,1007.805
13.178025246,0.7789731,15.87042,23.9368,-0.9560877,-0.0184791,-0.06838413,60.82846,-7.905542,-27.3294,1007.807
13.210802555,4.692582,20.36146,23.63136,-0.9813514,0.1917131,-0.06815965,60.84344,-8.622528,-26.44772,1007.809
13.243579388,3.139563,12.7976,37.98728,-1.000456,0.02275168,-0.2493331,60.84344,-8.622528,-26.44772,1007.807
13.276356697,-1.643737,2.751843,23.75354,-1.032362,0.2196676,0.02097114,61.64652,-9.347349,-26.00217,1007.807
13.311655521,14.63191,-9.243972,33.10016,-0.9446494,0.4737489,-0.1066994,61.24205,-10.43964,-25.98443,1007.805
13.344432831,8.419828,-14.20776,35.11609,-1.029429,0.4442724,0.1688851,61.24205,-10.43964,-25.98443,1007.805
13.377209663,13.94858,-15.5078,38.47599,-0.9277257,0.5419861,0.09051598,60.89753,-11.53802,-26.40188,1007.805
13.409986973,13.63797,-15.21233,41.53044,-0.9818858,0.4480433,0.0936742,60.92988,-13.3721,-27.24345,1007.805
13.442763805,4.692582,-18.81699,41.89698,-0.9491708,0.5875332,0.1525939,60.92988,-13.3721,-27.24345,1007.803
13.478062153,18.23491,-19.88066,47.08954,-0.9447986,0.3704102,0.09129643,59.51871,-15.9375,-28.5068,1007.802
13.510839462,-12.70124,-14.50322,51.36577,-0.9957586,0.370877,0.1496614,58.81012,-17.03501,-28.92378,1007.802
13.543616295,-3.44524,-20.11703,50.99924,-0.8866986,0.2081516,-0.05926305,58.81012,-17.03501,-28.92378,1007.802
13.576393604,-16.05576,-17.22149,56.86378,-0.885964,0.3342797,0.0777332,57.40019,-19.6603,-30.12401,1007.802
13.611691952,-32.95261,-16.15782,66.2715,-0.8912455,0.5048775,0.03320334,56.36205,-22.57317,-30.07676,1007.802
13.644469738,-17.73302,-22.53983,69.81467,-0.8922523,0.3234923,0.07487621,56.36205,-22.57317,-30.07676,1007.802
13.677247047,-16.36636,-13.14409,66.45477,-0.8441578,0.5116454,0.03933915,54.57932,-24.77921,-31.78048,1007.802
13.710023880,-3.320998,-18.22606,64.74428,-0.8068351,0.7629693,0.1361069,53.16816,-27.34461,-33.04382,1007.802
13.742801189,-36.74197,-13.085,48.06697,-0.7846167,0.6163576,0.1776723,53.16816,-27.34461,-33.04382,1007.802
13.778099537,-19.22392,-9.303064,42.08024,-0.818974,0.5643747,0.1677235,51.31995,-29.24001,-34.25497,1007.8
13.810876369,-37.79803,-1.26646,31.7562,-0.8257346,0.546211,0.1552515,49.87498,-29.98322,-35.54696,1007.802
13.843653679,-55.31609,-0.1436988,37.07094,-0.7194206,0.5426596,0.07702412,49.87498,-29.98322,-35.54696,1007.802
13.876430511,-13.50881,-11.66677,45.56232,-0.7134169,0.6848757,0.1398539,47.70935,-31.08319,-36.39718,1007.802
13.911729336,-11.83154,-15.62598,48.67786,-0.8011829,0.633515,0.143509,46.97163,-30.73993,-38.08026,1007.802
13.944506168,1.586543,-24.72626,46.35647,-0.7173012,0.6868684,0.1509314,44.81131,-32.21622,-39.79496,1007.802
13.977283955,-45.43888,-27.44452,42.14133,-0.5894256,0.8279958,0.1908498,44.81131,-32.21622,-39.79496,1007.802
14.010061264,-24.93903,-31.52191,41.71371,-0.6301239,0.8093544,0.2906164,42.63215,-32.58731,-40.65664,1007.8
14.042838097,-0.6498048,-29.9855,40.98064,-0.6435376,0.7322808,0.2893203,41.14616,-34.42878,-42.30432,1007.8
14.078136444,-16.30424,-27.85817,41.10282,-0.5903059,0.8223411,0.359337,41.14616,-34.42878,-42.30432,1007.802
14.110913754,-32.20716,-16.68965,39.08688,-0.6541495,0.7045048,0.2999772,38.60896,-35.16938,-43.5949,1007.802
14.143690586,-17.36029,-26.14448,37.13203,-0.4902684,0.8127306,0.3278258,37.15723,-35.54816,-44.89263,1007.805
14.176467896,-51.71308,-30.8128,35.17719,-0.5594883,0.9271538,0.336482,37.15723,-35.54816,-44.89263,1007.809
14.211766243,-7.48309,-33.88562,33.83323,-0.5618932,0.7365717,0.4580781,34.96175,-35.2133,-47.44405,1007.809
14.244543552,-15.55879,-41.50858,36.2157,-0.4549385,0.8425187,0.2266111,32.40427,-34.86059,-48.75183,1007.805
14.277320385,-89.29616,-50.96341,34.44411,-0.4774854,0.9688576,0.421907,32.40427,-34.86059,-48.75183,1007.809
14.310098171,-27.48598,-63.96379,35.72699,-0.4801846,0.6736677,0.4189888,30.5204,-34.87901,-50.42769,1007.809
14.342875481,-132.2837,-72.65041,21.7376,-0.5617729,0.6727862,0.390302,26.47604,-33.09392,-53.8699,1007.811
14.378173828,-114.5172,-94.86926,35.055,-0.2157937,1.000892,0.5117341,26.47604,-33.09392,-53.8699,1007.811
14.410950661,-34.19502,-119.0382,25.0975,-0.3233935,0.7257645,0.5783505,22.06749,-31.30881,-57.37381,1007.811
14.443727970,-47.24039,-120.6337,21.37107,-0.2581543,0.6426375,0.5224831,16.49261,-28.79122,-60.82552,1007.811
14.476504803,-17.9815,-117.7381,12.08554,-0.1970618,0.7008567,0.6267059,16.49261,-28.79122,-60.82552,1007.811
14.511803150,-6.364916,-113.2471,4.021786,-0.05033195,0.6792185,0.7005203,10.99975,-27.28852,-62.95576,1007.811
14.544580459,11.09102,-97.94209,0.2342666,-0.06153061,0.6958215,0.7202576,4.741537,-26.92099,-63.82364,1007.811
14.577357292,13.88646,-81.33704,-0.7431576,-0.09523832,0.7817657,0.7230962,4.741537,-26.92099,-63.82364,1007.811
14.610134602,-14.9997,-59.23638,1.578225,0.02959693,0.7860289,0.8359137,-1.853706,-28.01033,-64.66814,1007.813
14.642912388,-18.47847,-38.49485,2.677827,0.06782747,0.6348227,0.8278677,-5.809374,-30.60659,-64.18679,1007.817
14.678210735,-3.631602,-16.63056,5.304655,0.01010831,0.7944306,0.7367867,-5.809374,-30.60659,-64.18679,1007.817
14.710988045,-17.36029,1.510896,9.092174,-0.002221543,0.6650791,0.7105361,-8.366131,-30.24793,-65.05946,1007.817
14.743764877,-0.4013216,8.129276,8.420195,-0.008117962,0.7023324,0.751891,-9.519769,-30.25111,-65.49308,1007.817
14.776542187,8.854674,9.547502,7.931483,0.001621282,0.684159,0.7182,-9.519769,-30.25111,-65.49308,1007.817
14.809319019,1.151698,7.183794,5.549011,-0.01750918,0.7562399,0.6709632,-9.897368,-29.52137,-65.50407,1007.817
14.844617367,1.586543,2.220009,2.372382,-0.03150248,0.7226481,0.6898201,-9.113843,-29.14693,-64.64059,1007.817
14.877394676,1.33806,-4.693836,1.211691,0.009329707,0.7075208,0.7065938,-9.113843,-29.14693,-64.64059,1007.815
14.910171509,1.275939,-6.289338,-0.6209796,0.001508149,0.7233036,0.6743373,-9.12133,-28.78844,-65.08144,1007.815
14.942948818,-5.681587,-5.993875,-2.45365,-0.008225068,0.7365195,0.6955203,-9.903403,-29.15099,-65.07469,1007.817
14.978248119,-6.240674,-5.521133,-1.415137,0.005034265,0.6788502,0.7210881,-9.540052,-29.1578,-65.51028,1007.817
15.011024952,4.941065,-4.693836,-0.4377126,0.003024237,0.7035351,0.7013198,-9.540052,-29.1578,-65.51028,1007.815
15.043802261,2.704717,-1.443738,0.2953556,-0.01112495,0.732666,0.7051603,-9.903403,-29.15099,-65.07469,1007.818
15.076579094,0.5926108,0.5654134,0.4175337,-0.003787382,0.7128625,0.720095,-9.911513,-28.79759,-65.88848,1007.818
15.109356403,1.400181,0.5654134,0.4175337,0.01125566,0.7138483,0.7036915,-9.911513,-28.79759,-65.88848,1007.816
15.144654751,1.33806,0.447228,0.1731776,-0.003785406,0.7078415,0.6984412,-9.539326,-29.15186,-65.07516,1007.816
15.177431583,2.331993,0.2699499,-0.2544455,-0.00434293,0.7380298,0.6979157,-10.6248,-29.51368,-65.06802,1007.814
15.210208893,-1.333133,-0.2027915,-0.07117847,-0.006734076,0.7219142,0.6945761,-10.6248,-29.51368,-65.06802,1007.814
15.242985725,-2.451307,0.3290426,-0.4988016,-0.0120231,0.7014714,0.7028026,-9.910164,-28.78655,-65.08042,1007.814
15.278284550,-3.817964,1.097248,-0.5598906,-0.006767511,0.7365451,0.6974424,-9.540052,-29.1578,-65.51028,1007.813
15.311061859,-4.998259,1.274526,-0.07117847,-0.007207829,0.7180542,0.7003595,-9.540052,-29.1578,-65.51028,1007.813
15.343839169,-3.134636,1.333618,0.05099956,0.004525309,0.6875725,0.7152997,-9.903403,-29.15099,-65.07469,1007.811
15.376616478,-0.4634424,0.2108573,-0.01008946,0.005415506,0.7201578,0.7075468,-9.903403,-29.15099,-65.07469,1007.811
15.409393311,1.462302,-0.1436988,0.2953556,-0.01252386,0.7062808,0.6946135,-9.903403,-29.15099,-65.07469,1007.811
15.444691658,-1.954341,-0.1436988,0.05099956,-0.001343374,0.7050534,0.714806,-9.910164,-28.78655,-65.08042,1007.811
15.477468968,0.6547315,-0.2027915,0.05099956,-0.008641266,0.7088086,0.7032649,-9.904857,-29.16287,-65.94491,1007.813
15.510245800,-0.2770801,-0.08460614,-0.01008946,-0.0120615,0.71754,0.7022972,-9.904857,-29.16287,-65.94491,1007.815
15.543023109,-1.954341,0.1517646,-0.1322675,-0.00429311,0.7191094,0.7085341,-9.546086,-28.78742,-65.08089,1007.817
15.578321457,0.6547315,0.2699499,-0.2544455,-0.00275425,0.6845427,0.7085825,-9.90413,-29.15693,-65.5098,1007.817
15.611099243,0.9653354,0.447228,-0.4377126,-0.007726131,0.7311764,0.6969714,-9.90413,-29.15693,-65.5098,1007.817
15.643876076,-3.44524,0.447228,-0.1322675,0.001124234,0.6885216,0.7157878,-9.910891,-28.79249,-65.51553,1007.817
15.676653385,1.462302,0.1517646,0.2342666,-0.002310825,0.7035876,0.7152918,-10.27424,-28.78568,-65.07995,1007.817
15.709430695,-0.1528385,-0.02551346,-0.3766236,-0.008681644,0.7263616,0.7061267,-10.27424,-28.78568,-65.07995,1007.815
15.744729042,-2.327066,-0.4391622,-0.1933565,-0.01203339,0.7063618,0.7056834,-9.546813,-28.79337,-65.51601,1007.815
15.777505875,-4.066447,-0.4982549,-0.1322675,-0.004765887,0.7157699,0.7191302,-9.918779,-28.36732,-65.52222,1007.815
15.810283184,-5.308863,-0.1436988,0.2953556,-0.007205451,0.7191018,0.7109478,-9.918779,-28.36732,-65.52222,1007.815
15.843060017,-0.2149593,-0.7937183,0.05099956,-0.008603019,0.6947585,0.713876,-9.92554,-28.00288,-65.52795,1007.815
15.878358364,2.331993,-0.5573476,0.05099956,-0.008152986,0.7103708,0.717221,-9.933651,-27.64948,-66.34174,1007.813
15.911135674,-0.6498048,-0.08460614,0.05099956,0.00304659,0.6958029,0.7099959,-9.92554,-28.00288,-65.52795,1007.813
15.943913460,2.021389,1.510896,0.2953556,0.001490553,0.7366675,0.7051244,-9.92554,-28.00288,-65.52795,1007.813
15.976690292,-13.07396,5.11555,0.9673348,-0.003931453,0.7646563,0.6742879,-10.281,-28.42124,-65.08568,1007.813
16.009467602,-44.75555,7.833813,3.77743,0.01134273,0.87431,0.6659032,-9.92554,-28.00288,-65.52795,1007.813
16.044765949,-142.9064,16.22497,9.825242,0.01203086,0.9921316,0.658985,-9.92554,-28.00288,-65.52795,1007.813
16.077543259,-173.3456,23.19791,23.14265,0.04544486,0.6374428,0.7412718,-9.583926,-26.92827,-66.85094,1007.813
16.110320091,-89.04767,24.9116,49.04439,0.06210181,0.5944312,0.8394949,-8.903895,-21.10427,-67.31659,1007.813
16.143097401,-11.45882,9.429316,101.0312,0.05559264,0.7261757,1.092508,-8.903895,-21.10427,-67.31659,1007.813
16.178395748,148.0673,-25.73083,165.2357,0.08894367,0.5932471,1.127287,-8.9975,-15.92358,-66.09243,1007.813
16.211172581,345.9841,-28.27182,194.5584,0.2698907,0.7991806,0.7573434,-10.84301,-17.30719,-60.97005,1007.813
16.243950367,310.6374,-5.107484,210.8692,0.3191739,1.286211,0.6265247,-10.84301,-17.30719,-60.97005,1007.818
16.276727676,24.50911,15.39768,172.4442,0.1774173,1.103155,0.8071662,-16.46598,-27.04177,-49.68045,1007.816
16.309504509,-61.71453,1.983638,149.2304,0.1261752,0.3834968,0.7559039,-23.28128,-34.99726,-41.77457,1007.816
16.344802857,-22.82692,-6.939358,129.4375,0.2497145,0.4973326,0.7284831,-23.28128,-34.99726,-41.77457,1007.814
16.377580166,-2.078583,-17.81241,103.0471,0.2967497,0.3118463,0.6829216,-25.60886,-27.2781,-41.89304,1007.814
16.410357475,38.61053,-30.51734,85.57563,0.3646887,0.5395796,0.7122617,-27.89267,-21.78933,-40.733,1007.812
16.443134308,-18.04362,-34.8311,66.02715,0.3685957,0.512683,0.621797,-27.89267,-21.78933,-40.733,1007.811
16.478432655,2.518355,-42.51315,49.77746,0.3964639,0.4199236,0.5564055,-29.84062,-18.13451,-40.35276,1007.809
16.511209965,36.18782,-49.13153,41.40826,0.461214,0.5433193,0.5035976,-31.69448,-16.23533,-39.50979,1007.809
16.543987751,6.556206,-50.1952,26.50254,0.5160779,0.540664,0.4760338,-31.69448,-16.23533,-39.50979,1007.809
16.576764583,-16.92545,-45.64507,15.6287,0.5423405,0.5137549,0.4269132,-33.53911,-14.7503,-37.85207,1007.809
16.609541893,9.662244,-51.73161,10.0696,0.6379309,0.5332122,0.3785209,-35.37833,-13.64073,-36.99669,1007.807
16.644840240,5.997118,-47.59512,10.37504,0.6746809,0.5851732,0.3124089,-35.37833,-13.64073,-36.99669,1007.807
16.677617073,9.041037,-38.61304,11.96336,0.7188658,0.5794498,0.2766919,-36.47515,-13.25585,-35.69567,1007.807
16.710394382,30.65907,-33.59016,14.83454,0.7855001,0.5165858,0.1914276,-37.93604,-12.87009,-34.39419,1007.81
16.743171692,25.31668,-21.71253,18.43879,0.7494519,0.5796314,0.2660292,-37.93604,-12.87009,-34.39419,1007.805
16.778470039,18.794,-10.72129,19.84384,0.7796054,0.558917,0.2626193,-39.82034,-12.47227,-32.2841,1007.81
16.811246872,24.26063,-3.630167,19.53839,0.7798343,0.4549058,0.2233039,-40.541,-12.82902,-31.84231,1007.81
16.844024658,37.55447,11.49756,21.55433,0.8193983,0.563932,0.2355611,-40.18899,-12.08913,-30.98402,1007.81
16.876801968,24.38487,33.06639,17.8279,0.8894963,0.4632102,0.09498905,-40.18899,-12.08913,-30.98402,1007.81
16.909578800,35.13176,75.67222,14.59019,0.9993815,0.3179033,-0.3416477,-40.53809,-12.80525,-30.10187,1007.808
16.944877148,139.9916,197.8168,16.7283,1.221888,0.5170078,-1.183414,-39.03005,-12.46228,-31.41489,1007.806
16.977654457,91.1647,401.6866,-0.4988016,0.8247929,0.7395265,-0.8545193,-39.03005,-12.46228,-31.41489,1007.804
17.010431290,-76.18867,485.1845,5.793367,0.1425369,0.7606355,0.270084,-35.35442,-14.70433,-34.80394,1007.804
17.043208599,-471.2768,1.983638,5.365744,1.4126,-1.736813,1.699517,-21.8112,-15.90055,-39.96339,1007.804
17.075985432,369.59,33.53913,18.43879,0.2694173,1.372595,-0.4791754,-21.8112,-15.90055,-39.96339,1007.804
17.111284733,-82.46287,68.58109,-18.64224,0.7024958,-0.2630187,0.4527348,-15.74238,-6.41424,-42.66991,1007.804
17.144062042,12.33344,41.22118,-30.24915,0.1588643,0.7392673,0.8197926,-14.89067,-13.03065,-42.13164,1007.804
17.176838875,31.03179,13.68399,-17.35937,0.3036085,0.7487577,0.9599926,-14.89067,-13.03065,-42.13164,1007.808
17.209616184,42.64838,-14.62141,-0.01008946,0.3835078,0.7611375,0.5429252,-12.34286,-13.0427,-42.57004,1007.808
17.244914532,8.109224,-13.0259,-0.1933565,0.3877446,0.6328244,0.64612,-11.58704,-14.4971,-42.17511,1007.807
17.277691364,-25.18751,-15.86235,-10.63958,0.3060222,0.5288386,0.8491238,-11.58704,-14.4971,-42.17511,1007.807
17.310468674,-10.15428,-22.7762,-11.0672,0.2454758,0.4650053,0.8474382,-12.28742,-15.94716,-41.71614,1007.807
17.343245506,27.98787,-29.04002,-17.05393,0.3379835,0.5555375,0.7979835,-13.39452,-15.2267,-42.53425,1007.805
17.376022816,-3.50736,-21.88981,-24.87332,0.2734622,0.5508784,0.9059685,-13.39452,-15.2267,-42.53425,1007.805
17.411321640,-33.07685,-14.73959,-38.12963,0.2013647,0.4274284,0.8196805,-14.10708,-15.93685,-41.27868,1007.807
17.476875782,20.40914,-42.04041,-64.52008,0.09319426,0.6262656,1.037694,-14.83524,-15.9351,-41.27774,1007.805
17.509653092,-0.7740463,-54.92262,-73.43908,0.09993951,0.620948,0.8952031,-14.84335,-15.58171,-42.09153,1007.805
17.544951439,-29.59809,-47.89059,-91.82687,0.1150709,0.5424895,0.660381,-16.28613,-16.30709,-42.07819,1007.805
17.577728748,-27.79659,-38.25848,-103.1283,0.09699786,0.576023,0.6016471,-16.28613,-16.30709,-42.07819,1007.809
17.610505581,-44.8798,-30.8128,-116.6901,0.1371334,0.8636841,0.6675463,-17.7183,-17.78512,-43.79384,1007.809
17.643282890,-114.7036,-13.14409,-128.297,0.1679477,0.7512535,0.5713704,-17.68628,-19.69182,-45.50468,1007.807
17.676059723,-71.90234,7.715628,-134.2227,0.2743068,0.5140407,0.4400639,-17.68628,-19.69182,-45.50468,1007.806
17.711359024,-91.09766,28.63444,-143.2638,0.1992441,0.8827397,0.6717026,-15.87295,-19.75393,-49.73383,1007.806
17.744135857,-109.7339,44.47128,-136.9106,0.235264,0.6343908,0.6344452,-13.73672,-17.5653,-53.68799,1007.806
17.776913166,-32.14504,56.88074,-124.9371,0.1941717,0.545953,0.5730616,-13.73672,-17.5653,-53.68799,1007.806
17.809689999,-31.58595,63.44003,-110.0925,0.06274138,0.9145367,0.7157823,-8.996074,-15.07243,-57.15302,1007.807
17.844988823,-19.28604,65.86283,-81.50283,0.01826927,0.633934,0.7596332,-3.991869,-10.38772,-60.21771,1007.806
17.877765655,68.4285,65.33099,-58.3501,-0.02181919,0.5338928,0.7093362,1.858062,-8.597476,-61.5593,1007.81
17.910542965,91.72379,60.54449,-42.28369,-0.1251792,0.9204551,0.7422127,1.858062,-8.597476,-61.5593,1007.81
17.943319798,52.33922,56.64437,-36.6635,-0.09240541,0.6239577,0.7887925,7.303846,-7.826896,-62.01387,1007.81
17.976097584,65.57094,47.07135,-34.89192,-0.1421271,0.7159842,0.845091,11.43063,-11.18326,-62.4017,1007.812
18.011395931,6.680447,18.17503,-14.36601,-0.3283774,1.313189,1.222502,11.43063,-11.18326,-62.4017,1007.812
18.044173241,-69.47963,6.592866,-21.94105,-0.2248229,0.1704981,0.8745097,16.19671,-13.02273,-62.81427,1007.815
18.076950073,137.3204,-0.2027915,-24.69005,-0.321702,0.6728804,0.8157376,17.65979,-13.39066,-62.81042,1007.815
18.109727383,61.53309,6.711052,-20.29164,-0.316928,0.6736603,0.6419534,17.65979,-13.39066,-62.81042,1007.815
18.145025730,60.84977,14.57038,-25.72857,-0.4077032,0.6712894,0.6903085,19.13783,-14.47557,-61.92489,1007.813
18.177803040,49.97863,21.89787,-23.40718,-0.4053028,0.6870452,0.7119403,20.29986,-18.10473,-60.56366,1007.813
18.210579872,38.92113,26.62529,-26.6449,-0.3602313,0.7118317,0.6501818,20.29986,-18.10473,-60.56366,1007.813
18.243357658,32.70905,30.82087,-29.33282,-0.3554013,0.7180362,0.6260929,20.71457,-20.69957,-59.21773,1007.813
18.276134968,20.71974,35.4301,-33.67014,-0.3942575,0.7261322,0.64639,22.99487,-22.51609,-58.38392,1007.813
18.311433315,22.33488,36.25739,-35.80825,-0.4193787,0.6668071,0.6200641,22.99487,-22.51609,-58.38392,1007.815
18.344210148,21.40307,40.51207,-36.23588,-0.4553976,0.6868669,0.5363624,25.92246,-23.24006,-57.50599,1007.817
18.376987457,29.72725,40.09842,-37.45766,-0.5188192,0.6150212,0.5765741,28.11056,-23.21558,-55.33325,1007.815
18.409764290,29.35453,40.80753,-38.00746,-0.5259153,0.727993,0.5119182,28.11056,-23.21558,-55.33325,1007.817
18.445062637,23.8879,41.10299,-38.19072,-0.5572442,0.6298441,0.5131032,30.67616,-23.92169,-53.21168,1007.817
18.477839947,47.55592,40.09842,-37.2133,-0.6045669,0.7123442,0.4572531,33.66515,-24.63986,-51.89872,1007.817
18.510617733,10.09709,43.76216,-43.13894,-0.6026757,0.7337862,0.456735,33.66515,-24.63986,-51.89872,1007.817
18.543394565,21.90004,44.94402,-40.69537,-0.6252313,0.6170324,0.4333777,35.86137,-24.96877,-48.91219,1007.821
18.576171875,20.2849,47.54409,-41.79498,-0.6646408,0.6498255,0.4339031,38.7694,-24.59348,-47.61634,1007.821
18.611470222,27.98787,47.36682,-45.39923,-0.7414793,0.6735899,0.3016751,38.7694,-24.59348,-47.61634,1007.821
18.644247532,2.89108,52.80334,-48.08715,-0.7025374,0.6486541,0.381045,40.94991,-24.21136,-45.94661,1007.821
18.677024364,9.103157,52.09423,-48.02606,-0.7582846,0.5960979,0.3143471,44.27739,-23.46076,-43.78682,1007.819
18.709801674,17.36522,48.01683,-47.2319,-0.7625194,0.5335213,0.2855697,44.27739,-23.46076,-43.78682,1007.819
18.745100021,9.041037,50.20327,-51.44704,-0.8040273,0.6325538,0.2888885,46.44511,-22.34382,-41.69342,1007.819
18.777876854,2.021389,49.55325,-54.62367,-0.7957481,0.6168402,0.2604922,49.68622,-20.12429,-38.74841,1007.819
18.810654640,-29.90869,47.54409,-56.7007,-0.8881131,0.4674213,0.316293,51.91544,-19.0007,-36.15783,1007.819
18.843431950,11.40163,57.29439,-49.00348,-0.8533342,0.5002179,0.08799568,51.91544,-19.0007,-36.15783,1007.818
18.876208782,-4.501293,51.79877,-43.07785,-0.851516,0.5690138,0.1735701,54.77502,-16.01361,-34.90305,1007.818
18.911507606,-3.50736,47.95774,-38.37399,-0.9339509,0.3059023,0.1168801,56.9239,-13.79147,-31.95662,1007.816
18.944284439,9.972848,36.02102,-34.46429,-0.8277005,0.5619906,0.1855582,56.9239,-13.79147,-31.95662,1007.816
18.977061748,7.798621,27.80714,-37.51875,-0.9608936,0.4035115,0.1081324,58.32903,-10.85569,-30.2639,1007.816
19.009838581,2.518355,19.88872,-41.06191,-0.9370734,0.3768581,0.02869136,60.14473,-10.47863,-29.0288,1007.814
19.042615891,6.431964,8.365647,-35.68608,-0.9311354,0.339754,0.07879481,60.14473,-10.47863,-29.0288,1007.814
19.077914715,15.75008,-2.802869,-38.43508,-0.9443697,0.3710383,-0.02904597,60.83449,-8.275923,-27.75879,1007.812
19.110692024,10.40769,-2.093757,-35.93043,-0.9520717,0.3684917,0.1043133,60.8213,-7.474422,-26.90098,1007.812
19.143468857,5.934998,2.397287,-32.32618,-0.9409742,0.4190083,0.2115545,60.8213,-7.474422,-26.90098,1007.812
19.176246166,2.083509,4.170066,-32.38727,-0.9633424,0.4269072,0.1836767,61.21152,-5.659198,-27.36529,1007.812
19.211544514,-11.0861,6.829237,-36.29697,-0.9697208,0.2354004,0.1069626,61.17844,-3.83107,-26.95882,1007.814
19.244321346,-17.17393,7.892906,-36.6635,-1.000044,0.1064779,0.02395325,61.17844,-3.83107,-26.95882,1007.816
19.277098656,-9.843679,5.647384,-37.7631,-0.9923036,0.1086196,-0.02757404,61.52224,-2.738631,-26.97648,1007.816
19.309876442,-6.986124,-1.325552,-37.03003,-0.9520798,0.1380368,-0.04793098,61.48916,-0.9105024,-26.57002,1007.816
19.342653751,-4.936138,-0.5573476,-35.25845,-0.9715977,0.2005408,0.06899201,61.48916,-0.9105024,-26.57002,1007.816
19.377952099,-16.18,2.574565,-34.70865,-1.006899,0.1636178,0.1947668,61.4567,0.9227214,-25.79061,1007.814
19.410728932,-10.58913,4.820086,-33.12034,-0.9902248,0.2921036,0.1613196,61.42249,2.81159,-25.3851,1007.814
19.443506241,-21.95723,8.956574,-33.24252,-1.033689,0.1969463,0.1870783,61.42249,2.81159,-25.3851,1007.814
19.476283074,-29.16324,14.03854,-34.40321,-1.000705,-0.02809683,0.00297773,62.1183,4.643917,-24.54447,1007.814
19.511581421,-15.68303,16.8159,-29.88262,-0.9908339,0.09974141,-0.04537454,61.72114,6.472918,-24.13754,1007.814
19.544358730,-9.470955,17.70229,-27.50015,-1.000801,0.01232972,0.003398388,61.72114,6.472918,-24.13754,1007.814
19.577136516,-7.855814,18.82505,-26.82817,-1.011657,0.1100562,0.1322818,61.69555,7.942554,-23.29023,1007.816
19.609913349,-13.1982,21.48422,-28.78302,-1.02389,-0.08497386,-0.02383781,62.04214,9.05792,-21.62961,1007.82
19.642690658,-16.11788,23.96611,-14.4271,-1.213575,0.127275,0.3998905,62.04214,9.05792,-21.62961,1007.82
19.677989006,-3.50736,31.94363,-21.02471,-1.043933,0.2011757,0.1071902,62.38063,10.52668,-20.78277,1007.82
19.710766315,-0.587684,25.02978,-25.48421,-0.9709646,-0.09617249,-0.08700486,62.72733,11.6429,-19.05999,1007.816
19.743543148,-2.202824,38.6211,-33.24252,-1.092488,-0.8978345,-1.3409,62.72733,11.6429,-19.05999,1007.816
19.776320457,25.44092,23.43428,-16.38195,-0.9754786,-0.04794824,-0.1506066,63.43625,12.81303,-17.77374,1007.816
19.811618805,32.08784,27.92532,-17.54264,-0.8859805,-0.6393207,-0.7636638,63.05397,13.9242,-16.54728,1007.82
19.844396591,9.600123,32.00272,-14.48819,-1.027768,-0.1030816,-0.1017819,63.77827,14.31067,-14.8135,1007.82
19.877173424,12.02283,33.59822,-9.845422,-1.109484,-0.01857588,0.03210309,63.77827,14.31067,-14.8135,1007.82
19.909950733,-7.296728,36.49376,-8.07384,-1.045262,0.100613,-0.13478,64.12414,15.42009,-13.58798,1007.82
19.942727566,-4.501293,33.83459,-7.646216,-1.030598,-0.1068512,0.05996801,64.48436,15.80743,-11.85374,1007.82
19.978025913,8.419828,33.12548,-8.257107,-0.9338368,-0.01457757,-0.2345126,64.48436,15.80743,-11.85374,1007.82
20.010803223,26.8697,21.07057,-11.617,-0.9343787,-0.1376824,0.0631558,64.47977,16.1897,-10.55413,1007.82
20.043580532,6.369843,31.58907,-9.356709,-0.9179148,-0.1751366,-0.2299761,64.83459,16.95251,-8.017552,1007.82
20.076357842,13.14101,37.08469,-17.29828,-1.024248,-0.204218,-0.3620546,64.83459,16.95251,-8.017552,1007.82
20.111656666,35.69085,33.42094,-18.09244,-0.9749888,-0.2807305,-0.2879264,64.46375,17.31782,-8.022812,1007.82
20.144433498,13.01677,41.22118,-29.08846,-1.072729,-0.2696189,-0.5336871,64.82397,17.70516,-6.288565,1007.82
20.177210808,39.10749,24.26158,-32.50945,-1.037321,-0.01787253,-0.3738571,64.82397,17.70516,-6.288565,1007.82
20.209987640,42.83474,26.80256,-31.04331,-0.913002,-0.1979428,-0.2236957,64.08376,18.44767,-5.428863,1007.82
20.242764950,42.64838,42.93486,-34.40321,-1.035117,-0.124895,-0.3582974,63.33594,19.54782,-5.072159,1007.82
20.278063297,42.08929,50.38054,-45.88794,-1.047474,-0.2334466,-0.3349992,63.33594,19.54782,-5.072159,1007.82
20.310840130,45.07109,55.99435,-58.3501,-1.081723,-0.1312019,-0.3687674,63.31783,20.65896,-3.784014,1007.82
20.343617916,45.81654,56.52618,-65.55859,-0.9817389,-0.06688445,-0.1346783,61.83812,22.14992,-1.629496,1007.818
20.376395226,32.08784,66.80831,-84.00748,-0.9996547,-0.308192,-0.2151408,61.83812,22.14992,-1.629496,1007.818
20.411693573,48.9847,58.41715,-84.74055,-1.23874,0.5021498,0.4090125,61.06961,24.41006,-0.8558266,1007.818
20.444470883,-32.3314,63.26275,-100.1961,-0.9367594,-0.4031583,-0.1496817,57.31167,27.73453,1.70805,1007.818
20.477247715,-59.97514,60.07174,-94.08717,-0.9870406,-0.3410927,-0.40911,57.31167,27.73453,1.70805,1007.816
20.510025025,-19.96937,60.78086,-38.55726,-1.002416,-0.1598716,-0.1744421,53.6014,31.79197,4.571183,1007.816
20.542801857,41.40596,3.992789,11.04702,-1.095267,-0.5264974,-0.1861847,49.12697,34.44411,6.711393,1007.816
20.578101158,118.4978,-31.46282,44.64598,-0.8708711,-0.09479706,0.06053372,49.12697,34.44411,6.711393,1007.818
20.610877991,28.98181,-45.52688,75.98466,-0.9958414,0.229679,0.2962083,47.31647,33.68988,4.549644,1007.821
20.643655300,-88.98555,-58.11362,73.11347,-1.145145,-0.1449538,-0.02875479,45.52854,31.37131,-0.9448054,1007.821
20.676432133,-142.3473,-77.96876,66.63803,-1.181944,-0.2578039,-0.3842238,45.52854,31.37131,-0.9448054,1007.821
20.711730480,-94.94914,-105.6241,76.53445,-1.177469,-0.3415112,-0.5906124,44.8833,26.59462,-3.852998,1007.821
20.744507790,-41.02831,-115.0199,94.12809,-1.153643,-0.1453231,-0.5620829,42.38739,23.67334,-4.674093,1007.822
20.777285099,30.59694,-120.87,86.36979,-1.030506,-0.4605145,-0.5108755,40.60518,21.40147,-6.749808,1007.822
20.810062408,81.72234,-117.0881,87.16394,-0.9999026,-0.2423685,-0.4145232,40.60518,21.40147,-6.749808,1007.822
20.842839718,38.73477,-101.7831,83.4986,-0.9000855,-0.1554105,-0.4264437,39.4917,18.78864,-11.43228,1007.825
20.878138065,-30.09505,-65.73657,66.02715,-0.8866436,-0.2945807,-0.4248218,39.16851,16.18581,-15.24555,1007.823
20.910915375,-24.37994,-44.75867,65.23299,-0.9168925,-0.2041309,-0.2684438,39.16851,16.18581,-15.24555,1007.823
20.943692207,-18.72695,-33.41288,59.67388,-0.8745498,-0.2567958,-0.3286351,38.47802,13.97716,-16.95067,1007.823
20.976469517,-29.47384,-6.76208,47.51717,-0.9496634,-0.08790071,-0.1838216,38.86238,12.88297,-16.93395,1007.821
21.011767864,-54.69488,1.80636,40.85846,-0.9554358,-0.09972657,-0.126508,38.86238,12.88297,-16.93395,1007.82
21.044545650,-32.08292,12.20667,35.055,-0.8666492,-0.05768322,-0.07046264,38.52575,11.35942,-17.34472,1007.818
21.077322483,-29.16324,23.13882,30.77877,-0.9306945,0.1516713,0.06608047,39.62693,11.01019,-16.03506,1007.818
21.110099793,-42.08436,19.82963,30.6566,-0.9539927,0.1900142,0.2850975,39.62693,11.01019,-16.03506,1007.816
21.142876625,-46.18433,12.97488,36.46005,-0.8990787,0.185617,0.3571782,39.63586,10.66359,-14.724,1007.816
21.178175449,32.27421,11.32028,78.67257,-1.004394,0.5815572,0.4102624,39.65084,9.9466,-13.84232,1007.816
21.210952282,-16.92545,21.48422,102.3751,-1.077922,0.6964078,0.5556349,39.65084,9.9466,-13.84232,1007.816
21.243729591,-83.70528,18.4705,107.1401,-1.014409,0.7691827,0.7190375,40.04269,8.493923,-13.38475,1007.816
21.276506424,-112.4051,7.77472,124.4282,-1.019304,1.002397,0.7836816,41.98668,5.226465,-12.09244,1007.818
21.309284210,-114.0823,-32.4674,121.1294,-0.7236277,1.01695,0.7699615,41.98668,5.226465,-12.09244,1007.816
21.344582558,-81.15833,-51.19978,110.6221,-0.3706615,0.9621555,0.3802666,42.04263,2.256173,-11.61053,1007.816
21.377359867,-54.757,-65.44111,113.982,-0.2102145,0.8546292,0.2731858,41.72984,-0.6813765,-13.24251,1007.818
21.410136700,-62.58422,-87.65996,117.403,0.1306762,0.7694112,-0.1347263,41.72984,-0.6813765,-13.24251,1007.818
21.442914009,-99.73244,-91.79645,122.4123,0.4121253,0.3658699,-0.5121732,41.05287,-3.618903,-14.93617,1007.82
21.478212357,-57.36607,-70.87764,110.0723,0.5018338,0.05254202,-1.343707,39.96113,-7.313156,-18.73123,1007.82
21.510989666,-152.473,-20.17612,114.8984,0.3081164,0.2912299,-1.105333,39.96113,-7.313156,-18.73123,1007.818
21.543766975,-87.12193,8.956574,119.4189,-0.05375662,-0.2006322,-0.7330849,37.46417,-10.313,-20.85671,1007.818
21.576544285,-233.6027,-31.58101,79.64999,-0.235925,0.223896,-0.8189751,35.30468,-11.7825,-22.07414,1007.816
21.609321594,-745.7885,5.11555,-21.75778,0.4154195,-0.7656154,-0.2486149,35.30468,-11.7825,-22.07414,1007.816
21.644619942,-197.4484,-6.348431,-153.5879,-0.9853336,-3.5339,-0.5174219,34.24044,-13.64961,-25.52498,1007.812
21.677396774,415.5594,-81.33704,5.976634,-0.5882182,2.345909,-0.9594886,33.3158,-3.012513,-25.25605,1007.812
21.710174084,670.8758,69.3493,107.8731,-3.434448,5.243146,-2.395413,33.3158,-3.012513,-25.25605,1007.812
21.742950916,-724.6053,-164.5986,625.2971,-2.664228,3.400464,6.246943,30.77588,-2.935927,-20.09358,1007.819
21.778250217,847.6094,-349.1451,489.3129,-1.009438,2.656636,3.329494,26.25716,-16.27575,-5.70222,1007.819
21.811027050,-157.2563,-47.06329,325.0446,3.604694,3.134045,-0.1720422,15.09914,-25.6853,1.734941,1007.831
21.843804359,281.3785,106.8732,192.0538,-1.081582,-1.399351,-1.334394,15.09914,-25.6853,1.734941,1007.832
21.876581192,584.4658,142.3288,-10.82285,-2.241295,1.590069,1.105318,5.619428,-27.4469,8.987263,1007.834
21.909358501,426.8033,44.53037,-40.87864,0.1372095,3.108955,-0.2417607,2.599032,-20.69619,17.89995,1007.836
21.944656849,149.6203,18.52959,-10.21196,0.7485814,0.8776693,-0.08773749,2.599032,-20.69619,17.89995,1007.836
21.977434158,87.81018,-0.852811,-29.88262,0.1267357,0.4013076,-0.04559157,3.863122,-10.02951,20.71457,1007.835
22.010211945,324.7388,-29.45367,10.80267,0.1834621,0.5787381,-0.3728382,3.538262,-12.22629,19.94136,1007.838
22.042988777,388.9717,-70.70036,18.19444,0.2164713,0.4278543,-0.1180487,3.538262,-12.22629,19.94136,1007.844
22.078287125,264.2332,-101.4876,17.09484,0.1578189,0.1092089,-0.4851897,4.278888,-12.54577,23.36488,1007.845
22.111064434,308.5874,-77.96876,38.10946,0.3260277,0.7046975,-1.201308,5.621932,-6.27017,24.94293,1007.845
22.143841267,74.88906,-47.89059,64.6221,0.1407041,0.5309587,-0.6788108,5.621932,-6.27017,24.94293,1007.845
22.176618576,281.7512,-103.9695,98.64868,0.7180197,-0.3318629,-0.9917648,7.315309,0.6616578,25.70193,1007.846
22.209395409,111.5403,-44.34502,26.62472,0.1225286,-0.2331365,-0.8566826,7.966509,4.717571,24.76678,1007.852
22.244693756,-2.824032,-8.003025,12.14662,0.1604155,-0.0947458,-1.172273,7.966509,4.717571,24.76678,1007.851
22.277471542,7.7365,-2.15285,11.35247,0.2729633,0.005094467,-0.8877243,9.32005,10.1696,23.87089,1007.854
22.310248852,-57.11759,-20.41249,0.6618897,0.1923951,-0.03088013,-0.9914531,10.81603,11.25333,23.41663,1007.854
22.343026161,-75.3811,11.61574,-5.141567,0.1861266,0.0687335,-1.437329,10.81603,11.25333,23.41663,1007.856
22.378324509,-29.41172,39.03475,8.359105,0.1004972,0.09167127,-0.627029,11.16731,11.98727,23.83981,1007.857
22.411101341,-69.54175,31.29361,16.85048,0.2749723,0.1288792,-1.159404,11.19363,10.52358,23.42762,1007.861
22.443878651,-129.6125,26.80256,23.69245,0.1583098,0.5123585,-0.5031275,11.19363,10.52358,23.42762,1007.862
22.476655483,-212.9165,10.84754,22.22631,0.2107501,0.05162018,-0.7759709,10.47442,10.17872,24.73962,1007.862
22.509432793,-81.77954,8.18837,27.72432,0.409282,0.1673933,-1.385539,9.735712,7.652479,26.45904,1007.86
22.544731617,-37.23894,-4.989299,1.944759,0.2546524,0.5839571,-0.7585856,9.735712,7.652479,26.45904,1007.863
22.577508926,-51.58884,13.68399,21.7376,0.1697865,0.2909692,-0.976481,9.798744,4.390378,27.81594,1007.865
22.610285759,-43.76162,21.42513,17.40028,0.3406749,0.291396,-1.050535,8.727522,3.305629,28.26966,1007.865
22.643063068,-61.15544,7.065608,22.65393,0.2102441,0.7155011,-0.5589134,8.727522,3.305629,28.26966,1007.865
22.678361416,-35.3132,15.04312,26.93017,0.3240018,0.1775864,-0.9376856,9.841787,2.154055,28.65934,1007.863
22.711138725,-99.91881,22.13424,26.50254,0.4026906,0.5771791,-0.9307727,8.771292,1.075249,29.54817,1007.865
22.743915558,-133.8989,8.129276,28.27412,0.3647727,0.4696236,-0.5232886,8.454544,-1.474936,29.58875,1007.865
22.776692867,-64.63421,-14.08957,28.51848,0.3623739,0.4139832,-0.7475136,8.454544,-1.474936,29.58875,1007.866
22.809470653,-12.26639,-6.525709,8.908906,0.3480878,0.4818835,-0.8414477,6.708531,-5.47938,29.65413,1007.864
22.844769001,-10.83761,-1.739201,14.83454,0.2976589,0.661867,-0.8127176,6.03632,-8.447927,30.13697,1007.864
22.877545834,-39.22681,19.82963,20.82126,0.3310779,0.711328,-0.7440367,6.03632,-8.447927,30.13697,1007.864
22.910323143,-0.02859696,-3.334703,13.12405,0.3266252,0.3529073,-0.6626171,6.39291,-8.090306,29.69566,1007.866
22.943099976,-0.7119256,3.342769,15.44543,0.3904926,0.8221418,-0.8488001,5.334484,-9.909873,29.72572,1007.866
22.978398323,-55.37821,23.84793,12.08554,0.4379993,0.6763501,-0.7196881,5.334484,-9.909873,29.72572,1007.867
23.011175632,-47.67523,20.8933,9.519796,0.3753458,0.2740425,-0.716045,4.97644,-10.27938,29.29681,1007.867
23.043953419,-1.395254,-0.7937183,-2.698006,0.3937626,0.5196388,-0.5797521,4.294888,-12.83464,28.90275,1007.867
23.076730251,-2.140703,-1.561923,-5.508101,0.3720098,0.6684653,-0.6535731,4.294888,-12.83464,28.90275,1007.869
23.109507561,13.07889,4.820086,-5.508101,0.3827266,0.6382766,-0.7353845,3.936949,-13.2033,28.536,1007.867
23.144805908,-10.27853,-2.15285,-7.707305,0.3898787,0.5160799,-0.5965852,3.56746,-12.82695,29.3388,1007.867
23.177583218,-19.41028,-1.089182,-13.38858,0.4044908,0.6775182,-0.7215358,3.56746,-12.82695,29.3388,1007.867
23.210360050,-9.03611,15.33858,-9.784332,0.3642953,0.6455137,-0.6530389,3.560699,-12.46251,29.33307,1007.866
23.243137360,-0.587684,0.9199694,1.089513,0.384268,0.6204213,-0.6434212,3.931538,-12.82782,29.33833,1007.867
23.275914192,-3.50736,0.9790621,-0.8042467,0.4113889,0.6437845,-0.6781788,3.931538,-12.82782,29.33833,1007.869
23.311213493,2.828959,3.520047,-3.492163,0.3619375,0.6223438,-0.6202658,3.944333,-13.56264,28.91468,1007.867
23.343990326,4.568341,1.865452,1.028424,0.3900713,0.6276782,-0.6574054,3.931538,-12.82782,29.33833,1007.866
23.376767635,6.866809,0.9199694,-0.1933565,0.3910549,0.6203039,-0.6684679,3.931538,-12.82782,29.33833,1007.866
23.409544468,16.86825,-0.6164403,2.066937,0.3731707,0.5875902,-0.658749,3.574222,-13.19139,29.34453,1007.866
23.444843292,-7.234607,2.929121,-0.5598906,0.4187124,0.6166871,-0.7315865,4.30165,-13.19908,28.90848,1007.866
23.477620125,-10.65125,14.15673,-9.662154,0.3523353,0.5790144,-0.6062182,4.30165,-13.19908,28.90848,1007.866
23.510397434,-7.607331,0.5654134,-2.881273,0.3964882,0.5879454,-0.6356995,3.926229,-12.4515,30.20282,1007.866
23.543174267,-31.02687,1.747267,-8.134929,0.3731782,0.5836672,-0.662594,3.560699,-12.46251,29.33307,1007.866
23.575952053,-41.64952,5.647384,-14.61036,0.3764,0.6652802,-0.6266224,3.560699,-12.46251,29.33307,1007.867
23.611250400,-15.06182,3.342769,-6.607703,0.3865326,0.6886052,-0.6464175,4.294888,-12.83464,28.90275,1007.867
23.644027710,-34.31926,-0.02551346,-13.14423,0.3763083,0.6981937,-0.656035,3.937572,-13.1982,28.90895,1007.872
23.676804542,-35.87228,5.588291,-8.440374,0.368987,0.7197697,-0.6262057,3.937572,-13.1982,28.90895,1007.872
23.709581852,-12.76336,3.047306,-7.218594,0.3875178,0.6873197,-0.6223498,4.299573,-13.21606,27.6653,1007.872
23.744880199,-33.20109,4.051881,-5.874635,0.3515552,0.7158399,-0.5399947,4.313822,-13.93899,28.11187,1007.873
23.777657509,-13.01184,-8.948508,-8.867997,0.3437578,0.7138151,-0.611696,5.047285,-14.31706,27.24644,1007.873
23.810434341,-28.60415,3.992789,-8.745819,0.3636226,0.7284547,-0.631501,5.047285,-14.31706,27.24644,1007.875
23.843211651,-38.04651,-0.9119037,-12.96096,0.3552975,0.7798201,-0.51892,5.040524,-13.95262,27.24071,1007.877
23.875989437,-23.57237,0.8608767,-6.363347,0.333521,0.7439209,-0.542401,5.039797,-13.95856,26.8056,1007.877
23.911287785,-27.17538,-10.89857,-13.20532,0.3650861,0.7442344,-0.5352559,5.039797,-13.95856,26.8056,1007.877
23.944064617,-23.07541,-4.33928,-11.00611,0.3578068,0.7553536,-0.4683461,5.424158,-15.05275,26.82232,1007.875
23.976841927,-21.33602,-10.54401,-13.93839,0.3043343,0.7590182,-0.577494,6.158348,-15.42488,26.392,1007.877
24.009618759,-37.30106,-5.816597,-24.20134,0.3359545,0.7612063,-0.4408655,6.158348,-15.42488,26.392,1007.877
24.044917107,-24.75267,-8.062119,-21.87996,0.3099694,0.8606312,-0.4698354,6.520972,-15.43764,25.5213,1007.877
24.077694416,14.63191,-26.32176,-26.27837,0.2791795,0.7269517,-0.5359889,6.897844,-16.17333,25.09718,1007.877
24.110471249,-43.32678,-26.02629,-54.01278,0.2057494,0.9847559,-0.4948061,6.897844,-16.17333,25.09718,1007.878
24.143249035,-31.52383,-13.67592,-53.3408,0.1330444,0.9265787,-0.5089868,7.61175,-15.45214,24.64967,1007.88
24.176026344,-6.67552,-27.38543,-77.2266,0.05253632,0.9082195,-0.3908346,9.444932,-16.19132,24.22367,1007.88
24.211324692,5.251669,-22.18527,-94.27043,-0.008752077,1.168691,-0.3309116,9.444932,-16.19132,24.22367,1007.88
24.244102001,-136.6322,8.011091,-93.59846,-0.3948108,1.359421,-0.4544747,10.5433,-16.56347,23.85504,1007.88
24.276878834,-351.5701,130.392,-152.3661,-0.5066116,1.397016,-0.5168433,11.67978,-15.86114,22.10164,1007.88
24.309656143,-408.2242,130.392,-133.4896,-1.214851,1.74634,-0.3491387,11.67978,-15.86114,22.10164,1007.88
24.344954491,-570.2352,203.9624,-232.576,-1.525579,0.3800651,0.07677446,11.40996,-21.87512,13.18172,1007.88
24.377731323,-208.5059,148.1789,-247.7872,-1.026994,0.4757237,0.3464544,13.69161,-28.71069,-2.070231,1007.88
24.410509110,-33.38745,156.1564,-331.5402,-0.5908161,0.8537765,0.4680786,13.69161,-28.71069,-2.070231,1007.88
24.443286419,78.05722,160.8248,-354.9984,-0.3090029,0.7938421,0.5454811,19.83553,-27.348,-12.42046,1007.88
24.476063252,-17.91938,131.8694,-336.3051,0.2096087,1.692087,0.9929705,31.05487,-20.44495,-12.10886,1007.878
24.511362076,-23.13753,151.9609,-270.0846,0.626691,0.3536983,0.3513805,31.05487,-20.44495,-12.10886,1007.88
24.544138908,43.26958,101.4366,-198.977,0.4441746,0.6025968,0.7139037,39.29794,-9.788198,-8.805977,1007.88
24.576916218,34.38631,-2.15285,-28.41648,0.3426055,1.781345,1.341989,41.71025,1.257138,-4.7554,1007.88
24.609693050,-86.37648,-21.29888,28.27412,-0.7673174,-0.4399655,-0.3935972,41.71025,1.257138,-4.7554,1007.878
24.644991398,-36.18289,18.82505,-5.385923,-1.687706,-0.7124707,-0.1633193,41.6024,7.160757,-3.977812,1007.883
24.677769184,-0.4634424,19.00233,23.02047,-1.625295,0.692705,0.2609013,41.61665,6.437828,-3.53124,1007.883
24.710546493,5.31379,15.04312,23.63136,-1.354083,0.3677684,0.2034657,41.65118,4.621586,-3.067478,1007.884
24.743323326,-1.89222,10.43389,16.23959,-0.9101682,0.3099836,0.1148921,41.65118,4.621586,-3.067478,1007.884
24.776100635,-7.917935,4.406437,9.519796,-0.835167,0.1999469,0.02967902,42.01671,4.632601,-2.197725,1007.884
24.811398983,-3.072515,1.629082,14.34583,-0.9071461,0.2586693,0.08608055,41.67292,3.540163,-2.180064,1007.884
24.844175816,-7.110365,-4.280187,14.65127,-1.181188,0.3161797,0.0009614729,41.67292,3.540163,-2.180064,1007.883
24.876953125,-7.48309,-17.22149,15.26216,-1.024044,0.1904345,0.009442783,42.05124,2.81636,-1.733963,1007.883
24.909730434,4.692582,-19.23064,12.8186,-0.797508,0.3090357,0.1232908,42.05124,2.81636,-1.733963,1007.881
24.945029259,-5.681587,-14.62141,4.571587,-1.088483,0.3532329,0.1051412,42.05124,2.81636,-1.733963,1007.881
24.977806568,1.897147,-22.48073,6.526435,-0.9923967,0.3900266,0.1679163,42.07048,1.644478,-3.021153,1007.881
25.010583401,-5.495225,-24.96263,-1.476226,-0.9050924,0.4478201,0.2494536,41.71919,0.9105325,-3.444335,1007.881
25.043360710,-10.09216,-25.31718,-10.02869,-1.09882,0.4292429,0.1921777,41.71919,0.9105325,-3.444335,1007.881
25.076137543,-11.52094,-29.92641,-13.3275,-1.036726,0.2475191,0.1793075,42.08182,0.8977723,-4.315028,1007.881
25.111435890,9.227399,-32.23103,-9.173443,-0.898388,0.279231,0.2309187,42.05946,1.974101,-5.575395,1007.881
25.144213200,5.562273,-28.98093,-9.173443,-0.9274695,0.2697094,0.2974299,42.05946,1.974101,-5.575395,1007.879
25.176990032,4.568341,-28.86274,-9.90651,-0.9584024,0.4126099,0.2929556,42.05052,2.320707,-6.886459,1007.879
25.209767818,2.642596,-29.92641,-3.675431,-0.9261561,0.3291054,0.2925237,41.3284,1.952071,-7.314901,1007.879
25.245066166,2.828959,-35.00838,-5.324834,-1.006882,0.1532898,0.1803415,41.3284,1.952071,-7.314901,1007.879
25.277843475,14.07282,-41.21311,-3.369985,-0.9275787,0.2932539,0.1813865,41.3181,2.287637,-9.434031,1007.879
25.310620785,0.53049,-24.54898,-11.25047,-1.024861,0.2074965,0.4330173,40.94541,2.707743,-9.875359,1007.879
25.376174927,2.14563,-10.13036,-1.109692,-0.9075738,0.3004948,0.4282667,40.1416,3.42662,-10.75602,1007.879
25.411473274,-1.705858,-0.3209769,-15.70997,-0.9824091,0.3110875,0.3605562,40.57167,3.049277,-11.62106,1007.879
25.444250107,3.015321,-3.925631,-19.9862,-0.9483075,0.2499772,0.2864377,40.57167,3.049277,-11.62106,1007.879
25.477027416,3.822891,-2.330128,-18.3368,-0.8807715,0.2426124,0.3368317,40.50953,3.037534,-12.49121,1007.879
25.509805203,8.606191,-2.15285,-17.66482,-0.9183041,0.2991486,0.317581,39.76183,4.138535,-12.07235,1007.879
25.542582035,1.275939,0.2108573,-16.93175,-0.9784038,0.2594649,0.3562923,39.76183,4.138535,-12.07235,1007.879
25.577880382,0.6547315,3.283677,-19.37531,-0.9322518,0.2521277,0.3663025,40.5311,5.235898,-11.65544,1007.878
25.610657692,2.021389,3.697326,-16.68739,-0.9378782,0.1531775,0.2913725,39.7483,4.867409,-12.08381,1007.878
25.643435001,4.381979,0.0926719,-14.85472,-0.9681804,0.2362212,0.2932447,39.7483,4.867409,-12.08381,1007.878
25.676211834,7.301655,-4.57565,-12.35007,-0.9933736,0.2070885,0.2663921,39.72729,5.954776,-12.53611,1007.878
25.711510181,-1.395254,-11.96224,-5.385923,-0.8885577,0.2614765,0.3974733,39.3579,6.331974,-11.67115,1007.878
25.744287491,-8.477023,-18.22606,-5.996813,-0.9600722,0.1072291,0.36418,39.35042,6.690466,-12.11199,1007.876
25.777065277,-9.09823,-16.03963,-5.447012,-0.9464101,0.286169,0.375912,39.35042,6.690466,-12.11199,1007.876
25.809842110,-10.83761,-14.20776,-16.6263,-0.8621996,-0.01800448,0.307336,39.33544,7.407453,-12.99367,1007.876
25.842619419,-1.89222,-6.348431,-13.44967,-0.9649011,0.09497947,0.3593963,38.97063,7.402381,-13.42831,1007.876
25.877917767,8.916795,-8.475767,-14.85472,-0.9757507,0.1655192,0.3607599,38.97063,7.402381,-13.42831,1007.876
25.910694599,0.2198862,-12.96681,-18.58115,-0.9274004,0.2682687,0.4403964,39.33409,7.396414,-13.80174,1007.874
25.943471909,-4.625534,-9.953084,-18.27571,-0.8844017,0.1581639,0.4539385,38.60667,7.404103,-13.36568,1007.874
25.976249218,3.885012,-14.56231,-14.24383,-0.9400293,0.26456,0.412513,38.60667,7.404103,-13.36568,1007.872
26.011547565,-4.625534,-19.05336,-16.01541,-0.9037523,0.1065945,0.3452743,38.21264,8.838947,-15.12858,1007.872
26.044325352,0.3441277,-24.3717,-13.57185,-0.9544881,0.2211768,0.4246466,38.21264,8.838947,-15.12858,1007.872
26.077102184,-3.134636,-27.73998,-17.54264,-0.9851593,0.03075774,0.3234391,38.21264,8.838947,-15.12858,1007.87
26.109879494,0.7168523,-24.54898,-16.01541,-0.9086419,0.1358276,0.4227411,37.47023,9.563623,-15.57421,1007.87
26.142656326,-5.93007,-18.46243,-23.59045,-0.92297,0.03538859,0.4243706,36.71961,10.64085,-16.8958,1007.87
26.177954674,10.65618,-19.17154,-18.21462,-0.8747066,-0.0410132,0.4455511,36.71961,10.64085,-16.8958,1007.87
26.210731983,3.015321,-21.71253,-18.27571,-0.8886694,0.1238667,0.4997296,36.3548,10.63578,-17.33044,1007.87
26.243508816,21.15459,-25.08081,-24.26243,-0.8881317,0.3211692,0.5764489,35.9691,11.71892,-18.15523,1007.87
26.276286125,-4.501293,-19.93975,-40.87864,-0.908873,0.2822422,0.67668,35.9691,11.71892,-18.15523,1007.87
26.311584473,-26.74053,-21.47616,-47.59843,-0.9768328,-0.2024129,0.3309912,35.96764,11.70703,-19.02545,1007.869
26.344362259,-36.43137,-1.325552,-61.46564,-0.942073,0.1402328,0.6062126,34.48244,13.22307,-19.48256,1007.869
26.377139568,-68.36145,21.36604,-80.52541,-1.146971,0.1013281,0.4406874,34.48244,13.22307,-19.48256,1007.87
26.409916401,-85.81739,13.27034,-77.7764,-1.260492,0.08024821,0.557478,33.35712,15.05381,-19.07469,1007.87
26.442693710,-192.9136,6.88833,-67.87998,-1.2754,0.005101993,0.4849409,32.21902,17.61938,-18.24316,1007.87
26.477992058,-123.2762,-34.65383,-13.20532,-1.27615,-0.5405098,0.2575996,32.21902,17.61938,-18.24316,1007.87
26.510768890,69.04971,-59.9455,65.7217,-1.545728,-0.9431561,0.1110678,31.43572,20.94776,-14.87506,1007.869
26.543546200,328.2797,-79.56426,115.5092,-1.362603,-0.616341,-0.1777134,30.2329,23.55043,-15.78486,1007.869
26.576323032,326.9752,-49.60427,130.1706,-1.554608,-0.3837683,-0.4707578,30.2329,23.55043,-15.78486,1007.867
26.611622333,230.3774,-24.25351,121.8625,-1.623084,0.2897982,-0.1799054,29.53575,21.21736,-22.15094,1007.865
26.644399166,54.51345,-1.857386,83.86514,-1.309038,-0.1200438,-0.4520019,30.03996,13.1284,-27.18453,1007.863
26.677176475,-80.1644,10.55208,-17.05393,-1.146064,-0.5734796,-0.01751679,30.16664,6.119576,-28.81515,1007.868
26.709953308,83.27536,32.29818,-125.1815,-0.9950888,-0.2601195,0.4591637,30.16664,6.119576,-28.81515,1007.868
26.742730617,176.7671,101.4957,-202.0315,-0.3912338,0.1778142,0.1653662,30.57787,6.847432,-28.82716,1007.87
26.778028965,279.3906,147.9426,-248.7035,-0.4349533,0.5973985,0.1826479,30.52451,9.768871,-28.43789,1007.868
26.810806274,216.3381,182.9254,-243.3277,-0.2515324,1.357685,0.6648355,30.52451,9.768871,-28.43789,1007.864
26.843583107,159.0627,184.9346,-157.9863,-0.2216619,1.910892,0.8988354,31.23456,10.87827,-27.15068,1007.862
26.876360416,-10.89973,140.3196,-59.63297,-0.3137904,2.561708,1.378472,31.93349,12.80615,-23.7625,1007.862
26.911659241,-28.85264,30.5845,48.61677,-0.7277359,0.5588976,2.142543,31.93349,12.80615,-23.7625,1007.862
26.944436550,33.20602,7.597442,15.0789,-0.788224,-0.4395574,-0.4498675,34.09058,14.67575,-19.94012,1007.861
26.977213383,-8.228539,44.58946,-18.70333,-1.948233,-0.3010525,-0.709667,35.18427,14.68501,-19.0713,1007.859
27.009990692,77.74661,-9.362157,18.56097,-1.805174,0.2418046,0.6316934,35.18427,14.68501,-19.0713,1007.861
27.042767525,24.01214,2.338194,35.055,-1.185858,-0.3123158,0.3263576,34.83662,13.98079,-17.31893,1007.861
27.078066349,12.58192,15.92951,30.6566,-1.024005,0.2132666,0.2110988,35.21132,13.22727,-19.04839,1007.861
27.110843182,-10.27853,30.28903,17.2781,-0.9721503,0.02068929,0.05049128,35.21132,13.22727,-19.04839,1007.861
27.143620491,-9.967921,30.17085,9.153262,-1.015388,0.1750393,-0.2538594,35.60502,11.7198,-18.15476,1007.865
27.176397324,1.213819,26.09345,6.648613,-1.165927,0.005882671,-0.0948794,35.60575,11.72574,-17.71964,1007.863
27.211696625,-3.44524,21.30694,7.198414,-1.070526,-0.0872089,-0.07908043,35.60575,11.72574,-17.71964,1007.863
27.244473457,-6.364916,20.066,8.847817,-0.9966527,0.1063891,0.007097678,35.97939,11.38335,-16.0361,1007.863
27.277250767,-13.1982,21.07057,-2.087116,-1.003957,0.0842746,-0.1526638,37.07235,11.38668,-15.60239,1007.863
27.310027599,-18.91331,14.86584,-6.852059,-1.036604,0.1514256,-0.05208293,37.07235,11.38668,-15.60239,1007.863
27.342804909,-17.85726,-0.9709963,-0.5598906,-1.075132,-0.02173475,-0.2534212,37.43787,11.3977,-14.73264,1007.863
27.378103256,-23.38601,-8.593952,13.85712,-1.083924,0.04204508,-0.03592091,36.69838,12.14615,-13.43783,1007.863
27.410880566,-35.87228,-16.80784,13.91821,-1.012404,-0.03597669,-0.1356148,36.69838,12.14615,-13.43783,1007.863
27.443657398,-73.14475,-23.30803,18.07226,-0.9894917,0.1318051,-0.1287016,36.70441,11.77577,-13.86721,1007.863
27.476435185,-27.61022,-32.52649,26.62472,-0.9885916,-0.2551852,-0.169999,37.05424,12.49783,-14.31425,1007.861
27.511733532,-25.37387,-38.96759,34.07758,-1.012752,0.1323472,-0.02274769,36.32463,12.48768,-15.18353,1007.86
27.544510841,-17.91938,-38.96759,36.82659,-1.031219,0.1632695,0.1038476,36.32463,12.48768,-15.18353,1007.86
27.577287674,-19.53452,-39.32215,37.8651,-1.055789,0.07315535,0.06168191,36.34346,11.38248,-16.03657,1007.86
27.610064983,-14.87546,-39.02668,38.90361,-1.009893,0.1769807,0.08885419,35.99749,10.27221,-17.32424,1007.86
27.642841816,-17.48454,-37.37209,35.97134,-1.050216,0.2005641,0.1668949,35.99749,10.27221,-17.32424,1007.86
27.678140163,-15.24819,-39.26305,36.88768,-1.023604,0.2200318,0.06282829,36.0157,9.161919,-18.55023,1007.861
27.710917473,-14.31638,-41.86313,39.20906,-1.054965,0.1461255,0.1183707,35.28609,9.151775,-19.41951,1007.86
27.743694305,-1.954341,-44.10865,41.16391,-1.061554,0.2655115,0.135054,35.28609,9.151775,-19.41951,1007.86
27.776472092,-13.32244,-42.27678,38.47599,-1.058589,0.2516966,0.1759835,34.94616,7.671126,-21.13657,1007.86
27.809249401,8.419828,-43.7541,37.43748,-1.070885,0.3405608,0.2928497,34.23017,6.932958,-21.93223,1007.861
27.844547749,5.810756,-45.70416,36.94876,-1.177951,0.245497,0.3384949,34.23017,6.932958,-21.93223,1007.861
27.877325058,18.66976,-43.57682,31.63402,-1.155861,0.3671155,0.4316434,33.89096,5.458251,-23.21418,1007.863
27.910101891,20.78186,-42.69043,29.25155,-1.136472,0.3960541,0.507609,32.82359,3.985289,-24.49518,1007.865
27.942879200,33.70299,-40.504,30.96204,-1.195364,0.2524745,0.5224059,32.82359,3.985289,-24.49518,1007.865
27.978177547,60.53916,-55.15899,25.0975,-1.167335,0.2854671,0.4005052,32.12756,2.081184,-26.14293,1007.863
28.010954380,30.22422,-51.7907,21.7376,-1.096204,0.1448122,0.1892306,32.1464,0.9759851,-26.99596,1007.869
28.043731689,0.4683693,-36.72207,18.07226,-1.075395,0.1555017,0.090486,32.1464,0.9759851,-26.99596,1007.867
28.076509476,-41.52527,-5.816597,10.49722,-0.9169185,0.2374231,-0.1559892,30.72847,-1.224978,-28.26504,1007.867
28.109286308,-186.5773,35.96193,9.458708,-0.9821145,0.2995042,-0.1150124,29.95774,-2.33423,-29.55216,1007.867
28.144585133,-155.3305,74.72673,56.06963,-1.282801,0.1051989,-0.3104019,29.95774,-2.33423,-29.55216,1007.866
28.177361965,37.11963,78.80413,120.6407,-1.371422,0.1990802,-0.3608762,30.28271,-0.1365929,-28.71679,1007.866
28.210139275,176.5808,82.40878,166.0909,-1.323288,0.8565951,0.002890819,32.12756,2.081184,-26.14293,1007.864
28.242916107,186.3959,79.33596,185.5783,-1.335626,0.7751114,0.2066589,32.12756,2.081184,-26.14293,1007.864
28.278214455,214.3502,61.07632,196.6355,-0.9641511,1.163328,0.1166222,32.96743,-3.722683,-23.93879,1007.864
28.310991764,243.6712,46.36224,210.075,-0.6500372,0.9702254,0.05551659,33.50134,-12.47814,-19.94694,1007.862
28.343768597,335.2372,33.7755,199.4455,-0.2885323,1.009842,-0.2852419,33.50134,-12.47814,-19.94694,1007.862
28.376545906,293.989,46.77589,177.8811,-0.01473898,1.018148,-0.400468,31.148,-22.27831,-12.88835,1007.86
28.409323692,258.3317,44.23491,154.8506,-0.009717548,0.9919953,-0.1751632,26.88925,-30.59416,-4.234134,1007.857
28.444622040,257.5241,53.03971,138.662,0.0760355,0.8119039,-0.4720953,26.88925,-30.59416,-4.234134,1007.852
28.477398872,241.7455,64.38551,119.7244,0.1836493,0.9089602,-0.3718922,21.54519,-35.9194,5.244845,1007.852
28.510176182,195.1549,75.90858,100.4203,0.2040216,0.7042303,-0.4212122,15.6946,-36.87548,14.28266,1007.848
28.542953491,174.4065,76.6177,79.64999,0.2020295,0.7362693,-0.3639738,15.6946,-36.87548,14.28266,1007.845
28.578251839,149.7446,84.77249,63.21704,0.2151348,0.7049777,-0.537248,11.31827,-35.66641,21.9788,1007.841
28.611028671,75.38602,96.94558,41.34718,0.1759332,0.6526247,-0.5245606,6.473072,-32.29857,27.52771,1007.84
28.643805981,-4.874017,95.05461,12.57425,0.09587861,0.4110162,-0.5735869,3.160065,-30.06928,30.04607,1007.84
28.676582813,-11.52094,102.0275,-6.363347,0.06034447,0.2169064,-0.7094353,3.160065,-30.06928,30.04607,1007.838
28.709360599,1.772906,90.79994,-26.15619,0.2122597,0.2413643,-0.7367888,-0.1961417,-28.95608,30.90341,1007.834
28.744658947,-4.625534,71.29935,-44.23854,0.1529392,0.2931443,-0.643342,-2.003006,-29.68059,30.91722,1007.831
28.777436256,-35.56168,53.39427,-55.35674,0.302649,0.201343,-0.7874859,-2.003006,-29.68059,30.91722,1007.827
28.810213089,-46.18433,54.7534,-60.06059,0.2942394,0.4549336,-0.870161,-2.731887,-29.68479,30.48305,1007.827
28.842990398,-84.26437,47.89865,-52.42447,0.2290305,0.1329486,-0.7289634,-3.812777,-30.42887,29.19058,1007.824
28.878288746,-21.95723,25.79799,-39.35142,0.4088939,0.41794,-0.9348797,-3.812777,-30.42887,29.19058,1007.822
28.911066055,-96.81277,28.27988,-31.34875,0.4223439,0.2687915,-0.9674193,-3.783227,-32.28588,26.67072,1007.82
28.943842888,-53.01762,18.11594,-24.62896,0.3540916,0.1983079,-0.8655839,-2.66613,-33.76408,25.3869,1007.82
28.976620197,3.76077,7.301979,-11.00611,0.3673933,0.5342613,-0.8266502,-2.66613,-33.76408,25.3869,1007.82
29.009397030,6.92893,-2.743777,-5.263745,0.2913434,0.4673077,-0.768124,-2.641888,-35.24475,23.73153,1007.819
29.044696331,33.1439,-11.66677,9.092174,0.330126,0.2782496,-0.8271386,-3.005966,-35.24387,23.732,1007.819
29.077473164,51.53165,-20.88523,22.8372,0.3415553,0.5874974,-0.7742007,-3.005966,-35.24387,23.732,1007.819
29.110250473,-17.48454,-16.68965,24.36443,0.4153315,0.3871194,-0.8222098,-2.269596,-35.59817,24.60701,1007.817
29.143027306,-56.43426,-2.980147,18.49988,0.4178734,0.5460047,-0.8094586,-3.010651,-34.86246,24.96944,1007.813
29.178326130,-99.79456,6.415588,10.49722,0.2992015,0.02377697,-0.7539961,-3.010651,-34.86246,24.96944,1007.813
29.211102963,10.59406,-6.880265,3.533073,0.05739987,0.0714433,-0.4723792,-2.656137,-34.52182,23.28496,1007.813
29.243880272,74.08149,-48.12696,-2.942362,-0.01156605,0.8954437,-0.470088,-3.346631,-36.73047,21.57983,1007.811
29.276657105,-84.32649,-53.14983,-18.94769,0.06078138,0.6277965,-0.804884,-3.346631,-36.73047,21.57983,1007.809
29.309434414,-123.2141,-61.30462,-33.97558,-0.09457106,0.6421152,-0.6601285,-2.99317,-35.97869,23.30835,1007.811
29.344733238,-98.987,-93.8056,-58.65554,-0.1750184,0.6070281,-0.4962219,-1.528321,-36.75182,20.3343,1007.811
29.377510548,-77.36897,-122.4065,-81.50283,-0.1620026,0.6182819,-0.6445291,-1.528321,-36.75182,20.3343,1007.809
29.410287380,-1.89222,-122.4065,-90.60509,-0.08194263,0.7932894,-0.9280235,1.047991,-38.69944,16.07166,1007.809
29.443064690,15.06675,-103.3195,-76.79897,0.1916061,1.128618,-0.9416931,5.130899,-39.82627,14.34316,1007.807
29.478363037,-7.607331,-63.66833,-25.91183,0.4670298,1.459871,-1.123356,9.498373,-39.84863,13.4673,1007.807
29.511139870,-41.33891,-17.04421,29.80135,0.6010937,1.27182,-0.9419174,9.498373,-39.84863,13.4673,1007.807
29.543917179,-34.4435,22.54789,70.48664,0.5134203,1.011289,-0.7612876,12.44931,-38.77943,12.20309,1007.807
29.576694488,-17.17393,57.05802,92.29542,0.3808782,0.8064059,-0.7187859,10.5721,-39.16313,10.4708,1007.806
29.609471321,-25.68448,79.0405,99.01521,0.2213757,0.7281566,-0.5733998,10.5721,-39.16313,10.4708,1007.806
29.644769668,-38.54348,85.30432,98.28214,0.005127229,0.6231806,-0.4210997,7.323175,-40.60708,10.93306,1007.804
29.677546978,-55.68881,66.27648,74.27416,-0.2562923,0.508022,-0.3481018,4.058548,-41.33999,10.07853,1007.802
29.710324764,-102.7142,34.89826,28.15195,-0.4560943,0.4153308,-0.269989,4.058548,-41.33999,10.07853,1007.802
29.743101597,-134.2716,-2.861962,-31.77638,-0.6400413,0.3756968,-0.2853779,-0.3550322,-42.4575,7.552926,1007.8
29.775878906,-86.37648,-35.71749,-84.55728,-0.6136618,0.299598,-0.3344246,-1.097007,-42.14906,3.321337,1007.8
29.811177254,25.6894,-54.68624,-123.6543,-0.6862352,0.602093,-0.3111217,-1.097007,-42.14906,3.321337,1007.796
29.843954086,-2.513428,-77.20055,-162.6291,-0.6638219,0.8050206,-0.15215,1.096619,-42.91883,0.7193074,1007.794
29.876731396,-35.3132,-94.10106,-196.9,-0.7373549,0.857153,-0.3412293,5.883543,-42.56588,0.7073908,1007.794
29.909508705,-83.08408,-96.52386,-240.3343,-0.7443361,0.7395834,-0.2904926,5.883543,-42.56588,0.7073908,1007.794
29.944807053,-83.58105,-90.31913,-266.7247,-0.8603973,0.9516004,-0.2688756,12.10151,-41.16387,-2.307218,1007.796
30.010361195,-81.90379,-57.34542,-305.5773,-1.067787,0.7399377,-0.4110291,19.32326,-38.31253,-5.781191,1007.796
30.043138981,-67.67812,-32.88105,-291.0381,-1.16576,0.9009769,-0.3879341,27.99638,-32.15387,-11.4852,1007.796
30.075915813,-109.6718,-0.4982549,-287.3117,-1.133039,0.6157798,-0.3972091,34.08549,-23.76087,-14.17453,1007.798
30.111214161,-87.37041,35.07554,-278.4538,-1.202195,0.2897555,-0.4119573,34.08549,-23.76087,-14.17453,1007.798
30.143991470,-60.65847,56.58527,-261.1656,-1.31952,0.4345659,-0.3180317,38.27386,-14.26497,-16.50566,1007.798
30.176768303,-93.76885,72.00847,-234.7752,-1.137247,0.3505843,-0.3573277,40.63269,-4.000154,-16.23523,1007.798
30.209545612,-60.47211,90.03174,-208.2015,-1.170505,0.0197735,-0.4732398,40.63269,-4.000154,-16.23523,1007.798
30.244843960,-36.18289,95.88191,-170.0208,-1.138364,0.1987788,-0.4042697,41.2422,5.934158,-13.78124,1007.8
30.277621269,-33.57381,103.7412,-128.1138,-1.030788,0.07351235,-0.4775031,41.45536,14.42278,-10.49572,1007.796
30.310398102,8.233466,106.5186,-84.86272,-0.9548571,0.2108373,-0.4316794,41.45536,14.42278,-10.49572,1007.797
30.343175411,-3.817964,103.6821,-46.92646,-0.8682741,0.1411956,-0.4649938,41.35892,19.93009,-7.598051,1007.797
30.375952244,-11.45882,109.355,-23.77372,-0.8575469,0.1419844,-0.3644158,41.28913,24.04634,-4.243301,1007.797
30.411251545,-10.09216,89.91355,-0.4377126,-0.8514057,0.0161242,-0.3310267,41.28913,24.04634,-4.243301,1007.797
30.444028378,67.18608,61.07632,12.51316,-0.8307313,-0.3232962,-0.4191348,41.62053,26.29662,0.4459183,1007.799
30.476805687,74.57845,37.43925,10.55831,-0.8238874,-0.07147726,-0.07439416,43.44048,26.70849,4.229527,1007.799
30.509582520,143.5325,-14.08957,22.59285,-0.6961874,-0.687197,-0.1021694,43.44048,26.70849,4.229527,1007.799
30.544880867,153.0991,-54.27259,44.95143,-0.8704956,0.5545475,0.007085723,44.14305,28.17638,5.07589,1007.801
30.577658176,64.70125,-58.11362,75.92357,-0.7575095,-0.2474478,-0.2456512,45.96386,27.75578,1.287583,1007.801
30.643212318,95.88588,-63.37286,84.72038,-1.036834,0.2983608,0.2066688,48.16217,26.60459,-2.551892,1007.8
30.675989628,97.4389,-85.65081,85.57563,-0.8973223,-0.6375524,-0.07529224,52.271,23.59104,-8.975816,1007.804
30.711287975,106.757,-80.92339,132.4309,-0.7718826,0.5171424,-0.0975473,54.87301,20.17463,-14.0236,1007.802
30.744064808,-223.9119,-102.1968,111.4774,-2.145593,0.04137385,-0.4671087,54.87301,20.17463,-14.0236,1007.802
30.776842594,-22.95116,-14.56231,-25.85074,-1.202649,-2.940813,-0.1346364,57.89195,13.90175,-19.08913,1007.804
30.809619904,-21.77087,-45.94053,21.61542,-0.887779,0.2811977,0.08070568,60.48291,11.65422,-18.62197,1007.805
30.844918251,-17.23605,-19.64429,23.20374,-0.9114486,-0.3550024,0.2314242,60.48291,11.65422,-18.62197,1007.807
30.877695084,-72.21294,-8.121211,22.77611,-1.059261,-0.3543201,-0.1932687,61.28236,10.89968,-20.35198,1007.805
30.910472393,-14.25426,-3.925631,34.99392,-1.028096,-0.1733715,-0.1238179,61.30192,9.800426,-20.7699,1007.807
30.943249702,2.14563,-9.066693,43.05767,-0.9573749,-0.2946561,-0.07037164,61.30192,9.800426,-20.7699,1007.807
30.976026535,-11.58306,-12.31679,50.0829,-0.9836135,-0.1168638,-0.245793,60.93712,9.795355,-21.20454,1007.807
31.011324883,-2.63767,-23.60349,52.95409,-1.006584,-0.2001786,0.05764491,61.34717,7.232384,-21.97297,1007.809
31.044102192,-15.31031,-25.43537,59.97932,-0.9965894,-0.1507317,-0.1277776,61.34717,7.232384,-21.97297,1007.805
31.076879025,-24.19358,-34.65383,76.90099,-1.371011,0.7747658,0.3395992,62.09489,6.131384,-22.39183,1007.805
31.109656334,-18.04362,-24.01714,56.8027,-0.9788306,-0.2715024,-0.1468922,61.78054,3.181098,-24.95619,1007.805
31.144955158,15.25311,-32.11284,65.47734,-0.9935588,0.03094103,0.009610863,61.78054,3.181098,-24.95619,1007.807
31.177732468,15.68796,-29.51276,65.59952,-0.9883996,0.1478573,0.2173707,61.81474,1.292229,-25.3617,1007.807
31.210509300,18.23491,-19.88066,62.54507,-0.9505459,0.1539138,0.2023496,61.51547,-2.374195,-26.98221,1007.809
31.243286610,-0.8361671,-23.60349,67.79873,-1.020452,-0.1005002,-0.01949031,61.51547,-2.374195,-26.98221,1007.809
31.276063442,10.03497,-8.121211,74.15199,-0.9382383,0.7006284,0.2241204,61.57632,-5.654127,-26.93064,1007.809
31.311362267,-9.346714,-17.98969,68.04308,-0.9864306,-0.3502497,-0.1857457,60.46969,-8.280993,-28.19343,1007.807
31.344139099,-21.21178,-11.25312,79.77217,-1.165337,-0.3021061,-0.4015254,60.46969,-8.280993,-28.19343,1007.809
31.376916409,-24.31782,-7.412099,71.46407,-0.795626,0.7450157,0.1322565,59.81518,-12.294,-28.56457,1007.809
31.409693241,-11.21034,-17.39876,78.67257,-0.9836366,-0.2672264,-0.01643817,58.77496,-15.22386,-29.76049,1007.809
31.444991589,7.860742,-12.55316,85.88107,-0.8734631,0.3637637,-0.03979314,57.74326,-18.5738,-30.57678,1007.811
31.477768898,-5.433105,-24.72626,84.0484,-0.8623762,0.1822705,-0.09827204,57.74326,-18.5738,-30.57678,1007.811
31.510546684,-38.48136,-16.09872,89.66859,-0.8508107,0.4502099,0.03752208,55.60998,-21.50784,-32.26857,1007.811
31.543323517,-24.5663,-28.33091,101.0922,-0.8967612,0.3632061,-0.02192666,54.60418,-26.25479,-33.06289,1007.811
31.576100826,-13.57093,-26.20357,124.1839,-0.7486916,0.6311996,0.2377349,54.60418,-26.25479,-33.06289,1007.811
31.611399174,-31.58595,-23.13075,125.3446,-0.6974433,0.7079666,0.1494085,51.74398,-29.24697,-34.69063,1007.808
31.644176483,-73.39323,-19.28973,119.7244,-0.6854982,0.8227302,0.3196092,47.76344,-33.99868,-36.35134,1007.808
31.676953316,-105.6339,-40.79947,102.1918,-0.6893455,0.8328821,0.4534216,47.76344,-33.99868,-36.35134,1007.812
31.709730625,-72.83415,-71.70493,81.78811,-0.5612181,1.012778,0.1847281,44.16294,-36.59875,-40.53333,1007.81
31.742507458,-86.74921,-99.00575,73.41891,-0.6849368,0.7501686,0.1098435,39.35991,-36.66368,-46.12143,1007.81
31.777805805,-109.0506,-109.9379,74.02981,-0.5340462,0.8490502,0.3504989,39.35991,-36.66368,-46.12143,1007.812
31.843359947,-197.0136,-109.2879,78.12277,-0.0522912,0.8380301,0.4278348,25.00726,-32.77269,-57.29249,1007.812
31.876137257,-56.5585,-95.04655,88.81335,-0.0814821,0.4580823,0.4549516,25.00726,-32.77269,-57.29249,1007.812
31.911436081,48.42561,-92.9192,134.6301,-0.09628209,1.015491,0.7164887,16.07655,-26.20742,-62.97952,1007.813
31.944213390,129.3069,-80.45065,134.6912,-0.05733592,1.15982,0.623276,9.446771,-25.48053,-64.28778,1007.809
31.976990700,62.09218,-48.54061,133.3472,-0.04915991,0.9965282,0.6644185,9.446771,-25.48053,-64.28778,1007.809
32.009767532,87.25109,-30.75371,122.6567,-0.07685181,0.783424,0.5892316,-0.2434863,-35.63943,-58.08421,1007.809
32.042544842,36.24994,-13.67592,111.7217,-0.08576033,1.069638,0.6461034,-9.275705,-41.75646,-49.39611,1007.809
32.077843189,22.70761,-7.293914,101.1533,-0.0529194,0.7282221,0.606587,-9.275705,-41.75646,-49.39611,1007.811
32.110620022,89.48744,-0.2618842,103.9023,0.07027864,0.7740959,0.5417232,-16.53907,-42.01004,-42.54351,1007.811
32.143397331,102.2222,13.5658,99.50393,0.1589061,0.8702208,0.5307781,-19.58674,-37.5044,-37.88532,1007.811
32.176174164,45.38169,25.85708,87.10285,0.2006118,0.9030779,0.5830981,-19.58674,-37.5044,-37.88532,1007.811
32.211472511,0.9032146,28.51625,75.00723,0.2153371,0.8198023,0.4965436,-22.16276,-35.62431,-34.119,1007.811
32.244249821,-14.00577,28.51625,62.48397,0.23458,0.7045234,0.565025,-23.63779,-34.51477,-33.20192,1007.813
32.277027130,-4.563414,17.99775,50.87706,0.2575742,0.6467996,0.6411127,-23.63779,-34.51477,-33.20192,1007.808
32.309804440,-1.519496,7.124701,42.01915,0.2821785,0.7000703,0.567807,-23.69937,-31.24078,-33.6886,1007.808
32.342581749,-21.58451,-2.034665,29.61808,0.2613545,0.7017775,0.6983029,-23.73463,-29.43048,-34.58748,1007.808
32.377880097,0.4062485,-17.69423,19.04968,0.3504956,0.5690316,0.6222364,-23.73463,-29.43048,-34.58748,1007.808
32.410657406,-4.25281,-23.48531,8.114749,0.5286571,0.7729061,0.5199392,-24.49096,-27.91025,-34.61041,1007.81
32.443434239,-25.37387,-20.70795,5.243566,0.5456873,0.7483417,0.4689115,-25.23867,-26.80925,-34.19155,1007.81
32.476211548,2.269872,-18.58062,12.87969,0.5865612,0.6974955,0.3918733,-25.23867,-26.80925,-34.19155,1007.81
32.511509895,16.61977,-10.54401,23.20374,0.625972,0.849584,0.2933528,-25.60347,-26.81432,-34.62619,1007.81
32.544286728,1.648664,7.242886,31.02313,0.5701926,0.8152153,0.2506957,-26.70996,-26.08877,-35.07135,1007.81
32.577064037,-3.072515,26.5071,34.01649,0.5340458,0.7044836,0.2692401,-26.71526,-25.71245,-34.20686,1007.812
32.609841347,7.984983,45.35767,33.64996,0.5307192,0.6803316,0.302017,-26.71526,-25.71245,-34.20686,1007.812
32.642618179,-1.146771,66.69012,32.12273,0.5038593,0.7499411,0.328932,-27.47119,-24.2589,-34.66395,1007.812
32.677916527,-4.811896,80.39963,28.3963,0.4514236,0.5778673,0.5107892,-25.30097,-23.5412,-35.11335,1007.812
32.710693836,-10.83761,85.06795,26.38037,0.4345985,0.7172569,0.5447956,-25.30097,-23.5412,-35.11335,1007.814
32.743471622,-10.71337,85.00886,23.44809,0.3698664,0.5784822,0.5571923,-23.50305,-22.47009,-36.43822,1007.814
32.776248455,8.54407,80.34054,19.59948,0.314858,0.6622267,0.6895711,-20.9776,-21.40581,-38.13699,1007.814
32.811546802,-31.08899,22.37061,12.63534,-0.1364352,0.8583993,1.287234,-20.9776,-21.40581,-38.13699,1007.814
32.844324112,-6.116433,-3.925631,1.333869,0.209606,0.4636614,0.9774929,-18.01782,-20.68406,-38.15228,1007.809
32.877100944,-3.942206,-14.20776,-5.630279,0.2323899,0.650139,0.8014608,-17.30464,-19.96882,-39.03491,1007.809
32.909878254,12.64404,-28.56728,-8.562552,0.2859055,0.5920861,0.7234408,-17.30464,-19.96882,-39.03491,1007.809
32.942655087,-24.44206,-61.89555,-16.38195,0.1584522,0.7449624,1.00896,-17.68151,-19.23313,-38.61079,1007.811
32.977953911,-27.73446,-114.4289,-18.52006,0.1272223,0.8155463,1.041179,-17.66872,-19.96795,-39.03444,1007.811
33.010730743,-33.63594,-141.907,-19.74184,0.2613152,0.7228837,0.7218579,-17.66872,-19.96795,-39.03444,1007.813
33.043508053,-19.783,-150.7709,-21.69669,0.3584495,0.6896654,0.5907472,-20.64733,-19.5845,-38.16611,1007.813
33.076284885,-16.24212,-148.289,-18.64224,0.4354576,0.7387441,0.4119053,-25.38564,-19.19683,-37.29551,1007.813
33.111583233,-32.70412,-135.525,-17.48155,0.5586668,0.7559971,0.2233747,-25.38564,-19.19683,-37.29551,1007.813
33.144360542,-17.54666,-117.3836,-9.539976,0.619468,0.6803563,0.05871875,-30.16903,-19.52091,-35.17019,1007.813
33.177137375,-11.95579,-95.16473,-3.919786,0.6868826,0.708469,0.02819069,-34.53651,-19.49855,-34.29433,1007.813
33.209915161,-40.53134,-69.87306,-0.9264247,0.7044148,0.6877028,0.03251266,-34.53651,-19.49855,-34.29433,1007.813
33.242692471,-43.51314,-50.13611,2.250204,0.7323124,0.5883326,-0.003024508,-37.08963,-19.11017,-32.99143,1007.811
33.277990818,-17.54666,-35.36294,6.954058,0.7593903,0.6554781,0.09500786,-39.28482,-18.35314,-31.32179,1007.811
33.310768128,-30.46778,-26.43994,8.542373,0.7609667,0.6113985,0.1278032,-39.28482,-18.35314,-31.32179,1007.811
33.343544960,-17.9815,-19.76247,11.1692,0.7649641,0.5647032,0.1317149,-41.18729,-17.19458,-31.3375,1007.811
33.376322270,5.624394,-11.78496,13.49058,0.8033684,0.5495555,0.1484943,-41.56417,-16.45889,-30.91338,1007.811
33.411620617,16.61977,0.8608767,14.04038,0.8145521,0.533222,0.09746809,-41.93282,-16.07574,-29.61331,1007.811
33.444397450,29.47877,14.68856,13.91821,0.8407228,0.5498322,0.0733129,-41.93282,-16.07574,-29.61331,1007.809
33.477174759,38.98325,30.76177,15.01781,0.8533291,0.5587408,0.07856455,-42.66702,-15.70362,-29.18299,1007.808
33.509951592,56.37707,53.03971,18.56097,0.9042457,0.541427,-0.1612483,-42.66702,-15.70362,-29.18299,1007.808
33.542728901,102.2222,105.0413,23.387,1.004667,0.5009245,-0.5734711,-42.66702,-15.70362,-29.18299,1007.808
33.578027248,91.04046,238.4135,1.639314,0.9888108,0.5690534,-0.9128962,-41.19791,-16.44193,-29.60851,1007.808
33.610804558,131.419,370.7811,-2.820184,0.4270018,0.7678065,-0.9320804,-38.57277,-17.57715,-32.20536,1007.808
33.643581390,-13.26032,345.4894,46.72301,-9.549656,0.9268647,3.119378,-38.57277,-17.57715,-32.20536,1007.803
33.676359177,-295.2265,24.8525,5.671189,0.7496783,-0.3203555,2.446991,-28.29015,-19.54325,-36.47795,1007.803
33.711657524,211.5548,7.006516,12.69643,0.5004843,1.72662,0.1459946,-18.78872,-18.51353,-39.49105,1007.803
33.744434833,-21.02542,41.69392,-3.980875,0.3086831,0.1526537,0.468446,-18.78872,-18.51353,-39.49105,1007.803
33.777211666,-5.184621,19.94781,-20.16947,0.3202593,0.6566463,0.791134,-18.41185,-19.24922,-39.91518,1007.803
33.809988975,11.46375,-4.57565,-9.051265,0.4017388,0.8553311,0.5489977,-16.61102,-18.15433,-39.49961,1007.803
33.842765808,42.39989,-4.043816,5.732278,0.3922665,0.7498817,0.5246297,-16.61102,-18.15433,-39.49961,1007.803
33.878064156,8.792553,1.15634,-4.9583,0.2873007,0.6426622,0.8509221,-16.96761,-18.51195,-39.0583,1007.803
33.910841465,-39.22681,2.870028,-21.75778,0.1907342,0.6246344,0.895945,-16.94733,-19.60526,-39.04111,1007.803
33.943618774,2.642596,-15.80326,-27.56124,0.161673,0.5654174,0.7497692,-16.94733,-19.60526,-39.04111,1007.803
34.009172916,-49.6631,-4.516558,-62.19871,0.2234402,0.4947554,0.5995443,-16.94733,-19.60526,-39.04111,1007.805
34.044471264,-7.731573,-11.66677,-77.95967,0.2289736,0.4513395,0.793104,-16.94733,-19.60526,-39.04111,1007.803
34.077248096,-25.31175,-28.21272,-92.92648,0.1453883,0.7051677,0.905077,-17.31286,-19.61627,-39.91086,1007.803
34.110025406,-95.01127,-30.87189,-108.9318,0.06962108,0.6966645,0.8239194,-16.56649,-20.72831,-41.13779,1007.803
34.142802238,-92.52644,-28.56728,-118.5228,0.0590392,0.4168035,0.6534829,-16.56649,-20.72831,-41.13779,1007.803
34.178101540,-22.70268,-26.67631,-129.7021,0.1229492,0.7296338,0.8083397,-17.28549,-21.49111,-43.73605,1007.805
34.210878372,-107.1248,-18.46243,-143.8136,0.1143987,0.8648596,0.8639941,-16.57511,-20.79879,-46.29697,1007.805
34.243655682,-104.9506,0.0926719,-142.5308,0.2725606,0.6216362,0.3662575,-16.57511,-20.79879,-46.29697,1007.801
34.276432991,-51.34035,24.02521,-138.6822,0.2228402,0.7515724,0.6213013,-15.08685,-23.05938,-51.42365,1007.801
34.309209824,-60.65847,31.47088,-133.4896,0.122308,1.001465,0.8180401,-11.14606,-20.235,-57.4419,1007.801
34.344508171,-63.64027,48.78504,-115.2851,0.195695,0.510131,0.5326777,-11.14606,-20.235,-57.4419,1007.803
34.377285481,-6.861882,62.25817,-96.53073,-0.04286645,0.7937428,0.6314952,-6.049324,-17.31868,-60.97624,1007.803
34.410062313,-25.56024,62.49454,-74.29433,-0.1471351,0.9979345,0.9144754,-0.6945643,-11.90597,-64.05287,1007.803
34.442839623,55.38314,57.05802,-56.88396,-0.04579137,0.401085,0.6903387,-0.6945643,-11.90597,-64.05287,1007.803
34.478137970,51.09681,62.79001,-49.06457,-0.2282055,0.9490637,0.7077559,4.75821,-8.286722,-64.98752,1007.805
34.510914803,-30.90262,67.81289,-40.20666,-0.2848101,0.6962511,0.9104431,8.748411,-7.506707,-65.0051,1007.803
34.543692112,104.6449,28.39807,-15.77106,-0.3633859,0.4812725,1.047179,13.93435,-9.037557,-64.98788,1007.805
34.576469421,84.02081,24.32067,-14.85472,-0.1920519,0.8507934,0.6803806,13.93435,-9.037557,-64.98788,1007.806
34.609246254,44.2014,50.43964,-0.3766236,-0.1914268,0.9908642,0.6512862,17.22674,-9.756453,-63.67532,1007.806
34.644544601,-15.99364,82.52696,2.250204,-0.3115193,0.8636645,0.7138585,18.41499,-14.85015,-62.78844,1007.806
34.677321911,-84.01589,67.16287,-20.78036,-0.4452817,0.3937613,0.9579717,18.41499,-14.85015,-62.78844,1007.803
34.710099697,-7.358849,58.77171,-8.990175,-0.6170758,-0.2804613,0.8616788,23.24538,-16.66005,-61.02553,1007.805
34.742876530,268.0847,39.56658,-26.82817,-0.605767,0.813318,0.4811719,27.19156,-13.37188,-59.77694,1007.805
34.778174877,5.31379,65.09463,-35.38063,-0.4853919,1.051003,0.5479187,27.19156,-13.37188,-59.77694,1007.805
34.810952187,-5.619467,65.03553,-38.92379,-0.5344079,0.4368165,0.6028732,29.12624,-19.22722,-56.70303,1007.805
34.843729019,66.62699,57.88531,-37.70201,-0.5461441,0.6687806,0.5659679,33.21423,-20.31244,-55.38575,1007.807
34.876506329,51.71801,57.05802,-38.3129,-0.5833496,0.7738577,0.4527778,33.21423,-20.31244,-55.38575,1007.807
34.909283161,5.624394,58.35806,-44.05527,-0.6641387,0.6480689,0.4608608,36.5034,-20.63803,-51.96551,1007.809
34.944581985,32.02573,55.22614,-46.92646,-0.6660258,0.6236578,0.4546444,40.16133,-21.34591,-49.7832,1007.809
34.977358818,18.42127,59.95356,-53.95169,-0.6801909,0.6505191,0.4122776,40.16133,-21.34591,-49.7832,1007.809
35.010136127,35.31813,59.42172,-55.66219,-0.7557183,0.5386792,0.3187598,43.12537,-20.58935,-47.24998,1007.81
35.042912960,2.456234,62.9082,-63.60375,-0.7762223,0.5893206,0.3418375,45.66609,-19.81988,-43.84599,1007.81
35.078211308,11.77435,65.2719,-58.16683,-0.6865519,0.6699108,0.4069685,45.66609,-19.81988,-43.84599,1007.81
35.110988617,-22.01935,64.32642,-65.13097,-0.931204,0.1790765,0.1555737,49.28345,-18.34114,-41.69805,1007.812
35.143765450,-18.78907,65.74464,-63.11504,-0.8992308,0.6671221,0.4017008,52.9482,-16.0619,-38.75454,1007.812
35.176542759,-9.284593,53.51245,-59.08317,-0.8654269,0.4993318,0.1852608,52.9482,-16.0619,-38.75454,1007.812
35.209320068,-14.75122,43.11214,-59.63297,-0.8579837,0.6170411,0.08397974,55.46043,-13.84657,-36.2437,1007.814
35.244618416,-31.02687,34.95735,-57.18941,-0.9669967,0.1193293,0.1514164,57.58164,-10.17177,-33.69315,1007.816
35.277396202,7.798621,28.57534,-47.59843,-0.955801,0.2900664,0.03704974,57.58164,-10.17177,-33.69315,1007.816
35.310173035,13.88646,15.16131,-48.39259,-0.9023739,0.5064179,0.1280557,59.35637,-7.541408,-32.05828,1007.816
35.342950344,-4.25281,11.143,-51.63031,-0.9810101,0.3172652,0.2666781,60.40418,-4.969192,-30.35935,1007.816
35.378248692,6.183481,10.72935,-46.86536,-0.9866673,0.2148001,0.1065525,59.99423,-2.405372,-29.52877,1007.812
35.411025524,5.127428,11.73393,-46.49883,-0.9319519,0.2820542,0.1169113,59.99423,-2.405372,-29.52877,1007.812
35.443802834,-12.76336,22.37061,-44.17745,-0.9738153,0.1240022,0.1312083,61.08043,-2.03761,-29.1008,1007.812
35.476579666,-1.395254,31.52998,-39.10706,-0.9661129,0.1573724,0.158096,61.0359,0.536376,-27.46262,1007.813
35.509356976,4.692582,34.42552,-38.3129,-0.9664162,0.2844661,0.155017,61.0359,0.536376,-27.46262,1007.813
35.544655323,0.3441277,37.20288,-41.30627,-1.043037,0.2515301,0.2033845,62.15533,2.428425,-26.62349,1007.813
35.577432632,6.245602,37.32106,-47.90388,-1.057511,-0.1406315,-0.5632807,61.76702,3.909972,-24.96765,1007.813
35.610209465,0.2820069,33.06639,-45.88794,-1.01106,0.0395717,0.01108345,61.76702,3.909972,-24.96765,1007.809
35.642986774,-4.377051,35.72556,-39.53468,-0.6651698,0.1965667,0.1096683,62.82835,5.753314,-23.25726,1007.811
35.678285122,5.748635,31.94363,-40.45102,-0.9931206,0.05748222,0.0437465,62.79141,7.969656,-21.11609,1007.811
35.711061954,-39.35105,69.70386,-58.71664,-1.635085,-0.7436203,-0.9942276,62.79141,7.969656,-21.11609,1007.811
35.743839264,9.910728,26.27073,-35.25845,-1.016756,-0.03521475,-0.09083901,63.85191,9.806206,-19.90297,1007.811
35.776616096,-7.855814,39.21202,-35.86934,-1.183343,-0.2715614,-0.3298059,63.82101,11.65217,-18.19117,1007.811
35.809393406,17.86219,27.3344,-26.82817,-1.070204,0.01329027,0.08491168,63.82101,11.65217,-18.19117,1007.809
35.844692230,53.14679,10.90663,-15.5267,-1.025327,0.1310003,0.07885149,63.43084,13.18851,-16.9714,1007.809
35.877469540,52.02861,17.5841,-16.32086,-1.011939,-0.0610523,-0.3103124,63.77609,14.29283,-16.11884,1007.809
35.910246849,-1.830099,33.24366,-16.68739,-1.034525,-0.1515015,-0.2629491,63.77609,14.29283,-16.11884,1007.809
35.943023682,7.67438,25.56162,-12.89987,-1.055763,-0.2002151,-0.2387572,63.4014,15.04636,-14.38938,1007.805
35.978322029,2.331993,22.96154,-6.852059,-1.013289,-0.07555783,-0.1533635,64.12351,15.41499,-13.96094,1007.805
36.011099339,28.98181,24.49795,-4.836122,-1.043025,-0.07761963,-0.4141879,64.12351,15.41499,-13.96094,1007.811
36.043876171,14.0107,25.56162,-8.07384,-0.8706293,-0.03193516,-0.1451031,63.37715,16.52703,-12.73401,1007.811
36.076653481,-10.89973,34.01187,-19.86402,-1.037549,-0.02140866,0.1686435,64.11956,15.80236,-12.28838,1007.808
36.109430313,27.86363,37.20288,-11.37265,-1.074139,-0.3441634,-0.8161308,64.11956,15.80236,-12.28838,1007.812
36.144728661,35.62873,32.06181,-12.53334,-0.9113077,0.2002735,0.2382887,63.73811,16.92031,-10.56465,1007.816
36.177505970,14.69403,31.23451,-16.99284,-1.187481,0.1073158,0.01958294,64.45491,17.66528,-9.271718,1007.818
36.210283279,32.33633,32.71183,-19.86402,-0.9956483,-0.1547321,-0.2139376,64.45491,17.66528,-9.271718,1007.818
36.243060112,13.63797,35.25282,-29.21064,-1.005669,0.2227256,0.00838781,64.81431,18.04582,-8.034742,1007.814
36.275837421,31.9636,35.78465,-25.36203,-0.9729688,-0.08857217,-0.1823212,63.71677,18.42476,-7.168839,1007.814
36.311135769,48.9847,38.20745,-34.89192,-0.9524026,-0.4064532,-0.3946528,63.71677,18.42476,-7.168839,1007.815
36.343912602,34.3242,43.99854,-41.00082,-0.9221062,-0.2350119,-0.1504512,63.33386,19.53084,-6.315335,1007.815
36.376689911,40.41203,47.54409,-48.08715,-1.016053,-0.1798213,-0.3654803,62.5876,20.64372,-5.026251,1007.815
36.409466744,51.22105,47.07135,-57.12832,-0.9352659,-0.23438,-0.2539137,62.5876,20.64372,-5.026251,1007.815
36.444766045,23.39094,48.60776,-69.04067,-0.880235,-0.3086783,-0.2885903,61.11381,21.76345,-3.363273,1007.815
36.477542877,23.51518,40.86662,-72.2173,-0.8458618,-0.265032,-0.2868122,59.92138,24.03141,-2.091785,1007.815
36.510320187,27.49091,44.41218,-68.06325,-0.9313209,-0.2717935,-0.3159624,57.71268,25.51731,-0.4335978,1007.817
36.543097496,26.93182,45.00311,-52.91318,-0.9849939,-0.3485305,-0.2204098,57.71268,25.51731,-0.4335978,1007.817
36.575874329,30.78331,39.74386,-25.42312,-1.016568,-0.3085728,-0.03940311,54.74743,28.45168,0.3945446,1007.817
36.611172676,-74.82201,15.9886,20.02711,-1.150172,-0.2512167,0.1047545,51.81983,29.17565,-0.4833796,1007.819
36.643949985,16.9925,-68.92757,67.49328,-1.131394,-0.1403912,0.3307829,51.81983,29.17565,-0.4833796,1007.817
36.676726818,73.89513,-77.02328,106.407,-0.990873,-0.1620158,-0.4266998,49.60173,27.72328,-0.4575622,1007.819
