Time (s),Gyroscope X (deg/s),Gyroscope Y (deg/s),Gyroscope Z (deg/s),Accelerometer X (g),Accelerometer Y (g),Accelerometer Z (g),Magnetometer X (uT),Magnetometer Y (uT),Magnetometer Z (uT),Barometer (hPa)
0.004130840,-0.2021493,-0.1674697,-0.2190574,-0.9984934,0.1391438,-0.09750939,36.36678,-6.515994,-28.04971,1007.409
0.036414146,0.04573372,0.008861241,-0.2190436,-0.9989775,0.1415833,-0.09120978,36.36678,-6.515994,-28.04971,1007.409
0.071180344,-0.01605182,0.1263015,-0.1582309,-0.9999428,0.1396334,-0.09460285,35.66321,-5.4032,-27.18108,1007.409
0.103463650,-0.01583088,-0.1085828,0.1462576,-0.9936434,0.1343314,-0.0936797,35.98898,-5.789413,-28.5514,1007.409
0.135746956,-0.0777012,0.06747103,0.267734,-0.9975199,0.1362413,-0.09801143,35.98898,-5.789413,-28.5514,1007.409
0.170513153,-0.01587243,0.1263381,0.02384685,-1.000427,0.1396303,-0.09508527,36.01466,-5.777339,-27.6177,1007.409
0.202796459,0.04608836,-0.04943823,-0.03701915,-0.9960763,0.1411028,-0.09266908,36.02599,-5.407189,-27.18659,1007.409
0.237563133,0.04629417,0.06809232,-0.09798845,-0.9980067,0.1396471,-0.09218976,36.37704,-6.511164,-27.67623,1007.409
0.269845963,0.1081956,0.1268304,-0.03720271,-0.9975278,0.1415842,-0.09217978,36.37704,-6.511164,-27.67623,1007.409
0.302129269,0.04595584,-0.04927947,0.08456284,-0.9975297,0.141576,-0.09459701,36.3644,-6.152283,-28.11658,1007.408
0.336895943,-0.0780766,0.009418581,0.02305998,-1.000912,0.1405985,-0.09459528,36.75286,-6.144197,-27.18839,1007.406
0.369178772,0.108046,0.009251512,-0.03797488,-0.9941421,0.1411083,-0.09267321,36.75286,-6.144197,-27.18839,1007.406
0.403945446,-0.07790238,0.126543,0.2056872,-0.9975266,0.1411003,-0.09218252,36.01295,-5.778144,-27.67995,1007.41
0.436228752,-0.1396752,0.06769277,-0.09903285,-1.000907,0.1381755,-0.09557595,36.01361,-6.14266,-27.67533,1007.41
0.470994949,-0.01573643,0.009079603,0.02320682,-0.9994735,0.1454403,-0.09505429,36.01361,-6.14266,-27.67533,1007.41
0.503278256,-0.07774315,-0.04936536,0.08422483,-0.9980127,0.1430428,-0.08975325,35.67651,-6.126597,-26.73612,1007.406
0.535561562,-0.01576334,-0.2840488,0.08395789,-0.9951036,0.138197,-0.09413801,35.65083,-6.138671,-27.66982,1007.406
0.570328236,-0.1395055,0.2446764,0.1445683,-0.9951017,0.1362499,-0.09753316,35.65083,-6.138671,-27.66982,1007.406
0.602611065,-0.01535891,0.00960438,-0.09924871,-0.9980203,0.142034,-0.1018449,36.01229,-5.413629,-27.68456,1007.408
0.637377739,-0.07730399,0.1858729,-0.2212488,-0.998987,0.1430105,-0.09845322,36.36611,-6.151478,-28.05433,1007.408
0.669661045,-0.07728028,0.009706709,0.02251756,-0.9970328,0.1357686,-0.09511454,36.36611,-6.151478,-28.05433,1007.412
0.704427242,0.1086106,0.1861405,0.02241876,-1.000913,0.1405935,-0.09604562,36.01361,-6.14266,-27.67533,1007.412
0.736710548,-0.01552682,0.01000967,-0.1602269,-0.9970339,0.1367414,-0.09365869,36.37572,-5.782133,-27.68546,1007.41
0.768993854,-0.07765093,0.2450746,-0.03828501,-0.9970416,0.1396417,-0.09460906,36.37572,-5.782133,-27.68546,1007.412
0.803760052,0.1084747,0.1865665,0.08361153,-1.002841,0.1401254,-0.08975943,36.37704,-6.511164,-27.67623,1007.412
0.836043358,-0.0155648,0.01039733,-0.09928386,-0.99994,0.139156,-0.09267182,36.36374,-5.787767,-28.12119,1007.41
0.870810032,0.04643802,0.1276836,0.02259381,-1.001375,0.1333529,-0.09028453,36.36374,-5.787767,-28.12119,1007.41
0.903092861,0.04619035,0.0107149,0.08357621,-0.9989731,0.1381811,-0.09558009,36.37704,-6.511164,-27.67623,1007.41
0.937859535,-0.07794026,-0.1067378,0.02261259,-0.9999436,0.1396301,-0.09556975,36.39008,-6.140209,-27.18287,1007.41
0.970142841,0.1076377,-0.400203,0.02265408,-0.9965435,0.1338392,-0.09367625,36.39008,-6.140209,-27.18287,1007.41
1.002425671,0.04545847,-0.04771747,0.02267635,-0.9960722,0.1386766,-0.09461664,36.01295,-5.778144,-27.67995,1007.41
1.037192345,-0.0787272,-0.04759999,0.08357482,-0.9980183,0.1420422,-0.09942769,36.37771,-6.87568,-27.67162,1007.41
1.069475651,0.04523,0.1870738,0.08352068,-0.9951128,0.1420685,-0.09411598,36.37771,-6.87568,-27.67162,1007.41
1.104241848,0.04534221,0.1280836,-0.160131,-0.9989831,0.1410715,-0.09943113,35.66387,-5.767716,-27.17646,1007.412
1.136525154,-0.01666088,-0.1654553,-0.03813209,-1.002362,0.1405959,-0.09410873,36.00163,-6.148294,-28.11106,1007.412
1.168808460,-0.01643732,-0.04805626,-0.09880252,-0.9985052,0.1444702,-0.0965122,36.00163,-6.148294,-28.11106,1007.412
1.203574657,-0.07806674,-0.04778974,-0.1595577,-1.000423,0.1381785,-0.09509353,35.65083,-6.138671,-27.66982,1007.412
1.235857964,0.1698156,-0.04770533,-0.2809798,-0.9989803,0.1415718,-0.0945939,36.75352,-6.508713,-27.18377,1007.412
1.270624638,0.2316269,0.1284465,-0.09787999,-1.001395,0.1420669,-0.08926807,36.02665,-5.771705,-27.18197,1007.41
1.302907944,-0.07854432,-0.1064832,0.1458612,-1.002848,0.1391215,-0.1004008,36.02665,-5.771705,-27.18197,1007.41
1.337674141,0.1076629,-0.04762609,0.08437556,-0.9984846,0.137226,-0.09220249,36.37639,-6.146648,-27.68085,1007.409
1.369957447,0.2315989,0.01138131,0.02332022,-0.9989807,0.1420591,-0.09362426,35.65083,-6.138671,-27.66982,1007.409
1.402240753,-0.0165012,-0.106126,-0.09810215,-1.002359,0.1381648,-0.09750663,35.65083,-6.138671,-27.66982,1007.407
1.437006950,-0.140648,0.07026411,-0.1586123,-0.9999409,0.1396416,-0.09218562,36.01427,-6.507175,-27.67072,1007.407
1.469290257,0.04532172,0.4225256,-0.1583481,-0.9999357,0.1347761,-0.09994832,36.3644,-6.152283,-28.11658,1007.407
1.504056931,-0.01663694,0.01177638,0.1463625,-0.9980074,0.1401327,-0.09170356,36.3644,-6.152283,-28.11658,1007.407
1.536339760,-0.07858157,0.01152557,0.1460335,-0.9980085,0.1411054,-0.09024771,36.01361,-6.14266,-27.67533,1007.407
1.571106434,0.0453414,-0.04728289,0.145851,-1.000908,0.1391499,-0.09363665,35.6515,-6.503187,-27.6652,1007.407
1.603389740,-0.01658365,-0.2231983,-0.09778014,-0.9999477,0.1420563,-0.09362219,35.6515,-6.503187,-27.6652,1007.405
1.635672569,-0.01649672,0.01178603,-0.03659394,-0.9989731,0.1386699,-0.09412698,36.37572,-5.782133,-27.68546,1007.409
1.670439243,-0.01677426,-0.1641532,-0.03656725,-0.9946176,0.1386971,-0.08978528,36.37704,-6.511164,-27.67623,1007.409
1.702722549,0.04513175,0.1881987,0.08538671,-0.9970453,0.1425583,-0.09072496,36.37704,-6.511164,-27.67623,1007.409
1.737488747,-0.01719539,-0.1054047,0.08526029,-0.9970213,0.1323958,-0.0907828,36.01361,-6.14266,-27.67533,1007.409
1.769772053,-0.01735866,-0.1055276,0.08516105,-1.000437,0.1430064,-0.09845012,36.01361,-6.14266,-27.67533,1007.409
1.802055359,0.04441378,-0.04678147,-0.03672346,-0.9989651,0.1352824,-0.09414627,36.01361,-6.14266,-27.67533,1007.412
1.836821556,-0.01779359,0.01208977,0.1461454,-0.9960691,0.1382008,-0.09220216,36.39075,-6.504725,-27.17826,1007.412
1.869104862,-0.01762406,-0.0465332,0.024318,-0.9999534,0.1444759,-0.09360842,36.75286,-6.144197,-27.18839,1007.412
1.903871536,0.04460169,0.01215296,-0.09774655,-0.9970493,0.1425419,-0.09555943,36.75286,-6.144197,-27.18839,1007.412
1.936154842,-0.079411,0.1883592,0.0242658,-0.9989689,0.1367326,-0.09462145,36.39008,-6.140209,-27.18287,1007.412
1.970921040,0.1066838,0.07101014,0.02429315,-0.9955936,0.1415897,-0.09218391,36.37572,-5.782133,-27.68546,1007.412
2.003204346,0.1686891,0.1884207,-0.09749606,-1.001399,0.14156,-0.09603908,35.30176,-6.128243,-27.16633,1007.413
2.035487652,-0.01735584,-0.0463483,0.08562787,-0.9989757,0.1406138,-0.09169874,35.30176,-6.128243,-27.16633,1007.413
2.070253849,0.1064732,-0.1049763,-0.03594151,-0.99462,0.1381984,-0.09413905,36.37639,-6.146648,-27.68085,1007.413
2.102537155,-0.01771357,0.0125442,-0.09671658,-0.9989676,0.138204,-0.08881182,36.37639,-6.146648,-27.68085,1007.413
2.137303829,0.04410461,0.01263667,0.02541736,-0.9965577,0.1391558,-0.09557975,36.37639,-6.146648,-27.68085,1007.416
2.169586659,0.1058012,0.07150876,-0.09628107,-0.9989672,0.1377168,-0.08978148,36.00163,-6.148294,-28.11106,1007.414
2.204353333,-0.2041039,0.07132373,-0.03508994,-0.9946286,0.1440269,-0.08782119,36.73982,-6.515152,-27.68175,1007.414
2.236636639,0.04405919,-0.0461516,0.08672428,-1.000415,0.134791,-0.09511282,36.73982,-6.515152,-27.68175,1007.414
2.268919468,-0.01772468,0.1298689,-0.1570287,-0.9984899,0.1396473,-0.09170528,36.37572,-5.782133,-27.68546,1007.412
2.303686142,0.04434596,-0.1050521,-0.2179298,-0.9989774,0.1391407,-0.09799181,36.01361,-6.14266,-27.67533,1007.412
2.335969448,-0.01786697,0.07113472,0.02637742,-1.000906,0.1386693,-0.0926725,36.01361,-6.14266,-27.67533,1007.412
2.370735645,0.2293872,-0.04639906,-0.2165453,-0.9936596,0.1396399,-0.09800043,35.65018,-5.774156,-27.67443,1007.414
2.403018952,-0.08133862,0.3047362,-0.4586799,-1.0014,0.1435138,-0.09071015,36.00229,-6.51281,-28.10644,1007.414
2.437785626,0.4145933,0.3031409,-0.5170152,-0.9975223,0.1362315,-0.1009121,36.00229,-6.51281,-28.10644,1007.412
2.470068455,0.04174206,0.4194762,-0.636808,-0.998001,0.1357609,-0.09656281,36.00163,-6.148294,-28.11106,1007.412
2.502352715,0.1649164,0.4768192,-0.3304073,-0.9950958,0.1362744,-0.09028146,36.00163,-6.148294,-28.11106,1007.41
2.537118912,-0.08288562,-0.05236495,-0.08597776,-1.001866,0.1347869,-0.09510971,36.00163,-6.148294,-28.11106,1007.414
2.569402218,-0.08258705,-0.4038156,0.1576197,-1.000906,0.1357395,-0.1004242,35.64951,-5.40964,-27.67905,1007.414
2.604168892,0.1656893,-0.2849137,-0.3299096,-0.9999335,0.1377173,-0.08881251,36.02731,-6.13622,-27.17736,1007.414
2.636451721,0.1647808,-0.1667334,-0.3287747,-0.9994732,0.144953,-0.09602394,36.02731,-6.13622,-27.17736,1007.416
2.668735027,0.3498552,0.06835241,-0.6920081,-1.000416,0.1367415,-0.09075077,36.37771,-6.87568,-27.67162,1007.418
2.703501701,0.2874341,0.4204714,-0.324607,-0.9999301,0.1308899,-0.1043214,36.02665,-5.771705,-27.18197,1007.418
2.735784531,0.03918399,-0.108076,0.2843641,-0.995593,0.1396376,-0.0970294,36.02665,-5.771705,-27.18197,1007.418
2.770551205,-0.1456069,0.06804661,0.4656702,-1.001394,0.1386515,-0.09750594,35.62858,-6.149136,-28.47902,1007.418
2.802834511,-0.02091047,-0.1075659,0.2816572,-1.002848,0.1400992,-0.09749458,35.66454,-6.132232,-27.17184,1007.416
2.837600708,0.2270171,0.24457,-0.1456476,-0.9951059,0.1396537,-0.0926794,36.39075,-6.504725,-27.17826,1007.42
2.869884014,0.2878903,0.2437755,-0.3885488,-1.003322,0.1357375,-0.09896868,36.39075,-6.504725,-27.17826,1007.421
2.902167320,0.1631774,0.06729953,-0.2046971,-1.001385,0.1367306,-0.09316594,36.01427,-6.507175,-27.67072,1007.421
2.936933517,0.03884461,0.06709626,0.03919973,-0.9989662,0.1357663,-0.09414351,36.00229,-6.51281,-28.10644,1007.421
2.969216824,-0.146671,-0.1091198,0.0997511,-0.9999387,0.1367183,-0.09800351,36.00229,-6.51281,-28.10644,1007.421
3.003983498,-0.0223712,-0.1094873,0.03831505,-0.999446,0.133826,-0.09512039,36.01427,-6.507175,-27.67072,1007.417
3.036266327,0.1639521,-0.1095196,0.2204266,-0.9956005,0.1440044,-0.09362049,35.63885,-6.144306,-28.10555,1007.417
3.071033001,-0.1453723,0.008053654,0.2195928,-0.9994531,0.1381944,-0.09122802,35.63885,-6.144306,-28.10555,1007.417
3.103316307,-0.08278655,-0.05070049,0.1577759,-0.9999452,0.1386459,-0.1004097,35.65216,-6.867703,-27.66058,1007.417
3.135599613,-0.02051407,-0.28501,0.157114,-1.002825,0.1299301,-0.0994862,36.01427,-6.507175,-27.67072,1007.421
3.170365810,-0.08214521,-0.04900357,0.09647736,-0.9917237,0.1406296,-0.09316459,36.01427,-6.507175,-27.67072,1007.421
3.202649117,0.2275718,0.5370083,-0.02537698,-0.9975224,0.1391629,-0.09267699,35.66454,-6.132232,-27.17184,1007.421
3.237415791,0.1644827,-0.2270664,-0.5731007,-1.006699,0.1308754,-0.1028565,36.02797,-6.500736,-27.17274,1007.421
3.269698620,0.2878565,-0.2839781,-0.3889557,-0.9912061,0.1314872,-0.07823109,36.02797,-6.500736,-27.17274,1007.421
3.304465294,0.1638702,0.7137047,0.220209,-0.9960693,0.1391769,-0.08977942,36.74049,-6.879668,-27.67713,1007.421
3.336748600,-0.5174772,0.1245415,-0.0845699,-0.9994392,0.1255468,-0.1106375,36.3644,-6.152283,-28.11658,1007.42
3.369031429,-0.3312158,-0.6958707,-0.02359028,-1.002337,0.1294607,-0.09562242,36.3644,-6.152283,-28.11658,1007.418
3.403798103,0.1656765,-0.2237839,0.0370526,-0.9946236,0.1425816,-0.08589566,35.99097,-6.88296,-28.53755,1007.418
3.436081410,0.5355991,0.4796458,-0.3888804,-1.000437,0.1434969,-0.09651357,35.66454,-6.132232,-27.17184,1007.418
3.470847607,-0.08501071,-0.108566,-0.204772,-1.004285,0.131842,-0.1052734,35.66454,-6.132232,-27.17184,1007.416
3.503130913,0.163036,-0.2249399,-0.08253372,-0.9984788,0.1348064,-0.09221626,36.01427,-6.507175,-27.67072,1007.418
3.535414219,0.2242864,0.4204736,-0.1429276,-0.9965616,0.1440262,-0.08636671,36.37572,-5.782133,-27.68546,1007.42
3.570180416,-0.02412585,0.360091,-0.0199795,-1.002342,0.1299299,-0.09997068,36.37572,-5.782133,-27.68546,1007.42
3.602463722,-0.2714555,-0.1687441,0.2840979,-1.001383,0.133809,-0.09850039,36.36374,-5.787767,-28.12119,1007.42
3.637230396,-0.4561462,-0.4020778,0.03889712,-0.9975302,0.1410855,-0.09653354,36.37572,-5.782133,-27.68546,1007.417
3.669513226,0.04041374,0.127057,-0.1439496,-0.996555,0.1381896,-0.09510181,36.37572,-5.782133,-27.68546,1007.417
3.704279900,0.1017044,0.3026075,-0.4473712,-0.9999402,0.1376895,-0.09703111,36.01494,-6.871691,-27.6661,1007.417
3.736563206,0.1011928,0.1257816,-0.08063,-1.002829,0.1328484,-0.09511866,36.74154,-6.514348,-27.6195,1007.417
3.768846512,-0.2082522,-0.1675455,0.4671325,-0.9999368,0.1357488,-0.09849247,36.74154,-6.514348,-27.6195,1007.417
3.803612709,-0.2686316,-0.2252552,0.9516327,-1.001882,0.1396082,-0.1004001,36.37771,-6.87568,-27.67162,1007.422
3.835896015,-0.7004384,-0.2243372,1.190617,-0.998476,0.1299311,-0.1028796,36.73917,-6.150637,-27.68636,1007.424
3.870662212,-0.697228,-0.1059655,1.671197,-0.9980034,0.1406379,-0.08541599,35.9903,-6.518445,-28.54217,1007.426
3.902945518,0.1102798,0.01192723,0.6300946,-1.005297,0.1526662,-0.09983504,35.9903,-6.518445,-28.54217,1007.426
3.937712193,0.4186728,-0.2211135,-1.075645,-0.9917797,0.1653198,-0.09012345,36.40273,-6.49909,-26.74253,1007.426
3.969995499,0.8504899,0.3657285,-2.165153,-0.9989623,0.1357827,-0.08930904,35.64122,-6.508017,-28.03868,1007.424
4.002278328,0.9699404,0.0119664,-1.608607,-1.004261,0.1221684,-0.1038782,35.64122,-6.508017,-28.03868,1007.424
4.037045002,-0.270835,-0.5155453,0.3445212,-0.9984504,0.1241731,-0.08840927,35.66454,-6.132232,-27.17184,1007.426
4.069328308,-0.8876982,0.3658271,1.254551,-0.9960634,0.1357812,-0.09221593,36.7385,-5.786121,-27.69098,1007.422
4.104095459,-0.6367235,0.2477177,1.066184,-0.9994762,0.1459176,-0.09698533,36.7385,-5.786121,-27.69098,1007.422
4.136378288,0.1082919,-0.2221225,0.5752686,-1.001885,0.1415505,-0.09845528,36.0256,-6.137025,-27.2396,1007.425
4.171144962,-0.263248,-0.1044234,0.02479379,-1.001411,0.1468849,-0.09552534,36.01295,-5.778144,-27.67995,1007.423
4.203428268,0.1087532,0.07181607,-0.340091,-1.002364,0.140591,-0.09555908,36.01295,-5.778144,-27.67995,1007.421
4.235711098,0.3557576,-0.1043641,-0.2773818,-0.9994414,0.1323791,-0.09367831,36.37639,-6.146648,-27.68085,1007.419
4.270477772,0.04516388,-0.1041453,0.2105198,-0.9989728,0.1376939,-0.09654972,36.02665,-5.771705,-27.18197,1007.419
4.302761078,-0.2642859,-0.04534923,0.2095658,-0.9970475,0.1401059,-0.1004077,36.02665,-5.771705,-27.18197,1007.419
4.337527275,-0.077244,-0.1036876,-0.09596183,-1.000922,0.1454443,-0.09263395,36.01598,-6.506371,-27.60847,1007.416
4.369810581,0.2323751,-0.1033938,-0.3392758,-0.9985021,0.1435056,-0.09555083,36.37704,-6.511164,-27.67623,1007.416
4.402093887,0.3555304,0.1310101,-0.3379691,-0.9994674,0.1425334,-0.09603771,36.37704,-6.511164,-27.67623,1007.414
4.436860561,-0.2029183,0.1306006,-0.09272306,-1.003317,0.1338051,-0.09801279,36.01361,-6.14266,-27.67533,1007.414
4.469143391,-0.2643367,-0.2215223,0.2728401,-0.9989697,0.1362404,-0.09704144,36.37572,-5.782133,-27.68546,1007.413
4.503910065,-0.07756644,-0.1038436,0.3930844,-0.9970525,0.1415512,-0.1023332,36.37572,-5.782133,-27.68546,1007.413
4.536193371,-0.1390295,-0.04515937,0.2699449,-0.9955841,0.1367422,-0.09462869,36.37639,-6.146648,-27.68085,1007.413
4.570959568,-0.07685384,0.1305395,0.08620548,-0.9985042,0.1469177,-0.08827984,36.39141,-6.86924,-27.17364,1007.411
4.603242874,-0.2006629,0.1303203,0.2070473,-1.000419,0.13673,-0.0941349,36.39141,-6.86924,-27.17364,1007.411
4.635526180,-0.1378714,0.01306476,0.2666853,-0.9960626,0.1348068,-0.09415522,36.02731,-6.13622,-27.17736,1007.409
4.670292378,-0.1991429,-0.1042326,0.3259968,-1.001399,0.1410712,-0.09749217,36.73917,-6.150637,-27.68636,1007.409
4.702575684,0.1730247,-0.04530735,-0.04026869,-1.000433,0.1430244,-0.09313221,36.3644,-6.152283,-28.11658,1007.407
4.737342358,0.1722846,-0.04472198,-0.5876592,-0.9970545,0.1454521,-0.09360912,36.3644,-6.152283,-28.11658,1007.411
4.769625187,0.2330117,-0.04435577,-0.8285676,-0.9994567,0.1381797,-0.09557905,36.01361,-6.14266,-27.67533,1007.41
4.804391861,0.3553726,-0.04436359,-0.6425101,-0.9975206,0.1377046,-0.09461904,36.75352,-6.508713,-27.18377,1007.41
4.836675167,0.2921255,-0.04421966,-0.5791795,-0.9999195,0.1304453,-0.09272139,36.75352,-6.508713,-27.18377,1007.408
4.868957996,0.2910512,0.07318179,-0.5158781,-1.003304,0.1319021,-0.08835487,36.38969,-6.870045,-27.23589,1007.408
4.903724670,0.1042025,0.07306296,-0.2097133,-0.9946158,0.1372388,-0.09172732,36.36506,-6.516798,-28.11196,1007.406
4.936007977,0.04190145,-0.04447511,-0.148453,-1.002356,0.1376907,-0.0946087,36.36506,-6.516798,-28.11196,1007.406
4.970774174,0.1035357,-0.04451903,-0.3303939,-0.9984792,0.1343159,-0.09415281,36.76379,-6.503883,-26.8103,1007.406
5.003057480,-1.011867,0.8939485,-1.181031,-0.9984863,0.1337976,-0.1043079,36.72718,-6.156271,-28.12209,1007.406
5.037824154,0.3516607,0.07076389,-0.5070478,-0.9960707,0.1367278,-0.09849524,36.72718,-6.156271,-28.12209,1007.406
5.070106983,0.04103927,0.1876416,-0.5047137,-1.001861,0.13334,-0.09366763,36.00163,-6.148294,-28.11106,1007.405
5.102391243,0.1648974,0.1286708,-0.259429,-1.001373,0.1289631,-0.1004617,35.65083,-6.138671,-27.66982,1007.405
5.137157440,0.1024914,-0.04719225,-0.2585958,-0.9999478,0.1410786,-0.09652837,35.65083,-6.138671,-27.66982,1007.405
5.169440746,0.03992514,0.1876638,-0.6833999,-0.9975299,0.1401095,-0.0989563,35.65083,-6.138671,-27.66982,1007.405
5.204207420,0.3489377,0.1282294,-1.045127,-0.9951142,0.1435284,-0.09169048,35.6515,-6.503187,-27.6652,1007.403
5.236490250,0.2851527,0.1277987,-1.101539,-0.998004,0.138192,-0.09316492,35.6515,-6.503187,-27.6652,1007.409
5.268773556,0.4081512,-0.1071651,-0.6103839,-1.001842,0.1256021,-0.09226135,36.40207,-6.134574,-26.74715,1007.403
5.303540230,-0.08789414,-0.1651767,0.1834723,-1.000867,0.1227046,-0.09131305,36.02626,-6.501541,-27.23499,1007.403
5.335823059,-0.3350605,-0.04696913,0.9734046,-1.000405,0.1304373,-0.09465415,36.02626,-6.501541,-27.23499,1007.407
5.370589733,-0.7047515,-0.398151,0.7862527,-1.002838,0.1337884,-0.1033317,36.37639,-6.146648,-27.68085,1007.405
5.402873039,0.2260147,-1.568152,1.39167,-1.007197,0.1391189,-0.09749078,35.66519,-6.496747,-27.16723,1007.405
5.437639237,1.091779,-1.736677,0.4129766,-1.002342,0.1343262,-0.08785972,35.66519,-6.496747,-27.16723,1007.405
5.469922543,0.4067459,-0.2064578,-0.4408439,-0.9970582,0.1493464,-0.08681882,36.02731,-6.13622,-27.17736,1007.405
5.502205849,0.9634139,0.7906173,-1.108802,-1.008154,0.1357368,-0.09509076,36.37572,-5.782133,-27.68546,1007.407
5.536972046,2.874886,1.607033,-1.590447,-1.01007,0.1255442,-0.1023962,35.30176,-6.128243,-27.16633,1007.409
5.569255352,3.114993,0.3123603,-1.09952,-0.9955691,0.1280086,-0.1014465,35.30176,-6.128243,-27.16633,1007.409
5.604022026,0.07828372,0.07754926,0.05835319,-1.002841,0.1323072,-0.1120421,35.65018,-5.774156,-27.67443,1007.409
5.636305332,-0.4175056,-0.3333702,-0.002587515,-0.9985016,0.1405759,-0.1033025,36.38943,-5.775693,-27.18749,1007.409
5.671071530,-0.2315846,-0.6268841,-0.3072911,-0.9946446,0.1508019,-0.08778264,36.38943,-5.775693,-27.18749,1007.411
5.703354835,0.202231,-0.03985629,-1.282342,-0.9955878,0.1406366,-0.0878384,35.63885,-6.144306,-28.10555,1007.411
5.735638142,0.5120994,0.1949548,-0.9166981,-0.994103,0.1275878,-0.08404828,36.37704,-6.511164,-27.67623,1007.416
5.770404339,-0.1696109,0.136252,-0.1244689,-1.000406,0.1309196,-0.09513485,36.37704,-6.511164,-27.67623,1007.415
5.802687645,-0.7893475,-0.920398,0.7896417,-1.000889,0.1304343,-0.09513657,37.11459,-6.513506,-27.25154,1007.415
5.837454319,-1.718953,-1.859643,1.459989,-1.005706,0.1207223,-0.1009827,36.39008,-6.140209,-27.18287,1007.415
5.869737148,-1.037242,-1.683534,2.556922,-1.002323,0.1265882,-0.08645345,36.39008,-6.140209,-27.18287,1007.415
5.904503822,-1.595005,-1.272615,2.3741,-1.000907,0.1386644,-0.09412285,37.10194,-6.154625,-27.69188,1007.413
5.936787128,-0.8513212,-0.09855907,1.642812,-0.995586,0.1430874,-0.07863913,36.73917,-6.150637,-27.68636,1007.415
5.969070911,-0.2935582,3.130094,0.6677603,-1.015356,0.1320215,-0.04288498,36.73917,-6.150637,-27.68636,1007.415
6.003837109,-0.8513212,12.05292,-0.8557574,-1.026484,0.1432004,-0.01910893,36.73917,-6.150637,-27.68636,1007.411
6.036120415,-3.826057,15.57508,-1.09952,-1.072282,0.09135911,0.001482871,35.65083,-6.138671,-27.66982,1007.409
6.070887089,-0.0456636,3.48231,-4.146555,-1.159489,0.1387866,-0.0667078,35.65083,-6.138671,-27.66982,1007.411
6.103169918,-9.341713,-21.34896,-11.45944,-1.124359,0.09523287,0.1891914,36.40036,-6.135379,-26.80939,1007.417
6.135453224,4.106572,-32.03287,-5.974777,-1.023273,0.07950138,0.1738974,36.02494,-5.77251,-27.24422,1007.417
6.170219898,5.346045,-45.12359,-2.013631,-1.01766,0.1534951,0.155452,36.02494,-5.77251,-27.24422,1007.422
6.202503204,-8.78395,-45.12359,2.008456,-0.9325323,0.1406445,0.146977,35.96501,-5.800682,-29.42286,1007.429
6.237269402,-24.77316,-54.39863,-1.343283,-1.027348,0.116747,0.02956983,34.82874,-5.811255,-31.14922,1007.438
6.269552708,-12.62632,-61.32555,-4.816904,-0.9677078,0.04869619,0.03292187,34.82874,-5.811255,-31.14922,1007.446
6.304319382,-3.70211,-63.84977,-8.838989,-1.032622,0.09835067,0.03189379,33.65783,-6.567763,-34.17352,1007.455
6.336602211,-1.780926,-63.73237,-9.265574,-1.023533,0.1355952,0.01903313,31.75806,-5.493715,-37.20988,1007.455
6.368885517,-10.82908,-61.91258,-8.046761,-0.960695,0.1664672,0.07950306,31.75806,-5.493715,-37.20988,1007.462
6.403652191,-22.48013,-56.27712,-4.024674,-1.022229,0.2141563,0.066854,30.21003,-5.888158,-40.73127,1007.467
6.435935021,-34.00723,-49.81981,0.302116,-0.9961881,0.2383733,0.0509821,26.87246,-5.521554,-43.30061,1007.47
6.470701695,-31.9621,-42.54067,6.152423,-0.964218,0.2010694,0.01154255,25.71089,-4.814364,-45.90765,1007.474
6.502985001,-36.11433,-31.68065,6.091483,-0.91967,0.1750644,0.01129868,25.71089,-4.814364,-45.90765,1007.474
6.537751198,-28.18171,-17.23977,6.457127,-0.9336283,0.1581884,0.041206,23.83576,-4.093563,-48.06794,1007.477
6.570034504,-20.12513,-6.790676,6.761831,-0.8784557,0.132647,0.02595527,22.7191,-2.635608,-49.00356,1007.479
6.602317810,-21.17868,7.415396,5.116432,-0.8508712,0.1137609,-0.001284137,22.7191,-2.635608,-49.00356,1007.476
6.637084007,-17.52224,19.62557,2.008456,-0.8696717,-0.0932029,0.06042663,21.61851,-1.534925,-49.37434,1007.476
6.669367790,5.222097,24.73272,-5.487251,-1.625016,-0.09404083,0.5952827,22.70486,-0.4533429,-49.40473,1007.476
6.704134464,38.43998,-12.60225,-9.7531,-0.6531663,0.0344025,-0.3101119,22.70486,-0.4533429,-49.40473,1007.466
6.736417770,3.672756,4.421555,-4.085615,-1.12323,0.3196687,0.4433035,24.17928,-0.09351254,-48.55996,1007.457
6.771183968,12.0392,-2.740184,3.592914,-1.079392,-0.1113118,0.1777678,23.45504,-0.8145666,-48.53969,1007.447
6.803467274,11.66736,-5.205701,8.40723,-0.9501113,0.05099383,0.2678482,23.45504,-0.8145666,-48.53969,1007.438
6.835750580,16.81117,-7.08419,11.45427,-0.9889867,0.1204576,0.2354531,24.18126,-1.187059,-48.54611,1007.438
6.870517254,13.58854,-7.436407,8.468171,-0.9788801,0.1481426,0.2568601,23.83179,-1.906468,-48.09563,1007.43
6.902800083,14.08433,-4.853484,4.324203,-0.9628889,0.1414886,0.2790259,23.83179,-1.906468,-48.09563,1007.421
6.937566757,16.06749,0.6058742,0.8505824,-0.9503725,0.176966,0.3130414,23.47034,-2.631511,-48.08089,1007.411
6.969850063,16.37736,6.476152,-0.1244689,-0.9425899,0.1498127,0.2906321,23.47166,-3.360543,-48.07166,1007.402
7.002132893,28.52419,7.356694,-1.647987,-0.9849569,0.03904086,0.1972733,23.47166,-3.360543,-48.07166,1007.402
7.036899567,46.12471,6.123935,-2.623038,-0.9539037,0.2032267,0.2111928,23.47298,-4.089574,-48.06242,1007.393
7.069182873,56.28839,3.599716,-6.340421,-0.9660408,0.2235155,0.2108508,23.8251,-4.828229,-48.49443,1007.385
7.103949070,33.48209,5.419502,-12.98296,-0.9525966,0.2861988,0.2754756,23.8251,-4.828229,-48.49443,1007.378
7.136232376,18.17459,8.472047,-14.32365,-1.000059,0.1005962,0.2387481,23.87568,-6.263753,-46.73306,1007.369
7.170999050,36.45682,7.885019,-6.523243,-0.9771435,0.01983359,0.2348555,23.85304,-7.004054,-47.59529,1007.369
7.203281879,30.69327,8.706858,-2.623038,-0.9937765,0.08495969,0.1888515,23.85304,-7.004054,-47.59529,1007.362
7.235565186,23.62827,6.769666,0.1192939,-0.983063,0.05256198,0.1871939,24.97865,-7.728148,-46.29542,1007.357
7.270331860,13.2167,9.235183,-0.7338759,-0.9920102,0.141444,0.1475931,25.34418,-9.250952,-46.2817,1007.354
7.302614689,-0.2935582,13.52049,-1.891749,-1.021333,0.1059159,0.2557446,25.34418,-9.250952,-46.2817,1007.351
7.337381840,14.02236,6.593557,0.6677603,-0.9696513,0.1004506,0.1700335,25.34484,-9.615467,-46.27708,1007.351
7.369665146,7.081307,8.11983,2.678804,-0.9756559,0.2012403,0.2146124,25.73159,-9.608187,-45.41115,1007.346
7.404431820,5.593939,2.83658,1.764693,-1.019479,0.08262311,0.09220587,25.38146,-9.963079,-44.96529,1007.34
7.436715126,12.10117,2.777877,-5.548192,-0.9812055,0.2789459,0.1585039,25.38146,-9.963079,-44.96529,1007.337
7.468997955,-2.028821,6.593557,-6.645124,-1.011559,0.239731,0.1791342,25.74357,-9.602552,-44.97542,1007.335
7.503764629,-6.428951,8.941669,-2.744919,-0.9999861,0.04176725,0.1576792,26.46979,-9.975045,-44.98184,1007.33
7.536047936,-0.7893475,8.295938,-4.329378,-0.9617746,0.01700118,0.09992684,26.46979,-9.975045,-44.98184,1007.33
7.570814133,10.73775,13.16827,-5.913836,-0.9964214,0.1929851,0.2237956,26.46913,-9.610529,-44.98645,1007.323
7.603097439,2.743151,15.9273,-2.623038,-1.054515,0.203776,0.1727376,26.84455,-9.973399,-44.55162,1007.321
7.635380745,-14.42355,18.62763,-2.318334,-1.005604,0.1617025,0.1395192,26.84455,-9.973399,-44.55162,1007.32
7.670146942,-13.37,19.62557,-3.293386,-0.9726253,0.1211546,0.1416347,27.56944,-9.61686,-44.56727,1007.316
7.702430248,-12.93618,16.22081,-2.866801,-1.006574,0.132858,0.05378859,27.9442,-9.615214,-44.13706,1007.316
7.737196922,-12.75026,15.22287,-6.035717,-0.9983594,0.1533817,0.1056155,27.9442,-9.615214,-44.13706,1007.313
7.769479752,-8.907897,15.80989,-8.838989,-0.9837814,0.1268432,0.1160689,29.05518,-8.886879,-43.29139,1007.309
7.804246426,-8.536056,12.99216,-7.437354,-1.023349,0.06745628,0.04668474,29.78007,-8.53034,-43.30703,1007.31
7.836529732,-4.941583,13.22697,-6.949828,-0.9884792,0.06338393,0.1007316,29.78007,-8.53034,-43.30703,1007.308
7.868812561,1.751572,5.184691,-7.010769,-1.063288,0.1770768,0.01258652,29.78996,-7.370406,-42.88592,1007.308
7.903579712,-10.20934,6.417449,-10.60627,-0.9784229,0.09867913,0.08302334,31.24107,-7.38636,-42.90799,1007.308
7.935863018,-8.536056,8.061128,-10.30157,-1.037814,0.0597686,0.07519508,31.24107,-7.38636,-42.90799,1007.308
7.970629692,-11.51079,12.40513,-8.595226,-0.9756194,0.1476379,0.1050504,31.97729,-6.659671,-42.49252,1007.308
8.002912998,-25.45486,12.17032,-9.387456,-1.005835,0.02347675,0.04881412,31.9653,-6.665305,-42.92825,1007.308
8.037679195,-12.93618,10.05702,-14.50648,-1.062015,0.04787225,0.01233257,31.9653,-6.665305,-42.92825,1007.308
8.069962502,-8.10224,5.889124,-16.21282,-1.004894,0.01848789,0.003823926,31.96266,-5.207242,-42.94671,1007.306
8.102245808,-6.490924,9.117778,-18.83327,-1.031144,0.08820707,0.03618388,33.06099,-4.120026,-42.54138,1007.306
8.137012005,-11.69671,7.121882,-17.12693,-1.00539,0.02820603,0.01596622,33.06099,-4.120026,-42.54138,1007.306
8.169295311,-10.0854,4.245446,-18.71138,-1.070221,0.02249773,-0.04290603,33.78522,-3.398971,-42.56164,1007.306
8.204061985,-15.84895,-10.37154,-20.78337,-1.123573,0.078849,-0.07679479,33.43245,-2.295801,-42.13424,1007.306
8.236344814,-21.67447,-29.03903,-19.38173,-1.185616,0.1406034,-0.07969401,34.14469,-1.580381,-42.59024,1007.31
8.271111488,-32.70578,-51.6396,-16.09093,-1.319571,0.1401681,-0.09487782,34.14469,-1.580381,-42.59024,1007.313
8.303394795,-50.61617,-72.59649,-13.47048,-1.204247,0.04277794,-0.08552791,33.39384,-0.8546414,-43.45989,1007.317
8.335677624,-37.22986,-94.55132,-13.71425,-1.228701,-0.03804147,-0.06611376,31.54202,0.2419448,-44.75334,1007.32
8.370444298,-11.69671,-90.50083,-12.00791,-0.9767545,-0.01769545,0.01274288,31.54202,0.2419448,-44.75334,1007.32
8.402728081,10.36591,-55.39658,6.213364,-0.7041646,-0.03797787,-0.2055074,28.22578,2.077881,-46.46969,1007.322
8.437494755,31.62288,-5.499215,17.73116,-0.6373879,0.1412154,-0.2201024,24.2459,2.856421,-45.98252,1007.325
8.469778061,-2.896452,37.1777,21.81418,-0.5882081,0.224331,-0.1539882,24.2459,2.856421,-45.98252,1007.329
8.502060890,-64.18841,65.12023,23.94711,-0.687305,0.2461618,-0.05406209,23.18418,1.421593,-45.07606,1007.331
8.536827564,-125.3564,93.06275,30.83341,-0.8469225,0.1141044,0.09684736,25.45606,1.807254,-41.62795,1007.331
8.569110870,-135.3342,111.4367,46.37329,-1.024651,0.01138359,0.06618971,25.45606,1.807254,-41.62795,1007.331
8.603877068,-144.3823,109.6756,53.38147,-1.071584,0.01992417,0.05570377,29.57619,4.01326,-36.86108,1007.334
8.636160374,-151.1375,96.35011,52.89394,-1.176784,-0.07380817,0.04572877,31.87874,7.331951,-32.14272,1007.342
8.670927048,-134.9623,72.10586,52.04078,-1.249215,-0.2944311,0.1205303,31.87874,7.331951,-32.14272,1007.345
8.703209877,-93.1301,36.88419,-10.78909,-2.047451,-0.6710222,0.3381403,34.56068,8.100677,-26.96184,1007.345
8.735493183,-15.725,44.69166,-19.9302,-0.6332207,-1.562521,1.10836,36.48414,8.132251,-23.00562,1007.347
8.770259857,138.1556,-132.4733,8.894755,-0.3970409,-0.5390589,-0.3878907,36.48414,8.132251,-23.00562,1007.345
8.802542686,129.7892,-76.94049,16.75611,-1.330391,0.3392471,0.2553202,36.87691,11.42581,-21.7455,1007.345
8.837309360,17.49288,-40.60348,4.202321,-0.9310626,1.046533,0.4272012,34.55907,9.924063,-26.92267,1007.347
8.869592667,-68.52657,-18.00291,-6.401362,-0.8809161,-0.2060904,0.1734171,34.55907,9.924063,-26.92267,1007.347
8.904358864,12.34907,-12.89576,3.471033,-1.088338,0.1212008,-0.032637,33.43903,6.637676,-28.23401,1007.348
8.936642647,-21.3646,3.423608,5.177372,-1.03801,-0.09737125,-0.02770354,33.78784,7.721601,-28.6891,1007.351
8.968925953,21.70709,-3.562023,-5.487251,-1.045422,-0.02425981,-0.00986807,33.78784,7.721601,-28.6891,1007.352
9.003692627,30.07354,-6.203648,-14.81118,-0.9997897,0.3444849,0.09316892,33.05162,6.994911,-29.10456,1007.352
9.035975933,-21.11671,-3.91424,-6.949828,-0.9892228,0.1556409,0.05049667,33.03765,8.082824,-29.55413,1007.352
9.070742130,-8.78395,-12.01522,-9.509337,-1.028868,0.1472418,0.03313057,33.78851,7.357085,-28.68448,1007.351
9.103025436,-20.06316,-13.13058,-13.16578,-1.053378,0.08769067,0.04541419,33.78851,7.357085,-28.68448,1007.351
9.137792110,-19.87724,-13.6002,-10.0578,-0.9525539,-0.00335816,0.08190397,32.69753,8.827114,-28.6864,1007.351
9.170074940,-9.341713,-13.48279,-13.89707,-1.024129,0.2030532,0.07646373,32.30879,9.91338,-29.56618,1007.351
9.202358246,-36.6721,-12.95447,-10.85003,-1.001591,0.08754794,0.1023475,32.30879,9.91338,-29.56618,1007.355
9.237124920,-36.48618,-11.31079,-9.996862,-1.085473,-0.02891571,0.07817762,31.9194,11.36416,-30.45058,1007.355
9.269407749,-40.32854,-8.903975,-13.77519,-1.173681,0.2768309,0.1255494,32.99442,12.07559,-30.91209,1007.355
9.304174423,-68.40262,-8.14084,-11.03286,-0.8959514,-0.2151175,0.0926639,32.99442,12.07559,-30.91209,1007.353
9.336457729,-11.88263,-12.89576,-16.82222,-1.113036,-0.2508104,0.02524741,32.2802,12.45372,-30.46995,1007.353
9.368740559,-6.738819,-11.66301,-18.5895,-0.9340513,-0.2680765,0.06247169,33.00311,13.90381,-30.49944,1007.351
9.403507710,41.97248,-16.24182,-26.14615,-1.149315,-0.03111417,0.05461422,33.00311,13.90381,-30.49944,1007.351
9.435791016,20.40565,-24.87113,-18.77233,-0.9305739,0.1285338,0.1415861,31.91345,14.64481,-30.49213,1007.355
9.470557690,10.48986,-31.03492,-14.994,-1.004729,0.006465954,0.1690912,31.52736,14.27301,-31.35345,1007.357
9.502840519,15.50973,-51.81571,-19.07703,-1.3194,0.08370242,-0.04975601,31.52736,14.27301,-31.35345,1007.357
9.537607193,24.12406,-81.63671,-25.90239,-1.713334,-0.002785687,-0.1054777,31.12797,14.62461,-32.65973,1007.359
9.569890499,43.08801,-99.13014,-21.14901,-1.230297,-0.1324252,0.07258338,28.90403,14.26149,-34.36493,1007.359
9.602173805,95.39377,-84.86536,-9.387456,-0.9358327,-0.1599886,-0.02779636,28.90403,14.26149,-34.36493,1007.364
9.636940003,126.0707,-45.53451,-1.708927,-0.4743946,0.4134935,0.02039659,25.91791,14.25395,-37.37089,1007.366
9.669223309,11.79131,2.660471,1.155286,-0.3858798,0.3928409,-0.008434488,24.06072,11.69975,-39.05391,1007.364
9.703989983,-89.72156,55.72778,1.52093,-0.4004156,-0.02210863,-0.06345735,24.06072,11.69975,-39.05391,1007.364
9.736272812,-66.5434,99.75487,10.66204,-0.7264704,-0.1858318,-0.1197644,22.26477,8.444682,-38.54906,1007.364
9.771039486,-30.90855,122.7664,19.07185,-0.8735195,-0.1346657,-0.03358794,24.14792,9.916609,-35.98074,1007.362
9.803322792,-23.09986,123.9404,20.41255,-1.051757,-0.005913067,-0.01700168,24.14792,9.916609,-35.98074,1007.368
9.835605621,-9.713554,115.4285,19.31561,-1.291404,0.1128953,-0.02692874,26.41517,12.85388,-32.56495,1007.37
9.870372772,-29.66907,101.2811,26.08003,-1.320929,0.1429915,0.0255174,29.06381,12.14764,-28.67278,1007.371
9.902656078,-55.69801,85.25528,34.42891,-1.378951,-0.02716977,0.1276474,29.06381,12.14764,-28.67278,1007.371
9.937422752,-28.6775,84.84436,31.8694,-1.23176,-0.1354149,0.04839759,29.91092,12.19681,-24.2643,1007.373
9.969705582,30.07354,65.94207,28.5786,-1.129411,-0.08203871,0.004487579,31.44526,12.58482,-21.24089,1007.375
10.004472256,34.53564,50.91415,19.37656,-1.04245,-0.019562,0.08877373,31.49453,11.87832,-19.48875,1007.381
10.036755562,14.08433,45.92442,20.77819,-1.037774,0.05358236,0.1060999,31.49453,11.87832,-19.48875,1007.381
10.069038868,-11.51079,53.37967,21.63136,-0.9921673,0.007922561,0.1598871,32.56154,10.39703,-20.35829,1007.381
10.103805065,-7.792371,46.45274,27.05508,-1.007816,0.04282508,0.04796153,33.6745,10.03181,-19.49877,1007.382
10.136088371,-24.40131,30.36818,19.07185,-1.023484,-0.04837999,0.1369129,33.6745,10.03181,-19.49877,1007.382
10.170854569,-24.09144,0.4884687,6.274305,-1.199806,-0.1346677,0.09909403,35.16156,10.03277,-18.21365,1007.384
10.203137875,-36.54815,-67.95897,-42.90485,-0.965747,-0.6824911,0.8945989,35.52434,10.02878,-18.21916,1007.386
10.235421181,69.24088,-81.98893,-5.670073,-0.9103047,-0.02159418,-0.3374321,35.52434,10.02878,-18.21916,1007.386
10.270187855,99.54601,-59.91669,14.62318,-1.155336,0.02758419,-0.04075991,35.80124,11.07889,-21.28861,1007.384
10.302471638,-49.50064,-46.59116,-6.401362,-0.9031504,0.3591318,0.04953444,35.02774,11.06433,-23.02049,1007.386
10.337237835,-24.09144,-42.07104,-4.634081,-0.9735611,-0.2114561,-0.1894762,35.02774,11.06433,-23.02049,1007.39
10.369521141,24.18604,-44.53656,2.800685,-1.051097,0.1272028,-0.006577439,35.0051,10.32403,-23.88271,1007.39
10.404287815,-4.321846,-33.55914,1.033404,-0.9666359,0.01150525,0.05301252,33.86684,11.40701,-25.62292,1007.39
10.436570644,18.73236,-32.85471,1.338108,-0.9774652,0.06736812,-0.01819544,33.86684,11.40701,-25.62292,1007.39
10.468853951,10.48986,-33.85266,2.252219,-1.03565,0.1339778,-0.01962505,33.46639,11.39329,-26.98683,1007.392
10.503620625,1.999467,-30.74141,-0.5510538,-1.004948,0.06712972,0.0775833,32.70621,10.65533,-28.27375,1007.392
10.535903454,2.495256,-16.88755,6.579009,-0.928453,0.03744286,0.106256,32.70621,10.65533,-28.27375,1007.392
10.570670128,7.763018,-11.95652,7.55406,-1.041814,0.0939068,0.01351766,31.59456,10.29151,-29.12404,1007.39
10.602953434,-0.0456636,-13.30668,5.421135,-0.976648,0.1644842,0.07904273,32.32012,10.28353,-29.13507,1007.39
10.637719631,1.441704,-14.42204,2.252219,-1.012919,0.1604485,0.06121073,32.32012,10.28353,-29.13507,1007.39
10.670002937,-0.9132949,-12.19133,-4.207496,-1.044792,0.1478226,0.07522735,31.93469,9.547218,-29.99178,1007.39
10.702286243,-5.375399,-5.734026,-3.537148,-0.9337204,0.01613971,0.1075965,31.56059,9.181057,-30.41737,1007.388
10.737053394,-1.16119,-7.142892,1.886574,-1.02818,0.05231291,0.008900827,31.56059,9.181057,-30.41737,1007.388
10.769336700,5.222097,-9.491003,-0.6119946,-1.042807,0.1407068,0.1157915,30.47028,10.28657,-30.41467,1007.388
10.804102898,-0.3555319,-1.918345,-11.88602,-1.012625,0.2715709,0.1507947,31.18385,10.27296,-30.86143,1007.392
10.836386204,-11.13895,-0.4507757,-13.47048,-1.007566,0.1737984,0.140559,30.83438,9.553549,-30.41096,1007.391
10.871152878,-21.42658,-0.392073,-13.53142,-1.053081,0.1675517,0.04925171,30.83438,9.553549,-30.41096,1007.391
10.903435707,-22.04631,-11.01728,-16.70034,-1.130242,0.2976332,0.08689898,30.13081,10.66634,-29.54232,1007.389
10.935719013,-49.56262,-19.52918,-4.999725,-0.9611527,0.3795857,0.1367947,29.77737,12.13403,-29.11954,1007.389
10.970485687,-112.3419,-3.562023,-7.802998,-0.9512706,-0.568319,0.01487498,29.77737,12.13403,-29.11954,1007.392
11.002768517,20.15775,-6.966784,-15.48153,-0.9464867,-0.6120104,-0.172958,29.74943,14.30985,-30.01869,1007.391
11.037535191,93.65851,-16.00701,-20.29584,-1.07593,0.2480957,0.1314601,30.09758,15.75829,-30.4784,1007.389
11.069818497,14.02236,-23.05135,-15.60341,-1.035541,0.3493955,0.1445184,30.09758,15.75829,-30.4784,1007.387
11.102101326,10.92367,-37.43353,-11.58132,-1.186855,0.3334754,0.1442706,30.42639,14.64386,-31.77724,1007.387
11.136868954,-32.76776,-39.78164,-12.19073,-1.003751,0.2307649,0.2399797,29.67884,13.54701,-32.62382,1007.391
11.169151783,-41.87788,-40.07515,-10.97191,-1.077823,0.2658556,0.2330873,29.67884,13.54701,-32.62382,1007.391
11.203918457,-88.11024,-72.30297,-6.27948,-1.377824,-0.1799478,-0.1173603,29.29077,14.26876,-33.49899,1007.391
11.236201763,-67.34906,-88.15273,-27.06026,-1.548803,-0.6955643,-0.1861547,28.53926,15.35902,-34.37326,1007.391
11.270967960,24.7438,-104.4721,-51.98501,-1.447304,-0.5093271,-0.2936048,28.53926,15.35902,-34.37326,1007.391
11.303251267,78.72285,-108.7574,-63.5028,-1.231977,-0.03076017,0.0862179,26.6981,17.19027,-35.24022,1007.387
11.335534573,109.1519,-79.1712,-70.81569,-0.6206549,0.1307456,0.1037059,23.35921,18.28591,-37.81879,1007.388
11.370300770,108.3463,-31.15233,-44.91589,-0.1439218,0.372309,0.1543296,23.35921,18.28591,-37.81879,1007.384
11.402584076,42.84011,43.28279,-22.55065,-0.2525594,0.5060213,0.147589,20.38536,17.18966,-40.43742,1007.383
11.437350750,-25.45486,111.2606,3.897618,-0.4698564,0.3536822,0.07419185,19.26703,13.90408,-41.68651,1007.383
11.469633579,-55.0163,139.2618,12.49026,-0.6888309,0.08560994,-0.02016411,19.26703,13.90408,-41.68651,1007.375
11.504400730,-8.040266,146.3649,25.59251,-0.9422194,-0.1027605,0.01460197,21.47898,14.26157,-40.41704,1007.373
11.536684036,22.69867,149.887,30.28494,-1.064493,-0.07597005,0.1697182,25.93924,15.72328,-36.5179,1007.376
11.568967343,19.78591,142.1383,27.9692,-1.280933,0.05999452,0.2047985,25.93924,15.72328,-36.5179,1007.372
11.603733540,-6.24303,123.8817,22.36265,-1.369356,0.03704768,0.2198452,30.72857,14.97621,-33.96601,1007.372
11.636016846,-31.28039,94.76514,19.7422,-1.311164,-0.06129747,0.1384263,34.86625,13.17737,-28.77488,1007.37
11.670783520,-26.0746,72.34068,17.7921,-1.176062,-0.1583354,0.09214015,37.52858,12.47757,-24.38474,1007.37
11.703066826,-3.144347,57.01925,21.0829,-1.202091,-0.02226678,-0.003234377,37.52858,12.47757,-24.38474,1007.37
11.735349655,-4.569741,46.27663,22.97206,-1.129845,-0.1238611,-0.05569568,40.16721,10.67215,-20.91446,1007.37
11.770116329,24.9917,35.18181,17.97492,-0.9827483,-0.2036625,-0.1666905,40.2411,9.61241,-18.28625,1007.37
11.802399635,46.18669,32.42278,13.83095,-0.8609908,-0.1572885,-0.1512192,40.2411,9.61241,-18.28625,1007.37
11.837165832,47.98392,34.53608,13.77001,-0.9145248,0.003372787,-0.1061974,40.6538,8.537414,-16.53501,1007.369
11.869449139,22.3888,46.86366,16.93893,-0.9746488,0.1007429,-0.02526332,40.71875,6.743812,-14.27105,1007.367
11.904216289,2.619204,42.22614,19.01091,-1.026005,0.1050671,-0.1339018,40.71875,6.743812,-14.27105,1007.367
11.936499596,-14.85737,28.6658,15.17165,-1.054409,0.06396792,-0.09975009,40.39391,5.671156,-12.94451,1007.367
11.968782425,-36.48618,16.69044,15.78105,-1.063057,0.07443478,-0.002500749,40.43185,4.594513,-11.62348,1007.37
12.003549099,-31.03249,0.7232798,11.94179,-0.992978,-0.1497609,-0.1030315,40.43185,4.594513,-11.62348,1007.372
12.035832405,1.937494,-33.67655,7.310297,-1.246202,-0.03505591,-0.1699984,40.11834,3.892008,-9.865824,1007.374
12.070598602,12.53499,-104.883,-21.5756,-1.212138,0.001115509,0.1936798,38.99471,3.522554,-11.15184,1007.381
12.102881908,-28.73947,-74.65108,-5.243488,-1.190558,0.1704458,-0.1230232,38.99471,3.522554,-11.15184,1007.381
12.137648582,-13.67987,-76.35346,3.471033,-0.8038317,-0.378517,-0.07911758,38.91148,3.118596,-14.19731,1007.381
12.169931412,-46.15407,-57.80339,-14.20177,-1.178414,0.06960018,0.2394397,37.77151,4.200765,-15.99977,1007.385
12.202214718,24.43393,-65.43475,12.8559,-0.9281943,0.2676063,-0.09112921,37.77151,4.200765,-15.99977,1007.385
12.236981392,6.585518,-42.48196,7.858763,-1.018408,0.2134852,0.008345865,37.71225,3.808077,-18.17379,1007.385
12.269265175,-21.98434,-26.80832,12.73402,-0.935717,0.01245511,0.02152776,36.18923,3.790223,-20.76609,1007.385
12.304031849,9.126438,-20.46842,10.23545,-1.040872,0.08598817,-0.03922421,36.18923,3.790223,-20.76609,1007.385
12.336314678,1.87552,-16.41793,4.99455,-1.020672,0.1500968,0.01185783,36.17725,3.784589,-21.20181,1007.385
12.371081352,-3.144347,-13.89371,3.592914,-0.9895772,0.09509112,0.0332328,36.16724,2.685408,-21.62369,1007.385
12.403364658,2.55723,-13.42409,3.836677,-1.013757,0.08132785,-0.00933595,36.16724,2.685408,-21.62369,1007.385
12.435647488,11.17157,-17.8855,1.764693,-1.008739,0.2144824,0.008814134,35.04229,3.044985,-22.91894,1007.385
12.470414162,-5.313425,-16.53534,1.52093,-0.9693041,0.1292076,0.08752822,34.6915,3.054607,-22.4777,1007.385
12.502697468,-0.7273738,-13.48279,2.069396,-1.005464,0.06894939,0.04375405,34.6915,3.054607,-22.4777,1007.385
12.537463665,-5.003557,-7.553812,1.703752,-0.9927776,0.03720494,0.09043976,34.32938,2.694081,-22.46757,1007.387
12.569746971,-0.6654002,-11.6043,0.2411753,-1.030721,0.08600082,-0.0440804,33.60317,3.066573,-22.46115,1007.389
12.602030277,-4.445794,-12.30874,-4.146555,-1.034107,0.1104202,0.02471403,33.60317,3.066573,-22.46115,1007.389
12.636797428,-1.718953,-6.262351,-12.06885,-0.993951,0.1301721,0.1074078,33.57787,3.784335,-23.34184,1007.389
12.669080734,-14.42355,-7.964731,-10.97191,-1.105518,0.05465551,0.05162343,33.9047,3.763444,-24.65453,1007.391
12.703846931,-10.70513,-7.671217,-17.18787,-0.9844853,0.2182879,0.1117559,33.9047,3.763444,-24.65453,1007.392
12.736130238,-25.57881,-6.379756,-15.96905,-1.002131,0.3140101,0.09880196,33.9047,3.763444,-24.65453,1007.394
12.770896912,-50.5542,-8.023434,-13.3486,-1.028346,0.139095,0.05628818,34.97972,4.474874,-25.11604,1007.394
12.803179741,-48.1992,-10.84117,-18.65044,-1.021079,-0.09338427,-0.007896378,34.96707,4.833755,-25.55638,1007.394
12.835463047,-9.775529,-22.28821,-23.5257,-1.07634,-0.03986512,-0.0190755,34.96707,4.833755,-25.55638,1007.396
12.870229721,-3.950004,-32.79601,-22.36783,-1.090489,0.05046095,0.08637477,33.86279,7.027182,-26.00326,1007.397
12.902512550,-18.82368,-34.85061,-21.94124,-1.090549,0.08881907,0.1243012,33.48604,8.119082,-26.44732,1007.399
12.937279224,-22.5421,-46.35635,-22.79441,-1.156537,-0.06032624,0.008537009,33.48604,8.119082,-26.44732,1007.401
12.969563007,-2.028821,-65.14124,-31.26517,-1.420905,-0.1729282,-0.1515517,32.72216,8.473867,-27.81033,1007.401
13.004329681,13.2167,-114.569,-34.92161,-1.527421,-0.09467769,-0.6758916,31.58324,9.921358,-29.55515,1007.403
13.036612511,-1.595005,-116.6236,-52.04595,-1.267614,-0.3590879,-0.09396102,31.58324,9.921358,-29.55515,1007.404
13.068895817,85.04417,-93.20116,-72.27827,-0.8862807,-0.4598667,-0.02429041,29.67149,10.98977,-33.02724,1007.404
13.103662491,177.6948,-60.56242,-69.84064,-0.6024788,-0.05518341,-0.08496467,26.70604,12.81608,-35.18483,1007.401
13.135945320,196.2869,-11.36949,-56.49462,-0.6302342,0.386089,-0.2235599,26.70604,12.81608,-35.18483,1007.401
13.170711994,121.9185,43.75241,-58.87131,-0.5975554,0.5568675,0.02099381,22.28279,11.73659,-37.71915,1007.397
13.202995300,66.57602,98.346,-47.96292,-0.7626404,0.4271121,-0.001142918,21.92795,7.366392,-37.65825,1007.4
13.237761498,32.61446,120.5944,-39.91875,-0.9312913,0.3723395,-0.02768,21.92795,7.366392,-37.65825,1007.396
13.270044804,9.994069,116.3678,-25.78051,-1.022387,0.2545524,-0.007848971,23.78242,4.811742,-36.34633,1007.396
13.302328110,21.14933,120.5357,2.008456,-0.9912134,0.1612656,-0.001678436,26.01967,4.451468,-34.19617,1007.396
13.337095261,41.10485,122.8838,30.52871,-1.062467,0.2150806,-0.05488058,26.01967,4.451468,-34.19617,1007.396
13.369378567,38.6259,129.2824,43.75284,-1.152821,0.2014228,-0.01028714,28.65499,4.468625,-30.74897,1007.396
13.404144764,2.185388,144.4277,42.47308,-1.082058,0.1700588,0.09960604,30.91688,3.755105,-27.72274,1007.393
13.436428070,-25.33092,149.7696,39.12135,-1.194304,0.1797351,0.05107567,30.91688,3.755105,-27.72274,1007.393
13.468711376,-73.29854,141.9035,38.20723,-1.208177,0.1387806,0.1156535,32.51815,1.25596,-22.42153,1007.393
13.503477574,-111.8462,117.7179,49.60315,-1.169683,0.09075177,0.3333283,34.45519,-0.5302157,-18.06876,1007.393
13.535760880,-135.3342,88.42523,51.24855,-1.389369,-0.01554145,0.4265011,35.30363,-1.210073,-13.65104,1007.396
13.570527554,-114.3871,-51.16998,-99.70158,-2.61521,-1.373919,1.747975,35.30363,-1.210073,-13.65104,1007.4
13.602810383,122.3523,-144.3313,-52.22877,-0.2866089,-0.688982,-0.5968598,36.80334,-1.568005,-11.92558,1007.4
13.637577057,33.72998,-82.39985,26.38474,-1.074345,-0.2007782,0.7626925,35.9886,1.316657,-15.00156,1007.398
13.669860840,-5.251451,-112.5731,12.06367,-1.277829,0.05635206,-0.7306827,35.9886,1.316657,-15.00156,1007.398
13.702144146,-33.38749,-38.54888,-11.33756,-0.9738278,0.4793006,0.2983741,34.45454,-0.1657,-18.07337,1007.403
13.736910820,-18.88566,-35.14412,11.63709,-0.8787506,-0.2110377,-0.1461687,33.30759,-0.9109383,-20.22623,1007.405
13.769193649,20.71551,-29.74346,10.84486,-1.056761,0.2723596,-0.007673636,33.30759,-0.9109383,-20.22623,1007.401
13.803960323,-5.313425,-22.87524,-3.780911,-0.9697385,0.0790766,0.003125785,32.89556,-0.2004566,-21.97285,1007.398
13.836243629,7.019334,-25.86908,1.277167,-0.997225,0.02164853,-0.06965732,32.14735,-0.9327803,-22.82404,1007.398
13.871009827,2.743151,-25.57557,0.3630567,-1.01281,0.08515781,-0.02236906,32.14735,-0.9327803,-22.82404,1007.395
13.903293133,10.92367,-24.108,1.033404,-1.017719,0.1253969,0.003492569,32.48616,-0.9480381,-23.70101,1007.395
13.935576439,4.912229,-20.82064,-1.526105,-0.9939122,0.09808053,0.06226546,31.76259,-2.033608,-23.67613,1007.391
13.970342636,0.6360467,-16.12442,-2.80586,-1.011682,0.01839155,-0.01888361,31.76259,-2.033608,-23.67613,1007.389
14.002626419,12.90683,-14.01112,-5.304429,-1.001295,0.1488346,0.05145087,31.37452,-1.311858,-24.5513,1007.389
14.037393093,5.841834,-11.6043,-11.33756,-0.9964412,0.1562531,0.09450863,30.28619,-1.299892,-24.53476,1007.388
14.069676399,9.808148,-7.847325,-11.7032,-1.001518,0.03018884,0.0266048,30.28619,-1.299892,-24.53476,1007.386
14.104442596,6.895386,-12.42614,-12.31261,-1.041671,0.03439178,0.01559615,29.89812,-0.5781412,-25.40993,1007.384
14.136725903,12.2871,-14.95036,-14.81118,-0.9904155,0.05652805,0.07845857,30.2609,-0.5821295,-25.41544,1007.388
14.169009209,8.320781,-10.54765,-14.81118,-1.018067,0.1064135,0.1140928,30.2609,-0.5821295,-25.41544,1007.388
14.203775406,-2.52461,-6.614568,-17.43163,-1.045991,0.04379839,0.08189005,29.88481,0.1452556,-25.85489,1007.386
14.236058712,-9.96145,-19.47048,-20.17396,-1.078881,-0.01204006,-0.08852699,29.48674,-0.2321749,-27.15193,1007.388
14.270825386,-11.38684,-20.11621,-25.41486,-1.020883,0.0705961,0.1143787,29.48674,-0.2321749,-27.15193,1007.388
14.303108692,-12.81224,-17.59199,-28.88848,-1.100739,0.08131325,0.05998316,29.83582,-0.2426028,-27.65542,1007.388
14.335392475,-15.60105,-31.50455,-29.0713,-1.275423,0.125257,0.03740445,29.83383,0.8509445,-27.66927,1007.388
14.370158672,-33.20157,-49.35019,-25.41486,-1.238253,0.1373192,-0.004666239,29.45643,2.307362,-28.11795,1007.388
14.402441979,-46.95972,-51.99181,-35.89666,-1.116455,-0.2182184,0.0781349,29.45643,2.307362,-28.11795,1007.392
14.437208653,-11.82066,-56.57063,-41.25945,-1.043248,-0.3041997,0.06250165,28.68161,3.021831,-29.85905,1007.393
14.469491482,22.07893,-67.31324,-42.2345,-1.104923,-0.2248399,-0.02925099,27.56534,5.209622,-30.74166,1007.393
14.504258156,33.85393,-71.59854,-42.8439,-1.049311,-0.1811723,0.100439,27.56534,5.209622,-30.74166,1007.393
14.536541462,47.85998,-66.6088,-40.52816,-0.9579324,-0.1433324,0.1937609,26.45105,6.303865,-31.61041,1007.393
14.568824291,92.23312,-51.52219,-29.80259,-0.802736,0.02654253,0.06773137,24.22645,6.305258,-33.32022,1007.393
14.603590965,90.3739,-4.207754,-12.12979,-0.6656859,0.2686099,-0.1598541,24.22645,6.305258,-33.32022,1007.392
14.635874272,39.8034,40.46506,-2.683979,-0.6052802,0.264718,-0.2170522,22.0278,5.224374,-34.14474,1007.39
14.670641422,-0.4794792,72.869,6.091483,-0.7911829,0.1753575,-0.1538292,22.39389,3.397807,-34.12717,1007.39
14.702924728,-9.403687,94.23681,14.13566,-0.9519566,0.08209591,-0.1206557,22.39389,3.397807,-34.12717,1007.386
14.737690926,0.6980203,104.862,27.72543,-1.028651,0.0108287,-0.09430648,23.88161,3.034241,-32.83744,1007.385
14.769974232,14.33223,106.1535,37.90253,-1.056686,0.02007585,-0.05503494,25.40463,3.052094,-30.24514,1007.385
14.802257538,21.02538,109.4408,46.86081,-1.108976,0.04505806,-0.06444898,25.40463,3.052094,-30.24514,1007.386
14.837023735,14.58012,107.4449,49.42032,-1.154049,0.07186733,-0.1120598,26.56554,2.70942,-27.64271,1007.386
14.869307041,4.106572,104.9794,46.31235,-1.165107,0.0818712,-0.006589473,28.09291,1.270015,-24.9697,1007.385
14.904073715,-36.23828,116.6613,46.00764,-1.214528,-0.06230335,0.0453921,28.09291,1.270015,-24.9697,1007.385
14.936356544,-18.88566,100.6941,35.64772,-1.275963,-0.04303169,0.0722232,28.51694,0.5651684,-22.78735,1007.386
14.971123695,-31.40434,84.60955,25.77533,-1.087491,-0.1396627,0.2438552,31.10697,-0.8982763,-21.06459,1007.388
15.003407001,-20.37302,47.27458,24.37369,-1.289948,-0.1552641,0.381016,31.10697,-0.8982763,-21.06459,1007.388
15.035690308,-55.94591,-11.42819,-18.77233,-1.960237,-0.4955882,1.053956,32.59337,-0.5328112,-19.78409,1007.388
15.070456505,7.453149,-74.41628,-23.95229,-0.1444204,-0.733378,-0.1086622,33.69501,-1.268174,-19.35567,1007.39
15.102739811,216.9241,-127.1314,25.95815,-1.044307,0.2367671,0.3319545,33.69501,-1.268174,-19.35567,1007.386
15.137506485,41.10485,-41.89494,3.166329,-1.115745,-0.4518426,-0.3186478,33.63111,0.890748,-21.562,1007.394
15.169789791,-62.20525,-26.16259,-4.146555,-0.8062167,0.4687759,0.04946552,31.76127,-1.304577,-23.68536,1007.397
15.202072620,12.2871,-28.3933,2.800685,-0.9859253,-0.0909531,-0.1771619,31.76127,-1.304577,-23.68536,1007.397
15.236839294,-23.65763,-11.5456,13.09966,-1.048589,0.3015024,0.01712983,32.0761,-1.331104,-25.43379,1007.397
15.269122601,-21.79842,-15.7135,9.747926,-1.015043,-0.0254993,-0.1158137,30.97513,-0.9602566,-25.85758,1007.397
15.303889752,1.379731,-22.1708,7.858763,-1.0342,0.1315378,-0.02689363,31.32591,-0.9698801,-26.29883,1007.396
15.336172581,-13.37,-22.99264,2.556922,-1.001902,0.1815487,-0.004924142,31.32591,-0.9698801,-26.29883,1007.396
15.370939255,-11.51079,-25.34075,-1.221402,-1.019734,0.1524225,-0.01665385,30.58904,-1.332053,-26.71891,1007.396
15.403222561,-15.725,-26.69092,-0.3682317,-1.012685,0.05146955,0.03255114,30.19992,-0.9756227,-27.65171,1007.394
15.435505390,0.5120994,-23.93189,-5.548192,-0.995155,-0.004171772,0.02059445,30.19992,-0.9756227,-27.65171,1007.392
15.470272064,2.991046,-19.41177,-5.852895,-1.0185,0.05824107,0.03646968,28.72484,-0.9709377,-28.5011,1007.389
15.502555370,-4.073952,-18.64864,-5.670073,-0.9961924,0.02925257,0.03142238,28.72418,-0.6064224,-28.50571,1007.389
15.537321568,8.072886,-22.0534,-4.329378,-1.018518,0.0679393,0.04232613,28.72418,-0.6064224,-28.50571,1007.389
15.569604874,7.701044,-26.63222,-5.670073,-1.023984,0.1376835,0.06448921,28.36074,-0.2379179,-28.50481,1007.387
15.604372025,9.932096,-31.62195,-11.21568,-1.027326,0.1402966,0.1244577,28.32479,-0.2548218,-29.81199,1007.392
15.636655331,5.77986,-28.3933,-10.30157,-1.017758,-0.0237584,0.1148023,28.32479,-0.2548218,-29.81199,1007.392
15.668938637,9.126438,-19.35307,-10.85003,-0.9721091,0.1173812,0.170135,27.56328,-0.2637486,-31.10814,1007.396
15.703704834,0.945915,-11.01728,-12.25167,-0.9816496,0.04752537,0.1276992,26.81309,0.09747458,-31.97318,1007.396
15.735988140,1.19381,-17.12237,-14.07989,-1.036382,0.08412806,0.1222241,26.81309,0.09747458,-31.97318,1007.398
15.770754814,2.433283,-18.12031,-17.30975,-1.071254,0.1023621,0.105966,26.77713,0.08057117,-33.28036,1007.401
15.803037643,-7.296582,-23.34486,-18.52856,-1.064042,0.1569432,0.2126173,26.41436,0.08455992,-33.27485,1007.401
15.837804317,-3.392241,-49.99592,2.861626,-1.485614,0.4672585,0.03351736,26.41436,0.08455992,-33.27485,1007.403
15.870087624,-115.1308,-56.57063,-14.56742,-1.382051,0.0008298987,-0.0326884,26.38906,0.8023224,-34.15553,1007.403
15.902371407,-73.11262,-82.92818,-21.33183,-1.328566,-0.1331596,-0.06112154,24.92531,1.177158,-34.57381,1007.407
15.937137604,-62.51511,-98.66052,-26.02427,-1.181805,-0.1903601,0.07166602,24.92531,1.177158,-34.57381,1007.416
15.969420910,-28.49157,-97.72128,-32.84963,-0.8719015,-0.1422757,0.1471714,24.1352,3.708571,-36.77373,1007.414
16.004187584,9.560254,-83.63261,-36.14043,-0.860016,-0.05023573,0.1650729,22.27901,6.262416,-38.14789,1007.414
16.036470413,21.64512,-57.39247,-32.78869,-0.6126037,-0.01746181,0.05933638,22.27901,6.262416,-38.14789,1007.414
16.068753719,28.09038,-10.89987,-16.88316,-0.4874148,-0.05591398,-0.1122894,19.32555,8.094364,-39.86975,1007.414
16.103520393,31.99472,42.51966,2.3741,-0.4818748,0.06811444,-0.07437132,17.8618,8.4692,-40.28803,1007.411
16.135803700,15.26183,95.05865,15.842,-0.5945151,0.07425213,-0.02429947,18.22656,7.371664,-40.2797,1007.407
16.170569897,5.77986,129.5759,20.59537,-0.9125835,0.02148843,-0.04566871,18.22656,7.371664,-40.2797,1007.404
16.202853680,4.850255,131.7479,18.64527,-1.073086,0.009931865,-0.03571973,20.41587,6.988852,-39.87245,1007.404
16.237620354,8.258807,130.2803,25.83627,-1.175101,0.02435787,0.02356169,24.83149,6.605453,-37.69314,1007.4
16.269903660,15.19986,128.754,34.12421,-1.235176,0.05742354,-0.02156407,24.83149,6.605453,-37.69314,1007.4
16.302186489,13.2167,126.4646,35.34302,-1.181036,0.06435173,-0.0221248,29.31797,5.890539,-32.9571,1007.4
16.336953163,2.681177,121.5923,33.27104,-1.142325,0.0890093,0.08138785,32.70547,4.452925,-28.63101,1007.397
16.369236469,-30.10289,127.4626,39.85263,-1.106885,0.01834854,0.04900274,32.70547,4.452925,-28.63101,1007.397
16.404002667,-21.92237,112.6695,39.42605,-1.144864,0.09973797,-0.0350544,33.91867,2.675531,-24.20496,1007.395
16.436285973,-61.27564,96.87843,39.60887,-1.029579,0.0691358,0.1192235,33.99191,1.980308,-21.58137,1007.395
16.471052647,-77.63669,78.79798,37.1103,-1.063321,0.05823956,0.2168889,33.99191,1.980308,-21.58137,1007.397
16.503336430,-66.17156,4.94988,-11.03286,-2.510158,-0.244221,-0.1331726,35.50359,1.62801,-19.42018,1007.397
16.535619736,-121.9479,-10.48895,-25.53674,0.0528502,-1.527363,-1.237113,36.60193,2.715226,-19.01485,1007.397
16.570385933,201.6166,-141.1026,5.603957,-1.019167,0.01892237,0.2871522,36.60193,2.715226,-19.01485,1007.399
16.602669239,83.99062,-77.99714,38.63382,-1.330892,0.1256746,0.2076968,36.91015,6.333857,-20.80943,1007.397
16.637435436,24.61985,-35.78985,-8.595226,-1.008649,0.8719238,-0.3389078,36.09136,4.838694,-24.26575,1007.402
16.669718743,3.920651,-20.52713,-21.02713,-1.002374,0.03113193,0.1629417,36.09136,4.838694,-24.26575,1007.401
16.702002048,-22.23223,-27.33665,9.443222,-0.9630874,0.1264947,-0.004353953,34.60628,3.744197,-25.53702,1007.401
16.736768722,-31.21841,-12.54355,12.67308,-1.04339,0.108531,-0.09661981,34.59258,3.737758,-26.03499,1007.401
16.769052505,15.01394,-8.14084,2.3741,-1.019491,0.03517425,-0.0579299,34.59258,3.737758,-26.03499,1007.402
16.803818703,-0.0456636,-9.021381,2.983507,-0.9916243,0.1102552,-0.05998025,33.4683,3.73282,-27.32563,1007.401
16.836102009,-4.197899,-11.5456,2.983507,-1.02304,0.1146255,-0.0289476,33.48199,3.739259,-26.82765,1007.401
16.870868683,-0.2315846,-11.78041,0.4849381,-1.005139,0.102011,-0.05371328,33.48199,3.739259,-26.82765,1007.399
16.903151512,-5.313425,-8.258245,-1.830809,-0.9940928,0.1496201,-0.008506588,33.46764,4.097335,-27.33024,1007.399
16.935434818,-12.93618,-6.379756,-3.71997,-1.000363,0.1389164,-0.02015646,33.45565,4.091701,-27.76597,1007.397
16.970201492,-14.85737,-9.19749,-1.03858,-1.002661,0.09396145,-0.003486768,33.81909,3.723197,-27.76687,1007.396
17.002484322,-18.08,-11.01728,0.728701,-1.019537,0.05306159,-0.06314591,33.81909,3.723197,-27.76687,1007.394
17.037250996,-10.02342,-8.14084,-1.587046,-1.024305,0.04404313,-0.007108022,33.45499,4.456217,-27.77058,1007.392
17.069534779,-6.119082,-4.97089,-2.257394,-1.010837,0.07212841,-0.01326206,32.71613,5.187592,-28.20451,1007.392
17.104301453,-9.341713,-2.505373,-2.623038,-1.012382,0.1157155,-0.001891808,32.71613,5.187592,-28.20451,1007.392
17.136584759,-13.30803,-1.566128,-3.476208,-0.9974077,0.118137,-0.01399628,32.6915,5.540837,-29.08058,1007.392
17.168867588,-17.52224,-1.39002,-3.65903,-1.007012,0.0968837,0.00572456,33.0789,5.183601,-28.21003,1007.392
17.203634262,-16.53066,-4.090348,-2.988682,-1.027756,0.06086285,-0.0389119,33.0789,5.183601,-28.21003,1007.39
17.235917568,-14.17566,-8.023434,-4.268437,-1.02155,0.1020852,-0.01790303,32.69017,6.269869,-29.08981,1007.39
17.270683765,-24.02947,-10.54765,-3.415267,-1.025314,0.05461636,-0.02783359,32.32674,6.638373,-29.08891,1007.392
17.302967072,-13.43197,-11.25209,-5.670073,-0.9927997,0.0102367,-0.01365285,32.32674,6.638373,-29.08891,1007.392
17.337734222,-5.809214,-9.19749,-8.595226,-1.012324,0.1047146,0.03623718,33.03963,6.989277,-29.54029,1007.392
17.370017529,-17.46026,-7.025487,-8.717108,-1.01461,0.04221532,0.01654919,32.65289,6.981997,-30.40623,1007.39
17.402300358,-19.81526,-4.97089,-8.656167,-1.010339,0.08734123,0.04870352,32.65289,6.981997,-30.40623,1007.39
17.437067032,-28.05776,-0.5094785,-11.27662,-0.9892588,-0.05067949,0.0004963167,32.30012,8.085166,-29.97883,1007.395
17.469350338,-5.189477,-2.564076,-10.17968,-1.095965,0.09328934,0.01991556,32.31144,8.455317,-29.54772,1007.395
17.504116535,-36.85802,6.476152,-9.143693,-0.9708253,0.3790627,0.1334285,32.31144,8.455317,-29.54772,1007.396
17.536399841,-78.69025,17.74709,-5.426311,-0.9184019,0.4982533,0.1320595,31.93469,9.547218,-29.99178,1007.398
17.568683148,-144.5063,24.55661,-2.683979,-0.9357507,0.2272831,0.01163024,31.96933,10.29316,-28.69383,1007.398
17.603449822,-133.2271,26.5525,-2.927741,-1.026102,-0.02087598,-0.02729426,31.96933,10.29316,-28.69383,1007.4
17.635733605,-121.2662,26.78731,-2.866801,-1.045294,-0.08579081,-0.03148951,32.72687,12.48917,-27.42537,1007.4
17.670499802,-140.416,18.21671,3.166329,-1.106341,0.2389417,0.1691818,32.77057,15.79316,-25.66177,1007.402
17.702783108,-225.3819,6.534855,6.335246,-1.120348,0.2560734,0.2384411,32.77057,15.79316,-25.66177,1007.402
17.737549782,-252.8982,-6.321054,-3.963733,-1.109666,0.003688994,0.1523813,33.20195,17.64556,-23.076,1007.402
17.769832611,-194.9528,-20.70324,-14.75024,-1.082573,-0.236063,0.06732476,33.66796,20.24389,-19.19228,1007.4
17.802115917,-118.0435,-33.67655,-19.38173,-1.101376,-0.2637434,0.0546385,33.66796,20.24389,-19.19228,1007.402
17.836882591,-82.09879,-46.00413,-13.65331,-1.033755,-0.01077562,0.1037915,33.7459,23.56397,-16.18374,1007.4
17.869165421,-93.87379,-44.77137,-14.14083,-0.9591793,0.1574569,0.1326268,32.69194,25.41623,-14.82085,1007.398
17.903932571,-138.6188,-37.66834,-10.66721,-0.9891112,0.3451712,0.1439109,31.97639,26.52339,-14.38793,1007.4
17.936215878,-186.2765,-32.09157,-11.03286,-0.9532846,0.2941465,0.05072331,31.97639,26.52339,-14.38793,1007.4
17.970982552,-208.4631,-27.86497,-19.19891,-0.9681257,0.1945429,-0.05471724,31.70684,28.03051,-10.91507,1007.4
18.003265858,-186.4624,-22.46432,-12.55637,-0.9428386,0.125815,-0.07933447,31.07519,29.17712,-7.43207,1007.402
18.035548687,-170.969,-18.64864,9.2604,-0.8407706,0.1306701,-0.01813012,31.07519,29.17712,-7.43207,1007.405
18.070315361,-150.8896,-21.23156,24.06899,-0.9552606,0.05114593,-0.1116392,30.83094,29.96648,-3.078518,1007.409
18.102598667,-118.9731,-30.21309,28.21296,-0.8932858,0.05165868,-0.01266492,30.56405,30.01555,0.4128113,1007.409
18.137364864,-105.9587,-39.78164,31.99128,-0.7381253,0.0709216,-0.02884328,30.56405,30.01555,0.4128113,1007.41
18.169648647,12.65894,42.05003,39.66981,-1.277604,0.2502117,-1.073789,31.71561,28.20918,2.597979,1007.41
18.204415321,-122.3197,51.14896,58.80519,-1.164832,-0.2365289,-0.0006654499,32.49109,27.13019,4.343702,1007.412
18.236698628,-90.96103,31.60094,18.34056,-1.718322,-1.294213,-0.4821571,32.49109,27.13019,4.343702,1007.412
18.268981457,174.4722,-3.385915,34.67267,-1.201416,-0.2452806,-0.4105924,33.68032,25.34153,7.898296,1007.412
18.303748131,-0.2935582,-2.153157,25.89721,-0.9363716,0.8408759,0.4347453,33.67297,22.78428,7.494881,1007.416
18.336031437,0.5120994,7.474099,16.20764,-0.8895277,0.4240204,0.3365532,33.67297,22.78428,7.494881,1007.414
18.370797634,-19.69131,12.69865,13.34343,-1.100832,-0.09983139,0.01351015,34.00847,24.5916,6.594832,1007.409
18.403080940,5.655913,0.6058742,16.26858,-1.038523,-0.07452807,0.001917207,34.38654,22.77067,7.048123,1007.407
18.435364723,-1.223163,1.897335,15.65917,-0.9939995,0.149029,0.1026807,34.38654,22.77067,7.048123,1007.407
18.470131397,-7.110661,2.484363,9.504163,-1.007426,0.09375035,0.08112407,34.75064,22.03765,7.05184,1007.407
18.502414703,-5.809214,2.895283,10.17451,-0.9979872,-0.009269042,0.08970331,34.41051,22.78194,7.919577,1007.404
18.537180901,-4.817636,8.11983,12.36838,-0.994112,-0.003365662,0.1148673,34.41051,22.78194,7.919577,1007.404
18.569464207,-4.445794,15.986,10.23545,-1.009733,0.0546173,0.1021778,34.76262,22.04328,7.487566,1007.402
18.604230881,-5.747241,16.98395,2.313159,-1.008036,0.1474667,0.08191425,34.78792,21.32552,8.368252,1007.402
18.636513710,-11.015,16.63173,0.1802346,-0.9838492,0.1573487,0.1215603,34.78792,21.32552,8.368252,1007.4
18.668797016,-9.837502,18.86244,-2.80586,-0.9973002,0.09365981,0.04581071,34.7999,21.33116,8.803978,1007.4
18.703564167,-11.13895,16.80784,-5.304429,-1.014636,0.06312254,0.04567444,34.80122,20.60212,8.81321,1007.4
18.735847473,-5.561319,20.0952,-5.852895,-1.000228,0.1042914,0.04394372,34.80122,20.60212,8.81321,1007.4
18.770613670,-5.251451,21.21055,-10.0578,-0.9992902,0.1115039,0.02947954,34.8485,20.98918,10.5515,1007.4
18.802896976,-6.92474,17.10135,-8.960871,-1.02535,0.07939009,-0.0001366478,34.49837,20.63428,10.99736,1007.399
18.837663650,-11.2629,13.16827,-6.827947,-1.025637,-0.02534953,-0.06261173,34.17023,21.38421,12.30082,1007.397
18.869946480,6.027755,9.293886,-9.326515,-1.033049,0.05802269,-0.01571159,34.17023,21.38421,12.30082,1007.394
18.902229786,-1.471058,7.767613,-13.0439,-1.007955,0.08329818,-0.004019427,33.45667,21.39782,12.74758,1007.392
18.936996460,-3.20632,4.597663,-11.76414,-1.024248,0.01691365,-0.0159643,33.83143,21.39947,13.17779,1007.392
18.969280243,1.379731,6.476152,-13.71425,-1.004443,0.02812689,-0.008208206,33.83143,21.39947,13.17779,1007.396
19.004046917,-0.4175056,9.17648,-14.62836,-1.007825,0.03008405,0.0009955461,33.10455,22.13647,13.17959,1007.39
19.036329746,0.2642047,12.75735,-15.23776,-0.9956659,-0.005752706,-0.01712166,33.1172,21.7776,13.61993,1007.39
19.071096420,3.23894,12.58124,-15.35964,-1.029093,0.005133202,-0.06098065,33.1172,21.7776,13.61993,1007.392
19.103379726,4.602361,9.000372,-15.54247,-1.030012,-0.01275035,-0.05382876,32.76508,22.51625,14.05195,1007.392
19.135662556,5.717887,4.597663,-16.57846,-1.047942,0.01000539,-0.03529006,32.02688,22.88311,13.62263,1007.391
19.170429230,2.371309,-2.153157,-19.07703,-1.026718,0.02255663,-0.06233701,32.02688,22.88311,13.62263,1007.391
19.202712536,-3.268294,-3.092401,-19.32079,-1.021406,0.04306555,-0.01243765,32.04887,23.98792,14.48024,1007.391
19.237479687,-7.854345,-4.55997,-18.16292,-1.015608,0.03817406,-0.03278239,32.04754,24.71695,14.47101,1007.391
19.269762516,-12.1925,-6.966784,-14.87212,-1.062559,0.06276782,-0.01852164,32.04754,24.71695,14.47101,1007.391
19.302045822,-27.62394,-9.432301,-11.3985,-1.05488,0.08454052,-0.02614941,31.33331,25.09508,14.91315,1007.389
19.336812496,-42.74552,-17.70939,-12.12979,-1.110283,0.002646753,-0.01199248,31.32199,24.72493,14.48204,1007.389
19.369095802,-20.68289,-34.7332,14.13566,-1.021354,0.4536674,0.05709486,31.32199,24.72493,14.48204,1007.392
19.403862000,-130.934,-33.32433,23.27676,-1.097906,0.546645,0.14094,31.33397,24.73056,14.91776,1007.394
19.436145306,-164.028,-44.12564,11.63709,-1.129708,0.223568,-0.06387274,31.71006,24.00318,15.35721,1007.394
19.470912457,-148.7824,-50.28944,13.22155,-1.108827,-0.05156805,-0.1607196,31.71006,24.00318,15.35721,1007.396
19.503195763,-127.2156,-50.99387,24.19087,-0.9639515,-0.179919,-0.1733641,32.82832,20.72184,16.25366,1007.396
19.535478592,-90.34129,-43.01029,36.92748,-0.9095095,-0.3095471,-0.2008076,33.93497,18.16471,16.7674,1007.402
19.570245266,-40.51447,-30.4479,38.63382,-0.8888124,-0.2512426,-0.1492762,35.34106,15.5738,14.97249,1007.402
19.602528572,-33.20157,-8.258245,37.78065,-0.8788399,-0.145437,-0.06602811,35.34106,15.5738,14.97249,1007.402
19.637294769,-53.8388,13.63789,31.5647,-0.9195688,-0.07711124,-0.004155118,36.80812,13.37638,15.41385,1007.402
19.669578076,-86.00314,28.5484,22.72829,-0.9670916,-0.02160966,-0.008088066,36.8354,11.56507,16.30839,1007.4
19.704344749,-115.2547,37.119,11.69803,-1.018671,-0.1066122,-0.05777097,36.8354,11.56507,16.30839,1007.4
19.736628532,-112.8997,36.47327,4.263262,-1.024313,-0.1812176,-0.07703713,36.54955,9.781096,19.01359,1007.402
19.768911838,-84.32985,37.64733,3.044448,-1.027139,-0.2009523,-0.04330253,36.25066,7.626163,21.22543,1007.407
19.803678036,-56.1938,37.35381,1.886574,-1.056479,-0.0714276,-0.06764164,36.25066,7.626163,21.22543,1007.407
19.835961342,-48.26117,32.775,2.495981,-1.064318,-0.02691355,-0.06302069,34.87412,6.217861,23.88032,1007.409
19.870727539,-40.70039,26.78731,0.302116,-1.122454,0.02865916,-0.03695716,34.19916,4.790314,25.65272,1007.409
19.903010845,-41.25815,24.3805,-2.501156,-1.064016,0.05833952,-0.0388481,34.19916,4.790314,25.65272,1007.409
19.937777519,-42.12578,26.31769,-0.1854096,-1.008431,0.0456985,-0.1033371,33.12413,4.078883,26.11423,1007.409
19.970060825,-42.99341,26.25899,4.933609,-0.9833177,0.06616746,-0.08200356,31.7003,2.283526,27.03082,1007.409
20.002344608,-45.03854,31.54224,10.66204,-0.958661,0.06866416,-0.08010875,31.7003,2.283526,27.03082,1007.409
20.037110806,-34.37907,36.64938,13.34343,-0.9544888,0.1495402,-0.06563817,30.64096,0.4849882,28.00414,1007.412
20.069394112,-35.4946,33.47943,14.86695,-1.004336,0.1653478,-0.07124212,29.95401,-0.9481945,29.34082,1007.411
20.104160786,-33.88328,23.79347,17.67022,-1.020883,0.2098206,-0.07143702,29.95401,-0.9481945,29.34082,1007.412
20.136443615,-44.79065,16.86654,19.19373,-0.9531873,0.2163625,-0.05462537,28.17939,-2.733927,30.69866,1007.412
20.168726921,-55.14025,16.0447,22.72829,-0.8984407,0.1988771,0.02299085,27.45516,-3.454982,30.71892,1007.414
20.203493595,-44.91459,33.06851,22.72829,-0.8931511,0.1836219,-0.05639124,27.45516,-3.454982,30.71892,1007.416
20.235776424,-22.72802,-13.01317,-51.43654,-2.086949,-0.06376316,-0.07601282,27.08503,-6.008238,30.32102,1007.416
20.270543575,0.202231,10.17443,-49.48644,-0.7327678,-0.6715401,-0.3560134,25.2739,-7.507111,30.36783,1007.41
20.302826881,105.7434,-30.4479,-11.88602,-1.140553,-0.3005448,-0.06199505,25.2739,-7.507111,30.36783,1007.41
20.337593556,85.47798,-54.10511,10.17451,-1.082455,-0.1896866,-0.242296,26.35908,-6.730097,30.27904,1007.416
20.369876862,1.317757,-36.14207,22.54547,-1.075799,-0.2912436,-0.08528678,26.33021,-3.095404,29.42367,1007.418
20.402159691,50.02905,-42.89288,35.09926,-0.8310953,0.2049936,0.2003025,26.33021,-3.095404,29.42367,1007.416
20.436926365,112.4365,-17.18107,-16.76128,-1.15886,0.7451998,0.09288957,28.11709,-2.398389,28.45316,1007.414
20.469209671,-88.04826,-9.080084,-17.73633,-0.9283439,0.4458397,0.2391063,28.7947,-2.428904,26.69922,1007.414
20.503976822,-44.4188,-9.432301,0.3630567,-1.086838,-0.1253225,-0.09495522,29.8684,-0.988441,26.22849,1007.412
20.536259651,-1.780926,-3.796834,-0.3072911,-1.041578,-0.02679452,-0.04711555,29.8684,-0.988441,26.22849,1007.411
20.571026325,-3.516189,1.251605,-4.207496,-0.9705372,0.2072671,-0.01064677,29.88303,-2.44087,26.68268,1007.409
20.603309631,-23.84355,4.304149,-0.2463503,-0.9862416,0.1076027,0.009608254,29.50695,-1.713484,26.24323,1007.407
20.635592461,-14.98132,1.427713,3.897618,-1.022455,0.08572548,0.01052879,29.50695,-1.713484,26.24323,1007.407
20.670359135,-22.79,-0.6855869,2.617863,-1.012709,0.04501632,-0.01534594,29.85906,-2.452139,25.81122,1007.406
20.702642441,-21.30263,5.713016,-1.160461,-1.019746,-0.07383227,-0.09432361,29.87237,-3.175536,26.25618,1007.404
20.737409592,-1.718953,5.008583,-3.476208,-1.010635,-0.02818732,-0.05589205,29.87237,-3.175536,26.25618,1007.402
20.769692898,9.064465,2.014741,-3.354326,-1.031268,0.1047973,-0.06621053,29.15748,-2.432893,26.69371,1007.4
20.801975727,0.388152,-3.385915,-6.096658,-1.019615,0.1016084,-0.01742647,28.78338,-2.799054,26.26811,1007.4
20.836742401,-1.656979,-10.31284,-4.451259,-1.031489,-0.001625777,-0.05424576,28.78338,-2.799054,26.26811,1007.397
20.869025707,8.630649,-11.07598,-7.437354,-1.033693,0.1262585,-0.01435534,30.2225,-2.820643,25.81033,1007.395
20.903791904,-3.578162,-10.66506,-9.570278,-1.000747,0.1104975,0.01932475,30.19919,-3.196428,24.94349,1007.392
20.936075211,-5.437372,-13.6589,-9.448397,-1.047473,0.01971974,-0.02508363,30.19919,-3.196428,24.94349,1007.388
20.970841885,-0.3555319,-16.77015,-12.19073,-1.033465,0.02653975,-0.02362472,31.27487,-2.849513,24.4866,1007.387
21.003125668,0.07828372,-23.46227,-12.61731,-1.050378,0.0255579,-0.01344164,30.91077,-2.116492,24.48288,1007.387
21.035408497,5.036177,-33.08952,-15.84717,-1.058795,0.1053498,-0.02263858,30.91077,-2.116492,24.48288,1007.385
21.070175171,-11.2629,-37.60963,-16.09093,-0.9821358,0.03187611,0.07975087,31.60103,-2.505888,23.16929,1007.389
21.102458477,-2.52461,-34.7919,-15.23776,-1.075497,0.04709501,0.08003862,32.66407,-1.800092,22.27205,1007.387
21.137224674,-7.358556,-54.16382,-16.70034,-1.21057,0.1061359,0.05214256,32.66407,-1.800092,22.27205,1007.385
21.169507980,-26.88026,-60.2689,-14.20177,-1.254978,0.2953998,0.1045589,32.61547,-1.458114,20.52453,1007.385
21.204274654,-59.10656,-68.25248,-23.89134,-1.338395,-0.06347369,-0.05248566,34.36876,-1.141714,18.3137,1007.387
21.236558437,-36.17631,-87.91792,-30.35106,-1.276372,-0.1292191,-0.08490011,34.36876,-1.141714,18.3137,1007.387
21.268841744,-19.56737,-97.60387,-34.25126,-1.250509,-0.1745965,0.06900308,35.02069,-1.184303,15.62606,1007.389
21.303607941,54.98695,-82.86948,-28.70566,-0.7056799,-0.09879765,0.1272394,36.71407,-0.8960757,11.2366,1007.389
21.335891247,60.19273,-42.30586,-11.15474,-0.5397447,0.0202149,-0.02279101,36.71407,-0.8960757,11.2366,1007.389
21.370657921,99.66995,13.46178,11.81991,-0.5706932,0.1617869,-0.2036923,37.7032,0.869462,7.711163,1007.387
21.402940750,46.99234,48.50734,18.58433,-0.6507751,0.3049753,-0.151461,37.65025,2.668696,5.882929,1007.387
21.437707424,-29.42118,77.97614,23.27676,-0.712949,0.2611706,-0.03023299,37.32315,3.783941,7.244024,1007.385
21.469991207,-67.59695,102.2791,29.49271,-0.8265835,0.06737448,-0.001116794,37.32315,3.783941,7.244024,1007.385
21.502274513,-63.56867,119.479,40.52298,-0.9621891,-0.06187821,-0.04265175,36.31938,3.470833,10.31527,1007.385
21.537040711,-44.23288,120.3595,46.86081,-1.094169,-0.08315299,-0.06859396,34.96614,2.438316,13.837,1007.385
21.569324017,-30.04092,112.6108,44.24036,-1.21223,-0.04079976,-0.03715861,34.96614,2.438316,13.837,1007.384
21.604090691,-26.88026,111.7302,34.48985,-1.245949,-0.05942084,0.06578062,33.62791,0.683207,17.86593,1007.384
21.636373997,-37.04394,116.72,31.07717,-1.217304,-0.07987138,0.1473037,32.64944,-0.3476634,21.81786,1007.384
21.668656826,-13.80382,109.0299,28.15202,-1.144189,0.05166756,0.05942481,32.64944,-0.3476634,21.81786,1007.384
21.703423977,-31.21841,91.77129,26.75038,-1.076152,0.1392284,0.1361594,30.97202,-2.817351,26.67075,1007.389
21.735707283,-74.7859,82.61366,36.50089,-1.060579,0.122092,0.2070938,27.81992,-4.552517,30.72725,1007.391
21.770473957,-104.4093,67.93797,30.95529,-1.066387,-0.08411554,0.1952982,27.81992,-4.552517,30.72725,1007.391
21.802756786,-73.98025,34.53608,11.94179,-0.9721211,-0.2515199,0.2681093,24.2688,-7.091188,33.42985,1007.395
21.837523460,-28.4296,-25.22335,-17.24881,-1.678525,-0.3193228,-0.4360908,21.73664,-11.07294,33.51923,1007.395
21.869806766,-66.17156,-45.18229,-21.51466,-1.329254,-0.1252103,-0.2853904,21.73664,-11.07294,33.51923,1007.396
21.902089596,103.7602,-90.38343,-4.573141,-0.9089223,0.1100682,-0.04227231,20.62897,-13.62386,32.69664,1007.396
21.936856747,8.444728,-61.91258,-9.021811,-0.9505125,0.3224511,-0.02453816,22.0428,-12.92768,31.35817,1007.398
21.969140053,36.5188,-45.71062,-35.40914,-1.007359,0.3559053,0.3282014,22.0428,-12.92768,31.35817,1007.402
22.003906727,-16.53066,-24.98854,-21.20995,-0.9618747,0.1690051,-0.1704178,23.80477,-10.78307,29.55998,1007.402
22.036189556,-49.74854,-24.81243,-11.27662,-1.045229,-0.01373343,-0.3312954,25.56636,-9.368291,27.70879,1007.4
22.070956230,-27.00421,-6.262351,-7.498294,-1.008132,0.1128628,-0.1334125,25.56636,-9.368291,27.70879,1007.4
22.103239536,15.81959,-6.321054,-15.90811,-0.988766,0.09786876,-0.1475592,26.64337,-9.750406,27.26113,1007.4
22.135522842,-0.9132949,-14.30463,-11.33756,-0.9976247,0.173435,-0.1181042,27.37024,-10.48742,27.25933,1007.399
22.170289993,-9.775529,-19.70529,-7.07171,-0.9999283,0.1201468,-0.1329053,27.37024,-10.48742,27.25933,1007.399
22.202572823,-0.9752685,-26.2213,-5.182548,-1.012861,0.09129819,-0.06681039,27.34495,-9.769652,26.37865,1007.399
22.237339497,-4.569741,-23.63837,-4.816904,-1.002213,0.1104295,0.0004734127,27.31965,-9.05189,25.49796,1007.401
22.269622803,-1.285137,-17.65069,-4.573141,-0.9837762,0.08141848,-0.007949736,28.02256,-9.800168,24.62471,1007.401
22.304389000,0.8219677,-13.89371,-3.65903,-1.000313,0.1215326,-0.009136324,28.02256,-9.800168,24.62471,1007.399
22.336672306,-0.2935582,-12.89576,-5.487251,-0.9858182,0.1146844,-0.04304721,28.37269,-9.445275,24.17885,1007.399
22.368955612,-1.223163,-13.6589,-5.974777,-0.9880937,0.06786586,-0.005116857,28.35938,-8.721878,23.73389,1007.397
22.403722763,5.09815,-13.18928,-8.351464,-1.022149,0.1475403,-0.02731206,28.35938,-8.721878,23.73389,1007.396
22.436005592,-3.70211,-14.83296,-7.98582,-0.9968665,0.09345479,-0.01510467,28.7215,-8.361351,23.72376,1007.396
22.470772266,4.602361,-13.6589,-6.827947,-1.0277,0.05376444,0.008424608,29.07097,-7.641943,23.27329,1007.394
22.503055573,15.01394,-14.59814,-7.13265,-1.018666,0.1157041,5.54258E-05,29.07097,-7.641943,23.27329,1007.394
22.535338879,5.160124,-18.70734,-9.814041,-1.053245,0.2230675,0.009442309,29.78586,-8.384585,22.83576,1007.394
22.570105076,17.74078,-27.33665,-15.17682,-1.012142,0.02923808,0.04064202,30.13533,-7.665177,22.38529,1007.392
22.602388382,3.672756,-18.82475,-15.90811,-0.9874986,0.05024855,0.07938346,30.13533,-7.665177,22.38529,1007.394
22.637155533,-6.552898,-9.784517,-20.53961,-1.046163,0.0885302,0.001410495,30.4495,-7.327188,20.63225,1007.396
22.669438839,-9.341713,-16.47663,-20.2349,-1.023509,-0.08758078,-0.006891264,31.17428,-6.909897,20.61583,1007.396
22.704205036,2.371309,-27.57146,-15.54247,-1.054963,-0.08629911,-0.03050468,31.17428,-6.909897,20.61583,1007.392
22.736488342,12.84486,-40.95569,-14.01895,-1.128642,-0.01639857,-0.04735223,31.5111,-5.831607,19.72501,1007.393
22.768771648,-12.75026,-57.74469,-10.78909,-1.205399,0.1456088,-0.01387525,32.2007,-5.856488,18.4068,1007.393
22.803537846,-19.75329,-85.74591,-3.293386,-1.331631,0.6200298,0.145245,32.2007,-5.856488,18.4068,1007.401
22.835821152,-116.4322,-98.1909,-18.95515,-1.485119,-0.03739701,-0.2304101,32.49986,-4.795907,16.14656,1007.406
22.870588303,-85.69327,-120.8502,-37.17642,-1.368443,-0.2558393,-0.1004082,33.46767,-4.499702,11.76813,1007.406
22.902871609,-41.44407,-124.7833,-65.75761,-1.210873,-0.3929329,0.009663569,33.46767,-4.499702,11.76813,1007.411
22.937637806,91.92325,-103.2393,-59.48072,-0.6217051,-0.2457825,0.09383223,35.48879,-5.691235,6.022187,1007.418
22.969921112,129.4173,-48.93927,-22.91629,-0.4080291,0.08144188,-0.202566,36.09053,-3.568463,1.626193,1007.418
23.002204418,116.7747,8.589453,3.958558,-0.242216,0.3167408,-0.1667778,36.09053,-3.568463,1.626193,1007.418
23.036971092,56.0405,77.68262,24.00805,-0.5125847,0.4060959,0.01173494,36.37544,-0.3256168,-1.035226,1007.418
23.069253922,-18.32789,111.3193,21.75324,-0.7681584,0.3149027,0.02143602,36.40007,-0.6788635,-0.1591563,1007.416
23.104021072,-81.66498,125.408,26.75038,-0.9329467,0.08473256,0.07027663,35.7804,0.4733715,3.759568,1007.415
23.136304379,-73.60841,136.3267,35.40396,-1.104146,-0.1469508,-0.03654481,35.7804,0.4733715,3.759568,1007.413
23.171071053,-26.0746,138.2639,42.3512,-1.118509,-0.2050392,-0.02959256,34.07808,-0.5487165,7.784781,1007.411
23.203353882,14.20828,136.6202,40.88863,-1.219379,-0.09267619,-0.05967635,32.02458,-2.291019,12.19822,1007.411
23.235637188,33.35814,128.6953,30.16306,-1.247149,0.002160521,-0.03973971,32.02458,-2.291019,12.19822,1007.409
23.270403862,39.61748,115.2524,19.4375,-1.28204,0.07944625,0.09081993,29.94512,-2.951043,15.72636,1007.406
23.302686691,20.59157,124.2339,21.93607,-1.169439,0.08780841,0.03551279,27.16514,-3.2265,20.19461,1007.403
23.337453842,-0.4794792,107.4449,23.82523,-1.207927,0.2008533,0.01109969,27.16514,-3.2265,20.19461,1007.401
23.369737148,-49.31472,92.0061,30.28494,-1.090186,-0.003015038,0.29975,25.77528,-3.911405,22.40454,1007.401
23.402020455,-53.21907,63.41785,26.38474,-1.026639,-0.07578266,0.3359406,23.30841,-4.214194,25.06213,1007.399
23.436787129,-29.17328,25.14363,13.03872,-0.9474839,0.01228738,0.4107203,23.30841,-4.214194,25.06213,1007.401
23.469069958,-53.65288,-176.4417,-78.00669,-3.101486,0.2600634,1.378815,22.6461,-6.000623,27.27487,1007.399
23.503836632,15.5717,-105.1765,-15.17682,-1.101027,-0.1930007,-0.4907623,21.87469,-7.169484,25.55761,1007.399
23.536120415,97.99667,-89.15067,8.955696,-0.8528472,-0.2577129,0.05317028,21.87469,-7.169484,25.55761,1007.399
23.570887089,-5.747241,-10.07803,13.09966,-0.8381203,0.3290156,0.2469495,24.70422,-6.809931,22.89374,1007.405
23.603169918,-12.81224,-17.8268,-11.3985,-0.9423501,0.2015804,0.1439605,26.46818,-5.758864,21.10941,1007.405
23.635453224,-53.90078,-16.82885,-10.97191,-1.006152,0.2317563,-0.3227322,26.46818,-5.758864,21.10941,1007.403
23.670219898,-25.33092,-31.91547,6.883712,-1.038222,0.1308895,-0.2149463,27.53321,-6.146615,20.22603,1007.405
23.702502727,-34.68894,-26.86703,10.54015,-0.980267,0.03894072,0.0208075,27.87201,-6.161872,19.34906,1007.405
23.737269401,-11.44882,-18.12031,0.1192939,-1.031379,-0.0730057,-0.1262008,27.87201,-6.161872,19.34906,1007.403
23.769553184,2.371309,-11.83911,0.5458788,-0.9701279,0.0203364,-0.0513525,28.5869,-6.904515,18.91153,1007.401
23.804319859,10.17999,-16.41793,-2.074571,-1.038165,0.1775507,-0.01163686,28.21291,-7.33143,18.48671,1007.403
23.836603165,-12.37842,-14.53944,-2.562097,-0.9978994,0.1234769,-0.008647032,28.21291,-7.33143,18.48671,1007.401
23.868885994,-1.533031,-14.89166,-2.683979,-0.9823481,0.0818181,-0.03405623,28.56293,-6.915785,18.04008,1007.401
23.903652668,0.6980203,-16.59404,-2.135512,-1.006385,0.2376818,-0.001694681,28.88881,-7.36275,16.67052,1007.4
23.970703125,4.230519,-19.58788,-3.65903,-1.016851,0.1694584,0.01002593,28.90003,-6.931847,17.10086,1007.396
24.002985954,-7.916318,-15.7135,-8.838989,-0.9925379,0.1202471,0.03338222,28.53725,-6.927859,17.10638,1007.395
24.037752628,-3.578162,-8.669165,-8.534286,-1.017034,0.03827311,-0.002322113,29.58962,-6.956728,15.78265,1007.391
24.070035934,-4.321846,-7.964731,-7.92488,-1.002153,0.09064248,0.01631425,29.58962,-6.956728,15.78265,1007.391
24.102318764,-1.471058,-6.908082,-8.412404,-0.9972098,0.04663356,0.02040432,29.2142,-6.593858,15.34782,1007.391
24.137085438,0.4501257,-9.491003,-6.949828,-1.05613,-0.002592065,-0.03292685,30.27923,-6.981608,14.46444,1007.391
24.169368744,7.019334,-16.82885,-4.695022,-1.046345,0.1576583,-0.0199508,30.27923,-6.981608,14.46444,1007.389
24.204135895,-1.347111,-25.63427,-12.43449,-1.018747,0.1559291,0.01768811,30.26525,-5.893696,14.01486,1007.391
24.236419201,11.04762,-35.37893,-16.3347,-1.063595,0.1211199,0.06544727,30.62935,-6.626716,14.01858,1007.391
24.268702030,15.19986,-38.9011,-11.64226,-1.011301,0.3072138,0.1002334,30.62935,-6.626716,14.01858,1007.391
24.303468704,-36.17631,-36.8465,-10.66721,-0.9966912,0.28276,0.1546914,31.67974,-5.562037,12.68101,1007.397
24.335752010,-48.44709,-39.78164,-14.6893,-1.016217,-0.0888644,0.0365952,31.63114,-5.22006,10.93348,1007.396
24.370518208,-11.75869,-53.40068,-17.12693,-1.426652,0.05984192,-0.002766971,31.63114,-5.22006,10.93348,1007.404
24.402801991,-54.02472,-73.41833,-29.01036,-1.369086,0.06304105,0.03580225,33.04828,-6.346465,9.618089,1007.404
24.469851971,-69.51814,-112.9253,-39.43122,-1.446277,2.052682E-05,0.06848411,34.42483,-4.938164,6.963202,1007.411
24.502134800,-8.350134,-103.8264,-54.30076,-0.8313602,-0.04327669,0.3381217,34.31392,-4.260648,2.970183,1007.414
24.536901474,-9.341713,-70.7767,-33.64186,-0.2509752,0.1059638,0.3324016,35.65584,-3.598281,-0.9826522,1007.412
24.569184780,26.91288,-12.77836,-16.6394,-0.563752,-0.03534712,0.02383837,35.65584,-3.598281,-0.9826522,1007.412
24.603950977,61.80405,26.66991,-8.351464,-0.4433687,-0.04730095,-0.03546857,36.67094,-2.915023,-3.622791,1007.407
24.636235237,56.66024,55.66908,11.39332,-0.6352696,0.1361198,-0.01177389,38.1194,-1.472914,-3.663317,1007.402
24.671001434,33.04827,71.04921,20.41255,-0.7989559,0.03058625,-0.0274912,38.1194,-1.472914,-3.663317,1007.397
24.703284740,35.77511,85.25528,16.08576,-0.8698719,-0.02659604,0.009077844,37.44112,-1.077883,-1.913994,1007.395
24.735568047,41.35274,103.9815,16.57328,-1.019489,0.06205896,0.02150692,37.16489,-2.492516,1.160072,1007.395
24.770334244,25.73538,112.6695,20.59537,-1.090099,0.07206713,0.03573573,37.16489,-2.492516,1.160072,1007.393
24.802617550,30.75525,117.1896,21.32666,-1.166976,0.06014786,0.01069483,36.18311,-1.700807,5.088928,1007.39
24.837384701,33.48209,118.5985,24.06899,-1.19358,0.07176146,0.03305638,35.58044,-2.364711,9.528706,1007.394
24.869668007,35.83709,115.3111,29.18801,-1.210637,0.121005,0.01306871,33.9117,-3.006186,14.79424,1007.392
24.901950836,26.78893,106.9166,29.6146,-1.166143,0.1304497,0.04928442,33.9117,-3.006186,14.79424,1007.392
24.936717510,17.55486,97.28935,29.18801,-1.138685,0.1701713,0.03784857,31.8566,-2.925104,19.24685,1007.392
24.969000816,-3.640136,93.18016,29.6146,-1.046687,0.1328317,0.07998058,29.40305,-3.95129,22.34939,1007.389
25.003767014,-15.35316,81.08739,31.44282,-1.061658,0.1177166,0.05913905,29.40305,-3.95129,22.34939,1007.387
25.036050320,-30.04092,64.94412,30.10212,-1.060016,0.04375011,0.07950279,26.94883,-4.61296,25.44732,1007.389
25.070817471,-29.66907,43.63501,23.52052,-1.08352,-0.01612984,0.1367422,24.77481,-6.047092,25.49887,1007.389
25.103100777,-34.19315,30.42689,14.62318,-1.014791,-0.04449024,0.1349825,24.77481,-6.047092,25.49887,1007.389
25.135384083,-13.55592,-4.266457,0.4849381,-1.266227,-0.06765818,0.07979721,24.78889,-7.195757,25.94922,1007.389
25.170150280,-37.10591,-69.89616,-78.00669,-0.5725629,-0.9098098,0.3128159,24.07599,-7.546661,26.40059,1007.389
25.202433586,85.72588,-70.95281,-19.32079,-1.758616,0.5278598,-0.1313692,24.07599,-7.546661,26.40059,1007.385
25.237200260,88.70061,-85.92202,-5.670073,-1.037525,-0.1516052,-0.181263,26.91761,-7.242227,24.17322,1007.385
25.269484043,-4.259872,-40.77958,-1.769868,-0.9692314,0.1744662,0.3053328,28.65551,-5.048129,21.50281,1007.387
25.304250240,44.20353,-41.1318,9.138518,-0.9549888,-0.005390878,0.05530854,28.65551,-5.048129,21.50281,1007.389
25.336533547,57.71379,-20.35102,0.6677603,-1.010184,0.1846916,-0.07015266,30.41881,-3.632547,19.71387,1007.389
25.368816853,6.27565,-12.89576,3.166329,-0.9907305,0.1632191,0.003166017,31.84528,-3.295254,18.81573,1007.39
25.403583050,-2.896452,-15.18517,8.833815,-0.9829624,0.1057085,-0.1238387,31.84528,-3.295254,18.81573,1007.39
25.435866356,15.13788,-15.41998,2.3741,-1.021697,0.131287,-0.1115238,31.10708,-2.928396,18.38642,1007.389
25.470633507,5.09815,-14.12852,-0.1244689,-1.020638,0.1155446,-0.04538447,31.82065,-2.942008,17.93966,1007.387
25.502916813,-4.259872,-23.11005,-2.257394,-0.9988852,0.1175327,-0.04832068,31.82065,-2.942008,17.93966,1007.385
25.537683010,-7.668424,-17.8268,-2.501156,-0.9934853,0.08465383,-0.04465175,32.18276,-2.581481,17.92953,1007.384
25.569966316,-0.1696109,-14.53944,-2.562097,-1.000294,0.1147675,-0.006274198,31.79535,-2.224246,17.05898,1007.384
25.602249622,-4.507767,-13.13058,-5.913836,-1.003964,0.2381874,0.002653926,31.79535,-2.224246,17.05898,1007.384
25.637016297,-26.57039,-9.19749,-12.19073,-1.006855,0.236268,0.009900823,32.51025,-2.966888,16.62145,1007.385
25.669300080,-31.34236,-8.962678,-10.36251,-1.038759,0.007569424,-0.04789311,32.14443,-2.234673,16.55549,1007.385
25.704066276,-19.62934,-4.794781,-8.717108,-1.03238,-0.07119396,-0.1619628,32.49456,-1.879781,16.10963,1007.39
25.736349583,-9.341713,-5.323106,-9.69216,-1.029655,0.05416422,-0.01477397,32.49456,-1.879781,16.10963,1007.39
25.768632889,-8.164213,-6.614568,-10.11874,-1.039499,0.1213404,-0.03274146,33.22012,-1.887758,16.0986,1007.391
25.803399086,-13.92776,-13.83501,-13.0439,-1.026334,0.07100984,-0.04465854,33.91038,-2.277154,14.78501,1007.393
25.835682392,-7.544477,-20.76194,-13.53142,-1.032903,-0.01565075,-0.05045495,33.91038,-2.277154,14.78501,1007.395
25.870449066,-3.020399,-27.21924,-14.44553,-1.048809,-0.02867726,-0.02535593,33.53496,-1.914284,14.35018,1007.395
25.902732849,1.565652,-37.49223,-13.71425,-1.083239,-0.0008386003,-0.06379854,34.26051,-1.922261,14.33915,1007.398
25.937499046,12.65894,-49.5263,-14.26271,-1.054745,0.04405268,0.02148052,34.26051,-1.922261,14.33915,1007.398
25.969782352,-13.06013,-51.81571,-12.49543,-1.075102,0.08777424,0.08848753,35.28759,-1.233368,12.13473,1007.402
26.002065659,7.081307,-60.44501,-10.72815,-1.308805,0.3263757,0.008646745,35.61308,-0.5252285,10.81281,1007.403
26.036832333,-67.84486,-85.04147,-20.60055,-1.453536,0.09375533,-0.2543878,35.61308,-0.5252285,10.81281,1007.407
26.069115162,-59.78827,-115.2147,-33.45903,-1.473915,-0.2060536,-0.02834891,36.26739,-0.9315286,8.192031,1007.409
26.103882313,-37.53973,-121.672,-48.69421,-1.285315,-0.2293875,-0.07626506,37.24614,-0.9950104,4.191697,1007.409
26.136165619,11.29552,-119.9696,-76.84882,-1.157704,-0.1422248,0.1182979,37.24614,-0.9950104,4.191697,1007.41
26.170932293,98.8643,-86.62645,-64.23409,-0.5733457,0.01234601,0.2542471,38.92554,0.3811297,-0.6473396,1007.412
26.203215122,54.18129,-51.46349,-31.14329,-0.2352172,0.127664,0.1536187,40.62627,3.226603,-4.633385,1007.409
26.235498428,56.90813,-1.096506,-4.207496,-0.5786597,0.1535303,0.08005645,40.62627,3.226603,-4.633385,1007.403
26.270265102,71.34799,55.08205,17.85304,-0.462594,0.1490359,0.08364825,40.92647,4.652505,-6.835999,1007.403
26.302548885,13.34065,93.00405,22.05795,-0.6406829,0.192888,0.03690443,41.31255,5.0243,-5.974676,1007.4
26.337315083,-21.98434,109.6756,21.57042,-0.8187774,0.03298853,-0.01583229,41.31255,5.0243,-5.974676,1007.397
26.369598389,-32.39592,119.7138,28.33484,-0.9312543,-0.04571362,-0.01120299,41.78386,4.706508,-2.054034,1007.399
26.404365063,-14.98132,139.2618,36.62278,-1.028841,-0.08666907,-0.01896056,41.91835,3.310425,2.757424,1007.395
26.436648369,-8.164213,147.128,42.0465,-1.105918,-0.009993382,-0.03286163,41.91835,3.310425,2.757424,1007.395
26.468931198,-9.093818,149.1826,39.54793,-1.226036,0.08168883,-0.008876389,40.68667,2.335058,10.69866,1007.394
26.503698349,-36.23828,149.887,35.03832,-1.320453,0.1585981,0.06089613,39.08221,0.2644987,18.22354,1007.392
26.535981655,-72.80274,150.4741,38.93852,-1.298109,0.1141206,0.05479382,39.08221,0.2644987,18.22354,1007.39
26.570748329,-93.31602,129.9281,33.5148,-1.234775,0.1147496,0.04402525,35.63952,-2.527224,24.85152,1007.395
26.603031159,-125.2325,106.3296,29.43177,-1.133853,-0.003263237,0.1204869,30.34803,-4.950587,30.25753,1007.395
26.635314465,-122.0718,67.64445,29.37083,-1.080916,-0.08376481,0.168259,30.34803,-4.950587,30.25753,1007.397
26.670081139,-98.14997,29.48764,21.32666,-1.036114,-0.2220854,0.1543231,26.07467,-9.30386,32.99424,1007.397
26.702364922,-37.8496,-11.83911,0.4239974,-1.110098,-0.2359895,0.1123443,22.44285,-13.6438,32.66906,1007.399
26.737131119,72.2776,-109.6379,-59.54166,-1.593637,-0.4024673,0.2332996,21.34783,-16.55359,32.28681,1007.399
26.769414425,16.37736,-88.62234,-34.43409,-1.281172,0.1527804,-0.4042897,21.34783,-16.55359,32.28681,1007.399
26.804181099,30.13551,-93.84689,-11.58132,-0.9697245,0.04297268,-0.08361506,23.09914,-15.14365,30.06213,1007.399
26.836464405,-19.44342,-41.24921,-3.598089,-1.273472,0.1815768,0.8049377,25.18623,-13.02073,26.88901,1007.402
26.868747234,62.11392,-27.80627,3.958558,-0.8207607,0.03766667,-0.0617281,25.18623,-13.02073,26.88901,1007.402
26.903514385,9.560254,-24.75373,-9.082752,-1.245135,0.132435,-0.1550286,27.33759,-12.3269,25.97523,1007.404
26.935797691,-32.51986,-19.70529,-0.5510538,-0.9399369,0.1404853,-0.03671469,27.69905,-11.60185,25.96048,1007.404
26.970564365,11.79131,-21.05545,5.299253,-0.9806052,0.1650823,-0.02681841,27.69905,-11.60185,25.96048,1007.406
27.002847195,4.788282,-16.53534,2.861626,-0.9839539,0.1344361,-0.07097837,28.40063,-11.6211,25.078,1007.411
27.037613869,6.399597,-22.1121,9.199459,-1.009964,0.1005765,-0.04452571,28.76341,-11.62509,25.07248,1007.411
27.069897175,25.17762,-27.57146,7.066534,-1.040549,0.144942,-0.06451195,28.76341,-11.62509,25.07248,1007.411
27.102180958,12.10117,-22.64043,1.947515,-1.050986,0.03383644,-0.1405376,28.7401,-12.00087,24.20564,1007.411
27.136947155,15.38578,-25.10594,2.861626,-0.9960544,0.1622065,-0.005530163,29.45234,-11.28545,23.74965,1007.41
27.169230461,1.19381,-16.24182,0.7896417,-0.9596878,0.1378051,0.04598066,29.45234,-11.28545,23.74965,1007.408
27.203997135,0.5120994,-9.549706,0.9115231,-0.990734,0.1680911,0.0128625,29.41506,-10.57333,22.43324,1007.406
27.236280441,-5.995135,-6.731973,1.338108,-0.9854108,0.1622599,0.001215343,30.5034,-10.58529,22.4167,1007.406
27.271047592,-7.730398,-6.614568,-1.830809,-0.9951308,0.1986792,0.04640317,30.5034,-10.58529,22.4167,1007.404
27.303330422,-12.06855,-7.906028,-4.085615,-1.001924,0.2049132,0.03533417,30.49273,-11.31996,21.9902,1007.404
27.335613728,-24.83513,-15.8309,-3.71997,-1.051688,0.1414179,-0.09544807,30.12863,-10.58694,21.98649,1007.403
27.370380402,-23.65763,-20.87934,-3.232445,-1.040499,0.1519905,0.01626228,30.12863,-10.58694,21.98649,1007.403
27.402663231,-23.65763,-20.29231,-2.866801,-1.010964,0.1444172,0.04129438,30.10466,-10.59821,21.11503,1007.403
27.437429905,-25.70276,-17.41588,-4.329378,-1.021423,0.07866916,0.06946596,31.1577,-10.99159,19.79592,1007.403
27.469713211,-21.67447,-16.35923,-4.390318,-1.018781,-0.02790287,0.0350136,31.1577,-10.99159,19.79592,1007.403
27.501996994,-4.445794,-21.05545,-2.318334,-1.05823,0.1017812,0.06629263,31.85994,-11.37535,18.91805,1007.403
27.536763191,-11.07697,-26.3387,-2.196453,-1.039735,0.2635459,0.09037761,32.56219,-11.75912,18.04018,1007.403
27.569046497,-23.28579,-29.68476,-2.623038,-0.9865936,0.3079647,0.1581971,32.53888,-12.1349,17.17335,1007.403
27.603813172,-49.81051,-25.81038,-1.830809,-0.9149712,0.3147602,0.2465506,32.53888,-12.1349,17.17335,1007.403
27.636096478,-59.54038,-22.0534,-2.196453,-0.9474272,0.1009245,0.1482335,33.94099,-12.53871,15.35074,1007.403
27.670863629,-48.88091,-30.97622,-6.462302,-1.099532,-0.2426088,0.006410826,33.51895,-12.92741,13.18224,1007.403
27.703146458,-2.958426,-42.01234,-13.95801,-1.301396,-0.3764996,-0.06256371,33.51895,-12.92741,13.18224,1007.406
27.735429764,39.49353,-65.84566,-18.65044,-1.334286,0.05867874,0.004278925,33.48366,-13.30883,11.87968,1007.41
27.770196438,9.126438,-89.32678,-15.72529,-1.362449,0.2652594,-0.1308155,34.87484,-13.35296,9.678983,1007.415
27.802479267,-24.21539,-108.1117,-22.79441,-1.452722,0.07313637,0.08680096,34.87484,-13.35296,9.678983,1007.415
27.837245941,-31.28039,-108.4052,-33.64186,-1.111871,-0.1205345,0.05402508,35.50081,-12.31327,6.106043,1007.418
27.869529724,13.89841,-81.16709,-51.31466,-0.8195884,-0.1588559,0.2083611,36.81677,-10.56863,1.267907,1007.422
27.904296398,48.35577,-47.29559,-39.18746,-0.2615127,0.0335381,0.2464439,36.81677,-10.56863,1.267907,1007.422
27.936579227,47.42616,-1.448723,-5.852895,-0.3221108,0.5442665,0.3539012,37.09301,-9.153994,-1.80616,1007.417
27.968862534,-45.28644,62.83082,3.166329,-0.4609492,0.3012849,0.170079,38.50552,-7.728788,-3.153866,1007.417
28.003629208,-86.06511,116.2504,17.60928,-0.5716547,0.2688259,0.1101867,38.50552,-7.728788,-3.153866,1007.417
28.035912514,-113.9533,138.3226,27.17697,-0.801662,0.1613252,-0.001603185,38.56467,-7.275347,-0.9806173,1007.414
28.070679665,-137.3173,148.126,36.31807,-0.9183288,-0.001746905,-0.04288781,36.84744,-7.635596,2.53816,1007.412
28.102962494,-131.2439,157.2836,47.04364,-1.038087,-0.05713147,-0.005719835,36.84744,-7.635596,2.53816,1007.41
28.137729168,-123.4972,152.4113,51.06572,-1.22379,-0.05481772,-0.02271024,35.89531,-9.018909,7.428411,1007.41
28.170012474,-123.931,130.4564,49.54221,-1.33363,-0.004622781,0.03099015,33.09427,-11.85805,10.99528,1007.409
28.202295303,-130.0044,113.1391,57.22073,-1.321526,-0.002081762,0.05660077,33.09427,-11.85805,10.99528,1007.409
28.237062454,-150.3938,100.2245,57.89108,-1.284832,0.05741312,0.1603158,30.26925,-14.70846,13.69069,1007.405
28.304112434,-133.6609,60.89363,36.37901,-1.05881,-0.05201583,0.09345885,26.31392,-20.85009,14.70128,1007.405
28.336395264,-131.5538,34.35997,16.69517,-1.040534,-0.1886626,0.1675755,26.31392,-20.85009,14.70128,1007.407
28.368678570,-113.7054,9.528697,-3.415267,-1.124037,-0.3251061,-0.04089899,25.20691,-23.76552,13.8833,1007.41
28.403445244,27.0988,-48.11743,-46.56129,-0.8919756,-0.7629009,-0.7632452,24.03866,-25.98009,10.87746,1007.414
28.435729027,78.22707,-66.90232,-23.28194,-1.279402,0.1960872,-0.4784968,24.03866,-25.98009,10.87746,1007.412
28.470495701,-4.259872,-42.12975,0.6068196,-1.118924,0.2310916,0.7198009,25.10169,-25.27429,9.980225,1007.412
28.502778530,-3.454215,-27.51276,-7.98582,-0.9117896,0.03005847,-0.2307787,26.52685,-24.20797,9.072862,1007.412
28.537545204,80.0243,-38.13796,-5.791955,-1.044832,0.08217355,-0.1620308,26.52685,-24.20797,9.072862,1007.41
28.569828510,27.16077,-13.42409,5.055491,-1.037789,0.2176657,-0.02687962,27.25306,-24.58046,9.066446,1007.409
28.602111340,-38.28341,-9.021381,5.238313,-0.9899948,0.05626898,0.001589443,27.23909,-23.49254,8.616872,1007.407
28.636878491,37.01459,-23.69708,-2.196453,-1.013469,0.3296948,-0.1186318,27.23909,-23.49254,8.616872,1007.407
28.669161797,0.1402574,-26.57351,-15.35964,-0.9795786,0.3602636,0.0197324,27.22909,-24.59173,8.194992,1007.406
28.703928471,-21.3646,-16.59404,-10.17968,-0.9199834,0.1034449,0.01185901,27.942,-24.24082,7.74362,1007.404
28.736211300,-10.33329,-11.13468,-2.866801,-1.018576,0.09164524,0.04052729,27.942,-24.24082,7.74362,1007.402
28.770977974,-4.445794,-5.323106,-1.03858,-1.015778,0.1019773,-0.05465742,27.9167,-23.52306,6.862933,1007.4
28.803261757,-5.623293,-5.499215,-1.343283,-1.004313,0.1776622,-0.007358239,28.99305,-23.54066,6.410661,1007.4
28.835545063,-7.420529,-3.855537,0.4239974,-0.9955491,0.1530133,-0.005583524,28.99305,-23.54066,6.410661,1007.4
28.870311737,-4.507767,-1.566128,0.3630567,-0.9843912,0.1395131,-0.0003665073,28.61657,-23.54311,5.918203,1007.399
28.902594566,-8.10224,0.4884687,0.6677603,-1.0022,0.1031542,-0.00440237,28.6179,-24.27214,5.927435,1007.399
28.937361240,0.8839414,-0.392073,0.1192939,-1.004245,0.1486232,-0.008490376,28.6179,-24.27214,5.927435,1007.397
28.969644547,-0.2935582,-1.683534,-0.7948167,-1.016297,0.1296827,-0.01824087,28.96869,-24.28177,5.486192,1007.397
29.001928329,2.433283,-0.6268841,-1.160461,-1.001668,0.08185126,-0.007908713,28.60525,-23.91326,5.487092,1007.397
29.036694527,1.627625,3.306202,-1.282342,-0.9982747,0.08922797,0.02403287,28.60525,-23.91326,5.487092,1007.395
29.068977833,5.77986,6.065232,-2.866801,-1.023588,0.1544258,0.006570906,28.60525,-23.91326,5.487092,1007.395
29.103744507,3.176967,7.004477,-3.354326,-0.980626,0.1806335,-0.007392395,28.99266,-24.2705,6.357645,1007.395
29.136027336,1.627625,2.953985,-3.841852,-1.00192,0.1770754,-0.03975713,28.99266,-24.2705,6.357645,1007.394
29.170794487,-6.862766,-1.39002,-6.523243,-1.000199,0.2719785,-0.0252015,28.61856,-24.63666,5.932051,1007.394
29.203077793,-14.60947,-0.4507757,-9.143693,-0.9652515,0.234999,0.02865805,28.97869,-23.18258,5.908072,1007.392
29.235361099,-29.6071,0.9580909,-9.021811,-0.9883299,0.1665758,-0.007939161,28.97869,-23.18258,5.908072,1007.392
29.270127773,-23.84355,3.130094,-7.681117,-1.01278,0.07941783,-0.002580775,29.35411,-23.54545,6.342898,1007.396
29.302410603,-25.45486,2.366957,-7.254531,-1.02689,0.1063811,-0.03091994,29.69226,-23.1962,5.461313,1007.394
29.337177277,-29.11131,0.4884687,-9.326515,-1.003784,0.1612379,0.0007656908,30.03041,-22.84694,4.579729,1007.394
29.369461060,-29.79302,2.308255,-13.95801,-0.9857913,0.1245694,0.01792221,30.03041,-22.84694,4.579729,1007.394
29.404227734,-29.91697,1.545119,-12.06885,-1.025303,0.05515434,-0.01187708,30.38119,-22.85656,4.138486,1007.394
29.436510563,-11.94461,1.310308,-13.59236,-1.013683,0.04645224,-0.01920319,30.38119,-22.85656,4.138486,1007.39
29.468793869,-13.55592,1.36901,-15.05494,-1.042225,0.04924967,-0.02637735,30.38119,-22.85656,4.138486,1007.392
29.503560543,-11.88263,0.664577,-18.89421,-1.00884,0.0420976,-0.02310589,30.73199,-22.86618,3.697244,1007.392
29.535844326,-11.015,-4.090348,-16.21282,-1.03785,0.03909306,-0.02837828,31.42225,-23.25558,2.383648,1007.395
29.570610523,-12.56434,-4.853484,-18.52856,-1.008448,0.09156452,0.008114605,31.42225,-23.25558,2.383648,1007.404
29.602893829,-23.90552,-1.448723,-22.48971,-1.00321,0.1371771,0.04026962,31.43159,-21.79189,2.800911,1007.406
29.637660504,-54.95433,4.656366,-22.42877,-1.027686,0.2697666,0.05944694,32.13251,-21.44661,1.913811,1007.41
29.669943810,-131.6157,15.69249,-24.74451,-0.9737586,0.6002423,0.1438778,32.13251,-21.44661,1.913811,1007.41
29.702226639,-288.5331,24.3218,-25.84145,-0.9976642,0.8743701,0.08844221,31.73311,-21.09501,0.6075301,1007.413
29.736993790,-454.5605,34.30127,-13.83613,-1.026304,0.6114613,-0.2141732,32.73557,-20.05287,-2.472952,1007.413
29.769277096,-484.7417,37.47122,-14.56742,-1.115683,0.1024259,-0.4092835,32.73557,-20.05287,-2.472952,1007.411
29.804043770,-375.9779,15.22287,-19.44267,-1.157164,-0.3242652,-0.3362039,33.27001,-20.51552,-9.450995,1007.411
29.836326599,-201.646,-17.41588,-30.59482,-1.062654,-0.5839934,-0.2324947,33.43402,-17.69434,-16.52731,1007.411
29.868609905,-89.72156,-43.36251,-27.1212,-1.115736,-0.3677518,-0.06581474,33.43402,-17.69434,-16.52731,1007.406
29.903377056,-27.37605,-44.41916,-14.81118,-0.9888567,-0.2195591,0.002919283,34.76932,-13.38682,-20.52631,1007.404
29.935660362,-12.31645,-42.42326,-13.16578,-0.9641119,-0.04326677,0.0246562,34.34199,-10.85939,-22.73174,1007.409
29.970426559,-28.98736,-36.08336,-12.73919,-0.9586371,0.1171415,0.08792006,34.34199,-10.85939,-22.73174,1007.407
30.002709866,-69.70406,-28.80422,-13.10484,-0.9360937,0.1887705,0.07135841,33.56915,-11.23847,-24.459,1007.407
30.037476540,-103.9135,-19.9988,-11.7032,-0.9326301,0.1514784,0.05953637,33.50553,-10.1739,-26.71373,1007.405
30.069760323,-112.28,-10.19544,-5.852895,-0.9170771,0.1073836,0.02927893,33.50553,-10.1739,-26.71373,1007.403
30.102043629,-108.4376,-15.8309,-3.841852,-0.9824497,0.1239117,-0.03623386,33.08084,-9.104534,-28.90069,1007.402
30.136809826,-93.06813,-17.65069,0.2411753,-0.9678346,0.08091137,-0.0282914,32.30327,-6.871248,-30.66103,1007.402
30.169093132,-77.32682,-20.35102,4.811728,-0.9963158,0.06050481,-0.02834605,31.87726,-5.072854,-32.85723,1007.402
30.203859806,-51.4838,-21.87729,15.72011,-1.013976,-0.0426739,-0.04388126,31.87726,-5.072854,-32.85723,1007.398
30.236142635,-23.40973,-22.99264,22.05795,-0.9654091,-0.1354827,-0.0541824,31.46588,-4.726888,-34.59924,1007.398
30.270909786,-30.35078,-36.14207,14.07472,-0.9717618,-0.06882899,0.0564343,30.31326,-3.285837,-36.84203,1007.396
30.303193092,-12.75026,-7.612514,15.78105,-0.7772526,0.1974929,-0.2025606,30.31326,-3.285837,-36.84203,1007.396
30.335476399,-96.60063,28.37229,21.3876,-1.013851,-0.3445985,-0.1741929,29.17632,-2.931894,-38.57301,1007.396
30.370242596,-101.7444,33.06851,17.48739,-1.167141,-0.4984556,-0.03550704,29.53778,-2.206851,-38.58776,1007.396
30.402525902,33.17222,10.11572,9.869807,-0.9958858,-0.3916408,-0.2194589,29.53778,-2.206851,-38.58776,1007.398
30.437293053,31.8088,17.74709,16.39046,-1.061607,0.08763112,0.03479594,31.33373,1.048214,-39.09261,1007.396
30.469576359,4.726308,17.39487,18.21868,-1.00566,0.1844405,0.1377148,31.3477,-0.03969908,-38.64303,1007.396
30.504343033,-28.55355,14.69454,22.91112,-0.9987429,0.0985752,0.06953026,31.3477,-0.03969908,-38.64303,1007.395
30.536625862,-26.19855,10.99627,20.96101,-1.147387,-0.2773733,-0.07296766,32.07523,-1.141223,-38.64022,1007.395
30.568909168,25.48748,8.413344,19.92502,-1.170642,-0.05728186,-0.08085145,32.80079,-1.1492,-38.65125,1007.396
30.603676319,15.13788,6.534855,15.47635,-1.043918,0.1777372,0.048323,32.80079,-1.1492,-38.65125,1007.398
30.635959625,-9.403687,3.423608,12.8559,-1.006633,0.1687768,0.0858999,32.82476,-1.137931,-37.7798,1007.4
30.670725823,-11.20092,6.710963,9.626044,-1.005445,0.06511728,0.05533475,33.19019,-2.599983,-37.76685,1007.398
30.703009129,-5.561319,8.002425,7.736882,-0.9967176,0.05009124,0.04072734,33.19019,-2.599983,-37.76685,1007.398
30.735292435,-4.941583,7.180585,6.274305,-1.034878,0.01691599,-0.006272601,32.81542,-2.601628,-38.19706,1007.398
30.770058632,-0.0456636,5.302096,3.836677,-1.011272,0.05669208,0.001637706,33.56495,-2.598336,-37.33664,1007.398
30.802342892,-0.6654002,0.664577,2.617863,-1.03937,0.06812463,-0.02820993,33.56495,-2.598336,-37.33664,1007.4
30.837109089,2.805125,-5.323106,0.9724638,-1.055304,0.06133349,-0.01951231,32.83807,-1.861328,-37.33484,1007.398
30.869392395,1.813546,-7.260298,-0.6729352,-1.020547,0.1100568,0.04885468,33.93971,-2.596691,-36.90642,1007.398
30.904159069,1.627625,-1.80094,-1.830809,-0.9521679,0.03924203,0.08601287,33.93971,-2.596691,-36.90642,1007.396
30.936441898,0.2642047,3.012688,0.3630567,-0.9912964,-0.006644238,0.001717967,32.47728,-2.950887,-37.31548,1007.396
30.968725681,10.61381,6.182638,0.7896417,-0.9854833,-0.009027635,0.007493151,33.20217,-2.594348,-37.33112,1007.396
31.003492355,19.72393,10.46794,0.4849381,-0.9939418,0.09453742,0.0163187,33.20283,-2.958864,-37.3265,1007.396
31.035775661,5.408019,7.004477,0.1192939,-1.054382,0.08997977,0.007721153,33.20283,-2.958864,-37.3265,1007.396
31.070541859,6.089729,3.130094,0.302116,-1.000567,0.03110049,0.009204142,33.20283,-2.958864,-37.3265,1007.398
31.102825165,12.84486,6.358747,1.155286,-1.021453,0.08880382,0.0613052,33.95367,-3.684603,-36.45685,1007.402
31.137592316,10.48986,11.17237,1.703752,-0.994768,0.03110234,0.004840706,33.95367,-3.684603,-36.45685,1007.404
31.169875622,19.1042,10.87886,2.130337,-1.048015,0.04000077,-0.03753655,33.24182,-3.670187,-35.94785,1007.407
31.202158928,21.14933,9.939616,4.385143,-0.9949102,0.08377847,-0.01613078,33.96699,-4.408,-36.01189,1007.407
31.236925125,13.83644,9.17648,3.044448,-0.9929634,0.07357401,-0.03021272,33.96699,-4.408,-36.01189,1007.412
31.269208431,16.37736,7.650208,2.130337,-1.045187,0.07097722,-0.03833339,33.95566,-4.778151,-36.443,1007.418
31.303975582,13.27867,1.956038,2.252219,-1.052951,0.08208381,-0.03873694,35.05796,-5.878029,-36.00997,1007.426
31.336258888,11.66736,-3.385915,2.617863,-1.077091,0.0787484,-0.002929416,35.05796,-5.878029,-36.00997,1007.438
31.371025086,9.002491,-4.853484,1.399049,-1.006557,0.09823366,-0.02472538,33.98294,-6.58946,-35.54847,1007.438
31.403308392,8.940517,-9.373598,-1.404224,-1.037399,0.04335972,-0.05494412,34.34571,-6.593449,-35.55399,1007.447
31.435591698,10.73775,-8.845273,-0.002587515,-1.027684,0.05187623,0.02243356,34.34571,-6.593449,-35.55399,1007.46
31.470358849,13.71249,-5.088295,2.3741,-1.000218,0.09114178,0.01921355,34.70915,-6.961953,-35.55489,1007.468
31.502641678,5.717887,-3.738132,-0.1244689,-0.9895609,0.0687706,-0.02251234,33.97162,-6.95961,-35.97958,1007.475
31.537408352,8.258807,-3.444618,-0.002587515,-1.004515,0.07180659,0.02926509,33.97162,-6.95961,-35.97958,1007.475
31.569691658,11.04762,0.2536576,-1.221402,-1.015204,0.07938308,-0.01079421,33.62215,-7.679019,-35.52911,1007.483
31.601974964,13.40262,-0.920398,-2.866801,-0.9943534,0.05280843,-0.01630807,33.61016,-7.684653,-35.96483,1007.492
31.636742115,12.72091,-1.742237,-3.293386,-1.026234,0.03526464,-0.02552445,33.61016,-7.684653,-35.96483,1007.499
31.669024944,13.09275,-0.6855869,-1.891749,-1.020095,0.1177454,0.0324605,33.62358,-8.468803,-35.5191,1007.505
31.703791618,12.10117,-2.564076,1.155286,-1.021464,0.07458807,0.007562692,33.6116,-8.474438,-35.95483,1007.505
31.736074924,11.23354,-3.268509,1.52093,-0.9978158,0.07788768,-0.03839619,33.6116,-8.474438,-35.95483,1007.51
31.770841122,-0.2935582,-2.622779,-0.002587515,-1.012287,0.08287716,0.0182257,33.2608,-8.464814,-35.51359,1007.515
31.803124428,-1.409084,-0.6855869,-0.4291725,-1.000645,0.06742954,0.01956309,32.89935,-9.189857,-35.49884,1007.518
31.835408211,-0.6654002,-2.798887,0.05835319,-1.020913,0.0352864,-0.02360204,32.89935,-9.189857,-35.49884,1007.518
31.870174885,-0.0456636,-2.564076,1.094345,-1.013748,0.08332089,0.007595716,32.91371,-9.547934,-34.99625,1007.522
31.902457714,0.4501257,-1.977048,-0.3682317,-1.011793,0.07217314,0.0007599756,33.61226,-8.838953,-35.95021,1007.522
31.937224388,-1.099216,-2.974995,-0.1854096,-1.004998,0.06252375,0.003591097,32.89935,-9.189857,-35.49884,1007.524
31.969507694,-0.2935582,-3.033698,0.1192939,-1.028729,0.07549588,-0.004019017,32.89935,-9.189857,-35.49884,1007.524
32.004274845,-1.223163,-2.85759,0.302116,-1.010306,0.05913578,0.007934221,32.89869,-8.825342,-35.50346,1007.522
32.036558151,-1.471058,-4.090348,0.728701,-1.013781,0.08953662,-0.01460705,32.90001,-9.554373,-35.49422,1007.522
32.068840981,-0.4175056,-3.209806,-0.002587515,-1.008353,0.06361461,0.04276307,32.90001,-9.554373,-35.49422,1007.522
32.103607655,0.4501257,-1.096506,-0.9776388,-1.016641,0.08187884,0.01291158,32.16181,-9.187515,-35.92354,1007.522
32.135890961,0.6360467,-0.8029924,-0.6729352,-1.013687,0.05474291,-0.0003019273,32.52459,-9.191504,-35.92905,1007.522
32.170658112,-0.2315846,1.310308,0.4239974,-0.9904616,0.06317856,0.04175515,32.52459,-9.191504,-35.92905,1007.524
32.202940941,-0.6654002,4.128041,0.4239974,-1.011791,0.08342143,0.03563152,32.53591,-8.821353,-35.49794,1007.524
32.237707615,-0.4794792,5.947827,0.05835319,-0.9986798,0.0460603,-0.004734588,32.1738,-9.181881,-35.48781,1007.524
32.269990921,-0.6034265,5.419502,0.9115231,-1.024874,0.07887314,-0.01029283,32.1738,-9.181881,-35.48781,1007.524
32.302273750,-1.656979,5.478205,-0.6119946,-1.001664,0.08138043,-0.004043889,32.53591,-8.821353,-35.49794,1007.524
32.337041378,-0.9752685,2.777877,-1.891749,-1.024875,0.07886823,-0.01174317,32.88736,-9.195492,-35.93457,1007.524
32.369324207,-4.445794,1.075496,-2.744919,-1.014611,0.0353699,-0.004277598,32.88736,-9.195492,-35.93457,1007.522
32.404090881,-9.775529,-1.39002,0.2411753,-1.023384,0.06144767,-0.01281231,33.26014,-8.100299,-35.5182,1007.522
32.436374188,-8.907897,-3.679429,0.8505824,-1.016562,0.03969351,-0.01198383,32.89803,-8.460826,-35.50807,1007.526
32.468657017,-7.482503,-6.731973,3.288211,-1.034414,0.03003095,0.007820693,32.89803,-8.460826,-35.50807,1007.521
32.503424168,-7.296582,-9.84322,6.457127,-1.015144,0.04884807,-0.02498768,33.24882,-8.470449,-35.94931,1007.525
32.535707474,-15.29118,-16.24182,5.482076,-1.014213,0.07411177,0.003676846,33.2608,-8.464814,-35.51359,1007.521
32.570474148,-15.78697,-18.41383,4.202321,-1.019557,0.09695914,0.03862586,33.2608,-8.464814,-35.51359,1007.521
32.602756977,-11.75869,-16.12442,3.531973,-1.003607,0.1008844,0.041031,32.49786,-7.683957,-36.81974,1007.525
32.637523651,-9.279739,-12.19133,3.410092,-1.004511,0.08550893,0.07430278,31.77308,-8.101249,-36.80332,1007.525
32.669807434,-6.366977,-6.321054,4.019499,-1.002559,0.0758146,0.06795876,31.77308,-8.101249,-36.80332,1007.523
32.702090740,-6.490924,-3.50332,4.446084,-1.00162,0.08498579,0.06027386,31.0108,-7.684907,-38.10486,1007.521
32.736857414,-10.33329,-5.029593,2.556922,-1.051456,0.09986321,0.06578369,31.74911,-8.112517,-37.67478,1007.521
32.769140243,-9.775529,-5.440512,1.459989,-1.014706,0.08922029,0.03567077,31.74911,-8.112517,-37.67478,1007.518
32.803906918,-8.164213,-3.679429,1.094345,-0.9924559,0.09517619,0.06079549,31.0108,-7.684907,-38.10486,1007.518
32.836190700,-6.181056,-2.329265,1.642812,-0.9948506,0.09233287,0.08060547,31.01013,-7.320391,-38.10947,1007.518
32.870957375,-4.135925,-0.8029924,1.155286,-0.9953174,0.08458208,0.07862864,30.99815,-7.326025,-38.5452,1007.518
32.903240204,-1.780926,-1.096506,0.4849381,-1.014187,0.07764014,0.04527258,30.99815,-7.326025,-38.5452,1007.518
32.935523510,-0.4794792,-2.270562,0.2411753,-1.025822,0.0906763,0.04633866,31.01013,-7.320391,-38.10947,1007.516
32.970290184,-0.0456636,-2.153157,1.033404,-0.9962858,0.08213019,0.0699149,30.99749,-6.96151,-38.54982,1007.518
33.002573967,0.8219677,-1.037804,2.130337,-0.9952839,0.0695721,0.07612605,30.99749,-6.96151,-38.54982,1007.518
33.037340164,2.867098,-0.3333702,3.471033,-1.013201,0.07185542,0.05103883,30.99749,-6.96151,-38.54982,1007.518
33.069623470,3.982624,0.3123603,3.531973,-1.016127,0.08640429,0.06273039,30.6467,-6.951887,-38.10857,1007.518
33.101906776,3.05302,1.545119,3.653855,-0.9948506,0.09233287,0.08060547,30.6467,-6.951887,-38.10857,1007.519
33.136673927,2.185388,1.897335,3.166329,-1.005513,0.0975749,0.06567166,31.01157,-8.110175,-38.09947,1007.519
33.168957233,1.813546,1.603822,2.130337,-1.005525,0.1019237,0.06376266,30.63604,-7.686553,-38.53507,1007.519
33.203723431,1.255783,1.427713,1.825634,-1.005993,0.09612336,0.06614788,30.63604,-7.686553,-38.53507,1007.518
33.236006737,0.4501257,1.075496,0.728701,-1.007425,0.0869131,0.06271452,31.36302,-8.484314,-38.5361,1007.518
33.270773411,1.131836,0.8406854,-0.2463503,-1.025334,0.08825149,0.04439006,30.99958,-8.115809,-38.5352,1007.514
33.303057194,2.681177,-0.5681813,-1.587046,-1.020558,0.110011,0.03531816,30.99958,-8.115809,-38.5352,1007.512
33.335340023,4.106572,1.075496,-3.902792,-0.9910688,0.109577,0.02509992,30.66001,-7.675284,-37.66362,1007.513
33.370106697,8.13486,0.4884687,-6.706065,-1.015666,0.07898458,0.01482677,31.01223,-8.474691,-38.09486,1007.51
33.402390003,7.267229,1.956038,-5.670073,-1.003568,0.08980644,0.05643797,31.01223,-8.474691,-38.09486,1007.51
33.437156201,1.317757,6.887072,-5.060666,-0.9851916,0.07765101,0.02393885,31.01157,-8.110175,-38.09947,1007.505
33.469440460,2.371309,9.528697,-4.207496,-0.9769034,0.04374874,0.008741619,30.64945,-8.470702,-38.08934,1007.5
33.504206658,6.27565,12.81605,-3.71997,-0.9692215,0.07384159,0.02871716,30.64945,-8.470702,-38.08934,1007.493
33.536489964,5.036177,14.16622,-2.135512,-1.010839,0.09557811,0.0521355,31.04675,-7.668003,-36.79768,1007.484
33.568773270,2.681177,12.52254,-1.221402,-1.035004,0.09360439,0.0613617,32.13586,-8.105237,-36.80884,1007.475
33.603539467,3.05302,11.7594,-0.9166981,-1.005519,0.09266353,0.04437244,32.13586,-8.105237,-36.80884,1007.475
33.635823250,1.565652,9.939616,1.155286,-0.9973348,0.1008467,0.02458035,32.17181,-8.088333,-35.50166,1007.465
33.670589924,-2.710531,7.239288,3.22727,-1.012792,0.09451789,0.02651143,32.1838,-8.082699,-35.06593,1007.458
33.702873230,-2.462636,7.121882,2.313159,-1.004552,0.08142783,0.01239952,32.53525,-8.456838,-35.50256,1007.451
33.737639427,-1.099216,7.063179,-0.4901132,-1.003649,0.1026661,-0.004402021,32.53525,-8.456838,-35.50256,1007.446
33.769922733,1.87552,9.704805,-3.354326,-1.023051,0.1209313,-0.02456078,32.57226,-8.074614,-34.13774,1007.446
33.802206516,-0.6034265,11.11367,-5.548192,-0.978596,0.1311915,-0.03330014,32.94768,-8.437483,-33.70292,1007.439
33.836973190,-7.978292,13.57919,-4.5122,-0.9524854,0.1302852,-0.03722908,32.94768,-8.437483,-33.70292,1007.434
33.869256496,-14.73342,14.04881,-1.891749,-1.008495,0.1055411,-0.008726178,33.30902,-7.651687,-33.71844,1007.427
33.904022694,-13.86579,9.646102,-0.2463503,-1.078883,0.03437379,0.04178193,33.32101,-7.646053,-33.28271,1007.42
33.936306477,-10.45724,5.713016,0.4849381,-1.030921,-0.008117653,0.02886756,33.32101,-7.646053,-33.28271,1007.42
33.968589783,-5.871188,2.073444,1.277167,-1.020308,-0.002811529,0.01485513,34.06987,-7.278245,-32.4269,1007.415
34.003356457,0.574073,-3.444618,2.008456,-1.010618,0.01293116,0.08260518,34.04458,-6.560483,-33.30759,1007.412
34.035639286,2.123415,0.6058742,4.14138,-1.010474,0.1131703,-0.04058549,34.04458,-6.560483,-33.30759,1007.41
34.070405960,-0.7893475,0.01884648,2.252219,-1.030783,0.1067573,-0.0594323,33.70511,-6.180709,-32.43523,1007.41
34.102689743,0.6980203,-0.5681813,0.6677603,-1.024896,0.08318099,-0.02428801,34.06921,-6.913729,-32.43152,1007.41
34.137456417,0.2642047,-0.5094785,0.05835319,-0.9949157,0.08424439,-0.02144594,34.06921,-6.913729,-32.43152,1007.408
34.169739246,-0.1696109,-0.2746674,0.05835319,-1.006019,0.07647137,-0.02098277,34.42,-6.923352,-32.87276,1007.406
34.202022553,0.2642047,0.1949548,-0.06352822,-1.004576,0.07839649,-0.02532588,34.05656,-6.554848,-32.87186,1007.406
34.236789227,-0.7893475,0.136252,-0.4901132,-1.005957,0.05620043,-0.005144685,34.05656,-6.554848,-32.87186,1007.408
34.269073010,-0.2935582,-0.2746674,0.6068196,-1.029679,0.0579734,-0.03312293,34.78344,-7.291856,-32.87366,1007.408
34.303839684,1.441704,-1.037804,0.05835319,-1.018177,0.1005825,-0.03580607,34.05723,-6.919363,-32.86724,1007.41
34.336122513,1.689599,-0.8616952,-1.160461,-0.998395,0.1292892,-0.006679161,34.05723,-6.919363,-32.86724,1007.41
34.370889187,-0.7273738,0.136252,-2.196453,-1.000278,0.1075069,-0.006798956,33.69511,-7.279891,-32.85711,1007.416
34.403172493,0.1402574,0.136252,-2.683979,-1.016138,0.0604596,-0.02491951,34.78278,-6.927341,-32.87827,1007.416
34.435456276,0.3261784,0.1949548,-2.013631,-1.018544,0.05463735,-0.02736463,34.78278,-6.927341,-32.87827,1007.416
34.470222473,0.3261784,-0.3333702,-0.3072911,-1.004063,0.06727898,-0.02200613,34.06987,-7.278245,-32.4269,1007.416
34.502505779,-0.1076373,-0.03985629,0.6677603,-1.012769,0.0652938,-0.02925023,34.06921,-6.913729,-32.43152,1007.416
34.537272453,-0.1696109,0.07754926,1.277167,-1.0094,0.07500827,-0.02146724,33.69445,-6.915375,-32.86173,1007.414
34.569556236,0.01631006,0.01884648,1.155286,-1.012796,0.07886347,-0.02337176,33.69445,-6.915375,-32.86173,1007.41
34.604322434,0.202231,0.01884648,0.5458788,-1.008934,0.08226859,-0.02142696,33.69379,-6.550859,-32.86634,1007.41
34.636605740,0.388152,0.3123603,-0.2463503,-1.012341,0.09145027,-0.02233429,33.69511,-7.279891,-32.85711,1007.409
34.668889046,0.388152,0.136252,-1.09952,-1.010873,0.08126572,-0.03013038,33.69511,-7.279891,-32.85711,1007.407
34.703655720,0.8839414,-0.1572618,-1.526105,-1.013768,0.07981709,-0.02674831,34.78278,-6.927341,-32.87827,1007.405
34.735939503,0.8839414,0.07754926,-2.074571,-1.011819,0.07793114,-0.01371039,34.04524,-6.924998,-33.30297,1007.405
34.770705700,0.3261784,0.01884648,-1.708927,-1.014229,0.07062272,-0.02631616,34.04524,-6.924998,-33.30297,1007.404
34.802989006,0.5120994,-0.392073,-1.03858,-1.009857,0.06143395,-0.02831158,34.05723,-6.919363,-32.86724,1007.404
34.835272312,0.388152,-0.5094785,-0.2463503,-1.016631,0.06384244,-0.02586609,34.06921,-6.913729,-32.43152,1007.402
34.870038509,0.2642047,-0.5681813,0.6677603,-1.006477,0.06582192,-0.02152577,34.06921,-6.913729,-32.43152,1007.398
34.902322769,0.3261784,0.07754926,1.033404,-1.006008,0.07260649,-0.01907102,33.32034,-7.281537,-33.28732,1007.398
34.937088966,0.07828372,0.01884648,0.8505824,-1.009412,0.07935708,-0.02337624,34.06921,-6.913729,-32.43152,1007.397
34.969372272,1.379731,1.77993,0.302116,-1.042801,0.0879593,-0.02712288,34.06921,-6.913729,-32.43152,1007.397
35.004138470,0.6980203,0.1949548,-0.4291725,-1.005548,0.08228482,-0.01950042,34.06921,-6.913729,-32.43152,1007.395
35.036422730,0.202231,0.07754926,-0.4901132,-1.007464,0.0755092,-0.01808449,34.06987,-7.278245,-32.4269,1007.395
35.068705559,0.1402574,-0.03985629,-0.6119946,-1.01569,0.07448508,-0.02774136,34.06987,-7.278245,-32.4269,1007.395
35.103472233,0.202231,-0.09855907,-0.1244689,-1.0089,0.06628419,-0.02586887,34.06921,-6.913729,-32.43152,1007.395
35.135755539,0.07828372,-0.1572618,0.3630567,-1.01035,0.06921311,-0.0171472,33.71776,-6.53959,-31.99489,1007.395
35.170521736,-0.2315846,-0.03985629,0.6068196,-1.008428,0.07259139,-0.02148308,33.71776,-6.53959,-31.99489,1007.393
35.202805519,-0.0456636,-0.09855907,0.1802346,-1.008925,0.07644343,-0.02677793,33.69445,-6.915375,-32.86173,1007.393
35.237572193,-0.1076373,0.01884648,0.1802346,-1.007463,0.07258432,-0.02438583,33.70644,-6.90974,-32.426,1007.393
35.269855499,-0.1076373,-0.1572618,-0.1244689,-1.011336,0.07597224,-0.02097415,33.70644,-6.90974,-32.426,1007.393
35.302138329,0.01631006,-0.09855907,-0.002587515,-1.011813,0.0716024,-0.02486548,34.06921,-6.913729,-32.43152,1007.393
35.336905956,0.01631006,-0.1572618,0.1802346,-1.008425,0.0711347,-0.02294168,34.05723,-6.919363,-32.86724,1007.393
35.369188786,-0.1696109,-0.03985629,0.2411753,-1.010369,0.0740229,-0.0258217,34.05723,-6.919363,-32.86724,1007.395
35.403955460,0.07828372,0.01884648,0.1802346,-1.016182,0.08031213,-0.02142247,33.70577,-6.545225,-32.43062,1007.395
35.436238766,-0.0456636,-0.03985629,0.05835319,-1.00892,0.07646308,-0.02097657,34.42,-6.923352,-32.87276,1007.395
35.471004963,-0.2315846,0.136252,0.302116,-1.007457,0.07114401,-0.02100996,34.43132,-6.553202,-32.44165,1007.395
35.503288746,-0.1696109,0.136252,0.4239974,-1.015688,0.07498539,-0.02290414,34.43132,-6.553202,-32.44165,1007.394
35.535572052,-0.2315846,0.01884648,0.4849381,-1.00941,0.07838758,-0.0238652,34.06855,-6.549213,-32.43613,1007.392
35.570338726,-0.2315846,-0.09855907,0.1192939,-1.009401,0.07549384,-0.02098104,34.04524,-6.924998,-33.30297,1007.39
35.602621555,-0.0456636,-0.09855907,-0.002587515,-1.007968,0.08129039,-0.02530212,34.04524,-6.924998,-33.30297,1007.386
35.637388706,0.01631006,-0.1572618,-0.1854096,-1.006989,0.07791875,-0.02145589,33.6818,-6.556494,-33.30207,1007.386
35.669672012,0.07828372,-0.03985629,-0.1244689,-1.008425,0.07162353,-0.02148859,34.42,-6.923352,-32.87276,1007.386
35.701955318,-0.1076373,-0.1572618,0.05835319,-1.009868,0.07018562,-0.01617583,34.42,-6.923352,-32.87276,1007.39
35.736721992,-0.2935582,0.01884648,0.1802346,-1.014729,0.07837401,-0.02337037,33.69312,-6.186344,-32.87096,1007.39
35.769004822,-0.1076373,0.01884648,0.2411753,-1.007956,0.07596553,-0.02581586,34.43265,-7.282233,-32.43242,1007.39
35.803771973,-0.1076373,0.01884648,0.1192939,-1.004091,0.0769379,-0.02775242,34.43265,-7.282233,-32.43242,1007.39
35.836055279,0.1402574,0.1949548,0.1192939,-1.008928,0.07838405,-0.02531657,34.05788,-7.283879,-32.86263,1007.389
35.870821953,0.07828372,0.07754926,-0.4291725,-1.014243,0.07496661,-0.0296755,33.70709,-7.274256,-32.42139,1007.387
35.903104782,-0.0456636,-0.2159646,-0.1854096,-1.007469,0.07793211,-0.01710383,33.70709,-7.274256,-32.42139,1007.385
35.935388088,-0.1076373,-0.03985629,-0.002587515,-1.015696,0.07837289,-0.02288486,34.06921,-6.913729,-32.43152,1007.383
