Time (s),Gyroscope X (deg/s),Gyroscope Y (deg/s),Gyroscope Z (deg/s),Accelerometer X (g),Accelerometer Y (g),Accelerometer Z (g),Magnetometer X (uT),Magnetometer Y (uT),Magnetometer Z (uT),Barometer (hPa)
0.021670818,-0.2228696,-0.1445008,0.08442595,-0.1081364,0.3268612,0.9476456,-10.51941,6.385308,-43.1271,1007.79
0.056970596,0.1498551,-0.4990569,0.08442595,-0.1076421,0.3234661,0.9490936,-10.51941,6.385308,-43.1271,1007.79
0.089747906,-0.1607488,-0.1445008,0.206604,-0.1037804,0.3317278,0.9418516,-10.52003,6.380212,-43.50005,1007.789
0.122526646,0.02561352,-0.1445008,0.267693,-0.1008495,0.3259647,0.9500365,-9.79188,6.378467,-43.50099,1007.789
0.155304432,0.1498551,-0.3217788,0.02333693,-0.1081344,0.3263876,0.9495718,-9.79188,6.378467,-43.50099,1007.789
0.188082218,-0.2228696,-0.08540811,0.08442595,-0.1062102,0.333192,0.9452247,-10.14919,6.014904,-43.49479,1007.789
0.223381996,-0.3471111,0.03277724,0.267693,-0.1105702,0.3292727,0.9471664,-9.791984,6.377618,-43.56315,1007.789
0.256159782,-0.09862803,-0.2035935,0.145515,-0.1134848,0.3297355,0.9471726,-9.791984,6.377618,-43.56315,1007.787
0.288937092,0.02561352,-0.3217788,0.267693,-0.09987239,0.3225301,0.9452258,-10.15596,6.37934,-43.50052,1007.787
0.321715832,0.2119758,-0.3808715,0.206604,-0.1081369,0.3263474,0.9437955,-9.785118,6.014031,-43.49526,1007.787
0.354493618,-0.09862803,-0.2035935,0.02333693,-0.1057176,0.330781,0.9481153,-9.785118,6.014031,-43.49526,1007.789
0.389792442,-0.1607488,-0.2035935,0.02333693,-0.102305,0.3254654,0.9500407,-10.16282,6.742928,-43.56841,1007.789
0.422571182,-0.7819566,-0.08540811,0.206604,-0.1037685,0.327368,0.9452277,-10.15679,6.372547,-43.99779,1007.79
0.455348969,-0.1607488,-0.1445008,0.08442595,-0.1081223,0.3210202,0.9481358,-10.16355,6.736984,-44.00352,1007.789
0.488126278,0.2119758,-0.08540811,-0.03775209,-0.1110347,0.3225273,0.958249,-10.16355,6.736984,-44.00352,1007.789
0.523426056,1.516512,-0.7354276,0.145515,-0.1081417,0.3287992,0.9461986,-9.778358,5.649594,-43.48953,1007.794
0.556203842,-0.09862803,0.269148,0.02333693,-0.1047687,0.3390284,0.9423243,-10.52617,6.749745,-43.13283,1007.794
0.588982582,-1.154681,0.2100553,-0.0988411,-0.1105757,0.3322183,0.9505315,-10.52617,6.749745,-43.13283,1007.789
0.621760368,-0.3471111,0.03277724,0.02333693,-0.1105564,0.3224175,0.9418817,-10.15606,6.378491,-43.56268,1007.791
0.654538155,-0.1607488,-0.02631544,0.02333693,-0.1066708,0.3224667,0.9442793,-10.15679,6.372547,-43.99779,1007.789
0.689837456,0.3362174,0.03277724,0.328782,-0.1047409,0.3283506,0.9476354,-10.15679,6.372547,-43.99779,1007.787
0.722615242,0.2740966,-0.3217788,0.02333693,-0.1027907,0.3249543,0.9471545,-10.15679,6.372547,-43.99779,1007.787
0.755393028,0.7710629,-0.2035935,0.08442595,-0.1091143,0.3297786,0.9481249,-10.15606,6.378491,-43.56268,1007.787
0.788171768,0.460459,-0.4399642,-0.03775209,-0.1008496,0.3254575,0.9471491,-10.15606,6.378491,-43.56268,1007.787
0.823470592,0.6468213,-0.3217788,-0.0988411,-0.1013465,0.3303271,0.9476243,-10.15606,6.378491,-43.56268,1007.784
0.856249332,-0.5955942,0.269148,0.02333693,-0.107681,0.3390208,0.944738,-9.799472,6.736112,-44.00399,1007.784
0.889026642,-0.4092319,0.03277724,0.145515,-0.1052179,0.325955,0.9538977,-9.799472,6.736112,-44.00399,1007.782
0.921804428,0.460459,-0.4399642,-0.03775209,-0.1056906,0.3195861,0.9490948,-10.16886,7.113309,-43.13903,1007.782
0.954583168,0.2119758,0.03277724,-0.0988411,-0.1013496,0.330784,0.9432913,-9.798745,6.742055,-43.56888,1007.78
0.989881992,0.02561352,-0.08540811,0.02333693,-0.1071615,0.3249078,0.9457209,-9.798745,6.742055,-43.56888,1007.78
1.022659779,0.3362174,-0.1445008,0.02333693,-0.1076451,0.3234192,0.9423547,-10.1493,6.014055,-43.55695,1007.779
1.055438519,-0.2228696,0.3873333,0.08442595,-0.1086198,0.3268906,0.9524603,-9.785949,6.007238,-43.99253,1007.779
1.088215828,0.02561352,-0.2035935,-0.0988411,-0.1042546,0.327861,0.9466721,-9.785949,6.007238,-43.99253,1007.779
1.123515129,-0.4092319,0.3873333,-0.1599301,-0.1110783,0.3380084,0.9433035,-9.798018,6.748,-43.13377,1007.777
1.156293392,-0.1607488,0.1509626,0.02333693,-0.1042474,0.3249422,0.9471579,-9.791257,6.383563,-43.12804,1007.775
1.189071178,-0.03650726,0.09186993,-0.03775209,-0.1027842,0.3220255,0.9461961,-9.791257,6.383563,-43.12804,1007.775
1.221848965,-0.4092319,0.2100553,-0.1599301,-0.1081337,0.3258938,0.9486098,-10.15596,6.37934,-43.50052,1007.775
1.254627705,0.0877343,-0.1445008,0.02333693,-0.1066799,0.32687,0.9471608,-10.51265,6.020872,-43.12137,1007.775
1.289926529,0.02561352,-0.2626862,-0.0988411,-0.1013341,0.3244593,0.9442636,-10.14919,6.014904,-43.49479,1007.773
1.322704792,0.3362174,0.03277724,0.02333693,-0.1042523,0.326887,0.9466736,-10.14919,6.014904,-43.49479,1007.773
1.355482578,0.0877343,0.1509626,0.145515,-0.102315,0.3298554,0.9509969,-10.14992,6.00896,-43.9299,1007.773
1.388260365,0.02561352,0.09186993,-0.03775209,-0.1110418,0.3239315,0.9500638,-9.792606,6.372524,-43.9361,1007.772
1.423560143,0.02561352,0.3873333,-0.2210191,-0.1023181,0.3303123,0.9466639,-9.792606,6.372524,-43.9361,1007.77
1.456337929,-0.03650726,0.3873333,-0.0988411,-0.1076437,0.3229356,0.9428368,-9.791984,6.377618,-43.56315,1007.77
1.489115715,0.7710629,-0.02631544,-0.0988411,-0.1129764,0.3204994,0.9491107,-9.791257,6.383563,-43.12804,1007.768
1.521893978,0.460459,0.2100553,0.145515,-0.103773,0.3288123,0.9428187,-9.791257,6.383563,-43.12804,1007.767
1.554671765,-0.03650726,-0.1445008,-0.03775209,-0.112988,0.3243588,0.94381,-10.15533,6.384435,-43.12757,1007.767
1.589971542,0.0877343,0.1509626,0.145515,-0.1095957,0.3268089,0.9418728,-10.1621,6.748872,-43.1333,1007.767
1.622749329,0.0877343,0.269148,-0.0988411,-0.1105658,0.3273213,0.9466879,-10.1621,6.748872,-43.1333,1007.767
1.655527115,0.2740966,-0.1445008,-0.03775209,-0.1081307,0.3249298,0.9500553,-10.1621,6.748872,-43.1333,1007.767
1.688305378,0.1498551,0.09186993,-0.03775209,-0.1091126,0.3277836,0.9413888,-9.798745,6.742055,-43.56888,1007.768
1.723604679,0.02561352,0.03277724,-0.03775209,-0.113494,0.3336317,0.9471667,-9.798745,6.742055,-43.56888,1007.768
1.756382465,0.02561352,0.03277724,-0.0988411,-0.1086154,0.3239283,0.9466884,-10.16355,6.736984,-44.00352,1007.77
1.789160728,0.2740966,-0.02631544,0.02333693,-0.1081372,0.3278587,0.9510137,-9.434668,6.741183,-43.56935,1007.77
1.821938515,0.3983382,-0.3217788,0.206604,-0.1013418,0.3278752,0.9452212,-9.434668,6.741183,-43.56935,1007.774
1.854716301,0.02561352,-0.1445008,0.206604,-0.1086387,0.3331617,0.9437864,-9.792606,6.372524,-43.9361,1007.774
1.890016079,0.02561352,-0.4990569,0.08442595,-0.109113,0.3287878,0.9457196,-9.784495,6.019126,-43.12231,1007.774
1.922793865,0.2119758,-0.3808715,0.145515,-0.1061851,0.3229778,0.9471655,-9.784495,6.019126,-43.12231,1007.774
1.955572128,0.2740966,-0.3217788,0.145515,-0.1052272,0.3288403,0.9485985,-9.777735,5.654689,-43.11658,1007.774
1.988349915,-0.2228696,-0.2626862,-0.0988411,-0.1125042,0.3258507,0.9476575,-10.14857,6.019999,-43.12184,1007.774
2.023649216,0.2119758,-0.4990569,0.08442595,-0.1125073,0.3263076,0.9433245,-10.14857,6.019999,-43.12184,1007.774
2.056427479,0.460459,-0.3808715,0.02333693,-0.1062055,0.3307402,0.9428216,-10.51941,6.385308,-43.1271,1007.777
2.089205265,-0.1607488,-0.4990569,0.08442595,-0.1071813,0.3341948,0.9505205,-9.434564,6.742032,-43.50719,1007.777
2.121983051,0.3983382,-0.2626862,0.389871,-0.1023203,0.3292679,0.9365569,-9.434564,6.742032,-43.50719,1007.777
2.154761314,-0.5334735,0.1509626,0.206604,-0.1057229,0.3327191,0.9466683,-9.792606,6.372524,-43.9361,1007.775
2.190060616,-0.03650726,-0.2035935,0.206604,-0.1120147,0.3244004,0.9486213,-10.14919,6.014904,-43.49479,1007.775
2.222838879,0.7089421,-0.1445008,0.08442595,-0.1061953,0.3273644,0.9476402,-10.14919,6.014904,-43.49479,1007.773
2.255616665,0.2740966,-0.02631544,0.145515,-0.1047526,0.3317029,0.9394472,-9.791984,6.377618,-43.56315,1007.773
2.288394451,-0.1607488,-0.1445008,-0.03775209,-0.1076546,0.3278159,0.9442735,-10.15679,6.372547,-43.99779,1007.773
2.321172714,0.5847005,-0.2626862,-0.03775209,-0.1086244,0.3273241,0.9447579,-10.15679,6.372547,-43.99779,1007.773
2.356472015,0.2119758,-0.3217788,0.145515,-0.1013477,0.3308141,0.9476236,-9.428633,6.370801,-43.99873,1007.771
2.389249802,-0.1607488,-0.02631544,0.206604,-0.1008593,0.3283361,0.9408871,-10.15606,6.378491,-43.56268,1007.773
2.422028065,-0.03650726,0.03277724,0.145515,-0.1086403,0.3346529,0.9481165,-9.791984,6.377618,-43.56315,1007.771
2.454805851,-0.2849904,0.09186993,0.145515,-0.1076587,0.3302778,0.9481207,-9.791984,6.377618,-43.56315,1007.771
2.490105629,0.2740966,-0.3217788,0.08442595,-0.1061924,0.3258933,0.9461983,-9.791984,6.377618,-43.56315,1007.771
2.522883415,0.2727924,-0.2616605,-0.09902477,-0.1052421,0.3346679,0.9461829,-10.16282,6.742928,-43.56841,1007.771
2.555661202,-0.1011023,-0.2607235,0.02284782,-0.1047409,0.3273398,0.9423419,-10.16282,6.742928,-43.56841,1007.771
2.588439464,-0.2243274,-0.2009391,-0.03871772,-0.106205,0.3302431,0.9413782,-10.1493,6.014055,-43.55695,1007.774
2.621217251,-0.1611947,-0.1414538,-0.09997452,-0.1057202,0.3322555,0.9500386,-9.778461,5.648745,-43.55169,1007.774
2.656516552,-0.4081327,-0.2003885,-0.03879128,-0.1081417,0.3287992,0.9461986,-9.778461,5.648745,-43.55169,1007.774
2.689294815,-0.592071,0.1538534,0.3276137,-0.1091069,0.3258523,0.9437985,-9.427906,6.376746,-43.56362,1007.774
2.722072601,0.5888238,-0.6138476,0.08314829,-0.1105486,0.3210234,0.9515111,-10.15533,6.384435,-43.12757,1007.774
2.754850388,1.764087,-0.7882894,0.08271368,-0.1071527,0.3215086,0.94717,-10.15533,6.384435,-43.12757,1007.772
2.790150166,0.5154495,-0.4311634,0.08233134,-0.09991142,0.3385886,0.9432762,-10.1493,6.014055,-43.55695,1007.772
2.822927952,-0.5399761,-0.2530915,-0.04027825,-0.1130125,0.3355939,0.9486068,-10.52014,6.379364,-43.56221,1007.772
2.855706215,2.378627,-1.195484,-0.1020647,-0.113894,0.301124,0.9655085,-10.52014,6.379364,-43.56221,1007.772
2.921261787,5.856643,-2.436055,0.9975696,-0.09948122,0.3644988,0.9567142,-10.1493,6.014055,-43.55695,1007.772
2.956561565,7.2233,-7.104377,4.296377,-0.1440033,0.320006,1.055566,-10.1493,6.014055,-43.55695,1007.776
2.989339352,58.96991,-17.74106,19.7519,-0.152536,0.4342912,1.041455,-10.50662,5.65049,-43.55075,1007.775
3.022117615,92.82574,-42.61908,51.57928,-0.1350477,0.4653778,1.218507,-10.5141,6.008983,-43.99159,1007.775
3.054895401,191.4114,-84.16123,99.65634,-0.2457835,0.7125558,1.387355,-10.5141,6.008983,-43.99159,1007.775
3.090194702,82.88641,-110.4575,153.0481,-0.1574662,1.532175,1.270865,-10.82336,3.100303,-43.51017,1007.773
3.122972965,21.44896,-116.6031,199.2925,-0.0732297,1.185976,1.042059,-12.91881,-1.692881,-43.4319,1007.771
3.155750752,32.00949,-114.8894,236.8012,0.01975746,0.7990921,0.6250809,-12.91881,-1.692881,-43.4319,1007.769
3.188528538,2.315759,-99.05259,252.3789,0.1212611,0.9734915,0.5085691,-16.90047,-2.752818,-41.6691,1007.769
3.221306801,-86.0821,-101.4754,247.4307,0.05106074,0.4796318,0.522958,-20.99304,-1.285325,-41.68678,1007.766
3.256606102,-74.21703,-102.5391,234.9685,0.2634881,0.153209,0.3924972,-25.07725,3.182032,-40.01087,1007.766
3.289384365,-73.34734,-93.32059,218.2912,0.3546722,0.01246131,0.4940604,-25.07725,3.182032,-40.01087,1007.768
3.322162151,-55.76717,-86.17038,206.0734,0.362808,-0.1731852,0.332102,-27.03046,10.56474,-38.01068,1007.767
3.354939938,-45.45512,-56.03312,190.7401,0.5873179,-0.2478403,0.3225361,-28.3082,17.52153,-35.9425,1007.767
3.390239716,-60.67471,-41.14176,159.9512,0.5751116,-0.6070956,0.4333383,-28.3082,17.52153,-35.9425,1007.761
3.423017502,-69.30949,-31.1551,129.3456,0.5773301,-0.496187,0.5510995,-27.67968,23.07086,-34.2899,1007.763
3.455795288,-126.647,-29.79597,90.18754,0.5755939,-0.7869487,0.5534674,-26.23281,27.11084,-31.80638,1007.76
3.488573551,-50.7975,-42.67817,54.32828,0.5757692,-0.8493667,0.6122871,-26.23281,27.11084,-31.80638,1007.758
3.521351338,13.8081,-51.95572,27.99891,0.6550642,-0.7201357,0.5406628,-24.51664,33.03981,-28.85558,1007.758
3.589428902,93.26058,-68.02893,7.289738,0.7871555,-0.3303569,0.4728527,-24.19771,35.60783,-27.59083,1007.754
3.622206688,61.51686,-67.96983,9.000231,0.8570615,-0.3441669,0.36392,-25.28464,35.23413,-28.45391,1007.753
3.654984951,43.37759,-62.94696,14.49824,0.9146392,-0.2792067,0.2510468,-27.49067,33.041,-29.28686,1007.753
3.690284252,18.40504,-47.40559,20.66823,0.9157237,-0.3446093,0.1596841,-27.49067,33.041,-29.28686,1007.753
3.723062515,19.70958,-24.06398,26.59387,0.9322523,-0.3643745,0.09902313,-27.41647,32.31198,-29.27547,1007.753
3.755840301,28.34436,6.368754,31.54208,0.9114308,-0.3959728,0.06253664,-28.19105,31.59094,-28.82788,1007.753
3.788618088,20.26866,39.16519,29.52614,0.8882272,-0.4299043,0.1136672,-28.19105,31.59094,-28.82788,1007.751
3.821396351,7.347542,70.77978,25.55536,0.850436,-0.4617531,0.1316152,-28.19854,31.94943,-29.26872,1007.749
3.856695652,39.58823,101.508,28.97634,1.041053,-0.4503341,-0.2765675,-25.94954,31.55584,-31.00634,1007.749
3.889473438,106.7408,229.5027,42.29374,1.50021,-0.3979665,-0.4418798,-25.94954,31.55584,-31.00634,1007.749
3.922251701,-18.12198,362.284,29.46505,-0.09289696,-1.327794,1.254324,-23.40598,31.50897,-33.99325,1007.749
3.955029488,-306.5488,300.5321,-290.2748,1.351511,3.792451,4.068293,-16.78628,30.69971,-38.71439,1007.749
3.987807751,-156.4028,21.61467,17.18616,0.8729492,-1.678622,-0.490449,-16.78628,30.69971,-38.71439,1007.753
4.023107052,38.9049,19.13277,21.76784,1.261719,0.4398593,0.562025,-7.521444,25.56754,-34.7912,1007.751
4.055884838,-46.94602,-38.06894,-15.61864,-0.1523877,-1.738834,0.6986304,-7.356749,36.17825,-36.26413,1007.751
4.088663101,110.2196,-41.90997,-11.89221,0.345054,-0.00484954,0.6077107,-7.356749,36.17825,-36.26413,1007.753
4.121440887,33.06554,-29.44141,9.427854,0.4117855,-0.1182221,0.4729419,-5.86518,34.36446,-35.36714,1007.751
4.156740665,-1.349367,-13.3682,3.624397,0.3294776,-0.5904691,0.6683191,-7.29059,32.52199,-37.07705,1007.751
4.189518452,-15.57502,-3.145167,-16.90151,0.3426447,-0.6026039,0.7284764,-7.29059,32.52199,-37.07705,1007.753
4.222296238,25.54893,1.168599,-18.42874,0.4806259,-0.4244309,0.7606131,-7.62835,31.05917,-37.48877,1007.753
4.255074501,20.0823,4.655066,-16.59607,0.4883558,-0.3931545,0.8366028,-8.733377,31.7966,-37.06371,1007.749
4.287852287,-18.12198,1.345877,-28.14189,0.4382069,-0.5315532,0.8855479,-8.733377,31.7966,-37.06371,1007.749
4.323151589,-26.81889,3.532306,-41.88692,0.5669185,-0.5667925,0.7760266,-8.720582,31.06179,-37.48737,1007.749
4.355929852,3.24757,1.936803,-45.97989,0.5281573,-0.4006366,0.7633528,-8.727343,31.42622,-37.4931,1007.747
4.388707638,-8.369015,1.404969,-51.23354,0.4283321,-0.4766087,0.814247,-10.23008,30.70693,-37.04456,1007.746
4.421485901,2.626363,-1.372387,-64.30658,0.367309,-0.5504109,0.7803263,-10.23008,30.70693,-37.04456,1007.746
4.456785202,-18.55682,-11.18177,-83.122,0.2444263,-0.51206,0.9100462,-11.69243,31.0808,-36.6133,1007.752
4.489562988,-8.431135,-25.71857,-106.8856,0.2692428,-0.538814,0.8849969,-12.41382,30.71811,-36.60663,1007.752
4.522341251,2.564242,-35.52796,-129.3053,0.2733033,-0.4264336,0.7919151,-12.41382,30.71811,-36.60663,1007.75
4.555119038,10.26722,-35.23249,-152.3359,0.2940392,-0.3916339,0.6584762,-15.69052,30.72596,-36.60241,1007.748
4.587896824,16.66566,-31.62784,-171.7011,0.3986016,-0.2871698,0.4968145,-19.35067,28.55416,-36.12814,1007.748
4.623196602,13.68386,-15.90919,-193.571,0.4949316,-0.1804045,0.3958206,-19.35067,28.55416,-36.12814,1007.746
4.655974388,10.39146,15.17356,-215.7463,0.6703212,-0.04253386,0.2604155,-23.6569,25.2299,-35.63486,1007.745
4.688752651,-27.81282,57.48392,-240.243,1.09109,0.07020494,0.3482995,-27.66834,22.32415,-35.58378,1007.743
4.721530437,-26.38404,88.68486,-249.3452,0.92333,0.2019633,0.5169755,-27.66834,22.32415,-35.58378,1007.743
4.756829739,-14.76746,118.2312,-236.4554,0.3167327,0.6919984,0.6962608,-29.74495,16.42577,-36.35854,1007.743
4.789608002,-37.3173,115.3357,-205.5444,0.1736657,0.8496217,0.8426965,-29.68846,13.11017,-38.91764,1007.747
4.822385788,11.01267,97.66695,-178.2376,0.2067278,0.3752754,0.5973572,-29.68846,13.11017,-38.91764,1007.747
4.855164051,61.88958,80.94373,-157.895,0.01087035,0.6512587,0.5983685,-26.61542,7.552823,-40.51286,1007.745
4.887941837,-7.996291,73.43895,-131.2601,0.04007016,0.8732623,0.8309437,-24.7296,3.886259,-41.76325,1007.745
4.923241138,-9.984155,72.07982,-99.12732,0.04441088,0.7001025,0.9284295,-24.7296,3.886259,-41.76325,1007.745
4.956019402,-24.58254,68.82972,-76.58547,-0.0514131,0.8088339,1.131146,-21.0155,-0.209846,-43.0093,1007.745
4.988797188,-30.73249,59.72945,-60.39689,0.02619654,0.6319358,1.093201,-19.16953,-1.683845,-43.85895,1007.745
5.021575451,-38.62183,53.28835,-45.12464,-0.1039067,0.6302946,1.153682,-19.16953,-1.683845,-43.85895,1007.745
5.056874752,-17.37653,28.52851,-35.65584,-0.1500721,0.4288154,1.091519,-17.28919,-1.694297,-44.29649,1007.743
5.089652538,9.521769,12.51439,-24.1711,-0.151082,0.4231469,0.9779282,-15.11814,-0.96981,-44.24861,1007.743
5.122430801,43.87456,7.964256,-18.12329,-0.08348566,0.3596433,0.8695571,-15.11814,-0.96981,-44.24861,1007.743
5.155208588,41.57609,5.955105,-11.22023,-0.139392,0.6051383,0.9405613,-14.38395,-1.341936,-44.67893,1007.743
5.187986374,24.49288,-1.017831,-16.10736,-0.03342127,0.5467296,0.8884109,-13.63551,-2.436993,-44.66268,1007.743
5.223286152,-22.47043,0.9913205,-10.18172,-0.02786135,0.6759593,0.9753294,-13.59567,-4.629558,-45.06342,1007.743
5.256063938,-19.42651,-19.51384,-2.056881,-0.2572916,0.3798399,1.041304,-13.59567,-4.629558,-45.06342,1007.743
5.288842201,12.93841,-28.37774,-2.056881,-0.07763408,0.1529928,0.9117332,-13.59567,-4.629558,-45.06342,1007.743
5.321619988,53.876,-29.32323,-1.873614,-0.1087082,0.5578506,0.8972372,-13.2654,-2.808246,-45.09254,1007.745
5.356919766,47.66393,-27.1368,-3.645196,-0.05080559,0.4879748,0.7946752,-13.2654,-2.808246,-45.09254,1007.745
5.389697552,30.58071,-21.4639,-8.410139,-0.005196796,0.5176192,0.8705775,-15.03773,-5.348998,-44.61496,1007.745
5.422475338,47.04272,-21.58208,-13.41944,0.0111015,0.5932543,0.8015901,-15.3808,-6.435492,-44.16219,1007.751
5.455253601,35.36401,-13.90004,-5.722222,0.04825081,0.6807421,0.7310913,-15.3808,-6.435492,-44.16219,1007.751
5.488031387,77.29554,-14.66824,13.27646,0.06285866,0.6703902,0.7657303,-16.80966,-7.956433,-44.57155,1007.751
5.523330689,34.99129,-8.463509,24.15031,0.01196465,0.83806,0.7752255,-17.15211,-9.037832,-43.74582,1007.751
5.556108952,4.05514,-3.381538,26.77713,0.02931266,0.689662,0.7758894,-17.15211,-9.037832,-43.74582,1007.751
5.588886738,0.2036523,0.1640229,25.79971,0.04013875,0.6121849,0.6874099,-17.4674,-11.57613,-42.83502,1007.751
5.621665001,-10.29476,0.5185789,15.41458,0.06484301,0.6458073,0.7301418,-18.6278,-11.21488,-43.27437,1007.751
5.656964302,-30.98098,-5.272504,11.56597,0.1000837,0.5459173,0.8211861,-18.6278,-11.21488,-43.27437,1007.751
5.689742088,-0.6039178,-5.390689,11.9325,0.1006843,0.494176,0.8039337,-18.27797,-10.49282,-43.72141,1007.753
5.722520351,9.708131,-4.563392,9.611121,0.04403921,0.6341907,0.835627,-18.65412,-9.751183,-42.86218,1007.751
5.755298138,-13.83564,-11.29996,8.38934,0.05993303,0.4908718,0.8680565,-18.65412,-9.751183,-42.86218,1007.751
5.788075924,13.93234,-18.03652,9.427854,0.07476851,0.5754923,0.832273,-18.65412,-9.751183,-42.86218,1007.751
5.823375702,28.28224,-14.66824,12.4823,0.06883674,0.5965295,0.7128776,-19.39652,-9.026507,-43.30781,1007.751
5.856153488,48.90634,-7.16347,15.47567,0.1113503,0.6904855,0.725632,-19.39652,-9.026507,-43.30781,1007.751
5.888931751,32.81706,-4.445207,16.26982,0.1180112,0.7414356,0.6904,-19.73959,-10.113,-42.85505,1007.755
5.921709537,20.64139,0.1049302,18.10249,0.1779312,0.6449703,0.6138667,-20.46026,-10.46975,-42.41326,1007.755
5.954487324,27.59892,11.92347,21.21803,0.2678278,0.6114003,0.5809715,-20.46026,-10.46975,-42.41326,1007.755
5.989787102,28.77921,32.6059,17.79705,0.1680313,0.7323583,0.6556369,-20.80333,-11.55624,-41.96049,1007.755
6.022564888,31.63676,34.61506,17.79705,-0.005976637,0.8241529,0.75796,-21.15992,-11.91386,-41.51918,1007.755
6.055343151,35.30189,30.83312,21.46239,0.07731064,0.7096261,0.7175007,-21.15992,-11.91386,-41.51918,1007.757
6.088120937,30.95344,34.31959,18.77447,0.1000081,0.7629325,0.7216988,-20.41896,-12.65043,-41.94377,1007.755
6.123420239,26.3565,27.58303,16.26982,0.03462492,0.6927876,0.7286986,-19.31248,-13.37598,-41.49861,1007.757
6.156198502,20.20654,26.69664,6.984293,0.1440822,0.6009231,0.6939194,-19.31248,-13.37598,-41.49861,1007.757
6.188976288,8.77632,26.28299,-2.240148,0.07443637,0.7001124,0.753624,-18.91991,-14.82271,-40.60593,1007.759
6.221754551,-1.100884,19.78279,-9.204296,-0.02555184,0.688267,0.7813166,-17.39012,-15.56116,-41.03154,1007.761
6.254532337,5.546039,5.482364,-13.23617,0.03426441,0.6432174,0.7446591,-17.39012,-15.56116,-41.03154,1007.762
6.289831638,25.54893,1.050413,-15.80191,0.07302456,0.6598844,0.6434561,-17.02001,-15.93242,-41.4614,1007.762
6.322609902,22.93986,-0.3678112,-17.5124,0.03001748,0.7754133,0.6395331,-15.92705,-15.92909,-41.02769,1007.762
6.355387688,22.07017,2.823194,-17.75676,0.003711374,0.810227,0.6347294,-16.26223,-17.44076,-40.56824,1007.762
6.388165951,28.84133,0.2231156,-6.45529,0.01330775,0.8655897,0.670244,-16.26223,-17.44076,-40.56824,1007.764
6.423465252,17.16262,1.286784,5.701424,0.02344674,0.8667859,0.5498777,-15.52586,-17.79506,-39.69322,1007.764
6.456243038,-2.094816,7.609701,2.21935,0.06734844,0.7925,0.6004285,-15.50485,-18.88242,-39.24092,1007.762
6.489021301,14.42931,6.782403,-0.4685667,0.03125273,0.6734773,0.6873387,-15.50485,-18.88242,-39.24092,1007.764
6.521799088,14.73991,2.823194,3.013507,-0.01151691,0.8735236,0.5802763,-15.12798,-19.61811,-39.66504,1007.764
6.554577351,-13.02807,9.146111,-2.056881,0.06150606,0.7957434,0.5835898,-15.84792,-19.96892,-38.78815,1007.764
6.589876652,1.135464,3.532306,12.36013,-0.02869008,0.7716061,0.7229537,-15.84792,-19.96892,-38.78815,1007.77
6.622654438,7.16118,-3.44063,16.9418,-0.0002658105,0.624891,0.5320068,-15.13401,-19.24773,-39.23566,1007.77
6.655432701,22.31865,0.4003936,4.66291,0.01866872,0.8487675,0.6259713,-15.49205,-19.61724,-39.66457,1007.77
6.688210487,10.5157,-6.040709,11.9325,0.002599986,0.8752077,0.6654413,-15.49205,-19.61724,-39.66457,1007.77
6.723510265,23.12622,-16.79558,14.1928,0.05715154,0.5817911,0.5685191,-15.48457,-19.97573,-39.22373,1007.772
6.756288052,33.81099,-15.0228,11.74924,0.05253459,0.8885319,0.5603659,-15.84043,-20.32741,-38.34731,1007.774
6.789065838,11.94448,-14.1955,12.4823,0.0429831,0.82377,0.5739642,-15.84043,-20.32741,-38.34731,1007.774
6.821844101,30.14587,-4.031558,0.6310356,0.1552854,0.7399496,0.4318225,-16.91779,-21.04263,-37.52637,1007.776
6.854621887,-0.9766425,7.491515,-7.188359,0.1013368,0.9801471,0.5090877,-16.90354,-21.76556,-37.0798,1007.776
6.889921665,-15.2023,14.8781,-15.74082,0.1047671,0.7594346,0.4930459,-16.90354,-21.76556,-37.0798,1007.777
6.922699451,8.527837,23.09198,-24.41546,0.0885889,0.8356855,0.5516955,-17.67136,-22.85103,-36.62648,1007.776
6.955477238,-8.990223,32.31044,-36.93871,0.1211425,0.802936,0.4255509,-16.51845,-22.8538,-36.62797,1007.777
6.988255501,-35.32943,43.77442,-47.69038,0.06730577,0.7908195,0.4988638,-16.51845,-22.8538,-36.62797,1007.777
7.023554802,-13.7114,57.77939,-67.5443,0.02651337,0.793942,0.5066576,-14.70025,-22.87599,-37.93565,1007.779
7.056333065,-27.62646,66.70238,-81.53368,-0.1110032,0.8649694,0.6604311,-13.60115,-23.2422,-37.86917,1007.779
7.089110851,-1.038763,54.29292,-71.45399,-0.3639994,0.8919198,0.7779615,-13.60115,-23.2422,-37.86917,1007.779
7.121888638,-10.04628,44.83809,-73.46993,-0.3112736,0.9382068,0.5770389,-9.24647,-22.52974,-38.32138,1007.779
7.154666901,-43.65361,48.62002,-69.49915,-0.2769539,0.8092896,0.6272134,-5.901606,-22.89623,-37.88485,1007.779
7.189966202,9.521769,47.08361,-69.74351,-0.3583751,0.7382829,0.5995945,-3.354517,-22.91423,-38.75836,1007.779
7.222744465,-2.3433,46.31541,-67.23885,-0.4487224,0.9638218,0.6437542,-3.354517,-22.91423,-38.75836,1007.779
7.255522251,-9.362947,43.36077,-62.22956,-0.479176,0.6995237,0.6341162,-0.4418985,-22.92121,-38.76212,1007.779
7.288300037,4.676348,40.05158,-57.40353,-0.5357667,0.8146265,0.6552568,2.161184,-22.55793,-38.39827,1007.779
7.323599815,0.07941072,33.84685,-51.47789,-0.5155345,0.6617539,0.5692754,2.161184,-22.55793,-38.39827,1007.781
7.356377602,41.76245,36.91967,-48.36235,-0.5476577,0.7007131,0.6073205,4.697657,-21.82328,-37.54279,1007.787
7.389155865,26.17014,38.33789,-48.97325,-0.6145681,0.8729104,0.6567999,7.247029,-21.82259,-37.04881,1007.787
7.421933651,16.23081,36.91967,-52.69968,-0.5663258,0.5552402,0.4415143,7.247029,-21.82259,-37.04881,1007.789
7.454711437,21.82168,35.14689,-55.8763,-0.6011072,0.687561,0.4611332,8.703961,-21.82099,-36.67774,1007.789
7.490011215,-1.473609,25.75115,-58.50313,-0.6381338,0.5282407,0.4272844,12.02178,-20.72973,-36.26412,1007.789
7.522789002,16.35505,21.43739,-54.34908,-0.6915998,0.776479,0.5396758,12.02178,-20.72973,-36.26412,1007.789
7.555567265,5.856643,14.93719,-51.90552,-0.7078976,0.6776137,0.4898017,13.46529,-19.99841,-35.84235,1007.789
7.588345051,4.552107,15.40993,-53.92146,-0.5217518,0.3747695,0.3497404,15.27216,-19.2739,-35.85616,1007.787
7.621122837,-19.36439,14.0508,-59.11402,-0.7557524,0.5937153,0.529032,15.27216,-19.2739,-35.85616,1007.789
7.656422615,1.011222,14.0508,-50.56156,-0.7593343,0.4499078,0.4445376,16.69539,-17.44926,-35.45158,1007.787
7.689200401,-4.579648,12.4553,-47.87364,-0.8058124,0.6036844,0.4819623,17.75945,-15.93339,-35.47686,1007.789
7.721978664,-11.78566,10.32796,-47.93473,-0.8041811,0.5301523,0.4815879,17.75945,-15.93339,-35.47686,1007.789
7.754756451,-15.57502,4.95053,-45.00246,-0.7799671,0.3470112,0.450518,17.73917,-14.84008,-35.49406,1007.787
7.790055752,-12.46899,0.4594863,-43.35306,-0.7991551,0.4560777,0.4691722,19.22235,-13.02153,-35.52466,1007.787
7.822834015,-18.30834,-3.499723,-36.9998,-0.817886,0.1697215,0.4951604,19.22235,-13.02153,-35.52466,1007.787
7.855611801,-3.088749,-4.563392,-29.85238,-0.8113233,0.258032,0.4396551,19.56541,-11.93503,-35.97743,1007.785
7.888390064,-8.369015,-7.577119,-28.6306,-0.8065994,0.3262245,0.5050063,19.91597,-11.20703,-35.98936,1007.785
7.921167850,-0.3554347,-4.267929,-17.75676,-0.8307514,0.2673846,0.4772333,19.91597,-11.20703,-35.98936,1007.785
7.956467152,-11.59929,-3.972465,-14.45795,-0.7807195,0.2655643,0.5055178,19.90172,-10.4841,-36.43593,1007.785
7.989245415,-5.57358,1.995896,-12.62528,-0.8273678,0.2823251,0.5205254,19.89569,-10.11372,-36.00655,1007.785
8.022023201,1.63243,3.295935,-14.39686,-0.8348753,0.3671558,0.4717977,19.89569,-10.11372,-36.00655,1007.785
8.054801941,-8.493257,-0.4269039,-19.89487,-0.853746,0.3478348,0.517601,19.88144,-9.39079,-36.45313,1007.783
8.090100765,-8.244773,-1.017831,-20.01705,-0.814621,0.2247336,0.4878493,20.24021,-9.015338,-35.5891,1007.783
8.122878552,-9.238706,-3.736094,-19.16181,-0.8553551,0.2055332,0.5072294,20.24021,-9.015338,-35.5891,1007.788
8.155656815,-9.54931,-3.145167,-13.84706,-0.7745698,0.1287216,0.5004144,19.86864,-8.655972,-36.02947,1007.788
8.188434601,-1.970575,2.705008,-8.165783,-0.7914912,0.2943854,0.4607332,19.84723,-7.501922,-36.04762,1007.788
8.221213341,-1.908454,3.17775,-5.111332,-0.9051174,0.3060148,0.5187486,19.84723,-7.501922,-36.04762,1007.786
8.256512165,2.067276,1.700433,-1.934703,-0.8904356,0.2579241,0.5192676,20.56935,-7.133286,-35.61918,1007.786
8.289289951,-0.6660386,1.168599,-3.278661,-0.8447547,0.242223,0.5177388,20.20527,-7.132413,-35.61871,1007.786
8.322068214,-1.659971,2.29136,-5.23351,-0.8461966,0.2333506,0.5042775,20.56186,-6.774793,-36.06002,1007.784
8.354846001,-5.511459,3.41412,-9.693008,-0.8861184,0.2798633,0.5172989,20.56186,-6.774793,-36.06002,1007.784
8.390145779,-10.7296,1.109506,-12.68637,-0.7663926,0.1614213,0.5003458,20.56863,-7.13923,-36.05429,1007.784
8.422923565,-6.815995,0.2231156,-18.00111,-0.8453175,0.2672765,0.4791935,20.91845,-6.417172,-36.50133,1007.784
8.455701351,-4.144802,-3.44063,-23.43804,-0.8737659,0.186822,0.5000808,20.91845,-6.417172,-36.50133,1007.784
8.488479614,-8.990223,-4.74067,-28.32516,-0.901565,0.241262,0.517875,20.54231,-5.675538,-35.6421,1007.784
8.521257401,-16.32047,-7.281655,-32.60139,-0.9421415,0.1573439,0.5455354,20.16398,-4.951735,-36.0882,1007.788
8.556557179,-20.97953,-5.449782,-38.83247,-0.9364857,0.2365487,0.5824674,20.16398,-4.951735,-36.0882,1007.788
8.589334965,-43.52937,1.582247,-43.35306,-0.8654281,0.1710184,0.598764,20.50029,-3.500804,-36.5467,1007.788
8.622112751,-58.81108,9.087018,-52.27205,-0.8776952,0.2214507,0.5818694,20.48676,-2.77193,-36.55816,1007.788
8.654891491,-78.68973,12.39621,-62.41283,-0.9266347,0.1610216,0.4954315,20.48676,-2.77193,-36.55816,1007.787
8.690190315,-117.6395,13.69625,-61.00778,-0.9705841,0.0805163,0.5977057,20.79675,0.1426935,-36.60447,1007.785
8.722968578,-140.6863,26.46027,-56.85373,-0.9649538,-0.04271376,0.5896949,20.7227,4.224128,-35.79823,1007.783
8.755746365,-167.8331,33.90594,-50.68374,-0.9393212,-0.01329265,0.5173855,20.7227,4.224128,-35.79823,1007.782
8.788524151,-209.0191,40.11068,-43.6585,-0.9882232,-0.07363623,0.5132602,21.00855,8.620274,-34.12701,1007.782
8.821302891,-229.0841,49.50641,-32.60139,-0.9248836,-0.1763175,0.4492436,21.61886,15.27989,-31.24843,1007.782
8.856601715,-260.7036,52.0474,-20.13923,-0.9541666,-0.3248583,0.4153603,21.61886,15.27989,-31.24843,1007.78
8.889379978,-243.1855,32.90137,-14.03033,-1.058356,-0.1815652,0.5554677,21.51286,21.61843,-25.31739,1007.78
8.922157764,-242.9371,10.0325,1.974994,-1.100447,-0.2365968,0.6066748,21.42224,27.17329,-18.93882,1007.778
8.954935551,-222.9963,-13.72276,29.64832,-1.157567,-0.1014632,0.6374137,21.42224,27.17329,-18.93882,1007.778
8.990235329,-133.1697,-32.27786,75.77053,-1.116574,0.2213002,0.6373115,22.44591,31.71674,-10.80498,1007.776
9.023013115,-71.11099,-46.93285,107.5979,-1.011027,0.06179617,0.1954114,22.79083,33.23815,-6.104303,1007.775
9.055791855,-60.73683,-100.6481,169.2978,-0.982259,0.190681,0.0646999,22.79083,33.23815,-6.104303,1007.775
9.088569164,-30.91886,-95.44793,195.505,-0.8501501,0.1660524,0.006178913,24.2771,31.80069,-4.342815,1007.775
9.121347904,-240.5144,-94.50245,162.8224,-0.7510575,0.3649472,0.05329892,27.67572,28.44607,-4.72971,1007.775
9.156646729,-301.7655,-98.99349,121.0986,-0.6786693,-0.07378379,-0.02034123,30.32568,22.97341,-4.647049,1007.775
9.189424515,-248.2795,-88.94774,68.25658,-0.9043189,-0.1310715,-0.002872023,30.32568,22.97341,-4.647049,1007.777
9.222203255,-205.2298,-63.95153,53.59521,-0.8568672,0.09451793,-0.1872048,31.47481,20.07822,-2.92433,1007.777
9.254981041,-201.8752,-45.98736,73.26588,-1.129769,0.4890368,-0.2771668,31.49913,18.94794,-1.165739,1007.771
9.290280342,-136.0272,-50.71478,77.11449,-1.217218,-0.065989,-0.07298815,31.49913,18.94794,-1.165739,1007.773
9.323058128,-73.40946,-53.61032,64.2858,-1.129283,0.1289331,-0.02342887,30.79416,17.88015,0.5928378,1007.773
9.355835915,-144.7862,-32.45514,51.82363,-1.01382,0.1858871,0.04360207,31.56361,15.69773,1.06139,1007.772
9.388614655,-140.6241,-4.917948,41.80503,-0.8958454,-0.2568968,-0.1774368,31.56361,15.69773,1.06139,1007.77
9.421392441,-53.28234,20.72828,44.43186,-1.012624,0.04493153,-0.1968692,31.93663,15.35025,2.371985,1007.768
9.456692219,-79.74578,48.20637,53.28977,-1.15064,0.1162444,-0.07149527,31.96034,14.28497,4.440416,1007.768
9.489469528,-41.66575,33.13774,41.4385,-1.124296,-0.5185276,0.08439744,31.96034,14.28497,4.440416,1007.768
9.522248268,31.69889,28.41032,24.70011,-1.024421,-0.03415616,0.1407126,32.34834,13.2205,6.632694,1007.766
9.555026055,14.92628,35.50145,20.17952,-1.078191,0.1239731,0.1824803,31.64264,12.14676,7.956159,1007.766
9.587803841,17.78383,29.88764,17.73596,-1.056115,0.05140122,0.2956573,31.64264,12.14676,7.956159,1007.765
9.623103619,2.377879,31.66042,11.99359,-1.005156,0.05445748,0.2536533,31.29354,11.43065,8.838312,1007.767
9.655881405,19.95806,46.49268,1.180837,-0.932624,-0.04310755,0.1438779,30.55997,11.80787,9.641586,1007.767
9.688659668,17.78383,52.28377,-3.339751,-0.9753421,0.1905842,0.3226936,30.55997,11.80787,9.641586,1007.769
9.721437454,-8.058411,41.88346,-9.143208,-0.9397535,0.1107647,0.2177926,29.47138,11.84021,11.81855,1007.765
9.756736278,15.299,43.41986,-18.12329,-0.9789996,0.05215717,0.1014844,29.10803,11.84703,12.25414,1007.764
9.789515018,-0.7902802,47.2018,-15.12993,-1.140568,0.2351127,0.2710313,29.10803,11.84703,12.25414,1007.762
9.822292805,-3.399353,15.82358,-4.62262,-0.9352165,-0.1497436,0.2908601,26.85154,12.59911,13.55091,1007.762
9.855071068,3.744536,32.31044,-16.84042,-0.9100655,0.2327854,-0.06068885,25.74048,13.70693,14.40535,1007.762
9.887848854,-58.00351,36.74239,-20.50576,-1.119082,-0.06235202,0.05192767,25.74048,13.70693,14.40535,1007.76
9.923148632,1.383947,28.5876,-11.89221,-1.127479,-0.00199947,0.05618887,24.272,14.45033,15.20384,1007.758
9.955926418,-21.4765,36.97876,-10.36499,-1.149807,-0.02378755,-0.03855359,23.90334,14.83347,16.50391,1007.758
9.988704205,-19.86136,29.00125,-6.333112,-1.166712,-0.06596429,-0.06011121,23.90334,14.83347,16.50391,1007.758
10.021482468,-7.747807,20.01916,-0.7129228,-0.996065,-0.1551694,-0.06615785,22.43641,15.58961,18.23478,1007.758
10.056781769,-12.59323,22.73743,-2.423415,-0.8529177,-0.1039393,-0.01506888,22.08586,14.86161,18.24671,1007.758
10.089560032,-4.455406,17.06453,2.585884,-0.9152234,-0.01744058,0.1019194,22.08586,14.86161,18.24671,1007.758
10.122337818,15.299,26.63754,-4.62262,-0.856859,-0.09981124,-0.1171144,20.631,14.87699,19.11881,1007.758
10.155115604,3.620295,34.67415,-9.998453,-0.8785859,0.0590222,-0.08264425,20.2534,15.60674,19.10782,1007.758
10.187893868,13.62174,8.023349,1.974994,-1.158642,0.0362833,0.06583232,20.2534,15.60674,19.10782,1007.758
10.223193169,40.45792,-5.095226,-0.7129228,-0.9036626,-0.2657987,-0.3275897,19.16865,15.25086,19.55007,1007.763
10.255971432,-2.716024,14.52354,-10.73152,-0.963755,-0.0598876,-0.06060176,18.06893,15.61197,19.11064,1007.763
10.288749218,11.13691,5.245993,-7.73816,-1.015874,-0.1987445,-0.07519107,16.89501,16.7021,18.65982,1007.763
10.321527004,6.35361,19.36914,-10.79261,-0.8587438,0.08744924,-0.08080872,16.89501,16.7021,18.65982,1007.766
10.356826782,-26.19768,28.41032,-15.25211,-1.105576,-0.03333506,0.006122532,15.41915,17.80485,19.07963,1007.766
10.389604569,-15.88563,10.91889,-3.645196,-0.9870438,-0.04160494,0.07516994,14.69848,17.4481,19.52141,1007.766
10.422382832,-32.59612,13.69625,-7.249448,-0.7989801,-0.4231195,-0.5244778,14.69848,17.4481,19.52141,1007.768
10.455160618,-27.68858,15.11447,-13.54162,-1.105489,-0.112299,-0.2132596,13.23614,17.82197,19.95267,1007.768
10.487938881,10.01873,-6.336173,-8.410139,-1.008284,-0.3878681,-0.3863651,12.1439,17.82459,19.95408,1007.768
10.523238182,-17.68713,3.532306,-13.17508,-1.0458,0.1604115,0.06056398,12.1439,17.82459,19.95408,1007.768
10.556015968,31.63676,13.51897,-20.56685,-0.9948878,0.1531261,-0.1378668,11.78055,17.83141,20.38966,1007.768
10.588794231,12.93841,6.546032,-27.59209,-1.269312,0.2405409,0.1558016,12.13714,18.18903,19.94835,1007.768
10.621572018,20.76563,-7.340748,-24.11002,-1.147492,-0.2437456,-0.3650722,12.13714,18.18903,19.94835,1007.77
10.656871796,-26.63252,14.46445,-45.18573,-0.9242806,0.07198014,-0.1253966,12.47345,19.63996,19.48985,1007.771
10.689649582,-31.66431,9.618852,-51.53899,-1.031026,-0.1428401,-0.002072394,12.4877,18.91703,19.93642,1007.77
10.722427368,-6.878116,8.555183,-46.77404,-0.7731396,-0.3929595,-0.1404579,12.4877,18.91703,19.93642,1007.77
10.755205631,-37.69002,20.31463,-52.76077,-0.9452556,-0.05039285,0.09193174,11.74071,20.02397,20.79039,1007.774
10.787983417,-31.29158,18.60094,-48.54562,-1.114794,-0.2858485,-0.2254914,10.63518,20.82724,21.58745,1007.774
10.823283195,-7.809928,15.52812,-44.88028,-0.9948293,-0.3222688,-0.3542446,10.63518,20.82724,21.58745,1007.774
10.856060982,-16.07199,13.99171,-46.22424,-1.025062,-0.2497571,-0.2560844,10.62987,21.20357,22.45194,1007.772
10.888839245,-12.59323,8.023349,-44.26939,-1.06612,-0.3558415,-0.3338077,9.889647,21.94607,23.31165,1007.772
10.921617031,11.01267,6.72331,-39.99316,-0.8643377,-0.4923588,-0.4573092,9.889647,21.94607,23.31165,1007.772
10.956916332,5.794522,19.19187,-36.57217,-0.8499671,-0.3392149,-0.0936646,10.60501,22.67915,23.73436,1007.772
10.989694595,-5.262976,17.59636,-25.57615,-0.7794554,-0.3592163,0.0270201,10.59221,23.41397,24.15801,1007.77
11.022472382,-19.9856,13.75534,-9.998453,-0.6035361,-0.4348088,-0.05896561,10.59221,23.41397,24.15801,1007.77
11.055250645,-28.93099,13.57806,-1.262724,-0.7320995,-0.3103932,-0.2229926,10.59366,23.42585,25.02823,1007.77
11.088028431,-10.1084,-1.017831,9.183497,-0.7088588,-0.4996378,-0.2901531,10.22283,23.79116,25.02297,1007.769
11.123328209,-9.300826,-14.49096,18.53012,-0.912174,-0.3506894,-0.2682341,10.22283,23.79116,25.02297,1007.767
11.156105995,12.68993,-14.60915,24.27249,-0.8976647,-0.5934196,-0.5923405,9.873724,23.07505,25.90513,1007.769
11.188883781,14.55355,-14.07731,24.33357,-0.9645034,-0.1756241,-0.1740269,9.516408,22.71148,25.91133,1007.769
11.221662045,18.77777,-14.25459,22.37873,-0.9073402,-0.3252279,-0.184527,9.516408,22.71148,25.91133,1007.769
11.254439831,-4.331164,-9.231714,24.51684,-1.007642,-0.1535576,0.1095642,9.877579,22.68684,24.17041,1007.77
11.289739609,6.788455,-10.9454,28.24327,-0.9732368,-0.4003594,-0.2636821,9.879032,22.69872,25.04063,1007.77
11.322517395,-6.691754,2.882286,27.38803,-0.8984757,-0.4146427,-0.3764766,10.62674,21.59772,24.62177,1007.77
11.355295181,-15.69927,8.436998,26.34951,-0.8904626,-0.2693341,-0.1514373,10.62674,21.59772,24.62177,1007.775
11.388073444,1.694551,12.75076,21.46239,-0.8701461,-0.2400662,-0.16934,9.535238,21.60629,25.05829,1007.775
11.423372746,-15.63715,21.14192,13.88735,-0.8367959,-0.4204964,-0.381909,10.64172,20.88074,25.50346,1007.775
11.456151009,-25.76283,35.856,10.46637,-0.9426357,-0.1726451,-0.1220962,10.64172,20.88074,25.50346,1007.775
11.521707535,-20.97953,40.64251,10.46637,-0.8976603,-0.1246136,-0.2729415,8.768141,20.52675,25.94673,1007.775
11.554485321,-33.90065,43.06531,10.52746,-0.9903216,-0.1675462,-0.3121287,8.768141,20.52675,25.94673,1007.773
11.589784145,-3.461474,33.37411,5.518157,-1.006595,-0.07257429,-0.3627762,8.062124,19.38039,26.40092,1007.773
11.622562408,-11.35081,32.96046,-1.751436,-0.8104482,-0.2940468,-0.509723,6.984764,18.66517,27.22186,1007.771
11.655340195,-8.244773,35.73782,-2.301237,-0.9430522,-0.2433035,-0.3371574,6.984764,18.66517,27.22186,1007.771
11.688118935,6.974817,30.41948,0.08123443,-0.9436778,-0.1919573,-0.376705,4.8003,18.67041,27.22467,1007.773
11.723417759,8.77632,31.89679,-7.677071,-0.9491878,-0.1522132,-0.538008,3.338682,19.05023,28.09105,1007.773
11.756196499,23.56106,29.82855,-13.29726,-0.9778653,-0.1397729,-0.535552,3.338682,19.05023,28.09105,1007.773
11.788973808,19.46109,32.6059,-17.94003,-0.9607438,-0.182101,-0.4796908,2.238962,19.41134,27.65162,1007.773
11.821751595,8.962682,45.5472,-26.92011,-0.8885161,-0.1328918,-0.4938957,0.4043263,20.13863,27.20739,1007.775
11.854530334,5.856643,56.8339,-30.21892,-1.063285,-0.1342916,-0.4150172,0.4043263,20.13863,27.20739,1007.773
11.889829159,17.03838,49.44732,-33.70099,-1.022171,-0.2814083,-0.4688055,-0.02032688,20.1405,27.2701,1007.773
11.922607899,2.315759,43.65623,-26.49249,-0.9686929,-0.326909,-0.5627292,-2.211329,20.58195,28.0743,1007.773
11.955385685,-19.79924,40.93797,-14.70231,-0.9681585,-0.3539258,-0.5963852,-2.211329,20.58195,28.0743,1007.773
11.988162994,-30.04917,36.6833,3.196774,-0.8927559,-0.4445662,-0.7644226,-2.231613,21.67526,28.05711,1007.773
12.023462772,-17.87349,32.07407,15.78111,-0.8190714,-0.3534116,-0.5616,-2.950827,21.3304,29.36911,1007.777
12.056240559,6.726334,23.56472,22.74526,-0.8259552,-0.321979,-0.5856992,-2.950827,21.3304,29.36911,1007.775
12.089019299,15.67173,18.06911,29.34287,-0.8167797,-0.07720799,-0.4869294,-1.842165,20.62268,31.11961,1007.775
12.121797085,2.750604,5.068715,31.90861,-0.857637,-0.2306626,-0.3729998,-1.091873,19.47283,31.57193,1007.775
12.154574871,31.4504,-11.24086,26.83822,-0.7896068,-0.2616334,-0.4260643,-1.091873,19.47283,31.57193,1007.775
12.189874172,28.46861,-15.90919,12.36013,-0.7394156,-0.341783,-0.455907,0.7959542,19.10389,31.57523,1007.775
12.222651959,73.31981,-22.46848,-3.828463,-0.7543225,-0.632087,-0.5820321,2.624556,18.74697,32.44884,1007.773
12.255430698,105.5605,-31.68693,-14.03033,-0.7911965,-0.2298853,-0.5512624,4.43142,19.47149,32.43502,1007.773
12.288208485,45.67606,-26.60496,-10.97588,-0.7960045,-0.2751492,-0.6811505,4.43142,19.47149,32.43502,1007.773
12.323508263,82.01672,-20.10477,-6.45529,-0.7833794,-0.4649496,-0.6053206,5.108213,22.05776,30.65257,1007.773
12.356286049,81.39551,-16.6183,-6.760736,-0.8242635,-0.205155,-0.5271532,6.542785,23.13569,29.76328,1007.773
12.389063358,19.64746,-13.78185,-10.91479,-0.7973938,-0.2776397,-0.5473248,6.542785,23.13569,29.76328,1007.772
12.421842098,-0.1069516,-8.936251,-24.782,-0.7788529,-0.5251036,-0.5763589,7.243168,24.58575,29.30431,1007.77
12.454619885,24.05803,-13.13183,-27.531,-0.9200785,-0.5539057,-0.5562447,8.3354,24.58313,29.3029,1007.77
12.489919663,7.596025,-18.80473,-41.33712,-0.670251,-0.8227493,-0.3658128,8.3354,24.58313,29.3029,1007.768
12.522697449,-10.17052,-11.65451,-42.0091,-0.9367998,-0.4684574,-0.5751069,8.692716,24.9467,29.2967,1007.768
12.555475712,17.59747,-17.03195,-32.60139,-0.7040529,-0.6978698,-0.3668836,9.853116,24.58544,29.73605,1007.766
12.588253498,42.63214,-13.25002,-17.87894,-0.8123933,-0.4921028,-0.4829449,9.853116,24.58544,29.73605,1007.765
12.623553276,9.335406,-12.77728,-12.86964,-0.8226166,-0.467341,-0.4117165,9.48155,24.94481,29.29568,1007.763
12.656331062,16.29293,-10.88631,-15.80191,-0.7054688,-0.5149065,-0.3888173,10.19546,25.66599,28.84817,1007.763
12.689108848,3.99302,-13.25002,-18.67309,-0.7350037,-0.5340321,-0.3020733,10.19546,25.66599,28.84817,1007.763
12.721887112,12.44145,-16.44102,-24.47655,-0.6805615,-0.5654962,-0.3397012,10.55277,26.02956,28.84197,1007.761
12.754664898,14.24295,-14.25459,-25.57615,-0.6439278,-0.4537296,-0.3500652,10.91612,26.02274,28.40639,1007.761
12.789964676,4.117261,-19.27747,-17.69567,-0.7223179,-0.3592242,-0.3230654,10.91612,26.02274,28.40639,1007.76
12.822742462,21.75956,-22.52757,-6.944003,-0.7094873,-0.4407585,-0.2969794,11.99411,26.74305,27.95841,1007.76
12.855520248,37.84884,-26.48678,4.479643,-0.7378631,-0.3559279,-0.3206267,12.36567,26.38369,28.39878,1007.758
12.888298511,23.74743,-29.85506,17.4916,-0.7107674,-0.3142669,-0.3154588,12.36567,26.38369,28.39878,1007.758
12.921076298,28.77921,-30.38689,26.71605,-0.6938539,-0.4765182,-0.2753013,13.07823,27.09383,27.1432,1007.758
12.956376076,55.67751,-30.03234,34.23,-0.7483177,-0.4494357,-0.3074642,14.16297,27.44971,26.70095,1007.756
12.989153862,32.81706,-23.76851,35.20742,-0.7748331,-0.3229305,-0.2936325,14.16297,27.44971,26.70095,1007.756
13.021932125,1.446068,-19.33656,35.45177,-0.7792389,-0.510913,-0.2861183,15.60358,28.15726,25.38228,1007.754
13.054709911,17.97019,-12.48181,34.7798,-0.7884595,-0.5008042,-0.2220905,17.41357,28.48762,23.19864,1007.753
13.090009213,19.83382,-8.995343,34.53544,-0.8036188,-0.4536012,-0.2096103,17.41357,28.48762,23.19864,1007.751
13.122787476,3.496053,-6.572543,35.08524,-0.8117645,-0.4969216,-0.1960476,18.58073,27.76192,23.64372,1007.749
13.155565262,-2.591783,-3.026982,32.5195,-0.8597273,-0.5264387,-0.1106883,19.3014,28.11867,23.20194,1007.749
13.188343525,0.3278938,-5.981616,31.4199,-0.8985614,-0.5346657,-0.1264687,19.3014,28.11867,23.20194,1007.747
13.221121311,6.477851,-7.636211,31.05337,-0.8239686,-0.4631837,-0.1623742,20.40715,27.38718,23.21199,1007.747
13.256421089,-8.865981,-7.577119,28.79307,-0.785276,-0.5990939,-0.1425252,20.7705,27.38036,22.77641,1007.744
13.289198875,2.191517,-4.858855,27.38803,-0.7873433,-0.5364091,-0.09062776,22.24637,26.27761,22.35661,1007.744
13.321976662,6.043005,-2.849704,23.0507,-0.8083546,-0.4921752,-0.1479266,22.24637,26.27761,22.35661,1007.742
13.354754925,-10.04628,-1.726943,16.45309,-0.8925888,-0.3990005,-0.1651963,23.3386,26.27499,22.3552,1007.742
13.390054226,-5.387218,-2.258777,15.2924,-0.9191616,-0.4678557,-0.229532,24.08777,25.18589,22.80656,1007.74
13.422832489,-3.647836,2.586823,14.31497,-0.9309378,-0.4062226,-0.1771285,24.08777,25.18589,22.80656,1007.739
13.455610275,-2.40542,3.118657,12.05468,-0.96575,-0.2688291,-0.1984329,23.73045,24.82232,22.81276,1007.743
13.488388538,-19.86136,-0.3678112,15.78111,-0.9669487,-0.3804808,-0.2141467,23.7319,24.83421,23.68299,1007.737
13.521166325,-0.9145218,-1.076923,22.56199,-0.9797068,-0.3139722,-0.1598229,23.7319,24.83421,23.68299,1007.737
13.556465626,14.42931,-2.908796,32.39732,-0.9797342,-0.3068241,-0.1824576,24.11481,23.72814,22.82948,1007.737
13.589243889,6.105126,-7.518026,39.7891,-0.9458507,-0.2541542,-0.1431456,24.84973,23.36196,22.83427,1007.737
13.622021675,14.9884,-10.64994,46.69215,-0.8966064,-0.3349411,-0.1234049,24.84973,23.36196,22.83427,1007.737
13.654800415,22.13229,-11.06359,49.56334,-0.9062643,-0.3528748,-0.09928683,24.86325,22.63308,22.84573,1007.739
13.690099239,26.23226,-13.3682,47.79176,-0.9124432,-0.2003267,-0.07687809,26.33236,21.89477,22.4202,1007.739
13.722877502,18.83989,-16.20465,46.93651,-0.9296563,-0.3134795,-0.07907353,26.33236,21.89477,22.4202,1007.737
13.755655289,32.3201,-18.27289,47.79176,-1.033191,-0.2685585,-0.07841431,27.07258,21.15227,21.5605,1007.732
13.788433075,50.64572,-17.15013,52.25126,-1.033414,-0.1755633,-0.08240483,28.61036,19.98948,21.20373,1007.73
13.821211815,48.28513,-17.91834,54.02283,-1.040052,-0.0413004,-0.09751366,28.61036,19.98948,21.20373,1007.734
13.856510639,35.17765,-15.73191,59.09322,-1.017642,-0.06572137,-0.06431604,28.6217,19.24278,19.90986,1007.734
13.889288902,39.65034,-15.25917,65.81303,-1.040601,-0.00694475,-0.05905519,30.06907,19.58589,18.59691,1007.734
13.922066689,50.95633,-18.27289,66.79045,-1.008427,-0.07440598,-0.1336409,30.06907,19.58589,18.59691,1007.734
13.954845428,46.17303,-10.53175,62.45312,-1.027729,0.08996908,-0.07559809,31.18834,18.12553,18.61842,1007.734
13.990144253,32.87918,-9.113528,57.99362,-1.059734,0.07368673,-0.06731449,31.93388,17.0067,16.89423,1007.732
14.022922039,33.56251,-9.290807,51.94581,-1.082512,0.04943449,-0.09562425,31.93388,17.0067,16.89423,1007.73
14.055700779,50.02452,-11.83179,48.76918,-1.0938,0.09393346,-0.1264717,32.68835,15.54126,16.4811,1007.73
14.088478088,67.2941,-14.60915,47.60849,-1.057572,0.1685515,-0.1555518,33.42858,14.79875,15.62139,1007.73
14.121256828,63.69109,-13.30911,47.11978,-0.9842907,0.194313,-0.1109978,33.42858,14.79875,15.62139,1007.73
14.156555653,56.60932,-12.42272,47.18087,-0.8905654,0.1987987,-0.06886702,34.90382,13.69091,14.82864,1007.73
14.189334393,57.41689,-12.83637,44.49295,-0.8963782,0.1878547,-0.09483027,35.2732,13.31371,13.96367,1007.736
14.222112179,56.5472,-9.349899,34.47435,-1.024721,0.2495513,-0.1032834,36.43818,12.57019,13.10342,1007.736
14.254889965,34.49432,-11.12268,17.73596,-1.070402,0.2677846,-0.08779892,36.43818,12.57019,13.10342,1007.732
14.290189266,19.21261,-11.65451,1.974994,-0.997487,0.2322586,-0.1013964,36.01946,12.20083,12.67459,1007.736
14.322967053,21.8838,-6.690729,-2.851038,-0.9634516,0.2236603,-0.04803305,36.81964,11.45223,11.3797,1007.73
14.355745792,24.05803,-2.908796,-0.5907448,-0.9615282,0.2360096,-0.02543223,36.81964,11.45223,11.3797,1007.73
14.388523579,18.52928,-0.1314405,1.547371,-1.01304,0.2521089,-0.02966657,36.81964,11.45223,11.3797,1007.73
14.421301842,10.70206,-1.490572,1.058659,-1.048923,0.2338829,-0.01607586,37.53354,12.17342,10.93219,1007.729
14.456600666,17.34899,-4.031558,-0.2242106,-1.029954,0.2153464,-0.04304918,37.53354,12.17342,10.93219,1007.729
14.489378452,20.02018,-2.613333,-1.384902,-0.9935868,0.24163,-0.01910696,36.43382,12.53453,10.49275,1007.73
14.522157192,11.94448,1.759525,-2.72886,-0.9406769,0.2519093,-0.005288455,37.51929,12.89635,10.48561,1007.73
14.554934979,-1.100884,4.655066,-3.584107,-0.9464712,0.2367092,-0.01295359,37.51929,12.89635,10.48561,1007.73
14.587713241,-6.008425,5.009623,-5.111332,-0.9600607,0.2331598,-0.0167669,36.80466,12.16922,10.49801,1007.735
14.623012543,-8.058411,2.232267,-7.005092,-0.974125,0.2252298,-0.01960976,36.79718,12.52771,10.05717,1007.733
14.655790806,-3.523594,-1.313294,-7.677071,-0.9765165,0.206582,-0.03690501,36.79718,12.52771,10.05717,1007.727
14.688568592,4.676348,-4.622485,-6.638557,-0.9964142,0.1984996,-0.05465602,36.79863,12.5396,10.9274,1007.729
14.721346378,9.64601,-6.395265,-5.355688,-0.9881738,0.205417,-0.05035373,36.42706,12.89897,10.48702,1007.729
14.756646156,12.19296,-6.454358,-4.928065,-0.9847559,0.1951341,-0.06238039,36.42706,12.89897,10.48702,1007.729
14.789423943,11.44751,-4.917948,-5.661133,-0.9823012,0.1809268,-0.07728701,36.4203,13.2634,10.48129,1007.729
14.822202206,11.07479,-1.195109,-7.310537,-0.9813105,0.1716412,-0.0830517,36.77835,13.63291,10.91021,1007.728
14.854979992,8.652078,2.350452,-9.631919,-1.006523,0.1548382,-0.08778021,36.77835,13.63291,10.91021,1007.728
14.887758255,4.676348,6.132383,-11.46459,-1.00557,0.1601232,-0.09934311,36.41282,13.62189,10.04045,1007.728
14.923057556,0.265773,9.559759,-14.33577,-1.027865,0.1444089,-0.09108339,36.35213,13.62204,10.04053,1007.728
14.955835342,-3.337232,12.33712,-18.18438,-1.03074,0.1278056,-0.09393971,36.35213,13.62204,10.04053,1007.729
14.988613605,-4.082681,13.2826,-22.03299,-1.020511,0.1152615,-0.08913146,36.77762,13.62697,10.47509,1007.729
15.021391392,-1.53573,13.87352,-26.12595,-1.009752,0.08169555,-0.09632681,35.59163,15.45786,10.88304,1007.731
15.056691170,-4.269043,16.76907,-32.23486,-0.976755,0.09577854,-0.07187685,35.59163,15.45786,10.88304,1007.731
15.089468956,-8.617497,18.18729,-36.51109,-0.9776815,0.07575882,-0.07810219,35.58487,15.82229,10.87731,1007.731
15.122247219,-11.35081,18.8964,-38.58811,-0.9810768,0.07679827,-0.06461757,34.12252,16.19617,11.30857,1007.733
15.155025005,-9.673551,16.94634,-39.62663,-1.012593,0.05199612,-0.0914617,34.12252,16.19617,11.30857,1007.731
15.187802792,-1.225126,14.0508,-40.9095,-1.016414,0.0221379,-0.1082553,34.10297,17.29542,11.7265,1007.733
15.223102570,7.782387,11.74619,-42.0091,-1.023707,0.02546288,-0.1116125,32.98514,18.76767,12.57521,1007.731
15.255880356,9.086924,9.146111,-41.52039,-1.059164,0.02752861,-0.1221215,32.2367,19.86273,12.55896,1007.731
15.288658619,9.273286,5.541457,-41.21494,-1.097973,0.00605143,-0.1523229,32.2367,19.86273,12.55896,1007.729
15.321436405,9.894494,1.64134,-41.09276,-1.10335,0.01606367,-0.1768747,31.1163,21.38383,12.53649,1007.729
15.356736183,2.999087,-0.3678112,-42.92543,-1.078987,-0.01322141,-0.1451184,30.0173,21.75089,12.53217,1007.729
15.389513970,-2.219058,-0.8996454,-43.16979,-1.023122,-0.0209613,-0.1346493,30.0173,21.75089,12.53217,1007.729
15.422292233,-8.369015,-2.140592,-43.35306,-1.000214,-0.05831211,-0.1404237,29.61869,23.568,12.06888,1007.729
15.455070019,-17.93561,-5.449782,-43.29197,-0.9710635,-0.0603401,-0.1169031,28.87774,24.30457,12.49347,1007.729
15.487847805,-17.93561,-6.690729,-42.74216,-0.8785597,-0.1612953,-0.1078244,28.87774,24.30457,12.49347,1007.729
15.523147583,-11.16445,-4.799763,-43.53632,-0.8698155,-0.1657061,-0.1222794,28.50014,25.03431,12.48248,1007.728
15.555925369,-11.97202,-3.381538,-47.07949,-0.8906263,-0.1870315,-0.08224484,27.74494,26.4938,12.4605,1007.729
15.588703632,-17.81137,-6.158895,-45.73553,-0.83959,-0.2080219,-0.08040882,27.74494,26.4938,12.4605,1007.732
15.621481419,-8.058411,-4.917948,-40.3597,-0.8705796,-0.2619865,-0.1693059,26.57175,27.58988,12.4448,1007.732
15.656781197,-14.95382,-3.145167,-33.70099,-0.7962054,-0.2777564,-0.07511164,25.47348,27.96288,12.87559,1007.732
15.689558983,-6.194788,2.350452,-28.69169,-0.8180002,-0.3083854,-0.1111159,25.47348,27.96288,12.87559,1007.73
15.722336769,-14.95382,2.114082,-25.51506,-0.8455853,-0.3480889,-0.1143602,24.73035,28.68161,11.99485,1007.732
15.755115509,-3.461474,0.2822083,-29.48585,-0.7941911,-0.5200709,-0.1142229,23.26085,29.4866,12.85454,1007.732
15.787892818,17.34899,8.496091,-39.13791,-0.9311775,-0.2937914,-0.1176085,23.26085,29.4866,12.85454,1007.732
15.823192596,-31.10522,9.500667,-40.05425,-0.899948,-0.3578129,-0.1166234,22.51917,30.21722,12.84402,1007.732
15.855970383,-22.15983,12.10074,-41.76474,-0.7626699,-0.5047867,-0.125392,21.41269,30.94277,12.39885,1007.732
15.888749123,-41.60363,16.41451,-39.93207,-0.8618535,-0.2439487,-0.1072581,21.41269,30.94277,12.39885,1007.73
15.921526909,-70.92463,8.555183,-35.65584,-0.861681,-0.5225922,-0.1155031,19.58699,31.32346,13.2657,1007.732
15.956826210,-28.55827,4.241417,-25.3318,-0.8009012,-0.5728053,-0.1954776,18.84812,32.077,14.93346,1007.736
15.989603996,-0.6660386,-2.967889,-16.90151,-0.8923737,-0.4794853,-0.1130884,18.84812,32.077,14.93346,1007.736
16.022381783,-33.71429,-1.136016,-10.54825,-0.799079,-0.3216133,-0.215115,16.97527,31.72896,15.81184,1007.736
16.055160522,-71.4216,10.20978,-3.706285,-0.7403412,-0.3168269,-0.2277769,16.24576,31.71967,15.00472,1007.736
16.087938309,-153.3589,24.5693,-1.445991,-0.8005469,-0.3425142,-0.3474545,16.24576,31.71967,15.00472,1007.738
16.123238087,-46.07632,15.64631,-14.82449,-0.8829846,-0.5925344,-0.3425499,14.79974,31.38759,17.12573,1007.74
16.156015396,-40.36121,11.33254,-32.17377,-0.936268,-0.4636866,-0.4499614,13.01076,29.96988,19.76167,1007.74
16.188794136,64.87138,3.295935,-4.317175,-0.9363307,-0.2308069,-0.4392409,11.21927,28.46169,20.22301,1007.741
16.221571922,41.017,16.88725,13.33755,-1.070877,-0.5952688,-0.2997403,11.21927,28.46169,20.22301,1007.741
16.256871700,57.41689,0.341301,6.923204,-1.144386,-0.4977956,-0.2019964,9.738645,29.59546,18.46629,1007.743
16.289649487,-3.275111,0.9913205,27.44911,-1.063203,-0.299181,-0.03353032,8.569304,30.30332,16.71587,1007.743
16.322427273,-6.629633,-12.6,41.92721,-1.129887,-0.6679364,-0.1728926,8.569304,30.30332,16.71587,1007.743
16.355205536,-4.331164,-21.05025,34.59653,-0.9364928,-0.5379007,-0.2659688,8.992607,30.29041,15.8451,1007.743
16.387983322,2.874846,-21.93664,40.76652,-0.905334,-0.139853,-0.1438954,9.004053,29.54456,14.61339,1007.741
16.423283100,11.696,-29.02776,46.14235,-1.024504,-0.2561912,-0.1314033,9.004053,29.54456,14.61339,1007.741
16.456060886,27.10195,-31.9824,29.64832,-0.976769,-0.3529705,-0.3085118,10.46036,29.54107,14.61151,1007.746
16.488839150,23.49894,-23.35486,16.69745,-0.7537233,-0.1671176,-0.044572,11.5579,29.16213,13.7456,1007.746
16.521616936,9.024803,-17.3865,4.052021,-0.9798787,-0.20856,0.01090211,11.5579,29.16213,13.7456,1007.747
16.554394722,19.7717,-17.97743,-16.29062,-1.067607,-0.3527893,-0.3833891,11.92842,28.72419,12.8816,1007.747
16.589694500,13.00053,-11.89088,-32.05159,-1.101843,-0.4377274,-0.2999043,11.9198,29.14342,12.4398,1007.747
16.622472286,6.41573,-14.43187,-31.50179,-1.070357,-0.3851127,-0.1956027,11.9198,29.14342,12.4398,1007.747
16.655250549,5.856643,-21.34571,-21.84972,-0.9551902,-0.4368336,-0.2776295,11.54075,29.86128,11.55859,1007.747
16.688028335,13.00053,-18.92291,-24.35437,-0.9025294,-0.5163068,-0.2131321,11.5265,30.58421,11.11201,1007.749
16.723328113,7.409663,-21.34571,-17.63458,-0.9907513,-0.3479947,-0.0663612,11.5265,30.58421,11.11201,1007.749
16.756105900,-19.9856,-24.714,-6.882914,-0.9008422,-0.394502,-0.1387086,11.15493,30.94357,10.67164,1007.747
16.788884163,-20.23408,-20.6366,-1.140546,-0.84129,-0.5401476,-0.2132414,11.15493,30.94357,10.67164,1007.747
16.821661949,-14.14625,-16.32284,3.929842,-0.8193098,-0.3298314,0.09831188,11.15493,30.94357,10.67164,1007.747
16.854439735,-16.25835,-19.27747,5.762513,-0.843242,-0.2988772,-0.04416109,11.87778,31.31815,11.5352,1007.747
16.889739513,-10.79173,-11.65451,-4.378264,-0.8299103,-0.4296728,-0.2389471,11.87705,31.31221,11.10008,1007.747
16.922517300,-1.53573,-9.113528,-3.706285,-0.9187632,-0.3888944,-0.01111369,11.87705,31.31221,11.10008,1007.747
16.955295563,-0.5417971,-13.95913,5.273801,-1.001399,-0.5667527,-0.06456215,12.60521,31.31046,11.09914,1007.747
16.988073349,3.99302,-11.71361,7.350827,-0.8961264,-0.5128127,0.001534791,12.96856,31.30365,10.66356,1007.747
17.023373127,6.291489,-19.8684,25.43318,-1.004226,-0.4068292,-0.1061936,12.96856,31.30365,10.66356,1007.747
17.056150913,9.894494,-22.40938,31.66426,-0.9105208,-0.4102348,-0.1482892,12.25465,30.58246,11.11107,1007.746
17.088928700,11.07479,-21.70027,30.38139,-0.8172691,-0.4000075,-0.05032797,13.70951,30.56708,10.23897,1007.747
17.121706963,8.092991,-21.93664,39.42256,-0.8985369,-0.3100183,0.03107929,13.70951,30.56708,10.23897,1007.747
17.154484749,11.75812,-27.66863,49.80769,-0.9160411,-0.3155902,-0.04877684,14.43694,30.55939,9.802919,1007.747
17.189784527,-4.82813,-30.85964,54.93917,-0.8546606,-0.178119,0.03559005,15.53458,30.1813,8.999175,1007.747
17.222562313,15.73385,-35.9416,72.96044,-1.016696,-0.01104372,0.1632834,16.65498,28.6602,9.021641,1007.747
17.255340576,27.78528,-47.76014,90.61517,-1.032102,-0.2944832,0.04436944,16.65498,28.6602,9.021641,1007.749
17.323418140,21.20048,-32.86879,97.39604,-0.9990085,-0.09959028,0.1556731,20.02857,26.42991,6.441043,1007.749
17.356195927,22.44289,-37.00528,108.331,-1.166213,-0.03492577,0.1304601,20.02857,26.42991,6.441043,1007.749
17.388973713,66.42441,-26.72315,95.31902,-0.9508883,0.05612919,0.008508969,22.26567,23.49729,5.613841,1007.749
17.421752453,-9.176585,-34.28701,100.2672,-1.430686,0.1128662,0.1996993,24.1102,22.01141,3.893965,1007.749
17.454530239,62.26231,-32.86879,92.26456,-1.07331,0.07995331,0.00972615,24.1102,22.01141,3.893965,1007.749
17.489829540,16.04445,-32.33695,83.46775,-0.9996387,0.3608094,0.1073259,25.98445,19.01977,3.130346,1007.749
17.522607327,1.508188,-37.89167,71.37212,-1.049888,0.08093818,0.2633467,28.25383,17.53371,1.47208,1007.751
17.555386067,32.00949,-38.89624,49.92987,-0.8500582,0.1781047,0.2685027,28.25383,17.53371,1.47208,1007.751
17.588163853,-6.878116,-39.54626,39.48365,-1.009094,0.5213162,0.4378019,28.67055,14.60546,0.647227,1007.751
17.623463631,22.13229,-45.92827,47.66958,-0.8061212,0.2867071,0.2846011,29.77412,13.85613,-0.6480577,1007.751
17.656240940,18.5914,-37.53711,42.17157,-0.8292658,0.4223971,0.2844515,29.77412,13.85613,-0.6480577,1007.757
17.689018726,-21.72498,-36.35526,36.91791,-0.8444058,0.2759488,0.3944586,30.1691,12.0093,-2.360324,1007.757
17.721797466,13.43538,-43.21001,34.90197,-0.827279,0.4099783,0.3171981,29.4605,10.91179,-2.777306,1007.757
17.754575252,10.5157,-35.64614,33.74128,-0.8234829,0.4369125,0.2637173,29.4605,10.91179,-2.777306,1007.755
17.789875030,-6.194788,-30.80054,28.79307,-0.8659443,0.3432696,0.3660079,30.57207,9.73814,-4.003747,1007.755
17.822652817,22.56713,-29.26413,12.36013,-0.8657974,0.4713264,0.2907221,30.23889,7.893053,-5.715075,1007.753
17.855431080,-18.30834,-33.22334,3.807664,-0.8717216,0.5303739,0.3845127,30.23889,7.893053,-5.715075,1007.753
17.888208866,5.670281,-29.44141,-1.079457,-0.814972,0.3541102,0.3928269,30.609,7.521799,-6.144925,1007.753
17.923508644,15.05052,-23.53214,-9.143208,-0.8638713,0.5014013,0.4110126,30.25023,7.146347,-7.008949,1007.755
17.956286430,-5.200855,-24.30035,-12.44201,-0.8477745,0.4723703,0.4192013,30.25023,7.146347,-7.008949,1007.755
17.989064217,-10.85385,-20.57751,-17.08478,-0.8520655,0.4427591,0.4385106,30.6061,7.498024,-7.885372,1007.753
18.021842480,-11.22657,-21.58208,-22.39952,-0.9048144,0.368323,0.4435615,30.23318,7.846351,-9.133809,1007.753
18.054620266,-0.9766425,-21.70027,-25.45397,-0.8335271,0.3831492,0.3186974,30.23318,7.846351,-9.133809,1007.753
18.089920044,-12.65535,-14.07731,-24.72091,-0.8495826,0.4017133,0.3461452,29.85558,8.576097,-9.144799,1007.753
18.122697830,-0.293314,-11.47724,-29.11932,-0.8993988,0.309417,0.300673,29.48932,8.559137,-10.44966,1007.753
18.155476093,-10.91597,-0.4859966,-39.19901,-0.8882743,0.3244875,0.2832949,30.56731,9.279451,-10.89764,1007.753
18.188253880,-31.66431,3.827769,-50.867,-0.904152,0.284714,0.3960312,30.56731,9.279451,-10.89764,1007.756
18.221032143,0.07941072,5.186901,-60.94669,-0.9350856,0.2028349,0.2850333,29.46759,9.64056,-11.33708,1007.756
18.256331444,19.83382,4.359603,-64.24549,-0.9895443,0.2451543,0.3428622,30.16081,11.52174,-11.36762,1007.757
18.289109230,11.38539,5.423271,-68.46063,-1.041491,0.03978905,0.3591799,30.16081,11.52174,-11.36762,1007.756
18.321887493,31.88525,5.423271,-75.79131,-1.044351,0.2128422,0.3146406,29.40488,12.97529,-11.82471,1007.756
18.354665279,5.60816,7.550608,-80.61735,-1.066754,0.03988461,0.3332461,29.74722,14.05584,-12.7126,1007.754
18.389965057,45.30334,4.832345,-87.15388,-1.075196,-0.07372397,0.3950516,29.74722,14.05584,-12.7126,1007.754
18.422742844,79.22128,-5.686153,-97.17247,-1.081965,0.1034423,0.3163387,30.08426,15.51271,-12.73599,1007.754
18.455521107,33.00342,1.227691,-102.6094,-1.022559,0.03329764,0.3134154,28.61297,16.23319,-13.61579,1007.754
18.488298893,60.89565,14.52354,-116.9653,-1.033952,-0.2945676,0.2446204,28.61297,16.23319,-13.61579,1007.752
18.521077633,140.1618,-4.563392,-131.3823,-1.049054,-0.06818498,0.24961,28.57698,18.03755,-14.94978,1007.75
18.556376457,132.2103,3.295935,-145.1274,-1.157373,-0.05653287,0.2344458,28.17662,19.91031,-15.78698,1007.749
18.589154720,170.5388,-12.6,-141.4009,-1.068425,-0.3094745,0.1734831,28.17662,19.91031,-15.78698,1007.749
18.621932506,225.7642,-31.27328,-120.6917,-1.131321,0.0001456949,0.1592062,26.99834,20.96477,-18.84846,1007.747
18.654710293,225.9505,-45.51462,-101.5709,-0.9431288,0.08079825,0.1148343,25.15051,22.00386,-23.15226,1007.745
18.690010071,179.7948,-44.51004,-82.32784,-0.8992458,0.0001557569,0.09174642,25.15051,22.00386,-23.15226,1007.745
18.722787857,201.7234,-41.37813,-72.30924,-0.7811556,0.1577191,0.05560809,23.71408,20.49101,-27.41642,1007.745
18.755566120,141.6527,-38.83715,-65.46727,-0.7718974,0.1775017,0.2278838,21.55655,18.54794,-32.17022,1007.745
18.788343906,135.4406,-35.11431,-55.20433,-0.6884438,0.2155875,0.281541,21.55655,18.54794,-32.17022,1007.745
18.821122646,207.0658,-25.4822,-23.92675,-0.6654379,0.3474532,0.3063185,20.51947,15.22392,-35.53598,1007.745
18.856421471,278.5047,-30.38689,6.129047,-0.6472105,0.6648448,0.4015879,18.38328,12.26611,-38.96821,1007.748
18.889200211,205.3264,-35.58705,21.52348,-0.5804466,1.015666,0.6232899,18.38328,12.26611,-38.96821,1007.746
18.921977997,61.76534,-47.22831,27.93783,-0.5438665,0.7927405,0.8796236,18.87123,5.233493,-42.27759,1007.748
18.954755306,121.3392,-63.06514,43.39335,-0.5112596,0.989641,1.000071,17.50797,-3.229437,-43.88333,1007.748
18.990055084,97.36055,-73.52455,64.10253,-0.4874829,0.954221,0.7805673,17.50797,-3.229437,-43.88333,1007.746
19.055611610,45.55182,-46.34192,78.88607,-0.6572875,0.8717104,0.6756762,12.96261,-13.50599,-45.39412,1007.748
19.088389397,-21.97346,-55.91493,73.14371,-0.6261973,0.6746982,0.7428086,12.96261,-13.50599,-45.39412,1007.746
19.121167660,24.18227,-43.09182,67.40134,-0.5705302,0.5431558,0.7399867,9.314517,-16.41856,-45.77861,1007.746
19.156466484,16.97626,-40.31446,63.55273,-0.5611192,0.6870487,0.8297621,6.421856,-17.57752,-46.62693,1007.746
19.189245224,-8.80386,-34.28701,65.99629,-0.4501151,0.7435809,0.7013715,3.172931,-19.02147,-46.16467,1007.746
19.222023010,-15.14018,-25.36402,60.31501,-0.4330466,0.4938387,0.6266149,3.172931,-19.02147,-46.16467,1007.746
19.254800797,4.738469,-24.35944,52.12908,-0.3517074,0.5994276,0.6546633,1.000536,-19.757,-47.02061,1007.744
19.290100575,4.241503,-20.28205,53.1065,-0.3602574,0.7200108,0.6357286,-1.25813,-19.02274,-47.02917,1007.744
19.322878361,-5.200855,-20.10477,50.05205,-0.3551588,0.6147431,0.6199902,-1.25813,-19.02274,-47.02917,1007.744
19.355656624,5.732401,-22.46848,42.72137,-0.2338811,0.6624602,0.6124102,-3.079244,-19.02432,-47.46194,1007.744
19.388434410,5.483919,-18.56836,37.71207,-0.1930964,0.8698411,0.6192214,-4.549076,-18.29196,-47.47152,1007.743
19.421212673,-10.66748,-18.39108,39.36147,-0.2685333,0.5488002,0.6983462,-4.549076,-18.29196,-47.47152,1007.743
19.456511974,31.76101,-15.20008,38.6284,-0.2290433,0.683438,0.6816833,-5.992589,-19.02328,-47.89329,1007.743
19.489290238,11.32327,-8.522602,35.69613,-0.2762685,0.7614063,0.8145336,-7.811523,-19.00703,-47.02072,1007.741
19.522068024,34.18372,-7.16347,36.73465,-0.2483205,0.6400931,0.7751786,-7.811523,-19.00703,-47.02072,1007.743
19.554846287,37.04127,3.709584,29.83158,-0.1740047,0.8178656,0.6861637,-9.685828,-19.36696,-47.01256,1007.743
19.590145588,2.315759,8.377905,24.27249,-0.1396014,0.646813,0.7002994,-9.671579,-20.08989,-46.56599,1007.743
19.622923374,23.43682,7.550608,19.44645,-0.1872615,0.6583822,0.6002718,-9.671579,-20.08989,-46.56599,1007.743
19.655701637,26.41862,5.718735,9.488943,-0.1592108,0.6962604,0.5505679,-10.39297,-20.45258,-46.55932,1007.743
19.688479423,5.980885,0.2822083,7.717361,-0.2257771,0.7293756,0.6301006,-9.643185,-21.5366,-45.735,1007.744
19.721257687,11.57175,-7.695304,8.511518,-0.2320824,0.7269079,0.6330074,-9.643185,-21.5366,-45.735,1007.744
19.756556988,18.46716,-9.999919,9.305676,-0.1991802,0.7905254,0.7069632,-10.36375,-21.8925,-45.23107,1007.746
19.789335251,8.217233,-13.48639,17.24725,-0.1711826,0.8644487,0.7279653,-10.72252,-22.26795,-46.09509,1007.746
19.822113037,24.8656,-8.818065,19.56863,-0.08250957,0.9587646,0.8070375,-10.72252,-22.26795,-46.09509,1007.746
19.854891300,13.24902,-4.799763,20.79041,-0.133591,0.7679177,0.6688142,-11.79842,-22.97128,-44.40393,1007.75
19.887669086,-1.411488,-6.986192,19.38536,-0.1395151,0.7875607,0.5590482,-12.53334,-22.6051,-44.40872,1007.756
19.922968864,5.546039,-5.508875,17.36943,-0.1736179,0.842589,0.5989991,-12.53334,-22.6051,-44.40872,1007.756
19.955746651,6.788455,-2.022406,14.80369,-0.1769589,0.8202311,0.6096307,-12.87786,-23.70348,-44.82617,1007.757
19.988524437,-8.244773,0.1640229,14.37606,-0.007394322,0.7833273,0.6319081,-13.61205,-23.33136,-44.39585,1007.757
20.021303177,-12.84171,0.7549497,4.968356,-0.06634025,0.8727747,0.6786052,-13.61205,-23.33136,-44.39585,1007.757
20.056602001,-5.138734,-1.786036,8.816964,-0.125052,0.8350544,0.5777153,-13.61943,-22.97201,-44.77454,1007.759
20.089380264,-27.50221,3.295935,13.21537,-0.1461897,0.731342,0.537006,-14.71915,-22.6109,-45.21397,1007.755
20.122158051,-25.70071,1.995896,9.67221,-0.1623349,0.5939515,0.6200457,-14.00379,-21.87783,-44.79126,1007.761
20.154936791,18.77777,-3.617908,7.595183,-0.1293575,0.8148139,0.6138582,-14.00379,-21.87783,-44.79126,1007.761
20.187714577,-8.555377,-4.504299,9.305676,-0.1533231,0.8998067,0.6782894,-14.3814,-21.14808,-44.80225,1007.763
20.223014355,-30.67037,-10.1181,15.47567,-0.09170699,0.7096086,0.6379955,-14.3686,-21.8829,-45.2259,1007.763
20.255791664,3.930899,-0.9587381,4.907267,-0.01889561,0.7128739,0.5997903,-14.3686,-21.8829,-45.2259,1007.763
20.288570404,-9.673551,0.5185789,3.196774,-0.1049785,0.7953784,0.7312819,-15.14408,-19.3301,-45.26507,1007.764
20.321348190,-21.35226,-4.917948,3.380041,-0.05214822,0.6256093,0.6977172,-14.77252,-19.68946,-44.8247,1007.764
20.356647968,17.41111,1.523155,-5.600044,-0.03453332,0.7536176,0.594471,-14.77252,-19.68946,-44.8247,1007.764
20.389425755,6.664213,0.04583753,-1.812525,-0.1215684,0.8298429,0.7346389,-15.51565,-18.97073,-45.70544,1007.766
20.422203541,-2.716024,-5.508875,2.769151,-0.09481308,0.7949679,0.6600169,-15.50816,-19.32923,-45.2646,1007.766
20.454981804,-21.7871,-3.145167,1.913905,-0.06553718,0.7332782,0.6484877,-15.50816,-19.32923,-45.2646,1007.768
20.487759590,-8.369015,-4.386114,1.241926,-0.06816217,0.6175459,0.6780314,-15.86475,-19.68685,-44.82329,1007.77
20.523059368,12.0066,-7.518026,2.402617,-0.04006064,0.8567426,0.7228523,-15.52096,-18.59441,-44.84095,1007.77
20.555837155,-17.12804,-11.83179,10.03874,-0.04728158,0.8263422,0.7022167,-15.52096,-18.59441,-44.84095,1007.774
20.588615417,-16.81744,-7.813489,10.03874,-0.04645239,0.6630064,0.6057072,-15.52241,-18.60629,-45.71117,1007.77
20.621393204,-8.990223,-3.44063,5.273801,-0.06170041,0.7598411,0.6816526,-16.26481,-17.88162,-46.1568,1007.77
20.656692982,-27.62646,-8.995343,7.900629,-0.0704878,0.7888342,0.7292846,-16.26481,-17.88162,-46.1568,1007.77
20.689470768,-29.5522,-8.04986,8.206074,0.008765846,0.736094,0.6839281,-16.27085,-17.51124,-45.72742,1007.77
20.722248554,-39.55365,-3.381538,5.273801,0.03804575,0.6759826,0.6892442,-17.01376,-16.72073,-45.80105,1007.77
20.755026817,-31.72643,-3.44063,2.891329,0.002846387,0.585095,0.7587808,-17.01376,-16.72073,-45.80105,1007.77
20.787804604,-8.058411,-5.567967,0.6310356,-0.02632246,0.5939046,0.7299549,-17.04818,-14.90364,-46.20265,1007.77
20.823104382,-10.60536,-2.55424,-2.606682,-0.01977741,0.6965866,0.7100489,-17.06243,-14.18071,-46.64923,1007.77
20.855882168,-16.07199,-3.086074,0.3866795,-0.01796796,0.7642342,0.7705941,-17.06243,-14.18071,-46.64923,1007.77
20.888660431,-23.58861,0.2822083,1.730638,0.007489907,0.6681927,0.7263932,-17.86479,-13.44994,-46.65967,1007.77
20.921438217,-27.00525,2.882286,0.08123443,-0.0249671,0.6388035,0.7414367,-17.44607,-13.08058,-46.23083,1007.77
20.989515781,-29.2416,1.877711,-0.1631216,0.009692059,0.5707452,0.7881492,-17.88507,-12.35663,-46.67686,1007.768
21.022294044,-29.80068,0.8731351,-1.384902,0.004770675,0.6100886,0.8487532,-17.13077,-10.54228,-47.14164,1007.766
21.055071831,-29.61432,0.8140424,-3.828463,0.01082328,0.5096123,0.8204899,-17.13077,-10.54228,-47.14164,1007.766
21.087849617,-11.9099,2.823194,-3.828463,-0.00973869,0.5795505,0.8170637,-17.14429,-9.813409,-47.1531,1007.766
21.123149395,-32.16127,7.786979,-2.423415,-0.01466032,0.6178797,0.8718928,-16.81402,-7.992096,-47.18222,1007.766
21.155927181,-41.47939,6.191476,-0.5907448,0.02150176,0.5212579,0.8714713,-16.82264,-7.572864,-47.62402,1007.768
21.188705444,-48.37479,10.44615,-4.194997,0.0302471,0.5214111,0.8830031,-16.82264,-7.572864,-47.62402,1007.77
21.221483231,-30.91886,5.482364,-1.568169,0.03352833,0.5837506,0.9488479,-16.48633,-6.121932,-48.08252,1007.77
21.256783009,-77.57156,9.323388,2.21935,0.01794418,0.6026016,0.946931,-16.15533,-4.294676,-47.67653,1007.77
21.289560795,-111.9865,14.46445,1.486282,0.02212777,0.4966916,1.050092,-16.15533,-4.294676,-47.67653,1007.771
21.322339535,-71.35948,3.236842,3.624397,-0.09601915,0.3680437,1.112181,-15.4692,-2.121687,-48.58207,1007.771
21.355116844,-47.25662,-15.61372,13.94844,-0.003549652,0.4731331,1.055002,-15.1799,1.952931,-48.21141,1007.77
21.387895584,-69.9307,-28.7323,41.74394,0.02641957,0.7157216,0.9549236,-15.1799,1.952931,-48.21141,1007.77
21.423194409,-54.9596,-31.09601,67.03481,0.02918547,0.353815,0.8765191,-14.50438,4.878569,-47.38797,1007.768
21.455973148,95.12421,-43.21001,83.52884,0.02597528,0.2592481,0.7986887,-16.01332,7.809443,-46.5617,1007.768
21.488750935,56.67144,-36.41435,75.15965,0.2829029,0.633603,0.7440839,-16.01332,7.809443,-46.5617,1007.768
21.521528721,12.62781,-14.72733,65.50758,0.2085665,0.4393416,0.7031559,-16.00521,7.456045,-45.74791,1007.768
21.556828022,-5.759942,0.8140424,51.82363,0.1380526,0.2759661,0.6867217,-17.06291,5.642422,-45.28274,1007.768
21.589605808,-15.07806,17.12362,26.77713,0.1987617,0.05645456,0.6344401,-17.06291,5.642422,-45.28274,1007.768
21.622384548,6.974817,33.4332,8.144984,0.0646752,0.09465677,0.6862063,-17.07633,6.372144,-45.23204,1007.768
21.655162334,15.299,46.43359,-2.72886,-0.04078757,0.1412971,0.7263392,-16.72515,7.10524,-44.87102,1007.768
21.687940597,-14.14625,57.30664,-24.47655,-0.07141632,0.1500442,0.6902965,-16.72515,7.10524,-44.87102,1007.77
21.723239899,-35.08095,73.73441,-44.94137,-0.2281976,-0.06553815,0.7641603,-15.6194,6.373748,-44.86097,1007.77
21.756018162,11.63388,76.3345,-48.85107,-0.3627299,-0.04237755,0.8246146,-12.70678,6.366767,-44.86472,1007.77
21.788795948,68.10166,93.17591,-46.52969,-0.3026092,0.2057359,0.8524984,-12.70678,6.366767,-44.86472,1007.77
21.821574211,-80.24275,80.94373,-61.37432,-0.4702224,0.8418759,1.833915,-11.62131,6.728587,-44.87186,1007.771
21.856873512,4.117261,-23.53214,37.04009,-0.7228379,0.1650869,1.255494,-9.409802,5.265604,-44.85176,1007.777
21.889651775,51.26693,-1.726943,17.91923,-0.03916279,0.05250791,0.6330849,-9.409802,5.265604,-44.85176,1007.777
21.922429562,7.906629,-10.23629,-4.561531,-0.1680685,0.3327069,0.5294756,-8.276447,6.362094,-44.43533,1007.777
21.955207348,-19.11591,3.355028,3.380041,-0.04137704,0.171994,0.6589037,-8.250129,4.898403,-44.84752,1007.777
21.987985611,3.309691,1.227691,-8.226871,-0.0627867,0.5171311,1.289981,-8.250129,4.898403,-44.84752,1007.777
22.023284912,11.32327,-1.904221,3.074596,-0.06665457,0.4769446,1.118686,-9.046348,5.259636,-45.22519,1007.779
22.056063175,4.427866,5.83692,1.669549,-0.1400775,0.2529889,0.7986106,-9.402314,4.907111,-44.41092,1007.779
22.088840961,2.067276,1.700433,0.7532136,-0.2042364,0.2807519,0.8059413,-8.614829,4.894181,-45.22001,1007.779
22.121619225,4.552107,-2.436055,1.364104,-0.1557642,0.3505561,0.9804555,-8.614829,4.894181,-45.22001,1007.777
22.154397011,2.44,-1.904221,1.241926,-0.1334997,0.3955909,1.05639,-8.608172,4.528895,-45.27643,1007.777
22.189696789,8.465715,-2.790611,0.02014541,-0.1396454,0.3026733,0.9390923,-9.032203,4.535857,-44.84077,1007.777
22.222474575,12.0066,-3.972465,-0.6518338,-0.1427012,0.3463858,0.8552767,-9.032203,4.535857,-44.84077,1007.777
22.255252838,-0.7281594,-1.66785,-0.4074777,-0.1423201,0.400321,0.9067002,-9.396903,4.531635,-45.21326,1007.777
22.288030624,-5.200855,-1.845128,0.8143026,-0.1329518,0.3511063,0.9621088,-9.032825,4.530762,-45.21373,1007.781
22.323330402,5.173315,-0.604182,1.180837,-0.1174228,0.351092,0.9413734,-9.032825,4.530762,-45.21373,1007.781
22.356108189,3.558174,0.1640229,0.5699465,-0.1447031,0.3828181,0.9139527,-9.395554,4.542674,-44.40519,1007.781
22.388886929,-5.946304,-5.095226,1.852816,-0.1698292,0.35474,1.038727,-8.608068,4.529744,-45.21428,1007.781
22.421664715,23.49894,-24.77309,7.656272,-0.1623047,0.26967,1.123076,-8.608068,4.529744,-45.21428,1007.781
22.454442024,148.1753,-32.86879,49.31898,-0.2636115,0.3847211,1.050457,-9.382757,3.807855,-44.82884,1007.781
22.489741802,137.3663,-65.42885,80.59657,-0.2740445,0.9436339,1.312944,-9.733313,3.079854,-44.81691,1007.783
22.522519589,68.84711,-93.73425,120.4877,-0.3110596,1.18402,1.256832,-9.733313,3.079854,-44.81691,1007.783
22.555298329,44.93061,-112.1712,191.7786,-0.2353689,1.606507,1.197771,-11.44501,-2.812609,-45.09488,1007.783
22.588076115,30.51859,-126.708,253.6007,-0.04181198,1.275416,1.189146,-15.04315,-4.973522,-43.81263,1007.783
22.623375893,66.1138,-129.5444,291.9646,0.1512074,0.8818702,0.7445034,-15.04315,-4.973522,-43.81263,1007.783
22.656153202,26.60498,-118.9668,293.3085,0.1473885,0.8116369,0.5246361,-19.50511,-3.128833,-42.96534,1007.783
22.688931942,-89.25026,-122.6306,277.2421,-0.007449506,0.3743472,0.5112215,-24.27577,-0.9070907,-41.25316,1007.78
22.721709728,-78.25488,-129.9581,259.9539,0.01057739,-0.09580994,0.3260817,-24.27577,-0.9070907,-41.25316,1007.778
22.754487991,-32.03703,-116.7804,238.8171,0.1746872,-0.1350466,0.089403,-28.44635,5.029199,-38.79204,1007.776
22.789787292,-44.95815,-93.37969,202.8968,0.4485771,-0.3631277,0.01929968,-30.77488,13.16034,-35.43534,1007.776
22.822565556,18.2808,-68.14712,184.2035,0.5237868,-0.3502021,-0.03336662,-30.77488,13.16034,-35.43534,1007.775
22.855343342,-16.56896,-21.34571,172.4744,0.574097,-0.1941156,0.3600327,-31.25753,19.81663,-32.99046,1007.773
22.888121128,-92.54266,-13.48639,159.157,0.5544086,-0.6888677,0.3954831,-30.62258,24.92889,-32.20139,1007.775
22.923420906,-28.93099,5.127808,135.5156,0.7270787,-0.8414506,0.2378983,-30.62258,24.92889,-32.20139,1007.775
22.956198692,-56.13989,8.909739,94.52486,0.6216655,-0.9788916,0.4910704,-28.53026,30.11623,-30.10983,1007.775
22.988976955,-46.51117,3.295935,49.13572,0.6063464,-1.069044,0.5023139,-24.91453,34.86287,-28.88376,1007.773
23.021754742,-34.21126,-1.017831,2.646973,0.6387176,-1.007658,0.4660425,-24.91453,34.86287,-28.88376,1007.772
23.054533005,2.564242,-1.904221,-26.79793,0.6925095,-0.7502572,0.5064427,-22.04778,37.41884,-28.05741,1007.772
23.089832306,30.58071,-7.577119,-34.1897,0.7508245,-0.554578,0.5604033,-21.33896,38.58813,-26.83332,1007.772
23.122610569,57.60325,-31.1551,-24.47655,0.7786873,-0.4403338,0.4966253,-22.42516,38.22036,-27.26129,1007.77
23.155388355,57.23053,-51.06933,-14.33577,0.782219,-0.2887256,0.5122733,-22.42516,38.22036,-27.26129,1007.77
23.188166618,47.97453,-61.05599,-4.133908,0.839618,-0.3604048,0.3610976,-23.49806,37.05195,-28.48491,1007.768
23.223465920,34.74281,-57.15588,7.228649,0.8687321,-0.3705785,0.2638088,-25.64944,35.22905,-28.88855,1007.768
23.256244183,14.49143,-48.41016,11.44379,0.9653729,-0.3907899,0.1827413,-25.64944,35.22905,-28.88855,1007.765
23.289021969,2.067276,-35.23249,18.46903,1.015002,-0.4574995,0.0551633,-26.72815,34.5028,-28.87568,1007.767
23.321800709,21.63532,-11.71361,30.56465,1.055724,-0.4571762,-0.08741685,-27.44206,33.78162,-28.42817,1007.767
23.354578018,22.13229,25.10114,39.728,1.050031,-0.5354455,-0.199924,-27.44206,33.78162,-28.42817,1007.765
23.389877796,54.93206,99.49883,49.68552,1.105195,-0.5970883,-0.9364455,-27.42999,33.04085,-29.28693,1007.764
23.422655583,119.2892,327.242,45.22602,1.248602,-0.4155629,-1.759706,-25.62531,33.74753,-30.60608,1007.762
23.455433369,77.35766,510.0748,56.4664,-0.04636434,-0.1468286,-0.2186078,-25.62531,33.74753,-30.60608,1007.76
23.488212109,-511.1746,281.327,-90.26942,-0.4460196,0.1503742,0.2074159,-18.69159,32.18489,-37.0566,1007.76
23.520989895,146.9329,37.4515,21.64566,0.6889318,-0.5616641,0.03587649,-5.060472,30.37174,-33.99971,1007.76
23.556289196,-12.28262,28.76488,5.518157,0.8180118,-0.4694082,0.330506,-5.060472,30.37174,-33.99971,1007.76
23.589066982,-117.391,-0.8996454,-9.509741,0.1485309,-0.6671095,0.650572,-2.636539,36.90173,-35.84659,1007.76
23.621845722,36.73067,-15.08189,3.074596,0.3341035,-0.466727,0.8077165,-1.865637,34.73119,-34.50781,1007.76
23.654623508,24.74136,-29.32323,5.884691,0.3260923,-0.6281729,0.5032768,-1.865637,34.73119,-34.50781,1007.76
23.689923286,45.55182,-21.22753,-2.179059,0.3978994,-0.6052269,0.4948888,-1.898821,36.55847,-34.16351,1007.758
23.722701073,-11.28869,-18.03652,-15.67973,0.3859703,-0.6495183,0.7236307,-2.231168,34.72017,-35.37757,1007.757
23.755479336,-11.41293,-19.33656,-21.78863,0.3261951,-0.6043297,0.8503025,-2.231168,34.72017,-35.37757,1007.757
23.788257122,-3.337232,-28.96867,-29.1804,0.3070035,-0.687251,0.9255654,-4.044794,34.3601,-35.36949,1007.755
23.821035385,-10.60536,-24.714,-38.0994,0.3034062,-0.6146137,0.8696265,-4.050828,34.73048,-34.94011,1007.755
23.856334686,-15.57502,-18.68654,-56.05957,0.2967083,-0.8944523,0.6977366,-4.050828,34.73048,-34.94011,1007.755
23.889112949,24.74136,-29.61869,-84.03833,0.1411585,-0.7917908,0.869797,-6.241327,35.10609,-34.5079,1007.755
23.921890736,37.84884,-50.71478,-117.0875,0.06072235,-0.6554843,0.8871114,-8.069201,35.46895,-34.9464,1007.753
23.954668522,44.24728,-58.69229,-146.7157,0.08420134,-0.5763512,0.6120788,-8.069201,35.46895,-34.9464,1007.755
23.989968300,54.00024,-40.72812,-188.3784,0.3241443,-0.4762566,0.2195304,-11.7511,34.37857,-35.35954,1007.753
24.022746563,6.35361,-5.863431,-229.308,0.4146901,-0.575454,0.2035803,-16.43147,31.46252,-36.17782,1007.753
24.055524349,38.71853,29.11944,-259.9747,0.4749209,-0.3922977,0.1352893,-21.89206,28.12915,-36.55327,1007.753
24.088302135,68.47439,55.47477,-273.3532,0.5532227,-0.02298996,0.2000122,-21.89206,28.12915,-36.55327,1007.753
24.121080399,71.08347,71.66617,-280.1341,0.560266,0.3238632,0.4131973,-26.52582,22.65611,-37.76655,1007.751
24.156379700,23.43682,85.43477,-280.1952,0.8983055,0.5462092,0.6739212,-27.91748,15.63988,-40.20328,1007.751
24.189157963,-12.53111,89.86671,-261.6241,0.4496368,0.7959668,0.9196221,-27.91748,15.63988,-40.20328,1007.751
24.221935749,-38.93244,78.75729,-231.3851,0.1128188,0.9412171,0.9904809,-28.15497,8.631088,-41.89559,1007.751
24.254714012,-22.78103,56.77481,-193.1433,-0.001851636,0.7430879,0.8620465,-25.80976,3.148114,-42.62061,1007.751
24.290013313,50.273,38.92882,-156.3066,0.0696049,0.6559948,0.5784862,-25.80976,3.148114,-42.62061,1007.753
24.322791576,31.01556,29.23762,-132.543,0.08081519,0.8754585,0.7475682,-22.85014,0.517447,-43.45352,1007.755
24.355569363,-6.319029,26.46027,-108.1074,0.06652196,0.9988201,0.9250387,-21.32091,-3.506738,-44.26259,1007.755
24.388348103,-44.95815,29.4149,-88.80328,0.08263032,0.9649189,0.9332348,-21.32091,-3.506738,-44.26259,1007.755
24.421125889,-77.01247,38.63336,-72.61469,0.1546452,0.6860297,0.873314,-19.81727,-6.061287,-44.22436,1007.751
24.456425190,-11.41293,33.72866,-52.14988,-0.03548549,0.6003701,0.900369,-18.3699,-5.718173,-45.53731,1007.751
24.489202976,21.5732,22.44196,-36.26673,-0.02545304,0.668095,0.8920599,-18.3699,-5.718173,-45.53731,1007.753
24.521981716,-4.82813,18.1282,-36.32782,0.00644474,0.5195473,0.8536992,-16.51047,-4.640409,-46.36499,1007.754
24.554759503,32.81706,6.664217,-30.82981,-0.1018746,0.5508899,0.9386286,-16.49695,-5.369283,-46.35353,1007.754
24.590059280,64.06381,0.04583753,-25.51506,-0.08458067,0.6178235,0.8778351,-16.49695,-5.369283,-46.35353,1007.754
24.622837067,40.27155,-11.24086,-3.461929,-0.1012358,1.092722,0.9026711,-15.01963,-6.46014,-45.90311,1007.756
24.655614376,-26.50828,-15.61372,20.97368,-0.07187947,0.7863068,0.8578153,-14.61458,-8.714318,-46.30335,1007.76
24.688393116,-33.03096,-12.83637,23.17288,0.01931521,0.5820711,0.6542907,-14.61458,-8.714318,-46.30335,1007.762
24.721170902,-28.30978,-3.558816,15.53676,0.05665644,0.4028403,0.6795031,-15.69184,-9.428686,-45.42026,1007.762
24.756470680,-6.256908,1.759525,6.312314,0.04198236,0.4838901,0.8661841,-16.07016,-8.704884,-45.86636,1007.762
24.789248466,25.11408,-0.4269039,2.952418,0.01315304,0.5601277,0.868063,-16.07016,-8.704884,-45.86636,1007.764
24.822026730,15.79597,-0.8996454,3.563308,-0.01913808,0.6515166,0.8116826,-16.84001,-6.455777,-45.90076,1007.764
24.854804516,4.303624,-0.5450893,-0.6518338,0.03195735,0.6031623,0.8005629,-16.45565,-7.549961,-45.88404,1007.764
24.890104294,10.2051,7.668793,-4.500442,0.08494204,0.5666215,0.7350272,-16.45565,-7.549961,-45.88404,1007.764
24.922882080,20.14442,15.35084,-12.19766,0.04497078,0.6330724,0.7436863,-16.44038,-8.334479,-45.49867,1007.764
24.955660343,6.726334,19.36914,-16.47389,0.0006959579,0.6803235,0.798114,-16.0762,-8.334503,-45.43699,1007.765
24.988438129,-20.17196,21.20102,-18.79527,-0.05109989,0.623293,0.8536794,-16.0762,-8.334503,-45.43699,1007.765
25.021216393,0.7006184,21.96922,-18.36765,-0.06843921,0.5450369,0.7570847,-16.05519,-9.42187,-44.98468,1007.767
25.056515694,3.371812,29.29671,-23.19368,-0.0704964,0.5846422,0.711782,-14.58609,-10.16018,-45.41021,1007.767
25.089293957,-16.32047,32.36953,-28.14189,-0.04199635,0.6573194,0.7631105,-13.50134,-9.804303,-45.85246,1007.767
25.122071743,-11.10233,31.36496,-28.20298,-0.08719845,0.6784756,0.7781081,-13.50134,-9.804303,-45.85246,1007.767
25.154850006,-21.04165,27.52393,-23.86566,-0.103384,0.7632002,0.8646638,-12.76715,-10.17643,-46.28278,1007.767
25.190149307,-48.00207,36.15147,-19.16181,-0.02532008,0.5842993,0.7482588,-10.95207,-9.804468,-45.42064,1007.767
25.222927570,-40.79606,40.64251,-8.287961,-0.04402115,0.5060064,0.8581716,-10.95207,-9.804468,-45.42064,1007.767
25.255705357,-27.25373,40.93797,8.511518,-0.07822738,0.5937642,0.8422355,-9.516879,-8.72144,-45.93698,1007.767
25.288483143,-29.17948,46.84724,24.45575,-0.06514802,0.5984391,0.7983936,-7.669188,-6.830287,-45.03663,1007.767
25.321261883,-33.21733,65.40234,32.33624,-0.1120061,0.4987864,0.8121331,-7.669188,-6.830287,-45.03663,1007.767
25.356560707,-39.55365,83.36652,40.3389,-0.2480201,0.5250796,0.8345587,-6.225777,-6.099809,-44.67702,1007.765
25.389338970,-44.33694,100.2079,44.85948,-0.3859773,0.3331394,0.7836695,-4.06222,-5.016829,-45.06998,1007.765
25.422116757,-32.03703,113.3265,46.38671,-0.5407107,0.271757,0.8274515,-4.06222,-5.016829,-45.06998,1007.765
25.454895496,-39.67789,118.4085,37.04009,-0.6875993,0.1888949,0.9246785,-1.546135,-3.189713,-44.29385,1007.764
25.487673283,8.465715,106.5309,19.01883,-0.7319046,0.01695985,0.8364722,3.950114,-1.733313,-43.45367,1007.765
25.522973061,104.4423,102.2762,1.303015,-0.6505017,0.2508177,0.6096866,3.950114,-1.733313,-43.45367,1007.765
25.555750370,51.08057,101.3898,-19.65052,-0.5748258,0.9155253,0.7139235,6.850664,-0.9995313,-42.59867,1007.764
25.588529110,-31.85067,110.3128,-31.86832,-0.4221964,0.4061307,0.5376695,11.34393,-4.267156,-40.87453,1007.764
25.621306896,14.42931,106.2945,-41.39821,-0.4630917,0.7107138,0.8232363,11.34393,-4.267156,-40.87453,1007.764
25.656606674,11.01267,94.77141,-41.09276,-0.5640815,0.6640283,0.6045266,14.63715,-4.979259,-39.06469,1007.764
25.689384460,8.403595,89.33488,-40.17643,-0.6825575,0.2054572,0.3585602,18.69873,-4.601639,-37.39738,1007.77
25.722162723,40.14731,69.89339,-36.20564,-0.8837866,0.5233541,0.5101873,18.69873,-4.601639,-37.39738,1007.771
25.754940510,13.06265,54.52929,-34.98386,-0.8451185,0.3784714,0.4304079,21.59542,-3.479646,-34.80766,1007.771
25.787718773,35.98522,43.30168,-25.20962,-0.8822814,0.4862365,0.4235945,23.42475,-3.830615,-33.49895,1007.771
25.823018074,22.44289,29.71036,-21.4221,-0.8657777,0.4827508,0.3927535,23.42475,-3.830615,-33.49895,1007.77
25.855796337,9.335406,24.39202,-17.08478,-0.7912006,0.5757107,0.4338336,24.89666,-4.545997,-32.24619,1007.771
25.888574123,-5.014493,17.18271,-16.29062,-0.7676201,0.2367045,0.3317586,25.61878,-4.177361,-31.81775,1007.771
25.921351910,-0.2311932,17.53727,-10.91479,-0.7510874,0.450867,0.4324825,25.61878,-4.177361,-31.81775,1007.771
25.956651688,-10.60536,23.97837,-14.51904,-0.8001782,0.2431142,0.3120903,27.07654,-4.168964,-30.94941,1007.771
25.989429474,12.37932,27.40575,-11.89221,-0.8546778,0.5191585,0.432144,27.07654,-4.168964,-30.94941,1007.771
26.022207737,-2.716024,28.6467,-13.90815,-0.8851646,0.4700165,0.4058154,27.86152,-3.782642,-29.21571,1007.771
26.054985523,-5.325097,27.87849,-18.18438,-0.8645101,0.3505069,0.3544409,27.86152,-3.782642,-29.21571,1007.771
26.087763786,0.265773,33.31502,-17.57349,-0.8914587,0.462168,0.4053608,28.21884,-3.419078,-29.22191,1007.771
26.123063087,-19.48863,35.02871,-27.59209,-0.7603423,0.02352551,0.2738178,28.94168,-3.044498,-28.35835,1007.771
26.155841351,-3.399353,38.04243,-34.43406,-0.6978923,0.3024439,0.2462931,28.94168,-3.044498,-28.35835,1007.77
26.188619137,-6.940237,26.40117,-37.18307,-1.076412,0.4108571,0.2528038,30.02247,-2.30126,-27.12805,1007.77
26.221397877,15.98233,11.98256,-30.70763,-1.121591,0.4192502,0.2533797,30.38124,-1.925807,-26.26402,1007.77
26.256696701,14.30507,7.550608,-30.58545,-0.8906719,0.52041,0.3051479,30.38124,-1.925807,-26.26402,1007.77
26.289474964,0.9491016,6.546032,-30.40219,-1.057267,0.3273872,0.2731014,30.35492,-0.4621158,-25.85183,1007.77
26.322252750,-2.840266,3.17775,-29.30258,-0.9410014,0.2377618,0.271998,29.99085,-0.4612432,-25.85136,1007.771
26.355031490,-2.156937,2.350452,-29.11932,-0.9947341,0.3712184,0.267592,29.99085,-0.4612432,-25.85136,1007.773
26.387809277,-14.82958,-6.099802,-21.72754,-0.9272575,-0.252788,0.1711374,29.97805,0.2735748,-25.42771,1007.773
26.423108578,2.688483,-2.908796,-17.26805,-0.8298572,0.2464802,0.2014424,30.32788,0.9956326,-25.87475,1007.773
26.455886364,-5.014493,-4.977041,-14.45795,-1.111405,0.2201474,0.2550997,30.32788,0.9956326,-25.87475,1007.773
26.488665104,1.321826,-11.12268,6.067958,-0.7863619,-0.4917815,0.1624989,29.22921,1.435315,-25.0098,1007.773
26.521442890,-14.08413,-8.227139,-8.654495,-0.8021171,0.4340715,0.2497115,29.22172,1.793808,-25.45065,1007.771
26.556742668,-14.08413,-16.38193,-6.882914,-1.136285,-0.1455281,0.2282722,29.22172,1.793808,-25.45065,1007.771
26.589520454,26.54286,-19.10019,2.952418,-0.8315656,0.3622482,0.2522963,29.94239,2.150556,-25.89243,1007.773
26.622298717,-4.703889,-19.75021,-13.60271,-0.9834983,0.1364904,0.2578106,29.20602,2.504851,-26.76744,1007.775
26.655076504,4.614228,-20.75479,4.235288,-1.032642,-0.01954702,0.2904136,29.20602,2.504851,-26.76744,1007.775
26.687854290,13.4975,-17.56378,11.74924,-0.8248409,0.4126847,0.3532903,28.46976,2.859994,-27.58029,1007.775
26.723154068,-5.946304,-12.42272,6.434492,-0.9895857,0.266227,0.3616036,28.48318,2.13027,-27.63099,1007.775
26.755931854,-3.834198,-15.43645,7.534094,-0.8479208,0.1094486,0.3383985,28.48318,2.13027,-27.63099,1007.777
26.788710117,-8.058411,-10.29538,-2.973217,-0.916634,0.4206855,0.353496,28.11171,2.490486,-28.00921,1007.777
26.821487904,-8.741739,-9.645363,1.486282,-1.039362,0.1715208,0.3897834,27.74691,2.485414,-28.44385,1007.777
26.856787682,9.770252,-6.986192,11.50488,-0.8217418,0.1261895,0.3330162,27.74691,2.485414,-28.44385,1007.777
26.889565468,-7.747807,0.1640229,0.8143026,-0.8864347,0.1799617,0.3691908,27.38887,2.115906,-28.87276,1007.777
26.922343731,7.16118,3.059564,3.990932,-0.9222306,0.1146095,0.3294211,27.33495,1.751614,-28.86695,1007.777
26.955121517,2.377879,7.905164,1.791727,-0.8891177,0.2845517,0.3545986,27.33495,1.751614,-28.86695,1007.777
26.987899780,-3.772078,9.677944,0.8143026,-0.9534242,0.1645441,0.3337521,27.74691,2.485414,-28.44385,1007.777
27.023199081,0.8869808,9.323388,3.074596,-0.9660014,0.3576234,0.3792203,26.97087,1.752488,-28.86648,1007.777
27.055977345,-4.890251,8.141535,2.646973,-0.9213273,0.1418442,0.3226389,27.76116,1.762484,-27.99728,1007.778
27.088755131,-2.032696,10.91889,-1.140546,-0.9442478,0.3946757,0.3584143,27.76116,1.762484,-27.99728,1007.777
27.121533871,-4.206923,11.27345,1.119748,-0.9210066,0.003908535,0.3074424,27.75357,2.120128,-28.50028,1007.774
27.154311180,-2.40542,16.76907,2.952418,-0.9527846,0.3058535,0.3426835,27.7544,2.126921,-28.00301,1007.774
27.189610958,-3.088749,23.8011,-0.1020326,-0.9873108,0.3290167,0.3533204,27.7544,2.126921,-28.00301,1007.777
27.222388744,-0.2311932,28.94216,-13.17508,-0.9241563,0.51842,0.3394071,28.11993,2.137936,-27.13325,1007.778
27.255167484,-1.038763,27.93758,-19.46725,-1.043746,0.1546055,0.2738111,28.84871,2.141286,-26.76124,1007.778
27.287945271,9.459648,25.51478,-9.204296,-0.9713775,0.1428694,0.2500705,28.84871,2.141286,-26.76124,1007.778
27.323244572,9.832373,23.68291,-11.22023,-0.9202615,0.2903072,0.239137,29.20748,2.516738,-25.89722,1007.778
27.356022358,10.08086,20.01916,-13.54162,-0.9099696,0.2408578,0.1896069,30.65848,2.889573,-25.0346,1007.778
27.388801098,0.8869808,18.54185,-12.93073,-1.0279,0.2226685,0.2370875,30.65848,2.889573,-25.0346,1007.777
27.421578884,0.1415315,18.30548,-7.310537,-1.054033,0.1874608,0.2482738,30.28909,3.266769,-24.16964,1007.778
27.454356670,-4.206923,19.31005,-11.46459,-0.988176,0.2604481,0.2292345,31.02473,2.906532,-23.72974,1007.778
27.489656448,-4.082681,21.61467,-15.37429,-0.9303437,0.02734251,0.1866075,31.02473,2.906532,-23.72974,1007.777
27.522433758,-3.212991,19.36914,-20.3225,-0.920408,0.3294331,0.1225889,31.37747,3.652364,-22.43633,1007.777
27.555212498,-2.840266,16.94634,-18.18438,-1.105927,0.1354458,0.1146567,32.0921,4.379493,-22.44873,1007.777
27.587990284,6.726334,19.13277,-9.693008,-1.095891,0.214841,0.1737208,32.0921,4.379493,-22.44873,1007.777
27.623290062,-0.293314,17.53727,-8.654495,-0.9842811,0.2434663,0.1637857,32.08138,5.131294,-20.7819,1007.777
27.656067848,-0.6039178,12.39621,-7.677071,-0.9374472,0.1356532,0.08200558,32.80277,5.493986,-20.78857,1007.775
27.688846111,1.508188,6.900589,-10.8537,-0.9564432,0.1679135,0.1214737,32.80277,5.493986,-20.78857,1007.775
27.721623897,1.943034,3.827769,-20.44468,-0.9150345,0.1097611,0.1137613,32.43942,5.500802,-20.35299,1007.777
27.754402161,1.943034,4.477788,-30.64654,-0.9579519,0.1938611,0.1426181,33.16082,5.863493,-20.35966,1007.775
27.789701462,-1.163005,7.964256,-41.21494,-1.103553,0.1709973,0.1815068,33.16082,5.863493,-20.35966,1007.775
27.822479725,-9.859913,11.98256,-52.45532,-1.041377,0.1612682,0.1784858,32.05434,6.589041,-20.80482,1007.775
27.855257511,-19.9856,21.3783,-63.69569,-1.012048,0.07971431,0.1819087,32.03478,7.688296,-20.3869,1007.775
27.888035774,-18.30834,28.11486,-74.50845,-1.014623,-0.06959792,0.145075,32.03478,7.688296,-20.3869,1007.775
27.923335075,-30.35977,36.15147,-80.61735,-0.9106712,-0.08426223,0.1525523,32.00243,9.522369,-19.54533,1007.775
27.956113338,-38.49759,42.59257,-76.58547,-1.053372,-0.1224591,0.08411363,31.96895,11.41718,-18.70471,1007.775
27.988891125,-37.25518,36.44693,-76.21894,-1.093603,-0.1747266,-0.0297949,31.17005,15.45745,-16.59124,1007.775
28.021669388,-23.83709,24.09656,-71.33182,-1.042109,-0.1941365,-0.08139349,31.17005,15.45745,-16.59124,1007.775
28.054447174,-21.22802,11.80528,-71.02637,-1.108042,-0.2304328,-0.03882256,30.41765,16.93987,-14.93494,1007.775
28.089746952,-17.37653,1.404969,-69.43806,-1.112392,-0.2442935,-0.06574761,29.63574,19.92974,-14.11057,1007.773
28.122524738,-36.88245,-1.372387,-68.03301,-1.005067,-0.4381374,0.01515876,29.63574,19.92974,-14.11057,1007.773
28.155303478,-45.26876,2.941379,-58.07551,-0.9817284,-0.2500638,-0.002027716,27.78227,21.76223,-13.70176,1007.773
28.188081265,-84.77757,2.882286,-54.95997,-0.9614878,-0.370978,0.09534159,26.95505,23.96858,-12.42978,1007.773
28.223380566,-62.28985,3.650491,-46.59077,-0.9670483,-0.3098015,-0.06551225,26.95505,23.96858,-12.42978,1007.773
28.256158352,-52.66113,13.75534,-35.53366,-0.9651056,-0.3077568,-0.05396726,26.17498,26.90365,-11.16935,1007.771
28.288937092,-129.0076,9.973408,-35.71693,-0.9337122,-0.4308406,-0.00186914,25.06537,28.02335,-9.444682,1007.776
28.321714878,-65.27164,9.205203,-26.30922,-0.9714749,-0.3026414,-0.1511949,25.06537,28.02335,-9.444682,1007.771
28.389792442,-53.22021,-9.58627,-22.09408,-0.9115463,-0.5737287,-0.05513751,22.8133,32.16267,-4.781778,1007.771
28.422569752,-23.52648,-19.39565,-31.4407,-0.8927055,-0.3447564,-0.1388029,22.8133,32.16267,-4.781778,1007.771
28.455348492,-16.94168,-22.46848,-16.65716,-0.9580289,-0.2184932,-0.04304726,23.54291,32.17281,-3.912494,1007.776
28.488126278,-23.46436,-34.70066,5.029445,-1.140177,-0.3734798,0.0904742,22.08119,32.55178,-3.10828,1007.771
28.523426056,106.6787,-53.01939,43.6377,-1.119326,-0.7788378,0.04530633,22.08119,32.55178,-3.10828,1007.77
28.556203842,192.1568,-89.77503,101.0003,-1.167091,-0.09461071,0.02320845,22.07307,32.90518,-3.922075,1007.77
28.588982105,197.375,-94.0888,128.7958,-0.8970457,-0.566061,-0.1606017,23.15731,32.83717,-8.709713,1007.77
28.621759891,146.5602,-71.57449,149.3828,-0.7766061,0.2782408,0.01209309,23.15731,32.83717,-8.709713,1007.77
28.654538155,36.17158,-59.10594,154.9419,-0.7249876,0.01076144,0.006597459,25.3986,29.09926,-15.11975,1007.77
28.689837456,23.99591,-30.03234,120.4877,-0.618328,0.08180464,0.009125575,27.76835,22.06808,-17.99644,1007.77
28.722615719,-84.40484,-4.563392,94.95248,-0.6484605,-0.1269734,-0.07135707,27.76835,22.06808,-17.99644,1007.772
28.755393505,-94.40629,4.595973,43.69879,-0.8062895,-0.6841831,0.1835347,28.5563,18.70783,-19.25019,1007.772
28.788171768,-86.45483,15.52812,-16.53498,-0.9747846,-0.6725011,0.2450497,30.03893,17.24065,-19.66427,1007.772
28.820949554,-60.42622,14.64173,-68.6439,-1.10955,-0.5878232,0.1171995,30.03893,17.24065,-19.66427,1007.772
28.856249332,5.732401,-1.726943,-57.95333,-1.041125,-0.5929458,-0.001370052,30.04932,16.90593,-17.48298,1007.766
28.889027119,92.76361,-3.322445,-51.17245,-1.230068,0.1137598,0.3672174,28.93004,18.3663,-17.50449,1007.766
28.921805382,-107.7001,-4.563392,-50.3172,-1.035206,-0.1904074,0.1664858,28.93004,18.3663,-17.50449,1007.766
28.954583168,-45.02027,-2.849704,-36.57217,-1.061243,-0.2832266,0.08726278,27.83032,18.72741,-17.94392,1007.764
28.989882946,-41.66575,6.014198,-31.19634,-1.241867,-0.05832904,0.2178013,26.28589,20.25548,-17.53073,1007.77
29.022660732,-202.5586,26.51936,-41.27603,-1.342021,0.4399115,0.4079071,25.89622,21.72598,-16.68295,1007.77
29.055439472,-402.836,45.78357,0.8143026,-1.301654,0.1518364,0.1155776,25.89622,21.72598,-16.68295,1007.766
29.088217258,-333.4471,24.51021,84.68953,-1.575353,0.3243097,0.3133252,24.76673,24.36203,-10.69225,1007.766
29.120995522,-255.9825,-49.17837,142.0521,-1.375468,-0.02215124,0.2580167,24.72624,27.38876,-2.595283,1007.766
29.156294346,-100.8047,-75.12005,163.8609,-0.8431541,0.09899837,0.09050168,24.72624,27.38876,-2.595283,1007.764
29.189073086,-218.9585,-82.44754,123.3589,-0.6094948,0.0570678,0.08327162,28.10999,25.24168,0.9156837,1007.763
29.221850872,-288.7201,-78.01559,60.37609,-0.5541235,-0.1785988,-0.04454675,30.37101,21.24548,2.281229,1007.763
29.254629135,-191.6874,-47.46468,31.90861,-0.4937724,-0.2890519,-0.3121606,30.37101,21.24548,2.281229,1007.763
29.289928436,-191.8738,-10.29538,0.1423234,-0.5218061,-0.1316988,-0.2728595,32.61412,18.29203,4.376446,1007.763
29.322706699,-192.992,39.81521,-7.554893,-0.5059531,-0.1105029,-0.5357526,33.36692,17.23263,7.003366,1007.763
29.355484486,-134.7227,63.92503,-6.821825,-0.7845141,0.3361121,0.009136456,33.36692,17.23263,7.003366,1007.761
29.388262272,-106.0229,50.27462,-8.043605,-0.831269,-0.6064372,0.1175302,32.29923,16.17675,9.570477,1007.759
29.421040535,107.2999,34.14231,-38.40485,-0.9142834,0.1770422,-0.01727226,30.12879,15.87699,13.93014,1007.761
29.456340313,-152.9862,90.87129,-21.11665,-1.314378,0.2627926,-0.582534,30.12879,15.87699,13.93014,1007.761
29.489118099,-72.60189,66.70238,-6.699646,-1.627622,-0.6811184,-0.2795173,27.92622,16.99337,15.22111,1007.761
29.521895886,1.446068,40.40614,4.846178,-1.538092,0.02812254,-0.4415734,24.58249,17.78883,19.50291,1007.761
29.554674149,18.96413,38.2788,17.43052,-1.075994,0.1223891,-0.3282474,24.58249,17.78883,19.50291,1007.761
29.589973450,19.21261,32.54681,6.434492,-1.055039,-0.06565679,-0.08011238,22.75679,18.16952,20.36975,1007.761
29.622751713,17.03838,18.18729,9.733299,-0.9482805,-0.0329715,-0.06067903,21.30194,18.1849,21.24186,1007.761
29.655529499,16.72778,25.04204,-0.7740119,-0.9758691,0.1318333,-0.07097057,21.30194,18.1849,21.24186,1007.759
29.688307762,5.421798,25.10114,-1.629258,-1.128669,-0.1337249,-0.04469573,20.56629,18.54514,20.80196,1007.757
29.721085548,21.13835,24.27384,1.180837,-0.9846724,-0.04903765,-0.08608066,19.46938,18.92917,22.04081,1007.757
29.756385326,-17.50077,39.75612,-7.066181,-1.042177,0.01341091,-0.2116738,19.46938,18.92917,22.04081,1007.757
29.789163113,9.770252,35.32417,-0.3463887,-1.091102,-0.01193012,-0.08492143,18.35686,20.0251,22.02503,1007.757
29.821941376,35.42613,30.53766,-5.661133,-0.8840401,-0.1241185,-0.2180993,16.84809,19.67619,22.90294,1007.757
29.854719162,-6.505392,37.39241,-13.66379,-1.029804,-0.0954764,-0.2664143,16.84809,19.67619,22.90294,1007.759
29.890018940,6.35361,34.67415,-9.937365,-1.055478,-0.1063637,-0.1902818,15.01305,20.47017,22.89288,1007.763
29.922796726,3.930899,48.32456,-27.10338,-0.8229563,-0.1185758,-0.4050209,13.90053,21.56609,22.8771,1007.763
29.955575466,-58.12776,65.7569,-37.12197,-1.056574,-0.05881064,-0.214419,12.42539,22.67478,23.73201,1007.763
29.988353252,23.43682,56.65663,-31.01307,-1.055199,-0.009056371,-0.1350725,12.42539,22.67478,23.73201,1007.763
30.021131516,6.726334,56.8339,-36.32782,-1.016199,-0.1305898,-0.4295752,9.892554,21.96985,25.05209,1007.762
30.056430340,-27.62646,59.90672,-42.80326,-1.117987,-0.01143564,-0.4718732,7.627854,23.07449,25.47291,1007.762
30.089209080,-21.35226,48.20637,-37.24416,-1.121896,-0.2123715,-0.5067005,7.627854,23.07449,25.47291,1007.762
30.121986866,-34.58398,44.83809,-42.49781,-1.076822,-0.1829941,-0.5386217,6.158749,23.81279,25.89845,1007.76
30.154765129,-26.94313,49.86097,-49.64523,-1.059554,-0.1225275,-0.6889386,4.712107,23.47562,27.6465,1007.76
30.190064430,6.167247,42.06073,-37.24416,-1.088911,-0.1863487,-0.4461664,4.712107,23.47562,27.6465,1007.76
30.222842693,30.51859,31.0104,-20.01705,-1.178122,-0.2456211,-0.4578995,4.363628,22.7646,28.90161,1007.762
30.255620480,80.77431,14.46445,-19.46725,-1.129238,-0.6143963,-0.59898,3.993517,23.13586,29.33146,1007.762
30.288398743,136.9936,3.473213,8.755875,-0.9334891,-0.4117179,-0.4741144,3.993517,23.13586,29.33146,1007.762
30.321176529,150.2253,-23.53214,35.51286,-0.9375264,-0.08732915,-0.186258,5.428193,24.21464,28.50432,1007.762
30.356476307,19.7717,-30.3278,46.4478,-0.934278,-0.2310781,-0.2004899,7.582705,25.64338,26.73814,1007.762
30.389254093,22.07017,-43.32819,40.09454,-0.9493983,-0.6019845,-0.1507961,7.582705,25.64338,26.73814,1007.76
30.422032356,143.8269,-64.42428,29.40396,-0.7737573,-0.7819338,-0.3251945,11.2489,27.4448,25.83449,1007.76
30.454810143,162.898,-61.29236,26.53278,-0.8298203,-0.2444094,-0.1419915,13.82158,25.95717,24.11367,1007.758
30.490109921,48.28513,-65.31067,13.33755,-0.7640992,-0.3326437,-0.2325104,13.82158,25.95717,24.11367,1007.758
30.522887707,69.28196,-50.00566,15.47567,-0.8562533,-0.5762562,-0.2049683,16.68792,28.09011,20.6568,1007.76
30.555665970,135.3163,-52.19209,20.48497,-0.8843218,-0.3881282,-0.08243807,19.28071,28.78896,18.90153,1007.76
30.588443756,125.6876,-56.62405,21.52348,-0.8754951,-0.2104254,-0.03266522,19.28071,28.78896,18.90153,1007.759
30.621221542,92.01817,-54.02397,18.46903,-0.7653371,-0.376205,0.01834771,20.7227,29.158,15.03911,1007.757
30.656521320,94.37875,-50.30113,25.55536,-0.7885219,-0.226495,0.003254847,23.24587,30.20359,11.97285,1007.755
30.689300060,92.08028,-46.75557,38.0786,-0.7445115,-0.1617034,-0.04749018,23.24587,30.20359,11.97285,1007.755
30.722077370,37.28976,-36.17798,37.22336,-0.760895,-0.1921972,0.06956554,25.05451,30.52291,8.981151,1007.753
30.754855156,25.48681,-32.92788,43.14899,-0.8453523,-0.1999866,0.1015475,26.5125,30.11337,5.939219,1007.748
30.787633896,53.5654,-32.21877,48.58591,-0.9012378,-0.1956041,0.02850644,26.5125,30.11337,5.939219,1007.746
30.822933674,44.37152,-28.31865,51.02947,-0.9094861,0.01656597,0.0826001,27.31267,29.36478,4.644326,1007.746
30.855711460,16.72778,-26.48678,55.67224,-0.9539217,-0.07052246,0.1492647,29.13764,28.97815,3.342371,1007.746
30.888489246,28.53073,-28.31865,65.69085,-0.9090039,-0.184509,0.09252925,29.13764,28.97815,3.342371,1007.742
30.921267509,51.39117,-23.47305,70.70014,-0.9525361,-0.05040675,0.0986881,30.61942,27.43409,1.748238,1007.742
30.956566334,28.28224,-20.04568,72.28846,-1.016402,-0.1377711,0.1490329,32.47216,25.59565,0.9043152,1007.741
30.989345074,24.61712,-14.43187,70.02817,-0.926873,-0.2154704,0.144124,33.9601,23.75215,-0.3742492,1007.741
31.022122860,15.6096,-1.136016,59.82629,-0.9553489,-0.08118559,0.15843,33.9601,23.75215,-0.3742492,1007.741
31.054901123,-33.77641,3.473213,45.04275,-1.005034,-0.000713789,0.2340004,35.82636,21.18483,-1.206712,1007.742
31.087678909,-50.4869,5.068715,36.18484,-0.9953227,-0.211757,0.2001187,37.01493,19.30509,-0.7434833,1007.745
31.122978687,-23.71285,7.37333,32.5195,-0.9876069,-0.1882814,0.2048787,37.01493,19.30509,-0.7434833,1007.745
31.155756474,-25.57647,7.550608,26.16624,-1.025154,0.08573047,0.2223651,37.40147,18.22874,0.5785718,1007.745
31.188534737,-52.59901,7.432423,18.40794,-0.9752096,-0.08818165,0.226841,38.5065,17.4913,0.1535103,1007.745
31.221312523,-37.75214,6.841496,14.25389,-1.040343,-0.05442174,0.2572704,38.5065,17.4913,0.1535103,1007.745
31.256612301,-47.75359,10.50524,5.94578,-0.9435676,0.06889643,0.1548063,37.08015,16.06082,1.918757,1007.745
31.289390087,-89.93359,24.5693,-0.7740119,-0.9155704,0.1650424,0.2898577,38.18059,15.70565,2.793301,1007.745
31.322168350,-82.1685,33.19683,-11.70895,-0.8990104,-0.06283268,0.2786091,38.18059,15.70565,2.793301,1007.745
31.354946137,-77.57156,43.06531,-19.65052,-0.9387705,0.1215695,0.2996055,37.8267,15.37011,4.850741,1007.745
31.387724876,-86.82755,49.38823,-21.11665,-0.925827,0.1872601,0.2754076,38.19369,15.39301,6.590718,1007.745
31.423023701,-76.32914,52.52014,-15.61864,-0.9118601,0.03103133,0.2746473,38.19369,15.39301,6.590718,1007.747
31.455801964,-59.61866,50.92464,-7.432714,-0.8891977,0.09641633,0.2648677,37.47124,15.44146,10.01039,1007.75
31.488579750,-67.57011,50.57008,2.769151,-0.8972707,0.2113114,0.1978044,36.74672,15.47293,12.18689,1007.75
31.521358490,-54.40051,51.10191,15.47567,-0.9410676,0.04176039,0.171689,36.74672,15.47293,12.18689,1007.748
31.556657314,8.589957,56.71572,23.29506,-1.030322,0.009595936,0.2061258,35.61242,14.78842,15.24562,1007.748
31.589436054,-21.91134,61.02949,16.9418,-1.116825,0.4633374,0.2841091,35.26539,14.08929,17.37095,1007.748
31.622213364,-97.07748,63.15683,17.12507,-1.102741,0.2660193,0.3276956,35.26539,14.08929,17.37095,1007.748
31.654992103,-97.38808,46.3745,24.33357,-1.180542,-0.08436037,0.3929107,34.1978,13.03426,20.00022,1007.75
31.687769890,-13.7114,25.33751,34.35217,-1.236836,-0.09595158,0.4046144,33.87106,11.24182,22.14274,1007.75
31.723069668,80.65006,4.241417,44.37077,-1.268865,-0.1257269,0.2935407,33.87106,11.24182,22.14274,1007.75
31.788625717,66.73501,-56.38767,46.26453,-1.479656,-0.08688997,1.439623,33.93594,7.924922,23.93571,1007.752
31.821403503,132.5209,-53.90578,73.87677,-1.894701,0.9736847,1.909781,33.93594,7.924922,23.93571,1007.753
31.856703281,-222.2509,-166.3001,49.99096,-2.220984,0.9783196,1.988047,35.38124,8.251055,21.37959,1007.755
31.889481068,-115.5274,-256.2391,-12.68637,-1.239469,0.4413285,1.67942,36.90666,7.476937,18.34331,1007.755
31.922259331,78.91068,-311.1953,-62.71827,-0.3645588,1.840817,0.2383703,40.62309,2.630333,11.07836,1007.755
31.955037117,-312.6987,-279.0489,-63.39025,0.3339837,3.195784,-0.5990473,40.62309,2.630333,11.07836,1007.757
31.987815380,-338.7895,-214.6379,-57.64788,-0.290623,0.8745867,-2.364034,42.78075,2.825654,-0.9268382,1007.757
32.023114681,-270.2081,-102.4209,-37.79396,-0.3134347,0.6230075,-2.585027,43.07776,5.634137,-8.742999,1007.755
32.055892944,-247.037,-14.49096,-3.889552,-0.6910658,0.2078871,-2.294208,43.07776,5.634137,-8.742999,1007.752
32.088670731,-103.6002,9.677944,98.06802,-0.1484242,0.1109883,-1.192068,41.55104,9.259069,-10.47671,1007.752
32.121448994,164.0161,-49.11927,165.2659,0.741434,-0.2810247,-1.553646,41.51215,11.52936,-8.833755,1007.752
32.156748772,138.733,-36.65072,152.7427,0.04697843,0.5193934,-0.7584772,41.51215,11.52936,-8.833755,1007.75
32.189526558,181.3478,-19.27747,150.7267,-0.02630446,0.8875791,-0.8830495,41.96993,6.348646,-9.996226,1007.75
32.222304344,119.6619,37.4515,170.9472,-0.1455174,1.341313,-1.18719,42.11159,-1.377159,-10.74516,1007.752
32.255083084,92.94997,190.2061,87.68289,-1.09988,-0.3092004,-2.761786,42.11159,-1.377159,-10.74516,1007.752
32.287860870,707.1381,-871.1575,517.2609,-14.9493,6.832266,15.64158,40.80338,-9.046826,-7.638377,1007.75
32.323160172,633.0901,-89.36139,691.4868,-7.655725,8.173057,7.145959,41.27364,-14.05556,-0.6589987,1007.755
32.355937958,-434.3312,-458.3361,582.3207,-1.947177,-1.288761,-2.460819,41.27364,-14.05556,-0.6589987,1007.766
32.388715744,764.8483,-351.3192,316.7056,2.083239,7.088277,1.999918,35.61414,-26.60049,-3.873407,1007.778
32.421494484,1231.127,52.46104,95.13575,0.1381727,-0.4308536,-0.5921541,16.08317,-40.10394,-4.070024,1007.778
32.454272270,-263.1263,106.5309,32.27515,-0.8713064,0.1297046,-0.7831494,16.08317,-40.10394,-4.070024,1007.781
32.489572048,108.6665,-23.35486,-96.80594,0.1527347,1.419382,0.5063784,6.282631,-43.60957,8.86787,1007.785
32.522349358,-9.61143,37.39241,0.3866795,0.6613016,1.441523,-0.07297673,4.817381,-42.76976,12.27607,1007.788
32.555128098,112.2695,69.65702,32.39732,0.1337308,0.7438678,0.04052065,4.817381,-42.76976,12.27607,1007.792
32.587905884,169.3585,53.93836,32.21406,0.3545612,1.052727,0.3461588,6.627153,-42.02148,14.00271,1007.792
32.623205662,235.3308,30.95131,6.862115,0.1042477,0.9680073,0.4407457,4.801133,-41.22371,18.71767,1007.793
32.655983448,135.0057,-8.69988,-0.5296558,-0.198191,0.8938349,0.223518,4.801133,-41.22371,18.71767,1007.798
32.688761711,131.4648,-23.65033,19.14101,0.07627011,0.9393183,-0.3596492,2.573376,-38.21466,25.13916,1007.802
32.721539497,72.6986,-18.39108,20.36279,0.08067008,0.4892735,-0.5077221,2.512303,-34.5168,28.99787,1007.809
32.754317760,88.47728,-9.940826,-17.14587,0.05162454,0.8530666,-0.5467106,2.512303,-34.5168,28.99787,1007.809
32.789617062,43.00487,10.44615,35.69613,0.2077252,1.525226,-0.798402,1.740676,-31.8625,31.94136,1007.806
32.822395325,81.51975,12.15984,67.27916,0.1760155,0.456428,-0.3028387,1.353187,-30.37416,34.09447,1007.81
32.855173111,53.2548,-12.83637,22.68417,0.5501268,0.7317445,-0.5226792,1.353187,-30.37416,34.09447,1007.812
32.887951374,-24.58254,-0.9587381,-6.882914,0.3275499,0.9966881,-0.6063076,-0.1812831,-29.25428,35.75753,1007.813
32.923250675,-39.55365,2.29136,-7.371626,0.2573427,0.7370891,-0.4526768,-0.5844747,-27.0549,36.59384,1007.815
32.956028938,-23.89921,-2.849704,-10.05954,0.253178,0.860472,-0.4244525,-0.5724056,-27.79567,35.73508,1007.815
32.988806725,-23.52648,-2.199684,-5.783311,0.2474245,0.8368202,-0.386857,-0.5724056,-27.79567,35.73508,1007.813
33.021584988,-21.29014,-12.48181,-11.34241,0.1330734,0.7260086,-0.4258904,-0.1961551,-28.53645,34.938,1007.816
33.054362774,-29.73856,-7.045285,-11.77003,0.2014812,0.9555031,-0.4239917,0.1738529,-28.90855,34.44599,1007.816
33.089662552,-26.32192,5.423271,-4.01173,0.2261267,0.8184999,-0.3343104,0.1738529,-28.90855,34.44599,1007.82
33.122440338,2.377879,-5.508875,-15.74082,0.2091766,0.8089557,-0.2856383,0.5643525,-30.37227,34.09549,1007.82
33.155219078,-8.431135,-2.613333,-4.01173,0.1943733,1.077889,-0.4655564,0.9344645,-30.74352,33.66564,1007.821
33.187996864,-3.337232,1.818618,-0.1020326,0.2267465,0.7670599,-0.3082408,0.9344645,-30.74352,33.66564,1007.825
33.223296166,6.41573,-6.808914,-12.99182,0.224796,0.9543001,-0.4148993,1.359221,-30.74454,33.66509,1007.825
33.256073952,-7.126599,0.4594863,-2.912127,0.2092146,0.9731945,-0.4105586,1.73141,-31.09881,34.47842,1007.821
33.288852692,3.806657,-0.2496259,-0.2242106,0.2284925,0.8412898,-0.3516794,1.73141,-31.09881,34.47842,1007.821
33.321630478,3.868778,-2.31787,-2.851038,0.2244203,0.9095432,-0.4071292,2.081342,-30.3759,34.09353,1007.825
33.354408264,-4.206923,0.341301,1.852816,0.2017875,0.8390654,-0.3593145,1.724752,-30.73352,34.53485,1007.822
33.389708042,9.024803,-0.01325515,1.913905,0.2205416,0.9101083,-0.3912359,1.724752,-30.73352,34.53485,1007.826
33.422485352,-2.3433,1.582247,2.646973,0.241845,0.932052,-0.4129808,2.088103,-30.74034,34.09926,1007.826
33.455264092,-18.74319,1.464062,-1.140546,0.2059808,0.9110947,-0.3719484,1.717264,-30.37503,34.09401,1007.826
33.488041878,-0.852401,4.064139,3.013507,0.2298173,0.8922758,-0.3753461,1.717264,-30.37503,34.09401,1007.826
33.523341656,-12.34474,1.345877,-7.066181,0.2570054,0.8833511,-0.4307537,2.080615,-30.38185,33.65842,1007.826
33.556119442,-17.31441,5.482364,-2.056881,0.1772456,0.9529408,-0.3430617,2.094864,-31.10478,34.105,1007.824
33.588897705,2.874846,4.005047,6.984293,0.2127185,0.9430425,-0.3383172,2.094864,-31.10478,34.105,1007.822
33.621675491,-0.9145218,2.645916,3.074596,0.2066903,0.8257001,-0.326092,1.728607,-31.12174,32.80013,1007.822
33.654453754,-13.09019,2.114082,3.685486,0.2311755,0.9377253,-0.3547193,1.736821,-31.47429,33.67608,1007.822
33.689753056,-13.27656,0.7549497,-3.523018,0.2557663,0.8195655,-0.2867275,1.736821,-31.47429,33.67608,1007.823
33.722531319,3.496053,2.173174,0.5699465,0.2314744,1.009061,-0.3923737,0.9532948,-31.84872,32.81261,1007.823
33.755309105,-4.952372,7.314237,5.33489,0.2088961,0.9162002,-0.3416372,1.384813,-32.21418,32.81779,1007.823
33.788087368,-19.05379,0.7549497,-5.172421,0.2569492,0.7248895,-0.3154693,1.384813,-32.21418,32.81779,1007.825
33.823386669,-2.281179,-5.154319,-13.41944,0.1988279,0.8731749,-0.2833037,1.742129,-31.85061,32.81159,1007.825
33.856164932,-12.59323,-4.917948,-3.584107,0.1768268,0.9302407,-0.3151074,0.6020132,-32.58266,32.38942,1007.825
33.888942718,-21.7871,-6.040709,-18.97854,0.2447603,0.7568468,-0.2577252,1.389394,-32.59645,31.51818,1007.825
33.921720982,-11.59929,-9.408992,-16.22953,0.1951748,0.9818137,-0.2747943,1.389394,-32.59645,31.51818,1007.825
33.954498768,-8.679619,-4.031558,-7.982516,0.1888974,0.9499786,-0.3628206,2.488388,-32.9635,31.5225,1007.825
33.989798546,-19.30227,2.764101,-4.928065,0.1341927,0.9056251,-0.2316936,3.222577,-33.33562,31.09218,1007.825
34.022576332,-0.3554347,-0.01325515,-2.301237,0.1601813,0.9890934,-0.3064921,3.222577,-33.33562,31.09218,1007.825
34.055355072,-8.679619,0.695857,2.158261,0.2371311,0.8892756,-0.3252973,2.851738,-32.97032,31.08692,1007.827
34.088132858,-9.052343,1.523155,7.534094,0.1301082,0.9731804,-0.3174681,3.594142,-33.69499,31.53255,1007.825
34.120910168,-15.32654,-0.07234783,11.50488,0.2631339,0.9876177,-0.2922933,3.594142,-33.69499,31.53255,1007.827
34.156209946,0.01728994,4.359603,20.05734,0.2362007,0.877783,-0.2959147,3.22185,-33.34157,30.65707,1007.827
34.188987732,-1.411488,-3.913372,21.09586,0.1897277,1.026585,-0.2734048,2.863807,-33.71108,30.22816,1007.827
34.221766472,-39.55365,-4.563392,3.502219,0.353143,0.8977181,-0.3713146,2.863807,-33.71108,30.22816,1007.827
34.254544258,-15.94775,-8.227139,7.411916,0.1534703,0.7989756,-0.04288481,1.77761,-34.07884,29.80018,1007.827
34.289844036,26.17014,-24.06398,11.50488,0.2132297,0.9298098,-0.3508139,2.524995,-35.25247,28.51206,1007.829
34.322621346,-81.92001,6.900589,-13.96924,0.2694887,0.9575197,-0.3558027,2.524995,-35.25247,28.51206,1007.829
34.355400086,-18.92955,-1.313294,-5.477866,0.1337211,0.9432245,-0.006953246,2.506165,-34.14727,29.36509,1007.829
34.388177872,8.279353,-12.36363,-4.866976,0.2925555,0.8590044,-0.3326036,3.251074,-35.27119,27.26794,1007.827
34.420956135,-57.56867,3.41412,-15.3132,0.2627529,1.156434,-0.2487429,3.251074,-35.27119,27.26794,1007.827
34.456255436,-32.65824,-3.263352,-8.898851,0.2671921,0.7095304,-0.2952533,3.621912,-35.63651,27.2732,1007.827
34.489033699,-63.65651,4.005047,-24.04893,0.2022555,1.10398,-0.08485734,4.008675,-37.13079,24.68498,1007.825
34.521811485,0.82486,-4.031558,1.60846,0.1984418,0.8610925,-0.1292489,4.008675,-37.13079,24.68498,1007.825
34.554589749,-15.32654,-1.017831,0.1423234,0.237593,0.9323558,-0.1539986,4.37806,-37.50799,23.82002,1007.825
34.589889049,-38.06274,0.7549497,-10.12063,0.1665706,0.9908586,-0.1303316,5.125045,-38.61493,22.96604,1007.825
34.622667313,-23.02952,0.6367643,-1.812525,0.1892303,0.8592181,-0.1075629,5.125045,-38.61493,22.96604,1007.825
34.655445099,-40.67182,7.077867,-20.13923,0.08837564,1.227315,-0.001497529,5.124319,-38.62088,22.53093,1007.827
34.688223362,40.45792,0.8731351,22.37873,0.1068197,1.013696,-0.06620315,5.493081,-39.00317,21.29302,1007.827
34.721001148,-46.51117,12.57349,-15.19102,0.2048631,1.21085,-0.1981446,5.493081,-39.00317,21.29302,1007.821
34.756300926,-3.709957,24.80567,-20.20032,0.1138628,1.13628,0.04382723,5.50733,-39.7261,21.73959,1007.827
34.789078712,15.92021,17.06453,-3.645196,0.05359655,0.939433,-0.0356392,6.240066,-40.11011,20.43904,1007.823
34.821856976,-25.82495,41.70618,-62.84045,0.210875,1.124891,-0.2399078,6.240066,-40.11011,20.43904,1007.821
34.854634762,-43.09453,58.01576,-28.81387,0.02468865,1.103856,0.2510731,6.244647,-40.49238,19.13944,1007.821
34.889934540,-5.138734,50.15643,-32.17377,0.103581,0.9489934,-0.0516571,7.691288,-40.15521,17.39138,1007.825
34.922712326,-8.306894,36.32874,-46.77404,-0.01318563,1.07626,0.1101656,8.436924,-41.27319,15.72934,1007.823
34.955490112,-10.419,44.12898,-60.94669,0.05037202,1.310852,0.150577,8.436924,-41.27319,15.72934,1007.823
34.988268852,-14.33261,27.70121,-65.71163,0.09312793,0.8686438,0.0327271,8.801002,-41.27406,15.72887,1007.823
35.021046162,84.68791,34.96961,-72.79796,-0.1993727,1.406746,0.3031352,11.03938,-40.91501,15.72025,1007.823
35.056345940,166.501,30.83312,-91.12466,-0.7489964,1.771481,0.1849927,11.03938,-40.91501,15.72025,1007.823
35.089123726,178.6766,-204.5921,55.00026,-1.436826,2.100522,0.2828819,12.46156,-38.67923,19.53783,1007.827
35.121902466,-37.25518,-8.69988,-28.99714,-2.357432,3.467159,0.05869111,15.33121,-36.09949,22.10464,1007.829
35.154680252,-496.9489,-39.78263,-159.0556,-1.454906,-0.1339249,0.10867,15.33121,-36.09949,22.10464,1007.825
35.189980030,-305.5548,80.53008,-311.5338,0.628454,-1.040112,0.1537119,17.09162,-33.58631,15.16159,1007.825
35.222757340,-103.4759,191.0334,-429.1913,3.382289,-1.420482,-1.545196,22.28384,-36.74473,2.769968,1007.825
35.255536079,-165.3482,384.621,-395.348,2.896488,-0.1164611,-1.63121,22.28384,-36.74473,2.769968,1007.823
35.288313866,164.8237,143.4638,26.9604,0.5891717,6.942999,5.598009,32.02888,-28.65612,5.11654,1007.82
35.321092129,28.46861,65.69781,14.25389,-3.444335,-0.2635748,-0.5954618,38.81459,-17.58474,11.83431,1007.823
35.356391430,80.96066,12.80986,-0.8351008,-2.389972,1.652489,0.1746233,38.81459,-17.58474,11.83431,1007.825
35.389169693,5.173315,-44.33277,-61.92412,-0.682431,0.06245304,-0.1052573,38.46091,-17.91858,14.01607,1007.825
35.421947479,28.28224,-45.92827,-59.90818,-0.7260866,0.7482264,0.3703608,37.72599,-17.5524,14.01128,1007.823
35.454725266,0.4521354,-41.37813,-71.27073,-0.9133457,0.4629278,0.3308005,37.72599,-17.5524,14.01128,1007.823
35.490025044,-6.815995,-28.43684,-49.46196,-0.7910371,0.06912443,0.2844119,39.88011,-16.05698,12.67925,1007.823
35.522803307,6.602092,-20.69569,-40.17643,-1.219124,0.4017783,0.3094753,40.56624,-13.88399,11.7737,1007.823
35.555581093,11.32327,-15.14098,-37.97722,-0.7337285,0.5072018,0.45835,40.56624,-13.88399,11.7737,1007.825
35.588358879,-6.008425,-9.82264,-42.0091,-0.8347984,0.2759139,0.1677145,41.97305,-11.35426,10.42638,1007.825
35.621137142,-8.120532,-11.00449,-42.80326,-1.034079,0.16914,0.2511423,41.59409,-10.63555,9.607324,1007.823
35.656436443,9.459648,-2.731518,-44.45266,-0.948102,0.1708563,0.3245841,41.59409,-10.63555,9.607324,1007.823
35.689214706,-2.653903,5.777827,-34.67842,-0.911077,-0.08806515,0.3065948,42.2823,-8.445578,9.944957,1007.823
35.721992493,20.82775,3.827769,-15.67973,-0.8860972,0.208459,0.1944127,42.26202,-7.352266,9.927767,1007.823
35.754770756,6.167247,11.45072,-11.89221,-0.8666593,0.2225007,0.2992823,42.26202,-7.352266,9.927767,1007.823
35.790070057,3.682416,9.146111,-2.056881,-1.039136,0.05685678,0.2893511,42.60468,-6.199089,9.909152,1007.825
35.822848320,7.099059,-4.445207,12.90993,-0.9191132,0.2097417,0.2084486,41.86446,-5.456582,10.76886,1007.825
35.855626106,4.614228,-11.41814,2.524795,-1.051532,0.3573234,0.2287574,42.59261,-5.458327,10.76792,1007.825
35.888404846,2.688483,-9.881733,-6.272023,-0.9486045,0.1953427,0.414563,42.59261,-5.458327,10.76792,1007.827
35.921182156,3.433933,-0.604182,1.486282,-1.001495,0.165671,0.3434917,41.86374,-5.462525,10.33374,1007.827
35.956481934,2.191517,-3.972465,-0.9572789,-0.9200687,0.2327111,0.3610079,43.32608,-5.836397,9.902483,1007.827
35.989259720,8.77632,-3.026982,-4.317175,-0.9366966,0.2842618,0.3701155,43.32608,-5.836397,9.902483,1007.827
36.022038460,7.968749,-8.404416,-1.568169,-0.944732,0.1749767,0.2826914,42.57837,-4.735396,10.32134,1007.827
36.054816246,3.868778,-15.08189,0.1423234,-1.023564,0.2211584,0.1547666,42.59792,-5.834652,9.903422,1007.825
36.087594032,-3.709957,-8.995343,-8.593406,-0.8408471,0.2208947,0.4575915,42.59792,-5.834652,9.903422,1007.825
36.122893333,2.377879,-3.854279,-1.079457,-1.007233,0.1417565,0.4133388,42.59116,-5.470215,9.897693,1007.825
36.155671120,5.794522,-7.458933,-1.323813,-0.943276,0.1350673,0.07479986,42.95316,-5.48807,8.654046,1007.827
36.188449860,-2.281179,-1.963314,-8.593406,-0.8795865,0.1429189,0.2869175,42.95316,-5.48807,8.654046,1007.827
36.221227646,-4.082681,4.359603,-14.15251,-1.111712,0.1598074,0.333172,43.31121,-5.118562,9.082958,1007.827
36.256527424,13.55962,5.541457,-20.99448,-0.8572673,0.3575047,0.3014634,42.93361,-4.388815,9.071968,1007.829
36.289305210,-4.331164,12.33712,-33.94535,-0.9754193,0.243933,0.4304383,42.93361,-4.388815,9.071968,1007.829
36.322083473,7.409663,1.404969,-19.71161,-1.049638,0.1762655,0.243948,42.93433,-4.382871,9.507079,1007.829
36.354861260,-12.77959,-5.154319,-7.554893,-1.001939,0.1349892,0.2742229,42.90656,-2.931067,9.049048,1007.827
36.387639523,17.78383,-4.208836,5.94578,-0.9154949,-0.06157116,0.3397793,42.90656,-2.931067,9.049048,1007.829
36.422938824,-1.908454,22.32378,-15.12993,-0.9365818,0.4699136,0.5229084,42.89439,-2.191154,9.845653,1007.824
36.455717087,-9.797792,15.76449,-23.74348,-0.99849,0.03628099,-0.1270922,42.53572,-2.565757,9.043788,1007.824
36.488494873,-13.09019,21.55557,-25.08744,-0.7971959,0.249271,0.4935474,42.53572,-2.565757,9.043788,1007.824
36.521273136,-4.206923,13.40078,-17.20696,-1.001138,-0.0318212,0.09829399,42.87483,-1.091899,10.26357,1007.824
36.556572437,3.682416,0.341301,-17.32914,-1.069245,0.05351269,0.2648781,42.86953,-0.7155747,11.12807,1007.826
36.589350700,4.179382,1.050413,-18.00111,-0.8926609,0.1206388,0.2503986,42.86953,-0.7155747,11.12807,1007.828
36.622128487,0.265773,-10.1181,-11.34241,-0.9945424,-0.139977,0.1557234,43.22612,-0.357954,10.68676,1007.828
36.654906273,8.279353,-14.31368,-7.493804,-1.003551,0.01133031,0.3533564,43.22081,0.01837015,11.55125,1007.828
36.687684536,3.123329,-10.88631,-14.51904,-1.004121,0.02314522,0.2320368,43.22081,0.01837015,11.55125,1007.828
