Time (s),Gyroscope X (deg/s),Gyroscope Y (deg/s),Gyroscope Z (deg/s),Accelerometer X (g),Accelerometer Y (g),Accelerometer Z (g),Magnetometer X (uT),Magnetometer Y (uT),Magnetometer Z (uT),Barometer (hPa)
0.000000000,-0.2477232,-0.1598711,-0.1125568,-0.04416063,-0.2894196,0.9489849,-9.535328,26.65742,-38.86001,1008.392
0.032171726,-0.2477232,-0.1006861,0.3164523,-0.03925671,-0.2894221,0.951831,-9.535328,26.65742,-38.86001,1008.395
0.066819191,0.3051505,-0.2190561,0.1325913,-0.03385079,-0.2860292,0.9547006,-9.901712,26.67416,-37.96551,1008.395
0.098987579,0.5508722,0.01768396,-0.1125568,-0.03975073,-0.2899087,0.9513496,-9.523772,26.66879,-37.96745,1008.395
0.133635044,-0.3091536,0.195239,-0.1125568,-0.03971662,-0.281657,0.9514173,-9.523772,26.66879,-37.96745,1008.395
0.165806770,-1.046319,0.01768396,0.07130425,-0.03625571,-0.2922716,0.9619015,-9.895934,26.67985,-37.51923,1008.395
0.200453758,1.042315,0.313609,-0.541566,-0.03770759,-0.2883848,0.9614652,-9.529036,27.42537,-38.41745,1008.395
0.232625961,0.1208593,-0.04150105,-0.66414,-0.04360611,-0.2801737,0.9524298,-9.529036,27.42537,-38.41745,1008.393
0.267272949,-0.8620273,-0.3374261,-0.2964179,-0.04556771,-0.2874264,0.9547984,-10.27914,27.4418,-37.9673,1008.393
0.299441338,0.3051505,-0.2190561,0.01001723,-0.03973228,-0.2932769,0.9551777,-9.523772,26.66879,-37.96745,1008.391
0.334088802,0.4894418,-0.1598711,0.6228875,-0.03386068,-0.2913575,0.9561027,-9.523772,26.66879,-37.96745,1008.389
0.366260529,1.103746,0.195239,0.3777394,-0.03629643,-0.2903743,0.9561335,-9.901455,27.05529,-37.96737,1008.387
0.398433209,0.4894418,-0.04150105,0.3164523,-0.03331643,-0.2797031,0.9571578,-10.28435,27.05579,-38.34797,1008.387
0.433079720,-0.7391664,0.01768396,-0.0512698,-0.04163584,-0.2835518,0.9562396,-10.28435,27.05579,-38.34797,1008.387
0.465252400,-1.169179,-0.1598711,-0.0512698,-0.03778032,-0.296188,0.9565816,-9.906664,26.66929,-38.34804,1008.387
0.499895573,1.226607,0.254424,-0.2351309,-0.04161733,-0.2878871,0.9605418,-9.901455,27.05529,-37.96737,1008.386
0.532067299,-0.2477232,0.07686897,-0.1125568,-0.03963948,-0.2806197,0.9601012,-9.901455,27.05529,-37.96737,1008.384
0.566714764,-0.2477232,-0.1598711,-0.1738438,-0.03731899,-0.2918626,0.9513108,-9.90197,26.29303,-37.96365,1008.384
0.598886967,-0.3700945,0.07747051,-0.05048136,-0.03580447,-0.289406,0.9561369,-10.27991,26.29839,-37.96172,1008.384
0.633533478,0.674247,0.07727864,-0.1724689,-0.03627989,-0.2961621,0.9609057,-10.27991,26.29839,-37.96172,1008.384
0.665706158,0.7318304,0.1357958,-0.172227,-0.03633118,-0.2860538,0.9499036,-10.28569,26.29271,-38.408,1008.382
0.700349331,-0.374431,0.01729382,0.07302319,-0.03672003,-0.2777406,0.9576877,-9.906921,26.28815,-38.34618,1008.38
0.732521534,-0.1880935,-0.04172052,0.1338204,-0.03873008,-0.2908401,0.9571165,-9.906921,26.28815,-38.34618,1008.383
0.767168522,0.6705803,0.01712786,-0.05035894,-0.03673975,-0.2893642,0.9609661,-10.28017,25.91726,-37.95985,1008.381
0.799341202,-0.2519515,0.07631719,-0.1115558,-0.03966992,-0.281131,0.9567233,-9.907747,26.28734,-38.40993,1008.381
0.833987713,-0.4345204,-0.1009791,-0.04945242,-0.041168,-0.2874411,0.9557211,-9.150528,27.03968,-38.35377,1008.383
0.866159916,-0.004008338,-0.1004376,-0.1712676,-0.03969014,-0.2830836,0.9552613,-9.150528,27.03968,-38.35377,1008.383
0.898327827,0.1183677,-0.159306,-0.04818756,-0.03920022,-0.2816336,0.9547867,-10.27965,26.67953,-37.96358,1008.385
0.932975292,-0.1893035,-0.04073773,0.01319585,-0.0343224,-0.2879462,0.9575812,-9.913268,26.66279,-38.85807,1008.383
0.965147972,-0.0659022,-0.2175328,0.07439056,-0.03878079,-0.2923369,0.9518026,-9.913268,26.66279,-38.85807,1008.383
0.999794960,0.05553377,-0.2171718,0.1355236,-0.03575983,-0.2883983,0.9609649,-9.90197,26.29303,-37.96365,1008.383
1.031966686,-0.3746473,0.07884009,0.1350864,-0.03433253,-0.2884389,0.9566133,-9.90749,26.66848,-38.41179,1008.383
1.066614151,0.8537351,0.07851225,-0.2939578,-0.0367563,-0.2835764,0.9561939,-9.90749,26.66848,-38.41179,1008.381
1.098782063,-0.6224546,0.07808129,-0.3540466,-0.04309157,-0.283537,0.9572174,-9.895934,26.67985,-37.51923,1008.381
1.133429050,-0.4964767,-0.2756822,0.01488338,-0.04467878,-0.2947639,0.9479817,-9.529551,26.66311,-38.41373,1008.383
1.165601730,0.1178855,-0.3929287,-0.1686538,-0.03579825,-0.2918182,0.9580451,-9.529551,26.66311,-38.41373,1008.383
1.200248718,0.4246162,0.08116213,-0.1067227,-0.03672379,-0.2835468,0.9600499,-10.27965,26.67953,-37.96358,1008.383
1.232420921,0.4845085,0.199257,-0.1673632,-0.04310973,-0.2859714,0.9562334,-9.90749,26.66848,-38.41179,1008.383
1.267067909,-0.314171,0.08049506,-0.2279731,-0.03381633,-0.2845472,0.9580865,-9.90749,26.66848,-38.41179,1008.385
1.299235821,-0.4968345,-0.0382032,-0.227236,-0.03285241,-0.2884315,0.9585274,-9.908005,25.90621,-38.40807,1008.387
1.333883286,-0.9239341,0.07953627,0.07973523,-0.04220847,-0.2961991,0.9522847,-9.907747,26.28734,-38.40993,1008.385
1.366055489,1.041577,0.1381373,0.07958325,-0.03918564,-0.2888739,0.9600289,-9.907747,26.28734,-38.40993,1008.385
1.400702953,0.1166867,0.07851313,0.01838907,-0.0450291,-0.2849649,0.9596336,-9.517737,27.05561,-37.52303,1008.387
1.432874680,-0.3125686,-0.2757472,0.07971609,-0.03771771,-0.2888775,0.9604973,-9.52403,26.28766,-37.96558,1008.389
1.465047360,-0.1269842,-0.3339011,0.01821962,-0.03525773,-0.2869372,0.9619362,-9.52403,26.28766,-37.96558,1008.387
1.499690056,0.180012,0.0214864,-0.1653753,-0.03874227,-0.2908512,0.9556704,-10.28543,26.67384,-38.40986,1008.389
1.531862259,0.05635965,0.02123155,-0.1036448,-0.03337498,-0.2870098,0.9537241,-10.28517,27.05498,-38.41172,1008.389
1.566509724,-0.3729755,0.02121272,0.01919197,-0.03627852,-0.2831045,0.9547474,-10.28517,27.05498,-38.41172,1008.389
1.598681450,0.05832629,0.02082905,-0.2868795,-0.03627828,-0.28794,0.9571175,-9.90197,26.29303,-37.96365,1008.387
1.633328438,0.303599,0.02031091,-0.1024509,-0.04068788,-0.2932535,0.9575968,-9.901712,26.67416,-37.96551,1008.385
1.665501118,-0.004943807,0.07893058,-0.1635704,-0.04118821,-0.2893938,0.9542593,-9.901712,26.67416,-37.96551,1008.385
1.700143814,-0.1889429,-0.03922873,0.2041969,-0.03723788,-0.2888874,0.9595286,-9.890156,26.68553,-37.07295,1008.385
1.732316494,0.1791956,-0.09788261,-0.1023402,-0.03967981,-0.2864592,0.9581255,-9.528725,26.66392,-38.34997,1008.385
1.766963482,0.1169014,-0.03824932,0.08170122,-0.03873224,-0.2884242,0.9556903,-9.901712,26.67416,-37.96551,1008.385
1.799135208,0.4233646,0.1986279,0.08146416,-0.04018813,-0.2855081,0.955246,-9.901712,26.67416,-37.96551,1008.384
1.833782673,0.1157608,0.08029547,0.3869072,-0.03868951,-0.289836,0.9614624,-9.52403,26.28766,-37.96558,1008.384
1.865955353,0.05443659,0.08030236,0.1406432,-0.03529625,-0.2884229,0.9580684,-9.517737,27.05561,-37.52303,1008.384
1.900597572,-0.00792652,0.07985707,0.01725963,-0.03917991,-0.2816151,0.9571967,-9.517737,27.05561,-37.52303,1008.384
1.932770252,-0.008664884,0.02064337,0.07811116,-0.03924462,-0.2874768,0.952329,-9.523516,27.04992,-37.96931,1008.385
1.967417240,-0.06990322,0.02023745,0.2001695,-0.03871619,-0.284541,0.9557222,-9.906664,26.66929,-38.34804,1008.385
1.999589443,-0.007744685,0.0201735,0.01595376,-0.03829088,-0.2908869,0.9513279,-9.906664,26.66929,-38.34804,1008.385
2.031761646,-0.00746261,0.1384614,0.01577337,-0.03624568,-0.2898446,0.9619215,-9.529293,27.04424,-38.41559,1008.384
2.066409111,0.1147377,0.02011464,0.1990849,-0.0407287,-0.289422,0.9508808,-9.907747,26.28734,-38.40993,1008.384
2.098577023,-0.1317403,0.07932904,0.07583378,-0.03483252,-0.2913488,0.9565939,-9.907747,26.28734,-38.40993,1008.384
2.133224010,0.4202473,-0.03892518,0.07517431,-0.03521524,-0.2835136,0.9653381,-9.529551,26.66311,-38.41373,1008.384
2.165396690,-0.3168578,-0.03882229,0.01358086,-0.03384257,-0.287956,0.9566127,-9.90749,26.66848,-38.41179,1008.384
2.200043201,0.1136201,0.02034781,0.1357493,-0.03287879,-0.2889391,0.9556315,-9.90749,26.66848,-38.41179,1008.386
2.232215881,-0.193725,0.1382822,0.1962904,-0.03725839,-0.2850375,0.9552225,-9.906407,27.05042,-38.3499,1008.384
2.266862869,0.2994539,0.2560638,0.07250934,-0.03716686,-0.2873721,0.9672524,-9.896192,26.29871,-37.51737,1008.384
2.299030781,0.6038244,0.01852133,-0.1721074,-0.04487967,-0.2674205,0.9689349,-9.896192,26.29871,-37.51737,1008.383
2.333678246,-25.6875,-2.347941,3.566198,-0.02281997,-0.0562311,1.052892,-9.90197,26.29303,-37.96365,1008.384
2.365850449,-108.9871,-10.16036,4.914513,-0.05729305,-0.3231645,0.9705191,-9.90197,26.29303,-37.96365,1008.384
2.400497913,-66.23158,-7.260296,2.524319,-0.02488144,-0.3290165,1.113804,-9.90197,26.29303,-37.96365,1008.384
2.432669640,-163.5373,-17.79523,-4.09468,-0.06996405,-0.06129068,1.310678,-10.24395,28.23817,-35.29334,1008.384
2.467317104,-275.8321,-43.06723,-12.12328,-0.1305277,-0.3301989,1.144182,-9.440875,30.94003,-31.80374,1008.384
2.499485016,-373.9365,-54.6675,-30.75453,-0.1603718,-0.4957979,0.9247498,-9.440875,30.94003,-31.80374,1008.384
2.531657219,-497.4116,-60.9411,-113.0017,-0.05837532,-1.238947,0.3551781,-10.45661,36.02376,-22.96027,1008.386
2.566304684,-408.6447,-36.91199,-180.2336,0.112007,-2.205784,-0.09830387,-12.138,41.58788,-7.165567,1008.384
2.598476410,-183.7479,-2.643866,-211.8577,0.1925334,-1.8191,0.1219963,-12.138,41.58788,-7.165567,1008.384
2.633123875,-104.5641,14.63816,-217.2509,0.2337604,-1.331205,-0.02812395,-17.28636,42.24729,8.734808,1008.384
2.665296078,-65.06439,39.49586,-223.5635,0.4241093,-1.084498,-0.20235,-23.64116,36.31351,14.53535,1008.383
2.699938774,-10.1456,46.59806,-217.8025,0.4725786,-0.9825237,-0.2911315,-23.64116,36.31351,14.53535,1008.383
2.732111454,13.75083,56.42278,-206.0354,0.6255792,-0.6625533,-0.2412394,-29.29811,29.93101,15.87108,1008.379
2.766758442,24.56258,69.08837,-191.4491,0.6583944,-0.5572263,-0.2199513,-34.2385,22.73734,14.2102,1008.376
2.798930168,40.78021,76.66405,-177.4757,0.7025033,-0.4074031,-0.2118977,-34.2385,22.73734,14.2102,1008.376
2.833577633,21.61392,84.003,-162.5829,0.7980435,-0.2388007,-0.1901912,-38.80704,16.29406,12.03364,1008.374
2.865750313,6.379178,98.79925,-145.4838,0.7061772,-0.1964615,-0.1089731,-41.12368,10.94574,8.564804,1008.375
2.900393486,-2.221079,103.2381,-131.5104,0.7305639,-0.03660792,-0.07173283,-43.06264,5.210911,5.095894,1008.371
2.932565212,-42.94944,120.8161,-117.537,0.8064211,0.05181994,-0.2630654,-43.06264,5.210911,5.095894,1008.367
2.967212677,-64.32722,157.2149,-95.04462,0.7149993,0.0874219,-0.2999969,-43.49622,-0.2342755,1.107664,1008.367
2.999384880,-59.90424,203.2608,-67.71061,0.818648,0.1171404,-0.4077228,-43.9568,-4.119018,-5.05597,1008.364
3.034031391,-79.50054,278.5441,-37.12838,0.5952545,0.1300291,-0.516874,-43.9568,-4.119018,-5.05597,1008.362
3.066204071,-478.6139,234.1554,-200.8873,-0.777315,-3.841634,-9.3815,-42.54945,-7.290263,-12.95436,1008.359
3.098371983,10.8636,-55.61446,-100.0089,2.805454,1.625878,0.3323115,-39.58785,-7.39412,-17.75141,1008.355
3.133018971,-223.9234,33.75491,-59.86587,0.3730876,-0.7974779,0.7307513,-39.58785,-7.39412,-17.75141,1008.355
3.165191650,113.1452,43.10615,-37.61868,0.3980381,0.05435468,0.5582372,-39.20825,-13.49194,-17.27729,1008.355
3.199839115,10.92503,9.015582,-19.78416,0.8811643,0.4331282,0.9564293,-37.70856,-14.28705,-18.17387,1008.357
3.232010841,-6.275487,2.50523,-6.117152,0.7021477,0.09875276,0.7210914,-37.70856,-14.28705,-18.17387,1008.353
3.266657829,47.04611,-4.656156,12.75925,0.8252121,-0.01292249,0.6693765,-37.33794,-16.58491,-18.61092,1008.356
3.298826695,101.5349,-6.846002,26.85527,0.7239801,0.09272496,0.708788,-36.95396,-16.20346,-18.16843,1008.354
3.333473206,80.58712,-15.60538,40.27713,0.7668957,0.3549896,0.6946437,-36.95396,-16.20346,-18.16843,1008.354
3.365645886,48.27472,-13.59309,56.27304,0.6733338,0.1820495,0.678185,-37.30492,-16.55242,-16.06074,1008.354
3.400292873,55.40065,-15.78294,63.32104,0.7546825,0.06939828,0.5988953,-37.67734,-16.9225,-15.61067,1008.352
3.467112064,80.09567,1.025605,79.43953,0.7218457,0.2062076,0.6321415,-38.7928,-15.36481,-14.27347,1008.35
3.499280453,13.75083,2.03175,85.87466,0.7104254,0.2267661,0.7731615,-39.91403,-13.8128,-13.38255,1008.35
3.533926964,-12.72568,-3.650011,93.65812,0.6775314,0.04209946,0.722782,-39.91403,-13.8128,-13.38255,1008.352
3.566099644,20.32388,-7.023556,104.1995,0.7221063,-0.09128452,0.5747386,-41.03501,-11.87965,-12.49349,1008.35
3.598272324,72.84689,-6.905187,117.5601,0.6733114,-0.1809819,0.6187984,-41.41063,-8.444084,-12.5083,1008.354
3.632918835,98.46336,0.7888652,121.6663,0.6101686,-0.08517141,0.6659674,-41.41063,-8.444084,-12.5083,1008.353
3.665091038,79.41994,2.801156,119.3987,0.5851192,-0.1320637,0.6113487,-42.53109,-5.748675,-11.62296,1008.353
3.699734211,124.0184,10.55439,132.5754,0.6681412,-0.1098775,0.8985106,-42.52852,-1.93734,-11.64157,1008.353
3.731906414,73.21547,17.89334,139.8073,0.6842303,-0.01894788,0.6783543,-42.52852,-1.93734,-11.64157,1008.351
3.766553402,43.42171,19.6097,151.6969,0.52428,-0.1152111,0.6804992,-42.90967,1.873679,-12.10452,1008.349
3.798726082,68.60818,16.0586,155.0677,0.458191,-0.2992398,0.6285068,-42.16247,6.107562,-13.02173,1008.347
3.833372593,141.0961,23.39754,164.8123,0.5804694,-0.4150147,0.4851855,-42.16247,6.107562,-13.02173,1008.347
3.865545273,160.3238,48.84709,164.3833,0.4219081,-0.1709957,0.4298728,-41.42058,11.03451,-14.38863,1008.347
3.900188446,15.28659,50.8002,149.6132,0.3280729,-0.02465739,0.4006249,-38.80653,14.39383,-17.03284,1008.347
3.932360172,-34.34919,47.60421,147.0391,0.2938077,-0.4994859,0.6761078,-38.80653,14.39383,-17.03284,1008.347
3.967007637,3.184797,50.56346,142.32,0.3421923,-0.5223123,0.5795502,-35.81429,18.12892,-19.68085,1008.346
3.999179840,-21.32594,56.12685,132.7592,0.3082754,-0.5021703,0.7149926,-32.42078,23.4051,-20.61687,1008.344
4.033827305,-16.78009,64.82705,132.2077,0.3349921,-0.5957069,0.6874622,-28.27821,27.14033,-21.99559,1008.347
4.065999031,-1.606775,76.72324,137.6622,0.1488247,-0.6106269,0.8987461,-28.27821,27.14033,-21.99559,1008.347
4.100642204,35.37433,65.06379,138.4589,0.05599637,-0.6741343,0.9747627,-24.51352,29.73834,-23.30304,1008.347
4.132814884,2.017619,54.94315,132.2689,-0.09896821,-0.5155595,0.9823359,-19.25523,32.297,-26.02082,1008.348
4.164986610,7.484926,41.62652,113.8215,-0.08486725,-0.831818,0.9550151,-19.25523,32.297,-26.02082,1008.348
4.199634075,11.60076,43.2837,90.47119,-0.1185478,-0.57786,0.947301,-14.28956,33.73948,-26.94629,1008.348
4.231806278,-5.784044,37.83868,70.00133,-0.1365974,-0.8949112,0.9853436,-9.375312,35.19423,-26.97887,1008.348
4.266452789,21.30677,37.83868,49.47018,-0.1315509,-0.7008728,0.9112223,-9.375312,35.19423,-26.97887,1008.345
4.298621655,-3.449688,40.73875,29.79704,-0.09931716,-0.716037,0.9797224,-6.362837,35.90218,-27.89063,1008.347
4.333268643,-14.63002,17.30149,11.5948,-0.2070107,-0.9217361,1.678895,-3.350308,35.46754,-28.73305,1008.35
4.365440846,-41.8437,-23.24025,-16.65852,-0.2021973,-0.8561654,1.058093,-3.350308,35.46754,-28.73305,1008.35
4.400087833,49.99477,6.293071,-1.581912,-0.218773,-0.5677865,0.8042014,-2.222525,35.06461,-29.18327,1008.354
4.432260513,23.21111,-1.223425,-12.00071,-0.1805583,-0.1345976,0.6705282,-2.599691,36.21338,-29.18692,1008.354
4.466907024,-35.57779,-2.052016,-5.749429,-0.0536077,-0.3744168,0.6206126,-2.599691,36.21338,-29.18692,1008.355
4.499075413,-7.995538,-3.590826,-3.0528,-0.1224274,-0.5318794,0.9279543,-2.972882,34.69991,-28.73126,1008.357
4.533722878,-8.36412,-4.005121,-6.423587,-0.1380702,-0.5420188,0.9877846,-2.222267,35.44575,-29.18513,1008.357
4.565894604,-12.41853,1.55827,-7.220318,-0.08436513,-0.5987647,0.9019838,-2.222267,35.44575,-29.18513,1008.359
4.600541592,16.39234,5.819592,-6.301013,-0.1150527,-0.6357212,0.8103856,-2.972368,35.46217,-28.73498,1008.359
4.632714272,28.24841,7.772697,-4.339828,-0.09917527,-0.4208935,0.7956205,-2.96659,35.46785,-28.2887,1008.359
4.667361736,4.966279,7.180847,-1.581912,-0.1341054,-0.4911332,0.8541712,-2.96659,35.46785,-28.2887,1008.361
4.699529648,-1.115332,3.866486,-1.581912,-0.1605836,-0.4432815,0.8740928,-3.356086,35.46185,-29.17933,1008.361
4.731701851,-9.347007,-0.33565,-2.930226,-0.1338181,-0.4666936,0.876542,-3.362378,34.6939,-29.62189,1008.362
4.766349316,-15.61291,-0.6907601,-3.359235,-0.1178491,-0.519605,0.8860788,-3.362378,34.6939,-29.62189,1008.362
4.798521042,-10.32989,0.1970151,-3.604383,-0.1158168,-0.5359458,0.8454372,-3.350566,35.0864,-28.73119,1008.361
4.833168507,-7.626956,2.15012,-2.43993,-0.1334327,-0.5204281,0.8322335,-3.356343,35.08072,-29.17747,1008.362
4.865340710,-16.84152,1.025605,-3.849531,-0.09585741,-0.431713,0.9053962,-3.356343,35.08072,-29.17747,1008.365
4.899983406,-104.1956,-3.531641,-0.1110231,-0.131939,-0.2603976,0.9423312,-2.972368,35.46217,-28.73498,1008.365
4.932156086,-157.5172,-10.45629,1.727588,-0.1228226,-0.4679241,0.8499193,-3.333542,35.86491,-27.45982,1008.365
4.966803074,-201.0099,-24.71988,4.669364,-0.1542576,-0.5969921,0.7720287,-2.8905,38.20888,-22.56383,1008.365
4.998974800,-171.769,-28.74446,10.30777,-0.1091604,-0.8637002,0.5182874,-2.8905,38.20888,-22.56383,1008.365
5.033622265,-78.88624,-19.27485,13.92371,-0.06146408,-0.9810023,0.4436114,-3.926511,41.36826,-15.17741,1008.365
5.065794945,-28.94331,-11.69917,10.79807,-0.1020001,-0.8513089,0.4932588,-3.118168,43.31355,-11.23781,1008.365
5.100438118,2.14048,-5.603116,4.669364,-0.12754,-0.9692857,0.4727625,-3.118168,43.31355,-11.23781,1008.365
5.132609844,13.13652,-1.578535,-1.581912,-0.1154782,-0.7829637,0.5985419,-3.105797,44.53183,-10.35114,1008.365
5.167256832,-13.77,-3.294901,-1.091616,-0.09600742,-0.8111522,0.6063218,-1.978014,44.12891,-10.80136,1008.365
5.199429512,9.082117,-6.135781,2.892041,-0.08064922,-0.8037269,0.5720177,-1.978014,44.12891,-10.80136,1008.365
5.231601715,-9.469868,-3.827566,2.585606,-0.104082,-0.6755103,0.5670274,-2.728671,43.31955,-10.34718,1008.365
5.266248703,-15.1829,-7.437851,8.346586,-0.148997,-0.7376856,0.59489,-3.106354,43.70604,-10.34711,1008.365
5.298416615,-29.9262,-12.23184,16.86548,-0.1409168,-0.6736455,0.5963064,-3.106354,43.70604,-10.34711,1008.366
5.333063603,-19.66732,-10.45629,23.97478,-0.07961176,-0.8306437,0.4180283,-3.094541,44.09855,-9.456408,1008.366
5.365236282,8.283522,-3.176531,30.77764,-0.1310279,-0.7952867,0.4380796,-1.949123,44.15733,-8.569959,1008.366
5.399883747,-29.1276,-3.650011,26.79398,-0.1576099,-0.825384,0.4833874,-1.949123,44.15733,-8.569959,1008.366
5.432055473,-37.605,2.090935,22.07488,-0.09647828,-0.9859993,0.402445,-0.8153038,44.14123,-8.575761,1008.366
5.466702461,-37.97358,1.08479,6.691836,-0.1398989,-1.138135,0.5355918,0.3355913,43.76104,-7.24086,1008.366
5.498871327,-48.41675,12.98098,-1.949634,-0.1134203,-0.8789578,0.4251755,0.3355913,43.76104,-7.24086,1008.366
5.533517838,-22.73884,12.98098,0.195412,-0.1525979,-0.8262178,0.4413998,0.3523569,44.15842,-5.967632,1008.372
5.565690041,-84.35355,17.06474,-0.04973612,-0.1255491,-0.804475,0.5719485,0.7475882,44.10659,-4.630415,1008.372
5.600337505,-83.8621,23.69347,-0.6013193,-0.1756853,-1.024914,0.4033452,0.7475882,44.10659,-4.630415,1008.372
5.632509232,-57.38559,21.14851,-5.197846,-0.2218825,-1.008987,0.2988317,1.154462,44.19316,-2.401256,1008.372
5.667156696,-45.16094,18.48519,-8.997642,-0.1931538,-0.94491,0.3183719,0.8221788,44.62433,1.105309,1008.372
5.699325085,-40.18508,17.6566,-10.83625,-0.1911226,-0.9380404,0.2663536,0.8221788,44.62433,1.105309,1008.372
5.733972073,-1.238193,10.19928,-11.0814,-0.1801713,-1.021964,0.2163956,0.466836,43.89017,2.896086,1008.374
5.766144276,-28.02185,11.67891,-8.875067,-0.1466784,-0.8294994,0.3343136,0.09958458,43.84258,3.727137,1008.374
5.798316956,-38.71075,8.423732,-6.239726,-0.1490577,-0.8854513,0.2524167,0.09958458,43.84258,3.727137,1008.374
5.832963943,-33.05915,5.997147,-2.43993,-0.1388478,-0.9440113,0.2180987,0.1111403,43.85394,4.619698,1008.372
5.865135670,-44.42377,4.695076,5.833818,-0.1605651,-0.9856775,0.1509599,-0.2497225,43.49524,5.962336,1008.372
5.899778843,-15.42862,4.162411,10.00134,-0.2189695,-1.124439,0.1204769,-0.2497225,43.49524,5.962336,1008.374
5.931951523,1.034732,1.499085,8.224012,-0.2002836,-0.971185,0.1794059,-0.2381659,43.50661,6.854897,1008.374
5.966598034,-4.494005,-0.5723901,8.224012,-0.1701975,-0.8898037,0.1778681,-0.2263527,43.89911,7.745596,1008.374
5.998770714,-27.7147,0.1970151,11.96252,-0.160574,-0.9393003,0.1855643,-0.2263527,43.89911,7.745596,1008.376
6.033417702,-40.86081,1.262345,11.77866,-0.2223667,-1.017573,0.1291016,0.5350904,43.57644,8.18956,1008.376
6.065589905,-21.20308,2.38686,9.756187,-0.2171197,-1.035565,0.06528042,0.5350485,43.51292,8.189871,1008.376
6.100233078,-0.5624583,-11.22569,5.58867,-0.2748088,-1.028159,0.1073317,1.30749,42.37584,9.530426,1008.377
6.132405281,19.40243,-9.450142,6.936985,-0.163518,-1.042226,0.1172633,1.30749,42.37584,9.530426,1008.377
6.167052746,17.00664,-1.99283,9.204605,-0.1787389,-1.025794,0.09826081,1.296191,42.74561,8.636003,1008.379
6.199224472,47.96757,-6.964372,14.414,-0.2352142,-1.084351,0.08432704,1.674388,43.12137,8.63221,1008.381
6.233871937,103.3164,-10.69303,14.47529,-0.2120202,-1.05622,0.1595345,1.674388,43.12137,8.63221,1008.381
6.266044140,129.3014,-4.360231,17.29449,-0.2217786,-1.086226,0.290482,2.028956,42.71213,6.847013,1008.383
6.298212051,113.391,3.09708,20.5427,-0.2121067,-0.5866061,0.4448945,3.101071,44.15884,1.988436,1008.383
6.332859516,21.30677,1.55827,27.77457,-0.2094329,-0.914562,0.340946,3.101071,44.15884,1.988436,1008.38
6.365032196,48.95045,0.6113102,24.09735,-0.315533,-1.050552,0.3244269,3.439176,43.79687,-1.072157,1008.38
6.399678707,65.22952,3.393006,18.70409,-0.2829627,-0.8604143,0.3917244,4.165866,43.31306,-3.305257,1008.38
6.431850910,44.58889,2.03175,21.89102,-0.3346185,-0.8663786,0.4032432,4.165866,43.31306,-3.305257,1008.378
6.466498375,80.21854,1.499085,23.91349,-0.4446895,-1.080264,0.416485,4.893369,44.03616,-5.544249,1008.378
6.498666287,80.89427,3.629746,36.66119,-0.48742,-0.7569828,0.5178767,5.621182,43.99781,-7.715765,1008.376
6.533313275,-12.11137,-13.11961,37.82565,-0.6745077,-0.4759404,0.6506333,5.621182,43.99781,-7.715765,1008.376
6.565485954,-34.28776,-22.88514,47.99929,-0.5774117,-0.6672965,0.5088518,6.347659,43.19639,-9.947314,1008.378
6.600132942,-45.89811,-20.81366,55.78274,-0.7788482,-0.4337154,0.5830291,7.870713,42.80515,-9.060628,1008.378
6.632305145,-75.75329,-31.99963,58.7858,-0.9264862,-0.9677143,0.2874307,7.870713,42.80515,-9.060628,1008.378
6.666952133,-44.42377,-30.75675,57.49878,-0.6943076,-1.044885,0.31162,10.53363,42.78462,-7.735323,1008.378
6.699120998,28.73985,-12.88287,64.54678,-0.5867102,-1.028239,0.2736392,13.21283,42.46273,-5.13338,1008.38
6.733767509,22.84253,11.61972,76.92676,-0.474537,-0.7933207,0.09377944,13.21283,42.46273,-5.13338,1008.378
6.765939712,19.9553,30.38137,79.19438,-0.3620592,-0.8743795,0.1031476,15.09619,41.60441,-5.585299,1008.378
6.800587177,16.45377,40.20608,85.2618,-0.2859988,-1.014124,0.2208217,17.73548,40.79888,-6.041394,1008.378
6.832941532,35.49719,60.50654,87.65199,-0.130562,-0.6955819,0.2128394,17.73548,40.79888,-6.041394,1008.377
6.865114212,-32.5677,54.29211,88.44872,0.008832025,-0.4186038,0.406622,21.51359,38.83953,-6.05143,1008.377
6.899757385,-72.74319,40.02853,103.8318,0.06158565,-0.3733644,0.3905967,25.30955,37.6595,-4.726344,1008.375
6.931929111,51.71482,-15.36864,124.3016,0.1360735,-0.6654515,1.208339,25.30955,37.6595,-4.726344,1008.375
6.966576576,26.28263,-7.674592,109.7153,-0.6240594,-0.6021235,1.314764,28.80134,35.35191,-2.501504,1008.373
6.998748779,-128.4606,-51.70824,99.35781,-0.6262423,-0.4080389,0.6121827,32.17211,32.60723,-4.737287,1008.371
7.033396244,13.38225,-14.65842,104.6898,-0.7651739,-0.5239395,0.22114,32.17211,32.60723,-4.737287,1008.37
7.065567970,-63.40577,2.26849,96.17088,-1.435429,-0.2472405,0.2344953,35.56573,29.50416,-5.186086,1008.368
7.100211144,4.044823,8.897212,60.86956,-1.404388,-0.4977614,0.623524,38.21528,26.80433,-4.740317,1008.368
7.132383823,5.396292,6.707366,53.57641,-0.7719315,-0.1135495,0.4381122,38.21528,26.80433,-4.740317,1008.368
7.167030811,-50.32109,20.3791,54.25057,-0.8795331,-0.5841585,0.5210323,40.11473,24.12093,-3.8444,1008.372
7.199203014,18.78812,26.59353,51.37008,-0.7049294,-0.09868257,0.3320516,41.63073,21.81833,-3.394691,1008.372
7.233850002,-3.695409,28.48745,52.10552,-0.8781351,-0.4753855,0.4023802,42.78111,20.67588,-2.056068,1008.372
7.266022682,-1.975358,28.42827,52.2281,-0.8616362,-0.01091723,0.2826634,42.78111,20.67588,-2.056068,1008.374
7.300665379,-0.7467495,30.02626,47.0187,-0.9610668,-0.3501505,0.2870606,43.54644,18.77004,-1.221827,1008.374
7.332837582,-6.398348,29.02012,44.26078,-0.8152488,-0.002938858,0.3401363,44.69053,16.85963,-0.3257637,1008.374
7.367485046,1.341885,35.41209,47.81543,-1.007279,-0.3671951,0.3128973,44.69053,16.85963,-0.3257637,1008.374
7.399656773,-21.08022,40.56119,34.08714,-0.9200796,-0.0037885,0.3512295,45.84013,14.57378,1.018442,1008.372
7.431829453,-0.009584576,40.44282,35.92575,-0.902347,-0.09452467,0.2404201,45.85695,13.82857,2.361006,1008.372
7.466476441,-32.99772,43.93474,29.91962,-0.9556401,-0.1649541,0.2625087,45.85695,13.82857,2.361006,1008.372
7.498644352,8.713535,47.90013,27.40685,-0.9439601,-0.02815381,0.1343517,45.88347,11.56938,4.539818,1008.372
7.565464020,11.60076,54.41048,30.16477,-0.9099939,0.02945413,0.1995796,46.27797,10.43767,5.882309,1008.372
7.600111485,20.26245,61.74943,31.02279,-0.997531,-0.07078871,0.1099181,46.30661,10.08496,8.115574,1008.372
7.632283211,-4.186853,67.84549,31.45179,-0.9730562,-0.06600607,0.1164772,45.57777,8.598774,10.29453,1008.37
7.666930675,6.563469,75.53954,31.08407,-1.086201,-0.003446299,0.03659074,45.57777,8.598774,10.29453,1008.37
7.699099064,12.82937,78.0845,27.77457,-1.07636,-0.07878309,-0.03353009,45.60588,7.483798,12.53152,1008.367
7.733745575,46.86182,95.78082,29.24546,-0.9094326,0.01757866,-0.0183873,44.87787,5.998425,14.77423,1008.367
7.765918255,37.03296,99.56866,43.34148,-0.9659904,-0.07966402,-0.1396431,44.87787,5.998425,14.77423,1008.365
7.800565243,29.41558,102.232,58.29551,-1.046158,0.01152062,-0.1998393,44.1729,5.67838,18.73273,1008.363
7.832737446,23.76399,91.69704,68.46915,-1.152609,0.01444225,-0.2672658,43.0782,4.971201,21.80246,1008.367
7.867384434,19.21814,75.89465,65.28223,-1.168986,0.1790954,-0.2633456,43.0782,4.971201,21.80246,1008.367
7.899552822,3.61481,60.98002,53.88284,-1.1891,0.1941638,-0.3994395,40.8442,3.512987,24.4992,1008.367
7.931725025,0.2975675,51.74716,44.01563,-1.098703,0.2054283,-0.3910322,39.35974,1.212562,26.74981,1008.365
7.966372013,10.92503,39.25912,34.39357,-1.088793,0.311418,-0.4244728,39.35974,1.212562,26.74981,1008.365
7.998544693,-2.221079,34.52432,34.7,-1.134389,0.2572901,-0.4235296,37.49156,0.1179315,28.48643,1008.364
8.033191681,31.2585,24.40369,22.32003,-1.073267,0.2494,-0.4632069,36.75275,-0.2354105,29.83099,1008.364
8.065363884,12.21507,6.174702,10.24648,-1.037573,0.204761,-0.3752201,36.75275,-0.2354105,29.83099,1008.364
8.100007057,19.83244,-16.7299,-15.24892,-0.9302657,0.1910497,-0.2587265,35.25673,-1.341094,31.1194,1008.364
8.132179737,-5.476892,-31.23023,-24.56454,-0.9455876,0.2378545,-0.3044696,33.74606,-0.9376745,31.18903,1008.364
8.166826725,-14.63002,-28.92201,-25.17742,-0.8682241,0.2937651,-0.2425527,33.74606,-0.9376745,31.18903,1008.362
8.198998451,-46.81956,-34.24866,-21.50019,-0.9125506,0.2230119,-0.2567004,34.50348,1.338389,31.174,1008.362
8.233645916,-73.91037,-36.26096,-24.13554,-0.895359,0.2482491,-0.3718506,34.11428,1.777044,30.2812,1008.364
8.265818119,-89.51369,-38.56917,-26.15801,-0.96543,0.1428785,-0.2968735,34.85283,1.749252,28.93849,1008.364
8.300460815,-90.9266,-43.5999,-20.39703,-0.9991958,0.3517873,-0.2929082,34.85283,1.749252,28.93849,1008.364
8.332633495,-126.802,-46.49996,-23.27752,-1.032833,0.3757181,-0.358431,35.22392,0.1501424,28.49803,1008.364
8.367280483,-102.967,-38.68754,-22.35821,-0.9446425,0.252366,-0.3732848,35.96118,-1.783317,27.16463,1008.362
8.399452686,-79.74626,-43.54071,-28.85464,-1.037646,0.3268504,-0.1524931,35.96118,-1.783317,27.16463,1008.362
8.434099674,-90.06657,-51.29395,-33.20602,-0.9944481,0.2935397,-0.1642568,37.07091,-4.489284,25.45048,1008.361
8.466272354,-80.91344,-55.02261,-26.70959,-0.9404071,0.4763537,-0.151686,37.43151,-4.511707,24.1097,1008.361
8.498440266,-136.1394,-60.29007,-22.66465,-0.9434524,0.4013456,-0.1874619,37.43151,-4.511707,24.1097,1008.361
8.533087254,-130.7335,-48.21633,-9.304076,-0.7883941,0.5880871,-0.2929271,38.91939,-5.699321,22.32243,1008.359
8.565259934,-268.5219,-32.41393,-12.85872,-0.8760356,0.7545297,-0.2917012,40.39627,-7.278627,19.70821,1008.359
8.599906922,-430.2068,-19.62996,-41.2959,-0.7929641,0.4072042,-0.4008976,40.39627,-7.278627,19.70821,1008.357
8.632079125,-433.094,-2.407126,-47.24074,-0.5931199,0.2720121,-0.305549,40.72593,-10.37854,16.15091,1008.355
8.666726112,-336.3411,-12.29102,-27.32246,-0.7727013,0.1005299,0.1265846,41.02624,-15.41174,10.43528,1008.354
8.698894977,-235.0423,-26.37705,-3.972106,-0.6777103,-0.05963586,0.1258238,41.02624,-15.41174,10.43528,1008.354
8.733541489,-178.1578,-24.89743,11.04322,-0.7000403,-0.1173334,-0.006511387,41.3399,-17.76563,5.599174,1008.35
8.765713692,-135.4022,-23.47699,16.37519,-0.8189899,-0.3361351,0.05593665,41.66037,-18.5893,1.20191,1008.35
8.800361156,-45.22237,-17.55849,15.94618,-0.8703771,-0.5047805,0.1200957,41.66037,-18.5893,1.20191,1008.348
8.832533836,-0.8696104,-13.11961,6.753123,-0.8706654,-0.4359297,0.1105441,41.62024,-19.39055,-1.854578,1008.348
8.867180347,16.39234,-9.035847,-7.404179,-0.8981245,-0.4837868,0.1181177,41.23626,-19.772,-2.297064,1008.351
8.933995724,50.11763,3.156265,-48.65034,-0.9240664,-0.4610018,0.09782168,40.85832,-19.76663,-2.29513,1008.349
8.966167927,73.27689,10.25847,-58.14983,-0.927891,-0.4492671,0.04348815,41.24307,-18.24178,-1.858226,1008.347
8.998340130,94.34753,14.75653,-66.73002,-1.020924,-0.5482242,0.05414443,41.24307,-18.24178,-1.858226,1008.345
9.032987595,127.3971,15.6443,-76.96495,-1.03985,-0.5248219,0.05547795,42.00467,-17.10424,-1.485149,1008.345
9.065159321,143.6762,15.17082,-84.19682,-1.060575,-0.5002665,0.01634982,43.1747,-14.79944,1.175568,1008.344
9.099802494,160.6924,10.9095,-93.32859,-1.15306,-0.5194194,0.05368686,43.1747,-14.79944,1.175568,1008.342
9.131975174,168.6783,3.688931,-102.7055,-1.167657,-0.4627678,0.08947607,43.95524,-12.50064,2.945656,1008.342
9.166622162,152.645,-1.933645,-113.3694,-1.136547,-0.4002072,0.1027155,44.73572,-9.059244,4.646412,1008.342
9.198794365,127.2742,-6.313336,-120.7239,-1.100762,-0.4026549,0.1230874,44.73572,-9.059244,4.646412,1008.34
9.233441353,109.4594,-5.425561,-122.8076,-1.039717,-0.4033998,0.1287777,46.2566,-4.120297,5.060768,1008.338
9.265614033,94.65468,-1.04587,-119.1917,-0.988826,-0.39337,0.1404355,45.88753,0.464358,5.486652,1008.338
9.300256729,99.56911,0.6113102,-108.7729,-0.9819227,-0.4392408,0.1130009,45.50719,5.482299,5.017807,1008.338
9.332428932,103.9307,1.4399,-94.79948,-0.9458456,-0.3587701,0.1861096,45.50719,5.482299,5.017807,1008.337
9.367076397,107.8622,-1.460165,-81.80663,-0.922084,-0.4417156,0.20834,44.7379,10.0504,3.724258,1008.337
9.399248123,120.394,-0.8683152,-68.50735,-0.9023097,-0.4053135,0.2209876,44.35072,13.4746,2.816881,1008.339
9.433895588,111.3638,-0.21728,-53.79845,-0.8248616,-0.3226924,0.2219101,44.35072,13.4746,2.816881,1008.333
9.466067791,98.27908,3.866486,-40.74432,-0.7755848,-0.3137591,0.2162219,42.81816,16.90353,1.022749,1008.333
9.500710964,88.51164,12.74424,-24.99356,-0.80273,-0.3096263,0.2941112,42.41865,19.17296,-0.7716045,1008.331
9.532883167,62.64944,20.14237,-9.181502,-0.8004599,-0.2590554,0.3075209,42.41865,19.17296,-0.7716045,1008.33
9.565055370,35.49719,30.97322,-2.685078,-0.6889526,-0.2385174,0.2102499,41.64704,20.31086,-2.048406,1008.328
9.599702835,19.09527,40.20608,-2.930226,-0.8560876,-0.1818137,0.1544369,42.02993,20.31036,-1.667813,1008.324
9.631874561,-19.72875,33.99165,4.730651,-1.116011,-0.07791816,0.2420687,42.02993,20.31036,-1.667813,1008.324
9.666522026,-58.55277,28.54664,20.1137,-1.015166,-0.08631197,0.2256346,41.28586,20.7136,-0.7732449,1008.324
9.698690414,-69.05737,32.15692,52.47324,-1.024217,-0.104365,0.1445943,41.69218,19.97439,1.459946,1008.323
9.733337402,-68.01305,34.5835,84.52635,-0.9540458,-0.1962001,0.1769224,41.69218,19.97439,1.459946,1008.321
9.765509605,-65.00296,39.19994,100.7674,-0.9363449,-0.1831847,0.3026664,42.47617,18.84868,3.693064,1008.321
9.800156593,-75.50756,37.72031,106.5284,-0.9252002,-0.1301572,0.3256535,44.01419,16.18688,5.866001,1008.319
9.832329273,-76.30616,33.51817,109.5927,-0.937876,-0.1460411,0.3347988,44.01419,16.18688,5.866001,1008.319
9.866976261,-55.35839,27.06701,113.8828,-0.9868198,-0.2648879,0.3752457,44.79614,12.0121,8.114006,1008.319
9.899144173,-47.311,17.06474,114.986,-1.047472,-0.3150443,0.4409501,45.18229,7.063366,9.028822,1008.319
9.933791637,-48.66247,4.635891,102.7286,-1.067368,-0.3023073,0.5063106,45.18229,7.063366,9.028822,1008.323
9.965964317,-86.56504,-6.846002,83.11675,-0.9941376,-0.2320416,0.4758407,45.95159,2.495269,10.32237,1008.323
10.000610828,-135.1565,-14.59924,64.54678,-0.9275265,-0.2045113,0.3751902,45.57026,-2.51762,10.3488,1008.323
10.032783031,-139.7023,-19.39322,51.00235,-0.8711166,-0.2402352,0.3107454,45.57026,-2.51762,10.3488,1008.323
10.067430496,-114.393,-18.44626,44.01563,-0.8542201,-0.2187261,0.2784711,45.5454,-6.350883,8.646044,1008.321
10.099598408,-88.7151,-18.09115,38.31594,-0.8658475,-0.2650137,0.3109739,45.90395,-9.422375,7.320152,1008.32
10.131770611,-68.07449,-16.25642,30.90021,-0.8700364,-0.3261832,0.3066528,45.90395,-9.422375,7.320152,1008.318
10.166418076,-44.60807,-12.58695,21.40072,-0.8570517,-0.344798,0.2928821,44.74496,-12.47808,5.555719,1008.318
10.198589802,-21.57166,-6.431706,12.5141,-0.8300923,-0.3448225,0.3070904,44.73289,-13.25171,4.66688,1008.318
10.233237267,3.61481,0.01946004,3.014615,-0.7985896,-0.3307077,0.3324587,44.73289,-13.25171,4.66688,1008.316
10.265409470,19.21814,5.997147,-5.197846,-0.8174079,-0.306724,0.346328,44.72139,-14.40567,3.843657,1008.316
10.300053120,27.75696,9.015582,-14.32961,-0.8248231,-0.2956524,0.3296185,43.96417,-15.15801,3.787489,1008.314
10.332224846,33.03998,12.38913,-19.96802,-0.8859548,-0.2708077,0.3019558,43.96417,-15.15801,3.787489,1008.313
10.366871834,33.65428,12.86261,-24.44197,-0.9317951,-0.2502417,0.2958051,45.11006,-14.40048,4.670528,1008.313
10.399044514,32.73283,13.86875,-28.05791,-0.9412204,-0.2542037,0.2794724,45.11584,-14.3948,5.11681,1008.313
10.433691502,29.96846,16.76882,-29.16107,-0.950224,-0.2321157,0.2426245,44.756,-13.22897,6.452002,1008.313
10.465863705,24.13257,19.90563,-26.6483,-1.008868,-0.2377043,0.2354137,44.756,-13.22897,6.452002,1008.313
10.500506878,21.24534,24.81798,-19.90673,-1.068396,-0.2731866,0.2535106,45.14653,-11.69844,7.335186,1008.311
10.532679558,20.38531,22.86488,-13.9006,-1.146227,-0.3039678,0.2400051,45.5368,-10.54904,8.220232,1008.315
10.567326069,30.58276,24.3445,-15.00377,-0.9978818,-0.3641505,0.2101688,45.5368,-10.54904,8.220232,1008.315
10.599498272,48.33615,27.00783,-23.89039,-1.134789,-0.3293829,0.1616049,45.54887,-9.775398,9.109072,1008.315
10.631670952,52.2677,23.39754,-45.03441,-1.051824,-0.3066157,0.2092184,45.18191,-9.37834,9.93795,1008.313
10.666318417,54.47919,23.39754,-65.99458,-0.9860593,-0.1581078,0.1235512,45.18191,-9.37834,9.93795,1008.307
10.698486328,60.43794,18.01171,-83.40009,-1.025748,-0.2987022,0.05624652,46.33435,-7.471723,11.26169,1008.307
10.733133316,160.1395,0.6704952,-100.8669,-1.122504,-0.4477658,0.1127964,45.59158,-5.162815,12.14695,1008.307
10.765305996,160.0781,-11.52162,-117.7821,-1.047622,-0.2217395,0.203613,45.59158,-5.162815,12.14695,1008.309
10.799952507,84.64153,-26.55461,-117.9047,-1.218584,-0.1708239,0.2759999,46.35658,-0.2131318,12.56518,1008.311
10.832124710,36.17293,-35.72829,-125.5043,-1.109674,-0.2843657,0.2248836,45.95942,5.550022,10.75377,1008.311
10.866772175,37.27868,-31.46697,-127.5267,-1.083389,-0.3975999,0.097421,45.95942,5.550022,10.75377,1008.311
10.898940086,52.51342,-26.37705,-123.1754,-1.132294,-0.3597729,0.1246992,45.56229,10.10707,9.012003,1008.315
10.933587074,46.49324,-24.30558,-114.4113,-0.9617205,-0.3173787,0.1933469,44.02549,15.81712,6.760424,1008.315
10.965759754,42.25454,-17.55849,-97.49611,-0.8108133,-0.2981575,0.1395593,44.02549,15.81712,6.760424,1008.309
11.000407219,43.72887,-11.22569,-75.86179,-0.7884911,-0.3820406,0.1651695,42.8714,20.00295,4.960634,1008.315
11.032578945,47.78328,-8.858292,-56.8628,-0.7513612,-0.3657823,0.220387,40.21188,23.83562,3.680477,1008.315
11.067225933,37.89298,-4.833711,-35.71878,-0.6930674,-0.3518076,0.1818803,40.21188,23.83562,3.680477,1008.313
11.099394798,42.80741,-1.28261,-16.96495,-0.7128399,-0.4239922,0.1867717,38.67881,26.50229,1.890064,1008.313
11.134041309,53.80346,1.08479,1.421152,-0.7425045,-0.412666,0.2517298,39.05148,27.25351,1.438129,1008.313
11.166213512,44.09745,6.470626,14.65915,-0.7508152,-0.3889433,0.238507,39.05148,27.25351,1.438129,1008.311
11.198386192,30.15275,12.5075,25.69081,-0.7670137,-0.4179636,0.2413109,37.51739,28.39564,-0.3448429,1008.313
11.233033657,23.08825,18.48519,34.76129,-0.8045662,-0.4192441,0.3028646,38.26749,28.37922,-0.7949886,1008.313
11.265205383,1.956189,21.56281,42.78989,-0.8256261,-0.3747581,0.3304199,38.26749,28.37922,-0.7949886,1008.313
11.299848557,-16.16578,23.1608,51.49265,-0.8107588,-0.3895772,0.306541,39.40028,26.83858,-0.7933483,1008.313
11.332021236,-19.36016,23.75265,60.44056,-0.8546059,-0.3825233,0.3118283,39.78901,25.70118,0.1028614,1008.313
11.366667748,-32.19912,23.98939,70.73677,-0.899217,-0.3897788,0.3492987,39.78901,25.70118,0.1028614,1008.311
11.398840427,-41.10653,22.09547,80.11369,-0.9130141,-0.4241655,0.3501079,40.93283,23.40964,1.000786,1008.31
11.433487415,-39.57077,19.72807,89.42931,-0.9418694,-0.4448738,0.3526165,42.83832,21.11305,2.341124,1008.311
11.465659142,-36.62211,20.67503,107.2638,-1.081204,-0.4144725,0.3657352,43.24227,18.08623,4.521723,1008.311
11.500302315,-53.02403,15.58512,117.3762,-1.015876,-0.4109855,0.3564784,43.24227,18.08623,4.521723,1008.311
11.532474995,-71.02314,16.35452,124.4242,-1.010053,-0.4274492,0.3023044,45.52467,14.25974,5.867569,1008.311
11.567122460,-87.42506,19.31378,117.3762,-0.9941342,-0.4170586,0.2752495,46.66722,10.06253,6.774797,1008.311
11.599294186,-100.264,21.50362,107.2638,-0.8775975,-0.4051879,0.316194,46.66722,10.06253,6.774797,1008.311
11.633941174,-100.3254,19.01785,91.26792,-0.8654625,-0.4275517,0.3192704,47.4313,5.108432,7.687681,1008.311
11.666113853,-85.15214,9.607432,72.08508,-0.7972268,-0.4236521,0.3654197,47.42792,0.09017491,7.712181,1008.311
11.698281765,-66.41586,-0.9275002,46.95741,-0.7289219,-0.4525351,0.3775583,47.42792,0.09017491,7.712181,1008.311
11.732928753,-49.39964,-4.774526,19.68468,-0.7692678,-0.4110872,0.3763484,47.81432,-4.477426,8.625135,1008.31
11.765101433,-42.64229,-8.443996,-5.381707,-0.8313782,-0.4177096,0.4216993,47.42933,-6.38341,8.190094,1008.31
11.799748898,-37.05212,-9.746067,-30.87711,-0.9170847,-0.4321095,0.4503363,47.42933,-6.38341,8.190094,1008.31
11.831920624,-14.44573,-10.21955,-54.96291,-0.9864738,-0.5024145,0.4152182,46.66137,-7.146309,7.30512,1008.31
11.866567612,26.95837,-7.792962,-80.70346,-1.006226,-0.4875385,0.3803392,47.02776,-7.163048,6.410625,1008.31
11.898736477,43.17599,0.07864505,-97.49611,-0.9148068,-0.4283257,0.3129764,47.02776,-7.163048,6.410625,1008.31
11.933382988,44.89605,-6.727632,-97.86383,-0.8977129,-0.5024211,0.408606,47.78543,-4.50585,6.393732,1008.31
11.965555668,79.23565,-7.437851,-104.3603,-0.896859,-0.6044953,0.3272626,47.79353,-1.069964,6.823267,1008.31
12.000202656,117.5682,-11.69917,-116.4951,-1.000391,-0.5552112,0.2944129,47.79353,-1.069964,6.823267,1008.31
12.032374382,128.7486,-10.27873,-133.9619,-1.019939,-0.4144966,0.3391354,47.40139,3.555474,5.46372,1008.31
12.067021847,92.44318,-9.213402,-139.968,-0.9970746,-0.2745146,0.379118,47.38765,8.874289,4.098827,1008.31
12.099190235,57.55071,-10.21955,-137.823,-0.9168855,-0.2669939,0.3360159,47.38765,8.874289,4.098827,1008.311
12.133837700,46.49324,-6.786817,-125.3817,-0.7846294,-0.2313743,0.3196514,45.10685,13.84499,2.811153,1008.313
12.166009426,37.70869,-3.590826,-104.4828,-0.7519529,-0.2276855,0.3155209,43.96534,19.56673,1.896482,1008.313
12.200656414,29.72274,1.55827,-78.00684,-0.6928434,-0.2274387,0.3226834,43.96534,19.56673,1.896482,1008.313
12.232829094,24.68544,8.601287,-52.634,-0.6407377,-0.1924973,0.2926013,41.305,23.39859,0.5525723,1008.317
12.265000820,17.19093,16.35452,-27.69018,-0.6410046,-0.2159514,0.2721664,38.64992,26.47387,-0.3413391,1008.317
12.299643993,12.2765,24.40369,-2.623791,-0.6476581,-0.23945,0.3048108,38.64992,26.47387,-0.3413391,1008.311
12.331816673,7.607787,29.0793,22.9329,-0.7234699,-0.2054189,0.3260427,38.27853,27.62832,0.1012936,1008.315
12.366464138,-25.50321,30.6773,60.37927,-0.8465703,-0.09518974,0.3160501,37.52972,29.55041,0.5421391,1008.315
12.398635864,-57.07844,33.99165,98.68365,-1.067982,-0.2278381,0.2808726,37.52972,29.55041,0.5421391,1008.31
12.433282852,-73.78751,34.46513,133.9237,-1.271036,-0.3003766,0.3106072,38.29034,28.02082,0.991993,1008.31
12.465455532,-100.8169,39.61423,155.3129,-1.41082,-0.273247,0.2138073,39.84101,25.75234,4.119387,1008.31
12.500098705,-132.4536,34.9978,162.1157,-1.322261,-0.2932261,0.1347324,43.29029,20.79964,8.078943,1008.308
12.532270908,-125.3276,34.9978,162.7286,-1.166942,-0.3446101,0.1174355,43.29029,20.79964,8.078943,1008.308
12.566917896,-126.4334,34.82024,155.3129,-1.0692,-0.4329747,0.1770089,45.20317,13.55888,10.27228,1008.31
12.599090576,-84.23068,30.38137,144.7715,-1.054868,-0.530524,0.1876389,46.73315,6.318606,12.08502,1008.31
12.633737087,-41.35225,22.86488,127.6111,-0.9873916,-0.49447,0.1858605,46.73315,6.318606,12.08502,1008.315
12.665909767,-16.78009,12.32994,105.8542,-0.9660633,-0.5416135,0.1915389,46.37365,-0.5772107,13.90588,1008.317
12.700552940,10.92503,1.20316,76.62032,-0.9367152,-0.5794149,0.2179454,45.98608,-6.294529,13.48944,1008.313
12.732724667,31.07421,-9.390957,44.93494,-0.9489036,-0.5454941,0.2029147,45.98608,-6.294529,13.48944,1008.313
12.764897346,37.52439,-17.61767,11.34965,-0.9749953,-0.4605022,0.1927729,45.2334,-10.08944,13.9582,1008.317
12.799544334,23.88685,-22.2341,-24.50326,-0.976758,-0.3863342,0.1794228,44.85495,-10.84634,13.96385,1008.317
12.831716061,5.457722,-23.71373,-55.45321,-1.00949,-0.3368809,0.151216,44.85495,-10.84634,13.96385,1008.317
12.866363525,-18.86872,-24.06884,-82.35822,-0.9776745,-0.3142236,0.1515879,45.22737,-10.47626,13.51378,1008.319
12.898531914,-31.46196,-25.43009,-99.396,-0.962799,-0.3711058,0.1490521,46.3454,-8.22262,12.15797,1008.319
12.933179378,-6.951221,-27.79749,-109.3858,-0.9732524,-0.4287864,0.1525301,46.3454,-8.22262,12.15797,1008.319
12.965351105,18.41954,-30.28327,-116.1887,-1.016662,-0.4280673,0.1548691,46.71332,-5.952558,11.25231,1008.319
12.999998093,41.88596,-33.3017,-120.2949,-1.036317,-0.463877,0.1562033,47.08253,-1.776827,10.33735,1008.321
13.032170773,45.01891,-35.78748,-119.5594,-1.017286,-0.4035636,0.1849609,47.08253,-1.776827,10.33735,1008.321
13.066818237,55.03207,-37.03036,-113.6759,-0.9917015,-0.4208712,0.1599976,47.82503,2.833318,9.035753,1008.319
13.098986149,72.90832,-32.41393,-105.586,-0.9683987,-0.4051771,0.1960595,47.42181,8.146131,6.780233,1008.319
13.133633137,68.66962,-28.86283,-93.88017,-0.9684258,-0.4013705,0.249111,47.42181,8.146131,6.780233,1008.319
13.165805817,69.46821,-23.35862,-78.00684,-0.9815137,-0.3920373,0.2550941,46.64642,13.47,4.972929,1008.319
13.200452328,71.98686,-19.39322,-58.39498,-0.9534614,-0.375519,0.2752125,45.87082,17.27014,3.23682,1008.319
13.232625008,71.6797,-13.71146,-38.72185,-0.9241461,-0.3335988,0.3172185,45.87082,17.27014,3.23682,1008.319
13.267271996,58.77932,-9.686882,-17.94555,-0.8904387,-0.303306,0.3648717,44.70992,19.92576,0.9981937,1008.319
13.299440384,45.01891,-4.656156,7.182132,-0.9751914,-0.2408435,0.3536454,43.18211,21.83584,-0.3422184,1008.317
13.331612587,25.97548,-3.590826,29.85833,-0.8881437,-0.2183792,0.3645864,43.18211,21.83584,-0.3422184,1008.317
13.366259575,-1.975358,2.327675,47.63157,-0.8729532,-0.1579512,0.3427708,43.54405,22.5765,-1.622959,1008.317
13.398432255,-19.85161,7.595142,56.08918,-0.7644123,-0.1853443,0.3222522,44.29916,21.42236,-1.621244,1008.317
13.433078766,-47.37243,16.17697,55.78274,-0.6722022,-0.1326661,0.3521921,44.29916,21.42236,-1.621244,1008.315
13.465251446,-48.29389,17.41986,51.98295,-0.6651097,-0.2585999,0.3279517,45.065,20.27878,-0.7907238,1008.315
13.499894619,-25.19605,14.69734,54.43443,-0.7872235,-0.1996242,0.3440374,46.20883,17.98724,0.1072006,1008.315
13.532066345,-28.69759,4.695076,61.54372,-0.8809598,-0.1615154,0.3789661,46.20883,17.98724,0.1072006,1008.315
13.566713810,-39.32505,-5.484746,69.32717,-0.9104257,-0.1267224,0.340004,46.98101,16.46903,1.449617,1008.315
13.598886013,-60.0271,-12.88287,75.82359,-1.009057,-0.1238291,0.2739502,47.73509,13.79036,1.458776,1008.315
13.633533478,-75.63042,-11.93591,75.02686,-1.032207,-0.1510274,0.319732,48.86712,11.10632,1.466,1008.315
13.665705204,-90.80373,-8.088886,71.65607,-1.00739,-0.1579854,0.314623,48.86712,11.10632,1.466,1008.314
13.700348377,-98.48254,-2.998976,67.97886,-0.941818,-0.1832536,0.2901849,49.62619,7.289931,1.927019,1008.312
13.732521057,-97.56108,4.872631,70.18519,-0.8976215,-0.2228351,0.2841442,49.62439,4.621997,1.940044,1008.312
13.767168045,-94.85815,10.25847,77.11063,-0.8604054,-0.2519166,0.3134412,49.62439,4.621997,1.940044,1008.31
13.799340248,-79.68483,13.15853,85.56823,-0.8578057,-0.3136429,0.304232,50.01157,1.197797,2.847418,1008.31
13.833987236,-44.60807,15.88104,92.67753,-0.8690673,-0.3513399,0.3180043,50.38138,-2.306981,2.416262,1008.312
13.866159916,-19.97447,18.72193,94.7,-0.8917283,-0.3263141,0.3386661,50.38138,-2.306981,2.416262,1008.312
13.898327827,-13.83143,21.68118,92.61624,-0.8987097,-0.2984065,0.3654712,50.39088,-5.344678,3.323708,1008.312
13.932974815,-10.57561,23.33836,85.01665,-0.9256064,-0.333142,0.3755578,48.50305,-9.886566,3.738234,1008.314
13.965147495,-3.879701,23.98939,72.5141,-0.9382405,-0.3301287,0.3805206,48.50305,-9.886566,3.738234,1008.314
13.999794006,-0.4395975,22.50977,54.67958,-0.9014957,-0.3287277,0.3970592,48.12914,-13.68604,4.268808,1008.314
14.031966686,-4.309714,21.08932,36.35476,-0.883499,-0.3172654,0.3844538,47.01003,-16.32162,5.562723,1008.308
14.066613674,-10.82134,19.01785,16.62033,-0.8737519,-0.3192599,0.3838644,47.01003,-16.32162,5.562723,1008.312
14.098781586,-6.582639,16.88719,-2.010921,-0.8736138,-0.3500453,0.3570993,46.63658,-18.21624,6.020243,1008.312
14.133429050,4.904848,17.06474,-19.84544,-0.8759639,-0.3156181,0.3511391,45.89122,-19.71866,6.924114,1008.31
14.165601254,1.956189,17.18312,-34.12532,-0.9183871,-0.3231149,0.3587031,45.89122,-19.71866,6.924114,1008.31
14.200248718,5.642013,17.89334,-47.79233,-0.9486042,-0.3132582,0.3585844,46.65314,-19.34258,7.364664,1008.311
14.232420445,15.59374,18.89948,-59.37558,-0.9845206,-0.3278547,0.3308432,46.28779,-17.80131,8.251719,1008.311
14.267067909,24.62401,24.22613,-64.83012,-1.188781,-0.3135926,0.3492547,46.28779,-17.80131,8.251719,1008.311
14.299236298,26.40549,12.92179,-68.81378,-1.441667,-0.3347513,0.4637458,47.81156,-15.90656,9.063486,1008.311
14.333883286,46.67753,5.109371,-78.25198,-1.303017,-0.3207658,0.2895296,48.5921,-13.60776,10.83357,1008.311
14.366055489,46.73896,-4.656156,-93.32859,-1.18046,-0.2066674,0.1842508,48.5921,-13.60776,10.83357,1008.311
14.398227692,33.96143,-7.023556,-110.6115,-0.9887322,-0.1849786,0.2250565,49.734,-10.18797,11.25731,1008.311
14.432875157,12.15364,-12.46858,-122.8076,-1.068953,-0.1547725,0.1879761,50.11477,-6.000874,11.23491,1008.311
14.465046883,5.089139,-18.15034,-127.7106,-1.008602,-0.2146602,0.1396833,50.11477,-6.000874,11.23491,1008.311
14.499690056,29.59987,-19.03811,-120.6626,-1.018122,-0.2288635,0.117001,50.49054,-0.6760583,10.76064,1008.311
14.531862736,36.60294,-26.67298,-109.5696,-1.080698,-0.1614768,0.1292265,50.86634,4.712279,10.28607,1008.311
14.566509247,30.02989,-31.11186,-94.6769,-1.010216,-0.1412867,0.0863193,50.86634,4.712279,10.28607,1008.311
14.598681927,24.50115,-30.46082,-75.98436,-0.9683093,-0.1589217,0.02938894,50.1036,10.42946,9.433214,1008.311
14.633328915,24.8083,-27.85668,-52.94044,-0.9722362,-0.1802003,0.03696216,48.56604,14.99611,7.187218,1008.311
14.665501118,23.08825,-20.04426,-32.89958,-0.8878458,-0.1956399,0.04038542,48.56604,14.99611,7.187218,1008.311
14.700144291,16.76092,-9.450142,-8.139623,-0.9101412,-0.1992584,0.0603256,48.16704,18.02781,5.389143,1008.311
14.732316494,13.75083,-3.650011,8.653022,-0.7987658,-0.2780468,0.1116568,47.02873,19.9439,4.939362,1008.311
14.766963959,24.50115,3.037895,21.89102,-0.9270133,-0.2990836,0.133406,47.02899,20.32503,4.937502,1008.313
14.799135685,18.23525,1.08479,29.73576,-0.9724095,-0.2640901,0.17316,47.02899,20.32503,4.937502,1008.313
14.833843708,-0.9924712,0.1378301,37.76436,-0.9576045,-0.2117498,0.1093475,46.64476,19.56245,4.496876,1008.313
14.866015434,-16.90295,3.333821,47.938,-0.9521239,-0.1927773,0.05546878,48.15625,19.15984,4.491001,1008.315
14.900658607,-40.00079,10.67276,61.176,-0.9352749,-0.2027809,0.09089705,48.15625,19.15984,4.491001,1008.315
14.932831287,-56.70986,17.6566,76.49775,-0.9892721,-0.2250848,0.122065,48.54421,16.87904,5.392792,1008.317
14.965003014,-59.53566,18.54437,91.26792,-1.029623,-0.3214211,0.1288773,49.68174,13.81955,5.848158,1008.313
14.999650478,-32.87486,20.61584,106.0381,-1.051225,-0.3533488,0.1288157,49.68174,13.81955,5.848158,1008.317
15.031822681,-11.98851,25.11391,115.5989,-1.087048,-0.334048,0.153891,50.07444,10.0199,7.203672,1008.313
15.066469193,2.07905,30.91404,115.7827,-1.089381,-0.2252475,0.2883236,50.46663,5.457987,8.56291,1008.313
15.098638058,-37.91215,23.69347,105.7929,-1.067882,-0.3042253,0.4460497,50.46663,5.457987,8.56291,1008.313
15.133285046,-35.08635,8.778842,92.92268,-1.023429,-0.4150671,0.3888092,50.84639,0.8203678,8.966141,1008.313
15.165457249,-10.1456,-0.6315751,84.09734,-1.01548,-0.3980153,0.3392296,50.84883,-4.128683,9.436613,1008.318
15.200104237,5.089139,-8.858292,74.72043,-1.055629,-0.3331402,0.2919392,50.84883,-4.128683,9.436613,1008.318
15.232276917,13.87369,-14.89516,63.38233,-0.9957563,-0.3480822,0.2811353,50.47358,-8.691231,9.907154,1008.318
15.266923904,13.62797,-19.98507,44.01563,-0.9885911,-0.323151,0.308748,50.08228,-11.36517,9.029552,1008.318
15.299091816,-0.8696104,-24.18721,19.43954,-0.9305708,-0.3017626,0.3503169,50.08228,-11.36517,9.029552,1008.318
15.333739281,-26.91611,-28.15261,-8.875067,-0.9170346,-0.291308,0.3300328,48.94667,-14.017,9.04838,1008.318
15.365911484,-44.17805,-29.57305,-32.53186,-0.9252647,-0.2829489,0.2757125,48.91809,-14.80688,6.884453,1008.318
15.400557995,-50.07537,-29.7506,-52.94044,-0.9499134,-0.3004627,0.2545902,48.91809,-14.80688,6.884453,1008.318
15.432730675,-46.63527,-26.85053,-65.74943,-0.9389706,-0.3056096,0.2235977,49.65085,-14.84035,5.095463,1008.318
15.467378140,-35.08635,-21.58307,-75.12634,-0.9300159,-0.3146484,0.1901816,50.39177,-12.58053,3.805344,1008.314
15.499546528,-16.53436,-15.96049,-80.09059,-0.9124171,-0.3127733,0.1929249,50.39177,-12.58053,3.805344,1008.316
15.531718254,-0.009584576,-8.739922,-83.64524,-0.9210825,-0.3126218,0.206985,51.13186,-10.32152,2.451469,1008.316
15.566365719,9.4507,-3.058161,-85.729,-0.9263105,-0.2984444,0.2167906,51.50634,-6.902373,1.986507,1008.316
15.598537922,22.71967,1.91338,-82.48079,-0.9496036,-0.2740308,0.2205832,51.50634,-6.902373,1.986507,1008.316
15.633184433,37.34011,7.240032,-76.90366,-0.9200846,-0.2744421,0.2492244,52.27005,-3.858357,2.414034,1008.316
15.665357113,56.81355,11.02787,-68.69121,-0.9194939,-0.2994967,0.2735943,51.517,0.3448484,2.397434,1008.314
15.700000286,70.14394,13.15853,-58.02726,-0.9118057,-0.2406864,0.2889493,51.52488,3.463124,2.828518,1008.314
15.732172489,75.42696,14.40142,-47.54718,-0.9394203,-0.1953934,0.2910264,51.52488,3.463124,2.828518,1008.314
15.766819477,62.71087,15.6443,-36.94452,-0.881105,-0.1335631,0.290028,51.14925,6.898694,2.813705,1008.314
15.798992157,39.67446,17.00556,-25.17742,-0.8859043,-0.1131557,0.289759,50.77863,9.196548,3.250755,1008.314
15.833639145,9.819283,14.99327,-13.22645,-0.8785008,-0.1329423,0.3092888,50.77863,9.196548,3.250755,1008.314
15.865811348,2.877645,12.92179,-0.2948842,-0.8733292,-0.1558752,0.2970015,50.39569,10.33963,2.800825,1008.31
15.900454521,-6.644069,9.133952,12.82054,-0.8890345,-0.1670012,0.2917543,50.40725,10.351,3.693388,1008.31
15.932626724,-18.19299,7.595142,25.99725,-0.881292,-0.170968,0.2858654,50.40725,10.351,3.693388,1008.312
15.967273235,-29.7419,6.766551,39.35782,-0.9087436,-0.2072126,0.2887147,50.41303,10.35669,4.139668,1008.312
15.999445915,-28.329,8.186992,50.81849,-0.9170989,-0.2246339,0.2900951,50.04503,9.229213,4.975992,1008.312
16.031618595,-33.79631,9.370692,60.25669,-0.9243871,-0.2376251,0.300178,50.04503,9.229213,4.975992,1008.312
16.066265583,-31.1548,11.3238,68.34658,-0.9250745,-0.269236,0.2917298,51.17757,7.30744,4.979494,1008.312
16.098433495,-23.16885,12.38913,73.73984,-0.9416677,-0.2952676,0.304202,51.18759,5.032008,5.883219,1008.312
16.133080959,-14.26144,12.80342,76.62032,-0.9375907,-0.3091531,0.3315234,51.18759,5.032008,5.883219,1008.31
16.165253162,-4.739727,11.38298,76.98804,-0.9673715,-0.32159,0.3360368,51.57477,1.607808,6.790594,1008.31
16.199900150,1.587606,9.252322,72.69796,-0.9809209,-0.3136809,0.3458685,51.18895,-1.505099,6.361443,1008.309
16.232072353,2.570493,7.062477,64.24035,-0.9794613,-0.3088565,0.3430026,51.18895,-1.505099,6.361443,1008.309
16.266719818,-0.3781671,4.162411,51.06364,-0.9688123,-0.2964161,0.3266178,51.19793,-5.305064,7.27261,1008.309
16.298887730,-3.81827,1.617455,36.66119,-0.9634815,-0.2935751,0.3208075,50.81241,-7.973316,6.84129,1008.309
16.333534718,-11.74279,-1.16424,19.25568,-0.9410018,-0.2786669,0.3173466,50.81241,-7.973316,6.84129,1008.309
16.365707398,-19.60589,-3.294901,4.056494,-0.9532899,-0.2806208,0.3078052,50.82295,-9.486481,7.741295,1008.31
16.400354385,-25.87179,-6.490891,-11.87813,-0.950771,-0.2810447,0.3174182,50.43267,-10.63588,6.856249,1008.31
16.432526589,-27.77613,-7.437851,-25.54514,-0.9446383,-0.2909397,0.2970354,50.43267,-10.63588,6.856249,1008.31
16.467173576,-27.1004,-8.207256,-37.0671,-0.93983,-0.2886112,0.2873698,50.42716,-10.26043,6.408108,1008.31
16.499341965,-19.42159,-7.201111,-45.58599,-0.947722,-0.2992875,0.2825354,50.79983,-9.50922,5.956173,1008.31
16.533988476,-10.1456,-6.727632,-52.75658,-0.9515837,-0.2852062,0.2807595,50.79983,-9.50922,5.956173,1008.31
16.566161156,-5.169739,-5.780671,-57.29182,-0.9456637,-0.2774398,0.2846243,51.17828,-8.752321,5.950518,1008.312
16.598333836,-0.5010279,-5.070451,-59.19171,-0.9553303,-0.2569967,0.285847,51.54621,-6.482258,5.044857,1008.312
16.632980347,2.816215,-4.656156,-57.72083,-0.9445088,-0.2410143,0.2882878,51.54621,-6.482258,5.044857,1008.314
16.665153027,4.044823,-3.768381,-54.22746,-0.9362037,-0.2357279,0.2868079,51.92543,-4.581958,5.033619,1008.314
16.699796200,6.809191,-2.643866,-47.79233,-0.931383,-0.2382238,0.2809584,51.55534,-1.521837,5.466948,1008.314
16.731968403,9.143548,-1.40098,-40.98947,-0.9090083,-0.236951,0.2716021,51.55534,-1.521837,5.466948,1008.316
16.766615391,10.98646,-0.6315751,-31.48998,-0.9045318,-0.2262575,0.2764685,52.30727,1.193198,5.003464,1008.314
16.798787594,12.52222,0.2562001,-22.4195,-0.9108163,-0.2266555,0.2837538,51.17448,2.733837,5.001823,1008.314
16.833435059,12.70651,0.07864505,-12.06199,-0.9084114,-0.2204131,0.2765528,51.54768,4.247318,4.546165,1008.316
16.865606785,10.74074,0.07864505,-2.991513,-0.9087944,-0.2077423,0.2829269,51.54768,4.247318,4.546165,1008.32
16.900249958,5.887735,-0.33565,5.466096,-0.9083138,-0.2222586,0.2890687,51.17133,5.396899,4.606272,1008.32
16.932422638,1.649037,-0.5132051,11.77866,-0.9014748,-0.2135818,0.2857024,51.54845,5.390718,4.540583,1008.321
16.967069626,-0.9310408,-0.6907601,17.78479,-0.8991439,-0.2291674,0.2802502,51.54845,5.390718,4.540583,1008.323
16.999241829,-4.494005,-1.460165,22.19745,-0.92392,-0.2250738,0.2916011,51.55397,5.015269,4.988726,1008.323
17.033888817,-10.88277,-3.650011,25.38438,-0.9263943,-0.2255764,0.287764,51.16948,3.871553,4.549959,1008.323
17.066061497,-15.61291,-4.301046,27.1617,-0.924688,-0.2311288,0.2611924,51.16948,3.871553,4.549959,1008.323
17.098229408,-21.26451,-4.301046,27.77457,-0.9211805,-0.2392832,0.2760344,51.54196,3.099045,4.16922,1008.323
17.132876396,-27.59184,-4.064306,27.22299,-0.9241264,-0.2426699,0.275552,51.54614,1.960517,4.557329,1008.323
17.165049076,-33.55059,-3.886751,26.42626,-0.9169027,-0.241343,0.2634455,51.54614,1.960517,4.557329,1008.321
17.199695587,-36.9907,-2.466311,26.11982,-0.9038309,-0.2526252,0.2564825,51.53929,0.3667758,4.118801,1008.32
17.231868267,-35.39351,-1.51935,26.97784,-0.9170334,-0.2661239,0.2598684,51.53357,-0.7814975,3.741859,1008.32
17.266515255,-37.42071,-0.276465,27.1617,-0.9190395,-0.2772855,0.2588311,51.53357,-0.7814975,3.741859,1008.321
17.298683167,-31.33909,1.4399,26.54883,-0.9139468,-0.3046424,0.2392781,51.53749,-2.301159,4.131826,1008.32
17.333341122,-24.45889,4.517521,26.05854,-0.910843,-0.2933749,0.254766,51.15382,-3.444064,3.756819,1008.32
17.365513802,-21.26451,6.352256,25.99725,-0.9213627,-0.2911908,0.2794642,51.15382,-3.444064,3.756819,1008.32
17.400160790,-20.15876,5.997147,24.89408,-0.9189515,-0.2902619,0.2755933,51.15196,-4.969409,3.700506,1008.32
17.432332516,-15.7972,5.819592,22.56518,-0.9223979,-0.2859204,0.2698773,51.15202,-6.111998,3.769844,1008.32
17.466979981,-18.68443,5.701221,18.45894,-0.9114996,-0.260197,0.2767357,51.15202,-6.111998,3.769844,1008.318
17.499148369,-26.3018,6.707366,15.21073,-0.914632,-0.2695562,0.2569258,51.15151,-6.874265,3.773565,1008.318
17.533794880,-26.67038,8.660472,12.88183,-0.9142471,-0.2807744,0.2500817,51.53915,-8.39361,4.60788,1008.318
17.565967560,-24.45889,11.79728,13.12697,-0.9339823,-0.2871597,0.2275592,51.53915,-8.39361,4.60788,1008.316
17.600615025,-22.12453,17.00556,14.35271,-0.8845194,-0.2944611,0.1937795,51.9061,-8.790668,3.779001,1008.316
17.632787228,-5.415461,25.5282,15.33331,-0.8010265,-0.3257449,0.1561106,51.16095,-8.769375,4.611675,1008.318
17.664959431,22.04393,32.98551,18.27508,-0.8007936,-0.3497116,0.1954348,51.16095,-8.769375,4.611675,1008.32
17.699602604,56.87498,36.24068,24.46507,-0.8976734,-0.3814183,0.2384933,51.17725,-10.27686,5.95796,1008.324
17.731774807,86.423,32.92632,30.04219,-1.023052,-0.3667392,0.2359283,50.81614,-11.0167,7.302456,1008.32
17.766421318,105.7122,26.59353,32.12595,-1.106768,-0.3419069,0.1920882,50.81614,-11.0167,7.302456,1008.321
17.798593998,115.1724,22.33221,28.81645,-1.0814,-0.3004536,0.1709853,50.08755,-12.12175,9.479555,1008.321
17.833241463,105.0364,19.96481,19.25568,-1.010412,-0.2507889,0.1741063,49.36056,-12.08259,11.71482,1008.321
17.865413189,91.95174,19.72807,9.143317,-0.9820685,-0.2668139,0.1284018,49.36056,-12.08259,11.71482,1008.321
17.900056362,69.83679,11.20543,-1.643199,-1.054721,-0.2890523,0.03008645,49.38368,-12.05985,13.49995,1008.32
17.932229042,104.6064,23.69347,-8.20091,-1.001189,-0.3720688,-0.06364135,48.64482,-11.2706,14.77518,1008.32
17.966876030,130.9601,35.58965,-19.72287,-1.019504,-0.2406462,-0.2161448,48.29076,-10.09909,16.55666,1008.32
17.999047756,143.9219,40.79793,-30.99968,-1.008513,-0.2699658,-0.1716632,48.29076,-10.09909,16.55666,1008.32
18.033695221,177.8315,40.79793,-42.15392,-1.080591,-0.2274415,-0.1166561,48.32037,-7.78468,18.71314,1008.32
18.065867901,171.6884,33.51817,-53.79845,-1.100932,-0.1246822,-0.1479131,47.58992,-4.321002,20.48539,1008.32
18.100510120,143.2461,28.19153,-61.88834,-1.062315,-0.1117203,-0.2045605,47.58992,-4.321002,20.48539,1008.321
18.132682800,112.7152,27.30375,-65.93329,-1.064624,-0.1202936,-0.1848477,47.61719,1.863395,22.24043,1008.321
18.167330265,102.8249,28.25071,-63.60438,-1.057943,-0.15093,-0.1880546,46.49223,6.458788,22.67018,1008.321
18.199501991,96.62045,27.30375,-57.29182,-0.9955024,-0.1382417,-0.1388866,46.49223,6.458788,22.67018,1008.321
18.231674671,90.47741,26.29761,-45.27956,-0.9759699,-0.1426791,-0.1352495,44.98382,11.435,22.65372,1008.323
18.266321659,83.53577,23.21999,-30.32553,-0.9557931,-0.1397235,-0.1166154,44.23051,15.25707,22.63898,1008.321
18.298489571,74.75123,19.07704,-16.59723,-0.9319701,-0.1529793,-0.120803,44.23051,15.25707,22.63898,1008.321
18.333136559,66.64241,15.70349,-1.152903,-0.9231403,-0.1505633,-0.1165275,42.70399,19.07282,21.28927,1008.321
18.365309239,64.12376,13.33609,11.83995,-0.9388089,-0.1674586,-0.1145926,41.57172,21.37573,21.28391,1008.323
18.399956703,74.19836,9.903358,23.97478,-0.9675431,-0.2117517,-0.08625162,41.57172,21.37573,21.28391,1008.323
18.432128430,80.77141,3.274636,30.28734,-1.03214,-0.2227562,-0.04428763,41.93366,22.11638,20.00317,1008.323
18.466775417,80.83284,-8.799107,30.34863,-1.073265,-0.2449183,-0.04938859,42.28849,22.08828,18.21611,1008.323
18.498944283,84.94868,-17.44012,28.32616,-1.138243,-0.2296732,-0.06552657,42.28849,22.08828,18.21611,1008.323
18.533591271,83.90436,-26.61379,25.2618,-1.104777,-0.2020179,-0.04536688,42.27219,23.59576,16.86982,1008.325
18.565763474,79.11279,-29.63223,22.9329,-1.032793,-0.2432142,-0.05409017,42.99422,23.55172,14.25203,1008.323
18.600410462,75.73412,-30.57919,17.96865,-1.03282,-0.3220601,-0.01907198,42.99422,23.55172,14.25203,1008.323
18.632583141,81.01713,-37.56303,15.57845,-1.112438,-0.3633575,0.05025641,43.33223,24.26883,11.12241,1008.321
18.667229652,97.84906,-37.44466,-1.459338,-0.8725616,-0.4735129,0.01915401,44.42591,23.45147,8.060116,1008.323
18.699398041,112.2852,-28.27098,-16.90367,-0.7771612,-0.4142497,-0.03908753,44.42591,23.45147,8.060116,1008.323
18.731570721,111.1795,-15.60538,-32.53186,-0.7191306,-0.3972039,0.005819458,44.00252,24.55476,4.486223,1008.325
18.766217232,112.6538,0.8480502,-47.30203,-0.7440363,-0.4092233,0.0676487,43.95738,24.89123,0.9778709,1008.319
18.798389912,104.2993,14.16468,-56.98538,-0.8281958,-0.4138462,0.04333191,43.95738,24.89123,0.9778709,1008.319
18.833036900,107.0022,26.65272,-61.1529,-0.9064972,-0.4697546,0.04408363,42.41776,26.40881,-1.25324,1008.319
18.865208626,125.4928,37.60194,-63.17537,-0.9892396,-0.5131128,0.03293026,41.62881,27.52965,-3.868883,1008.319
18.899851799,167.0811,41.56734,-70.83625,-1.04801,-0.7581091,0.01025091,41.62881,27.52965,-3.868883,1008.321
18.932024479,350.7581,70.03533,-80.94861,-0.9823743,-0.856077,-0.3782148,40.09548,29.81519,-5.657434,1008.321
18.966671944,422.5088,65.53727,-93.69631,-1.198223,-0.1272279,-0.2260742,38.52754,30.92403,-10.05433,1008.321
18.998843670,295.655,49.02465,-108.7116,-1.166921,0.07845656,0.03127117,36.91374,30.08334,-17.88466,1008.32
19.033490658,194.0491,28.72419,-106.8117,-1.059635,-0.002897952,0.06189334,36.91374,30.08334,-17.88466,1008.321
19.065663338,133.7244,19.90563,-97.92512,-0.9621052,0.006225513,0.04900852,34.581,27.76622,-22.77098,1008.321
19.100306034,74.38264,19.72807,-86.83216,-0.9038184,-0.002050299,0.02044045,33.02332,26.98076,-26.26602,1008.32
19.132478714,42.56169,14.8749,-72.491,-0.8645797,-0.03498317,0.1181307,33.02332,26.98076,-26.26602,1008.32
19.167125702,10.67931,17.59741,-51.71469,-0.8963649,0.02165484,0.1410662,31.12207,26.99623,-27.14891,1008.32
19.199297428,-34.04203,13.92794,-31.79641,-0.8644683,-0.02666128,0.1273563,29.22133,27.77397,-28.03552,1008.32
19.233944893,-67.21445,18.18926,-12.00071,-0.843586,-0.0881962,0.02880821,29.22133,27.77397,-28.03552,1008.32
19.266117573,-71.88317,16.828,9.327179,-0.8200377,-0.05966866,0.02978767,28.42661,29.33288,-26.25365,1008.32
19.298285008,-85.88931,23.87102,36.47733,-0.7923864,0.07730246,0.06006082,28.52529,30.89063,-23.58373,1008.32
19.332932472,-80.54486,31.20996,60.62442,-0.9704779,-0.1281607,-0.01130718,28.52529,30.89063,-23.58373,1008.321
19.365105152,-61.31714,33.45899,75.63973,-0.9709594,-0.143664,0.05508544,29.69925,31.67577,-20.53305,1008.321
19.399752140,-66.84588,41.38978,91.20663,-1.112554,-0.1338425,0.04154564,31.63377,32.07392,-17.10184,1008.321
19.431923866,-58.18419,42.15919,121.3599,-1.383104,-0.2501902,0.07444093,31.63377,32.07392,-17.10184,1008.321
19.466571331,-47.24957,31.50589,130.6142,-1.41607,-0.4644573,0.08792409,34.68541,30.91599,-14.88033,1008.321
19.498739720,-53.14689,31.62426,110.3282,-1.331799,-0.5655218,0.002436659,38.1137,27.84703,-12.65144,1008.321
19.533386231,-12.47996,32.6304,74.65914,-1.074888,-0.6066909,-0.009457966,38.1137,27.84703,-12.65144,1008.321
19.565558911,63.07945,33.75491,36.84505,-0.8406364,-0.5730988,0.09178105,41.16874,24.40718,-10.03624,1008.321
19.600205898,75.67268,28.01397,3.93392,-0.8114827,-0.4292925,0.06522059,43.06242,21.71809,-9.5866,1008.321
19.632378101,48.09043,15.82186,-21.62277,-0.883423,-0.5461091,0.03938285,43.06242,21.71809,-9.5866,1008.321
19.667025089,56.19924,2.209305,-47.30203,-0.9671277,-0.6455069,-0.001143495,44.57315,20.17208,-9.586893,1008.317
19.699193954,77.82275,-4.537786,-62.50121,-1.027487,-0.5695563,-0.135878,44.56134,19.77958,-10.47759,1008.317
19.733840942,103.3164,-5.721486,-74.45219,-1.090096,-0.5848157,-0.2038635,44.56134,19.77958,-10.47759,1008.319
19.766012669,141.649,-5.366376,-84.93227,-1.100575,-0.5883972,-0.1715013,42.26692,21.68984,-12.64294,1008.319
19.798185348,163.5796,-8.680737,-94.98334,-1.129477,-0.4704382,-0.1254332,40.73834,22.45653,-13.97777,1008.319
19.832832813,155.1022,-12.94206,-102.7055,-1.045463,-0.4036049,-0.09048019,40.73834,22.45653,-13.97777,1008.321
19.865004539,127.1514,-16.01968,-103.0119,-0.981831,-0.3824676,-0.07788569,37.65947,23.58765,-18.30318,1008.321
19.899647713,108.2922,-22.94432,-96.39294,-1.050504,-0.4332621,-0.03717571,33.83988,23.98268,-21.40967,1008.321
19.931820393,96.80475,-35.07726,-88.05791,-1.004216,-0.4669611,0.02863049,33.83988,23.98268,-21.40967,1008.321
19.966466904,91.52173,-45.25708,-75.37149,-0.9932161,-0.477859,0.007230029,31.53262,23.9759,-24.45827,1008.321
19.998639107,99.56911,-54.31239,-59.68201,-0.98192,-0.4778491,0.0158007,27.66109,23.62093,-26.66815,1008.319
20.033286572,110.5652,-64.4922,-39.94759,-1.032187,-0.4268647,0.04898402,24.23079,22.49823,-28.81281,1008.321
20.065458298,104.1764,-61.47377,-22.23564,-1.02638,-0.3848681,0.02276609,24.23079,22.49823,-28.81281,1008.321
20.100101471,77.14701,-53.18787,-1.336764,-1.07246,-0.293994,0.07021719,21.54952,20.97717,-31.46952,1008.321
20.132274151,35.06718,-46.79589,13.43341,-1.032083,-0.2696859,0.1013708,20.00841,19.06536,-33.62012,1008.321
20.166921616,10.55645,-35.01807,28.63259,-0.9545627,-0.2996703,0.1654702,20.00841,19.06536,-33.62012,1008.323
20.199093342,-12.04994,-20.81366,48.12186,-1.039454,-0.2353993,0.1369082,18.86252,18.30783,-34.50317,1008.324
20.233740330,-28.02185,-9.095032,56.88591,-0.8537242,-0.3022293,0.08738825,18.85096,18.29646,-35.39573,1008.326
20.265913010,-31.1548,5.819592,62.46303,-0.8729795,-0.1984081,0.06866185,18.85096,18.29646,-35.39573,1008.324
20.300559521,-26.85468,15.23001,52.77968,-0.653565,-0.2016367,0.1061118,19.61288,18.67254,-34.95518,1008.32
20.332727909,-28.39043,29.84871,49.16374,-0.7265111,-0.07245114,0.1319575,20.75196,17.89985,-34.51097,1008.32
20.399547100,-61.87001,23.10162,55.53759,-0.9061257,-0.05142845,0.3507066,22.65843,18.27039,-33.24742,1008.322
20.431719780,-80.17628,9.784987,68.40787,-0.9490908,-0.08512199,0.4226476,24.94366,18.63636,-31.92204,1008.322
20.466366768,-70.5317,2.50523,79.50082,-1.005939,-0.1821453,0.2666924,24.94366,18.63636,-31.92204,1008.322
20.498538971,-65.49441,1.08479,87.77457,-0.9518617,-0.1477165,0.2973195,26.09558,19.78071,-30.59458,1008.322
20.533182144,-67.33732,6.588996,93.59683,-0.8946192,-0.1077673,0.3535087,27.68766,19.7754,-29.2638,1008.32
20.565354347,-64.51152,-9.035847,100.1545,-0.9699674,-0.2189436,0.6164669,27.68766,19.7754,-29.2638,1008.322
20.600001812,-55.97269,-22.05655,109.5927,-0.9103931,-0.1224901,0.5742903,29.58815,18.61653,-28.37532,1008.318
20.632173538,-100.8169,-28.80364,113.4538,-0.903847,-0.1898507,0.3403861,31.47758,18.20855,-28.38313,1008.32
20.666821003,-98.29825,-22.88514,115.415,-0.8196672,-0.3292381,0.3206176,31.47758,18.20855,-28.38313,1008.32
20.698993206,-91.35661,-10.27873,114.7409,-0.8857911,-0.3741427,0.3714743,32.62689,16.68415,-27.1064,1008.32
20.733635902,-85.39786,-6.135781,103.2189,-0.9944078,-0.5271523,0.4121963,34.14416,16.28723,-26.666,1008.322
20.765808582,-49.76822,-6.490891,87.10041,-0.9651688,-0.6766828,0.3634548,34.14416,16.28723,-26.666,1008.323
20.800455570,14.73372,-0.6315751,67.42728,-0.9597663,-0.709486,0.2672161,35.67249,15.13941,-25.32931,1008.319
20.832627773,60.74509,5.760406,43.28019,-0.9620693,-0.60103,0.2310177,36.42733,13.60414,-25.32573,1008.321
20.864799976,68.66962,12.62587,13.18826,-0.9155418,-0.5469476,0.2247634,36.42733,13.60414,-25.32573,1008.321
20.899447441,67.99388,25.70576,-10.5911,-1.067387,-0.5153167,0.2004131,37.54202,10.90305,-26.65735,1008.323
20.931615353,69.0382,23.45673,-34.24789,-1.080829,-0.557676,0.3635871,37.93023,9.00338,-25.75742,1008.323
20.966262341,94.83897,21.62199,-68.75249,-1.04208,-0.5967829,0.2896393,37.93023,9.00338,-25.75742,1008.321
20.998435020,125.1242,13.6912,-115.6983,-0.9883954,-0.5525562,0.268777,38.31318,7.860295,-25.30749,1008.321
21.033081532,145.4576,1.735825,-164.1764,-1.157544,-0.3823344,0.2669386,38.68559,8.230375,-25.75757,1008.321
21.065254211,118.3668,-18.32789,-198.9874,-1.297526,-0.3100799,0.3570464,38.68559,8.230375,-25.75757,1008.319
21.099901199,81.01713,-35.60992,-223.7474,-1.530284,-0.3166468,0.3625381,37.54073,8.997378,-26.64805,1008.315
21.132069111,69.28392,-46.61833,-229.4471,-1.563367,-0.3844613,0.2331119,35.25833,12.82387,-27.99389,1008.315
21.166716576,88.6345,-52.06335,-228.4665,-1.575481,-0.4340935,0.2091978,30.68627,17.04178,-31.05136,1008.315
21.198888779,97.60334,-53.24706,-219.2734,-1.356754,-0.4249285,0.2168724,30.68627,17.04178,-31.05136,1008.314
21.233536243,124.5099,-58.27778,-203.6452,-1.258346,-0.4318934,0.2583126,25.30059,20.51473,-33.65464,1008.314
21.265707970,158.8495,-64.37383,-185.5043,-1.158268,-0.5134816,0.1280123,18.83543,20.94734,-36.74759,1008.314
21.300355434,235.0846,-72.71892,-147.2612,-1.029997,-0.2875028,0.1841084,18.83543,20.94734,-36.74759,1008.314
21.332548618,180.903,-78.87416,-114.5952,-0.9648167,-0.121375,0.3689935,13.49233,19.82875,-40.66771,1008.31
21.367195606,113.0838,-73.78425,-82.78722,-0.9693484,-0.2443067,0.4118843,8.907279,13.36923,-44.11936,1008.31
21.399368286,75.73412,-65.73509,-59.7433,-0.875857,-0.2294829,0.3802862,8.907279,13.36923,-44.11936,1008.31
21.431540012,51.40767,-57.15327,-40.62175,-0.8694332,-0.2859819,0.3590345,5.112468,7.694545,-44.96467,1008.311
21.466187477,43.23743,-43.65908,-23.3388,-0.8362329,-0.2349107,0.3943317,2.081117,4.68274,-45.38059,1008.311
21.498359680,25.11546,-32.05882,-7.342892,-0.8091507,-0.1738937,0.393618,2.081117,4.68274,-45.38059,1008.31
21.533002854,11.41647,-20.22181,11.41094,-0.7232227,-0.1588089,0.3910126,0.9399767,2.40636,-45.80991,1008.31
21.565175057,7.484926,-0.7499452,37.45792,-0.8158384,-0.05239012,0.4101061,-0.944459,1.67662,-45.35023,1008.31
21.599822045,-27.22326,24.46287,69.81747,-0.7133691,0.0002474571,0.4413958,-0.944459,1.67662,-45.35023,1008.31
21.631993771,-34.84063,51.33286,94.02584,-0.6885271,-0.05939675,0.4647723,-0.9392376,0.8565159,-44.89993,1008.307
21.666641235,-18.25442,73.11295,105.7929,-0.6905056,-0.06138286,0.5206863,-0.5607414,1.676937,-44.90589,1008.307
21.698813915,8.406383,84.35811,116.3956,-0.6666743,-0.01474323,0.6047164,-0.5607414,1.676937,-44.90589,1008.307
21.733457088,38.32299,98.26659,134.2301,-0.6856793,-0.03009861,0.6153711,2.463033,2.015122,-44.92323,1008.305
21.765629291,21.73678,103.534,151.7582,-0.7958244,0.02417935,0.7224042,5.492328,1.977859,-44.49241,1008.305
21.800276279,-21.01879,98.44414,160.6448,-0.7630436,-0.07652521,0.839358,5.492328,1.977859,-44.49241,1008.305
21.832448482,-34.10347,87.85002,155.0064,-0.9099233,-0.2701097,0.8179246,10.03179,-0.4312012,-44.05787,1008.303
21.867094994,-42.21228,71.3374,129.082,-0.8947126,-0.406476,0.8937784,13.44899,-1.606676,-42.7946,1008.305
21.899267673,-57.69275,51.27368,98.07079,-0.8111867,-0.3425415,0.930158,13.44899,-1.606676,-42.7946,1008.306
21.933910847,-77.71906,32.33447,66.56925,-0.653528,-0.3750945,0.7756248,16.10612,-1.632885,-41.91557,1008.308
21.966082573,-98.4211,22.03629,41.38029,-0.5839167,-0.3020949,0.7196651,18.38506,-2.03486,-41.03276,1008.308
21.998255253,-117.956,12.38913,18.82667,-0.5298071,-0.3338484,0.7280564,18.38506,-2.03486,-41.03276,1008.308
22.032902718,-94.05955,3.925671,-4.401115,-0.4469195,-0.4048518,0.6375278,19.89837,0.2304667,-41.05166,1008.305
22.065074444,-61.07141,3.984856,-19.47772,-0.4460406,-0.3343439,0.5918288,19.91202,3.354427,-40.17429,1008.305
22.099721432,-65.86299,6.293071,-33.02216,-0.4095945,-0.3008527,0.6153829,19.91202,3.354427,-40.17429,1008.305
22.131890297,-65.55584,9.252322,-41.54105,-0.4698203,-0.4070866,0.584703,19.91408,6.403494,-40.18918,1008.305
22.198709488,-29.86477,13.80957,-65.25913,-0.6265923,-0.4987099,0.4981686,19.9327,8.326216,-38.85964,1008.303
22.233356476,-27.59184,18.07089,-76.53594,-0.7089701,-0.3764309,0.5664613,19.18383,11.39089,-38.48813,1008.305
22.265528202,-72.55891,17.53823,-77.7004,-0.7182718,-0.2946888,0.52336,19.19693,13.68907,-37.60674,1008.305
22.300175667,-100.9398,21.32607,-64.03339,-0.8258596,-0.361059,0.4703148,17.70405,16.01439,-36.27132,1008.305
22.332344055,-104.1341,28.13234,-39.51858,-0.9605758,-0.428563,0.4416134,17.70405,16.01439,-36.27132,1008.307
22.366990566,-93.26096,26.17924,-12.36843,-1.109634,-0.5117182,0.5141366,17.3455,19.08589,-34.94543,1008.308
22.399163246,-71.20744,16.94637,-5.32042,-1.324237,-0.6081913,0.5167898,17.00398,22.93589,-32.34818,1008.31
22.433810234,-48.53961,4.872631,-9.794373,-1.246874,-0.4550463,0.4734685,17.00398,22.93589,-32.34818,1008.312
22.465982437,-69.24166,-0.6315751,-15.3102,-1.193523,-0.3212546,0.4856417,17.40002,24.09097,-31.01685,1008.314
22.498154640,-101.3698,-5.070451,-10.34596,-1.114638,-0.3343373,0.4134618,17.41864,26.01369,-29.68731,1008.314
22.532797814,-108.7414,-9.213402,-4.891411,-1.050586,-0.3953964,0.3415068,17.41864,26.01369,-29.68731,1008.315
22.564970017,-79.25482,-13.23798,-4.646263,-0.9802917,-0.3961706,0.2863786,16.69789,27.9634,-27.07882,1008.317
22.599617005,-57.26273,-20.51774,-2.133495,-0.9190636,-0.3130543,0.2151565,17.10627,30.27325,-24.86052,1008.319
22.631789684,-50.75111,-28.27098,6.507975,-0.9154356,-0.2867283,0.1695498,17.10627,30.27325,-24.86052,1008.319
22.666436195,-62.91433,-44.01419,20.42013,-0.9882933,-0.3531956,0.1263017,15.99081,31.83095,-23.52332,1008.319
22.698608875,-53.88406,-57.56756,31.8808,-1.066541,-0.4298107,0.08543025,15.62437,32.99028,-22.69816,1008.319
22.733252048,-68.13592,-73.07403,38.37723,-1.00371,-0.3876794,0.05048735,15.62437,32.99028,-22.69816,1008.319
22.765423775,-91.78662,-82.36607,47.44771,-0.9735634,-0.3332853,0.01113052,15.6367,34.14505,-21.81118,1008.321
22.800071239,-122.6247,-91.06628,58.3568,-0.9347069,-0.3853501,-0.04364522,16.03249,34.919,-20.47799,1008.317
22.832243442,-135.8936,-100.6542,67.97886,-0.9515975,-0.4764504,-0.03508066,16.03249,34.919,-20.47799,1008.317
22.866890907,-135.4636,-111.781,79.80725,-1.022012,-0.5308754,-0.02571431,16.44561,35.71001,-17.80596,1008.317
22.899062633,-145.7225,-121.4874,88.01971,-1.051247,-0.5190461,-0.08414793,17.62477,36.88116,-14.37461,1008.317
22.933705807,-154.1385,-124.3874,96.29346,-1.132588,-0.5319661,-0.1755573,17.62477,36.88116,-14.37461,1008.318
22.965878010,-149.8384,-129.2998,101.1964,-1.165109,-0.6278378,-0.1664043,19.17641,37.2798,-11.324,1008.318
23.000524998,-136.2008,-135.6918,109.0412,-1.21314,-0.5935307,-0.09144535,21.85088,37.27065,-9.106131,1008.318
23.032697678,-146.644,-142.9715,116.273,-1.204081,-0.5169197,-0.09571829,21.85088,37.27065,-9.106131,1008.318
23.064869404,-158.5,-144.5695,123.1372,-1.155001,-0.5018794,-0.1278642,24.52509,36.88036,-6.886404,1008.318
23.099516392,-155.8585,-139.4796,132.0238,-1.199612,-0.6062577,-0.1596384,27.18011,34.94766,-6.061831,1008.318
23.131685257,-141.6067,-131.5488,139.6847,-1.15851,-0.6237687,-0.1379943,27.18011,34.94766,-6.061831,1008.318
23.166331768,-146.214,-120.422,142.6264,-1.15759,-0.565796,-0.172711,31.03277,32.99879,-5.179626,1008.318
23.198504448,-139.4566,-106.7503,137.5396,-0.9817052,-0.5843357,-0.197641,34.04267,29.8954,-6.072772,1008.318
23.233151436,-141.6681,-78.93335,134.843,-0.7684413,-0.3925161,-0.1734676,37.44258,27.56028,-6.079013,1008.317
23.265323162,-187.188,-47.62448,133.8011,-0.6522057,-0.3403367,-0.129778,37.44258,27.56028,-6.079013,1008.317
23.299970627,-204.5114,-23.18106,135.9462,-0.5614037,-0.4587465,-0.06845958,39.34679,23.35802,-4.729372,1008.317
23.332139015,-182.4579,-6.609262,136.6203,-0.5100147,-0.575926,0.06409073,41.64126,20.30517,-2.494686,1008.319
23.366786480,-148.5483,7.772697,126.9983,-0.5950965,-0.6506876,0.1963361,41.64126,20.30517,-2.494686,1008.317
23.398958206,-85.09071,5.346111,111.7378,-0.7052687,-0.8149701,0.3478397,44.30629,16.09705,-0.7663879,1008.317
23.433605194,-26.36323,0.1378301,86.97784,-0.714343,-0.6682976,0.4166134,45.83204,11.1379,0.5889091,1008.311
23.465777397,-23.53743,-3.354086,65.46609,-0.6178739,-0.4944237,0.4301607,45.83204,11.1379,0.5889091,1008.311
23.500424385,-46.57384,-1.63772,47.75414,-0.7008155,-0.4620802,0.4167413,45.44575,7.326245,0.1631699,1008.311
23.532593250,-56.34127,1.143975,34.45486,-0.6460447,-0.4318193,0.4738376,46.57828,5.404472,0.1666718,1008.311
23.564764977,-72.43604,8.897212,24.89408,-0.6831748,-0.344185,0.4845465,46.57828,5.404472,0.1666718,1008.311
23.599411965,-87.97794,18.60356,14.59786,-0.7372183,-0.3674608,0.452565,45.83267,3.520912,1.072403,1008.31
23.631584644,-71.51459,24.58124,5.58867,-0.7930968,-0.3674094,0.4232028,46.21536,1.996694,1.524195,1008.311
23.666231155,-48.35532,27.06701,-7.097744,-0.851665,-0.3400467,0.4090329,46.21536,1.996694,1.524195,1008.311
23.698403835,-28.14471,28.13234,-16.78109,-0.8459046,-0.2754018,0.4244541,45.85394,0.8121943,2.870861,1008.311
23.733047008,-14.13858,20.73421,-23.58395,-0.896215,-0.2297393,0.396862,45.48234,1.649037,3.315044,1008.313
23.765218735,0.1747067,22.27303,-26.03543,-0.8793704,-0.1208263,0.4323066,45.48234,1.649037,3.315044,1008.313
23.799866199,-15.12147,21.14851,-29.59008,-0.7805386,-0.02291759,0.4153217,45.8886,2.052414,5.478899,1008.311
23.866685867,10.18787,6.588996,-23.64524,-0.9843004,-0.1290196,0.4351462,45.13952,3.59337,5.921604,1008.309
23.898857594,20.69246,-7.970517,-16.47466,-0.9546621,0.02389419,0.5199982,45.14608,4.742455,6.362303,1008.311
23.933500767,33.59285,-24.54232,2.892041,-0.967364,-0.09586849,0.4020036,45.13529,5.874486,5.464159,1008.311
23.965672970,58.34931,-24.48314,19.43954,-0.8963189,0.07083402,0.4133189,45.13529,5.874486,5.464159,1008.314
24.000319958,11.72363,-32.94659,12.45282,-0.9243019,-0.180115,0.4568191,45.13555,6.25562,5.462297,1008.314
24.032492638,23.27254,-34.8997,6.262827,-0.8631878,-0.2435863,0.3848717,44.73398,5.475981,3.682831,1008.316
24.067139149,31.01278,-23.00351,-4.584976,-0.7452644,-0.2388972,0.1876362,44.73398,5.475981,3.682831,1008.318
24.099311829,36.54151,4.754261,-4.768837,-0.765077,-0.2806536,0.1730169,45.08385,5.443001,1.513248,1008.318
24.131480217,66.82671,35.41209,-7.036457,-0.7037302,-0.2148377,0.1243051,45.07782,5.056182,1.068829,1008.316
24.166126728,122.1141,80.0376,-7.281605,-0.8248188,-0.0750289,0.04898563,45.07782,5.056182,1.068829,1008.318
24.198299408,199.2093,111.3465,-6.791309,-0.9363316,0.0672788,0.2411072,44.32194,5.066919,1.072697,1008.321
24.232946396,221.9385,114.7792,-16.35208,-1.088295,0.1518454,0.4095121,44.72351,5.846558,2.852163,1008.323
24.265118122,236.2518,104.1851,-23.3388,-1.00745,0.06577875,0.3155043,44.72351,5.846558,2.852163,1008.325
24.299765587,68.60818,74.65176,-92.71572,-1.055475,-0.2640016,1.264701,43.62957,6.282779,5.916315,1008.325
24.331933975,-184.3622,-86.09473,-102.9507,-1.854927,-1.723266,0.9709304,42.8918,7.453971,7.253441,1008.328
24.366580486,153.9965,-72.60055,-144.5645,-1.255512,-0.3408958,-0.08752123,41.74771,9.364374,6.357378,1008.332
24.398753166,69.89822,-61.3554,-102.7055,-1.248574,0.3305453,0.06495927,41.74771,9.364374,6.357378,1008.335
24.433400631,-12.84854,-53.18787,-92.348,-0.9993941,-0.2198243,0.4832204,41.33215,13.52242,3.21488,1008.337
24.465572357,-28.94331,-45.9673,-89.34493,-1.035822,-0.5569432,0.550671,39.41144,17.70843,0.5901527,1008.337
24.500219345,43.48315,-32.47311,-80.94861,-0.6872875,-0.4496988,0.3945451,39.41144,17.70843,0.5901527,1008.338
24.532388210,24.86973,-25.07499,-68.07834,-0.6903211,-0.3410521,0.4455971,37.88415,20.38078,-0.7539806,1008.342
24.567034722,50.0562,-15.60538,-49.75351,-0.6712379,-0.3851046,0.4730118,36.72907,21.89949,-2.476989,1008.343
24.599206925,13.32082,-9.627697,-41.60234,-0.598939,-0.3303423,0.5715985,36.72907,21.89949,-2.476989,1008.345
24.633854389,27.26552,0.8480502,-31.91899,-0.7304671,-0.5391979,0.4679561,35.20704,23.81527,-3.371119,1008.347
24.666026115,22.71967,-2.939791,-30.01909,-0.7118816,-0.3990544,0.4631541,34.06244,24.9634,-4.263461,1008.347
24.698198795,4.536266,-0.276465,-25.85157,-0.6399102,-0.3580552,0.4131746,34.06244,24.9634,-4.263461,1008.346
24.732841968,13.87369,1.025605,-19.29386,-0.8048254,-0.5728459,0.4625886,33.31285,25.74209,-3.817034,1008.348
24.765013695,9.4507,-7.437851,-17.33268,-0.7304906,-0.3970499,0.3963463,32.92336,25.73609,-4.707661,1008.35
24.799661159,9.266409,-6.135781,-12.491,-0.8293706,-0.6279838,0.472003,32.92336,25.73609,-4.707661,1008.35
24.831832886,7.730647,-5.899041,-8.568632,-0.776401,-0.5868629,0.4255758,32.9299,26.88518,-4.266963,1008.35
24.866480350,25.91405,-6.254151,-3.543096,-0.7056235,-0.4804035,0.492309,31.77875,26.88423,-5.600002,1008.348
24.898652554,15.96232,-9.331772,0.5018471,-0.7413654,-0.4383757,0.6322868,31.77875,26.88423,-5.600002,1008.351
24.933295250,5.15057,-1.99283,5.895105,-0.6949157,-0.5447971,0.5201162,31.77849,26.50309,-5.598142,1008.351
24.965467930,15.83946,2.741971,12.57539,-0.7859775,-0.4871444,0.5734971,32.15117,27.25431,-6.050077,1008.355
25.000114918,25.36118,3.925671,12.88183,-0.7007899,-0.4470663,0.4125268,32.15117,27.25431,-6.050077,1008.351
25.032286644,27.38838,0.4337551,14.65915,-0.6724095,-0.4921464,0.5015423,32.13859,25.7184,-6.935197,1008.351
25.066934109,25.11546,7.535957,20.72656,-0.6892698,-0.3628238,0.5813316,32.51678,26.09417,-6.938992,1008.351
25.099106789,23.70256,8.482917,20.35884,-0.7223097,-0.3711951,0.544457,32.51678,26.09417,-6.938992,1008.354
25.133749008,14.97944,6.707366,21.89102,-0.7558869,-0.336125,0.5387934,32.49976,25.31566,-8.210357,1008.356
25.165921688,6.379178,5.346111,21.46201,-0.8427581,-0.4314478,0.5841261,33.25512,24.54266,-8.210504,1008.358
25.198093414,0.9733021,4.162411,18.58152,-0.779608,-0.3110963,0.4331812,33.25512,24.54266,-8.210504,1008.358
25.232740879,-3.019675,11.85646,19.99112,-0.7953588,-0.4383574,0.5368729,34.01023,23.38852,-8.208789,1008.359
25.264913559,2.14048,17.47904,22.4426,-0.8012481,-0.3411986,0.5439948,34.77189,23.38347,-7.766376,1008.361
25.299560070,-4.371144,19.43215,27.83586,-0.7889618,-0.477435,0.4458752,34.77189,23.38347,-7.766376,1008.365
25.331728458,16.08518,28.36908,34.88387,-0.7577759,-0.2596916,0.5673971,34.39947,23.01339,-7.316301,1008.366
25.366375446,-5.169739,32.15692,45.36395,-0.8991796,-0.4536133,0.442762,35.15483,22.24038,-7.316447,1008.366
25.398547649,26.65121,34.16921,51.7378,-0.9101905,-0.4287018,0.4560841,35.15483,22.24038,-7.316447,1008.366
25.433194637,62.40371,30.61811,57.8665,-0.7706444,-0.2180937,0.3514424,36.68233,21.09175,-6.043512,1008.364
25.465367317,42.80741,33.51817,67.05955,-0.9275329,-0.2867613,0.4723581,37.06527,19.94867,-5.593583,1008.366
25.500013828,70.4511,25.23228,71.96251,-0.861662,-0.3020493,0.4205254,38.94791,18.01047,-6.04023,1008.368
25.532182217,100.3063,35.58965,72.63667,-0.9005234,-0.03576774,0.3710274,38.94791,18.01047,-6.04023,1008.371
25.566829682,114.9882,35.35291,81.70715,-0.9773887,-0.1033145,0.3740797,39.70828,16.09975,-5.588513,1008.371
25.599001408,120.6397,38.07542,79.5621,-1.105186,0.04434044,0.3678135,41.21772,12.64808,-5.579502,1008.371
25.633648873,112.8995,33.3998,62.70818,-1.084363,0.08511838,0.4450753,41.21772,12.64808,-5.579502,1008.373
25.665820599,121.6841,28.90175,47.938,-1.096583,0.1093388,0.430929,42.35,10.34517,-5.574139,1008.375
25.700467586,114.4967,19.49133,31.75823,-0.953433,0.3490406,0.4508494,43.10408,7.666499,-5.564981,1008.378
25.732636452,96.98904,8.127807,25.62953,-0.9191403,0.3543111,0.4640688,43.10408,7.666499,-5.564981,1008.378
25.764808178,130.7143,-19.62996,31.51308,-0.8276625,0.2950653,0.5191208,43.47496,5.749778,-6.003892,1008.378
25.799455166,126.5985,-57.33082,35.6806,-0.737428,0.306182,0.5082484,44.21876,4.965404,-6.8966,1008.378
25.831627846,25.36118,-81.24156,16.19133,-0.6821604,0.1533255,0.4226046,44.21876,4.965404,-6.8966,1008.38
25.866274357,-121.949,-105.8625,-20.39703,-0.6926435,0.08044025,0.7204593,44.55605,3.396519,-9.951301,1008.38
25.898447037,-149.1012,-116.1607,-56.24994,-0.7262969,0.001430834,0.5866081,43.00993,2.622429,-12.55377,1008.374
25.933090210,-142.4667,-117.4628,-93.51245,-0.7563488,-0.1765585,0.5227612,43.00993,2.622429,-12.55377,1008.374
25.965261936,-108.68,-123.2629,-114.5952,-0.7109029,-0.04668446,0.5253358,42.20385,5.249937,-16.57946,1008.372
25.999909401,-133.4979,-93.31531,-151.3674,-0.8039478,-0.1643617,0.3112261,39.90128,10.96098,-19.59222,1008.372
26.032081127,-108.4343,-86.68658,-156.3316,-0.8004743,-0.2403214,0.4710733,39.90128,10.96098,-19.59222,1008.372
26.066728592,-30.78622,-75.26388,-151.3674,-0.849614,-0.2606984,0.4405159,36.10841,16.71461,-20.93963,1008.372
26.098900795,-48.84676,-51.4715,-161.4798,-0.9598331,-0.2025071,0.3624942,31.18827,23.63344,-21.84055,1008.372
26.133543491,-50.56681,-37.03036,-155.8414,-0.9383689,-0.3569911,0.6106961,31.18827,23.63344,-21.84055,1008.371
26.165716171,32.24138,-37.2671,-138.252,-1.013467,-0.3348461,0.6645993,25.83799,29.42649,-21.84106,1008.371
26.200363159,58.34931,-41.76516,-122.6851,-0.8617305,-0.2273078,0.60864,19.79327,32.94259,-21.82687,1008.367
26.232535362,49.13475,-54.31239,-108.16,-0.7134197,-0.2349627,0.7816768,19.79327,32.94259,-21.82687,1008.367
26.264707565,48.45901,-55.08179,-95.90264,-0.5681422,-0.3320095,0.7530112,14.47533,34.89581,-23.97675,1008.367
26.299355030,25.79119,-48.51225,-82.66465,-0.4460799,-0.1463833,0.6704987,9.905387,34.92612,-26.63122,1008.367
26.331647873,-61.74715,-37.08955,-87.69019,-0.4321287,-0.2665986,0.7628854,9.905387,34.92612,-26.63122,1008.368
26.366295338,-86.74933,-38.98347,-87.07731,-0.3940662,-0.4752443,0.9217979,5.736493,34.9738,-27.50251,1008.37
26.398467064,-54.74408,-34.30785,-81.99049,-0.3382992,-0.6043606,0.7679012,1.230624,35.82891,-25.25162,1008.372
26.433114529,-13.09426,-20.34018,-75.24892,-0.2976458,-0.548182,0.5260213,1.230624,35.82891,-25.25162,1008.37
26.465286255,-27.28469,-10.69303,-70.71368,-0.2546813,-0.454676,0.6574951,-1.012872,37.4084,-23.46234,1008.37
26.499933720,-37.05212,-24.71988,-63.23666,-0.344341,-0.7839421,0.890833,-4.78649,37.46777,-22.99672,1008.37
26.532102108,-7.626956,-29.92816,-58.39498,-0.2903185,-0.5937045,0.6070356,-7.415301,37.90272,-21.70996,1008.371
26.566748619,-78.14907,-29.57305,-68.07834,-0.2441032,-0.638108,0.6693802,-7.415301,37.90272,-21.70996,1008.371
26.598921299,-123.8533,-29.92816,-92.22543,-0.1453537,-0.7342602,0.8527539,-9.293186,38.32207,-20.80959,1008.373
26.633568287,-423.5723,-36.20177,-142.7872,0.1227594,-0.2388171,0.6947948,-11.87711,38.03942,-16.01261,1008.373
26.665740013,-537.5871,-24.77906,-152.2254,0.2694654,-0.8796923,-0.1789746,-11.87711,38.03942,-16.01261,1008.371
26.700387478,-157.5172,13.92794,-138.0068,0.29007,-2.067338,-0.3465717,-16.65728,41.35003,-1.019758,1008.371
26.732555389,161.921,11.20543,-107.1795,0.457011,-1.01365,0.1946126,-21.05156,38.88701,10.04598,1008.371
26.767202377,123.527,-4.301046,-64.03339,0.8899795,-0.9391041,0.6365546,-21.05156,38.88701,10.04598,1008.373
26.831546783,112.8995,-31.94045,6.875697,0.3656224,-0.5633394,0.3095556,-26.44738,35.43127,2.184259,1008.371
26.866194248,129.0557,-38.4508,36.53862,0.2908294,-0.8289749,0.3066176,-26.44738,35.43127,2.184259,1008.369
26.898365974,234.1017,-60.11251,76.86547,0.430158,-0.5969161,0.3400066,-27.23241,35.03245,-0.04141617,1008.37
26.933009148,225.9315,-36.26096,113.0248,0.6000237,-0.2437101,0.1157577,-26.16659,35.7112,-5.342551,1008.37
26.965181828,104.1764,7.595142,124.9145,0.4079535,-0.005736903,0.1990417,-26.16659,35.7112,-5.342551,1008.37
26.999828339,-43.19517,24.87717,114.557,-0.06962888,-0.2866983,0.5299054,-22.83865,36.7332,-11.10343,1008.37
27.032001019,-111.3215,15.05245,97.27406,-0.001087694,-0.4955882,0.4248779,-19.45267,38.19317,-12.40337,1008.372
27.066648006,-211.3916,19.96481,66.99826,0.06233369,-0.475869,0.06439501,-19.45267,38.19317,-12.40337,1008.372
27.098819733,-236.0252,21.2077,38.25465,0.1026908,-0.9137212,0.08450872,-15.18566,40.08356,-8.927775,1008.374
27.133463383,-114.0859,53.22678,42.05445,0.2181188,-1.482882,0.6233988,-12.82517,43.18975,-1.941284,1008.374
27.165635109,39.42874,24.28532,97.5192,-0.3995466,-2.130016,0.8378351,-12.82517,43.18975,-1.941284,1008.374
27.200282097,123.3427,-13.47472,47.938,-0.08047476,-2.151051,0.8963804,-11.26038,44.74397,2.060062,1008.374
27.232454777,175.8657,22.56895,-31.67384,-0.3068064,-1.695542,0.3392721,-8.287265,45.79407,-1.913761,1008.376
27.267101288,193.8648,16.17697,-50.24381,-0.3285153,0.09187736,0.5499021,-8.287265,45.79407,-1.913761,1008.376
27.299273968,-40.92224,-12.29102,-69.79437,0.1465601,-0.1878533,0.7730768,-6.866873,46.06359,-9.000093,1008.376
27.331441879,-94.18241,-28.50772,-59.80458,-0.1166384,-0.3249271,0.7035487,-8.79856,43.76383,-12.10322,1008.372
27.366088867,-170.8476,-43.24479,-53.43073,-0.01489932,-0.8355663,0.5137838,-8.79856,43.76383,-12.10322,1008.372
27.398261547,-218.149,-50.87965,-71.93941,0.2006939,-1.281872,0.3687949,-11.40395,43.46008,-8.963861,1008.373
27.432908058,-223.6777,-54.78587,-88.73206,0.3277731,-1.455512,0.5927173,-13.57475,43.96844,-1.494857,1008.378
27.465080738,-209.7944,-57.56756,-119.9272,0.2168396,-1.339309,0.1691049,-13.57475,43.96844,-1.494857,1008.373
27.499727726,-168.6975,-48.51225,-132.491,0.200832,-0.9358822,0.04340431,-15.79142,42.97103,7.384508,1008.378
27.531895638,-197.9998,-39.6345,-105.0344,0.378024,-0.8477398,0.006327616,-19.09283,39.68985,15.3242,1008.378
27.566543102,-140.6238,-28.09342,-92.96087,0.5281713,-1.108376,-0.5254935,-21.6622,34.0892,21.54982,1008.373
27.598714829,-34.34919,16.53208,-82.84851,0.5756724,-0.9018648,-0.780176,-21.6622,34.0892,21.54982,1008.373
27.633361817,33.22427,60.15143,-79.53901,0.3564912,-0.9188459,-0.605715,-23.8883,28.44907,25.09583,1008.373
27.665534496,165.9754,74.05991,-63.0528,0.2762816,-0.9370985,-0.4436472,-25.80209,25.78605,23.39716,1008.375
27.700181007,294.0578,57.60648,-48.03748,0.4117497,-0.4082936,-0.200034,-25.80209,25.78605,23.39716,1008.375
27.732349873,280.666,41.50815,-23.52267,0.4961099,0.1460683,-0.01116319,-28.90593,25.36909,17.23031,1008.375
27.766996860,91.82888,85.24588,12.45282,0.605229,-0.08185161,-0.04008835,-30.89071,28.7303,9.700222,1008.375
27.799168587,66.70384,77.90694,9.817475,0.6930031,-0.7482215,0.2746107,-30.89071,28.7303,9.700222,1008.375
27.833816051,181.333,32.33447,3.504911,0.4138057,-0.8815875,0.7388359,-31.33613,30.1928,4.403097,1008.369
27.865987778,78.06847,-33.06496,7.304707,0.8402304,-0.3367192,1.742872,-32.53846,30.1415,-0.8827133,1008.377
27.898160458,-158.07,-42.23864,1.605013,0.7349116,-1.368382,0.5096247,-32.53846,30.1415,-0.8827133,1008.377
27.932803631,101.2892,-18.38708,-25.29999,0.4568881,-1.056241,0.08436675,-32.16027,30.51727,-0.886507,1008.377
27.964975357,32.85569,-14.06657,-37.25096,0.3409047,0.07353757,0.4283066,-31.76448,31.29122,0.4466801,1008.371
27.999622822,-85.39786,-12.46858,-16.65852,0.4290372,-0.3986676,0.05245175,-31.76448,31.29122,0.4466801,1008.373
28.031794548,-69.73311,-11.52162,9.51104,0.6662959,-0.4079065,-0.04864818,-32.89329,30.16961,0.9043446,1008.371
28.066441536,-5.906904,-13.65228,54.92472,0.8066289,-0.3002909,0.3389392,-33.25993,29.80521,1.800701,1008.371
28.098614216,-36.06924,-9.213402,74.53657,0.6889025,-0.4473789,0.5123449,-33.25993,29.80521,1.800701,1008.371
28.133256912,-101.3083,-7.497036,73.61726,0.4566237,-0.7657089,0.43525,-32.48094,29.81721,3.581955,1008.371
28.165429592,-149.5312,-8.739922,67.48856,0.530973,-0.8823096,0.2798371,-30.57319,32.09342,4.836208,1008.371
28.200076103,-186.5737,-9.805252,62.83075,0.4959504,-0.8567374,0.04853302,-30.57319,32.09342,4.836208,1008.371
28.232248306,-138.9037,-6.254151,56.76334,0.5409467,-1.319308,-0.238634,-28.62576,33.26601,9.220009,1008.371
28.266895771,-83.00208,38.19379,41.68673,0.3745328,-0.7189751,-0.3555239,-26.28962,33.30121,14.50002,1008.371
28.299067497,-255.4987,28.66501,7.182132,0.4667259,-1.090215,-0.4129466,-26.28962,33.30121,14.50002,1008.373
28.333710671,92.81177,21.9771,8.530447,0.4714497,-2.078981,-0.4177682,-25.12139,32.93808,17.17376,1008.373
28.365882874,279.5602,28.19153,18.94924,0.3410793,-0.3944709,0.0364371,-25.08305,31.07139,20.24327,1008.371
28.400529862,60.43794,32.98551,10.12391,0.1991131,-1.055473,-0.04528948,-25.08305,31.07139,20.24327,1008.367
28.432702541,164.5011,40.08771,12.20767,0.1349906,-1.013859,0.08579179,-25.54498,32.51764,13.67106,1008.365
28.464874268,124.817,20.55666,-3.420522,0.156988,-1.03298,0.3900526,-26.72926,34.76939,9.649178,1008.365
28.499521256,208.8538,-13.77065,8.040152,0.284783,-1.140017,0.3764097,-26.72926,34.76939,9.649178,1008.367
28.531689167,211.1882,-7.852147,19.25568,0.5060733,-0.4152935,0.4010455,-26.03508,36.22146,4.792534,1008.369
28.566336632,-11.37421,4.695076,24.28121,0.6130741,-0.4693822,0.4424991,-26.49779,36.52431,-1.774094,1008.371
28.598509312,27.14266,15.99941,40.09327,0.538625,-1.152359,0.4500952,-26.49779,36.52431,-1.774094,1008.371
28.633155823,28.4327,12.74424,20.66528,0.2853448,-0.5720198,0.5170109,-26.14244,37.25848,-3.564872,1008.371
28.665328026,-51.11969,12.27076,17.17192,0.7740688,-1.082754,0.5014921,-24.64802,37.21995,-4.911448,1008.372
28.699975491,64.36948,29.84871,17.11063,0.3846785,-1.161437,0.369517,-23.89741,37.96579,-5.365318,1008.368
28.732143402,122.2369,42.27756,-12.30714,0.5525355,-0.4893042,0.2746819,-23.89741,37.96579,-5.365318,1008.368
28.766790390,63.14088,46.42051,-11.14269,-0.3864364,-0.4181971,0.5823873,-23.18038,39.05947,-8.434978,1008.368
28.798962593,-2.28251,20.7934,4.9758,0.008336064,-0.3197385,0.7646033,-23.59953,37.88165,-11.55143,1008.368
28.833609581,-17.14867,10.96869,34.14842,0.2522062,-0.9196496,0.9231898,-23.59953,37.88165,-11.55143,1008.368
28.865781307,-38.64931,0.1378301,50.26691,0.28951,-0.5864209,0.7294151,-23.22763,37.48946,-11.99778,1008.37
28.900428772,-149.8384,0.6113102,31.75823,0.03334842,-1.003104,0.4709825,-22.45994,37.87123,-11.11095,1008.37
28.932597160,30.64419,-2.407126,5.404809,0.1360782,-1.71728,0.3233923,-22.45994,37.87123,-11.11095,1008.372
28.964768887,116.7696,21.14851,0.317986,0.4971622,-0.7328836,0.2490905,-20.15635,39.77879,-8.454171,1008.374
28.999416351,62.64944,74.77013,20.05241,0.5850103,-1.088994,0.07374323,-20.94086,40.14224,-10.68357,1008.374
29.031588078,204.738,102.4687,21.33944,0.3463583,-0.8803807,0.7259792,-20.94086,40.14224,-10.68357,1008.374
29.066235542,49.4419,63.76171,21.27815,-0.02064939,0.01719893,1.450163,-19.49235,39.29678,-15.53291,1008.374
29.098407745,75.24267,27.65886,23.42319,-0.1276117,-0.8821985,1.003199,-18.04905,38.06531,-20.76293,1008.375
29.133050442,188.3975,-6.609262,25.7521,-0.0007956414,-0.5371337,0.8284481,-18.04905,38.06531,-20.76293,1008.377
29.165223122,149.3892,-17.85441,32.61625,-0.03587696,-0.386333,0.4714111,-16.96114,37.24227,-24.2715,1008.377
29.199869633,130.8372,-15.30946,36.72248,0.0794606,-0.378529,0.4877512,-16.64221,34.1318,-28.6576,1008.379
29.232042313,83.16719,-6.431706,44.81237,0.1961597,-0.301787,0.6328588,-16.64221,34.1318,-28.6576,1008.381
29.266689301,59.57792,10.02173,61.91145,0.07328729,-0.2812944,0.6934602,-15.48817,30.6448,-31.77094,1008.381
29.298861027,3.000506,7.240032,77.29449,-0.002813039,-0.0954256,0.9555004,-15.13906,29.46842,-33.93494,1008.381
29.333504200,-101.2469,8.186992,80.23626,0.02297972,-0.2269999,0.7782452,-15.13906,29.46842,-33.93494,1008.377
29.365676403,-112.1815,12.27076,86.30367,-0.009308846,-0.5879901,0.7109824,-13.24988,28.67931,-33.94089,1008.377
29.400323391,-50.87397,12.03402,84.95536,-0.1886174,-0.5361496,0.8350288,-10.95238,31.34264,-31.79786,1008.377
29.432496071,-110.2157,14.04631,71.5335,-0.2457897,-0.4068231,0.7633646,-10.95238,31.34264,-31.79786,1008.375
29.467142582,-57.38559,19.90563,41.07386,-0.2159766,-1.230261,0.8767978,-8.281372,34.75801,-30.04303,1008.375
29.499315262,243.132,-1.75609,-13.22645,-0.1936016,-1.167018,1.476718,-5.60536,37.03566,-27.83632,1008.375
29.531483173,106.6336,-19.27485,-58.70142,-0.08822562,0.300805,1.110912,-5.60536,37.03566,-27.83632,1008.375
29.566130161,-50.75111,-24.06884,-61.33676,-0.1185772,0.03829011,1.226639,-4.156078,37.3336,-32.69125,1008.375
29.598302364,-53.7612,-23.00351,-36.76066,-0.0475577,-0.4139594,0.7209681,-5.315839,33.13449,-34.4501,1008.377
29.632949352,10.61788,1.972565,-8.629919,0.003705927,-0.3740557,0.7044308,-5.315839,33.13449,-34.4501,1008.373
29.665122032,-49.03106,1.499085,3.504911,-0.02572901,-0.3741636,0.8603903,-7.927058,33.96763,-31.82636,1008.374
29.699768543,-55.72697,-2.347941,5.343522,-0.04572161,-0.7273899,0.8007889,-9.060877,33.98374,-31.82056,1008.376
29.731936932,-18.74586,1.025605,-0.4174583,-0.04387124,-0.8415769,0.7858523,-9.060877,33.98374,-31.82056,1008.376
29.766584396,51.28481,5.227741,-0.7238933,-0.02945615,-0.6248436,0.8284745,-8.287149,34.75232,-30.48931,1008.378
29.798756123,66.39669,5.523666,-0.2948842,-0.0493645,-0.4462916,0.8701382,-8.286377,35.89572,-30.49489,1008.378
29.833403110,50.17906,3.274636,-0.3561713,-0.0636361,-0.3216441,0.911787,-8.682165,35.12177,-31.82808,1008.374
29.865575314,19.40243,0.5521252,0.8695692,-0.05123937,-0.2664362,0.9665923,-8.682165,35.12177,-31.82808,1008.376
29.900222301,-15.49005,-2.347941,0.44056,-0.05913821,-0.3032313,0.9735927,-8.321507,33.95676,-33.09952,1008.376
29.932390213,-31.21623,-3.945936,-0.7238933,-0.05853682,-0.4002533,0.9178393,-7.956152,32.41549,-33.98656,1008.376
29.967037678,-29.06617,-4.005121,-1.398051,-0.05249413,-0.4706389,0.8579167,-7.956152,32.41549,-33.98656,1008.377
29.999209881,-17.64011,-2.288756,-0.9077544,-0.04111244,-0.5082322,0.8367746,-7.938614,33.95626,-32.71892,1008.377
30.033856392,-1.053902,-0.3948351,-0.1110231,-0.04144939,-0.5216323,0.8612493,-8.29922,33.97868,-31.37815,1008.377
30.066029072,8.836395,0.5521252,0.317986,-0.04251523,-0.4791925,0.8881191,-8.29922,33.97868,-31.37815,1008.377
30.098200798,8.897826,0.3745701,0.379273,-0.04518966,-0.4267219,0.8929146,-8.682423,34.74063,-31.82621,1008.377
30.132843971,1.157593,0.01946004,-0.1110231,-0.0441213,-0.4073,0.8945107,-8.304741,34.35413,-31.82629,1008.377
30.165016651,-5.2926,-0.03972498,-0.1723102,-0.04032411,-0.4311113,0.893315,-8.304741,34.35413,-31.82629,1008.377
30.199663162,-5.538322,0.1970151,-0.1723102,-0.04924224,-0.4539175,0.8883902,-8.68268,34.3595,-31.82435,1008.379
30.231835842,-3.388257,-0.03972498,-0.2335972,-0.04649252,-0.4686012,0.8742656,-9.060877,33.98374,-31.82056,1008.379
30.266482353,-0.3167366,-0.09890999,0.0115509,-0.04652087,-0.4705613,0.8718396,-9.060877,33.98374,-31.82056,1008.379
30.298655033,2.263341,-0.33565,-0.1110231,-0.04492117,-0.4651259,0.8853655,-8.68268,34.3595,-31.82435,1008.381
30.333452225,2.324771,-0.03972498,0.07283793,-0.04677819,-0.4519735,0.8903112,-8.68268,34.3595,-31.82435,1008.384
30.365624428,1.710467,0.1378301,0.1341249,-0.04285899,-0.4384391,0.8855662,-8.68268,34.3595,-31.82435,1008.384
30.400271416,-0.5010279,0.1970151,-0.1110231,-0.04039039,-0.4461622,0.8927096,-8.310518,34.34845,-32.27257,1008.383
30.432443619,-0.80818,0.01946004,0.0115509,-0.04440146,-0.4505924,0.8821065,-8.68268,34.3595,-31.82435,1008.383
30.467091084,-0.5010279,0.1970151,0.07283793,-0.04243525,-0.4539741,0.8854342,-8.68268,34.3595,-31.82435,1008.384
30.499262810,-0.1324454,0.2562001,0.07283793,-0.04683315,-0.4496056,0.8826193,-8.688716,33.97268,-32.26878,1008.384
30.533905983,0.4204283,-0.09890999,0.0115509,-0.04878693,-0.4510483,0.8831076,-9.060363,34.74601,-31.82428,1008.384
30.566077709,0.4818587,0.01946004,-0.2335972,-0.04674412,-0.4427547,0.8899049,-9.060363,34.74601,-31.82428,1008.386
30.598250389,-1.238193,-0.158095,-0.1110231,-0.04435707,-0.4447492,0.8845642,-9.066399,34.35919,-32.2687,1008.386
30.632896900,-2.221079,0.07864505,-0.1723102,-0.04635935,-0.4510716,0.8816388,-8.687891,33.9735,-32.20502,1008.384
30.665069580,-1.668206,0.01946004,-0.1110231,-0.0424978,-0.4622517,0.8819926,-8.687891,33.9735,-32.20502,1008.384
30.699716568,-0.3167366,0.01946004,-0.2948842,-0.03852329,-0.4578548,0.8882577,-8.688716,33.97268,-32.26878,1008.386
30.731884479,0.4204283,0.07864505,-0.04973612,-0.03900166,-0.4467215,0.884016,-8.682423,34.74063,-31.82621,1008.386
30.766531944,-0.3781671,0.3153851,0.1341249,-0.04390333,-0.4510691,0.8835438,-9.060363,34.74601,-31.82428,1008.384
30.798703670,-0.4395975,0.07864505,0.0115509,-0.04626811,-0.4476036,0.8908245,-9.060363,34.74601,-31.82428,1008.384
30.833351135,-1.729636,0.1970151,0.256699,-0.04047717,-0.4573632,0.887798,-7.926801,34.34877,-31.82822,1008.386
30.865522861,-0.3167366,0.6113102,0.379273,-0.0420282,-0.4608201,0.879108,-8.671124,34.37087,-30.93179,1008.387
30.900169849,0.1747067,0.6113102,0.1341249,-0.05313574,-0.4534051,0.8893948,-8.671124,34.37087,-30.93179,1008.387
30.932338715,-1.115332,-0.276465,-0.04973612,-0.05663247,-0.4573301,0.8816831,-9.059849,35.50827,-31.828,1008.387
30.966985226,-0.4395975,-0.6907601,-0.1723102,-0.0458875,-0.4539902,0.8811283,-9.060619,34.36487,-31.82242,1008.387
30.999157429,-0.07101499,-0.3948351,-0.04973612,-0.04290881,-0.4573435,0.8887848,-9.060619,34.36487,-31.82242,1008.387
31.033804894,0.7275804,-0.03972498,0.0115509,-0.0415406,-0.4540529,0.8757852,-8.676645,34.74632,-31.37993,1008.387
31.065976620,-0.1324454,0.7296802,0.195412,-0.04001829,-0.4448193,0.8782572,-9.060363,34.74601,-31.82428,1008.385
31.100624084,-0.3781671,0.3745701,0.317986,-0.04386676,-0.4510359,0.8878818,-9.060363,34.74601,-31.82428,1008.387
31.132791996,-0.6238887,0.1378301,0.07283793,-0.04190016,-0.4621544,0.8950018,-7.926544,34.7299,-31.83008,1008.385
31.164964199,-1.361054,0.3745701,0.195412,-0.0474423,-0.4632533,0.8748004,-8.310262,34.72958,-32.27443,1008.385
31.199610710,-1.053902,0.3745701,-0.1110231,-0.0568376,-0.4580002,0.8575795,-8.310262,34.72958,-32.27443,1008.387
31.231783390,0.9118716,-0.03972498,-0.3561713,-0.05081672,-0.4757713,0.8858147,-9.060105,35.12714,-31.82614,1008.387
31.266430855,2.570493,-0.6907601,-0.4787453,-0.04185993,-0.4543807,0.8960295,-8.304226,35.1164,-31.83001,1008.387
31.298602581,1.280454,-0.5723901,-0.2335972,-0.03642459,-0.4301676,0.8923224,-8.304226,35.1164,-31.83001,1008.387
31.333245754,-3.695409,0.4929402,0.379273,-0.05069847,-0.4442318,0.8846276,-8.682423,34.74063,-31.82621,1008.387
31.365417481,-3.695409,-0.09890999,-0.2948842,-0.04989984,-0.4734121,0.8776316,-8.676388,35.12745,-31.38179,1008.381
31.400064945,-0.1324454,-1.04587,-0.6013193,-0.03673657,-0.4870289,0.8826985,-8.676388,35.12745,-31.38179,1008.385
31.432236672,2.693354,-0.21728,0.0115509,-0.03770157,-0.4618684,0.871829,-8.298963,34.35982,-31.38001,1008.381
31.466884136,1.034732,0.5521252,0.379273,-0.03903235,-0.4423973,0.8782679,-8.682165,35.12177,-31.82808,1008.383
31.499055863,0.2975675,0.9664202,0.8082823,-0.0487466,-0.4452088,0.8850834,-8.682165,35.12177,-31.82808,1008.382
31.533699036,1.526176,0.1970151,0.195412,-0.04675572,-0.4543709,0.8941472,-8.298449,35.12208,-31.38373,1008.382
31.565871716,-0.5010279,-0.276465,-0.1110231,-0.05397812,-0.4426402,0.9000953,-8.298706,34.74095,-31.38187,1008.382
31.600518227,-2.28251,-0.9866852,-0.2948842,-0.04648338,-0.4487666,0.8657529,-8.298706,34.74095,-31.38187,1008.378
31.632690430,-1.545345,-0.6315751,-0.4787453,-0.04107021,-0.4680949,0.8804851,-8.682423,34.74063,-31.82621,1008.376
31.664862633,0.2361371,-0.5132051,-0.1723102,-0.03715268,-0.4618155,0.8790542,-8.682165,35.12177,-31.82808,1008.376
31.699509621,0.2361371,0.1970151,-0.1110231,-0.03811825,-0.4651862,0.8819275,-8.682165,35.12177,-31.82808,1008.376
31.731677532,0.9733021,0.4337551,0.256699,-0.04197593,-0.450134,0.8801596,-8.682423,34.74063,-31.82621,1008.379
31.766324997,-0.009584576,0.4929402,0.07283793,-0.04242938,-0.4496167,0.8840241,-8.298706,34.74095,-31.38187,1008.378
31.798497200,-1.115332,0.4337551,0.195412,-0.04396774,-0.4627334,0.8815203,-8.298706,34.74095,-31.38187,1008.378
31.833143711,0.2361371,0.4337551,0.0115509,-0.0503431,-0.473369,0.8829381,-8.676645,34.74632,-31.37993,1008.378
31.865316391,0.1132763,0.01946004,-0.1723102,-0.0547879,-0.4656581,0.8729212,-8.676645,34.74632,-31.37993,1008.378
31.899962902,1.464745,-0.276465,0.1341249,-0.04497022,-0.4593677,0.8767374,-8.304483,34.73527,-31.82815,1008.375
31.932131767,1.219024,-0.3948351,0.0115509,-0.04829247,-0.4592655,0.8878552,-8.304483,34.73527,-31.82815,1008.377
31.966778755,0.1132763,-0.5723901,-0.1723102,-0.0433585,-0.4510199,0.8902872,-8.68268,34.3595,-31.82435,1008.379
31.998950481,-0.1938758,-0.21728,-0.1110231,-0.04050977,-0.4554586,0.882994,-9.060105,35.12714,-31.82614,1008.381
32.033597946,-0.1324454,0.1378301,0.1341249,-0.03415418,-0.4554795,0.8843805,-9.060105,35.12714,-31.82614,1008.382
32.065769672,-0.07101499,0.4929402,0.1341249,-0.04104627,-0.4593689,0.8791108,-8.298706,34.74095,-31.38187,1008.382
32.100417137,0.1132763,0.4929402,0.0115509,-0.04589151,-0.4549609,0.8811203,-8.682423,34.74063,-31.82621,1008.382
32.132585049,0.1132763,0.3153851,-0.1110231,-0.05321909,-0.4520302,0.8788029,-8.682423,34.74063,-31.82621,1008.384
32.167232037,-0.9924712,-0.33565,-0.04973612,-0.04971413,-0.4500319,0.8884267,-9.066141,34.74032,-32.27056,1008.384
32.199404717,-2.835383,-1.40098,0.0115509,-0.0537393,-0.4568927,0.8773216,-8.687376,34.73576,-32.20874,1008.386
32.231576443,0.2975675,-0.4540201,0.0115509,-0.03564623,-0.4603335,0.8833904,-8.687376,34.73576,-32.20874,1008.386
32.266223908,-2.405371,-0.03972498,-0.2948842,-0.04730466,-0.4534567,0.8864479,-8.304226,35.1164,-31.83001,1008.388
32.298395634,-10.9442,-2.229571,-0.5400323,-0.03936037,-0.368338,0.9776914,-8.682165,35.12177,-31.82808,1008.384
32.333038807,-88.89939,-2.703051,-2.991513,-0.08204561,-0.2006498,1.043578,-8.682165,35.12177,-31.82808,1008.384
32.365210533,-189.5838,-15.36864,-21.9292,-0.05003988,-0.3978059,1.114918,-8.67061,35.13314,-30.93551,1008.385
32.399857998,-335.6039,-36.0834,-55.69835,-0.09760298,-0.8454133,1.072148,-8.612369,37.09484,-26.54577,1008.384
32.432029724,-327.1265,-33.00578,-103.0732,0.04276273,-1.606924,0.6640185,-8.612369,37.09484,-26.54577,1008.384
32.466676712,-165.3802,-21.10959,-151.7964,-0.06110949,-1.82618,0.4882143,-10.33363,42.23885,-13.80941,1008.384
32.498849392,-163.353,-20.57692,-192.6749,0.0134197,-1.327891,0.6376726,-14.3524,44.71951,-3.216079,1008.382
32.533492088,-139.5181,-5.839856,-224.2377,0.2268362,-1.537405,0.2931804,-14.3524,44.71951,-3.216079,1008.382
32.565664768,-82.94064,8.127807,-235.5145,0.2649103,-1.267195,0.04730502,-20.00096,41.45519,3.460453,1008.384
32.600311279,0.66615,23.39754,-227.1794,0.348612,-1.129523,-0.04729493,-26.37836,36.26094,7.472151,1008.384
32.632483483,74.19836,23.21999,-214.922,0.4208259,-0.6668181,0.01802375,-26.37836,36.26094,7.472151,1008.384
32.667130947,42.31597,23.81184,-203.2162,0.5577614,-0.4342211,0.05674151,-32.42398,29.87325,7.981007,1008.382
32.699302673,10.98646,26.17924,-188.2622,0.6313784,-0.3737212,0.01895739,-37.74841,23.44072,5.80831,1008.376
32.733945846,-21.38737,35.70802,-174.2887,0.7004707,-0.3389867,0.03595103,-37.74841,23.44072,5.80831,1008.374
32.766118050,-30.11049,47.18991,-159.7637,0.6424941,-0.2371001,0.05612995,-40.41569,16.98197,4.514637,1008.374
32.798290253,-33.24344,58.67181,-143.8291,0.7171185,-0.1552994,0.01176404,-42.70395,10.89981,3.280926,1008.374
32.832936764,-30.60193,76.66405,-124.0334,0.7517344,-0.02735453,-0.0540201,-42.70395,10.89981,3.280926,1008.372
32.865109444,-48.47818,96.60941,-101.0508,0.7247416,0.1021987,-0.07680015,-43.87026,5.551618,1.081375,1008.369
32.899755955,-47.43386,122.5324,-78.86485,0.7078277,0.06374886,-0.03839936,-43.91352,0.1132444,-1.952474,1008.367
32.931924343,-41.59798,164.3171,-55.75964,0.7435234,0.1392237,-0.2988719,-43.91352,0.1132444,-1.952474,1008.365
32.966571808,-72.37461,238.0616,-36.27037,0.5834639,0.1482418,-0.302606,-43.97883,-3.759812,-6.7792,1008.365
32.998743534,-135.6479,79.32738,-146.7096,-1.980136,-1.180356,-6.066402,-42.94422,-6.539683,-14.29499,1008.364
33.033390999,-46.81956,-29.7506,-96.14779,2.646123,-1.752761,-1.780149,-40.71409,-4.704396,-17.31235,1008.362
33.065562725,123.527,13.2769,-63.48181,-0.256577,-0.3619567,0.9098809,-40.71409,-4.704396,-17.31235,1008.36
33.100210190,8.529243,5.227741,-32.71572,0.6286639,0.3173186,0.755873,-41.08315,-6.213816,-16.53792,1008.358
33.132377625,15.83946,-5.129636,-4.523689,0.9292635,-0.2951487,0.6443889,-40.71273,-10.03539,-16.90378,1008.358
33.167025089,110.4423,-6.017411,18.52023,0.8481138,0.05024288,0.6928195,-40.71273,-10.03539,-16.90378,1008.354
33.199196816,54.66348,-12.11347,32.98397,0.7931996,0.2199369,0.6961769,-39.57448,-10.80889,-16.52333,1008.356
33.233844280,32.85569,-20.57692,46.77355,0.7682576,-0.03564746,0.5810326,-40.70329,-11.9305,-16.06567,1008.356
33.266016483,127.7042,-21.16877,71.59479,0.7334409,-0.08346502,0.5260154,-40.70329,-11.9305,-16.06567,1008.356
33.298188686,151.7235,-12.17265,90.71634,0.5886454,0.1551849,0.6016338,-40.68518,-10.77005,-14.73241,1008.356
33.332875729,125.8613,-14.24413,105.4252,0.7489265,0.1203303,0.528033,-41.78934,-9.582117,-12.50078,1008.356
33.365048409,161.8596,-8.680737,124.9145,0.6318801,-0.0240556,0.5486609,-41.78934,-9.582117,-12.50078,1008.354
33.399694920,188.2746,2.860341,133.6173,0.7396531,0.1329852,0.4636359,-42.52743,-7.64947,-11.23113,1008.35
33.431867600,126.5371,17.47904,143.3006,0.8494335,0.1464093,0.5128502,-43.26995,-4.959429,-10.34773,1008.354
33.466514111,156.638,27.42212,167.0187,0.8707248,0.2162188,0.515637,-43.26995,-4.959429,-10.34773,1008.354
33.498686314,190.2404,56.7187,196.9268,0.8320818,0.1437169,0.6561437,-43.65109,-1.14841,-10.81068,1008.354
33.533329010,179.9201,79.38657,204.6489,0.4780309,-0.01188031,0.6437047,-42.91463,3.074916,-12.5567,1008.349
33.565501690,93.11892,88.44187,187.0595,0.2994716,-0.08787567,0.7445182,-42.91463,3.074916,-12.5567,1008.351
33.600148678,28.98557,81.93152,164.5672,0.1739065,-0.3703148,0.9217012,-41.82318,8.730335,-16.16066,1008.351
33.632320881,22.35109,81.33967,145.9972,0.2792867,-0.192984,0.9486898,-38.84718,12.83031,-20.08561,1008.353
33.666967869,-50.81254,67.66793,133.3108,0.05926828,-0.2677128,0.9351847,-38.84718,12.83031,-20.08561,1008.349
33.699139595,-6.214056,50.14916,120.318,0.08930282,-0.609798,0.8419504,-35.10381,18.07352,-23.19121,1008.349
33.733782768,19.89387,49.37976,103.3415,0.08328009,-0.3236851,0.7416994,-32.07746,22.22304,-23.22715,1008.35
33.765954971,-13.5857,49.26139,96.78376,0.07731631,-0.2469414,0.8079397,-32.07746,22.22304,-23.22715,1008.356
33.800601959,-62.60718,58.02077,100.8287,0.224797,-0.4287655,0.6758887,-28.31937,24.81455,-25.04464,1008.352
33.832774162,-16.16578,72.40273,122.463,0.2889507,-0.7662961,0.6917875,-25.68355,27.43353,-25.96376,1008.354
33.864946365,138.3317,99.98295,160.461,0.2940721,-0.6830764,0.9126995,-25.68355,27.43353,-25.96376,1008.354
33.899593830,147.5463,101.1666,162.9737,-0.02593607,-0.4761629,1.291905,-21.92387,31.16925,-27.72307,1008.354
33.931761742,43.48315,84.94996,132.6367,-0.1563957,-0.4689707,1.385243,-16.31725,31.40814,-32.59927,1008.356
33.998580456,-46.20526,17.77497,10.1852,-0.3541762,-1.167619,1.358193,-9.12092,29.3541,-36.19728,1008.361
34.033227921,111.7938,1.91338,-22.97108,-0.1913425,-0.2330516,1.177363,-4.963326,29.67618,-36.22042,1008.363
34.065399647,-16.84152,-16.90745,-38.66056,-0.1183602,0.09625634,0.8757368,-4.963326,29.67618,-36.22042,1008.363
34.100047112,-92.58522,-11.69917,-26.40316,-0.09238152,-0.1999712,0.6841085,-4.224268,30.41065,-37.56685,1008.363
34.132215023,-11.86565,-0.9866852,-7.342892,-0.007983815,-0.4222969,0.6723301,-5.347301,29.29473,-36.6629,1008.364
34.166862011,-32.87486,0.4337551,-1.643199,-0.1026739,-0.2862976,1.127414,-6.090339,31.2225,-35.77578,1008.366
34.199033737,-54.06835,-2.525496,-3.420522,-0.06095725,-0.4148799,1.159705,-6.090339,31.2225,-35.77578,1008.366
34.233681202,-23.84458,-6.017411,-5.688142,-0.03780733,-0.5393357,0.8967373,-6.078782,31.23387,-34.88322,1008.366
34.265853882,9.266409,-3.827566,-8.078336,-0.07822414,-0.4210648,0.8498895,-6.438616,32.3997,-33.54802,1008.366
34.300500393,8.529243,-1.51935,-7.58804,-0.07115848,-0.3546372,0.8455513,-6.438616,32.3997,-33.54802,1008.366
34.332668781,-2.773953,2.50523,-2.256069,-0.07346234,-0.3192382,0.9027405,-6.444137,32.77515,-33.99616,1008.364
34.364840508,-14.32287,0.2562001,0.5018471,-0.0779528,-0.3807566,0.9789131,-6.828113,32.3937,-34.43865,1008.364
34.399487972,-21.08022,-8.503181,-1.704486,-0.04256161,-0.4227318,0.9714889,-6.828113,32.3937,-34.43865,1008.364
34.431659699,-5.722613,-9.509327,-4.155967,-0.003902538,-0.4256522,0.8694022,-6.822334,32.39938,-33.99237,1008.366
34.466307163,-0.3167366,-6.905187,0.379273,-0.03578755,-0.3657198,0.8788698,-6.816298,32.7862,-33.54795,1008.366
34.498478890,-5.23117,-4.123491,3.566198,-0.09144738,-0.3548309,0.870321,-6.816298,32.7862,-33.54795,1008.366
34.533122063,-13.09426,-3.294901,5.711244,-0.09528621,-0.39102,0.8956044,-7.566399,32.80262,-33.0978,1008.367
34.565293789,-16.59579,-2.525496,2.830754,-0.07762703,-0.490602,0.8965466,-7.566399,32.80262,-33.0978,1008.365
34.599941254,-5.784044,0.6113102,-0.2335972,-0.04870069,-0.4693455,0.902236,-7.566399,32.80262,-33.0978,1008.365
34.632113457,3.246227,1.262345,-0.6013193,-0.04963504,-0.4475421,0.8966404,-7.560107,33.57057,-32.65524,1008.365
34.666760445,4.044823,1.854195,0.379273,-0.06089837,-0.4122217,0.8748648,-7.182735,33.94553,-32.72279,1008.367
34.698932648,2.816215,2.564415,1.176004,-0.05317897,-0.3703079,0.9021302,-7.182735,33.94553,-32.72279,1008.367
34.733575344,-8.118399,1.025605,1.298578,-0.0572478,-0.3656401,0.9383566,-7.555154,33.57544,-32.27272,1008.369
34.765748024,-16.10435,0.9664202,2.769467,-0.04523256,-0.3503943,0.9089683,-6.804485,33.1787,-32.65725,1008.369
34.800395012,-17.33296,5.937962,6.569262,-0.007979931,-0.4040298,0.8382885,-6.804485,33.1787,-32.65725,1008.37
34.832566738,-39.32505,-0.4540201,13.73984,-0.1312154,-0.269411,1.032866,-7.560675,33.95089,-32.72086,1008.369
34.867214203,-27.16183,-6.313336,20.29756,-0.07443649,-0.8644733,0.8182427,-7.170922,34.33803,-31.83209,1008.37
34.899385929,67.01099,4.458336,5.037086,-0.06582324,-0.6548779,0.8126603,-7.170922,34.33803,-31.83209,1008.37
34.931554794,70.57396,9.015582,-4.401115,-0.07508536,-0.3768829,0.8535985,-6.77462,35.87425,-30.50262,1008.37
34.966201305,24.43972,3.393006,-3.236661,-0.1353423,-0.01728341,1.058601,-6.048402,34.69169,-32.73232,1008.37
34.998373508,-31.27766,-3.294901,-0.6626063,-0.08328495,-0.3883971,0.9287719,-6.048402,34.69169,-32.73232,1008.37
35.033020020,2.017619,-0.158095,2.279171,-0.069463,-0.3955373,0.8929161,-6.060162,33.15659,-33.55368,1008.37
35.065192699,-23.72172,-4.596971,1.727588,-0.07138663,-0.4390604,0.9754792,-6.432323,33.16765,-33.10546,1008.372
35.099839211,2.631923,-2.703051,2.769467,-0.05850421,-0.4340361,0.8799645,-6.054383,33.16228,-33.1074,1008.376
35.132007599,3.983392,-3.058161,1.850162,-0.08038045,-0.4342973,0.8319665,-6.054383,33.16228,-33.1074,1008.376
35.166654587,27.08123,-2.525496,7.672429,-0.07038955,-0.3041677,0.9707979,-6.048349,33.5491,-32.66298,1008.376
35.198826790,9.266409,-1.578535,13.4947,-0.0743389,-0.2437435,0.936147,-6.059905,33.53773,-33.55554,1008.378
35.233474255,-19.54445,0.5521252,13.06569,-0.08821203,-0.3323217,0.8960223,-6.059905,33.53773,-33.55554,1008.378
35.265645981,-28.39043,3.984856,12.75925,-0.08522911,-0.4023291,0.8202254,-6.054641,32.78115,-33.10554,1008.379
35.300293446,-13.52427,17.30149,14.84301,-0.0815236,-0.3725103,0.7240368,-4.909576,33.53786,-32.28625,1008.381
35.332460880,-8.118399,19.55052,19.6234,-0.1170717,-0.2988369,0.8136637,-4.909576,33.53786,-32.28625,1008.381
35.367108345,-72.12889,16.0586,26.61012,-0.04014763,-0.3545843,0.9353962,-4.914272,33.91413,-32.67064,1008.383
35.399280071,-27.46898,18.72193,29.79704,-0.1254557,-0.613121,0.8391069,-3.391526,34.28434,-31.85143,1008.383
35.433927536,-46.32812,6.352256,29.91962,-0.1234626,-0.5062246,0.7922516,-3.391526,34.28434,-31.85143,1008.384
35.466099262,-58.55277,9.074767,21.46201,-0.05935732,-0.6673713,0.8332229,-1.483723,35.41795,-30.52784,1008.384
35.498271942,-32.87486,11.79728,18.15251,-0.1761443,-0.4150695,0.8089187,-0.3147202,36.19823,-27.85968,1008.384
35.532914162,-56.52557,16.76882,16.8042,-0.1844185,-0.6127135,0.7909785,-0.3147202,36.19823,-27.85968,1008.384
35.565086842,-28.75902,11.44217,8.285299,-0.3400273,-0.6254992,0.921019,0.07472229,37.34682,-27.03839,1008.384
35.599734306,-118.2631,-11.46243,-7.281605,-0.5963116,-1.039507,1.57648,1.232425,38.49685,-25.26465,1008.384
35.631906033,-28.5133,-18.26871,-28.42563,-0.2071773,-0.682965,0.7298798,1.232425,38.49685,-25.26465,1008.384
35.666553020,-42.82658,-21.16877,-30.01909,-0.0931982,-0.4622499,0.597604,1.645547,39.28786,-22.59262,1008.384
35.698725223,-52.47116,-9.746067,-26.2193,-0.1249275,-0.7318954,0.668941,0.523488,40.83905,-21.76546,1008.384
35.733368397,-24.64318,-11.63999,-22.97108,-0.1368439,-0.765873,0.6610602,0.523488,40.83905,-21.76546,1008.384
35.765540123,-1.361054,-6.905187,-19.53901,-0.03296454,-0.6856909,0.6144799,-1.342584,41.6509,-19.97438,1008.382
35.800187588,-6.152626,-4.656156,-9.242789,-0.1524153,-0.408547,0.7258471,-2.092427,42.04846,-19.5261,1008.384
35.832359314,-11.49707,0.1970151,-4.646263,-0.05529737,-0.8952692,0.6134425,-2.092427,42.04846,-19.5261,1008.384
35.867006302,8.959256,-4.241861,-3.236661,-0.1080837,-0.4746393,0.8068285,-2.470881,41.29156,-19.52044,1008.384
35.899178505,-34.22633,-5.188821,-1.398051,-0.1078043,-0.7431002,0.7376148,-3.220725,41.68912,-19.07215,1008.386
35.933821678,-22.43168,-14.89516,-2.685078,-0.1562433,-0.743906,0.6647962,-3.220725,41.68912,-19.07215,1008.386
35.965993404,-10.02274,-7.674592,-1.82706,-0.04945152,-0.8662933,0.5982028,-2.830714,42.45739,-18.18525,1008.387
35.998166084,-8.548411,-4.892896,-2.807652,-0.1499511,-0.7851253,0.7366976,-3.580815,42.47381,-17.7351,1008.389
36.032813072,24.8083,-46.7367,-18.92614,-0.3283298,-0.8112982,1.067352,-3.580815,42.47381,-17.7351,1008.389
36.064985275,60.68366,-21.28714,-27.93533,0.0692481,-0.3954455,0.6164009,-3.202876,42.46844,-17.73703,1008.391
36.099632263,-23.16885,-2.229571,-9.304076,0.1207673,-0.7869496,0.5485866,-4.348251,42.47318,-18.62379,1008.391
36.131800175,-24.45889,-1.341795,-0.4787453,-0.02703002,-0.8428084,0.6998891,-4.348251,42.47318,-18.62379,1008.393
36.166447163,8.037801,-0.9866852,3.259763,-0.03050036,-0.8781041,0.6523945,-5.470513,42.50065,-17.72543,1008.393
36.198619366,13.25939,-1.04587,5.404809,-0.02982751,-0.5521624,0.7490653,-5.839064,41.75349,-16.95472,1008.389
36.233266354,-39.14076,-1.51935,6.324114,-0.008217748,-0.6879517,0.7149682,-5.848711,42.12489,-17.72164,1008.389
36.265438557,-6.214056,3.629746,3.811347,-0.01673647,-0.9104801,0.6799551,-5.848711,42.12489,-17.72164,1008.387
36.300085545,-18.0087,2.741971,6.017679,-0.01574833,-0.6160925,0.7132209,-5.83277,42.52145,-16.51216,1008.389
36.332253456,-23.96745,8.542102,6.569262,-0.02651602,-0.7871395,0.6179214,-5.077148,42.12958,-16.51417,1008.387
36.366900444,0.05184584,11.08706,6.936985,-0.04164143,-0.8185315,0.6915496,-5.077148,42.12958,-16.51417,1008.389
36.399072647,-18.86872,8.423732,3.627485,-0.07162717,-0.6841871,0.658715,-4.692658,43.2733,-16.07541,1008.389
36.433719635,-16.65723,11.20543,3.259763,-0.002890462,-0.7595088,0.6285326,-5.065079,42.90321,-15.62533,1008.389
36.465892315,-21.63309,11.26461,6.20154,-0.06489914,-0.6978928,0.7110772,-5.065079,42.90321,-15.62533,1008.389
36.500538826,-33.24344,8.423732,4.546791,-0.07520968,-0.7103969,0.5934623,-4.291607,43.29067,-14.29222,1008.389
36.532707214,-40.4308,6.115517,8.162725,-0.05516286,-0.6805169,0.6417216,-3.529693,43.66674,-13.85167,1008.39
