Time (s),Gyroscope X (deg/s),Gyroscope Y (deg/s),Gyroscope Z (deg/s),Accelerometer X (g),Accelerometer Y (g),Accelerometer Z (g),Magnetometer X (uT),Magnetometer Y (uT),Magnetometer Z (uT),Barometer (hPa)
0.011414051,-4.41386,4.441189,5.722873,-0.1561992,0.3513784,0.9533851,-10.05138,2.912319,-48.17835,1006.737
0.043584824,7.44221,1.837049,5.722873,-0.1244877,0.4203638,0.9189539,-10.05138,2.912319,-48.17835,1006.739
0.078230858,-7.976824,-2.009977,1.187633,-0.1136023,0.3774088,0.9575402,-8.906522,2.145317,-47.28787,1006.739
0.110401630,-6.072481,-3.667157,-0.1606818,-0.1095837,0.3625404,0.9202662,-9.668436,1.769235,-47.72842,1006.739
0.145047665,-4.598151,-4.436563,-3.102459,-0.08876861,0.2897474,0.9353778,-9.662659,1.77492,-47.28214,1006.739
0.177218437,2.712068,-3.607973,-4.266912,-0.1080643,0.3176489,0.8904799,-9.662659,1.77492,-47.28214,1006.739
0.209389687,1.299168,-1.950792,-5.186218,-0.09815457,0.3109668,0.9115403,-9.673443,2.906951,-48.18029,1006.739
0.244035244,2.957789,-0.4711667,-4.573348,-0.1175317,0.3334377,0.9176904,-10.05215,1.768919,-48.17277,1006.74
0.276206017,3.817815,-0.2344266,-3.776616,-0.118427,0.3470558,0.920703,-10.05215,1.768919,-48.17277,1006.74
0.310851574,2.159194,0.5941636,-2.550876,-0.1222603,0.3621301,0.9218271,-10.05215,1.768919,-48.17277,1006.742
0.343022823,1.974903,0.7125336,-1.263848,-0.1344753,0.3602426,0.9209615,-9.296018,2.139315,-48.1785,1006.742
0.377668858,0.9920161,0.5941636,0.7586235,-0.139825,0.3694737,0.9186774,-9.296018,2.139315,-48.1785,1006.746
0.409839630,-0.8508963,0.4757935,2.106938,-0.1285938,0.3655561,0.9214324,-9.674472,1.382417,-48.17284,1006.745
0.444485187,-1.772352,0.8900887,2.47466,-0.1237767,0.3553198,0.918893,-10.05164,2.531186,-48.17649,1006.745
0.476656437,-2.018074,0.1798685,2.229512,-0.1158958,0.346643,0.931762,-10.05164,2.531186,-48.17649,1006.745
0.511302471,-1.649492,-0.1160566,1.065059,-0.1120751,0.3402615,0.9249257,-9.674472,1.382417,-48.17284,1006.743
0.543472767,-0.2980226,-0.4711667,-0.09939483,-0.115023,0.3373565,0.9239653,-10.04612,2.155737,-47.72835,1006.743
0.578118801,-0.05230091,-0.1752416,-0.589691,-0.1092003,0.3421329,0.9176843,-10.04612,2.155737,-47.72835,1006.741
0.610290050,1.053447,0.06149844,-1.0187,-0.1047584,0.3503773,0.9196389,-10.42432,1.779972,-47.72456,1006.741
0.644936085,-0.2365921,-0.1752416,-1.325135,-0.120365,0.3552988,0.918379,-9.289982,2.526134,-47.73408,1006.741
0.677106380,0.9920161,-0.2344266,-1.141274,-0.1203829,0.3470619,0.9202393,-9.289982,2.526134,-47.73408,1006.741
0.709277630,0.07055992,-0.2936116,-0.3445429,-0.1286256,0.3529544,0.9237388,-10.4238,2.542239,-47.72828,1006.741
0.743923664,0.5620032,-0.1752416,0.3296143,-0.1237056,0.356835,0.9266169,-10.04638,1.774604,-47.72649,1006.741
0.776093960,-0.9123267,-0.3527966,0.5134754,-0.1168967,0.3572638,0.9236649,-10.04638,1.774604,-47.72649,1006.739
0.810739994,-0.4208834,-0.7670917,-0.528404,-0.1168901,0.3490491,0.9284171,-9.674214,1.76355,-48.17471,1006.739
0.842911243,-1.035187,-0.9446468,-0.8961262,-0.1071292,0.3533536,0.9264335,-10.04008,2.542555,-47.28393,1006.739
0.877556801,-2.693809,-0.5303516,-1.508996,-0.1067438,0.3314974,0.9248037,-10.04008,2.542555,-47.28393,1006.741
0.909727573,0.377712,0.1206835,-1.386422,-0.1102668,0.3251306,0.9151441,-10.04612,2.155737,-47.72835,1006.741
0.944373608,3.08065,0.7125336,-0.9574131,-0.1160078,0.3508933,0.916374,-10.05215,1.768919,-48.17277,1006.743
0.976544857,1.852042,0.8900887,-0.1606818,-0.1290894,0.3578144,0.9242652,-10.05215,1.768919,-48.17277,1006.743
1.011189938,0.9920161,0.4166085,0.5747624,-0.1227542,0.3587421,0.9227678,-10.42406,2.161106,-47.72642,1006.743
1.043361187,-0.6051747,0.4757935,1.187633,-0.1276477,0.3534348,0.9237337,-9.673958,2.144684,-48.17657,1006.743
1.078006744,-0.5437442,0.1206835,1.371494,-0.1256516,0.3612023,0.925225,-9.673958,2.144684,-48.17657,1006.745
1.110177994,-2.509517,-0.4119816,1.24892,-0.1183845,0.3495123,0.9245789,-10.04586,2.53687,-47.73021,1006.745
1.144823551,-0.6666051,-0.8854617,0.08446624,-0.1071815,0.3436347,0.9249079,-10.04034,2.161422,-47.28207,1006.745
1.176994801,-1.40377,-1.122202,-0.650978,-0.1105954,0.3480057,0.9230477,-10.04034,2.161422,-47.28207,1006.745
1.211640358,-1.219479,-1.063017,-1.447709,-0.1106799,0.3324546,0.9205104,-10.04034,2.161422,-47.28207,1006.745
1.243811607,0.2548512,-0.4711667,-1.141274,-0.1165516,0.3315023,0.9191113,-10.05138,2.912319,-48.17835,1006.745
1.275982380,1.60632,-0.5303516,-0.9574131,-0.118911,0.3489961,0.9202415,-10.04663,1.39347,-47.72463,1006.746
1.310627937,-2.693809,0.4757935,-0.7122651,-0.1200899,0.3777932,0.9402519,-10.04663,1.39347,-47.72463,1006.746
1.342799187,-12.09266,-4.554933,-0.528404,-0.1577094,0.3750011,0.9945638,-9.66818,2.150369,-47.73029,1006.746
1.377445221,-39.36777,-10.71017,3.639113,-0.1267681,0.5905132,1.204276,-9.667665,2.912636,-47.73401,1006.746
1.409615517,-134.4006,-27.93301,9.27752,-0.2768453,0.7537193,1.501041,-9.667665,2.912636,-47.73401,1006.748
1.444261551,-212.6015,-96.94273,10.62583,-0.475418,0.1242439,1.694842,-10.0456,2.918004,-47.73207,1006.75
1.476432800,-190.3023,-165.1831,-7.821559,-0.345632,-0.1532803,1.477818,-11.17004,8.275663,-47.30604,1006.75
1.511077881,-224.5805,-197.9124,-46.73882,-0.152158,0.05736171,1.286395,-11.17004,8.275663,-47.30604,1006.751
1.543249130,-346.7656,-209.3943,-124.3282,0.01587487,-0.1784484,0.8384796,-15.65632,13.72062,-43.80239,1006.751
1.577895164,-307.4501,-195.1899,-201.9176,0.5497842,-0.7545711,0.3660286,-22.03286,20.01649,-35.5109,1006.751
1.610066414,-218.6217,-139.7335,-243.3476,0.7035872,-0.7934594,0.3946388,-22.03286,20.01649,-35.5109,1006.748
1.644711494,-121.0702,-98.6591,-254.5018,0.5566469,-0.5172566,0.429135,-29.81354,25.23421,-23.69992,1006.748
1.676882744,-88.63496,-79.42397,-244.3895,0.5269302,-0.05439917,0.3855101,-36.15581,21.97892,-17.0836,1006.748
1.711528778,-162.2286,-48.23347,-225.5131,0.5624087,0.08641945,0.4162239,-36.15581,21.97892,-17.0836,1006.745
1.743700027,-137.5336,-14.26128,-199.3435,0.5771911,-0.1831683,0.2731197,-40.64562,14.85135,-13.13602,1006.745
1.778345108,-60.19268,12.25361,-144.2465,0.5405463,0.1510438,0.2222329,-42.8843,7.675318,-10.47513,1006.741
1.810516357,-84.02768,25.3335,-118.2608,0.6715375,-0.05932232,0.4067742,-42.8843,7.675318,-10.47513,1006.739
1.842687607,-18.66572,21.01299,-71.98907,0.5510794,-0.0761746,0.598631,-42.88764,1.514472,-10.3813,1006.739
1.877333164,48.96917,9.05762,-39.44566,0.6924186,-0.07614797,0.6932303,-42.53564,-2.706104,-12.14788,1006.739
1.909503937,61.25525,2.902379,-17.99521,0.7361556,0.061173,0.7792682,-42.53564,-2.706104,-12.14788,1006.739
1.944149971,61.19382,-9.822399,0.5747624,0.8184935,0.07857167,0.6967034,-41.78053,-3.860241,-12.14617,1006.739
1.976321220,68.93405,-9.763214,3.639113,0.7789015,-0.1943577,0.588783,-41.77604,-5.760224,-11.69059,1006.737
2.010966301,136.6918,0.002313428,17.48998,0.8408921,-0.04333189,0.5754716,-41.77604,-5.760224,-11.69059,1006.736
2.043137550,102.4751,0.6533486,36.79539,0.7634759,0.33235,0.5889311,-41.77026,-5.754539,-11.2443,1006.74
2.077783108,59.59663,9.64947,63.14881,0.645867,0.3054434,0.4856948,-41.76525,-6.892255,-10.79244,1006.738
2.109954357,117.0341,15.21286,86.19273,0.5153862,-0.08766663,0.5959774,-41.76525,-6.892255,-10.79244,1006.738
2.144599915,181.4746,17.817,113.8332,0.7091775,0.185607,0.4701381,-42.13747,-5.738614,-10.41356,1006.736
2.176771164,148.0564,57.53015,146.1315,0.6844912,0.173974,0.2673508,-42.51387,-3.446444,-10.42279,1006.736
2.211416721,209.7326,112.7498,189.6452,0.8053538,0.2868662,0.1934078,-42.51387,-3.446444,-10.42279,1006.736
2.243587971,195.7264,177.5574,217.8373,0.7201973,0.5074226,0.2900106,-42.15641,-0.8058052,-12.15912,1006.734
2.278233051,117.5255,219.4603,222.4951,0.5544823,0.3676755,0.4403066,-41.46401,4.135933,-17.35159,1006.734
2.310404301,-15.22561,244.9099,206.1315,0.4526552,0.03809069,0.5614495,-37.7894,8.930595,-25.74694,1006.736
2.345050335,18.1311,268.288,211.2796,0.3482192,-0.4018894,0.7159286,-37.7894,8.930595,-25.74694,1006.734
2.377221584,-52.57531,209.3989,158.5114,-0.1279925,-0.8790477,0.7819903,-32.21746,15.22945,-33.64938,1006.734
2.409391880,86.50315,185.9024,125.4777,-0.04874329,-0.4852298,0.7305136,-23.59476,21.51215,-39.46338,1006.734
2.444037914,51.30352,194.3067,81.84135,-0.4479688,-0.2088088,0.8825634,-23.59476,21.51215,-39.46338,1006.736
2.476209164,2.773498,94.34322,108.1335,-0.699088,-1.857358,2.518308,-15.66542,25.89984,-45.20078,1006.736
2.510855198,726.6081,-62.43787,-21.3047,-0.7815778,0.8023698,0.1825814,-9.660956,29.96174,-48.75868,1006.74
2.543025494,-88.63496,-25.2105,-45.32922,0.2639564,1.575242,0.9402742,-9.660956,29.96174,-48.75868,1006.74
2.577671528,-235.0236,8.70251,-41.95843,-0.1245063,-0.3482289,0.8239299,-8.566896,21.14627,-51.33561,1006.74
2.609842777,90.4347,0.8900887,-25.96252,-0.08435379,-0.381632,0.7982159,-9.662895,18.53342,-48.25658,1006.74
2.644487858,89.20609,18.52722,-21.05956,-0.1902247,0.1824956,0.9349583,-9.662895,18.53342,-48.25658,1006.74
2.676659107,109.4167,21.84158,-14.80828,-0.1324501,0.07566424,0.7768886,-10.80018,21.97404,-48.71381,1006.742
2.711305141,111.8125,4.026894,2.045651,-0.1548339,0.5762882,1.355768,-10.04764,17.00857,-48.69348,1006.742
2.743476391,-16.76137,-5.797818,5.78416,-0.08408119,0.5113195,1.095739,-10.04764,17.00857,-48.69348,1006.746
2.778121948,-46.37083,-8.697884,9.154945,-0.1409341,0.2006293,0.9264538,-8.928723,12.02636,-49.56766,1006.744
2.810292721,-26.40595,-5.679448,1.677929,-0.09021372,0.02537174,0.8912778,-9.679339,11.28052,-49.11378,1006.744
2.844938278,20.1583,-0.9446468,2.106938,0.008133033,0.1000367,0.9439957,-9.679339,11.28052,-49.11378,1006.744
2.877109528,19.91258,3.967709,1.86179,-0.008381227,0.223425,1.009755,-9.671761,13.95414,-48.68053,1006.744
2.909280300,-8.775419,3.671784,-3.225033,-0.1674408,0.1990937,1.025016,-9.678568,12.42392,-49.11937,1006.742
2.943926334,-14.30416,-4.791673,-3.592755,-0.1459486,0.1367001,0.9413977,-9.678568,12.42392,-49.11937,1006.742
2.976097107,-2.8781,-3.489603,-4.879783,-0.08814529,0.1124356,0.9792182,-9.300885,12.03742,-49.11944,1006.742
3.010743141,-0.359453,-0.5303516,-7.698986,-0.08627997,0.1355585,0.9577014,-9.672532,12.81074,-48.67495,1006.742
3.042913914,10.39087,0.5941636,-6.105523,-0.0810622,0.1237896,0.9455057,-9.672532,12.81074,-48.67495,1006.742
3.077559471,29.74145,0.1798685,0.5747624,-0.06019482,0.2448806,0.9892072,-9.672532,12.81074,-48.67495,1006.742
3.109730721,13.21667,0.7717186,4.74228,-0.09962942,0.3505421,1.007316,-10.05599,13.19155,-49.12115,1006.745
3.144376755,-20.32434,-0.9446468,5.048715,-0.116654,0.25932,0.999975,-10.05599,13.19155,-49.12115,1006.743
3.176547051,-34.02332,-3.312047,0.9424846,-0.09206792,0.1264615,0.9702123,-9.679596,10.89938,-49.11192,1006.743
3.211193085,-19.40288,-1.477312,-0.09939483,-0.02998532,0.00930235,0.9233593,-9.300628,12.41855,-49.1213,1006.743
3.243364334,8.855109,2.192159,-2.796024,-0.06263491,0.06749753,0.9588476,-9.300628,12.41855,-49.1213,1006.743
3.278010368,5.783588,-0.2344266,0.5747624,-0.1209576,0.3101222,1.102136,-10.05574,13.57269,-49.12302,1006.743
3.310180664,-61.42128,6.21674,8.419501,-0.1181132,0.6294839,1.228134,-9.672018,13.573,-48.67867,1006.743
3.344826698,-190.3023,-20.00222,24.29284,-0.2098527,0.7111823,1.189176,-10.05021,13.19724,-48.67487,1006.743
3.376997948,-246.3268,-62.14195,48.62379,-0.2654786,0.4459467,1.376452,-10.05021,13.19724,-48.67487,1006.743
3.411643505,-313.5317,-107.7144,45.37558,-0.349036,0.04367212,1.209553,-10.4067,19.3178,-47.36387,1006.741
3.443814278,-360.8946,-161.632,4.435845,-0.1952102,-0.4272446,1.043248,-12.23276,29.31015,-43.00353,1006.747
3.475985527,-370.3548,-185.5427,-59.18008,0.1489023,-0.8971259,0.7561216,-12.23276,29.31015,-43.00353,1006.747
3.510631561,-178.3848,-186.0754,-92.88795,0.5093297,-1.743074,0.6180545,-14.72395,40.54515,-31.69567,1006.747
3.542802811,-17.19139,-192.5857,-94.66528,0.4265448,-0.9264637,0.5923012,-20.28843,45.74293,-19.00341,1006.747
3.577447891,-72.72448,-190.3959,-117.4641,0.3849161,-0.9602432,0.5909652,-20.28843,45.74293,-19.00341,1006.745
3.609619141,10.39087,-181.9324,-135.7888,0.3132939,-0.9073719,0.2884097,-24.73155,40.56569,-11.55865,1006.745
3.644264698,48.232,-149.4398,-115.1964,0.4538727,-0.410928,0.05211893,-29.94629,36.52634,-5.390689,1006.744
3.676435947,30.47861,-100.2571,-106.555,0.5693214,-0.4464319,-0.07167888,-29.94629,36.52634,-5.390689,1006.746
3.711081505,23.96699,-56.22345,-99.13923,0.5875601,-0.3661201,-0.03069902,-33.29992,31.67027,-1.396323,1006.744
3.743252754,12.78666,-27.87383,-83.32718,0.5739869,-0.3051149,0.06681247,-35.15783,28.68134,1.242163,1006.744
3.777898312,23.41412,-9.230549,-63.89919,0.6485868,-0.2369512,0.1423522,-35.15783,28.68134,1.242163,1006.737
3.810069561,16.16533,0.4166085,-47.84199,0.6584237,-0.2370416,0.3259015,-37.43356,25.27767,0.8242302,1006.737
3.844714642,19.85115,-0.1752416,-36.38131,0.7008166,-0.2813516,0.3979225,-38.94661,23.39348,0.8412704,1006.739
3.876885891,16.04247,-7.750923,-24.43034,0.7958168,-0.2375177,0.4157134,-38.94661,23.39348,0.8412704,1006.739
3.911531925,2.466346,-19.46955,-14.80828,0.88582,-0.1951791,0.3622027,-39.32557,21.87431,0.850647,1006.735
3.943703175,-15.96278,-18.64096,-8.43443,0.9823602,-0.3078475,0.2904831,-39.71032,20.34946,0.413744,1006.735
3.978348255,6.213602,-17.87156,-3.102459,0.9072282,-0.3209969,0.2992698,-39.71032,20.34946,0.413744,1006.735
4.010519505,-17.92855,-17.22053,-1.876718,0.9388072,-0.2521693,0.3072546,-41.21053,20.38231,1.314041,1006.735
4.042690754,-27.94171,-13.25513,-3.041172,0.9439557,-0.3649922,0.2195165,-40.44309,20.38294,2.202734,1006.734
4.077336788,-16.33136,-6.567223,-2.305728,0.9102146,-0.3803625,0.2187406,-40.44309,20.38294,2.202734,1006.735
4.109507084,-0.7280354,-3.607973,-2.305728,0.9312606,-0.3610673,0.2167753,-40.04286,20.3995,3.922169,1006.735
4.144153118,-17.98998,-1.122202,-1.999292,0.9154882,-0.3316344,0.1839071,-40.79926,19.64797,3.929758,1006.729
4.176324368,-32.18041,1.955419,-5.063643,0.9613317,-0.3676344,0.1398026,-40.79926,19.64797,3.929758,1006.729
4.210969925,-46.67799,4.382005,-7.821559,1.005787,-0.4310095,-0.05634443,-40.42735,19.25578,3.483404,1006.729
4.243140698,-70.88157,17.0476,-9.231161,1.031112,-0.4064076,-0.2486957,-40.79374,19.27252,4.377899,1006.726
4.277786732,-123.5274,63.38946,-8.250568,0.9700647,-0.5969714,-0.4526189,-40.79374,19.27252,4.377899,1006.726
4.309957981,-184.7736,104.1679,-11.98908,1.164051,-0.4360053,-0.7914656,-41.16063,18.52699,5.276115,1006.728
4.344603539,-216.1031,229.285,4.006836,0.9330269,-0.6917059,-0.8656458,-41.55642,17.75304,3.94293,1006.727
4.376774311,-236.0065,309.4808,-0.8348391,0.503187,-0.8648834,-0.2480313,-41.55642,17.75304,3.94293,1006.725
4.411419869,-433.321,650.1497,231.2591,-5.83347,2.89233,-1.885897,-42.37003,16.56434,-0.4466724,1006.721
4.443591118,866.4852,157.8487,-148.4753,5.283636,-0.6040143,0.02956046,-42.08283,15.32705,-7.392251,1006.718
4.478237152,66.04682,81.32253,64.68098,-1.651435,0.7428531,-0.1655083,-42.44952,16.10524,-6.565231,1006.718
4.510407925,-281.7722,-18.1083,1.739216,0.9419174,0.1622511,0.36077,-42.44952,16.10524,-6.565231,1006.72
4.545053482,-120.9474,28.35193,39.49202,1.166889,-1.314561,0.08814409,-40.99968,16.02286,-11.35455,1006.718
4.577224731,-48.5209,-4.318192,13.26118,0.680917,-0.5046003,0.5770175,-40.95299,17.97319,-7.857358,1006.718
4.609395981,-29.41604,1.304384,15.40622,0.855995,-0.8172499,0.3660286,-40.95299,17.97319,-7.857358,1006.718
4.644041061,39.63174,21.72321,26.56046,0.5871375,-0.6733862,0.5326392,-40.56329,19.50291,-7.037929,1006.718
4.676212311,85.95028,33.32347,41.08548,0.4936921,-0.5702519,0.6288333,-40.20738,19.85675,-8.763091,1006.72
4.710858345,122.0099,34.8031,59.83931,0.391511,-0.3307012,0.7228595,-40.20738,19.85675,-8.763091,1006.72
4.743029594,114.024,46.99522,77.48997,0.3717136,-0.3521338,0.7002135,-39.85725,20.2049,-10.93453,1006.72
4.777674675,139.6405,59.00977,102.6177,0.3090487,-0.3998803,0.6994407,-38.76806,21.28753,-14.45241,1006.718
4.809845924,178.8945,60.84451,123.5165,0.2237566,-0.3355651,0.7393267,-38.76806,21.28753,-14.45241,1006.718
4.844491959,174.963,58.71385,129.8291,0.3605849,-0.3592077,0.6568791,-36.55552,22.72463,-18.80675,1006.718
4.876663208,199.228,76.6469,145.4573,0.2385312,-0.3958867,0.6683196,-32.84278,24.12888,-24.06139,1006.718
4.911308289,169.3114,69.84063,146.4379,0.2803556,-0.2469893,0.8696687,-32.84278,24.12888,-24.06139,1006.717
4.943479538,85.15168,75.69994,145.396,0.2494421,-0.181263,0.875801,-29.14263,23.99723,-30.20115,1006.717
4.978125095,58.24516,63.09354,132.587,0.07920703,-0.5878482,0.8494555,-25.03673,23.5067,-34.17333,1006.715
5.010296345,85.09025,61.08125,122.0456,0.1897748,-0.5407507,0.8598981,-25.03673,23.5067,-34.17333,1006.715
5.044942379,118.0784,62.8568,106.4787,0.05254737,-0.4343719,0.9709874,-20.1734,25.29222,-38.16055,1006.715
5.077113152,108.1881,50.84224,88.15392,0.05074172,-0.3777637,1.135351,-15.62683,24.41429,-42.13313,1006.721
5.109284401,69.79408,50.13202,76.50938,-0.01683317,-0.1944046,1.077243,-15.62683,24.41429,-42.13313,1006.721
5.143929958,45.52906,33.56021,63.88425,-0.05322381,-0.1606291,1.027733,-11.52799,22.01239,-46.54229,1006.721
5.176101208,24.82702,30.95607,53.95576,-0.07639664,-0.02295103,0.9910064,-7.799718,20.76577,-50.44506,1006.721
5.210746288,-23.8873,29.47645,42.86281,-0.08911839,-0.05483439,1.00243,-7.799718,20.76577,-50.44506,1006.721
5.242917538,-190.9166,-54.86219,-10.51819,0.07147285,-0.2751369,1.869125,-5.572731,19.17004,-53.50943,1006.722
5.277563572,-82.73764,-31.72086,25.76373,-0.03408991,-0.3502624,0.4924178,-1.804377,19.86726,-54.42505,1006.722
5.309734821,-27.81885,-32.54944,6.948613,0.06402732,-0.4616087,0.782194,-1.804377,19.86726,-54.42505,1006.722
5.344379902,3.387802,-29.05753,0.5747624,0.02421113,-0.4270074,0.9636006,-2.911224,25.6231,-52.66204,1006.724
5.376551151,122.7471,-40.95372,2.47466,0.09977308,-0.07173328,1.072828,-3.654829,27.9312,-51.84053,1006.724
5.411197186,67.52116,-35.92299,3.026243,0.1391745,0.05848201,1.052808,-3.654829,27.9312,-51.84053,1006.724
5.443368435,54.06789,-2.305902,-7.147402,0.4074892,-0.0386725,1.089509,-5.194395,28.30619,-54.0023,1006.724
5.478013515,-32.05754,6.09837,-3.715329,-0.0477161,0.2939141,0.9986529,-6.720025,24.8861,-54.87038,1006.724
5.510184765,-81.93904,2.251344,-0.1606818,0.09542261,-0.07308709,1.02032,-6.720025,24.8861,-54.87038,1006.724
5.544830799,-56.13827,-1.950792,1.126346,0.005788495,-0.3339225,0.874888,-6.726832,23.35588,-55.30922,1006.724
5.577001572,-3.246682,-0.5303516,-1.325135,0.06216275,-0.3644343,0.9199003,-6.330273,25.27323,-53.98162,1006.724
5.611647606,42.64183,0.002313428,-1.63157,0.05268551,-0.1707759,0.9760513,-6.701148,27.18995,-53.54271,1006.726
5.643818378,40.30748,-0.5895367,-2.918598,0.06088541,-0.1022749,0.9895535,-6.701148,27.18995,-53.54271,1006.726
5.675989628,37.42025,-0.2936116,-1.754144,0.06947813,-0.0401494,0.9948053,-6.713218,26.41632,-54.43155,1006.724
5.710635185,19.23685,0.4757935,-1.815431,0.07423563,-0.005505379,1.021556,-6.353385,25.25049,-55.76674,1006.724
5.742806435,-2.816669,1.718679,-2.121867,0.05709869,-0.01272604,1.018283,-6.353385,25.25049,-55.76674,1006.724
5.777451515,-9.205432,0.6533486,-2.244441,0.0584431,-0.09211001,0.984358,-6.732097,24.11246,-55.75922,1006.728
5.809622765,-1.833783,-0.1752416,-1.508996,0.05200307,-0.1095744,0.9813821,-6.732097,24.11246,-55.75922,1006.726
5.844268799,2.282055,-0.7079067,-0.2219689,0.05894985,-0.1022503,0.9914996,-6.732097,24.11246,-55.75922,1006.726
5.876440048,2.466346,-0.8854617,1.616642,0.06144571,-0.08673741,0.9906402,-6.732097,24.11246,-55.75922,1006.725
5.911085129,6.336462,-0.8854617,2.47466,0.05804574,-0.07606738,0.9873859,-6.342601,24.11846,-54.86859,1006.725
5.943256378,4.55498,-1.654867,0.3296143,0.08456139,-0.06734493,1.002634,-6.342601,24.11846,-54.86859,1006.725
5.977902412,-1.895213,2.547269,0.3296143,0.06990656,-0.06825299,1.001318,-5.976216,24.10172,-55.76309,1006.723
6.010073662,0.009129502,3.790154,1.555355,0.05797164,-0.09692825,0.9886607,-6.3539,24.48822,-55.76302,1006.723
6.044718742,5.230715,0.9492736,2.719808,0.04909918,-0.09889942,0.9790872,-6.3539,24.48822,-55.76302,1006.723
6.076889992,7.565071,-1.714052,2.903669,0.0391122,-0.05944218,0.9910737,-5.598792,23.33409,-55.7613,1006.723
6.111536026,8.425097,-3.252862,1.494068,0.06947431,-0.04498857,0.9966936,-6.353588,23.72677,-55.69554,1006.723
6.143707275,4.063537,-0.5895367,-2.305728,0.06288734,-0.01716844,1.012408,-6.353588,23.72677,-55.69554,1006.721
6.178352833,-6.379633,-0.2344266,-3.347607,0.07294104,-0.05027862,1.005294,-5.976216,24.10172,-55.76309,1006.721
6.210523605,-8.529697,0.6533486,-1.63157,0.06192398,-0.09593649,0.993934,-6.732867,22.96906,-55.75364,1006.721
6.242694855,-0.9737571,0.7125336,0.8199105,0.06319818,-0.1212619,0.9835914,-6.732867,22.96906,-55.75364,1006.721
6.277340412,10.51373,-0.3527966,2.229512,0.06049208,-0.08526153,0.9925894,-5.982251,23.7149,-56.20751,1006.723
6.309511662,10.94374,1.659494,1.86179,0.05981028,-0.03663224,1.004083,-6.354413,23.72596,-55.7593,1006.723
6.344157219,4.49355,0.4757935,0.3296143,0.05595829,-0.01335429,0.9990084,-6.354413,23.72596,-55.7593,1006.725
6.376327992,-4.106708,-0.5895367,-0.7735521,0.04814318,-0.01912488,1.000962,-6.348893,23.35051,-55.31115,1006.723
6.410974026,-9.328293,-1.891607,-1.999292,0.05723703,-0.04834698,0.9938881,-6.354671,23.34482,-55.75743,1006.723
6.443145275,-8.652558,-1.418127,-2.612163,0.06932983,-0.07993693,0.9964068,-6.354671,23.34482,-55.75743,1006.723
6.477790356,-4.598151,0.2390535,-2.550876,0.06924104,-0.09162333,0.9914912,-6.354928,22.96369,-55.75557,1006.723
6.509961605,-2.079505,0.2982385,-1.447709,0.06187929,-0.09597714,0.9886321,-5.986947,24.09117,-56.5919,1006.725
6.544607639,1.299168,-0.2936116,-0.40583,0.06835797,-0.07992831,0.9968979,-5.986947,24.09117,-56.5919,1006.725
6.576778889,1.299168,0.1206835,0.4521884,0.05813683,-0.06969815,0.9951496,-5.976474,23.72059,-55.76123,1006.729
6.611424446,1.60632,-0.4119816,0.2683273,0.06204022,-0.06488236,0.9927429,-6.73261,23.35019,-55.7555,1006.729
6.643595219,-0.4823138,-0.1160566,-0.2832559,0.06360687,-0.0488385,0.9971985,-6.348893,23.35051,-55.31115,1006.729
6.678241253,-1.833783,0.4757935,-0.528404,0.06445204,-0.07459146,0.9940863,-6.348893,23.35051,-55.31115,1006.729
6.710412502,0.07055992,1.067644,-0.09939483,0.05947564,-0.08722774,0.9887266,-6.732867,22.96906,-55.75364,1006.729
6.745058060,3.264941,0.2390535,0.5134754,0.05613651,-0.07456812,0.9917541,-6.738131,23.72564,-56.20364,1006.729
6.777228832,2.957789,-0.4711667,0.6973364,0.05771697,-0.05029102,0.9938676,-6.738131,23.72564,-56.20364,1006.729
6.809400082,-0.4208834,-0.3527966,0.2683273,0.06265143,-0.05171638,1.00104,-5.970439,24.10741,-55.31681,1006.73
6.844045639,-2.755239,0.06149844,-0.528404,0.06206063,-0.06679808,0.9961008,-6.348893,23.35051,-55.31115,1006.73
6.876216888,-1.956644,0.5941636,-0.3445429,0.05903022,-0.08476875,0.9926071,-6.348893,23.35051,-55.31115,1006.73
6.910862923,2.036333,-0.1160566,-0.2219689,0.06298006,-0.07459147,0.993136,-6.354413,23.72596,-55.7593,1006.73
6.943033218,3.510663,0.3574235,0.02317921,0.06171618,-0.05264162,1.006343,-5.981941,22.95345,-56.14003,1006.733
6.977679253,0.684864,0.4757935,0.1457533,0.06986638,-0.07699377,1.000764,-5.981941,22.95345,-56.14003,1006.733
7.009850502,-0.1137313,-0.1752416,0.3909014,0.05522692,-0.06047937,0.9928428,-5.976731,23.33945,-55.75937,1006.733
7.044496536,-0.1751617,-0.05687159,0.5134754,0.05810839,-0.06972402,0.9917756,-6.354928,22.96369,-55.75557,1006.733
7.076666832,0.9920161,-0.2936116,0.3909014,0.06445777,-0.06733271,0.9912542,-6.354928,22.96369,-55.75557,1006.733
7.111312866,0.5620032,-0.05687159,0.02317921,0.0639291,-0.06543302,0.9854908,-6.348893,23.35051,-55.31115,1006.733
7.143484116,1.237738,0.002313428,-0.1606818,0.05861216,-0.06100786,0.9894329,-6.360706,22.95801,-56.20185,1006.733
7.178130150,0.5620032,0.1798685,-0.528404,0.06208696,-0.06532343,0.9985228,-6.360706,22.95801,-56.20185,1006.731
7.210300922,0.7462944,0.2982385,-0.467117,0.06253845,-0.06729333,0.9951283,-6.726832,23.35588,-55.30922,1006.731
7.244946480,1.852042,0.4757935,0.02317921,0.06014273,-0.05466817,0.9942908,-6.354671,23.34482,-55.75743,1006.731
7.277117729,1.114877,0.1798685,0.2683273,0.05819322,-0.05997549,0.9971572,-6.354671,23.34482,-55.75743,1006.731
7.309288979,-0.9737571,-0.1160566,-0.03810781,0.05335161,-0.04686003,0.9953825,-6.737563,23.34532,-56.13803,1006.731
7.343934536,-2.079505,-0.8262767,-0.528404,0.06012296,-0.06532467,0.9970951,-6.732867,22.96906,-55.75364,1006.731
7.376105309,-2.202365,-0.7079067,-0.2219689,0.06493378,-0.07218174,0.9921737,-6.732867,22.96906,-55.75364,1006.731
7.410750866,-0.1751617,0.4166085,-0.2832559,0.07066011,-0.08973715,0.9852276,-5.982509,23.33377,-56.20565,1006.731
7.442922115,2.650637,0.6533486,0.08446624,0.06303649,-0.06583591,0.9956177,-6.737821,22.96419,-56.13617,1006.735
7.477568149,4.247828,1.067644,0.5747624,0.05285406,-0.05798838,0.9996334,-6.737821,22.96419,-56.13617,1006.735
7.509739399,1.176307,0.06149844,0.3909014,0.06217536,-0.04590028,0.999646,-6.732867,22.96906,-55.75364,1006.735
7.544384479,-1.096618,-0.6487217,0.1457533,0.06110033,-0.05420617,0.9918756,-6.354928,22.96369,-55.75557,1006.735
7.576555729,-1.280909,-0.5303516,-0.09939483,0.06058859,-0.06583099,0.9946766,-6.354928,22.96369,-55.75557,1006.735
7.611201763,0.6234336,-0.1160566,0.02317921,0.06403673,-0.06485156,0.9980265,-5.987461,23.3289,-56.58818,1006.733
7.643373012,1.299168,0.2390535,0.02317921,0.06301427,-0.06827396,0.9941518,-6.360449,23.33914,-56.20372,1006.739
7.678018093,1.422029,0.5349786,0.1457533,0.06303018,-0.06148953,0.9927617,-6.354671,23.34482,-55.75743,1006.739
7.710189342,0.7462944,0.2390535,0.3909014,0.05919942,-0.05656787,0.9991039,-6.354671,23.34482,-55.75743,1006.741
7.744835377,0.5620032,-0.2936116,0.02317921,0.05623303,-0.05513757,0.9938415,-6.73261,23.35019,-55.7555,1006.741
7.777006626,-0.6051747,-0.1752416,-0.40583,0.06307252,-0.05516463,0.9947413,-6.737306,23.72645,-56.13989,1006.741
7.811652183,-1.4652,0.2390535,-0.528404,0.0629736,-0.06734382,0.9888579,-6.737306,23.72645,-56.13989,1006.739
7.843822956,0.6234336,0.5941636,-0.467117,0.05965116,-0.06337324,0.9980796,-6.73261,23.35019,-55.7555,1006.737
7.875994205,0.2548512,0.1798685,-0.528404,0.06402645,-0.06244307,0.9956365,-6.73261,23.35019,-55.7555,1006.737
7.910639763,0.009129502,0.2982385,0.3909014,0.06055629,-0.06972893,0.9927168,-6.73261,23.35019,-55.7555,1006.737
7.942811012,-0.1751617,-0.6487217,0.7586235,0.0609954,-0.06784154,0.9859803,-6.732352,23.73133,-55.75736,1006.737
7.977457047,3.264941,0.1798685,0.6360494,0.06264526,-0.05027129,0.9996056,-6.73261,23.35019,-55.7555,1006.737
8.009627342,0.07055992,0.3574235,-0.09939483,0.05927186,-0.04296207,1.001143,-6.73261,23.35019,-55.7555,1006.737
8.044273376,-1.40377,0.002313428,-0.589691,0.05961616,-0.05421726,0.9894795,-6.354671,23.34482,-55.75743,1006.735
8.076444626,-2.202365,0.002313428,-0.9574131,0.0591589,-0.05853901,0.995232,-6.732867,22.96906,-55.75364,1006.74
8.111090660,-1.588061,-0.5895367,-1.263848,0.06105012,-0.06537392,0.9913021,-6.732867,22.96906,-55.75364,1006.74
8.143260956,-1.035187,-0.3527966,-1.0187,0.06634096,-0.0761092,0.9873082,-6.732352,23.73133,-55.75736,1006.74
8.177906990,0.5620032,0.1206835,-0.40583,0.06355479,-0.06339292,0.9980431,-6.366227,23.33345,-56.65,1006.738
8.210078239,0.6234336,1.126829,0.4521884,0.06440721,-0.07173081,0.9873623,-6.366227,23.33345,-56.65,1006.738
8.244723797,2.343485,0.2390535,1.003772,0.05915464,-0.05467433,0.992854,-6.354413,23.72596,-55.7593,1006.738
8.276895046,2.282055,-0.05687159,0.7586235,0.06011004,-0.05082935,0.9885387,-6.354671,23.34482,-55.75743,1006.736
8.311540604,-0.4208834,-0.2344266,-0.03810781,0.06163489,-0.05174841,0.9962289,-6.354671,23.34482,-55.75743,1006.736
8.343711853,-1.096618,0.002313428,-0.2219689,0.06647013,-0.05955039,0.9946735,-5.976731,23.33945,-55.75937,1006.734
8.375883103,-0.6051747,-0.1160566,-0.2219689,0.06301814,-0.06440189,0.9927378,-6.359624,23.33995,-56.13996,1006.732
8.410528660,-0.05230091,-0.05687159,-0.2832559,0.06352386,-0.05423325,0.9899248,-6.359624,23.33995,-56.13996,1006.732
8.442699909,-0.7894659,-0.4119816,-0.650978,0.05441019,-0.03470055,0.9993289,-6.73261,23.35019,-55.7555,1006.731
8.477344990,-3.123822,-1.122202,-1.447709,0.05628589,-0.05605664,1.000581,-6.360449,23.33914,-56.20372,1006.731
8.509516239,-6.563925,-1.654867,-1.815431,0.05765456,-0.06146986,0.9918479,-6.360449,23.33914,-56.20372,1006.731
8.544162273,-4.721012,-1.122202,-2.918598,0.0590497,-0.06830969,0.9869586,-6.354671,23.34482,-55.75743,1006.732
8.576333523,-2.140935,-1.358942,-2.796024,0.08248623,-0.07856934,0.9934033,-6.732097,24.11246,-55.75922,1006.731
8.610979557,-0.9123267,0.5349786,-2.121867,0.08235887,-0.09077437,0.9841459,-6.732097,24.11246,-55.75922,1006.731
8.643149853,0.2548512,1.600309,-1.999292,0.06541184,-0.07751244,0.9935713,-6.738131,23.72564,-56.20364,1006.731
8.677795887,3.449233,1.186014,-0.7735521,0.05078747,-0.07790926,0.9956325,-6.737306,23.72645,-56.13989,1006.731
8.709967136,1.54489,-0.3527966,0.4521884,0.05865283,-0.06193801,0.9947267,-6.737306,23.72645,-56.13989,1006.731
8.744612694,0.4391424,-0.4119816,0.5747624,0.07036588,-0.06441294,0.996043,-6.738388,23.34451,-56.20178,1006.731
8.776783466,1.790612,-0.4711667,0.6360494,0.07220635,-0.07177757,0.9863252,-6.732867,22.96906,-55.75364,1006.729
8.811429501,3.572093,0.9492736,0.3909014,0.07134591,-0.06538125,0.99699,-6.737306,23.72645,-56.13989,1006.729
8.843600273,4.063537,1.363569,-0.03810781,0.05597914,-0.06411007,1.026064,-6.737306,23.72645,-56.13989,1006.729
8.878246307,0.377712,0.3574235,-0.7122651,0.05437049,-0.05311227,1.003515,-6.360706,22.95801,-56.20185,1006.729
8.910417557,-2.632378,-1.654867,-0.7735521,0.06458659,-0.04400425,0.9953012,-6.366485,22.95232,-56.64814,1006.731
8.942588329,1.54489,-1.595682,-0.1606818,0.05980676,-0.04727397,1.008815,-6.366485,22.95232,-56.64814,1006.733
8.977233887,0.8691553,-0.05687159,1.003772,0.07842726,-0.09948441,0.9850748,-7.493958,22.59379,-56.13044,1006.733
9.009405136,5.783588,1.186014,3.51654,0.05902356,-0.07365272,0.9864327,-6.738903,22.58224,-56.19806,1006.733
9.044051170,6.090741,1.541124,4.190697,0.0688708,-0.04944332,0.9850945,-6.738903,22.58224,-56.19806,1006.733
9.076222420,-1.895213,0.7717186,1.494068,0.06820589,-0.01337147,1.004678,-7.111066,22.59329,-55.74984,1006.733
9.110867500,-4.045278,2.961564,-0.2832559,0.03023478,0.02800503,0.9957334,-6.738646,22.96338,-56.19992,1006.733
9.143038750,-30.03034,-0.4119816,-3.776616,0.05773457,-0.04547668,1.051747,-6.738646,22.96338,-56.19992,1006.733
9.177684784,-36.29625,13.02302,5.048715,0.09700253,0.01022231,0.9356779,-6.360449,23.33914,-56.20372,1006.733
9.209856033,-39.73635,5.50652,-0.2219689,-0.06862088,-0.1627705,1.054851,-6.732352,23.73133,-55.75736,1006.733
9.244501591,-102.2725,-13.66943,-17.62748,-0.09017136,0.01209235,1.309543,-6.732352,23.73133,-55.75736,1006.731
9.276672363,-343.694,-50.60087,-52.74495,-0.220654,-0.0170414,1.475847,-5.574137,25.64363,-53.98734,1006.731
9.311317921,-259.3501,-116.533,-119.6704,0.04965183,-2.018572,1.102554,-6.242938,28.78708,-47.43166,1006.731
9.343489170,96.27058,-111.8574,-148.5366,0.1446864,-1.199361,1.213979,-6.242938,28.78708,-47.43166,1006.731
9.378135204,-18.97287,-177.5527,-192.7858,0.111096,-0.3773893,1.348798,-10.99047,39.68454,-35.21778,1006.731
9.410306454,-104.054,-180.3936,-233.6642,0.4268324,-0.7184917,0.8745368,-18.16971,35.28043,-29.93053,1006.731
9.444951534,-23.21157,-152.5175,-259.6499,0.5114794,-0.5444357,0.5262142,-18.16971,35.28043,-29.93053,1006.729
9.477122784,38.34171,-136.5375,-258.179,0.4735839,-0.09448682,0.5028033,-27.51867,31.32287,-21.95617,1006.732
9.509294033,0.2548512,-119.1371,-247.0861,0.5176839,0.09654371,0.3155049,-34.63781,23.86799,-16.71811,1006.732
9.543940067,23.47555,-82.50159,-220.6714,0.4627244,0.1091862,0.1570621,-34.63781,23.86799,-16.71811,1006.73
9.576111317,35.45448,-61.84602,-188.6796,0.4655434,0.3860455,0.1843822,-40.25009,15.24417,-11.80097,1006.73
9.610756397,13.76954,-37.75772,-141.4273,0.528727,0.5014796,0.2141463,-41.73444,5.7706,-9.132789,1006.728
9.642927647,11.80377,-21.95533,-102.3874,0.5506549,0.3388999,0.2309173,-41.73444,5.7706,-9.132789,1006.727
9.677573204,56.34082,-11.7755,-61.50899,0.6610615,0.4225274,0.3207105,-41.72178,-1.136271,-7.760143,1006.727
9.709744453,36.74451,-13.96535,-32.70409,0.7449286,0.4887064,0.3966294,-41.71336,-4.555914,-6.914589,1006.725
9.744390488,16.53391,-19.35118,-14.19541,0.835794,0.5134535,0.4543075,-41.71336,-4.555914,-6.914589,1006.725
9.776561260,-10.18832,-14.26128,1.24892,0.8474655,0.4901472,0.4607544,-41.71542,-7.604983,-6.899703,1006.725
9.811206818,20.09687,-16.45112,7.62277,0.9497362,0.3579929,0.3835187,-42.08232,-8.350512,-6.001487,1006.721
9.843378067,-0.05230091,-3.252862,4.926141,0.8777595,0.5190085,0.5093916,-42.08232,-8.350512,-6.001487,1006.719
9.878024101,-27.81885,-8.165218,2.658521,0.8524927,0.2882371,0.401685,-41.32066,-8.355564,-5.559074,1006.719
9.910195351,15.18244,-8.046848,2.045651,0.8562824,0.2107428,0.4255928,-41.69256,-7.963377,-5.11272,1006.719
9.944840431,32.44439,-11.83469,6.642178,0.8291079,0.3497649,0.4347044,-42.4487,-8.333773,-5.106992,1006.719
9.977011681,6.889336,-7.514183,5.96802,0.8232701,0.3319556,0.3873761,-42.4487,-8.333773,-5.106992,1006.714
10.011657715,20.03544,-5.975373,5.416438,0.8700629,0.2601424,0.3574275,-42.05869,-7.565505,-4.220085,1006.712
10.043828964,3.387802,-5.265152,1.187633,0.7951468,0.3346409,0.4657446,-42.43111,-7.935585,-3.770011,1006.712
10.075999260,-11.66265,-13.3735,1.677929,0.8366279,0.3581311,0.4544652,-42.43111,-7.935585,-3.770011,1006.71
10.110645294,-7.42395,-14.43883,4.803567,0.8986279,0.2360985,0.3420208,-42.80962,-7.549895,-3.833693,1006.71
10.142816544,14.44528,-6.981518,7.561483,0.8782119,0.4020622,0.3874414,-42.04821,-7.93608,-3.389418,1006.71
10.177462101,-7.178229,-6.626408,5.661585,0.9180143,0.3344535,0.3947066,-42.04821,-7.93608,-3.389418,1006.71
10.209633350,-18.05141,0.4757935,-0.3445429,0.972981,0.2499154,0.3563828,-42.79203,-7.151706,-2.496711,1006.712
10.244279385,-25.66878,-3.489603,-2.428302,0.9424582,0.3518184,0.3334078,-42.03614,-7.162443,-2.500579,1006.712
10.276449680,-8.099685,-2.187532,-5.492653,0.9940302,0.1527855,0.2368138,-42.03614,-7.162443,-2.500579,1006.71
10.311095715,21.93979,-4.140637,-11.62136,0.9228058,0.3247522,0.2726361,-42.41986,-7.162759,-2.944925,1006.71
10.343266964,17.76252,-1.240572,-13.33739,0.8909058,0.2792529,0.3313626,-42.04244,-7.930395,-2.943137,1006.71
10.377912998,29.74145,-6.863148,-9.415022,0.8220959,0.3545081,0.352869,-42.04244,-7.930395,-2.943137,1006.71
10.410084248,-12.95269,-4.318192,-11.62136,0.9088438,0.3931036,0.3784057,-42.03666,-7.92471,-2.496857,1006.716
10.444729328,-46.18654,-3.667157,-6.044236,0.8364834,0.3808022,0.3100536,-41.27577,-9.073164,-2.048862,1006.714
10.476900577,-40.35065,5.684075,-0.1606818,0.795148,0.2970357,0.3097487,-41.27577,-9.073164,-2.048862,1006.714
10.511546135,-12.95269,9.235175,6.764752,0.7365395,0.4263199,0.3576334,-42.40908,-8.29479,-2.046782,1006.714
10.543717384,-53.86535,19.47418,15.09979,0.8202963,0.523756,0.5215349,-42.04295,-8.692661,-2.939416,1006.712
10.578363418,-162.0443,43.91759,27.7862,0.7273118,0.3703121,0.3900337,-42.04295,-8.692661,-2.939416,1006.714
10.610534191,-114.4357,33.79696,48.19478,0.7187459,0.1724776,0.2212289,-42.05368,-8.70322,-3.768223,1006.714
10.642705440,-37.89344,46.99522,70.31939,0.6198628,0.2092886,0.3993488,-41.70386,-7.593613,-6.007142,1006.714
10.677350998,23.90556,48.82995,85.64114,0.7852955,0.1310983,0.4371665,-41.70386,-7.593613,-6.007142,1006.714
10.709522247,74.03278,67.88753,115.9169,0.7719596,0.276944,0.5218793,-42.48048,-5.318002,-7.735807,1006.714
10.744168281,128.2144,85.99814,139.5737,0.7222376,0.1945868,0.5100962,-42.51201,-1.921098,-10.36648,1006.712
10.776338577,172.1986,112.2763,143.8026,0.7561213,0.05928791,0.4845647,-42.51201,-1.921098,-10.36648,1006.712
10.810984611,246.6522,143.5852,143.6187,0.7514631,0.2460966,0.5367582,-42.53803,2.306469,-12.61866,1006.712
10.843155861,227.1174,161.8733,127.0712,0.6759095,0.4436594,0.7420136,-41.09685,5.262596,-18.25167,1006.712
10.877801895,80.29868,175.1308,93.17945,0.6901608,0.3314542,0.8662755,-41.09685,5.262596,-18.25167,1006.717
10.909973145,13.15524,180.635,100.6565,0.586175,0.1554661,0.888449,-38.16362,5.892581,-25.28384,1006.715
10.944618225,-14.7956,152.5221,96.61153,0.4350686,0.01874341,0.684846,-34.46295,6.523199,-31.42732,1006.715
10.976789474,-13.25984,128.6113,76.50938,0.3045121,-0.2348336,0.9510013,-30.36629,9.451492,-36.30882,1006.715
11.011435032,-29.96891,110.2048,55.1815,0.2714436,-0.320602,0.9481928,-30.36629,9.451492,-36.30882,1006.715
11.043606281,-33.7776,96.59225,51.56556,0.2412008,-0.2116744,0.9551571,-25.11848,12.38074,-39.85727,1006.715
11.078252316,-59.27122,83.98585,31.89243,0.1594475,-0.2424903,0.9975998,-22.12752,14.21016,-42.49597,1006.719
11.110422611,-92.50507,86.64917,19.7576,0.1852661,-0.157068,0.9508272,-22.12752,14.21016,-42.49597,1006.721
11.142593861,-91.46075,81.85519,11.729,0.1759357,-0.2527471,0.8739696,-18.75181,17.56443,-44.69777,1006.721
11.177239895,-38.32345,94.28404,13.38375,0.09002187,-0.2797963,0.7097044,-15.29609,21.69632,-45.62852,1006.721
11.209411144,-0.5437442,103.221,8.296927,0.01313742,-0.1503257,1.021897,-15.29609,21.69632,-45.62852,1006.721
11.244057179,129.6273,89.54924,58.92001,0.01856695,-1.051709,2.279182,-12.66894,27.35381,-47.39134,1006.721
11.276228428,488.5652,41.72775,-76.70818,-0.5307533,-0.3981313,0.7627212,-9.682728,30.70208,-50.48377,1006.721
11.310873509,163.9669,-39.11898,-44.90021,-0.05683146,1.64601,1.350658,-9.682728,30.70208,-50.48377,1006.722
11.343044758,-158.7885,-17.93074,-38.28121,-0.002501036,0.5769069,0.8415043,-7.444377,21.49993,-52.23584,1006.724
11.377690315,-46.92371,-5.087597,-22.53045,-0.004552537,-0.08250042,0.7420973,-10.08509,11.63941,-51.28136,1006.722
11.409861565,54.6822,9.64947,-12.17294,0.02045142,0.235037,0.8346157,-10.08509,11.63941,-51.28136,1006.722
11.444507599,-30.21463,12.72709,-7.086115,-0.002759898,0.4802918,1.089904,-10.44369,15.85349,-50.02481,1006.722
11.476678371,-69.59153,4.500374,-2.796024,-0.0815536,0.08644199,1.13752,-10.45075,13.94213,-50.46178,1006.722
11.511323929,-33.59331,-3.371233,8.05178,-0.04268045,-0.02690892,0.9400492,-10.45075,13.94213,-50.46178,1006.724
11.543495178,2.650637,0.2982385,11.2387,-0.03776292,-0.006551714,0.8765472,-11.20452,15.85935,-50.40347,1006.73
11.578141212,17.14821,4.91467,7.62277,-0.02978412,0.03894567,0.9910817,-10.06941,17.74891,-50.41857,1006.73
11.610312462,9.776566,3.257489,-0.528404,-0.05811426,0.07771034,1.027333,-10.06941,17.74891,-50.41857,1006.73
11.644958019,14.691,1.955419,-5.247505,-0.04001535,0.08785218,0.9694084,-10.82478,18.52192,-50.41842,1006.728
11.677128792,20.64975,2.488084,-6.657106,-0.05382454,0.195549,1.016215,-10.05868,17.75947,-49.58977,1006.73
11.709300041,8.793679,1.837049,-4.205625,-0.09060408,0.2303467,1.036125,-10.05868,17.75947,-49.58977,1006.73
11.743946075,-3.246682,-1.714052,-1.692857,-0.09336758,0.2049191,1.009913,-10.06441,16.6112,-49.96671,1006.732
11.776116848,-10.18832,-4.081452,-1.0187,-0.06533045,0.1673013,0.9963275,-9.687551,16.22388,-50.03053,1006.732
11.810762882,-12.82983,-4.673303,-0.9574131,-0.03204104,0.1184296,0.9744062,-9.687551,16.22388,-50.03053,1006.732
11.842933655,-11.84694,-3.548788,-0.7735521,-0.02139004,0.09218635,0.9769823,-10.44343,16.23462,-50.02666,1006.733
11.877579212,-9.021141,-0.7079067,-1.202561,-0.02711464,0.04401533,0.9578406,-10.06993,16.98665,-50.41485,1006.733
11.909750462,0.9305857,0.3574235,-2.734737,-0.042579,0.04713202,0.9743987,-10.06993,16.98665,-50.41485,1006.737
11.944396496,8.547957,1.363569,-1.938005,-0.06675788,0.09822879,0.9760095,-10.06967,17.36778,-50.41671,1006.737
11.976567745,12.11092,1.245199,-0.2832559,-0.07037528,0.14203,0.9889363,-10.44158,17.75997,-49.97036,1006.737
12.011212826,2.896359,1.008459,2.229512,-0.06325147,0.1833648,1.003671,-10.07653,16.98015,-50.92488,1006.739
12.043384075,-7.239659,0.5349786,3.026243,-0.04783198,0.1439397,0.9993457,-10.07653,16.98015,-50.92488,1006.739
12.078030109,-5.335316,-0.1160566,2.47466,-0.04766497,0.1035091,0.9806948,-10.82658,15.85398,-50.4054,1006.739
12.110201359,-1.096618,-0.2936116,0.5134754,-0.0389419,0.08696882,0.981441,-9.69751,17.35673,-50.86493,1006.739
12.144846916,2.896359,-0.1752416,-1.202561,-0.04569901,0.1049628,0.9816524,-9.69751,17.35673,-50.86493,1006.739
12.177018166,2.466346,0.002313428,-1.876718,-0.04452134,0.1322213,0.9924702,-10.44761,17.37315,-50.41478,1006.743
12.211663246,-0.4208834,-0.6487217,-1.570283,-0.04752205,0.1292683,0.9852439,-10.06993,16.98665,-50.41485,1006.745
12.243834496,-1.526631,-0.2936116,-1.815431,-0.04513827,0.1117965,0.9870056,-10.06993,16.98665,-50.41485,1006.745
12.276005745,0.377712,-0.2344266,-1.508996,-0.05445203,0.111321,0.9822686,-10.06498,16.99152,-50.03232,1006.745
12.310651779,0.6234336,0.002313428,-0.589691,-0.05734368,0.1210399,0.9818937,-10.44266,17.37802,-50.03225,1006.745
12.342823029,-0.359453,0.4757935,0.2070403,-0.05195558,0.1152287,0.9870975,-10.44266,17.37802,-50.03225,1006.745
12.377468109,0.8691553,0.2390535,0.5134754,-0.05393799,0.1176286,0.9823158,-10.44787,16.99202,-50.41291,1006.747
12.409639359,1.54489,0.2390535,0.3296143,-0.04559617,0.120047,0.9865959,-10.07545,17.3621,-50.86299,1006.745
12.444285393,1.667751,0.002313428,-0.09939483,-0.04850177,0.124434,0.9871411,-10.07545,17.3621,-50.86299,1006.745
12.476456642,1.176307,-0.05687159,-0.7122651,-0.04845141,0.1327005,0.9891368,-10.44787,16.99202,-50.41291,1006.745
12.511102199,-0.8508963,-0.05687159,-0.8961262,-0.04366246,0.1166357,0.9860678,-10.07019,16.60551,-50.41299,1006.745
12.543273449,0.2548512,-0.05687159,-0.589691,-0.04756399,0.1152066,0.9870563,-10.07019,16.60551,-50.41299,1006.747
12.577919006,1.60632,0.1206835,-0.589691,-0.04955844,0.1146941,0.9822508,-10.44787,16.99202,-50.41291,1006.745
12.610089779,1.729181,0.2982385,-0.528404,-0.0489794,0.1210609,0.9900097,-10.44183,17.37883,-49.9685,1006.747
12.644735813,1.60632,0.2390535,-0.40583,-0.05189734,0.1283381,0.9876871,-10.44183,17.37883,-49.9685,1006.747
12.676907062,0.684864,0.3574235,0.02317921,-0.05083274,0.1419538,0.9916453,-10.07596,16.59983,-50.85927,1006.747
12.711553097,-0.5437442,0.06149844,-0.2219689,-0.04462007,0.1161737,0.9884828,-10.82581,16.99738,-50.41098,1006.747
12.743724346,1.422029,0.1798685,-0.467117,-0.05050606,0.1176262,0.9842117,-10.82581,16.99738,-50.41098,1006.745
12.775894642,0.9920161,0.2982385,-0.3445429,-0.0534099,0.127334,0.9823909,-10.44787,16.99202,-50.41291,1006.745
12.810540676,0.8077248,0.002313428,-0.467117,-0.05434919,0.1264051,0.9872119,-10.4539,16.6052,-50.85733,1006.744
12.842711925,1.237738,-0.05687159,-0.528404,-0.05343001,0.1234472,0.981877,-10.4539,16.6052,-50.85733,1006.744
12.877357483,0.9920161,-0.1752416,-0.9574131,-0.04215822,0.1215007,0.9885038,-10.44787,16.99202,-50.41291,1006.744
12.909528732,0.377712,0.002313428,-1.325135,-0.05193003,0.1321769,0.981935,-10.07019,16.60551,-50.41299,1006.748
12.944174767,0.1319903,0.5941636,-0.7122651,-0.05580111,0.131259,0.9863016,-10.07019,16.60551,-50.41299,1006.748
12.976345539,-2.509517,0.3574235,0.2683273,-0.04949614,0.1278071,0.9833223,-10.44787,16.99202,-50.41291,1006.746
13.010991096,0.9920161,1.008459,1.065059,-0.05691016,0.1127673,0.9794115,-10.06523,16.61039,-50.03046,1006.746
13.043162346,1.852042,1.126829,1.677929,-0.06064022,0.135189,0.989271,-10.06523,16.61039,-50.03046,1006.746
13.077808380,0.5005728,-0.7079067,1.555355,-0.05375439,0.1424576,0.9921588,-9.691989,16.98128,-50.41678,1006.746
13.109979630,-0.6051747,-1.181387,0.02317921,-0.04442272,0.150203,0.9955095,-10.44291,16.99689,-50.03039,1006.744
13.144625187,-2.632378,-1.891607,-1.815431,-0.0434748,0.1414684,0.9963927,-10.06993,16.98665,-50.41485,1006.746
13.176795960,-6.563925,-2.009977,-2.550876,-0.04262019,0.1297475,0.9876121,-10.06993,16.98665,-50.41485,1006.744
13.211441994,-6.748216,-1.714052,-2.550876,-0.04421688,0.1054556,0.9835708,-10.07596,16.59983,-50.85927,1006.746
13.243613243,-4.229569,-1.477312,-2.244441,-0.0472172,0.09476588,0.9801366,-10.07571,16.98096,-50.86113,1006.746
13.278258801,-1.833783,-1.063017,-2.06058,-0.05346584,0.1089075,0.9846494,-10.07571,16.98096,-50.86113,1006.746
13.310430050,-0.4823138,-0.8262767,-1.508996,-0.05147976,0.1142481,0.986121,-10.45365,16.98633,-50.8592,1006.746
13.342600823,-1.772352,-0.7079067,-0.2219689,-0.05097786,0.1195776,0.9851962,-10.82555,17.37852,-50.41284,1006.748
13.377246380,-2.570948,-0.05687159,0.3909014,-0.04079117,0.1078654,0.9835587,-10.82555,17.37852,-50.41284,1006.748
13.409417629,0.377712,0.4166085,0.5134754,-0.03833065,0.09916772,0.9902118,-10.82581,16.99738,-50.41098,1006.748
13.444063663,1.483459,0.4757935,0.5134754,-0.04846942,0.1273648,0.989575,-10.06967,17.36778,-50.41671,1006.748
13.476234913,-1.34234,0.4166085,0.2070403,-0.03631863,0.1137197,0.9903131,-10.06967,17.36778,-50.41671,1006.748
13.510880470,-0.4823138,0.2982385,-0.1606818,-0.04031526,0.1049506,0.9835302,-10.82003,17.00307,-49.9647,1006.75
13.543051243,0.07055992,0.2982385,-0.2832559,-0.05052378,0.106488,0.9874941,-10.82529,17.75965,-50.4147,1006.75
13.577697277,0.7462944,0.7717186,-0.2219689,-0.05052618,0.1137393,0.9836979,-10.82529,17.75965,-50.4147,1006.75
13.609868526,1.053447,0.2390535,0.02317921,-0.05340936,0.116696,0.9876052,-10.44317,16.61576,-50.02853,1006.75
13.644514084,-0.4208834,0.002313428,0.3296143,-0.04849149,0.1220255,0.9895312,-10.43688,17.38371,-49.58597,1006.749
13.676685333,-2.202365,-0.05687159,0.08446624,-0.04271495,0.1156378,0.9831587,-10.43688,17.38371,-49.58597,1006.749
13.711331367,-1.34234,-0.2344266,-0.2219689,-0.04069578,0.1094028,0.9941743,-10.44761,17.37315,-50.41478,1006.747
13.743501663,-0.9123267,-0.1752416,-0.528404,-0.04415007,0.1098685,0.9893904,-10.82529,17.75965,-50.4147,1006.747
13.778147697,0.07055992,-0.2936116,-0.8961262,-0.04808004,0.1084135,0.9870051,-10.82529,17.75965,-50.4147,1006.747
13.810318947,-0.4823138,0.06149844,-0.650978,-0.05296986,0.1108466,0.9846608,-10.8206,17.38339,-50.03032,1006.747
13.844964981,-1.34234,-0.05687159,0.02317921,-0.04947294,0.1109033,0.9942686,-10.8206,17.38339,-50.03032,1006.747
13.877136230,-1.219479,0.1798685,0.5747624,-0.0524796,0.105527,0.9875044,-10.8206,17.38339,-50.03032,1006.747
13.909307480,0.5620032,0.2390535,0.3296143,-0.04668911,0.1044713,0.9802117,-10.82555,17.37852,-50.41284,1006.751
13.943953037,-0.1137313,0.002313428,-0.09939483,-0.06167189,0.112899,0.9934348,-10.44735,17.75428,-50.41664,1006.751
13.976123810,-0.359453,0.002313428,-0.2219689,-0.04025824,0.102101,0.9917001,-10.44735,17.75428,-50.41664,1006.753
14.010769367,0.7462944,-0.2344266,-0.2219689,-0.04947905,0.1113813,0.9933086,-11.57648,17.39413,-50.02645,1006.751
14.042940617,-0.7894659,-0.1752416,0.1457533,-0.04905385,0.1069697,0.9879663,-10.82663,16.99657,-50.47474,1006.753
14.077586651,0.07055992,-0.2344266,0.02317921,-0.05203017,0.1040388,0.983632,-10.82663,16.99657,-50.47474,1006.751
14.109757900,1.237738,-0.4711667,-0.528404,-0.04611383,0.1050318,0.9903328,-10.44735,17.75428,-50.41664,1006.751
14.144403935,0.2548512,-0.6487217,-0.8348391,-0.04360373,0.1200741,0.9913975,-10.44266,17.37802,-50.03225,1006.751
14.176574230,-1.772352,-0.9446468,-1.202561,-0.04704334,0.1113653,0.9928038,-10.44266,17.37802,-50.03225,1006.753
14.211220264,-1.219479,-0.9446468,-1.141274,-0.05347769,0.1021268,0.9865217,-11.20927,17.3782,-50.85719,1006.751
14.243391514,-0.5437442,-0.5303516,-0.8961262,-0.05106445,0.1045082,0.9821808,-10.44818,17.75347,-50.48039,1006.751
14.278037071,1.053447,-0.05687159,-0.467117,-0.04422462,0.09771151,0.986399,-10.8206,17.38339,-50.03032,1006.75
14.310208321,1.913472,0.4166085,0.08446624,-0.04716664,0.09916397,0.9840283,-10.8206,17.38339,-50.03032,1006.75
14.344854355,1.483459,0.8900887,0.8811975,-0.04215763,0.1098956,0.994192,-10.83081,18.1351,-50.86284,1006.75
14.377024651,1.114877,0.8900887,0.8811975,-0.04613214,0.1054987,0.987927,-11.19828,17.76989,-50.03024,1006.748
14.411670685,2.896359,0.7125336,0.1457533,-0.04851768,0.1176496,0.9885314,-11.19828,17.76989,-50.03024,1006.746
14.443841934,0.2548512,0.002313428,-0.09939483,-0.04460818,0.1219874,0.9870846,-11.20927,17.3782,-50.85719,1006.745
14.476013183,0.07055992,0.06149844,-0.2832559,-0.04273482,0.1069155,0.9850149,-10.44787,16.99202,-50.41291,1006.745
14.510659218,0.4391424,0.002313428,-0.40583,-0.04077698,0.1083619,0.9850085,-10.44787,16.99202,-50.41291,1006.745
14.542830467,1.237738,0.4166085,-0.2832559,-0.04812673,0.1078875,0.9816992,-10.82529,17.75965,-50.4147,1006.743
14.577475548,0.7462944,0.06149844,-0.2219689,-0.05485892,0.1152657,0.9900168,-10.82586,18.13997,-50.48032,1006.745
14.609646797,0.5620032,-0.1752416,0.02317921,-0.0514273,0.1210658,0.9890686,-10.82586,18.13997,-50.48032,1006.745
14.644292355,-1.649492,-0.1160566,0.1457533,-0.04172459,0.1112939,0.9869696,-10.83107,17.75397,-50.86098,1006.745
14.676463604,-0.1751617,0.1206835,0.02317921,-0.04214936,0.1070017,0.9965781,-10.44291,16.99689,-50.03039,1006.745
14.711109638,0.2548512,-0.2344266,-0.09939483,-0.04856819,0.1122844,0.9851136,-10.44291,16.99689,-50.03039,1006.743
14.743280888,0.5620032,-0.4119816,-0.3445429,-0.04997543,0.117179,0.9895051,-11.58117,17.77039,-50.41084,1006.743
14.777926922,-0.6666051,0.002313428,-0.589691,-0.04468473,0.1093449,0.9840891,-10.44787,16.99202,-50.41291,1006.743
14.810097218,0.07055992,-0.05687159,-0.40583,-0.04712631,0.1050035,0.9860042,-10.44787,16.99202,-50.41291,1006.743
14.844743252,0.8077248,0.3574235,0.1457533,-0.04818522,0.09961365,0.9787397,-10.44813,16.61088,-50.41105,1006.743
14.876914501,2.589207,0.1206835,0.2070403,-0.04991698,0.1264199,0.9919907,-10.82581,16.99738,-50.41098,1006.743
14.911560059,-2.570948,-0.4119816,0.1457533,-0.04902418,0.1229544,0.9837599,-10.82581,16.99738,-50.41098,1006.743
14.943731308,0.1319903,-0.1160566,-0.09939483,-0.04373686,0.1015774,0.9844982,-10.06993,16.98665,-50.41485,1006.745
14.975902557,1.237738,0.1206835,-0.2219689,-0.04713061,0.1098353,0.983152,-10.8206,17.38339,-50.03032,1006.743
15.010547638,1.237738,0.3574235,-0.3445429,-0.05393779,0.1137602,0.9842119,-10.8206,17.38339,-50.03032,1006.747
15.042718887,-0.2980226,0.1798685,0.2070403,-0.05586131,0.1166972,0.9861821,-10.44158,17.75997,-49.97036,1006.747
15.077364922,0.377712,-0.05687159,0.2070403,-0.04166796,0.1161811,0.9913473,-11.20927,17.3782,-50.85719,1006.747
15.109536171,-1.34234,0.06149844,0.08446624,-0.04651941,0.1230012,0.9914488,-11.20927,17.3782,-50.85719,1006.747
15.144182205,-0.359453,0.002313428,-0.2832559,-0.0447068,0.1040056,0.9840453,-10.82581,16.99738,-50.41098,1006.746
15.210999012,0.5620032,-0.1752416,-0.2219689,-0.05289301,0.1176865,0.9905004,-10.8206,17.38339,-50.03032,1006.747
15.243169785,-0.2980226,-0.05687159,-0.2832559,-0.04708833,0.1171272,0.9846577,-10.82581,16.99738,-50.41098,1006.747
15.277815342,0.7462944,0.002313428,-0.2832559,-0.04662244,0.1117854,0.9846093,-10.83159,16.9917,-50.85726,1006.746
15.309986591,0.3162816,0.2982385,-0.2219689,-0.03927273,0.1132269,0.9874447,-10.83159,16.9917,-50.85726,1006.746
15.344632626,0.7462944,0.1206835,-0.3445429,-0.05343158,0.114258,0.9861393,-10.43688,17.38371,-49.58597,1006.751
15.376803875,-0.1137313,0.3574235,-0.2832559,-0.05730937,0.1254232,0.9838575,-11.20483,16.62081,-50.47094,1006.751
15.411449909,-1.833783,-0.1160566,-0.1606818,-0.04269228,0.109372,0.9888907,-10.44844,17.37234,-50.47853,1006.751
15.443621158,0.5620032,0.002313428,-0.09939483,-0.04519887,0.1049715,0.9830939,-10.44844,17.37234,-50.47853,1006.75
15.478266239,0.5005728,0.1798685,0.02317921,-0.04312982,0.1166739,0.991365,-10.82555,17.37852,-50.41284,1006.748
15.510437488,0.1934207,0.2390535,0.02317921,-0.05336663,0.1152842,0.993377,-11.58169,17.00812,-50.40711,1006.748
15.542608738,-0.359453,-0.1160566,-0.2832559,-0.04854181,0.1127919,0.9880096,-11.58169,17.00812,-50.40711,1006.748
15.577254295,-0.4208834,-0.1160566,-0.1606818,-0.04942859,0.1177136,0.9962524,-10.07653,16.98015,-50.92488,1006.746
15.609425545,-1.035187,-0.2936116,-0.40583,-0.04512828,0.1151906,0.9865515,-10.45313,17.7486,-50.86292,1006.746
15.644071579,-0.4823138,-0.1160566,-0.528404,-0.04416265,0.1175942,0.9841523,-10.45313,17.7486,-50.86292,1006.75
15.676241875,-1.035187,-0.1752416,-1.0187,-0.05678045,0.118688,0.991991,-11.1988,17.00763,-50.02652,1006.748
15.710887909,0.8077248,-0.2936116,-0.8348391,-0.04855781,0.1079417,0.9884517,-10.83133,17.37283,-50.85912,1006.75
15.743059158,-0.2980226,-0.2936116,-0.528404,-0.05152455,0.1161417,0.979871,-10.83133,17.37283,-50.85912,1006.75
15.777705193,0.377712,-0.4119816,-0.2219689,-0.04998913,0.1070115,0.9927953,-10.82638,17.3777,-50.4766,1006.75
15.809876442,-1.219479,-0.05687159,0.3296143,-0.04405899,0.1162378,0.9971541,-11.204,16.62162,-50.40718,1006.75
15.844521999,0.009129502,-0.2344266,-0.40583,-0.04959868,0.1069204,0.981223,-11.204,16.62162,-50.40718,1006.752
15.876693249,-0.1751617,0.002313428,-0.589691,-0.05245811,0.1224715,0.9818599,-11.20349,17.38389,-50.41091,1006.752
15.911338806,-0.8508963,-0.1160566,-0.2832559,-0.04663438,0.1069389,0.9855336,-11.20349,17.38389,-50.41091,1006.752
15.943509579,0.1319903,-0.2344266,-0.2832559,-0.04369251,0.1083877,0.986482,-11.20349,17.38389,-50.41091,1006.752
15.978155613,0.1934207,0.002313428,-0.3445429,-0.04952374,0.1113407,0.9880068,-11.20298,18.14615,-50.41463,1006.752
16.010326862,0.07055992,0.1798685,0.1457533,-0.05049558,0.1113493,0.9884979,-11.20432,17.38307,-50.47466,1006.752
16.044972897,1.114877,-0.1160566,-0.2832559,-0.04215797,0.1166653,0.9908738,-11.20432,17.38307,-50.47466,1006.751
16.077144146,-0.8508963,-0.1752416,0.02317921,-0.04360422,0.129745,0.9866573,-10.44869,16.9912,-50.47667,1006.752
16.109315395,-1.526631,-0.4119816,0.02317921,-0.05148769,0.1103723,0.9870531,-11.20375,17.00275,-50.40905,1006.752
16.143960476,-0.4208834,-0.4119816,-0.09939483,-0.05008237,0.1030582,0.9836057,-11.20375,17.00275,-50.40905,1006.752
16.176131725,0.684864,-0.6487217,-0.2832559,-0.04706366,0.1113469,0.9903938,-11.20953,16.99707,-50.85533,1006.752
16.210777283,-0.4823138,-0.4711667,-0.650978,-0.04513827,0.1117965,0.9870056,-11.19854,17.38876,-50.02838,1006.752
16.242948532,0.07055992,-0.2344266,-0.40583,-0.0451645,0.1083877,0.9855318,-11.19854,17.38876,-50.02838,1006.752
16.277594566,-0.1137313,-0.5303516,0.1457533,-0.03631447,0.1117892,0.9917432,-11.20375,17.00275,-50.40905,1006.752
16.309765816,-1.956644,0.002313428,0.3296143,-0.04469246,0.1016008,0.9869174,-11.20375,17.00275,-50.40905,1006.752
16.344411850,1.667751,0.4757935,-0.3445429,-0.05050748,0.1055356,0.989896,-11.20375,17.00275,-50.40905,1006.752
16.376583099,0.5005728,0.002313428,-0.1606818,-0.04658588,0.1118187,0.9889472,-10.82555,17.37852,-50.41284,1006.754
16.411228180,0.2548512,0.002313428,0.2683273,-0.04312762,0.1132909,0.993265,-11.58226,17.38844,-50.47273,1006.758
16.443399429,-0.05230091,-0.05687159,0.3909014,-0.04661011,0.1088953,0.9874774,-11.58194,16.62699,-50.40525,1006.758
16.478044987,0.1319903,0.06149844,0.4521884,-0.0427287,0.1064375,0.985975,-11.58194,16.62699,-50.40525,1006.752
16.510216236,0.6234336,0.2390535,0.02317921,-0.04763477,0.1088558,0.9817026,-11.1988,17.00763,-50.02652,1006.752
16.544862270,1.114877,0.06149844,-0.2219689,-0.04509583,0.1161873,0.9899333,-11.20927,17.3782,-50.85719,1006.755
16.577033520,-0.7280354,0.2982385,0.02317921,-0.04512207,0.1127784,0.9884595,-11.20927,17.3782,-50.85719,1006.753
16.609204769,0.5620032,0.06149844,0.08446624,-0.04421693,0.1064227,0.9830967,-10.83159,16.9917,-50.85726,1006.753
16.643849850,0.6234336,0.2390535,0.2070403,-0.04753751,0.11378,0.9909002,-11.58803,17.38276,-50.91901,1006.751
16.676021099,1.237738,-0.1752416,0.02317921,-0.05339325,0.1196121,0.988111,-11.58803,17.38276,-50.91901,1006.751
16.710667133,-0.1137313,0.06149844,0.08446624,-0.04958052,0.1093548,0.9822069,-10.82638,17.3777,-50.4766,1006.749
16.742838383,0.1934207,-0.1752416,0.1457533,-0.04073425,0.10695,0.9907804,-11.19905,16.62649,-50.02466,1006.749
16.777483940,0.1934207,0.4757935,0.3909014,-0.04418845,0.1054815,0.9869447,-11.19905,16.62649,-50.02466,1006.748
16.809655189,2.527776,0.1798685,0.2683273,-0.04701956,0.1229926,0.9900074,-10.44317,16.61576,-50.02853,1006.75
16.844301224,-2.632378,-0.1160566,0.2070403,-0.05053068,0.1224395,0.9789497,-11.20349,17.38389,-50.41091,1006.748
16.876472473,-0.6051747,0.1206835,0.1457533,-0.04322243,0.1001483,0.9883376,-11.20349,17.38389,-50.41091,1006.748
16.911117554,0.8691553,-0.1752416,-0.03810781,-0.04859237,0.1083938,0.9841177,-11.582,17.76958,-50.47459,1006.75
16.943288803,1.299168,0.002313428,-0.2219689,-0.04459368,0.1166813,0.9913787,-11.20432,17.38307,-50.47466,1006.75
16.977934837,-0.1137313,0.002313428,0.1457533,-0.04610404,0.1122942,0.9879827,-11.20432,17.38307,-50.47466,1006.748
17.010106087,0.2548512,0.002313428,0.1457533,-0.04758842,0.1161515,0.9836904,-10.82663,16.99657,-50.47474,1006.748
17.044751644,-0.6666051,-0.05687159,-0.03810781,-0.04364812,0.1142309,0.9889397,-10.82555,17.37852,-50.41284,1006.748
17.076922894,0.4391424,-0.1160566,-0.03810781,-0.04462805,0.113265,0.9889409,-10.82555,17.37852,-50.41284,1006.748
17.111568928,0.07055992,0.1798685,-0.528404,-0.04171862,0.1137172,0.9865075,-11.1988,17.00763,-50.02652,1006.748
17.143739224,0.1319903,0.002313428,-0.3445429,-0.05096734,0.1123336,0.9899563,-10.44761,17.37315,-50.41478,1006.748
17.175910473,-0.359453,0.06149844,-0.467117,-0.04705548,0.1103871,0.9918318,-10.44761,17.37315,-50.41478,1006.75
17.210556507,1.360599,0.4757935,-0.1606818,-0.04613224,0.1074329,0.9869789,-10.83215,17.37202,-50.92288,1006.75
17.242727757,1.299168,0.5349786,0.08446624,-0.04116988,0.1166714,0.9923107,-10.45288,18.12973,-50.86478,1006.75
17.277373791,0.4391424,0.002313428,-0.2219689,-0.04953,0.11472,0.9856247,-10.45288,18.12973,-50.86478,1006.75
17.309544563,-0.4208834,0.1206835,-0.3445429,-0.05237902,0.1249613,0.9900736,-11.19854,17.38876,-50.02838,1006.75
17.344190598,-1.280909,-0.3527966,-0.40583,-0.04169616,0.1113198,0.9903435,-11.20457,17.00194,-50.4728,1006.75
17.376361847,0.009129502,-0.2344266,-0.7122651,-0.04761641,0.1074218,0.9845826,-11.20457,17.00194,-50.4728,1006.749
17.411006928,0.377712,-0.2344266,-0.7735521,-0.05195323,0.1089445,0.9904196,-11.19854,17.38876,-50.02838,1006.749
17.443178177,-0.5437442,0.1206835,-0.03810781,-0.04948331,0.115246,0.9909304,-10.45339,17.36746,-50.86106,1006.751
17.477824211,0.8691553,-0.05687159,-0.2832559,-0.04761245,0.1093597,0.9841166,-10.82663,16.99657,-50.47474,1006.751
17.509995460,0.07055992,-0.2344266,-0.1606818,-0.04654359,0.1191107,0.9904529,-10.82663,16.99657,-50.47474,1006.751
17.544641018,-1.649492,-0.4711667,-0.2832559,-0.04656987,0.1166689,0.9885051,-10.45339,17.36746,-50.86106,1006.751
17.576812267,-0.1751617,-0.1160566,-0.3445429,-0.04073866,0.113716,0.9869804,-10.83215,17.37202,-50.92288,1006.751
17.611458301,0.1934207,-0.1160566,-0.528404,-0.04663444,0.107906,0.9850594,-10.83215,17.37202,-50.92288,1006.751
17.643629551,0.1934207,-0.2344266,-0.467117,-0.04748484,0.1167293,0.9957441,-10.82555,17.37852,-50.41284,1006.751
17.678275585,-0.4208834,-0.1752416,-0.2219689,-0.05100987,0.1098771,0.9860806,-11.20406,17.76421,-50.47652,1006.753
17.710445881,0.6234336,-0.1160566,-0.03810781,-0.03974204,0.1059928,0.9931733,-11.20406,17.76421,-50.47652,1006.753
17.742617130,-0.7894659,0.06149844,0.3296143,-0.04560209,0.1166566,0.987532,-10.83241,16.99089,-50.92102,1006.751
17.777263164,0.2548512,-0.05687159,-0.2219689,-0.04763271,0.1083741,0.9821807,-10.83215,17.37202,-50.92288,1006.751
17.809434414,0.1934207,-0.1160566,-0.09939483,-0.05049191,0.1190897,0.9851876,-10.83215,17.37202,-50.92288,1006.75
17.844079971,-0.7280354,-0.2936116,0.02317921,-0.04027077,0.1088596,0.986936,-11.21009,17.37739,-50.92094,1006.748
17.876251221,0.009129502,-0.2344266,0.02317921,-0.04422335,0.1127033,0.9792926,-10.82555,17.37852,-50.41284,1006.748
17.910897255,0.684864,0.002313428,-0.3445429,-0.04366437,0.1142161,0.9870118,-10.82555,17.37852,-50.41284,1006.746
17.943067551,-0.1137313,0.06149844,-0.1606818,-0.05006235,0.1088792,0.9831715,-11.19828,17.76989,-50.03024,1006.744
17.977713585,0.8691553,-0.05687159,-0.03810781,-0.04658001,0.1161762,0.9875371,-10.82612,17.75884,-50.47846,1006.744
18.009884834,-0.9737571,-0.4119816,0.2683273,-0.04412007,0.1190836,0.9885021,-10.82612,17.75884,-50.47846,1006.747
18.044530869,-1.280909,-0.4711667,0.02317921,-0.0446441,0.1093819,0.988909,-11.19854,17.38876,-50.02838,1006.747
18.076702118,-0.6666051,-0.4119816,-0.2832559,-0.04370274,0.1098291,0.9845659,-11.20457,17.00194,-50.4728,1006.747
18.111347675,0.377712,-0.2936116,-0.2832559,-0.0519108,0.1133352,0.9933473,-11.20457,17.00194,-50.4728,1006.745
18.143518925,-0.2980226,-0.5303516,-0.2832559,-0.04074658,0.1098402,0.9879125,-10.8206,17.38339,-50.03032,1006.745
18.178164959,-0.2365921,0.002313428,0.02317921,-0.04273692,0.1083643,0.9840629,-11.57648,17.39413,-50.02645,1006.745
18.210336208,-0.05230091,0.1206835,0.3296143,-0.03536298,0.1127292,0.988368,-11.57648,17.39413,-50.02645,1006.745
18.244981289,-0.8508963,0.1206835,0.3909014,-0.04662181,0.09921324,0.9907716,-11.57648,17.39413,-50.02645,1006.745
18.277152538,2.343485,0.4757935,-0.2832559,-0.05003015,0.1147113,0.9841833,-11.58747,17.00244,-50.85339,1006.745
18.309323788,0.07055992,-0.2344266,-0.2832559,-0.04115603,0.1239376,0.9904425,-11.58747,17.00244,-50.85339,1006.745
18.343969822,-0.1742715,-0.05658317,0.3293535,-0.04852325,0.1074895,0.9927856,-11.19854,17.38876,-50.02838,1006.745
18.376141071,0.01094188,-0.05605548,0.5116413,-0.0436723,0.1103404,0.9879439,-11.58721,17.38357,-50.85526,1006.745
18.410786629,0.4406173,0.003208466,0.3263799,-0.04661011,0.1088953,0.9874774,-11.58721,17.38357,-50.85526,1006.747
18.442957878,0.3171934,0.12125,-0.2253993,-0.04514214,0.1079245,0.9884197,-10.82555,17.37852,-50.41284,1006.745
18.477603912,1.172435,0.002960294,0.0207189,-0.04802341,0.1133007,0.9913829,-10.83241,16.99089,-50.92102,1006.744
18.509775162,-0.7939918,-0.05612551,0.08251717,-0.04263183,0.1190984,0.9913803,-10.83241,16.99089,-50.92102,1006.744
18.544420242,-0.1148123,0.1213233,0.1434419,-0.04520278,0.1020665,0.9840339,-11.96045,17.01268,-50.46893,1006.742
18.576591492,0.8662682,0.2981421,0.02041776,-0.04813696,0.1093289,0.9797832,-11.21061,16.61512,-50.91722,1006.742
18.611237526,1.045852,0.1791688,-0.04117014,-0.05095153,0.1210522,0.9876181,-10.45396,17.74778,-50.92667,1006.744
18.643408775,-0.7365776,0.1196617,-0.1024043,-0.04367049,0.1146941,0.9860519,-10.45396,17.74778,-50.92667,1006.744
18.678054333,0.8597599,0.2374696,0.08121405,-0.04471106,0.1078703,0.9816672,-11.1988,17.00763,-50.02652,1006.744
18.710225582,0.6725811,0.7688874,0.5702946,-0.04274695,0.1059373,0.9840429,-11.20457,17.00194,-50.4728,1006.744
18.744871616,2.326379,0.2340544,0.3233163,-0.0455413,0.1196133,0.9933397,-11.20457,17.00194,-50.4728,1006.742
18.777042866,-1.671029,-0.1222137,0.1380412,-0.04694095,0.1351533,0.9934809,-11.21009,17.37739,-50.92094,1006.741
18.811688423,-0.7400631,-0.003363032,-0.1687881,-0.04126249,0.1001459,0.9892833,-11.20457,17.00194,-50.4728,1006.741
18.843859196,1.285146,-0.003386427,0.01520387,-0.0432166,0.1054729,0.9864535,-11.20457,17.00194,-50.4728,1006.739
18.876030445,1.157201,0.2923852,-0.1070671,-0.04806208,0.1147163,0.986093,-10.82612,17.75884,-50.47846,1006.739
18.910676002,-0.5033,-0.004452057,-0.04573317,-0.04900152,0.1166886,0.9894919,-10.44761,17.37315,-50.41478,1006.739
18.942847252,0.9103586,-0.1228968,0.0769505,-0.04706997,0.1156932,0.9875377,-10.44761,17.37315,-50.41478,1006.739
18.977493286,-0.6893619,-0.004377279,0.1990713,-0.04461013,0.1205349,0.9875547,-10.4539,16.6052,-50.85733,1006.739
19.009664536,-0.4391546,-0.06363732,-0.04635014,-0.04519103,0.1107814,0.9812137,-11.58226,17.38844,-50.47273,1006.739
19.044310570,0.4808185,-0.06341395,-0.04591565,-0.04019618,0.1200495,0.9904014,-11.58226,17.38844,-50.47273,1006.739
19.076481819,0.1114516,0.05502864,-0.2285709,-0.04899947,0.1162069,0.9899699,-11.19854,17.38876,-50.02838,1006.739
19.111127377,-0.07319404,-0.06298896,-0.288778,-0.05145348,0.1166899,0.9880688,-10.82581,16.99738,-50.41098,1006.743
19.143298149,-0.2561269,0.2923402,0.01833431,-0.04468894,0.1122425,0.9821851,-10.82581,16.99738,-50.41098,1006.745
19.177943707,0.7251284,0.173244,-0.04335975,-0.03833334,0.1122216,0.9835716,-10.82638,17.3777,-50.4766,1006.745
19.210114956,1.336129,0.7033092,-0.1661797,-0.04515452,0.1117818,0.9850776,-11.58251,17.00731,-50.47087,1006.745
19.244760990,2.064211,0.1688753,-0.165239,-0.0474126,0.1342035,0.9958875,-11.58251,17.00731,-50.47087,1006.745
19.276932240,-2.542444,-0.2461076,-0.1030092,-0.04748338,0.1278527,0.9905338,-11.21061,16.61512,-50.91722,1006.743
19.311578274,-0.3223735,-0.2455097,-0.1633447,-0.0378631,0.101081,0.9868494,-10.83159,16.9917,-50.85726,1006.743
19.343749523,0.9666084,-0.008269761,-0.4685947,-0.04510973,0.1098882,0.9913276,-10.83159,16.9917,-50.85726,1006.743
19.375920296,0.716234,0.05070718,-0.2833427,-0.04411189,0.1181239,0.9899401,-10.82086,17.00226,-50.02845,1006.745
19.410566330,-0.5109124,-0.1271445,0.02356682,-0.05488732,0.1142727,0.9871169,-11.19905,16.62649,-50.02466,1006.745
19.442737579,0.4727642,-0.06760816,-0.03729729,-0.04316027,0.1161626,0.9879871,-11.19905,16.62649,-50.02466,1006.745
19.477382660,-1.675789,-0.126348,0.02376874,-0.04850157,0.1205656,0.9890372,-10.82581,16.99738,-50.41098,1006.744
19.509553909,-0.6877681,-0.007518169,-0.1596124,-0.04563831,0.1098537,0.9865122,-10.83267,16.60975,-50.91916,1006.742
19.544199943,-0.01082636,-0.2432045,-0.4645588,-0.04171652,0.1122684,0.9874596,-10.83267,16.60975,-50.91916,1006.742
19.576371193,-0.3790562,-0.2421205,-0.5237598,-0.04850534,0.1147594,0.9913994,-11.19854,17.38876,-50.02838,1006.742
19.611017227,-0.6841397,-0.418297,-0.3991176,-0.04757828,0.1166443,0.9846583,-11.19854,17.38876,-50.02838,1006.742
19.643188000,0.3012841,-0.1213907,-0.2138797,-0.05155862,0.1069229,0.9802773,-11.19854,17.38876,-50.02838,1006.746
19.677834034,-0.006842475,-0.120227,0.03211102,-0.03922173,0.1089212,0.9956026,-11.58169,17.00812,-50.40711,1006.746
19.710005283,-0.6806022,-0.001942266,0.09303623,-0.04996304,0.1133217,0.9928471,-11.20432,17.38307,-50.47466,1006.746
19.744651318,0.6097438,0.1163802,-0.334805,-0.04410783,0.1181276,0.9904221,-11.20432,17.38307,-50.47466,1006.746
19.776822567,-0.9870982,-0.3570353,-0.3332672,-0.05192734,0.119123,0.9885753,-11.20432,17.38307,-50.47466,1006.744
19.811468124,-0.5528498,-0.3559135,-0.02640733,-0.04661833,0.1108221,0.9855654,-10.83133,17.37283,-50.85912,1006.744
19.843638897,0.1843911,-0.2365195,-0.02624199,-0.04557561,0.11523,0.9913759,-11.58772,16.6213,-50.85153,1006.748
19.878284454,-0.0004206449,0.05977505,-0.1483742,-0.04024453,0.1122684,0.9884098,-11.58772,16.6213,-50.85153,1006.746
19.910455704,0.6131913,-0.1183392,-0.2702278,-0.04760246,0.1127538,0.9836625,-11.20432,17.38307,-50.47466,1006.746
19.942626953,-0.06461844,-0.1774501,0.09815353,-0.04756414,0.1181079,0.9856343,-11.19854,17.38876,-50.02838,1006.745
19.977272987,-1.166632,-0.1176715,-0.02460146,-0.04223913,0.1146572,0.9821821,-11.19854,17.38876,-50.02838,1006.745
20.009444237,-0.3647466,-0.2348008,0.03686272,-0.04022823,0.1113161,0.9908117,-11.1988,17.00763,-50.02652,1006.743
20.044090271,-0.6695846,-0.4108613,-0.1463721,-0.04851934,0.1103945,0.9918455,-11.20457,17.00194,-50.4728,1006.741
20.076261520,-0.4218467,-0.2910208,-0.08427712,-0.04273291,0.1093351,0.9840708,-11.20457,17.00194,-50.4728,1006.741
20.110907078,-0.7267807,-0.2305028,0.1609526,-0.04516264,0.1117744,0.9841136,-11.20984,17.75852,-50.92281,1006.739
20.143078327,0.7470617,-0.2893425,0.3438497,-0.05193312,0.1128313,0.9909334,-11.20483,16.62081,-50.47094,1006.739
20.177723408,-0.1762851,0.2444438,0.4038774,-0.03584492,0.1141879,0.9883845,-11.20483,16.62081,-50.47094,1006.739
20.209894657,-0.4809457,0.007171676,0.279542,-0.04615867,0.1078925,0.983609,-10.83215,17.37202,-50.92288,1006.742
20.244540691,1.11323,0.3618788,-0.455476,-0.04709855,0.1185687,0.9827417,-11.19905,16.62649,-50.02466,1006.742
20.276711941,-0.4235025,0.065871,-0.2087596,-0.04557561,0.11523,0.9913759,-11.19905,16.62649,-50.02466,1006.74
20.311357975,-0.2985716,-0.2297122,0.2817604,-0.05055843,0.1088743,0.9822121,-10.8206,17.38339,-50.03032,1006.74
20.343528748,0.4997757,0.06666644,0.4644341,-0.04421914,0.1098057,0.9811966,-11.20953,16.99707,-50.85533,1006.74
20.378174782,0.1900071,0.3030951,0.7075242,-0.0411596,0.1142629,0.9947007,-11.20953,16.99707,-50.85533,1006.74
20.410346031,0.3748335,-0.05248928,0.2155935,-0.04225503,0.1078728,0.9835724,-10.44869,16.9912,-50.47667,1006.74
20.444992065,0.5553023,0.1253148,0.1536292,-0.0440837,0.1229852,0.9909438,-11.58803,17.38276,-50.91901,1006.744
20.477163315,-1.591571,0.06625,0.2146936,-0.03878865,0.1093524,0.9888541,-11.58803,17.38276,-50.91901,1006.742
20.509334564,0.3161555,0.184183,0.03101446,-0.04717902,0.1030213,0.9806863,-11.20349,17.38389,-50.41091,1006.742
20.543979645,1.049293,0.1834489,-0.02992834,-0.04707795,0.1127846,0.9879958,-11.58277,16.62617,-50.46901,1006.742
20.576150894,0.4315405,0.1237202,0.1537471,-0.04457156,0.1210535,0.9918966,-11.58277,16.62617,-50.46901,1006.74
20.610796451,-1.103165,-0.171987,0.1531684,-0.04421914,0.1098057,0.9811966,-11.96045,17.01268,-50.46893,1006.739
20.642967701,1.231389,-0.2312505,0.2749067,-0.04417846,0.1088756,0.9864905,-10.83215,17.37202,-50.92288,1006.739
20.677613735,-0.1234409,0.6555528,0.5799422,-0.04225503,0.1078728,0.9835724,-10.83215,17.37202,-50.92288,1006.739
20.709784985,1.594877,0.3579209,0.2105678,-0.04901753,0.1118384,0.9899341,-11.57673,17.01299,-50.02459,1006.739
20.744431019,-2.769014,0.002278943,0.08680069,-0.06200884,0.1396351,0.9984784,-10.82529,17.75965,-50.4147,1006.743
20.776602268,0.4262376,-0.2936468,-0.03580063,-0.04038153,0.08989967,0.9829248,-10.82529,17.75965,-50.4147,1006.741
20.811247826,-0.4952186,0.002278227,0.02548639,-0.04416065,0.1180796,0.9841563,-11.58251,17.00731,-50.47087,1006.741
20.843419075,-0.3723578,0.3573883,0.3932085,-0.0525284,0.1064498,0.9812465,-11.58226,17.38844,-50.47273,1006.741
20.878065109,-0.003775336,0.5941284,0.6996436,-0.0509712,0.1084616,0.9913705,-11.58778,17.76389,-50.92087,1006.741
20.910236359,2.576302,0.002278227,0.3319215,-0.04119601,0.1113284,0.9917849,-11.58778,17.76389,-50.92087,1006.741
20.944881916,-0.6180795,-0.1160918,0.2706345,-0.04058932,0.1331945,0.9953335,-11.1988,17.00763,-50.02652,1006.739
20.977052689,-2.338131,-0.2344618,0.1480604,-0.0461828,0.1030348,0.9830871,-11.58747,17.00244,-50.85339,1006.739
21.009223938,0.7333896,-0.05690679,-0.3422357,-0.04029069,0.1011044,0.9883181,-11.58747,17.00244,-50.85339,1006.739
21.043869972,0.1805159,0.002278227,-0.7099579,-0.04802963,0.1157129,0.9894748,-10.44869,16.9912,-50.47667,1006.743
21.076040745,-0.249497,-0.2936468,-0.5873839,-0.04459985,0.1181264,0.9899447,-10.82663,16.99657,-50.47474,1006.743
21.110686779,-0.6795099,-0.1160918,-0.03580063,-0.04712797,0.09774844,0.9893183,-10.82663,16.99657,-50.47474,1006.741
21.142858028,0.9791113,0.06146324,0.3932085,-0.04707158,0.1074711,0.9913259,-10.83215,17.37202,-50.92288,1006.741
21.177504063,0.6719592,0.4165733,0.4544955,-0.0417082,0.1084074,0.9903196,-10.82612,17.75884,-50.47846,1006.741
21.209675312,1.961998,0.2390183,-0.09708765,-0.05038061,0.1274116,0.9944131,-10.82612,17.75884,-50.47846,1006.741
21.244320870,-2.706714,-0.4120168,-0.2809487,-0.04604169,0.1244402,0.9895282,-10.8206,17.38339,-50.03032,1006.741
21.276492119,-1.109523,-0.1752768,-0.3422357,-0.0383791,0.09332082,0.9872722,-10.82663,16.99657,-50.47474,1006.74
21.311138153,1.409124,0.002278227,-0.5260968,-0.04860049,0.1083864,0.9831538,-10.82663,16.99657,-50.47474,1006.74
21.343309403,1.040542,0.1206482,-0.2809487,-0.05047557,0.1171703,0.9880637,-11.20953,16.99707,-50.85533,1006.738
21.377954483,-0.556649,-0.05690679,-0.09708765,-0.0465758,0.1132786,0.9894412,-10.82638,17.3777,-50.4766,1006.738
21.410125733,0.487668,-0.2344618,-0.4035228,-0.04122656,0.1127513,0.987459,-10.82638,17.3777,-50.4766,1006.742
21.444771767,-1.600966,0.002278227,-0.1583747,-0.03832722,0.1117436,0.9845316,-10.44761,17.37315,-50.41478,1006.742
21.476943016,-0.003775336,0.2982033,-0.3422357,-0.03931899,0.103997,0.986405,-11.20953,16.99707,-50.85533,1006.742
21.511588573,0.4262376,0.06146324,-0.1583747,-0.04608808,0.1181116,0.9870665,-11.20953,16.99707,-50.85533,1006.742
21.543759823,-0.1880666,0.06146324,-0.2196617,-0.05198402,0.1152029,0.9837236,-11.58251,17.00731,-50.47087,1006.744
21.575931072,-0.003775336,0.06146324,0.02548639,-0.04367837,0.1098513,0.9874579,-11.20457,17.00194,-50.4728,1006.744
21.610577106,0.3033767,-0.1160918,-0.03580063,-0.04322879,0.1054618,0.9850075,-11.20457,17.00194,-50.4728,1006.744
21.642748356,1.286263,0.1798333,0.02548639,-0.04370495,0.1132121,0.9826659,-10.83241,16.99089,-50.92102,1006.744
21.677393913,-0.7409403,0.06146324,0.02548639,-0.05780667,0.1094594,0.9904785,-11.20432,17.38307,-50.47466,1006.744
21.709565163,0.9176809,-1.181422,-0.8325319,-0.0642695,0.1011621,0.9803484,-11.20432,17.38307,-50.47466,1006.744
21.744211197,0.9791113,-1.477347,-0.955106,-0.04148608,0.1347221,1.00403,-11.20432,17.38307,-50.47466,1006.744
21.776382446,0.3033767,-0.7079419,0.3319215,-0.03688172,0.1131703,0.9816378,-11.19905,16.62649,-50.02466,1006.744
21.811028480,-0.8638011,-0.7671269,1.18994,-0.03087673,0.1287509,0.9918323,-11.95963,17.01349,-50.40518,1006.744
21.843198776,-1.846688,-0.885497,0.6996436,-0.0354155,0.1068786,0.9849463,-11.95963,17.01349,-50.40518,1006.746
21.877844810,-2.15384,-0.2936468,-0.5260968,-0.03157838,0.0966435,0.9819342,-11.20457,17.00194,-50.4728,1006.744
21.910016060,3.129176,-0.1752768,-1.445402,-0.0306081,0.08744565,0.9857053,-10.82581,16.99738,-50.41098,1006.742
21.944661617,4.910657,0.06146324,-1.138967,-0.04663649,0.1083877,0.9845814,-10.82581,16.99738,-50.41098,1006.742
21.976832867,8.28933,0.1206482,-0.955106,-0.05433843,0.1143257,0.9943422,-11.20953,16.99707,-50.85533,1006.742
22.011478901,2.023428,0.002278227,-0.7712449,-0.04544091,0.1429159,0.9940129,-10.82086,17.00226,-50.02845,1006.741
22.043650150,-1.539536,-0.1160918,0.3319215,-0.05078389,0.1400639,0.9983772,-10.82086,17.00226,-50.02845,1006.741
22.078296185,-2.2767,-0.1160918,1.128653,-0.04315454,0.1234214,0.9851549,-11.58277,16.62617,-50.46901,1006.739
22.110466957,-1.600966,-0.7671269,0.1480604,-0.04469657,0.1025642,0.9859614,-11.20978,16.61593,-50.85347,1006.743
22.142638207,0.6105288,-1.181422,-1.138967,-0.03442129,0.1064068,0.9873432,-11.20978,16.61593,-50.85347,1006.742
22.177284241,-0.1266362,0.002278227,-1.384115,-0.02659606,0.1126701,0.9863578,-11.59324,16.99675,-51.29967,1006.742
22.209455490,1.409124,0.4165733,-1.874411,-0.02911262,0.1048755,0.981015,-11.5822,16.24585,-50.40339,1006.74
22.244101524,1.839137,1.008423,-1.261541,-0.04216448,0.12488,0.9861218,-11.5822,16.24585,-50.40339,1006.74
22.276272774,-2.583853,2.547234,-0.8325319,-0.04717256,0.0957736,0.9849645,-11.20483,16.62081,-50.47094,1006.74
22.310918331,3.252037,3.671749,1.496375,-0.06382305,0.07839416,0.9864226,-11.19905,16.62649,-50.02466,1006.742
22.343089581,9.149357,3.730934,4.376865,-0.07196572,0.1143588,0.987277,-11.19905,16.62649,-50.02466,1006.742
22.377735615,5.586392,3.198269,4.744587,-0.06981685,0.1541808,0.9914411,-11.20457,17.00194,-50.4728,1006.742
22.409905911,0.05765508,2.724789,3.702708,-0.05377079,0.1453441,0.9888087,-10.44921,16.22894,-50.47295,1006.742
22.444551945,4.787797,1.363533,2.170532,-0.02889658,0.1307011,0.9942398,-10.44921,16.22894,-50.47295,1006.742
22.476723194,3.989202,0.1206482,0.4544955,-0.02580415,0.1675874,0.9959611,-10.44369,15.85349,-50.02481,1006.742
22.511369228,2.822024,-0.2344618,-1.07768,-0.04081669,0.1619646,1.012443,-10.45499,16.22325,-50.91923,1006.742
22.543540478,2.883454,-1.122237,-1.322828,-0.02168622,0.1561943,0.9688368,-10.45499,16.22325,-50.91923,1006.742
22.578186035,0.487668,-1.595717,-3.222726,-0.0607438,0.1346112,0.9772173,-10.07101,16.6047,-50.47674,1006.742
22.610357284,1.101972,-0.885497,-1.813124,-0.07076226,0.1537299,0.9953023,-10.8274,15.85317,-50.46915,1006.746
22.645003319,-0.8638011,-2.365122,-0.5260968,-0.04679421,0.1657516,0.9961418,-10.8274,15.85317,-50.46915,1006.744
22.677174568,-7.682577,-1.773272,-0.4035228,-0.05534576,0.1331612,0.9814929,-10.44369,15.85349,-50.02481,1006.744
22.709345817,-5.716804,-2.365122,-1.506689,-0.05732503,0.1138033,0.9876179,-10.44946,15.8478,-50.47109,1006.744
22.743991375,-8.296881,-3.016157,-2.425995,-0.06852394,0.1206517,0.9872968,-10.44946,15.8478,-50.47109,1006.744
22.776162624,-7.744008,-1.714087,-0.5873839,-0.04787705,0.07962137,0.9670039,-10.8274,15.85317,-50.46915,1006.744
22.810808659,-1.048092,0.4757583,2.722115,-0.04438858,0.08644031,0.9723296,-10.82689,16.61544,-50.47287,1006.742
22.842979908,0.1805159,1.777829,4.499439,-0.03399819,0.1034439,0.9810488,-10.82689,16.61544,-50.47287,1006.741
22.877625465,0.9791113,2.251309,5.051022,-0.03150012,0.1155739,0.9820895,-10.44813,16.61088,-50.41105,1006.741
22.909796715,3.436328,1.955384,3.825282,-0.03136293,0.1340743,0.9894707,-11.58277,16.62617,-50.46901,1006.741
22.944442749,3.989202,0.7124984,1.557662,-0.03018507,0.1574643,1.002184,-11.20509,16.23967,-50.46908,1006.739
22.976613522,-0.3723578,0.6533134,-0.7099579,-0.03577713,0.1393951,0.9842538,-11.20509,16.23967,-50.46908,1006.739
23.011259079,2.084859,0.1206482,-2.73243,-0.05050963,0.1079515,0.98847,-11.19905,16.62649,-50.02466,1006.741
23.043430328,2.944884,-0.2344618,-3.100152,-0.05681472,0.1133376,0.9905012,-11.20483,16.62081,-50.47094,1006.741
23.078076363,2.023428,0.5941284,-2.180846,-0.07109538,0.1132908,0.9752102,-11.20483,16.62081,-50.47094,1006.741
23.110247612,4.112062,0.4165733,0.1480604,-0.05971101,0.134658,0.983956,-10.82111,16.62112,-50.02659,1006.739
23.144893169,-1.416675,-0.4712019,0.8835047,-0.06202162,0.1512291,0.9913441,-10.82137,16.23999,-50.02473,1006.737
23.177064419,-2.768144,-0.5895719,0.7609307,-0.04935248,0.1390599,0.9949815,-10.82137,16.23999,-50.02473,1006.737
23.209235668,-1.662397,-1.299792,-0.1583747,-0.04327661,0.1271789,0.9687991,-10.44946,15.8478,-50.47109,1006.737
23.243881702,0.4262376,-0.4120168,0.3932085,-0.04803579,0.117158,0.9880408,-10.82715,16.2343,-50.47102,1006.736
23.276052952,-0.3723578,0.4165733,2.476967,-0.04209194,0.1365516,0.9891092,-10.82715,16.2343,-50.47102,1006.736
23.310698986,-1.600966,2.369679,3.334985,-0.03763642,0.08585027,0.9631038,-10.44317,16.61576,-50.02853,1006.738
23.342869759,8.28933,2.724789,4.6833,-0.02167442,0.1238059,0.9859217,-10.82715,16.2343,-50.47102,1006.736
23.377515793,6.200696,4.737079,2.844689,-0.02282455,0.1859954,0.993193,-10.82715,16.2343,-50.47102,1006.738
23.409687042,3.989202,3.553379,1.067366,-0.04301098,0.1366083,0.9958662,-10.45473,16.60439,-50.92109,1006.738
23.444333076,-0.4337882,-0.885497,-2.242134,-0.05043672,0.1839008,1.018497,-10.07622,16.21869,-50.85741,1006.738
23.476504326,-11.24554,-2.424307,-7.819252,-0.02807583,0.1058931,0.9877617,-10.07622,16.21869,-50.85741,1006.736
23.511149883,-7.866868,-1.477347,-12.04806,-0.07482515,0.05789549,0.9646662,-10.44946,15.8478,-50.47109,1006.734
23.543321133,1.654846,-2.365122,-14.74469,-0.08923589,0.09057566,0.9761561,-10.82715,16.2343,-50.47102,1006.739
23.577967167,5.770683,-0.944682,-12.47707,-0.0793909,0.1191351,0.9724437,-10.82715,16.2343,-50.47102,1006.737
23.610138416,7.552166,1.777829,-3.713022,-0.06262225,0.1699883,0.9688506,-10.82137,16.23999,-50.02473,1006.737
23.644783974,0.79482,3.849304,3.763995,-0.06337839,0.162456,0.9986793,-10.8274,15.85317,-50.46915,1006.735
23.676955223,-5.716804,2.192124,8.299234,-0.09028018,0.1489929,0.9978554,-10.8274,15.85317,-50.46915,1006.735
23.711601257,-5.901095,1.659459,10.812,-0.09066441,0.1147936,0.9686572,-11.57776,15.48846,-50.01714,1006.737
23.743772030,-0.249497,1.659459,10.50557,-0.06125142,0.122023,0.9809743,-10.82137,16.23999,-50.02473,1006.739
23.775943279,4.480645,1.304348,8.421808,-0.02193454,0.1573818,0.9968048,-10.82137,16.23999,-50.02473,1006.739
23.810588837,-9.095476,1.363533,1.925384,-0.004246163,0.1545028,1.012522,-10.44343,16.23462,-50.02666,1006.739
23.842760086,-3.198157,0.002278227,-0.7712449,-0.02245492,0.08437324,0.9701799,-10.44343,16.23462,-50.02666,1006.739
23.877406120,5.033518,-1.063052,-3.835596,-0.03467367,0.1477268,0.9953981,-10.44343,16.23462,-50.02666,1006.737
23.909577370,1.900568,-2.424307,-5.490346,-0.04830565,0.1425044,1.001748,-10.07075,16.98583,-50.4786,1006.737
23.944222927,-4.242474,-5.916223,-9.964298,-0.07071209,0.1257285,1.014833,-9.693329,16.2182,-50.47681,1006.739
23.976394176,-2.399561,-10.3551,-15.41884,-0.08460294,0.09802654,1.001238,-9.693329,16.2182,-50.47681,1006.739
24.011040211,1.101972,-13.37354,-19.8928,-0.08355215,0.1435452,0.9881078,-10.06549,16.22925,-50.0286,1006.739
24.043211460,-6.023956,-13.61028,-19.77022,-0.06204384,0.1889273,0.9704472,-10.81559,16.24567,-49.57846,1006.741
24.077857494,-15.91425,-10.47347,-14.1931,-0.02570646,0.1638077,1.009425,-11.19957,15.86422,-50.02094,1006.741
24.110028744,-24.02307,-7.099923,-7.88054,-0.01452916,0.1110379,0.9712898,-11.19957,15.86422,-50.02094,1006.741
24.144674301,-18.00289,-2.779417,-0.7099579,-0.01660671,-0.005085756,0.9544458,-12.32761,15.88601,-49.56886,1006.74
24.176845551,-0.6180795,-3.608008,2.047958,-0.0167265,0.05711097,1.026296,-13.08272,17.04015,-49.57057,1006.74
24.211491585,-17.38858,-2.779417,-0.7099579,-0.01492792,0.04297564,0.9567544,-13.08272,17.04015,-49.57057,1006.738
24.243662834,3.866341,2.251309,-1.322828,-0.02773093,0.01101839,0.9585384,-12.32684,17.02941,-49.57444,1006.736
24.278308392,15.23097,3.020714,3.45756,-0.006361408,0.1326034,1.003685,-12.32606,18.17281,-49.58002,1006.736
24.310479641,0.1190855,4.145229,6.215476,-0.02327682,0.1633026,1.008434,-12.32606,18.17281,-49.58002,1006.74
24.342650890,-14.25563,3.849304,7.686364,-0.02561359,0.1034834,0.9915749,-12.32658,17.41055,-49.5763,1006.74
24.377296925,-0.7409403,2.783974,8.237947,-0.0254754,0.0306275,0.985189,-12.33788,17.78031,-50.47072,1006.74
24.409468174,1.961998,1.245164,4.315578,-0.02605549,0.07644787,1.010154,-12.33788,17.78031,-50.47072,1006.74
24.444113731,-3.6896,-0.8263119,-3.038865,-0.01688519,0.06180235,1.005128,-11.56466,17.78663,-49.13575,1006.74
24.476284981,-2.768144,-1.654902,-8.309548,-0.02777034,0.05881851,0.9888167,-13.07617,18.18924,-49.12988,1006.742
24.510931015,1.286263,-1.240607,-9.228854,-0.03069533,0.0849485,0.9765275,-13.07617,18.18924,-49.12988,1006.742
24.543102264,0.9176809,-1.063052,-7.022521,-0.0374653,0.07633451,0.9880876,-12.32658,17.41055,-49.5763,1006.742
24.577748299,2.33058,-2.779417,-2.855004,-0.06549353,0.09848618,1.010222,-12.69271,17.80842,-48.68367,1006.744
24.609919548,-6.69969,-2.483492,-0.955106,-0.05363059,0.07297361,0.9824268,-12.69271,17.80842,-48.68367,1006.744
24.644565105,-4.303905,0.8308684,3.334985,-0.01831952,0.04881759,0.9568342,-12.32054,17.79737,-49.13188,1006.742
24.676736355,3.682049,6.27589,7.502503,0.01549498,0.06038595,0.968182,-12.32029,18.1785,-49.13374,1006.742
24.711382389,8.535052,8.347364,10.50557,0.00311991,0.08201045,0.9949857,-12.32029,18.1785,-49.13374,1006.742
24.743553638,10.74655,3.316639,7.870225,-0.009050422,0.1120418,1.042101,-12.70452,17.41592,-49.57437,1006.744
24.778199196,-2.952435,-1.654902,-1.567976,-0.02392825,0.1022267,1.018541,-11.18672,17.78126,-49.13768,1006.742
24.810370445,4.849227,-2.897787,-5.551633,-0.02911683,0.06763687,0.998542,-11.18672,17.78126,-49.13768,1006.742
24.842541218,3.620619,-1.773272,-5.00005,-0.03123033,0.1230727,1.010587,-11.94286,17.41087,-49.13195,1006.741
24.877187729,-0.3723578,-1.654902,-2.425995,-0.06847676,0.1115068,0.9973429,-11.9426,17.792,-49.13382,1006.743
24.909358025,-16.89714,-1.950827,-2.487282,-0.04616704,0.0725843,0.9997059,-11.9426,17.792,-49.13382,1006.743
24.944004059,-8.481172,0.3573883,-2.487282,-0.02285099,0.003257036,0.9622849,-12.33261,17.02373,-50.02072,1006.743
24.976175308,4.050632,1.955384,-1.996985,-0.0302153,0.04093404,0.996886,-11.94838,17.78631,-49.5801,1006.741
25.010821342,-0.3109274,2.843159,-3.161439,-0.03496856,0.07443974,0.9957607,-11.94838,17.78631,-49.5801,1006.741
25.042992592,6.077836,1.896199,-4.571041,-0.05849931,0.05995168,0.9900768,-12.32632,17.79168,-49.57816,1006.743
25.077638149,9.947952,1.185979,-2.793717,0.001677972,0.1303947,0.9741902,-11.94286,17.41087,-49.13195,1006.743
25.109809399,4.296353,3.494194,-3.161439,-0.03148178,0.146018,1.027648,-11.94286,17.41087,-49.13195,1006.747
25.144455433,-12.10557,-0.4120168,-4.019457,-0.03790946,0.09378529,0.9848616,-11.9426,17.792,-49.13382,1006.747
25.176626682,-1.048092,-2.897787,-5.061337,-0.04048368,0.06127619,0.9846177,-11.56492,17.4055,-49.13389,1006.745
25.211272240,-1.785257,-2.424307,-2.303421,-0.0277794,0.07718589,0.9788463,-11.94286,17.41087,-49.13195,1006.745
25.243443489,-1.908118,3.316639,1.864097,-0.04451995,0.07326448,0.9630642,-11.94286,17.41087,-49.13195,1006.746
25.278089523,6.262127,6.51263,8.483095,-0.04752942,0.04274006,0.9681426,-12.32054,17.79737,-49.13188,1006.746
25.310260773,8.350761,5.80241,11.36359,-0.05439725,0.07268524,1.007496,-12.31476,17.80305,-48.6856,1006.744
25.344906807,2.023428,2.132939,9.157252,-0.09247634,0.08011372,1.002128,-12.31476,17.80305,-48.6856,1006.742
25.377078056,1.900568,-2.187567,4.989735,-0.067192,0.07797031,0.9922345,-11.5707,17.39981,-49.58017,1006.74
25.409249306,8.28933,-4.022303,1.864097,-0.03631594,0.1006658,0.9969534,-11.57648,17.39413,-50.02645,1006.739
25.443894863,10.93084,-3.667192,0.08677342,-0.01857206,0.1249171,1.006146,-11.57648,17.39413,-50.02645,1006.739
25.476066112,10.07081,-6.685628,-1.935698,-0.04229773,0.1401957,1.020953,-11.56492,17.4055,-49.13389,1006.743
25.510712147,2.637733,-14.14294,-8.615984,-0.03210761,0.1410594,1.013635,-11.57673,17.01299,-50.02459,1006.743
25.542883396,-2.891005,-14.02457,-14.43825,-0.005243249,0.05974632,0.9977721,-11.57673,17.01299,-50.02459,1006.745
25.577528953,9.517939,-13.07761,-15.05112,-0.04317165,0.02866366,0.9708779,-11.94312,17.02973,-49.13009,1006.745
25.609700203,-0.1266362,-8.579549,-11.06746,0.01676505,0.1481745,0.9606999,-12.69482,15.90194,-48.73812,1006.743
25.644346237,-7.989729,2.724789,-4.693614,0.02141657,0.04643044,0.9246318,-12.69482,15.90194,-48.73812,1006.743
25.676517486,13.81807,8.939215,4.131717,0.02618626,0.1212218,0.9333978,-13.084,15.13449,-49.56127,1006.743
25.711163521,1.777707,12.72706,11.67002,0.02125838,0.2163908,0.9978522,-13.07797,15.5213,-49.11685,1006.739
25.743334293,-3.075296,14.50261,16.32784,0.004323559,0.1576494,0.9854761,-13.07797,15.5213,-49.11685,1006.743
25.777980328,-4.488195,12.19439,17.55358,-0.01798519,0.1370938,1.012025,-12.70555,15.89138,-49.56693,1006.741
25.810151577,-0.4337882,10.53721,17.24714,-0.03686948,0.1122143,0.9835579,-11.9557,15.49383,-50.01521,1006.741
25.844797611,-2.030979,8.110624,14.30536,-0.0913794,0.1202803,1.113309,-11.9557,15.49383,-50.01521,1006.741
25.876968861,-20.15295,0.7124984,5.051022,-0.1965868,-0.0007247478,0.9633911,-11.57096,17.01868,-49.57831,1006.74
25.911614418,-0.986662,-3.785563,-1.567976,-0.1702864,-0.07343763,0.9924302,-11.19327,16.63218,-49.57838,1006.738
25.943785667,39.37312,-10.23673,-2.855004,-0.04718394,0.01653267,0.9057454,-11.19327,16.63218,-49.57838,1006.736
25.975956917,40.84745,-1.714087,-0.1583747,0.07716148,0.2319105,0.9063607,-10.82034,17.76452,-50.03218,1006.736
26.010602951,13.57235,8.52492,4.805874,0.1311693,0.3406709,1.008937,-11.57725,16.25072,-50.02087,1006.74
26.042774200,-23.77734,14.73935,8.237947,0.08315857,0.2343903,0.9800711,-11.57725,16.25072,-50.02087,1006.74
26.077419758,-14.74707,14.20668,6.276762,-0.1283978,-0.03748747,1.023666,-11.57802,15.10732,-50.01528,1006.738
26.109591007,22.47976,-1.595717,3.763995,-0.1763947,0.1279355,0.9811334,-10.07153,15.84243,-50.47302,1006.738
26.144237042,-5.532513,-5.620298,-6.287077,-0.1053211,0.1423771,1.011437,-10.07153,15.84243,-50.47302,1006.74
26.176408291,-2.338131,-4.022303,-12.10934,-0.07173075,0.02421984,0.9426697,-10.43765,16.2403,-49.58039,1006.74
26.211054325,23.15549,-6.330518,-11.19004,-0.04786795,0.1004231,0.9580173,-10.06048,15.09154,-49.57674,1006.744
26.243225575,36.3016,-3.844748,-4.387179,0.01730878,0.2816505,0.9608313,-11.19982,15.48309,-50.01908,1006.744
26.277871132,4.234923,5.80241,3.089838,0.03728165,0.3680408,0.9729251,-11.19982,15.48309,-50.01908,1006.744
26.310042381,-31.88616,10.47803,4.928448,-0.07541911,0.2003423,1.057426,-11.20137,13.19629,-50.00791,1006.744
26.344688416,-10.99982,-0.5895719,4.009143,-0.1263813,0.04960391,0.9891789,-10.43945,13.57237,-49.56736,1006.744
26.376859665,-12.35129,-7.159108,-3.222726,-0.08066754,0.1125428,0.9979472,-10.43945,13.57237,-49.56736,1006.744
26.411505222,-2.645283,-2.779417,-6.83866,-0.03921275,0.0287316,0.9192676,-10.44472,14.32895,-50.01736,1006.747
26.443676472,15.84527,0.3573883,-3.896883,-0.06781422,0.1537336,0.9976848,-10.43817,15.47804,-49.57667,1006.745
26.475847721,0.1805159,-2.838602,-2.671143,-0.1021791,0.1628671,1.027001,-10.43817,15.47804,-49.57667,1006.743
26.510493755,2.084859,-6.508073,-3.222726,-0.08718583,0.1162843,0.975385,-11.19456,14.72651,-49.56908,1006.743
26.542665005,10.80798,-6.803998,-1.751837,-0.0130282,0.1806982,0.941966,-10.82266,14.33432,-50.01543,1006.743
26.577310562,5.463531,0.4757583,4.315578,0.06600083,0.2769583,0.9502162,-10.82266,14.33432,-50.01543,1006.741
26.609481811,-11.79841,7.8147,9.524975,0.07157718,0.2843747,0.9714333,-10.8224,14.71546,-50.01729,1006.741
26.644127846,-45.33942,8.406549,2.844689,-0.1372002,0.01327669,1.055014,-11.20085,13.95856,-50.01163,1006.741
26.676299095,1.224833,-4.140673,-1.200254,-0.126437,-0.03741442,0.9084502,-11.20085,13.95856,-50.01163,1006.74
26.710945129,8.350761,-4.732523,-5.735494,-0.02768944,0.1057983,0.9757074,-11.20535,15.85854,-50.46722,1006.744
26.743116379,14.37094,1.067608,-2.977578,-0.01423391,0.1456772,0.9315667,-10.44946,15.8478,-50.47109,1006.744
26.777761936,4.603506,4.441154,-0.5260968,-0.05656036,0.2165318,1.028945,-10.44946,15.8478,-50.47109,1006.744
26.809933186,-9.58692,-2.424307,-1.016393,-0.1007136,0.1299785,1.043104,-11.20008,15.10196,-50.01722,1006.744
26.844579220,-2.891005,-6.803998,-4.571041,-0.08177397,0.05105314,0.9540707,-10.82266,14.33432,-50.01543,1006.745
26.876750469,14.4938,-5.797853,-4.938763,-0.002991972,0.1316144,0.9405038,-10.82266,14.33432,-50.01543,1006.749
26.911396027,8.780774,-0.885497,-2.364707,0.03331148,0.2065253,0.9851265,-11.19982,15.48309,-50.01908,1006.749
26.943567276,-0.1880666,2.310494,1.251227,0.006564692,0.2207666,0.9893494,-10.8111,14.34569,-49.12287,1006.749
26.978213310,-7.805438,4.263599,4.07043,-0.02669837,0.1990986,0.9904452,-10.8111,14.34569,-49.12287,1006.753
27.010384560,-18.00289,3.967674,1.864097,-0.1254526,0.09062207,1.021802,-11.20034,14.72082,-50.01535,1006.753
27.042555809,-4.242474,-4.022303,-0.4035228,-0.08120096,0.05596373,0.9618178,-11.2006,14.33969,-50.0135,1006.752
27.077201843,-0.8638011,-2.483492,-2.916291,-0.005455186,0.07309351,0.9660722,-11.2006,14.33969,-50.0135,1006.752
27.109372616,8.412191,1.067608,-2.11956,-0.0144692,0.1304352,0.9690391,-11.1943,15.10764,-49.57094,1006.752
27.144018650,3.559189,2.902344,-0.7712449,-0.04193062,0.1599097,0.9970123,-11.19379,15.86991,-49.57466,1006.75
27.176189899,1.654846,0.06146324,-0.2196617,-0.07218721,0.1474863,1.002976,-11.19379,15.86991,-49.57466,1006.752
27.210835934,0.3648072,-1.003867,0.8222177,-0.0508461,0.1651529,0.9788228,-11.1943,15.10764,-49.57094,1006.752
27.243007183,-5.655374,-0.1752768,0.7609307,-0.02980606,0.1428557,0.9962766,-10.82214,15.09659,-50.01915,1006.752
27.277653694,-7.006843,-0.2344618,-0.7712449,-0.05115842,0.07492505,0.9853119,-11.1943,15.10764,-49.57094,1006.752
27.309823990,3.129176,-2.010012,-4.019457,-0.08287656,0.05719188,0.9941375,-11.1943,15.10764,-49.57094,1006.752
27.344470501,7.675026,-4.140673,-5.490346,-0.075381,0.1066393,0.9911011,-11.57147,16.25641,-49.57459,1006.752
27.376641750,18.67107,-5.383558,-2.11956,-0.005433521,0.1983202,0.9661404,-11.57276,14.35074,-49.56528,1006.754
27.411287785,1.961998,-0.05690679,1.496375,0.02525462,0.2730329,0.981412,-11.57276,14.35074,-49.56528,1006.753
27.443459034,-16.09854,2.665604,2.41568,0.002438308,0.1669076,0.9889439,-11.57276,14.35074,-49.56528,1006.753
27.478104591,-7.498286,3.730934,4.622013,0.003859942,0.1267629,0.9452198,-11.57276,14.35074,-49.56528,1006.751
27.510275841,-5.471082,7.163665,6.276762,-0.01282429,0.1654094,0.97365,-11.57276,14.35074,-49.56528,1006.749
27.544921875,-22.79446,6.926925,2.41568,-0.1122063,0.07317486,1.096727,-11.19982,15.48309,-50.01908,1006.751
27.577093124,-4.856778,-4.673338,-3.284013,-0.1593664,-0.06019239,0.8916997,-11.57224,15.11301,-49.569,1006.75
27.609264374,29.91284,-4.318228,-0.03580063,-0.03504443,0.1686667,0.9411083,-11.57224,15.11301,-49.569,1006.748
27.643910408,-1.908118,1.837014,0.5770696,0.02302977,0.2408415,1.022619,-10.81559,16.24567,-49.57846,1006.748
27.676081657,-10.56981,3.435009,1.373801,-0.04531266,0.06569889,0.9885551,-11.57828,14.72619,-50.01342,1006.746
27.710727215,5.709253,-1.063052,-0.4648098,-0.0685376,0.1095172,0.991061,-11.57828,14.72619,-50.01342,1006.746
27.742898464,-0.3109274,-2.542677,-3.038865,-0.05492167,0.1108565,0.9846791,-11.56595,15.88096,-49.12645,1006.748
27.777544498,9.6408,-1.950827,-2.916291,-0.02662181,0.1397266,0.9701931,-11.57224,15.11301,-49.569,1006.747
27.809715748,5.586392,-0.2344618,0.08677342,-0.01599436,0.2091712,0.9817524,-11.57224,15.11301,-49.569,1006.747
27.844361305,-5.593943,2.251309,4.193004,0.002430181,0.2070364,0.968549,-11.5725,14.73188,-49.56714,1006.745
27.876532555,-13.39561,4.441154,5.173596,-0.01890505,0.1535911,1.010723,-11.56621,15.49983,-49.12458,1006.743
27.911178589,-20.95155,-0.6487569,-4.019457,-0.1456261,-0.04430771,1.00931,-11.56621,15.49983,-49.12458,1006.741
27.943349838,22.9712,-6.508073,-2.671143,-0.05501354,0.08808257,0.9266523,-11.57802,15.10732,-50.01528,1006.745
27.977995872,6.384987,-0.05690679,-1.138967,-0.01389106,0.2262241,0.9915133,-11.57751,15.86959,-50.019,1006.744
28.010166645,-10.32408,1.896199,1.435088,-0.0342074,0.1346483,0.9991419,-11.57751,15.86959,-50.019,1006.744
28.044812679,-1.478105,-0.2936468,1.618949,-0.05244686,0.1007211,0.9937304,-11.57199,15.49414,-49.57087,1006.742
28.076983929,0.4262376,-1.418162,1.557662,-0.03919094,0.142799,0.9828677,-11.19982,15.48309,-50.01908,1006.742
28.111629963,-17.26572,-0.4712019,2.722115,-0.04002576,0.1960874,1.031997,-11.19982,15.48309,-50.01908,1006.744
28.143801212,-53.57109,-1.595717,11.60873,-0.1026604,0.3987078,1.146075,-11.19957,15.86422,-50.02094,1006.746
28.175972462,-110.8857,-13.9062,28.95296,-0.08876707,0.4408444,1.269203,-11.19353,16.25104,-49.57652,1006.746
28.210618019,-162.2415,-45.62937,43.04898,-0.2006184,0.3228335,1.314582,-11.19353,16.25104,-49.57652,1006.744
28.242789269,-120.346,-90.01813,71.05714,-0.06816353,0.1729808,1.353562,-11.18069,18.16808,-48.69326,1006.744
28.277435303,-233.9308,-110.5553,68.23795,-0.09460689,0.301174,1.280638,-12.29966,24.29288,-47.88843,1006.744
28.309606552,-372.7021,-143.7581,23.13069,-0.1422991,-0.2730216,0.9350938,-12.29966,24.29288,-47.88843,1006.742
28.344252110,-332.0352,-186.4897,-29.88258,0.2301073,-1.148542,0.4944575,-14.12932,28.94936,-43.50204,1006.745
28.376423359,-34.71196,-164.7096,-51.45561,0.3530345,-1.669888,0.5666143,-16.28373,38.29697,-30.40137,1006.745
28.411069870,2.514872,-182.5835,-77.38002,0.4160981,-0.6517045,0.8424116,-20.69726,41.52821,-21.14866,1006.743
28.443241119,-97.80099,-168.7342,-93.62109,0.4312507,-0.8883697,0.4368855,-20.69726,41.52821,-21.14866,1006.743
28.477887154,-33.48335,-142.752,-109.7396,0.48426,-0.7339826,0.2241379,-25.52911,37.48838,-14.60011,1006.747
28.510058403,-44.66368,-117.9535,-105.6333,0.5295478,-0.4195663,0.1766615,-29.22503,35.33891,-8.002903,1006.745
28.544704437,-32.37761,-88.77525,-104.0399,0.5874927,-0.5277308,0.09762714,-29.22503,35.33891,-8.002903,1006.745
28.576875687,9.026496,-69.30338,-91.47604,0.6012341,-0.4063897,0.1062113,-32.56689,32.01793,-3.187173,1006.743
28.611521244,-2.645283,-53.38261,-78.42191,0.7372408,-0.314835,0.04448302,-34.80166,29.41632,-0.4848614,1006.742
28.643692493,-11.30697,-35.03525,-64.87747,0.7854885,-0.3300862,-0.01393285,-34.80166,29.41632,-0.4848614,1006.744
28.675863743,-20.70582,-23.7901,-50.22987,0.8528392,-0.3057519,-0.02496467,-36.67165,25.65375,1.264784,1006.742
28.710509777,-44.54082,-11.47962,-37.72732,0.9009565,-0.3544879,-0.08269138,-38.53926,24.1788,3.067019,1006.741
28.742681026,-39.87211,-0.1160918,-26.57308,0.9074681,-0.4809499,-0.1758566,-38.53926,24.1788,3.067019,1006.741
28.777326584,-100.0125,27.04983,-26.87952,1.003392,-0.4587794,-0.3862387,-39.29039,22.67069,3.524611,1006.739
28.809497833,-137.9765,89.43083,-23.93774,0.9759594,-0.6336417,-0.5464841,-40.03683,20.78632,4.366589,1006.737
28.844143867,-185.7693,174.0654,-28.28912,0.7984833,-0.4881818,-0.3657711,-40.03683,20.78632,4.366589,1006.735
28.876315117,-283.9966,255.504,-32.1502,0.6608875,-0.7539278,-0.2346101,-40.79869,19.26764,3.995373,1006.736
28.910960674,-176.6162,325.0464,-9.964298,0.2243537,-1.01421,0.03482709,-42.38602,17.31036,-1.725482,1006.736
28.943131924,35.44157,-1166.298,7.318642,2.532384,-1.756677,-7.651802,-42.38602,17.31036,-1.725482,1006.734
28.977777958,-452.7459,492.9543,-31.29218,2.084602,0.6179743,1.973865,-42.06581,16.10555,-6.120885,1006.732
29.009949207,253.0281,-64.03591,25.64346,-0.1596029,-0.8889084,0.741716,-43.17754,14.61987,-4.322517,1006.731
29.044595242,50.55346,-19.52877,38.51374,1.130328,-0.2818169,0.9294123,-43.17754,14.61987,-4.322517,1006.734
29.076766491,87.04312,14.1475,64.13171,0.6988576,-0.5230581,0.3978762,-42.07628,16.47613,-6.951552,1006.734
29.111413002,77.64427,12.90461,76.4504,0.5893641,-0.3735575,0.76886,-41.33093,17.97856,-7.855425,1006.734
29.143584251,131.5187,4.381969,94.95908,0.3301217,-0.6232749,0.7600623,-41.33093,17.97856,-7.855425,1006.733
29.178229809,256.5911,-1.536532,124.4994,0.2242873,-0.4233888,0.5544739,-40.59713,19.46961,-9.651857,1006.733
29.210401058,265.9899,13.49646,141.4147,0.47927,-0.2164176,0.3672672,-38.73973,21.69628,-12.28662,1006.735
29.242572308,240.742,56.99744,164.1521,0.4589546,-0.2935228,0.426107,-38.73973,21.69628,-12.28662,1006.733
29.277218342,167.3941,66.05275,171.7517,0.3952149,-0.3183298,0.693043,-36.16551,23.4929,-17.91985,1006.733
29.309389591,100.8035,81.08575,174.7548,0.3839584,-0.5038447,0.5465367,-32.47036,24.49896,-24.51147,1006.733
29.344035149,124.2085,96.65141,155.572,0.1986575,-0.8025373,0.5915933,-32.47036,24.49896,-24.51147,1006.733
29.376206398,152.7737,95.58607,122.7834,0.1504473,-0.5277622,0.8194022,-27.24066,26.26775,-29.39318,1006.732
29.410852432,83.72588,86.94506,76.20525,0.1053994,-0.3117841,1.103573,-21.27209,27.24729,-35.55013,1006.733
29.443023682,-24.51451,53.97901,59.4739,0.2991759,-0.2764771,1.149292,-21.27209,27.24729,-35.55013,1006.733
29.477669716,-85.63777,43.97674,45.68432,0.2345204,-0.5595603,0.9672934,-16.05022,25.96133,-40.86323,1006.737
29.509840488,-49.82384,37.11128,29.01425,0.2292843,-0.5473245,0.9770831,-11.47476,25.11181,-42.6044,1006.737
29.544486523,-58.36267,49.42176,22.21139,0.2821045,-0.4434753,0.8824925,-8.076762,28.48801,-43.08484,1006.736
29.576657772,-78.14326,6.03915,24.72416,-0.1882303,-0.6682976,1.700571,-8.076762,28.48801,-43.08484,1006.734
29.611303806,-7.313994,-48.29269,8.60567,0.3526911,-0.371189,1.175485,-4.695792,31.08571,-44.83663,1006.732
29.643475056,-17.94145,-25.15135,20.06634,0.2044064,-0.2686935,0.9015284,-3.55522,33.74241,-44.47293,1006.732
29.678121567,8.596483,3.849304,0.3932085,0.2207784,-0.5581127,0.9573115,-3.55522,33.74241,-44.47293,1006.736
29.710292816,51.6592,5.033004,-9.290141,-0.002515486,-0.3614521,0.8872705,-4.683261,33.7642,-44.02085,1006.736
29.744938374,13.44949,-6.034593,-8.125688,0.1345551,-0.2220236,0.9290749,-3.932901,34.12891,-44.47286,1006.734
29.777109623,8.780774,-0.2936468,-6.470938,0.09955603,-0.3962187,0.9135054,-3.932901,34.12891,-44.47286,1006.734
29.809280872,28.92995,-0.05690679,-5.429059,0.127296,-0.3268664,0.9870822,-5.084258,32.60424,-45.7347,1006.734
29.843926907,4.173492,4.618709,-4.754901,0.08986575,-0.3192568,0.9426683,-5.467977,32.60392,-46.17905,1006.734
29.876098156,17.56532,4.796264,-3.835596,0.08776314,-0.3817271,0.896865,-5.467977,32.60392,-46.17905,1006.733
29.910743713,35.87159,2.132939,-5.367772,0.1006421,-0.2936441,0.9350668,-3.956733,31.82018,-46.18307,1006.734
29.942914963,38.26737,1.659459,-7.512817,0.1047506,-0.2881582,0.9567638,-4.352521,31.04623,-47.51625,1006.738
29.977560997,39.37312,-3.489638,-8.983706,0.07856658,-0.2665978,0.9663438,-4.352521,31.04623,-47.51625,1006.738
30.009732246,32.98436,-2.956972,-8.432123,0.08246711,-0.1738124,0.9791223,-4.736753,30.28364,-47.95688,1006.738
30.044378281,-0.8023707,-4.791708,-7.267669,0.1241436,-0.1598158,0.9957188,-5.510427,28.37247,-49.21879,1006.738
30.076549530,-22.42587,1.422719,-17.80904,0.06509344,-0.3514273,0.9720362,-5.510427,28.37247,-49.21879,1006.742
30.111195087,81.57581,-7.573403,-4.387179,0.2202416,-0.3338534,0.9591653,-4.75011,27.60434,-48.83641,1006.742
30.143366337,54.17785,0.6533134,-5.674207,0.1219669,0.003807266,1.064086,-5.894402,27.99102,-49.66128,1006.74
30.178012848,31.63289,-1.418162,-7.390244,0.06402299,-0.3127482,0.8258371,-5.894402,27.99102,-49.66128,1006.74
30.210184097,84.34019,-0.2344618,-3.835596,0.1302925,0.04538001,1.047481,-5.530077,24.92521,-50.54089,1006.74
30.244830132,11.29942,1.659459,-3.835596,0.1015092,0.006845127,1.067194,-6.309326,24.53208,-52.32028,1006.74
30.277001381,-25.43596,7.400405,-3.467874,0.07650884,0.03446707,0.982341,-6.309326,24.53208,-52.32028,1006.742
30.311646938,-26.1117,9.057585,2.905976,0.1061485,-0.1567322,0.9433742,-6.316079,21.85927,-52.68978,1006.746
30.343818188,-12.47415,9.47188,2.41568,0.1839192,-0.18794,1.037827,-5.926894,22.62673,-51.86663,1006.746
30.375989437,-2.460992,16.81082,1.80281,0.2062079,-0.1340364,0.9927555,-5.926894,22.62673,-51.86663,1006.746
30.410635471,-1.662397,19.35578,1.128653,-0.02601609,-0.114414,0.9329063,-5.536369,24.15726,-50.98344,1006.744
30.442806721,-3.75103,12.9638,0.3319215,0.07005501,0.0005114339,1.043817,-4.408329,24.13547,-51.43553,1006.744
30.477452278,-27.09459,15.50875,1.741523,0.04732862,-0.1079126,1.005057,-4.408329,24.13547,-51.43553,1006.744
30.509623527,-15.85282,16.69245,3.763995,0.01407046,-0.1377594,0.9525838,-3.646414,24.51155,-50.99498,1006.744
30.544269562,-26.17313,20.59866,6.33805,0.0482066,-0.1713167,0.9659666,-3.262181,25.27414,-50.55435,1006.744
30.576440811,-23.53162,16.39653,4.805874,-0.0133615,-0.1769624,1.075426,-3.262181,25.27414,-50.55435,1006.748
30.611087322,-21.75014,34.21121,-0.4035228,-0.1728164,-0.1980066,0.6352293,-2.12207,26.02598,-50.11759,1006.748
30.643258572,6.815001,29.18049,-3.529161,-0.2099306,-0.3682123,0.9469901,-1.731803,27.17539,-49.23255,1006.748
30.677904606,42.13749,22.84769,-4.509753,0.196431,-0.1186039,1.099496,-0.5853996,28.69518,-48.35323,1006.75
30.710075855,-34.65053,29.59479,9.586262,0.4898054,-0.03434991,1.010693,-0.5853996,28.69518,-48.35323,1006.75
30.744721413,-85.94492,37.05209,15.59239,0.1410615,-0.3756076,0.9065401,2.064103,27.13794,-47.9768,1006.75
30.776892662,-8.296881,13.91076,33.30434,-0.3747978,-0.4461094,0.9358363,3.588445,28.65237,-47.09942,1006.752
30.811538696,15.23097,-3.903933,46.17461,-0.07057917,-0.07524054,1.011729,3.588445,28.65237,-47.09942,1006.752
30.843709946,-60.69703,-24.5595,67.5025,-0.1265841,-0.3237464,0.913321,5.113561,31.3102,-46.22762,1006.752
30.875881195,-20.70582,-48.6478,83.19198,-0.03423077,-0.5072911,0.9003421,5.874961,30.92402,-45.78334,1006.756
30.910526752,48.8334,-46.75388,85.58217,0.01236293,-0.4033783,0.93595,5.874961,30.92402,-45.78334,1006.756
30.942698002,67.93826,-31.78008,63.02854,-0.01354262,-0.05869004,1.054713,7.021623,32.82495,-44.90589,1006.754
30.977344036,29.11424,-2.424307,31.52702,-0.01001247,0.03904041,1.079104,7.375676,31.65344,-46.68736,1006.754
31.009515762,-7.068273,23.85384,6.399337,-0.0008720756,-0.02689061,1.095345,7.375676,31.65344,-46.68736,1006.754
31.044161797,-27.09459,47.17273,-3.651735,-0.07097645,-0.1723156,1.011414,8.508468,30.1128,-46.68572,1006.754
31.076333046,-31.21042,50.60546,-2.916291,-0.06718869,-0.3140517,0.9499607,8.892444,30.49425,-46.24323,1006.754
31.110978603,2.453441,54.3933,-4.571041,-0.1379683,-0.2460565,0.9728717,8.892444,30.49425,-46.24323,1006.754
31.143149853,21.98831,52.4402,-9.351428,-0.122967,-0.2906977,0.9212717,10.04354,31.63779,-44.97953,1006.758
31.177795887,46.8062,53.97901,-21.48626,-0.1878,-0.3275463,0.9476008,11.92695,30.843,-45.43176,1006.758
31.209967136,62.22523,61.1404,-26.26665,-0.1631977,-0.1732994,1.013231,11.92695,30.843,-45.43176,1006.758
31.244613171,56.5122,63.27105,-30.12773,-0.2074718,-0.08784942,0.9878384,13.43845,30.44039,-45.43763,1006.756
31.276784420,58.10939,64.63231,-40.24009,-0.3026653,-0.2822493,1.0199,14.18757,27.75684,-45.811,1006.756
31.311429977,98.53061,49.24421,-47.65582,-0.1057616,-0.05479877,0.9963198,14.18757,27.75684,-45.811,1006.755
31.343601227,84.03304,54.57086,-42.13998,-0.4374112,-0.01276999,0.8826351,15.68701,26.5806,-46.70572,1006.755
31.378247738,54.60786,39.95216,-36.50158,-0.4413919,0.2548526,1.09262,16.80695,23.12292,-47.58733,1006.753
31.410418987,17.38103,21.60481,-38.03376,-0.6569447,0.0772787,1.718803,16.80695,23.12292,-47.58733,1006.753
31.442590237,19.59253,-18.46344,-27.61496,0.1928665,0.1393543,1.18938,16.79912,20.06817,-48.01873,1006.753
31.477236271,-2.891005,-15.74093,-40.6691,0.05327027,0.04565186,0.5922304,16.40911,19.2999,-48.90563,1006.753
31.509407520,-12.04414,8.228994,-51.88462,0.3797796,0.6395258,0.7738656,16.40911,19.2999,-48.90563,1006.757
31.544053078,-226.4363,16.15979,-40.54652,0.05473642,0.6267822,1.240959,14.15803,18.20577,-47.54961,1006.755
31.576224327,-359.6174,30.06827,-32.21149,-0.0792169,0.3417725,0.8272677,12.64653,18.60837,-47.54373,1006.755
31.610870361,-286.0238,101.2086,-20.32181,-0.2520849,-0.9308943,-0.5461518,12.64653,18.60837,-47.54373,1006.753
31.643041611,112.8439,128.4338,5.112309,-0.2291274,-1.459938,-0.4037176,10.85881,26.73404,-40.11388,1006.753
31.677687645,301.1281,188.98,-16.093,-0.7614297,-0.6200002,0.4810749,9.810151,35.59418,-34.03045,1006.757
31.709858417,22.47976,168.5612,-79.89279,-1.123954,-0.09939187,0.4106656,9.810151,35.59418,-34.03045,1006.759
31.744505405,-110.5171,192.8862,-95.33712,-0.5351272,-0.9795628,-0.1158964,11.61174,30.91008,-40.58449,1006.759
31.776676178,-62.72423,235.3219,-73.02865,-0.6550779,-0.9902982,-0.3896053,13.89285,25.17793,-39.22934,1006.759
31.811322212,-106.5855,203.3028,-49.06542,-1.256829,-0.1965036,0.3831489,15.45104,26.72565,-35.73803,1006.757
31.843493462,-238.1695,70.13651,-25.34734,-1.614973,-0.2687106,1.237589,15.45104,26.72565,-35.73803,1006.757
31.878139496,-119.7931,-6.744813,43.47799,-1.345133,-0.7459717,0.07096337,18.17189,29.42829,-30.09045,1006.759
31.910310745,-130.6663,0.9492384,50.21956,-1.578026,-0.5726624,-0.2011384,17.50359,33.33401,-23.53849,1006.763
31.944956303,-111.9914,-39.94761,37.77829,-1.575235,-0.9220496,0.1261248,17.50359,33.33401,-23.53849,1006.763
31.977127552,-167.5245,-64.15428,12.16032,-1.39069,-0.8005481,0.07672253,19.82896,34.50124,-19.15663,1006.761
32.009298801,-73.72027,-101.6184,30.23999,-0.3545254,-1.179611,-0.8277701,22.1535,35.66765,-14.83852,1006.761
32.043944836,-395.4313,-72.26263,38.75888,-1.094483,-0.002314732,0.6189327,22.1535,35.66765,-14.83852,1006.764
32.076116562,-238.9067,-109.9043,-39.50464,-0.9425799,-1.503637,-1.369614,24.83369,36.80677,-12.24371,1006.762
32.110762596,298.6709,10.00455,48.87124,0.1758673,-0.5747124,-0.7216924,26.11052,38.45488,-1.291197,1006.76
32.142933846,252.5367,39.0052,58.43202,0.3974448,0.4436444,0.9383757,26.11052,38.45488,-1.291197,1006.758
32.177579403,16.15242,56.52396,25.27574,0.1911572,-0.05629592,0.6156493,27.17112,38.74763,-6.973,1006.757
32.209750652,61.18092,4.381969,26.8692,-0.7890412,-0.6811666,1.406749,30.91483,37.1353,-9.662579,1006.757
32.244396687,194.362,-34.02911,20.61793,-1.382609,-0.6816389,-0.2968862,30.91483,37.1353,-9.662579,1006.757
32.276567936,134.3445,25.03754,33.05919,-1.275076,0.291854,0.06585158,33.90976,36.30248,-11.84198,1006.755
32.311213970,32.0629,26.63554,31.40444,-0.3690236,-0.3813025,0.720381,34.59661,35.46206,-17.13374,1006.755
32.343385220,-1.478105,12.5495,35.26553,-0.842916,-0.6653771,0.2717914,34.59661,35.46206,-17.13374,1006.755
32.378031731,19.71539,15.62712,27.84979,-1.044096,0.03705344,0.09147968,36.86271,33.14305,-17.13417,1006.755
32.410202503,0.4262376,21.60481,29.38197,-0.8729355,-0.2969788,0.06351082,38.00179,32.37037,-16.68997,1006.754
32.444848537,-37.04631,18.94148,25.9499,-0.8828973,-0.3697614,0.2490555,38.00179,32.37037,-16.68997,1006.75
32.477019787,-11.3684,24.20895,24.17257,-1.009525,-0.06347436,0.421462,39.14062,31.21654,-16.24391,1006.752
32.509191036,1.961998,20.36192,19.26961,-1.024961,-0.2616062,-0.0422649,40.66946,30.83099,-14.91095,1006.749
32.543837070,9.087926,13.43728,7.992799,-0.8942535,-0.309083,0.4945175,40.66946,30.83099,-14.91095,1006.747
32.576008320,-11.12268,8.584105,-0.4035228,-0.8957667,-0.3428209,0.2725337,41.43085,30.4448,-14.46667,1006.747
32.610653877,54.485,5.269744,-6.532225,-1.01756,0.05107564,0.1646116,41.81952,30.44999,-13.6398,1006.749
32.642825127,-59.46841,-17.81241,-0.5260968,-0.866075,-0.5102407,0.1701386,41.81952,30.44999,-13.6398,1006.749
32.677471638,43.3661,-15.0899,-7.083808,-0.916925,-0.2800489,0.2795146,41.44133,30.07423,-13.636,1006.748
32.709642887,19.96111,-18.46344,-9.964298,-0.9563904,0.08708341,0.3417135,41.44158,30.45536,-13.63787,1006.746
32.744288921,-1.416675,-13.84702,-20.62824,-0.9381501,-0.4192826,0.08576503,41.41352,30.42775,-15.80551,1006.746
32.776460171,25.98129,-29.05756,-16.95102,-0.9131132,-0.08776634,0.2916682,41.41352,30.42775,-15.80551,1006.75
32.811105728,10.50083,-31.48415,-20.68953,-0.8685758,-0.5484859,0.1814146,40.27996,30.82499,-15.80157,1006.748
32.843276978,48.71054,-29.88615,-8.922419,-0.9483157,-0.1605221,0.08654713,39.88494,31.19444,-17.14034,1006.748
32.877923012,-20.33724,-24.73706,-13.15122,-0.8647104,-0.4054412,0.1656878,39.88494,31.19444,-17.14034,1006.746
32.910094261,56.81936,-21.06758,-10.33202,-0.8544334,-0.6103867,0.09401238,39.10786,31.56519,-18.79595,1006.746
32.944740772,99.26778,-13.9062,0.08677342,-0.9710611,-0.05831404,0.2341298,37.95067,31.17742,-20.57341,1006.745
32.976912022,95.15194,-22.31047,13.63121,-0.910929,-0.3818716,0.1711334,37.95067,31.17742,-20.57341,1006.745
33.011558056,144.3577,11.18824,-2.977578,-0.7891316,-0.3922593,0.7912086,38.29477,31.13876,-23.18927,1006.745
33.043729305,16.21386,24.62325,-34.17267,-0.9963118,-0.2556321,0.7513702,39.015,28.42679,-25.79404,1006.743
33.075900078,-127.5333,60.19344,-42.32384,-0.9608296,-0.7952994,-0.2246389,39.015,28.42679,-25.79404,1006.739
33.110546112,403.0412,-2.956972,5.051022,-0.6190857,0.8901567,0.7197002,38.27486,27.31037,-24.50951,1006.739
33.142717361,-187.3665,25.39265,9.279827,0.1470071,0.9808933,0.2023804,38.61369,28.02829,-27.57537,1006.742
33.177363396,-459.6261,-11.12451,-23.26358,-2.287192,-2.496676,2.113337,38.61369,28.02829,-27.57537,1006.74
33.209534645,642.0055,29.89071,26.44019,-0.8048882,0.4436338,-0.1532202,39.02868,24.25056,-24.49849,1006.74
33.244181156,-328.165,23.08443,-41.52711,-0.6032794,-0.7438724,0.2549302,40.1501,30.31635,-25.80915,1006.738
33.276352406,81.76011,43.91756,2.967263,-0.9280325,-0.3909214,0.05650247,40.1501,30.31635,-25.80915,1006.738
33.310997963,-7.313994,37.52557,12.28289,-0.9504774,-0.1178897,0.3896145,40.18215,27.68171,-23.18219,1006.74
33.343169212,5.27924,33.79692,28.64653,-0.9150919,-0.3338055,0.2332644,41.7115,28.05843,-21.85295,1006.744
33.377815247,15.53812,35.15817,29.07553,-0.887013,-0.283413,0.2401658,41.7115,28.05843,-21.85295,1006.746
33.409986496,-0.249497,37.88068,36.98156,-0.9083152,-0.19518,0.275796,42.47811,28.05825,-21.02801,1006.746
33.444632053,3.989202,51.01976,17.86001,-0.9745032,-0.02499201,0.2729966,43.61694,26.90443,-20.58195,1006.746
33.476804256,-2.460992,50.90139,18.47288,-0.936856,-0.1342133,0.04375913,43.61694,26.90443,-20.58195,1006.746
33.511449814,7.060722,50.60546,28.34009,-0.9540905,-0.2753592,-0.08063553,44.76706,25.38084,-19.24146,1006.748
33.543621063,36.36303,47.88295,38.75888,-0.9873099,-0.03087734,0.3198215,45.92786,25.0104,-17.14151,1006.748
33.578267097,5.402101,55.22189,53.22262,-0.8703576,-0.3072446,0.4335777,45.92786,25.0104,-17.14151,1006.748
33.610438347,24.07695,60.84447,57.45143,-0.9988857,0.2107178,0.04477157,47.45618,23.86258,-15.80482,1006.748
33.642609596,-8.481172,66.05275,39.98463,-0.9626216,0.04827252,0.02526,48.61157,21.58241,-14.01434,1006.748
33.677255630,0.487668,71.97125,23.80485,-1.009362,0.1196125,0.1197922,48.61157,21.58241,-14.01434,1006.75
33.709426403,-4.672487,67.65075,14.73437,-0.9688329,0.04909504,-0.2498969,50.52253,20.05297,-12.2952,1006.75
33.744073391,5.709253,52.38101,11.73131,-0.9265127,0.01156373,-0.3060312,50.9388,18.18091,-9.227616,1006.747
33.776244163,-1.416675,51.07894,18.35031,-0.9606522,0.03254508,-0.3137337,50.9388,18.18091,-9.227616,1006.745
33.810890198,-18.86291,81.50004,43.60056,-0.8942675,-0.05514737,0.2536833,51.71753,17.81178,-7.444501,1006.741
33.843061447,-44.17224,77.17953,42.55868,-1.023897,0.1471593,-0.3459386,52.1288,17.07744,-4.828784,1006.741
33.877707481,-5.716804,59.9567,24.84673,-0.9345379,0.3353587,-0.4305348,53.68518,15.95724,-1.324447,1006.741
33.909878731,8.473622,52.73612,4.193004,-0.9499524,0.1350129,-0.4257766,53.68518,15.95724,-1.324447,1006.745
33.944524288,-0.06520575,43.85837,3.45756,-0.9156585,0.06481057,-0.3177435,54.09016,14.45495,0.848711,1006.745
33.976696491,-9.279767,29.06212,3.212412,-0.9519464,0.1567076,-0.3831632,53.3574,14.48842,2.637701,1006.745
34.011342049,9.026496,23.2028,-2.609856,-0.9415118,0.2863483,-0.3074819,53.3574,14.48842,2.637701,1006.745
34.043513298,6.507848,19.59252,-12.29321,-0.9746074,0.1537237,-0.4070764,53.37968,14.51035,4.35907,1006.742
34.078159332,35.19585,2.606419,-9.167567,-1.009859,0.1276426,-0.3500865,53.00149,14.13458,4.362864,1006.74
34.110330582,-1.355244,15.27201,-3.774309,-1.246427,-0.03594195,-0.3154877,53.00149,14.13458,4.362864,1006.742
34.142501831,4.603506,40.72157,-4.754901,-1.137463,0.02870394,0.01853613,52.24612,14.90759,4.36301,1006.742
34.177147388,-7.006843,18.11289,6.154189,-1.077069,0.2158111,-0.6673341,52.26897,14.5492,6.149994,1006.746
34.209318638,31.69432,-13.84702,1.925384,-1.238919,0.04740442,-0.3915086,52.26897,14.5492,6.149994,1006.746
34.243965149,37.7145,-35.98221,-7.819252,-0.9906688,-0.04728504,-0.3627936,49.99504,13.81345,5.719036,1006.744
34.276136398,7.367874,-46.57633,-3.406587,-0.8975158,0.1705521,-0.1261693,48.09379,13.82893,4.836145,1006.744
34.310782433,-85.33062,-31.06985,4.193004,-0.952347,0.1820472,-0.5593624,48.09379,13.82893,4.836145,1006.744
34.342953682,-67.82294,-14.85316,-1.874411,-1.125279,-0.08017235,-0.6861944,46.55397,13.82279,2.676231,1006.742
34.377599716,-23.22447,-38.94146,-13.33508,-0.9542743,-0.004987073,-0.5820943,45.80335,13.07694,3.130102,1006.742
34.409770966,-33.91336,-39.11902,-15.48013,-0.9938132,0.2102376,-0.4551132,45.80335,13.07694,3.130102,1006.741
34.444417477,-84.04058,-44.20893,-19.8928,-0.9350905,0.08042416,-0.2567015,45.04169,13.082,2.687689,1006.739
34.476588726,-50.561,-47.58247,-10.69974,-0.9128181,0.2000036,-0.2192916,44.65849,13.84395,2.239622,1006.741
34.511234283,-102.9611,-41.42723,-3.590448,-0.7884768,0.3360724,-0.1807701,44.65849,13.84395,2.239622,1006.74
34.543405533,-105.7255,-32.96378,-1.874411,-0.8885015,-0.0337197,-0.1742093,43.88579,14.5999,0.9009247,1006.738
34.578051567,-38.52065,-37.52102,4.438152,-0.8898086,0.1414076,-0.1240714,44.26976,14.98135,1.34341,1006.738
34.610222816,-53.26394,-32.01682,4.254291,-0.8530603,0.1626754,-0.174849,44.26976,14.98135,1.34341,1006.738
34.644868374,-46.93661,-28.40653,-1.874411,-0.9375489,0.1483412,0.1150209,43.88554,14.21876,0.9027863,1006.738
34.677040577,-17.81859,-40.12516,-5.735494,-0.8991051,-0.02874779,-0.1027335,43.88002,14.59421,0.4546432,1006.736
34.709211826,45.14758,-31.18822,0.7609307,-0.7625544,0.05794514,-0.03918702,43.88002,14.59421,0.4546432,1006.736
34.743857384,18.17963,-21.0084,11.36359,-0.790351,0.1586456,-0.02749348,43.86929,14.58365,-0.3741627,1006.736
34.776028633,-12.47415,-17.043,8.666957,-0.8121427,0.06275201,-0.07724464,43.85195,14.5666,-1.713004,1006.736
34.810674667,-5.409652,-20.94921,5.847754,-0.8697841,0.06056732,-0.08299078,43.85195,14.5666,-1.713004,1006.733
34.842845917,-3.321018,-25.15135,3.151124,-0.8395773,0.1231993,-0.06106633,43.08477,14.9471,-2.603559,1006.729
34.877491474,-23.59305,-25.21054,-3.406587,-0.9371128,0.130883,0.1172829,44.21204,13.78191,-3.050058,1006.728
34.909663677,-24.02307,-34.56177,-11.43519,-0.928978,-0.01381707,0.05190817,44.21204,13.78191,-3.050058,1006.728
34.944309235,9.70223,-36.75162,-12.72221,-1.002816,0.05645465,0.1163184,43.82389,14.53899,-3.880652,1006.732
34.976480484,-13.45704,-45.21507,-18.9122,-0.9899811,0.126568,0.2160686,43.05093,14.9138,-5.217488,1006.73
35.011126518,-46.93661,-49.41721,-31.16961,-1.043037,0.09310611,0.2485817,43.41205,15.65365,-6.561985,1006.728
35.043297768,-69.85015,-60.66236,-42.87543,-1.048017,0.08195454,0.1839483,43.41205,15.65365,-6.561985,1006.727
35.077943802,-84.96204,-64.56857,-55.13284,-0.9824193,0.04703752,0.1671424,42.64043,16.79154,-7.838786,1006.729
35.110115528,-82.32053,-59.7154,-62.11956,-1.056849,-0.02439358,0.171586,42.25774,18.31576,-8.290576,1006.729
35.144761562,-58.97697,-60.66236,-65.12262,-0.9815071,-0.1221998,0.1252507,42.25774,18.31576,-8.290576,1006.729
35.176932812,-26.05027,-50.12743,-59.23906,-0.9449192,-0.1518899,0.1381605,39.97483,21.37998,-9.632701,1006.727
35.211578369,5.094949,-45.74774,-48.32998,-0.9324196,-0.1526451,0.1741876,38.45909,24.06371,-10.08427,1006.727
35.243749619,20.32969,-38.11287,-38.15633,-0.8788419,-0.1269287,0.2076397,38.45909,24.06371,-10.08427,1006.726
35.275920868,25.73557,-30.12289,-27.24724,-0.8522374,-0.107487,0.2282777,36.93211,25.97461,-11.36093,1006.726
35.310567379,25.61271,-21.60025,-11.3739,-0.874728,-0.1064473,0.2227121,35.78148,26.73592,-12.69769,1006.724
35.342738628,20.88257,-20.65329,3.45756,-0.8254388,-0.1023384,0.2208401,35.78148,26.73592,-12.69769,1006.722
35.377384663,6.69214,-13.43272,19.26961,-0.8521195,-0.1000889,0.1806196,35.00986,27.87382,-13.97449,1006.722
35.409555912,-6.515399,-4.259043,34.22364,-0.9151884,-0.1216438,0.1771744,34.61959,26.72442,-14.85954,1006.724
35.444201469,-24.51451,-0.1160918,46.05204,-0.9828787,-0.1061881,0.1866095,34.61959,26.72442,-14.85954,1006.724
35.476372719,-48.34951,2.783974,48.93253,-0.9349779,-0.1082895,0.1967492,35.37547,26.71368,-14.8634,1006.724
35.511019230,-70.77161,11.54335,44.70373,-0.9322438,-0.133626,0.1859108,36.52007,25.56554,-13.97106,1006.723
35.543190479,-67.76152,17.16593,39.67819,-0.9263224,-0.1539054,0.2035223,36.52007,25.56554,-13.97106,1006.723
35.577836513,-54.73827,22.96606,35.81711,-0.9258258,-0.1635714,0.209222,37.29773,24.81447,-12.24984,1006.721
35.610007763,-41.4693,26.63554,30.60771,-0.9206784,-0.1894278,0.1954648,38.83208,24.05347,-10.46873,1006.718
35.644653320,-23.90021,32.61322,23.92743,-0.9302795,-0.1805307,0.2100878,38.83208,24.05347,-10.46873,1006.722
35.676824570,-45.46228,36.34187,13.32477,-0.9458204,-0.04699466,0.2706196,38.47591,23.31849,-8.741708,1006.722
35.711470604,-87.78783,38.5909,4.376865,-0.9699536,-0.05436826,0.3059699,40.01497,22.18123,-6.576213,1006.72
35.743642330,-140.9251,35.4541,-6.409651,-0.9901035,0.007461376,0.3172716,40.01497,22.18123,-6.576213,1006.72
35.778288364,-188.288,23.73547,-14.86726,-0.9967529,-0.07785574,0.2640924,39.66592,22.21502,-4.342875,1006.72
35.810459614,-201.0041,18.05371,-25.89892,-1.028854,-0.2626935,0.1920142,40.85695,22.63609,0.04851341,1006.718
35.842630863,-185.9536,7.992255,-39.56593,-1.000597,-0.3064356,0.2656179,40.85695,22.63609,0.04851341,1006.718
