Time (s),Gyroscope X (deg/s),Gyroscope Y (deg/s),Gyroscope Z (deg/s),Accelerometer X (g),Accelerometer Y (g),Accelerometer Z (g),Magnetometer X (uT),Magnetometer Y (uT),Magnetometer Z (uT),Barometer (hPa)
0.019822598,-0.4061896,-0.0107814,-0.2924795,0.1793847,0.964131,0.1430918,5.537349,-43.25822,3.329991,1007.647
0.052598953,3.196815,-1.547191,-0.5979246,0.178978,0.9325272,0.1513236,5.537349,-43.25822,3.329991,1007.647
0.085374832,12.88766,-2.610859,-1.880794,0.1769769,0.9538163,0.1334858,5.531314,-42.88784,3.759372,1007.647
0.118151188,5.681646,-0.4244302,-1.269904,0.1782552,1.026302,0.1198954,5.181382,-43.61074,4.144255,1007.647
0.153449059,-3.015262,0.107404,0.2573216,0.1914377,0.9916748,0.09729233,5.181382,-43.61074,4.144255,1007.641
0.186224461,-4.816765,1.34835,0.8682117,0.1773802,0.988903,0.1358388,5.53256,-42.87765,4.505278,1007.647
0.219001293,-6.183422,1.525628,0.3184106,0.1711727,0.9460389,0.1426572,5.538698,-43.24718,4.138055,1007.643
0.251776695,-1.275881,1.052887,-0.5368356,0.1755447,0.9445907,0.1392795,5.538698,-43.24718,4.138055,1007.643
0.284553051,0.7741051,0.107404,-0.8422807,0.1896056,0.9524671,0.1344206,5.181382,-43.61074,4.144255,1007.643
0.319850921,0.5256221,0.1664966,-0.7811917,0.1798224,0.9830856,0.1368045,5.180759,-43.61584,3.771302,1007.643
0.352626800,-0.7789143,0.2255893,-0.5979246,0.1793676,0.9699252,0.1358627,5.180759,-43.61584,3.771302,1007.643
0.385403156,-0.0955857,0.5210528,-0.5368356,0.1759757,0.9664708,0.1334691,5.539321,-43.24208,4.511008,1007.643
0.418179512,-0.9031558,0.2255893,-0.2313905,0.1652917,0.9673692,0.1354186,5.182005,-43.60565,4.517208,1007.645
0.453476906,0.1528974,0.284682,-0.4757466,0.1759762,0.9649629,0.1267323,5.902776,-43.24805,4.137585,1007.643
0.486253261,-0.841035,0.1664966,-0.4146576,0.1813135,0.9679765,0.1334542,5.902776,-43.24805,4.137585,1007.643
0.519028664,-1.21376,0.2255893,-0.2924795,0.1755004,0.9630911,0.138289,5.173998,-43.2514,3.765572,1007.643
0.551805496,0.1528974,0.5801454,-0.6590136,0.1837528,0.9636303,0.1358618,5.544837,-43.61671,3.770832,1007.643
0.584581852,-0.281948,0.2255893,-0.3535686,0.1779121,0.9714477,0.1464538,5.544837,-43.61671,3.770832,1007.641
0.619878769,-0.5925519,0.107404,0.07405458,0.1750162,0.9626034,0.1387722,5.181382,-43.61074,4.144255,1007.641
0.652655125,2.140762,-0.0107814,-0.5368356,0.1667565,0.9644759,0.1378262,5.908914,-43.61759,3.770362,1007.641
0.685431480,0.3392597,0.04831128,-0.1703015,0.1779003,0.9753038,0.1406717,5.908914,-43.61759,3.770362,1007.643
0.718207359,1.333192,-0.3062448,-0.3535686,0.1677152,0.9693409,0.1358912,4.803159,-42.8861,3.760312,1007.643
0.753505230,-0.1577065,0.4028674,-0.4146576,0.1778985,0.9747699,0.1339334,5.538698,-43.24718,4.138055,1007.643
0.786281109,-0.841035,-0.0107814,-0.2313905,0.1803535,0.9641023,0.1377946,5.538698,-43.24718,4.138055,1007.641
0.819057465,0.02865586,-0.06987408,-0.1703015,0.1798534,0.9699326,0.1363429,5.538698,-43.24718,4.138055,1007.641
0.851833820,0.2150182,-0.3653375,-0.1092125,0.1784319,0.9563271,0.1426245,5.915676,-43.98203,3.776092,1007.64
0.884609699,1.395313,-0.2471521,-0.2313905,0.1754715,0.974763,0.1358646,5.915676,-43.98203,3.776092,1007.64
0.919907093,0.4635013,0.04831128,-0.1703015,0.1691757,0.9668878,0.1315592,5.544837,-43.61671,3.770832,1007.64
0.952682972,0.02865586,-0.06987408,0.2573216,0.1696424,0.9756885,0.135877,5.909537,-43.61249,4.143315,1007.64
0.985459328,-0.9031558,-0.1880594,0.3794996,0.1779242,0.9640586,0.1344309,5.909537,-43.61249,4.143315,1007.637
1.018235683,1.519554,-0.4835229,0.1351436,0.1740455,0.9620981,0.1373312,5.545459,-43.61162,4.143785,1007.637
1.053533077,1.022588,-0.06987408,0.01296555,0.179346,0.9771636,0.1262246,5.902776,-43.24805,4.137585,1007.637
1.086309433,-0.3440688,-0.1880594,0.3184106,0.17206,0.9790844,0.1310526,5.902776,-43.24805,4.137585,1007.639
1.119085789,-0.7167935,-0.1880594,0.6238557,0.1847305,0.9617204,0.1401946,5.896015,-42.88362,4.131855,1007.639
1.151861668,1.271071,-0.3653375,0.07405458,0.1730799,0.9601554,0.1392618,5.545459,-43.61162,4.143785,1007.639
1.184638023,1.395313,-0.3062448,-0.04812346,0.1803469,0.9650095,0.128166,5.545459,-43.61162,4.143785,1007.639
1.219934940,0.5256221,-0.3062448,0.3794996,0.1715578,0.986903,0.1353743,5.531314,-42.88784,3.759372,1007.639
1.252711296,-1.400122,0.5210528,0.5016777,0.1783727,0.9786366,0.1291128,5.902153,-43.25315,3.764632,1007.639
1.285487652,-2.394054,0.46196,0.5016777,0.1735731,0.9582582,0.1460026,5.902153,-43.25315,3.764632,1007.637
1.318263531,0.4635013,-0.0107814,0.07405458,0.1604526,0.9600099,0.1335157,5.182005,-43.60565,4.517208,1007.637
1.353561401,0.5877428,-0.3653375,-0.2924795,0.1735552,0.9635351,0.134442,5.538075,-43.25228,3.765102,1007.637
1.386337757,0.8362259,-0.2471521,0.07405458,0.1827452,0.9782062,0.1319913,5.538075,-43.25228,3.765102,1007.635
1.419113636,-0.4061896,-0.3653375,0.4405887,0.1822803,0.9704432,0.1368177,4.809921,-43.25053,3.766042,1007.635
1.451889992,0.2150182,-0.1289668,0.3184106,0.1715808,0.9756444,0.127208,5.896015,-42.88362,4.131855,1007.637
1.484665871,-1.027397,0.04831128,0.3794996,0.1735494,0.9649594,0.1291449,5.896015,-42.88362,4.131855,1007.637
1.519963264,0.3392597,-0.06987408,0.5016777,0.1735607,0.9616004,0.1363704,5.175244,-43.24121,4.511478,1007.635
1.552740097,1.14683,-0.2471521,0.01296555,0.1759643,0.9703336,0.1286497,5.545459,-43.61162,4.143785,1007.635
1.585515499,-0.2198272,-0.1289668,0.1962326,0.1710986,0.974683,0.1296174,5.538075,-43.25228,3.765102,1007.635
1.618291855,-1.151639,-0.06987408,0.3184106,0.1856837,0.9685201,0.1363312,5.538075,-43.25228,3.765102,1007.635
1.653589249,-1.089518,0.1664966,0.2573216,0.1798504,0.9714003,0.1373034,5.902776,-43.24805,4.137585,1007.637
1.686365604,-0.4683104,-0.3062448,0.4405887,0.1764827,0.9577185,0.1349252,5.544837,-43.61671,3.770832,1007.637
1.719141960,2.824091,-0.3653375,-0.1092125,0.1725613,0.9722635,0.130099,5.544837,-43.61671,3.770832,1007.637
1.751917839,-0.9652766,0.107404,0.3184106,0.1769227,0.9756989,0.1286394,5.539321,-43.24208,4.511008,1007.639
1.784694195,-0.5304312,0.2255893,0.1351436,0.1769653,0.9591903,0.1358845,5.552844,-43.97096,4.522468,1007.635
1.819992065,1.14683,-0.4244302,0.07405458,0.1759951,0.9571772,0.1277067,5.552844,-43.97096,4.522468,1007.641
1.852767467,2.451366,-1.015357,-0.1092125,0.1769621,0.960151,0.1339577,5.539321,-43.24208,4.511008,1007.641
1.885544300,13.44674,-9.524704,2.761971,0.1450533,0.9085099,0.1702133,5.173998,-43.2514,3.765572,1007.641
1.918320656,182.6016,-36.94371,40.82043,0.1758542,0.985781,-0.03118541,5.173998,-43.2514,3.765572,1007.642
1.953617573,160.7972,-33.69361,91.21886,0.2939576,1.789065,0.1290613,5.541501,-43.22425,5.816343,1007.642
1.986393929,232.1119,-41.61203,171.9785,0.4985693,1.62852,-0.3015194,4.076327,-42.03405,12.6385,1007.641
2.019169807,232.3604,10.86227,235.5722,0.5539884,2.372965,-0.5429724,4.076327,-42.03405,12.6385,1007.641
2.051946163,10.46495,52.52261,303.5643,0.2380421,1.700525,-0.4897038,0.3609244,-40.39036,21.13516,1007.641
2.084722519,5.619526,47.7952,338.8737,0.04382369,1.1091,-0.3487569,-6.643417,-35.20798,25.72578,1007.641
2.120019436,-36.43624,47.7952,338.4461,0.1318413,0.6744574,-0.2034207,-6.643417,-35.20798,25.72578,1007.637
2.152796268,-90.04647,47.14518,319.9973,0.2982741,0.3118693,-0.2263743,-16.25655,-30.43557,26.53381,1007.637
2.185571671,-84.145,35.6221,309.7954,0.3080411,0.09765305,-0.1562771,-24.42479,-25.27036,25.21987,1007.634
2.218348026,-49.171,24.09903,292.2018,0.3910393,-0.1052338,-0.2259657,-24.42479,-25.27036,25.21987,1007.632
2.253645897,-33.51656,12.87142,267.4607,0.519176,-0.2832903,-0.211079,-30.3686,-19.09068,22.95442,1007.632
2.286421776,-30.72113,7.671267,246.446,0.5166422,-0.4556902,-0.2762784,-34.56507,-12.10694,22.04178,1007.63
2.319198131,-44.57406,3.830243,222.1326,0.5058442,-0.6171901,-0.304891,-34.56507,-12.10694,22.04178,1007.627
2.351974487,-6.618267,12.2214,191.527,0.5005393,-0.8747774,-0.5004044,-35.80115,-4.396347,21.48679,1007.625
2.384750366,39.28899,24.15813,156.0343,0.5385291,-0.9317548,-0.5451754,-35.54525,1.433772,21.39464,1007.625
2.420048237,99.79462,49.3907,114.616,0.5716983,-1.041774,-0.7876945,-35.54525,1.433772,21.39464,1007.625
2.452823639,126.5687,98.08308,67.88287,0.5063142,-1.11749,-0.8114935,-34.55098,6.57618,20.00672,1007.622
2.485600471,184.5895,168.6397,21.45521,0.3987151,-0.988535,-0.76811,-34.6499,11.64348,17.37799,1007.622
2.518376827,137.8125,266.9699,-49.89676,0.269366,-1.094068,-0.6603005,-34.6499,11.64348,17.37799,1007.62
2.551152229,163.6548,357.559,-103.594,0.05528719,-1.009082,-0.08806305,-34.7439,15.91144,9.601539,1007.62
2.586450100,861.5817,42.9496,120.2362,-3.882221,4.022719,4.88279,-37.68955,16.55774,-1.409227,1007.622
2.619226456,-547.8765,-35.23002,83.2773,2.569026,0.0269443,0.8252583,-38.74754,13.83223,-9.88251,1007.622
2.652002335,-294.4238,127.1567,15.04086,0.174698,-2.433052,-0.1415567,-38.74754,13.83223,-9.88251,1007.622
2.684778690,203.9712,-26.42521,-2.186239,0.5448489,-0.9664023,0.3482693,-38.40128,15.36467,-4.373765,1007.62
2.720076084,56.31008,-13.42482,-18.25265,0.4937433,-0.2671372,0.5316981,-37.34002,16.85761,-6.077338,1007.622
2.752852440,-34.94534,-7.042811,-22.46779,0.552752,-0.7965518,0.4606332,-37.34002,16.85761,-6.077338,1007.622
2.785628796,2.76197,-9.288333,-35.96846,0.4088561,-0.9352304,0.441929,-37.33399,16.48723,-6.50672,1007.622
2.818404674,-11.52581,-14.31121,-56.79982,0.4589139,-0.735113,0.5137129,-38.41022,15.71128,-5.68483,1007.622
2.851181030,-25.31662,-3.379064,-84.10661,0.3624496,-0.8162,0.4553378,-38.41022,15.71128,-5.68483,1007.622
2.886478424,-50.04069,-9.524704,-119.1717,0.2099961,-0.5965118,0.573302,-38.74652,14.26035,-5.226329,1007.622
2.919254303,-62.65121,-27.25251,-161.3842,0.2440178,-0.8391885,0.4436193,-39.44015,12.44585,-4.761627,1007.62
2.952030659,-2.207692,-40.84383,-204.3909,0.3320941,-0.7284352,0.3657443,-39.44015,12.44585,-4.761627,1007.62
2.984806538,49.53891,-44.03483,-235.6074,0.402869,-0.4922981,0.2694295,-41.54274,8.083786,-4.254936,1007.62
3.020104408,80.10234,-48.28951,-262.5476,0.5361722,-0.3891778,0.3002464,-42.50321,1.119193,-2.838367,1007.616
3.052880764,82.58717,-60.16713,-274.7654,0.5348639,-0.04593526,0.2843286,-42.50321,1.119193,-2.838367,1007.615
3.085656643,46.99196,-53.19419,-292.2979,0.7085711,0.1833569,0.130498,-41.97221,-7.660037,-0.5869615,1007.613
3.118432999,11.08615,-41.31657,-307.9978,0.6475279,0.3304731,0.1381229,-39.24965,-16.73631,2.536622,1007.613
3.151209354,94.39011,-37.53464,-302.9274,0.5002415,0.5590907,-0.07704107,-39.24965,-16.73631,2.536622,1007.611
3.186506271,93.89315,-44.03483,-301.1559,0.3445121,1.133731,0.03028724,-33.96743,-26.63718,3.555932,1007.611
3.219282627,0.1528974,-16.8522,-284.6007,0.2203688,1.031167,-0.1415912,-25.74095,-34.68393,7.402061,1007.617
3.252058506,-6.369784,-2.256303,-251.5516,0.0442185,1.206698,-0.04179611,-25.74095,-34.68393,7.402061,1007.617
3.284834862,-37.8029,3.180223,-213.5542,0.05310663,0.9398658,-0.04285911,-16.13374,-39.0851,7.085572,1007.615
3.320132732,61.1555,9.50314,-183.7428,0.05276444,0.8658285,-0.1135069,-6.547981,-42.47238,5.385355,1007.615
3.352908611,107.1249,20.61257,-143.7295,0.1548928,1.661155,0.1122549,-6.547981,-42.47238,5.385355,1007.615
3.385684967,10.27858,36.27213,-71.52227,0.460197,2.531124,0.1116637,0.02496886,-43.58735,4.958976,1007.617
3.418461323,34.94053,10.92136,13.75799,0.4313773,2.484288,0.5551368,5.907759,-43.2073,7.121208,1007.619
3.451237202,-323.6206,21.55805,41.12587,0.160907,1.597966,0.1932047,5.907759,-43.2073,7.121208,1007.619
3.486535072,-317.7813,25.63544,39.65974,-0.03942734,0.02309424,-0.09468906,8.453393,-43.23718,5.377472,1007.619
3.519310474,-55.32096,15.35332,20.11125,-0.004012984,-0.1372187,0.06191114,6.992959,-44.10691,-5.176187,1007.619
3.552086830,155.02,-10.11563,-7.623161,0.06440498,0.352063,0.3719711,5.515963,-43.43314,-9.474725,1007.619
3.584863663,218.3832,-15.49306,-20.08532,0.1905473,1.2465,0.5335055,5.515963,-43.43314,-9.474725,1007.617
3.620160580,30.28148,-6.333699,-4.141088,0.2620571,1.574419,0.397579,5.894588,-43.73476,-4.807553,1007.617
3.652936935,-34.57262,-3.379064,9.115229,0.167719,0.9800104,0.1994149,6.265829,-43.67705,-0.5190656,1007.617
3.685713291,22.33002,-0.6608009,7.038202,0.1456048,0.877217,0.1519674,6.265829,-43.67705,-0.5190656,1007.621
3.718489170,0.3392597,4.125706,5.449888,0.1085037,0.9677672,0.1909093,6.271863,-44.04743,-0.948447,1007.621
3.751265526,-16.24699,1.289258,1.662369,0.1374984,0.8329979,0.2464002,5.901024,-43.68212,-0.9537075,1007.621
3.786562443,20.15579,0.04831128,-3.163663,0.1803753,0.9912205,0.3254847,5.901024,-43.68212,-0.9537075,1007.621
3.819339275,-6.369784,0.46196,-1.208815,0.1613271,1.035291,0.3124667,5.536947,-43.68125,-0.9532373,1007.621
3.852115631,-9.103099,2.116555,-0.1092125,0.1766255,0.9190394,0.2456964,5.894263,-43.31768,-0.9594371,1007.621
3.884891033,-17.55152,6.962155,-0.2313905,0.1779378,0.988017,0.2879491,5.894263,-43.31768,-0.9594371,1007.621
3.920188904,-37.18169,9.325862,2.517615,0.1484899,0.9237803,0.330957,5.900298,-43.68806,-1.388819,1007.621
3.952965260,-30.09992,9.030398,1.967814,0.1811119,0.8905909,0.3516282,5.89146,-43.34061,-2.637725,1007.627
3.985741138,-29.66508,12.51687,2.82306,0.189228,0.9546645,0.3808754,5.89146,-43.34061,-2.637725,1007.627
4.018517494,-73.27386,31.48562,6.977113,0.1505966,1.085474,0.4678964,5.526656,-43.34568,-3.072367,1007.627
4.051293850,-116.4478,37.51307,13.57473,0.08771519,0.7710265,0.4295291,5.887827,-43.37033,-4.813284,1007.629
4.086591244,-86.75407,55.0636,5.32771,0.1190227,0.68095,0.4656928,5.887827,-43.37033,-4.813284,1007.631
4.119367600,-101.9115,70.54588,8.748694,0.02283894,0.7032423,0.4952504,5.503894,-42.69238,-8.615962,1007.631
4.152143478,-84.02075,78.99614,9.66503,-0.05299611,0.329513,0.4921426,5.492773,-42.3636,-11.23236,1007.633
4.184919834,53.70101,62.68656,4.961176,-0.1102995,0.3208508,0.4359723,5.492773,-42.3636,-11.23236,1007.633
4.220217228,159.3685,46.61334,4.71682,-0.156697,0.6420582,0.4572595,5.83191,-41.2393,-13.36438,1007.634
4.252993107,238.0755,13.69872,12.47512,-0.1273566,0.7293623,0.299653,6.55974,-40.82396,-9.5172,1007.634
4.285769463,311.6265,-12.0066,19.50036,-0.08016263,0.8443506,0.03943244,6.55974,-40.82396,-9.5172,1007.634
4.318545818,271.3101,-4.14727,19.25601,0.05057616,1.185738,-0.05188819,7.329562,-42.23381,-1.413618,1007.636
4.351321697,183.7198,4.421169,14.79651,0.1256685,1.25997,-0.04303231,6.58808,-40.59214,7.452156,1007.636
4.386619568,99.04917,11.03955,1.112568,0.1820188,1.258803,0.001602439,6.58808,-40.59214,7.452156,1007.634
4.419395447,50.40861,1.643814,-6.034847,0.2612673,1.210023,-0.03461414,7.294575,-38.67236,14.69515,1007.636
4.452171802,39.22687,-11.23839,-6.706826,0.2865759,1.177315,-0.07602198,8.336973,-35.72467,17.19641,1007.64
4.484948158,28.91482,-26.66158,-1.025548,0.3047232,1.079777,-0.1866312,8.336973,-35.72467,17.19641,1007.64
4.520245075,43.20259,-39.01195,-2.73604,0.2711807,1.089504,-0.2183362,9.040263,-34.25084,18.47788,1007.642
4.553021431,21.83305,-47.93495,-7.68425,0.2947182,1.176123,-0.3273104,9.750937,-33.13634,20.13804,1007.642
4.585797310,34.07084,-37.47554,-3.469108,0.1834203,1.211471,-0.3632017,10.44528,-31.3159,20.10845,1007.644
4.618573666,-12.27126,-33.45724,8.626516,0.08858281,1.287613,-0.2957009,10.44528,-31.3159,20.10845,1007.641
4.651350021,-77.74656,-21.40233,19.37818,0.1091735,1.208022,-0.2797449,11.16137,-30.57688,20.96628,1007.641
4.686647415,-65.75725,-7.101903,29.70223,0.07224057,1.023398,-0.2403887,11.17271,-31.32359,19.6724,1007.643
4.719423771,-62.40273,-5.151845,30.00767,0.005970937,0.9389137,-0.1231333,11.17271,-31.32359,19.6724,1007.643
4.752200127,-55.56944,-8.520128,28.05282,0.1026837,0.9344834,0.03404929,10.11221,-33.16014,18.45929,1007.641
4.784976006,-45.44375,-20.8705,33.00103,0.05927886,0.8175237,0.07620698,9.044118,-34.63905,16.74317,1007.643
4.820273399,-16.12275,-30.08896,26.09798,0.1170519,0.8213915,0.0726946,9.044118,-34.63905,16.74317,1007.643
4.853050232,-82.6541,-22.58418,8.748694,0.06592833,0.874862,0.04914854,8.33552,-35.73655,16.32619,1007.643
4.885825634,-57.49518,-39.72107,4.533553,0.003746682,0.701154,0.1477556,6.889204,-36.49081,14.22613,1007.643
4.918602467,-23.453,-57.38978,11.31443,0.038892,1.068503,0.3329242,6.889204,-36.49081,14.22613,1007.643
4.951378822,-128.1886,-61.93991,25.12055,0.0847012,1.430092,0.4473161,7.257966,-36.8731,12.98821,1007.643
4.986675739,-161.0505,-73.99481,30.12985,0.08975212,0.9356651,0.4297575,7.632659,-37.62662,11.25875,1007.643
5.019452095,-92.96615,-95.50455,24.69293,0.03615011,0.817606,0.4661648,7.632659,-37.62662,11.25875,1007.639
5.052227974,-29.7272,-119.5553,10.33701,0.09065145,0.5572488,0.4308071,7.281079,-38.78275,6.614502,1007.639
5.085004330,62.02519,-140.1195,-9.516921,0.08626527,0.5443302,0.3292696,6.928345,-39.52858,5.321097,1007.639
5.120302200,120.3566,-150.5789,-22.77324,0.05019183,0.5680802,0.1459206,6.928345,-39.52858,5.321097,1007.639
5.153077602,155.8276,-156.9018,-29.79847,0.02472392,0.6392095,0.03949285,7.309474,-40.22945,7.445487,1007.639
5.185854435,179.8062,-166.7112,-11.53286,0.01694079,0.8444965,0.01368973,8.38255,-38.70979,12.14523,1007.639
5.218630791,178.5638,-175.457,13.1471,-0.1539779,0.8269231,-0.06674717,8.38255,-38.70979,12.14523,1007.64
5.251406670,197.3864,-200.0395,42.22548,-0.2595803,0.7142965,-0.0971341,10.90653,-36.81814,17.64542,1007.64
5.286704063,218.7559,-215.7582,69.65444,-0.3239956,0.6314785,-0.1628031,13.48234,-34.57919,21.89663,1007.639
5.319479942,245.7784,-238.1543,113.8829,-0.521242,0.6554535,-0.2600878,13.48234,-34.57919,21.89663,1007.64
5.352256298,228.9437,-243.7681,174.9719,-0.6118492,0.7668214,-0.314916,17.06329,-30.87986,26.49654,1007.64
5.385032654,142.7201,-227.3994,252.555,-0.9687883,1.156574,-0.4990183,19.53996,-26.7867,28.60483,1007.64
5.417808533,-78.74049,-197.794,316.8206,-1.378543,0.8935283,-0.6430213,19.53996,-26.7867,28.60483,1007.64
5.453106403,-275.6013,-216.3491,342.4169,-1.679647,0.7038202,-0.667052,21.66961,-23.88238,28.12106,1007.646
5.485882759,-460.1621,-318.9931,299.3492,-2.225411,0.006486014,-1.045945,21.74006,-28.34309,21.78746,1007.648
5.518658638,-506.5663,-420.7507,187.1897,-1.801299,-0.9311967,-1.224123,21.74006,-28.34309,21.78746,1007.65
5.551434994,-209.4426,-460.7564,50.9612,-0.3470726,-1.598778,-3.791743,17.19329,-40.31005,3.268081,1007.652
5.586731911,-508.989,19.19434,249.6227,-0.4601969,5.22226,-3.371899,9.196903,-46.05151,-13.72827,1007.655
5.619508266,-484.2028,79.52798,302.7091,0.2105952,-0.7856466,0.8994675,0.7524775,-46.11281,-19.68463,1007.655
5.652284622,118.4309,49.03614,-157.5967,1.509581,2.728905,0.1868572,0.7524775,-46.11281,-19.68463,1007.657
5.685060501,107.2491,-0.8971716,-42.81044,0.7649342,0.5137138,-0.1969782,-8.959168,-34.17789,-32.66717,1007.659
5.717836857,66.56001,31.42653,-25.70551,0.2694782,1.459941,0.105066,-6.74871,-35.22973,-29.23407,1007.657
5.753134727,36.99052,-1.547191,-101.2115,0.284763,1.150533,0.06698713,-6.74871,-35.22973,-29.23407,1007.66
5.785910606,215.0908,-11.9475,-148.3112,-0.1031678,1.062007,-0.2905739,-4.872053,-38.13176,-27.88524,1007.66
5.818686962,276.2797,-123.9281,-207.873,-1.193875,1.04039,-0.6172057,-1.568637,-39.18027,-24.01844,1007.664
5.851462841,-280.4467,-160.5656,-111.841,0.3387149,1.781176,0.2714501,-1.568637,-39.18027,-24.01844,1007.66
5.886760235,-325.9191,-41.78931,-79.52493,0.5648155,0.004401364,-0.8479811,4.763918,-43.20707,-19.73572,1007.66
5.919536591,-10.15915,-45.57124,-9.333654,0.1004168,0.204078,-0.2209289,6.138318,-40.03291,-31.72462,1007.661
5.952312469,-54.07854,-43.08935,75.64117,0.1257652,0.6427502,0.1470729,6.138318,-40.03291,-31.72462,1007.661
5.985088825,-178.3201,-70.98109,82.91076,-0.2173551,0.8113456,0.3608759,6.740514,-33.50961,-34.3772,1007.663
6.017865181,-338.4675,-90.59985,87.79788,-0.05960973,1.786008,1.025237,2.698327,-31.70669,-36.51408,1007.665
6.053162575,-302.4995,-1.31082,10.15374,0.1138812,0.4658388,0.8453422,2.698327,-31.70669,-36.51408,1007.667
6.085938931,103.2734,19.84436,20.35561,0.1135804,-0.06769716,0.6030594,-1.872292,-24.80444,-43.45567,1007.668
6.118714809,184.1546,48.50431,12.41404,-0.006579938,0.6510811,0.6638754,-3.58415,-11.29085,-46.21526,1007.668
6.151491165,294.5432,23.27174,12.5973,0.2331848,0.8524473,0.4069188,-3.58415,-11.29085,-46.21526,1007.668
6.186789036,264.0419,44.01326,0.5016777,-0.04001376,0.9130079,0.05896956,-2.405074,-15.62001,-42.72918,1007.668
6.219564438,258.2647,28.88554,0.9293008,-0.007030515,1.299118,-0.1371235,-1.125333,-25.07212,-36.24045,1007.669
6.252340794,56.0616,30.48104,10.76463,-0.04749517,1.353317,-0.2088321,-1.125333,-25.07212,-36.24045,1007.671
6.285117626,-1.400122,13.58053,-0.2924795,0.02783403,0.9655632,0.04091904,-0.6006889,-33.06389,-29.71155,1007.673
6.317893028,13.38462,7.907638,-17.45849,0.02673357,1.015054,0.01533489,0.5620625,-36.6871,-27.91521,1007.673
6.353190899,11.8316,14.40783,-25.58333,0.008796299,1.0002,0.001921695,0.5620625,-36.6871,-27.91521,1007.673
6.385966778,-4.568282,18.89888,-22.28452,-0.06698313,0.9975677,-0.07539385,1.350897,-36.68899,-27.91623,1007.674
6.418743133,-4.630403,19.13525,-11.65504,-0.06794479,1.000739,-0.03833149,2.073017,-36.32035,-27.48779,1007.676
6.451519489,-4.133436,18.18977,-2.308417,-0.08543928,1.001384,-0.06476586,2.073017,-36.32035,-27.48779,1007.676
6.486816406,-8.978857,13.99418,-2.491684,-0.02860467,1.003737,-0.004733992,3.542122,-37.05866,-27.91332,1007.676
6.519593239,3.134695,5.248467,-1.086637,-0.0553366,1.013215,-0.01046121,3.906926,-37.05359,-27.47868,1007.676
6.552369594,-1.400122,2.352926,-0.1703015,-0.06268051,1.038476,-0.01096323,4.264969,-36.68408,-27.04977,1007.678
6.585144997,-3.325866,0.46196,2.82306,-0.04756288,1.011331,-0.01047681,4.264969,-36.68408,-27.04977,1007.68
6.617921829,-1.400122,0.3437747,4.533553,-0.03934114,1.025534,-0.009073634,4.2709,-37.05531,-27.54131,1007.68
6.653218746,-6.618267,-0.6608009,3.983752,-0.03729775,0.9841967,-0.002758475,3.906926,-37.05359,-27.47868,1007.68
6.685995102,-5.25161,-0.1289668,3.495039,-0.02710329,0.9872741,0.007321304,3.906926,-37.05359,-27.47868,1007.68
6.718771458,-4.941006,-0.4835229,0.8071228,-0.02951669,0.9819234,0.01118599,4.263516,-36.69597,-27.91999,1007.676
6.751547337,-5.500093,-0.7789862,-0.3535686,-0.03878538,1.00037,0.01358698,4.256028,-36.33748,-28.36083,1007.677
6.786845207,-4.381919,-0.3062448,-0.04812346,-0.03489579,0.9984611,0.01454335,4.256028,-36.33748,-28.36083,1007.679
6.819621563,-3.263745,-0.3653375,-0.2313905,-0.03828225,0.9930722,0.01407814,3.891951,-36.33661,-28.36036,1007.679
6.852397442,-1.897088,-0.2471521,0.2573216,-0.03634981,0.9989963,0.02321051,3.534635,-36.70017,-28.35416,1007.679
6.885173798,-3.325866,-0.4244302,-1.269904,-0.02859327,1.003411,0.01837184,3.534635,-36.70017,-28.35416,1007.679
6.917949200,-3.884953,-0.8380789,-3.530197,-0.03099532,0.9931865,0.02176248,3.527874,-36.33573,-28.35989,1007.681
6.953247070,-1.586484,-0.3653375,-4.079998,-0.04702168,0.9945272,0.02372391,4.606583,-35.60948,-28.37276,1007.682
6.986023426,-5.003127,-0.1880594,-1.51426,-0.05139444,0.9949543,0.02036411,4.606583,-35.60948,-28.37276,1007.681
7.018799305,-4.754644,0.1664966,-0.1092125,-0.03879906,1.006218,0.01405956,3.891224,-36.34255,-28.79547,1007.681
7.051575661,-2.766779,-0.1289668,-1.330993,-0.04015706,0.9688553,0.03578037,4.605856,-35.61542,-28.80787,1007.682
7.086873055,-3.325866,0.107404,-0.4757466,-0.04512313,1.014065,0.0294663,4.605856,-35.61542,-28.80787,1007.682
7.119649410,-2.704658,-0.1880594,-1.575349,-0.04261286,0.9815311,0.0405807,4.241779,-35.61455,-28.8074,1007.684
7.152425766,-1.834967,-0.3062448,-0.9644588,-0.04362758,0.9990259,0.03622449,3.883736,-35.98405,-29.23631,1007.684
7.185201645,-0.0955857,-0.3653375,-1.758616,-0.04264919,0.9956114,0.03430187,3.883736,-35.98405,-29.23631,1007.684
7.217978001,0.7741051,-0.7198936,-3.713464,-0.0320047,1.010765,0.02944016,4.599095,-35.25098,-28.8136,1007.68
7.253275394,-3.574349,-2.138118,-8.111874,-0.03635849,1.004417,0.03234823,4.963172,-35.25186,-28.81407,1007.68
7.286051273,-2.394054,-2.138118,-10.98306,-0.05780408,1.037327,0.02801724,4.963172,-35.25186,-28.81407,1007.68
7.318827629,-2.02133,-2.965415,-14.22078,-0.08593312,1.019942,0.01318794,4.599822,-35.24504,-28.37849,1007.682
7.351603985,9.471013,-4.738196,-12.81573,-0.08256709,1.03663,0.02759566,4.598368,-35.25693,-29.24871,1007.684
7.386901378,24.19364,-6.747347,-15.32038,-0.07436332,1.059139,0.03283726,4.598368,-35.25693,-29.24871,1007.684
7.419677734,45.99803,-9.87926,-17.58067,-0.09130813,1.034018,0.01269812,5.320488,-34.88829,-28.82027,1007.685
7.452453613,44.32077,-6.333699,-15.87018,-0.09866543,1.067152,0.02373695,5.334738,-35.61122,-28.3737,1007.687
7.485229969,51.89951,7.96673,-15.93127,-0.1332727,1.154717,0.1907196,5.334738,-35.61122,-28.3737,1007.691
7.518006325,27.23756,1.821092,-17.15305,-0.3546055,1.299172,0.07838818,5.727314,-37.05795,-27.48103,1007.693
7.553303242,9.595255,-10.64746,-45.07073,-0.1950572,0.975583,0.06887022,6.108443,-37.75883,-25.35664,1007.693
7.586079597,75.19479,-22.28872,-33.64708,-0.3043644,1.197576,0.0461709,6.478555,-38.13008,-25.78649,1007.689
7.618856430,-23.453,-24.41606,-50.56874,-0.3141001,1.595628,-0.06223097,6.478555,-38.13008,-25.78649,1007.69
7.651631832,-344.2447,-60.99443,-80.99107,-0.478829,1.47468,0.112595,7.241969,-39.94212,-24.88856,1007.689
7.686929703,-272.5573,-68.79465,-123.509,-0.3863437,0.6895268,-0.2850085,8.312491,-39.70258,-33.84656,1007.69
7.719705582,-283.18,-46.93037,-175.618,-0.3033679,0.9888736,0.07921568,8.312491,-39.70258,-33.84656,1007.69
7.752481937,-447.1167,13.75781,-216.7309,-0.3569862,0.4584037,0.06185062,8.469724,-29.57264,-43.82952,1007.69
7.785258293,-306.1025,70.01405,-227.5436,-0.503363,0.3304912,-0.01655273,11.12639,-16.49255,-50.87798,1007.69
7.818034172,-305.7298,94.24205,-197.1824,-0.3580129,0.5494686,0.4116658,11.12639,-16.49255,-50.87798,1007.69
7.853331566,-257.1514,110.3744,-144.1571,-0.3927893,0.01917802,0.1872702,13.02028,2.525417,-50.30957,1007.689
7.886108398,-170.9277,99.14674,-83.0681,-0.2204741,0.109577,0.5130886,14.20563,17.65495,-45.45127,1007.69
7.918883800,-26.37267,118.3519,-25.2168,-0.2539925,-0.352086,0.2106059,14.20563,17.65495,-45.45127,1007.69
7.951660633,120.3566,95.66028,-7.317717,-0.6198721,-0.1023769,0.9803135,15.12208,27.6174,-40.88427,1007.689
7.986957550,67.24334,51.75441,36.72747,-0.5289193,0.2477476,1.002675,18.73788,29.08341,-39.66872,1007.687
8.019733906,22.39214,81.24166,54.62654,-1.155142,0.1167107,0.7015817,18.73788,29.08341,-39.66872,1007.687
8.052510262,37.11476,74.26872,53.71021,-1.283771,0.3264937,0.8373146,20.63991,24.63997,-39.9743,1007.685
8.085286140,24.75273,67.53216,24.08204,-1.320929,0.3863374,0.5927808,25.84031,22.45796,-38.7034,1007.685
8.118062496,-4.816765,58.84553,10.27592,-0.9189203,0.1652803,0.3981716,25.84031,22.45796,-38.7034,1007.685
8.153359413,5.18468,44.5451,23.04353,-0.7055223,0.04645015,0.2827991,28.4444,19.54825,-37.79063,1007.689
8.186135769,10.96191,32.84475,38.62122,-0.7494902,0.1545552,0.2630047,30.26686,19.56087,-36.5498,1007.685
8.218912602,8.290719,27.46732,46.99042,-0.8028892,0.139671,0.2179057,30.26686,19.56087,-36.5498,1007.689
8.251688004,-8.171288,23.80357,62.75139,-0.9054779,0.01045657,0.3199111,32.47452,18.4861,-34.79498,1007.689
8.284464836,21.3982,12.2214,63.85099,-0.7561517,0.2960331,0.2348882,34.32944,16.66549,-34.33357,1007.688
8.319762230,13.19826,15.76696,70.38751,-1.131252,0.4275225,0.4040563,34.32944,16.66549,-34.33357,1007.689
8.352538109,12.63917,2.175648,53.46585,-0.8752267,0.3074451,0.05801236,35.52539,14.4264,-33.49166,1007.688
8.385314464,-16.24699,9.680418,53.03823,-0.9971095,0.3962695,0.511129,37.02975,11.8778,-33.01832,1007.686
8.453388214,-16.43335,9.680418,43.32508,-0.9512109,0.2526357,0.3220614,37.44261,9.337755,-32.10846,1007.686
8.486164570,-4.816765,8.675842,31.77925,-0.9329516,0.7462929,0.3410099,38.20385,7.507883,-32.51586,1007.682
8.518939972,-0.7789143,14.7033,24.57075,-0.8980937,0.3888899,0.3814189,38.20385,7.507883,-32.51586,1007.684
8.551716804,-3.325866,22.91718,16.20156,-0.8015477,0.4091218,0.3031788,38.24587,5.333148,-31.61125,1007.684
8.584493160,11.14827,18.60341,8.687606,-0.9020175,0.576636,0.2097805,39.35911,4.243164,-31.16036,1007.684
8.619790077,9.595255,25.63544,-0.7811917,-0.9217985,0.540579,0.3013405,39.71778,4.617766,-30.3585,1007.684
8.652566433,-1.586484,27.76278,-4.935245,-0.9220543,0.4507228,0.3370973,39.71778,4.617766,-30.3585,1007.684
8.685342789,8.539202,34.0266,-10.00563,-0.7649415,0.5159093,0.2071401,40.09007,4.264345,-29.48302,1007.684
8.718118668,-17.67576,33.96751,-9.761277,-0.9128124,0.2141575,0.2055388,41.55605,3.920191,-27.73872,1007.685
8.753416538,-11.27733,32.78566,-12.20484,-0.8666257,0.598304,0.2014807,41.55605,3.920191,-27.73872,1007.685
8.786192417,-0.4683104,32.54929,-17.58067,-0.9201856,0.4450366,0.1474449,41.54315,4.65416,-27.37723,1007.685
8.818968773,-23.453,14.40783,-19.23007,-0.9184284,0.3158896,0.1336759,42.63225,5.045699,-25.20881,1007.685
8.851745129,3.56954,13.0487,-28.21016,-0.9406309,0.6759019,0.173139,42.63225,5.045699,-25.20881,1007.685
8.884521008,-1.710726,-0.9562643,-29.00432,-0.8987014,0.4091967,0.2206149,42.97605,6.138137,-25.22647,1007.685
8.919818401,-11.15308,3.712058,-31.57006,-0.9878322,0.521392,0.2129555,43.6914,6.87121,-24.80375,1007.685
8.952594280,-15.19094,-5.092752,-28.88214,-0.9468198,0.2014721,0.1031085,43.6914,6.87121,-24.80375,1007.685
8.985370636,-30.28628,-5.801865,-31.14243,-0.8591576,0.3148576,0.1941884,42.94359,7.971361,-24.44705,1007.689
9.018146992,-15.6879,-11.29748,-29.85956,-0.9947822,0.3724834,0.1693925,42.56672,8.70705,-24.02293,1007.685
9.053444386,27.54816,-16.20218,-32.60857,-0.8513168,0.4781757,0.1376044,42.56672,8.70705,-24.02293,1007.685
9.086220741,-19.22878,-19.09772,-30.10392,-1.111284,0.1619368,0.2186036,42.16135,10.8886,-24.49195,1007.687
9.118997097,6.054371,-14.96123,-26.80511,-0.8874301,0.5654588,0.1958032,41.41156,11.97262,-25.31627,1007.687
9.151772976,-21.40301,-21.16596,-25.27789,-0.9979655,0.09853144,0.2795634,41.41156,11.97262,-25.31627,1007.687
9.184549332,-15.81214,-15.61125,-16.54216,-0.8579656,0.2284094,0.2280112,41.39658,12.68961,-26.19795,1007.69
9.219846249,-1.772847,-21.40233,-15.32038,-0.9636549,0.3609119,0.2189163,40.26982,14.50846,-26.6603,1007.69
9.252622604,-15.87426,-16.8522,-5.362868,-0.885402,-0.05797775,0.3300753,40.26982,14.50846,-26.6603,1007.69
9.285398960,-16.68183,-21.16596,-1.453171,-1.105622,0.4255862,0.1647617,39.90501,14.50339,-27.09494,1007.692
9.318174839,2.389246,-28.49345,2.334348,-0.8406362,0.09639135,0.2729357,38.79002,15.64902,-27.91974,1007.692
9.353472710,-21.09241,-27.54797,3.067416,-0.9716154,0.2497727,0.2850493,38.79002,15.64902,-27.91974,1007.692
9.386249065,-22.2727,-32.1572,8.748694,-0.9343067,0.08872256,0.3333397,38.06114,15.64482,-28.35392,1007.692
9.419024944,-6.494026,-38.12556,13.08601,-0.8738996,0.4084814,0.2980564,37.69488,15.62787,-29.65878,1007.692
9.451801300,-35.69079,-41.0211,6.916025,-0.8963935,0.08308221,0.3871708,37.69488,15.62787,-29.65878,1007.688
9.484577656,-22.89391,-46.63491,20.53888,-0.9470837,0.1594805,0.3684028,37.31583,16.34572,-30.54,1007.688
9.552651405,-13.82428,-53.84422,9.970475,-0.9590451,0.1091253,0.4955865,35.49794,15.95084,-33.08043,1007.69
9.585426807,-7.736441,-48.70315,6.182956,-0.9856483,0.4731663,0.4893246,35.49794,15.95084,-33.08043,1007.692
9.618203163,-26.86964,-46.51672,1.662369,-0.8574229,0.05304017,0.5026504,33.24397,16.30367,-34.32643,1007.693
9.653500557,-19.78787,-29.08438,1.112568,-0.7226371,0.3646794,0.6111301,31.05129,16.66146,-35.19957,1007.697
9.686276913,-5.562214,-40.43018,-4.813066,-0.9624672,0.3193592,0.4755419,31.05129,16.66146,-35.19957,1007.697
9.719053268,-2.8289,-38.36193,-11.71613,-0.6005254,0.2572181,0.5594968,30.32771,16.28093,-36.49823,1007.697
9.751829147,-51.84219,-27.13432,-21.06274,-0.8694576,0.2141788,0.5067683,29.21312,17.35988,-37.75719,1007.695
9.784605503,-14.88033,-26.72067,-23.44522,-0.5885645,0.3565693,0.6844727,29.21312,17.35988,-37.75719,1007.693
9.819903374,-28.98175,-15.13851,-21.61255,-1.05613,0.10069,0.5198976,28.09457,18.82619,-37.34359,1007.693
9.852678776,-53.20885,-21.57961,-19.71879,-0.8773566,0.08581801,0.6176938,26.98268,19.92722,-36.98642,1007.693
9.885455608,-22.45906,-30.02986,-41.22212,-0.7511406,0.5157073,0.6518859,26.98268,19.92722,-36.98642,1007.692
9.918231964,-81.1632,-21.57961,-49.71349,-0.8288414,0.1138616,0.6700049,26.22758,21.38756,-36.94624,1007.69
9.953528881,-75.82081,-11.12021,-61.99239,-1.08115,0.2601349,0.786391,23.28854,22.85738,-36.59245,1007.69
9.986305237,-116.4478,-8.283757,-55.70022,-0.8931088,0.008608946,0.8099108,23.28854,22.85738,-36.59245,1007.688
10.019081116,-65.69512,1.230165,-27.47709,-1.153438,0.02108662,0.746007,21.69896,26.95434,-34.91402,1007.688
10.051857471,-89.48738,-13.54301,-14.70949,-1.072629,0.1759819,0.9313875,19.80991,31.01421,-31.55597,1007.688
10.084633827,-70.85115,-24.35697,-1.147726,-1.206191,0.1375002,0.6708643,19.80991,31.01421,-31.55597,1007.688
10.119931221,76.9963,-10.11563,17.66769,-1.402418,-0.09637243,0.4030823,19.02974,33.94844,-30.35769,1007.688
10.152707577,240.933,-52.66236,51.14447,-1.621324,-0.1605225,0.2660288,17.53432,36.15043,-29.51998,1007.686
10.185482979,375.9214,-113.2914,97.20559,-1.56226,0.1423158,0.3905863,17.53432,36.15043,-29.51998,1007.686
10.218259811,296.7796,-99.99559,143.45,-1.281897,0.5411068,0.7402329,16.5118,31.68641,-36.28727,1007.686
10.253557205,185.6455,-38.6574,145.7713,-1.058869,-0.3476625,0.69387,14.89144,20.24502,-42.5087,1007.686
10.286333084,134.0853,-56.44429,107.5907,-1.179772,-0.08291589,1.020121,14.89144,20.24502,-42.5087,1007.685
10.319109440,-15.93638,-85.81335,28.23609,-1.118559,-0.2556683,1.24792,12.59888,6.324801,-43.52989,1007.683
10.351885795,-11.09096,-127.7691,-66.08535,-0.7420956,-0.3502254,1.065215,10.51786,-2.471101,-42.9534,1007.681
10.384661674,70.16301,-166.7112,-154.9699,-0.6321833,-0.2430539,0.9362694,10.51786,-2.471101,-42.9534,1007.681
10.419959545,202.1075,-215.7582,-196.7548,-0.4147719,0.1457454,0.554892,7.288492,-5.014306,-42.90907,1007.681
10.452735424,215.3393,-214.4581,-167.1266,-0.09933005,0.9790006,0.2351892,2.957626,-6.791205,-40.32626,1007.679
10.485511780,75.25692,-190.171,-145.0735,0.1369127,1.312283,0.3924945,2.957626,-6.791205,-40.32626,1007.678
10.518288135,11.08615,-179.6525,-110.436,0.0570142,1.363529,0.08357258,-0.9477395,-15.19538,-38.07487,1007.676
10.553585052,47.17833,-127.06,-59.42665,0.3521469,0.9437954,-0.1875015,-4.127198,-20.3385,-37.11924,1007.676
10.586361408,171.979,-89.77256,-21.36819,0.3949521,0.7185426,-0.133351,-6.646618,-21.77316,-35.84986,1007.674
10.619137287,233.6649,-67.37643,10.21483,0.4762823,1.039162,-0.07000601,-6.646618,-21.77316,-35.84986,1007.672
10.651913643,216.3953,-32.33448,35.62786,0.3519619,1.032332,-0.1322779,-8.392958,-25.36051,-31.93637,1007.671
10.684689999,198.1939,-0.4835229,43.81379,0.3371758,0.9277739,-0.0921322,-9.736428,-30.73018,-25.01107,1007.669
10.719987392,198.6909,31.6038,41.49241,0.3457309,0.80222,-0.08763099,-9.736428,-30.73018,-25.01107,1007.669
10.752763748,233.9755,55.71362,37.76598,0.2491942,0.9493114,-0.1810079,-12.25342,-35.07639,-18.97074,1007.667
10.785539150,182.291,72.49595,34.10064,0.246179,1.208327,-0.1202582,-12.18719,-37.89254,-11.65232,1007.663
10.818315983,121.1021,78.34612,32.69559,0.2246758,1.039811,-0.2345173,-12.18719,-37.89254,-11.65232,1007.661
10.851092339,97.12343,89.92828,16.81244,0.2199199,1.011532,-0.1632219,-13.60118,-39.6416,-6.524767,1007.659
10.886389255,60.65854,96.72395,11.92532,0.2478385,1.121599,-0.1273518,-13.93926,-40.68734,-3.088372,1007.658
10.919165611,40.03444,87.03275,3.922663,0.1503846,1.061431,-0.1178841,-13.93926,-40.68734,-3.088372,1007.658
10.951941967,19.2861,67.53216,-6.706826,0.1307318,0.9253371,-0.2644477,-15.02193,-41.02623,-1.402944,1007.658
10.984717846,57.17977,65.5821,-15.748,0.02014174,0.8611183,-0.3314793,-16.11343,-41.01767,-0.9664233,1007.66
11.020015717,80.16446,36.80396,-20.69621,-0.08395147,0.9665204,-0.1773555,-16.11343,-41.01767,-0.9664233,1007.654
11.052791595,47.1162,2.175648,-9.944545,-0.1485149,0.9364434,-0.2926838,-17.20214,-40.98618,1.148386,1007.652
11.085567951,33.9466,-12.42025,-2.674951,-0.2491823,0.7776149,-0.3894408,-19.03386,-40.23511,2.444611,1007.652
11.118344307,61.77671,-26.18884,-3.285841,-0.3729998,0.7816697,-0.3578647,-19.03386,-40.23511,2.444611,1007.652
11.151120186,101.3476,-56.44429,10.58136,-0.4960278,0.8263279,-0.511676,-20.15242,-38.76881,2.858212,1007.652
11.186417580,117.0021,-52.3669,23.22679,-0.6562725,0.7991114,-0.6609583,-22.45571,-35.46141,4.425668,1007.651
11.219193459,165.7048,-32.33448,16.87354,-0.740157,0.7825933,-0.4840747,-22.45571,-35.46141,4.425668,1007.649
11.284746170,21.70881,-47.10765,-52.27923,-0.4999147,0.4373424,-0.4138454,-23.70418,-26.59298,8.577561,1007.649
11.320043564,46.37075,-38.48012,-53.98972,-0.6723955,0.8858278,-0.4280717,-23.70418,-26.59298,8.577561,1007.649
11.352819919,-85.69801,-33.45724,-65.47446,-0.3812768,1.008041,-0.292721,-21.12055,-25.12959,9.421496,1007.647
11.385595798,39.22687,-13.24754,-39.51163,-0.111042,1.009267,-0.7915732,-18.95782,-24.05341,8.531264,1007.647
11.418372154,-12.14702,-18.68407,-68.16238,-0.2153322,0.9822891,-0.6935688,-18.95782,-24.05341,8.531264,1007.647
11.451148510,-108.31,-21.52052,-75.06544,-0.4262602,0.7098537,-0.3956577,-16.76514,-24.41119,9.404398,1007.649
11.486445427,89.23409,-56.14883,-44.88746,-0.6588331,0.492963,-0.4188473,-15.31101,-24.43251,8.097184,1007.649
11.519221783,13.13614,-49.76682,-51.42398,-0.6800737,0.5861366,-0.7221952,-11.99978,-26.25661,8.556717,1007.649
11.551997661,2.699849,-40.54836,-58.81576,-0.5342178,0.4907416,-0.8181884,-11.99978,-26.25661,8.556717,1007.649
11.584774017,-33.76505,-35.46639,-29.6763,-0.381011,0.8444895,-0.559631,-10.13079,-25.52036,9.413053,1007.645
11.620071888,-41.90287,-20.51594,-29.30976,-0.6264637,0.7073522,-0.7249119,-7.562686,-26.62572,8.991841,1007.645
11.652847767,11.02403,-21.46142,-20.26859,-0.5927223,0.645681,-0.5289847,-7.562686,-26.62572,8.991841,1007.645
11.685624123,-0.5304312,-25.83428,-11.89939,-0.6663775,0.8408846,-0.2446194,-7.206098,-26.2681,8.55053,1007.643
11.718400001,-29.10599,-11.65204,-17.58067,-0.5921514,0.8182438,-0.5080662,-5.371461,-26.99539,8.994752,1007.643
11.751176357,-24.01208,14.6442,-11.34959,-0.8216054,0.7101472,-0.5786006,-5.371461,-26.99539,8.994752,1007.645
11.786473751,58.79491,20.25801,3.189595,-0.6941878,0.7971416,-0.7585819,-4.62375,-28.09639,8.575891,1007.645
11.819249630,61.27974,35.85847,16.75136,-0.5616942,1.046727,-0.6759967,-3.873858,-29.17956,9.462364,1007.647
11.852025986,39.41323,42.1223,27.50302,-0.5414456,1.118882,-0.6198342,-3.873858,-29.17956,9.462364,1007.647
11.884802341,6.178613,26.87639,45.27993,-0.6409918,0.9553459,-0.4142915,-3.527261,-28.0642,11.12299,1007.647
11.920099735,-29.04387,21.43986,52.30516,-0.7599345,0.9713594,-0.2797336,-3.86284,-29.50918,12.01661,1007.648
11.952876091,-64.63907,20.43529,62.50703,-0.7185538,0.9173157,-0.3269237,-3.86284,-29.50918,12.01661,1007.648
11.985651970,-53.58157,28.88554,60.9798,-0.7274715,0.7932513,-0.2973526,-4.218703,-29.86086,12.89303,1007.648
12.018428326,-72.15569,49.50888,58.96387,-0.7871349,0.7568383,-0.3491432,-5.641533,-31.75218,12.05429,1007.647
12.051204681,-56.81186,35.85847,63.48446,-0.6697899,0.6264849,-0.325157,-5.641533,-31.75218,12.05429,1007.645
12.086501598,-63.08605,50.92711,58.47515,-0.8692967,0.8030689,-0.3259127,-6.695377,-33.95402,10.78475,1007.645
12.119277954,-98.68126,38.81311,48.63982,-0.5371959,0.4134592,-0.3015637,-8.861635,-35.05908,9.561578,1007.645
12.152053833,-77.18747,44.07236,23.83768,-0.7267319,0.4810337,-0.3016974,-8.861635,-35.05908,9.561578,1007.645
12.184830189,-7.550079,10.92136,26.5256,-0.4623028,0.5552897,-0.3770475,-11.44879,-36.55133,6.604242,1007.639
12.220127583,-58.55124,5.662116,20.66105,-0.4915991,0.6313106,-0.3356955,-12.88169,-38.03531,4.453484,1007.639
12.252903938,-4.941006,-18.50679,25.36491,-0.3588213,0.7216769,-0.4574498,-12.88169,-38.03531,4.453484,1007.639
12.285680294,-16.37123,-30.91625,29.2746,-0.2420967,0.8584317,-0.4025761,-13.23287,-38.7684,4.09246,1007.639
12.318456173,-31.21809,-49.29408,33.55083,-0.2381119,0.8231589,-0.3669117,-14.30202,-39.83617,5.789348,1007.639
12.351232529,-30.78325,-58.03979,34.77262,-0.1525915,0.7732913,-0.497007,-14.30202,-39.83617,5.789348,1007.639
12.386529446,-16.24699,-81.91323,39.53756,-0.07199083,0.8224058,-0.2546659,-15.01883,-40.58113,4.496413,1007.637
12.419305801,-35.56655,-89.59528,46.80715,0.01188714,0.8418527,-0.4305912,-15.0181,-40.57518,4.931524,1007.635
12.452082157,-30.22416,-97.10005,49.3118,0.006278159,0.7734867,-0.309653,-15.0181,-40.57518,4.931524,1007.635
12.484858036,-44.32558,-101.1774,42.34766,0.1068925,0.7147958,-0.395967,-16.47368,-40.56575,5.368515,1007.635
12.520155907,-16.12275,-86.9952,36.66637,0.2210604,0.925284,-0.2405938,-17.20256,-40.56995,4.934343,1007.635
12.552931785,-42.39983,-105.7867,34.16173,0.1232005,0.860299,-0.08285847,-17.57944,-39.83426,5.358465,1007.635
12.585708141,-4.133436,-109.0959,23.59333,0.4540398,1.17125,-0.2391103,-17.57944,-39.83426,5.358465,1007.634
12.651260376,-4.071315,-123.3372,-6.218114,0.3968179,1.290123,-0.5154554,-18.31966,-39.09175,6.218168,1007.63
12.686557770,-66.19209,-80.90865,-0.7811917,0.1923236,1.161059,-0.2692814,-18.31966,-39.09175,6.218168,1007.63
12.719333649,-38.54835,-84.39513,0.5627667,0.3123332,0.9061242,-0.3741186,-17.58329,-39.44604,7.093182,1007.63
12.752110004,-64.39059,-53.43057,11.43661,0.09323489,1.194574,-0.1631972,-17.2086,-40.19957,5.363725,1007.628
12.784886360,-72.90114,-59.57621,12.35295,0.1335747,0.7853686,-0.08469559,-17.2086,-40.19957,5.363725,1007.628
12.820183754,-64.39059,-33.16178,10.3981,-0.156643,0.9484655,0.04523326,-16.49542,-39.48433,4.481102,1007.627
12.852960110,-56.25277,-66.78551,4.900087,-0.1449498,0.7602839,0.2149285,-16.86365,-39.51742,1.99522,1007.627
12.885735989,-31.46658,-80.19955,-9.02821,-0.06169485,0.8482955,0.09425793,-16.86365,-39.51742,1.99522,1007.625
12.918512344,-46.37556,-91.84081,-21.73472,-0.3640915,0.8621821,0.4237243,-16.12946,-39.88954,1.564898,1007.623
12.951288700,-26.55904,-128.951,-56.55546,-0.2121855,0.6490955,0.2051469,-16.4875,-40.25905,1.135986,1007.621
12.986585617,1.768038,-130.4874,-78.85295,-0.2461112,0.8079011,0.1101598,-16.4875,-40.25905,1.135986,1007.614
13.019361973,-13.14095,-138.7604,-100.845,-0.1702015,0.9019571,-0.1130325,-14.30304,-40.26429,1.133167,1007.614
13.052137852,-60.5391,-132.0238,-112.0243,-0.1598098,0.8232576,-0.09657224,-11.73807,-40.9755,2.881785,1007.61
13.084914207,27.79664,-133.5602,-110.3138,-0.3144058,1.095358,-0.1433077,-11.73807,-40.9755,2.881785,1007.61
13.120212078,-47.61798,-105.6685,-102.3722,-0.3282339,1.026471,0.0527431,-6.939075,-41.36331,2.011105,1007.61
13.152987957,-45.07103,-101.1774,-104.8769,-0.2647789,0.9230756,0.2361473,-2.570873,-41.37972,1.570354,1007.609
13.185764313,-24.32269,-73.10842,-107.1372,-0.6341097,0.8289502,0.1716999,-2.570873,-41.37972,1.570354,1007.609
13.218540192,7.731632,-98.341,-85.38948,-0.6034165,0.8136376,0.3141333,0.3254205,-40.68076,-0.1231525,1007.609
13.251316547,-59.85577,-68.67647,-84.53423,-0.4898242,0.841891,0.3884324,4.362453,-39.24464,-1.021543,1007.606
13.286613464,-46.06496,-30.14805,-86.73344,-0.3881972,0.1125819,0.0961412,4.362453,-39.24464,-1.021543,1007.608
13.319389820,85.44473,-44.15302,-41.3443,-0.7834674,1.138378,0.0936072,7.257293,-38.55757,-3.585274,1007.608
13.352166176,-137.3204,-14.13393,-39.6338,-0.4666782,1.563372,0.5957197,9.055943,-37.4805,-4.475037,1007.605
13.384942055,-265.1028,15.23513,-53.92863,-0.6340132,0.6299452,0.4097923,9.055943,-37.4805,-4.475037,1007.605
13.417718410,-175.8353,29.41738,-55.45586,-0.8561911,0.5707983,0.5759969,10.85782,-36.79675,-7.472468,1007.609
13.453015804,-205.0941,82.30533,-12.44919,-0.7163703,0.5291698,0.3047213,11.90483,-35.07059,-14.34,1007.604
13.485792160,-183.414,127.0976,38.92667,-1.028247,0.1793778,0.3156155,11.90483,-35.07059,-14.34,1007.606
13.518568516,-74.20567,95.4239,92.44065,-1.443265,0.07256512,0.09244626,13.34642,-31.49354,-19.06117,1007.606
13.551344395,93.70679,79.05524,128.361,-1.479795,0.3129517,0.03585127,15.47287,-28.54547,-20.78907,1007.606
13.586641788,133.402,85.43724,116.5097,-1.076108,0.8454236,-0.009712659,13.66277,-28.87667,-18.66759,1007.604
13.619417667,50.71921,111.7335,71.85365,-0.8748243,0.9248802,-0.1017686,13.66277,-28.87667,-18.66759,1007.605
13.652194023,35.99659,99.38312,9.420673,-0.747535,0.5275244,0.105514,11.86364,-32.88906,-14.74733,1007.603
13.684970379,125.9475,64.75481,-53.50101,-0.4823766,0.1495066,0.3365084,11.18707,-35.40356,-12.15777,1007.605
13.717746258,236.0876,78.64159,-102.4333,0.3441565,0.5190506,0.3060721,11.18707,-35.40356,-12.15777,1007.605
13.753044128,271.0616,110.9062,-160.1013,-0.1849901,0.6412955,0.1713989,13.82654,-36.42161,-6.176701,1007.602
13.785820007,180.1789,97.1376,-160.5901,-0.3925233,1.302213,0.0009742894,17.12568,-36.66568,3.210781,1007.602
13.818596363,43.8238,93.0602,-164.8663,-0.8635778,1.529282,0.02244788,17.12568,-36.66568,3.210781,1007.604
13.851371765,-206.0881,68.24127,-98.6458,-1.196208,1.24898,0.6662772,21.07423,-32.93836,9.923623,1007.601
13.886669636,-22.21058,25.63544,-82.33503,-1.160734,-0.5060114,0.107089,25.43968,-29.62613,8.560046,1007.603
13.919445991,316.2234,-26.30702,-57.83833,-0.9163625,0.6936291,0.2418894,25.43968,-29.62613,8.560046,1007.603
13.952221870,-32.95748,29.71284,-66.69624,-0.9067496,0.3552825,0.3915987,27.60531,-28.52617,9.41026,1007.605
13.984998226,174.7123,-14.84305,-49.40805,-1.366314,-0.326774,-0.4154524,29.35558,-24.48691,11.89339,1007.607
14.017774105,136.3838,-19.03862,-19.59661,-1.192476,0.5884774,0.09059249,29.35558,-24.48691,11.89339,1007.604
14.053071976,46.06015,-10.352,-4.874156,-1.122147,-0.03292242,-0.1247692,30.41296,-22.25621,15.27634,1007.606
14.085848331,36.55567,-6.392791,-7.745339,-1.154393,0.07129683,-0.01702474,30.72367,-19.33564,15.66514,1007.606
14.118624210,18.47853,-11.1793,-20.63512,-0.7117293,0.1576373,0.03041273,30.72367,-19.33564,15.66514,1007.609
14.151400566,26.24362,-10.29291,-1.697527,-1.061059,0.7808327,-0.3514178,31.07237,-18.55284,15.21714,1007.611
14.186697483,-0.4683104,-24.8888,2.517615,-0.9248046,-0.1503668,-0.30172,31.41689,-17.45446,15.63459,1007.615
14.219473839,35.87234,-28.55255,6.793847,-1.153234,0.191417,-0.0441648,31.41689,-17.45446,15.63459,1007.618
14.252249718,60.47217,-40.13471,18.58403,-1.288301,-0.02813423,-0.2870826,32.86499,-17.1054,14.75676,1007.618
14.285026074,24.50424,-44.74394,31.71817,-1.290105,0.378599,0.003051176,32.49269,-16.75198,13.88128,1007.616
14.317802429,27.6724,-46.16217,30.00767,-1.223371,-0.1241634,-0.02667514,32.49269,-16.75198,13.88128,1007.619
14.353099823,63.57821,-63.83088,26.95322,-1.141393,0.4863823,-0.2246667,32.84929,-16.39436,13.43997,1007.623
14.385876179,9.905859,-62.8263,28.84698,-0.8871527,0.249562,0.223235,33.23157,-17.50553,12.21351,1007.623
14.418651581,45.12834,-72.39931,28.41936,-1.157322,0.06699462,-0.07188655,33.23157,-17.50553,12.21351,1007.624
14.451428413,22.82698,-71.15836,39.10994,-1.107908,0.3409034,0.03637117,33.21659,-16.78854,11.33183,1007.624
14.486725330,38.66778,-90.65895,50.16705,-1.207527,0.1787477,0.090283,33.24219,-18.25817,10.48452,1007.624
14.519501686,37.67385,-99.64104,44.48577,-0.8717526,-0.007557152,-0.3501973,33.26611,-19.81148,7.959888,1007.626
14.552278042,55.19191,-92.6681,80.95591,-1.244481,0.8312334,0.1832528,33.26611,-19.81148,7.959888,1007.628
14.585053921,-128.3129,-101.2365,64.8895,-0.9625652,-0.575197,-0.1349203,33.27079,-20.1929,6.722441,1007.63
14.617830276,95.2598,-130.1329,60.43,-1.721272,0.6667302,0.4931844,33.31376,-22.77962,4.151881,1007.63
14.653127193,-112.9069,-197.9122,61.77396,-2.095172,0.1552497,-0.05054066,33.31376,-22.77962,4.151881,1007.625
14.685904026,85.94169,-231.0041,3.43395,-1.871497,0.08875158,-0.7773458,32.24765,-24.66202,-0.4178112,1007.625
14.718680382,195.4606,-287.9694,-38.77856,-2.099735,0.798207,-0.3162479,31.91021,-26.54192,-4.67765,1007.624
14.751455784,223.6635,-355.6896,-90.21552,-1.934049,0.7280189,-0.4532418,31.91021,-26.54192,-4.67765,1007.624
14.786753654,333.0581,-408.6367,-140.8583,-1.819716,0.6683042,-1.333834,32.27472,-26.95903,-8.464077,1007.624
14.819529533,169.8669,-458.5109,-205.2461,-1.577573,1.151781,-1.297109,32.59637,-25.20819,-13.65238,1007.624
14.852305889,81.90384,-407.1594,-332.8,-1.1239,0.8351737,-1.566789,32.59637,-25.20819,-13.65238,1007.625
14.885081768,156.9457,-318.284,-435.063,-0.758907,1.031277,-1.960742,32.17823,-23.13109,-21.76693,1007.625
14.917858124,230.5589,-161.9247,-461.8811,-0.4786785,1.66687,-1.736605,30.57343,-15.87746,-29.15319,1007.624
14.953155041,157.3806,-81.14503,-401.8306,0.3235612,2.185007,-1.030725,30.57343,-15.87746,-29.15319,1007.62
14.985931396,129.9232,49.3907,-349.7827,0.3838375,1.376884,-0.8404745,28.2288,-7.458308,-31.39651,1007.62
15.018707752,297.9599,62.45018,-232.0642,-0.2400021,1.617452,-0.3748434,27.7633,-1.99088,-31.48199,1007.617
15.051483631,354.3034,28.59008,-133.2833,0.1774604,2.493791,-0.3646389,27.7633,-1.99088,-31.48199,1007.615
15.086781502,21.02548,47.32246,-51.05745,0.170468,2.130603,0.5052643,29.53989,0.5846853,-29.41105,1007.615
15.119557381,-90.85404,40.40861,10.21483,-0.4052466,1.251094,0.5796784,29.97376,-3.042725,-28.04889,1007.615
15.152333736,308.7068,-26.42521,58.96387,-2.332043,1.333597,2.013769,29.97376,-3.042725,-28.04889,1007.615
15.185110092,-11.40157,-90.06802,130.3158,-2.456238,1.519563,0.04934543,30.69515,-2.680033,-28.05556,1007.615
15.217885971,-89.36314,-28.84801,39.35429,-0.09455622,-0.933019,-0.3159877,28.93769,-5.938621,-26.75846,1007.615
15.253183365,165.7048,27.05367,15.71284,-1.050996,1.752662,0.1530048,28.93769,-5.938621,-26.75846,1007.617
15.285959244,-67.99359,-6.865533,-4.690889,-0.7567013,0.4975647,0.08055005,26.38635,-5.955439,-28.43346,1007.618
15.318735599,23.07546,-5.624587,-10.24999,-1.132945,0.7071745,0.2789662,26.09319,-9.641844,-27.0694,1007.618
15.351511478,34.69205,-31.86174,-3.163663,-0.7283486,1.10891,0.4824612,26.09319,-9.641844,-27.0694,1007.618
15.386809349,-10.22127,-7.633738,-34.07471,-0.4146783,0.2330571,0.1533045,25.72838,-9.646915,-27.50405,1007.622
15.419585228,-45.00891,-0.3062448,-41.22212,-0.825484,0.6678146,0.2725199,24.98525,-8.928184,-28.38479,1007.624
15.452361584,-14.44549,18.95797,-54.35626,-0.8168226,0.5206912,0.3969125,24.98525,-8.928184,-28.38479,1007.625
15.485137939,-72.65265,11.21683,-54.84497,-0.8621836,0.5681481,0.201997,25.33581,-8.200182,-28.39672,1007.627
15.517913818,-68.05572,25.51726,-63.5807,-0.8705715,0.4740829,0.4827926,26.02831,-6.324947,-28.86238,1007.627
15.553211212,-51.71795,12.98961,-67.91802,-0.707227,0.5577604,0.2728867,25.97494,-3.403507,-28.4731,1007.627
15.585987091,-99.48883,16.71245,-72.74405,-0.9710632,0.4821599,0.5744775,25.97494,-3.403507,-28.4731,1007.629
15.618763447,-28.36054,2.589297,-74.33237,-0.9177288,0.266209,0.3426601,27.01984,-0.8550658,-28.51462,1007.629
15.651539802,-54.63763,9.857697,-74.82108,-0.8880192,0.2537234,0.4725761,26.94547,3.15374,-28.57765,1007.629
15.686837196,-37.74078,22.08988,-64.80248,-0.6143098,0.3183042,0.4655719,26.94547,3.15374,-28.57765,1007.629
15.719613552,-110.36,13.28507,-61.74803,-1.053097,-0.006532428,0.2254586,26.50662,7.230104,-28.20606,1007.631
15.752389431,-10.34551,8.971306,-45.00964,-1.065546,-0.4630297,0.3604761,27.20377,9.073471,-26.55736,1007.629
15.785165787,36.24507,6.962155,-27.416,-0.8582319,0.1919391,0.5168839,27.20377,9.073471,-26.55736,1007.631
15.817941189,67.7403,-0.3653375,-32.73075,-0.9705663,0.04138987,0.4341016,27.1632,11.26009,-26.59174,1007.631
15.853239059,112.9642,-30.73898,-27.04947,-0.7480319,0.5940276,0.4245577,26.41341,12.34411,-27.41605,1007.631
15.886014938,83.76746,-38.71649,-23.62848,-0.928238,0.405201,0.3819472,26.41341,12.34411,-27.41605,1007.631
15.918791294,72.52361,-29.32075,-25.27789,-0.9889267,0.01185207,0.4808818,26.08169,10.51091,-28.25716,1007.631
15.951567650,120.4187,-40.60746,-16.90869,-0.7325187,0.2119222,0.5078911,25.00684,9.396441,-29.979,1007.632
15.986865044,-30.09992,-7.870109,-10.37217,-1.030239,0.08567016,0.7802755,25.00684,9.396441,-29.979,1007.632
16.019641399,71.65392,-20.39776,1.173657,-1.042353,0.1803932,0.268474,23.15677,7.555838,-31.62621,1007.632
16.052416801,-87.62376,-3.201786,15.4074,-0.8967714,-0.1324239,0.5641562,22.798,7.180386,-32.49023,1007.632
16.085193634,41.77382,-12.7748,10.27592,-0.8880719,0.2624947,0.4032469,22.798,7.180386,-32.49023,1007.634
16.117969036,-10.15915,-27.78434,8.993051,-0.7517318,0.2877584,0.3003554,22.44214,6.828709,-31.61381,1007.634
16.153266907,81.46899,-43.14844,7.282558,-1.021407,0.1901962,0.4623983,22.07588,6.81175,-32.91868,1007.636
16.186043263,31.77238,-51.77597,11.92532,-0.9600885,0.1357698,0.4762944,22.07588,6.81175,-32.91868,1007.636
16.218819141,8.104357,-48.05313,16.69027,-0.8395997,0.1262224,0.5694072,22.09482,5.707401,-33.70955,1007.636
16.251595497,14.00583,-61.58535,25.85362,-1.008434,0.2608927,0.5277262,20.6513,4.976074,-34.13132,1007.634
16.286892414,35.18901,-61.40808,21.82174,-0.895887,0.3339496,0.6727204,20.6513,4.976074,-34.13132,1007.634
16.319668770,54.38433,-66.49004,40.69825,-0.8557221,0.3649683,0.5325021,18.86305,3.074585,-35.77766,1007.636
16.352444649,-12.95459,-74.29028,49.25071,-0.7332294,-0.1158673,0.4371452,17.41881,2.337314,-36.63454,1007.636
16.385221004,77.36903,-75.23576,41.98112,-0.7566344,0.1491041,0.5383687,17.41881,2.337314,-36.63454,1007.636
16.417996883,15.62097,-68.91284,94.70094,-0.6652813,0.5125428,0.4437388,16.35144,0.8643527,-37.91555,1007.636
16.453294754,16.73915,-68.79465,71.24276,-0.681834,0.1965668,0.8303064,13.47658,-1.338214,-39.55569,1007.636
16.486071110,10.89979,-91.54534,59.39149,-0.7168596,0.4124501,0.7501581,13.47658,-1.338214,-39.55569,1007.636
16.518846989,63.64033,-89.12254,56.09268,-0.537351,0.6363416,0.5130462,11.26379,-3.166906,-40.39437,1007.633
16.551623344,31.58601,-86.64065,50.22814,-0.5032535,0.8363121,0.723019,9.462963,-4.261798,-40.80994,1007.633
16.584399223,39.91019,-95.0909,55.11526,-0.336199,0.8324488,0.7370695,9.462963,-4.261798,-40.80994,1007.633
16.619696617,57.24189,-101.2365,67.08871,-0.1868315,0.9383608,0.8698927,5.873477,-7.191494,-42.43769,1007.635
16.652472496,34.00872,-102.7729,64.09534,-0.1788203,0.6164181,0.7890089,2.266909,-9.071636,-42.8385,1007.635
16.685248852,77.43114,-106.5549,68.43266,-0.0674976,0.5486232,0.7113478,-1.777611,-10.14926,-42.38095,1007.635
16.718025207,77.05842,-89.24072,70.50969,-0.01316784,0.5583353,0.6418881,-1.777611,-10.14926,-42.38095,1007.635
16.753322601,81.09627,-80.14045,72.34236,-0.1387186,0.663117,0.5924477,-6.103169,-12.30248,-40.66265,1007.635
16.786098957,48.54498,-71.15836,74.9081,-0.06656072,0.7511395,0.626802,-8.958792,-15.18722,-38.8726,1007.635
16.818874836,23.01334,-63.71269,62.81248,-0.04972211,0.5973114,0.5475692,-8.958792,-15.18722,-38.8726,1007.633
16.851651192,54.81918,-62.05809,46.92933,-0.08034087,0.5981322,0.492284,-13.00269,-16.25975,-38.0421,1007.633
16.884426594,61.21762,-60.4626,32.02361,-0.09024416,0.6768792,0.4820802,-15.5348,-16.95874,-36.2869,1007.632
16.919724464,79.41901,-58.63072,18.82838,-0.07960948,0.6883423,0.4367897,-15.5348,-16.95874,-36.2869,1007.632
16.952500343,77.74174,-43.73937,13.51364,0.04793039,0.7605839,0.4464869,-17.68193,-18.74682,-34.14203,1007.63
16.985276699,64.07518,-24.29787,13.02493,0.06288281,0.8015728,0.4396506,-19.84145,-19.86676,-32.00767,1007.63
17.018053055,51.2783,-5.092752,16.507,0.0870362,0.8604362,0.4707931,-19.84145,-19.86676,-32.00767,1007.63
17.053350449,28.79058,0.2255893,18.88947,0.1400173,0.846068,0.5120862,-21.62658,-21.6727,-31.10645,1007.632
17.086126804,38.29506,-7.45646,20.4167,0.1444054,0.8342617,0.489951,-23.10831,-23.47936,-30.20562,1007.632
17.118902206,40.34504,-5.860957,19.01165,0.1987004,0.8575738,0.415176,-23.10831,-23.47936,-30.20562,1007.632
17.151679039,50.22224,-11.41567,16.38482,0.1671304,0.8662779,0.4441194,-23.10623,-23.46238,-28.96244,1007.632
17.184454441,67.86455,-24.17969,19.37818,0.1984718,0.9524971,0.4082944,-24.19701,-23.44787,-28.09081,1007.632
17.219752312,48.11014,-20.98868,21.76066,0.3264587,1.03222,0.3727313,-24.19701,-23.44787,-28.09081,1007.632
17.252528191,29.97087,-26.18884,32.69559,0.2775453,0.9898854,0.4369322,-25.25263,-25.24451,-26.38246,1007.626
17.285304546,59.47824,-35.52549,37.39944,0.2846462,0.8305101,0.2720485,-26.7,-25.58763,-25.06952,1007.626
17.318080902,79.54325,-33.8118,31.65708,0.3810546,0.9081944,0.1913153,-26.7,-25.58763,-25.06952,1007.628
17.353377819,54.01161,-24.41606,30.55747,0.3098828,1.018914,0.1600287,-28.15955,-25.19083,-22.95997,1007.63
17.386154651,23.13758,-24.65243,35.68895,0.3225294,1.003701,0.1282518,-29.95529,-26.24411,-20.32976,1007.626
17.418930054,-5.500093,-16.37945,30.9851,0.2800105,0.9061247,0.08517715,-29.95529,-26.24411,-20.32976,1007.626
17.451706409,-15.9985,-7.279181,29.88549,0.3019921,0.8613818,0.1381422,-31.40276,-26.58808,-19.07897,1007.626
17.484482288,-15.6879,-9.465611,26.89213,0.3366904,0.7696884,0.1478254,-32.88684,-25.13278,-19.53513,1007.626
17.519780159,7.980115,-10.41109,13.57473,0.4168823,0.7240172,0.06731659,-33.26299,-24.39115,-18.67589,1007.628
17.552556038,-21.89998,5.484838,-1.269904,0.4816332,0.8630866,0.0972792,-33.26299,-24.39115,-18.67589,1007.629
17.585332394,-25.06814,4.480262,-14.15969,0.4584574,0.7977661,0.04688964,-34.41059,-24.76471,-19.5389,1007.628
17.618108272,-15.75002,1.880185,-20.2075,0.3149819,1.108113,0.09393565,-34.42411,-24.03584,-19.55036,1007.628
17.653405666,-59.85577,8.61675,-27.53818,0.4541703,0.9924809,0.1775367,-34.42411,-24.03584,-19.55036,1007.628
17.686181545,-62.27848,22.26716,-33.76926,0.3119155,0.9865007,0.1889545,-34.43295,-23.68838,-20.79926,1007.629
17.718957901,-107.3782,20.55347,-32.66966,0.3531553,0.8297526,0.3609391,-33.64702,-23.71405,-22.54073,1007.629
17.751734257,-17.4894,-16.26127,-26.13313,0.1271139,0.4935927,0.1978375,-33.64702,-23.71405,-22.54073,1007.631
17.784510136,81.71748,-29.67531,-20.63512,0.7394215,0.9084328,0.2150144,-32.92167,-23.73872,-24.21996,1007.631
17.819808006,40.40716,-5.683679,-27.47709,0.5696843,1.224484,0.203388,-33.28367,-23.72086,-22.97631,1007.627
17.852583408,-41.4059,13.81691,-20.7573,0.1816366,1.038683,0.1453809,-33.28367,-23.72086,-22.97631,1007.627
17.885360241,-36.12564,28.23552,0.9293008,0.01889623,0.8568442,0.1060879,-33.26266,-24.80823,-22.52401,1007.627
17.918135643,-21.15453,15.76696,21.76066,-0.07268131,0.7591082,0.02895321,-33.24987,-25.54305,-22.94766,1007.629
17.953433514,31.15117,22.68081,2.945238,0.5560575,1.017808,0.1252698,-33.24987,-25.54305,-22.94766,1007.629
17.986209393,-18.6697,39.34494,6.610579,0.7920663,1.454518,0.307932,-32.53731,-24.8329,-24.20324,1007.629
18.018985748,-81.78441,44.95875,21.63848,0.303747,1.181233,0.3268312,-33.26692,-24.84304,-25.07252,1007.63
18.051762104,-68.05572,35.6812,30.49639,0.3894358,0.908734,0.4690404,-33.26692,-24.84304,-25.07252,1007.63
18.084537983,-41.77863,23.5672,30.86292,0.3821016,0.7204928,0.4428665,-32.57079,-23.4278,-28.08,1007.632
18.119835854,-30.96961,18.66251,26.64778,0.1444404,0.605494,0.440234,-31.87997,-21.63623,-30.22299,1007.634
18.152611256,-20.59544,31.6629,32.51232,0.5293919,0.8586224,0.4485667,-31.87997,-21.63623,-30.22299,1007.634
18.185387611,-79.54806,21.55805,22.18828,0.05799709,0.8434972,0.5912279,-31.55188,-19.83275,-31.55744,1007.634
18.218163490,-21.52725,-8.283757,8.38216,0.1209765,0.7261094,0.7241114,-31.57402,-18.68464,-32.0107,1007.634
18.253461361,-44.0771,-11.47476,-3.652375,0.2097268,0.7635401,0.6771523,-31.57402,-18.68464,-32.0107,1007.63
18.286237240,-32.33627,-24.29787,-13.79315,0.03719449,0.409135,0.6275527,-30.89382,-16.14042,-32.42471,1007.63
18.319013595,93.83103,-38.83467,-21.18492,0.3687833,0.6065223,0.4584735,-31.64444,-15.0632,-33.74629,1007.628
18.351789474,62.21156,-18.97953,-32.18095,0.2483449,0.9901157,0.2949994,-31.64444,-15.0632,-33.74629,1007.628
18.384565830,-21.9621,3.889335,-14.83167,0.183628,0.8475385,0.32088,-31.99749,-15.39195,-31.19158,1007.63
18.419862747,6.240734,-7.574645,15.77393,0.8271853,0.9759274,0.2902783,-32.30603,-18.29469,-30.27505,1007.63
18.452639103,4.252869,3.53478,1.356924,0.2482743,1.011741,0.2530885,-32.30603,-18.29469,-30.27505,1007.628
18.485415459,-55.50732,15.53059,30.25203,0.5831653,1.111692,0.4263965,-32.66334,-18.65825,-30.26885,1007.628
18.518191337,-95.76158,27.29004,23.7155,0.3947589,0.7190886,0.505897,-32.66407,-18.66419,-30.70396,1007.628
18.553489208,-4.009195,24.03994,12.71948,0.3187177,0.6709619,0.6804029,-33.07911,-16.14198,-32.91916,1007.63
18.586265087,-47.74222,7.493989,17.72878,0.327347,0.7324421,0.7563449,-33.07911,-16.14198,-32.91916,1007.63
18.619041443,1.768038,3.889335,2.700882,0.3912098,0.3868951,0.5757222,-31.64444,-15.0632,-33.74629,1007.631
18.651816845,50.34649,-11.77023,-10.7387,0.2333074,0.6154573,0.5054735,-31.31489,-13.24783,-34.21052,1007.633
18.684593677,31.27541,-10.58837,-0.5368356,0.5453143,0.9152629,0.5201665,-31.31489,-13.24783,-34.21052,1007.633
18.752666950,58.29794,-7.220089,8.44325,0.7602472,1.167897,0.3816065,-32.00706,-15.05044,-32.8756,1007.633
18.785442829,-98.43278,15.64878,7.16038,0.5906862,1.022525,0.4818696,-32.00706,-15.05044,-32.8756,1007.633
18.818219185,-30.16204,-9.701982,9.726119,0.448348,0.4086229,0.3396867,-32.36302,-15.40297,-32.06133,1007.629
18.853516102,0.4635013,-7.988294,-3.774554,0.3788425,0.6670891,0.4713551,-31.6693,-13.58762,-32.46387,1007.629
18.886292458,16.55278,-1.07445,7.526915,0.6451224,0.8010548,0.505661,-31.6693,-13.58762,-32.46387,1007.629
18.919069290,-23.20451,-0.9562643,9.237407,0.2405983,0.8277737,0.5619369,-32.03275,-13.58165,-32.09045,1007.631
18.951844692,16.98763,-5.388216,4.411375,0.0823578,0.5540417,0.3297457,-30.95404,-12.8554,-32.10332,1007.631
18.984621048,22.33002,15.94424,-33.15837,-0.2594471,0.7381113,0.3158381,-30.95404,-12.8554,-32.10332,1007.631
19.019918442,-9.103099,-14.4294,-34.92995,-0.1341625,0.5716008,0.5237402,-30.23869,-12.12232,-31.68061,1007.631
19.052694798,59.9752,-20.69322,-40.48905,-0.1238306,0.2505231,0.2142026,-29.49628,-12.847,-31.23498,1007.631
19.085470676,107.3734,-11.1793,-7.867517,-0.09189853,0.7530791,0.4458672,-29.49628,-12.847,-31.23498,1007.631
19.118247032,-15.9985,38.39946,12.78057,0.8204522,1.255208,0.8184085,-30.19459,-14.28008,-29.53283,1007.632
19.153543949,-101.7873,27.29004,-20.08532,0.3601228,0.814789,0.6521689,-30.88821,-16.09457,-29.06813,1007.632
19.186320305,133.7126,12.10322,-29.79847,0.8091039,1.246224,0.3804098,-30.88821,-16.09457,-29.06813,1007.634
19.219096184,-14.56973,20.25801,-4.568711,0.3123794,1.655928,0.4319948,-30.19063,-14.66744,-31.20539,1007.634
19.251872540,-110.4221,23.50811,19.19492,0.4240168,0.8515742,0.4021352,-29.79057,-16.47267,-29.87187,1007.637
19.284648418,-91.66161,16.77154,19.19492,0.2985618,0.5547973,0.5987943,-29.79057,-16.47267,-29.87187,1007.637
19.319946289,-43.02104,7.848545,6.182956,0.4008912,0.4097444,0.6281332,-29.08633,-15.41082,-32.06556,1007.633
19.352721691,-0.4061896,-4.265455,1.173657,0.2523058,0.6095034,0.6070047,-28.79194,-11.7843,-33.36651,1007.635
19.385498047,-2.083451,-5.92005,-8.600586,0.2580398,0.6424488,0.5751715,-28.79194,-11.7843,-33.36651,1007.635
19.418274879,29.03906,-9.288333,-13.18226,0.3211426,0.8421549,0.5020353,-28.7987,-11.41987,-33.37224,1007.637
19.451050281,-38.4241,12.63505,-36.70153,0.1433268,1.118466,0.6685917,-28.80619,-11.06137,-33.81308,1007.637
19.486348152,-67.24815,0.4028674,-34.07471,-0.08056565,0.7274691,0.6716375,-28.80619,-11.06137,-33.81308,1007.637
19.519124031,-31.96354,18.66251,-40.85559,-0.006260669,0.676765,0.4347077,-28.05567,-12.13945,-32.55365,1007.635
19.551900387,-34.75898,34.20388,-46.10924,0.1175722,0.6764876,0.4560757,-27.71396,-11.06399,-33.81449,1007.637
19.584676266,-56.81186,53.29082,-56.922,0.1337997,0.8267905,0.6189923,-27.71396,-11.06399,-33.81449,1007.637
19.619973659,-99.73731,30.18558,-56.55546,0.01154423,0.3713523,0.6180432,-26.98798,-11.08357,-35.12076,1007.637
19.652749538,61.03126,14.17146,-41.64974,0.09320951,0.5643658,0.7508959,-25.17716,-10.74642,-36.80713,1007.637
19.685525894,6.054371,13.99418,-10.49435,0.5507122,0.7818574,1.010381,-24.47209,-9.677782,-38.50355,1007.639
19.718301773,39.78595,0.4028674,5.877511,0.5191865,0.7387154,0.8675563,-24.47209,-9.677782,-38.50355,1007.64
19.751078129,10.15434,-8.756498,44.79121,0.3491046,0.9907947,0.8319591,-24.06006,-12.22462,-38.09095,1007.64
19.786375523,-6.494026,-16.97038,57.80318,0.2263759,0.5133172,0.7439179,-24.05257,-12.58311,-37.65011,1007.642
19.851928234,41.58746,0.284682,-6.890093,0.01213281,1.127062,0.5215933,-24.80029,-11.48211,-37.23125,1007.644
19.884704113,-84.4556,11.39411,11.07008,-0.03510123,0.9902255,0.5816004,-25.5195,-11.82697,-35.91925,1007.641
19.920001507,-42.8968,2.23474,7.588004,0.1236496,0.4233692,0.7495921,-25.5195,-11.82697,-35.91925,1007.641
19.952777386,33.69812,-6.570069,-2.980396,0.2433745,0.5084648,0.7260745,-25.52771,-11.47442,-36.7952,1007.641
19.985553741,25.80878,-3.142694,-6.890093,0.1432172,0.7647073,0.7148545,-24.83337,-9.653983,-36.82479,1007.639
20.018329620,22.45426,-9.583797,-5.668313,0.08746165,0.7069696,0.6033979,-24.83337,-9.653983,-36.82479,1007.639
20.051105976,21.95729,1.99837,-2.552773,0.2186382,0.8814422,0.6018611,-25.17716,-10.74642,-36.80713,1007.641
20.086402893,-22.2727,6.784877,1.356924,0.1597844,0.7298844,0.6599925,-25.89107,-11.46761,-36.35962,1007.641
20.119179726,5.495284,2.412019,-0.9033697,0.1187348,0.6395909,0.6818872,-25.89107,-11.46761,-36.35962,1007.641
20.151955128,17.42247,-1.488098,-5.362868,0.1821459,0.7173345,0.6493684,-25.52095,-11.83886,-36.78947,1007.641
20.184731484,-11.09096,5.248467,-2.797129,0.1475536,0.7677512,0.6570762,-25.52626,-11.46254,-35.92498,1007.643
20.220028877,14.06795,-0.06987408,-1.51426,0.1865943,0.6933411,0.6956047,-25.52626,-11.46254,-35.92498,1007.639
20.252805233,4.31499,3.002945,-4.6298,0.1455481,0.7899808,0.6344235,-25.5067,-12.56179,-36.3429,1007.642
20.285581112,-5.375852,2.589297,-2.247328,0.1130539,0.7761731,0.6489623,-25.87754,-12.19648,-36.34816,1007.642
20.318357467,-3.015262,-2.079025,-1.51426,0.12582,0.725452,0.6937751,-25.87754,-12.19648,-36.34816,1007.642
20.351132870,5.681646,-1.724469,-2.12515,0.1501171,0.7082671,0.6446444,-25.50743,-12.56773,-36.77801,1007.644
20.386430740,1.333192,-0.7789862,-2.12515,0.156804,0.7550784,0.644558,-26.24089,-12.18966,-35.91257,1007.644
20.419206619,5.12256,-2.906323,-1.819705,0.1408307,0.7309834,0.6306727,-26.24089,-12.18966,-35.91257,1007.645
20.451982975,0.7119844,1.407443,1.051479,0.1577146,0.7799014,0.6411489,-25.51346,-12.19735,-36.34863,1007.645
20.484759331,-1.710726,-0.1289668,-1.636438,0.1404267,0.7024523,0.6605611,-25.49921,-12.92028,-35.90205,1007.645
20.520056724,6.240734,-0.7198936,0.2573216,0.1455365,0.7948511,0.6344162,-26.24162,-12.19561,-36.34769,1007.647
20.552833080,-7.860683,0.46196,2.517615,0.1325593,0.7442918,0.6634049,-26.24162,-12.19561,-36.34769,1007.647
20.585608482,2.948332,-2.433581,1.418013,0.1671711,0.688625,0.6711085,-25.87078,-12.56092,-36.34243,1007.649
20.618385315,17.29823,-3.319972,1.60128,0.1699685,0.7358306,0.6623662,-25.15011,-12.20417,-36.78421,1007.649
20.651160717,15.68309,-5.801865,2.089992,0.09702999,0.7790686,0.6643994,-25.15011,-12.20417,-36.78421,1007.649
20.686458588,25.37393,-19.51137,5.266621,0.1215413,0.6940133,0.7304161,-25.1419,-12.55672,-35.90826,1007.651
20.719234466,91.96741,-33.16178,6.427312,0.1282911,0.7069552,0.692353,-26.22664,-12.91259,-35.46601,1007.651
20.752010822,126.1338,-44.09392,13.63582,0.1293905,0.8549364,0.679612,-26.22664,-12.91259,-35.46601,1007.651
20.784786701,144.0246,-61.1717,38.62122,0.2037096,1.041854,0.6449772,-26.56691,-13.97616,-33.33495,1007.652
20.820084095,166.8229,-76.89036,63.91208,0.2759615,1.049512,0.4686159,-27.94989,-17.57034,-29.85703,1007.652
20.852859974,218.2589,-82.91781,95.06747,0.2990161,1.126065,0.3134474,-27.94989,-17.57034,-29.85703,1007.654
20.885636330,268.3283,-85.34061,143.5721,0.4026818,1.376132,0.009566736,-30.0646,-20.84209,-25.13978,1007.656
20.918412209,217.5756,-50.7123,187.1286,0.5208095,1.693884,-0.1736284,-33.29472,-22.55198,-17.46137,1007.656
20.951188564,91.40832,-15.07942,229.5855,0.5245903,1.324085,-0.1976295,-33.29472,-22.55198,-17.46137,1007.658
20.986485958,66.2494,8.380379,256.1592,0.4717893,1.261966,-0.2421773,-38.07978,-22.47001,-12.296,1007.658
21.019262314,-29.23023,15.17604,280.9614,0.4518492,0.8905711,-0.1168976,-41.81427,-17.28145,-11.1293,1007.658
21.052037716,-52.71188,-1.488098,282.6108,0.6018881,0.4654975,-0.2109597,-41.81427,-17.28145,-11.1293,1007.658
21.084814549,-64.07999,-0.06987408,262.8179,0.7127139,0.2394362,-0.07465645,-44.87491,-9.250909,-10.81649,1007.656
21.120111465,-42.02711,-21.75689,247.4846,0.6145974,0.01587503,-0.2382311,-47.31122,1.013504,-11.4101,1007.656
21.185664177,18.41641,-9.938353,200.0795,0.6612821,-0.2564067,-0.438178,-46.33377,10.55873,-10.6913,1007.656
21.218440056,72.70997,8.61675,184.5629,0.7386344,-0.3605556,-0.6601122,-45.02588,18.64548,-9.949967,1007.654
21.251216412,80.41294,53.94083,160.1273,0.6799066,-0.3773119,-0.6878667,-45.02588,18.64548,-9.949967,1007.652
21.286513329,71.52967,118.2337,134.4088,0.507991,-0.5786419,-0.7174813,-41.14565,25.17197,-11.79872,1007.651
21.319290161,79.35689,200.5498,82.72749,0.5259945,-0.8259124,-0.8581902,-37.57994,28.81656,-15.65336,1007.649
21.352065563,77.43114,287.8297,26.70887,0.167136,-0.7464293,-0.4829595,-37.57994,28.81656,-15.65336,1007.649
21.384841919,102.5279,358.5045,-26.80511,0.3416069,-0.9820065,-0.3207993,-32.12361,31.62542,-22.5438,1007.647
21.420139313,116.3187,259.997,-37.00698,-0.2650193,1.96375,10.37591,-26.66242,30.77306,-30.62004,1007.645
21.452915668,-321.5085,-311.902,-30.47045,0.5153241,0.05411347,0.547529,-26.66242,30.77306,-30.62004,1007.645
21.485691547,-163.6596,201.318,4.961176,2.142391,-1.681564,-0.1983807,-17.45714,27.74221,-37.42348,1007.645
21.518467903,58.73279,-9.170148,-2.73604,0.2486593,-1.100582,0.7395585,-19.6412,28.17047,-33.13744,1007.645
21.551243305,58.11158,27.82187,-23.68957,0.6109272,-0.5212244,0.6222991,-19.6412,28.17047,-33.13744,1007.644
21.586541176,26.74059,4.716633,-21.42928,0.8559535,-0.2225534,0.6944348,-16.79765,31.79597,-34.06872,1007.644
21.619317055,-36.99533,-2.197211,-21.42928,0.543122,-0.3609715,0.7762542,-16.03038,29.59571,-34.9055,1007.642
21.652093410,-65.07392,-29.20257,-24.36155,0.6017436,-0.5322585,0.657477,-16.3877,29.23215,-34.8993,1007.644
21.684869289,-35.1317,-24.29787,-35.2354,0.6006893,-0.7239887,0.5422417,-16.3877,29.23215,-34.8993,1007.644
21.720167160,-20.65756,-32.45266,-61.62585,0.3676698,-0.5402415,0.5612905,-17.50407,30.71629,-33.18037,1007.644
21.752942562,-91.35101,-30.67988,-90.09333,0.3054922,-0.5416556,0.502714,-18.60098,31.10033,-31.94151,1007.64
21.785718918,-68.05572,-38.48012,-125.9526,0.2575716,-0.7967939,0.5706028,-18.60098,31.10033,-31.94151,1007.638
21.818494797,-15.62578,-43.56209,-165.355,0.4059364,-0.5186515,0.4682643,-21.14589,31.13615,-29.76267,1007.64
21.851271152,6.924062,-32.92541,-206.1014,0.5721265,-0.373877,0.4262549,-25.1951,30.43995,-28.06767,1007.64
21.886568546,72.77209,-41.73022,-249.5357,0.5824465,-0.2541906,0.255648,-25.1951,30.43995,-28.06767,1007.64
21.919344902,95.94314,-63.59451,-280.4467,0.6228446,0.1067626,0.2150551,-30.58544,26.76492,-26.75919,1007.64
21.952121258,106.0067,-73.10842,-288.6937,0.4720053,0.4309431,0.1590863,-35.98017,19.84281,-27.45126,1007.64
21.984897137,88.30228,-91.54534,-271.5277,0.4787842,0.8570006,0.2060829,-35.98017,19.84281,-27.45126,1007.64
22.017673492,-30.0378,-80.49501,-260.043,0.6692306,0.7708014,-0.02192301,-40.51171,9.259554,-24.72952,1007.638
22.052970409,-16.86819,-57.56705,-249.4135,0.5757831,0.6544803,-0.03789235,-42.85807,-1.322992,-21.57548,1007.638
22.085746765,-4.506161,-35.46639,-244.2209,0.5193923,0.883824,-0.0477315,-42.85807,-1.322992,-21.57548,1007.64
22.118522644,-19.35303,-4.856382,-239.3949,0.5307364,1.017484,-0.03111219,-42.36763,-7.9156,-19.35845,1007.638
22.151299000,-35.81503,8.084915,-211.0496,0.3268341,1.223943,0.06725805,-40.02621,-16.291,-18.35926,1007.638
22.186596394,-42.27559,9.266769,-183.0708,0.208033,0.9527466,0.08238943,-40.02621,-16.291,-18.35926,1007.638
22.219372749,7.793753,9.207677,-152.5263,0.1716496,1.142891,0.08459595,-37.36981,-22.20073,-19.14014,1007.638
22.252148151,6.79982,12.87142,-94.98045,0.256319,1.732333,0.3506625,-33.21566,-26.94221,-18.63578,1007.64
22.284924984,77.99023,38.0449,-56.61655,0.1691988,3.046717,0.3652544,-33.21566,-26.94221,-18.63578,1007.641
22.317700386,-299.8283,15.11694,62.93466,0.1529783,1.073654,0.306171,-30.99811,-28.77557,-19.04506,1007.643
22.385774135,-35.00746,27.34913,24.63184,0.02728241,0.6427968,0.3422579,-28.4222,-30.65651,-22.87355,1007.647
22.418550491,-42.33772,27.40822,2.273259,0.02802449,0.5533672,0.4381819,-29.25738,-25.23406,-26.31513,1007.647
22.451326370,32.33146,9.680418,-6.340292,0.06723341,1.060931,0.680893,-28.55991,-23.80778,-28.51455,1007.647
22.486623764,3.134695,-1.606284,12.53621,0.1196688,1.045615,0.5864448,-28.57198,-23.06702,-27.65579,1007.647
22.519399643,42.0223,-9.170148,14.36888,0.1164802,0.7144926,0.3895931,-28.57198,-23.06702,-27.65579,1007.647
22.552175999,45.12834,-11.35658,9.970475,0.1213117,0.9288188,0.3878145,-28.93533,-23.0602,-27.22021,1007.647
22.584951877,12.01797,-7.929201,4.289197,0.1598046,0.865047,0.3459409,-28.90017,-24.87135,-26.38349,1007.647
22.617728233,23.38607,-5.210938,-1.330993,0.1670513,0.8791814,0.3386819,-28.90017,-24.87135,-26.38349,1007.647
22.653025150,8.539202,-1.31082,-0.2924795,0.1647693,1.02842,0.3707137,-29.27767,-24.14075,-26.33232,1007.648
22.685801983,-13.63792,0.6392381,0.8071228,0.1452017,0.882045,0.3565398,-29.98346,-25.21534,-25.07102,1007.65
22.718577385,6.427096,-0.9562643,2.456526,0.1554363,0.86807,0.3656825,-29.98346,-25.21534,-25.07102,1007.65
22.751353741,11.39676,0.7574235,0.3794996,0.1844018,0.9419513,0.3794619,-29.62822,-24.86875,-26.32039,1007.65
22.786651134,-6.742509,-0.1880594,2.395437,0.1479741,0.9440154,0.369918,-29.6329,-24.48733,-25.08295,1007.648
22.819427490,0.7119844,-0.3062448,1.540191,0.1558946,0.8777509,0.356521,-29.6329,-24.48733,-25.08295,1007.649
22.852203369,-6.494026,0.9347016,-0.1092125,0.1494278,0.9434737,0.3602881,-29.27632,-24.12971,-25.52426,1007.649
22.884979725,-11.96065,1.466536,-0.4146576,0.1481417,0.8698568,0.3512563,-29.63363,-24.49328,-25.51806,1007.651
22.917755604,-1.462243,0.6983308,-2.002972,0.1232557,0.9298727,0.3969542,-29.63363,-24.49328,-25.51806,1007.651
22.953052998,-6.742509,-0.6608009,-0.4146576,0.1378852,0.9062203,0.4099519,-29.26955,-24.49415,-25.51853,1007.651
22.985828876,-5.748576,-0.4835229,-0.1092125,0.1632197,0.8658336,0.3849219,-29.25603,-25.22302,-25.50707,1007.651
23.018605232,-0.9031558,-0.06987408,-0.6590136,0.1660364,0.9052602,0.3781167,-29.25603,-25.22302,-25.50707,1007.651
23.051381111,5.060439,-2.019933,-0.9033697,0.1645373,0.9217601,0.3713563,-29.27767,-24.14075,-26.33232,1007.651
23.086678982,3.880144,-1.783562,-0.4146576,0.149434,0.9410452,0.3612545,-29.64174,-24.13988,-26.33185,1007.653
23.119454384,-5.065248,2.23474,-0.5979246,0.1621516,0.8991625,0.3463652,-29.64174,-24.13988,-26.33185,1007.653
23.152231216,-12.58186,6.253043,0.1962326,0.1572456,0.9281378,0.3867676,-29.64112,-24.13478,-25.9589,1007.653
23.185007572,-10.15915,6.548506,2.761971,0.1422819,0.8925295,0.3969654,-29.27704,-24.13566,-25.95937,1007.649
23.217782974,-0.7167935,3.712058,3.678307,0.1534462,0.8981207,0.4171477,-29.27704,-24.13566,-25.95937,1007.65
23.253080845,-1.089518,2.707482,3.739396,0.1855641,0.8686761,0.4166345,-28.92711,-23.41275,-26.34426,1007.65
23.285856724,7.855874,1.643814,3.067416,0.1379302,0.8912665,0.4306729,-29.64247,-24.14582,-26.76697,1007.65
23.318633079,5.246801,0.9347016,7.649093,0.1548918,0.9004843,0.4051066,-29.64247,-24.14582,-26.76697,1007.65
23.351408958,6.427096,-0.6017082,8.38216,0.1821889,0.8538662,0.3921154,-29.29119,-23.41188,-26.34378,1007.65
23.386706829,20.40427,-0.4244302,13.88017,0.2019869,0.9002931,0.3910357,-29.65464,-23.40591,-25.97036,1007.65
23.419482231,10.58919,8.912213,10.76463,0.189899,0.8661383,0.3266134,-29.65464,-23.40591,-25.97036,1007.65
23.452258587,-0.4061896,7.493989,8.993051,0.1164318,0.9339547,0.3618248,-30.01196,-23.76947,-25.96416,1007.65
23.485034466,12.14221,2.23474,14.24671,0.2356627,0.8239521,0.3684469,-29.29733,-23.04235,-25.97656,1007.648
23.517810821,20.15579,15.05785,8.137804,0.1677664,0.9933847,0.3717221,-29.29733,-23.04235,-25.97656,1007.65
23.553108215,-14.63185,5.839394,12.90275,0.1229171,0.8705417,0.4100412,-30.02548,-23.0406,-25.97562,1007.65
23.585884571,36.80416,4.302984,8.015626,0.2772418,0.88867,0.3100059,-30.38342,-23.40926,-26.34237,1007.65
23.618659973,-10.40763,8.971306,10.3981,0.2172164,1.027433,0.3758858,-29.6614,-23.04148,-25.97609,1007.648
23.651436806,11.39676,2.766575,6.854936,0.1658946,0.7489925,0.3186637,-29.6614,-23.04148,-25.97609,1007.648
23.686733723,33.07691,2.23474,8.321072,0.1797479,1.053149,0.3369455,-30.039,-22.31173,-25.98708,1007.648
23.719510078,-20.4712,2.766575,11.19226,0.2656084,0.886869,0.3451757,-30.40236,-22.30491,-25.5515,1007.648
23.752285957,7.54527,0.284682,5.694244,0.2569727,0.8419595,0.3409316,-30.40236,-22.30491,-25.5515,1007.648
23.785062313,22.70274,-3.379064,6.977113,0.1531177,1.019261,0.3283952,-29.66068,-23.03553,-25.54098,1007.65
23.817838192,-19.16666,-3.615435,7.893449,0.2150113,0.9202718,0.3067364,-30.40911,-21.94047,-25.55723,1007.65
23.853135586,-4.071315,1.171072,5.694244,0.2449373,0.8045882,0.3742304,-30.40911,-21.94047,-25.55723,1007.65
23.885911465,24.38,-10.58837,0.3794996,0.1644895,0.9341449,0.3313848,-30.40236,-22.30491,-25.5515,1007.651
23.918687820,-35.62867,0.8165162,-2.858218,0.2221312,0.98546,0.2873668,-30.40163,-22.29897,-25.11639,1007.653
23.951463699,-46.31344,-3.792713,-18.43592,0.298948,0.7552775,0.3621426,-30.40163,-22.29897,-25.11639,1007.651
23.986761570,-57.37094,-5.388216,-52.34032,0.31772,0.8260946,0.3677677,-30.76716,-22.30998,-25.98614,1007.651
24.019537449,-40.28773,-4.856382,-56.49437,0.2421448,1.139807,0.2567609,-30.05315,-21.58795,-26.37149,1007.651
24.052313805,-124.1508,0.6983308,-59.06011,0.3512928,1.214347,0.4089813,-30.05315,-21.58795,-26.37149,1007.653
24.085089207,-102.9055,-13.18845,-57.04417,0.2305889,0.9245571,0.4140366,-29.32041,-21.97196,-27.67204,1007.653
24.117866039,-94.08432,-9.347425,-62.17565,0.06278615,0.8288512,0.3702936,-28.61607,-20.90927,-29.80357,1007.653
24.153162956,-33.3302,7.671267,-63.15307,0.09380952,1.054564,0.3636222,-28.61607,-20.90927,-29.80357,1007.651
24.185939312,-92.09646,17.83521,-55.70022,-0.08428901,1.056239,0.6085738,-27.18222,-19.83728,-31.12797,1007.651
24.218715191,-75.75869,23.62629,-50.75201,-0.04267446,0.9487789,0.7939613,-24.64252,-19.49593,-32.38017,1007.651
24.251491547,-84.26923,30.36286,-34.92995,-0.1075396,1.252403,0.6901649,-24.64252,-19.49593,-32.38017,1007.652
24.286788464,-246.4666,46.1997,-15.68691,-0.06113448,0.4832917,0.483747,-23.56785,-18.73271,-34.13444,1007.652
24.319564819,-103.4024,21.73533,-18.61918,-0.1449926,0.2136209,0.4660606,-21.00418,-16.5931,-37.15581,1007.652
24.352340698,-14.197,13.34416,-23.38413,-0.122241,0.6213298,0.3065428,-21.00418,-16.5931,-37.15581,1007.652
24.385117054,11.58312,28.82645,-1.269904,-0.1933266,0.7177421,0.3888789,-19.28874,-11.15978,-39.35751,1007.652
24.417892933,42.51927,45.25421,16.07938,-0.2073347,0.6702774,0.3037827,-18.95451,-9.725831,-41.05919,1007.652
24.453190803,-33.95141,40.29043,-4.874156,-0.3897133,1.078916,0.7348995,-18.95451,-9.725831,-41.05919,1007.651
24.485966205,-31.15597,27.17185,20.72214,-0.1798093,0.8373619,0.8353702,-18.22032,-10.09796,-41.48951,1007.649
24.518743038,-19.66363,20.78984,28.23609,-0.1590011,1.080891,0.8816459,-16.73842,-11.57108,-42.33869,1007.649
24.551518440,-39.97712,11.80775,57.74209,-0.1354038,0.9184201,0.6719611,-16.73842,-11.57108,-42.33869,1007.647
24.586816311,-101.3524,2.471111,77.1684,-0.2958896,1.456183,0.8048685,-16.3968,-10.49648,-43.66169,1007.643
24.619592190,-176.208,-40.19381,89.20293,-0.04567147,0.9605768,0.6731289,-16.78792,-9.037856,-43.68414,1007.643
24.652368545,3.383178,-99.81831,83.09402,-0.2790568,0.5648044,0.07065129,-16.86873,-4.591985,-42.88363,1007.641
24.685144424,198.8151,-152.2335,156.9506,-0.5146906,1.529499,-0.5059525,-16.86873,-4.591985,-42.88363,1007.64
24.717920780,164.0896,-121.6826,330.81,-0.5745975,1.682205,-1.16695,-19.87248,0.5459833,-40.84669,1007.64
24.753217697,147.6897,27.40822,463.0677,-1.003552,0.7143412,-1.297811,-23.54118,-0.8561902,-37.40026,1007.636
24.785994053,485.0677,83.01444,506.9907,-1.040657,0.201748,-1.2156,-23.54118,-0.8561902,-37.40026,1007.631
24.818769932,760.5734,238.4873,331.1765,-1.056513,1.719505,-1.457087,-22.46544,3.126926,-39.14306,1007.627
24.851546288,403.9379,266.6745,73.62523,-0.8922654,1.570781,-1.960276,-16.13487,-4.547029,-39.46583,1007.622
24.884322166,-285.7269,341.4858,-203.7189,1.544877,0.1730707,-0.6734187,-16.13487,-4.547029,-39.46583,1007.622
24.919620037,-117.2554,935.7809,-312.5184,-3.559811,0.1298665,0.5816299,-8.784378,-24.32407,-36.17988,1007.615
24.952395439,-407.5458,522.9003,-601.8361,-7.59682,5.600686,0.5155689,7.987551,-22.14292,-33.68744,1007.608
24.985172272,93.52042,-415.5505,325.7396,10.673,-15.92621,-11.52936,7.987551,-22.14292,-33.68744,1007.606
25.017947674,1247.538,-173.566,304.1752,-1.91172,5.95022,-0.9497477,33.81389,-12.82377,-18.51194,1007.606
25.053245544,-22.70755,323.8762,76.86295,0.3245612,1.694588,0.7240942,22.21469,18.46992,-37.76537,1007.606
25.086021423,-1121.065,-19.15681,-53.68428,-0.5765451,-1.252994,-1.556276,22.21469,18.46992,-37.76537,1007.611
25.118797779,123.5869,89.04189,-37.12915,-1.937035,-5.25297,-1.938367,20.03994,-1.272405,-33.59691,1007.613
25.151573658,474.3829,-51.48051,19.80581,-0.1953724,1.817342,3.734135,21.36666,26.3057,-24.64494,1007.618
25.184350014,236.3982,-44.68485,-9.150388,-0.3454044,-0.4153928,0.6720627,21.36666,26.3057,-24.64494,1007.621
25.219646931,72.52361,-27.60706,-16.2978,-0.07546764,0.6383587,0.7381877,20.42247,17.4455,-33.02177,1007.625
25.252423286,62.39791,7.73036,7.282558,-0.1886892,0.7593597,1.185459,20.1235,13.71155,-35.1386,1007.625
25.285199165,-36.49836,-7.042811,7.099291,-0.2133541,0.0682122,0.9997907,20.1235,13.71155,-35.1386,1007.63
25.317975521,-30.09992,2.116555,3.922663,-0.2213748,-0.03225444,0.9898525,19.45412,10.41638,-36.32926,1007.635
25.353272438,-12.51974,-5.03366,6.427312,-0.1898525,-0.01897197,0.9709846,19.79999,11.5258,-35.10375,1007.635
25.386049270,2.699849,-8.638313,9.481763,-0.183383,-0.1023366,0.8815618,19.79999,11.5258,-35.10375,1007.64
25.418824673,25.68454,-7.929201,8.626516,-0.1684201,-0.03895419,1.013324,20.16272,11.51389,-35.91228,1007.64
25.451601505,35.06477,-3.674528,10.15374,-0.1725812,0.08044538,1.029039,20.1492,12.24276,-35.92374,1007.645
25.484376907,18.78913,0.8756089,11.61988,-0.1732323,0.1435171,0.9947685,20.1492,12.24276,-35.92374,1007.648
25.519674778,15.55885,0.04831128,12.65839,-0.2027827,0.107983,0.9631222,19.08328,10.78168,-36.33452,1007.654
25.552450657,14.75128,-11.47476,9.359585,-0.1484778,0.1344818,0.92637,19.09005,10.41725,-36.32879,1007.655
25.585227013,15.06188,-13.54301,5.32771,-0.1610682,0.1359264,1.009192,19.10357,9.688374,-36.31733,1007.655
25.618002891,12.08009,-14.07484,4.533553,-0.1086818,0.1612659,1.018175,19.10357,9.688374,-36.31733,1007.659
25.653300285,-6.183422,-3.674528,2.517615,-0.1159559,0.1552905,1.008093,19.11637,8.953556,-36.74099,1007.664
25.686076164,-8.730374,2.116555,0.9903898,-0.1434877,0.09116533,0.9947768,19.12989,8.224682,-36.72953,1007.668
25.718852520,4.874076,-0.1880594,0.3794996,-0.1566103,0.09035798,0.9644833,19.12989,8.224682,-36.72953,1007.667
25.751628399,3.942265,-0.8380789,-0.2924795,-0.1489323,0.1354703,0.9990552,18.03162,8.597681,-36.29873,1007.667
25.784404755,-4.381919,-0.06987408,-0.6590136,-0.1514413,0.1680239,0.9908289,18.7448,9.312923,-37.18136,1007.67
25.819701672,-8.047046,2.412019,-0.2313905,-0.1449463,0.09213392,0.9957415,18.7448,9.312923,-37.18136,1007.674
25.852478504,0.3392597,0.46196,0.6849447,-0.1541912,0.09781756,0.9837208,18.77184,7.855175,-37.15844,1007.676
25.885253906,5.060439,-0.2471521,1.662369,-0.149331,0.09843551,0.9967051,19.11637,8.953556,-36.74099,1007.677
25.918030262,5.12256,-1.07445,1.540191,-0.153795,0.1353193,0.983182,19.11637,8.953556,-36.74099,1007.679
25.953327656,-0.7167935,-0.8971716,0.6238557,-0.1504247,0.1485376,0.9889305,18.75687,8.572161,-38.04012,1007.679
25.986104012,-0.1577065,-0.0107814,-0.2313905,-0.1455027,0.1198134,0.9846298,19.13519,7.848358,-37.59402,1007.681
26.018879890,-1.462243,0.107404,-1.086637,-0.1460345,0.1403013,0.9898952,19.13519,7.848358,-37.59402,1007.683
26.051656246,-3.698591,0.5801454,-1.392082,-0.1498933,0.1300647,0.9932893,19.12916,8.218739,-37.16464,1007.684
26.084432125,-5.624335,0.46196,-1.147726,-0.1454939,0.1174251,0.9913725,18.3957,8.596807,-36.2992,1007.686
26.119729519,-3.574349,1.11198,-0.5979246,-0.1493296,0.09542629,0.9841943,18.3957,8.596807,-36.2992,1007.686
26.152505398,-0.5925519,-0.3653375,-0.2313905,-0.1430592,0.1114906,0.9754907,18.401,8.220484,-37.1637,1007.684
26.185281754,1.084709,-0.0107814,0.1351436,-0.1479162,0.1159773,0.9961939,19.1224,8.583176,-37.17037,1007.685
26.218057632,0.09077663,-0.0107814,0.3184106,-0.1411542,0.1296138,0.9879742,19.1224,8.583176,-37.17037,1007.685
26.253354549,-1.275881,0.107404,0.1962326,-0.1430429,0.1077048,0.9913813,19.47826,8.934853,-38.04679,1007.685
26.286130905,-0.7167935,-0.2471521,0.07405458,-0.1484208,0.1222409,0.9870399,18.75832,8.584049,-37.1699,1007.685
26.318907738,-0.7789143,-0.2471521,-0.04812346,-0.153284,0.1261234,0.9908964,18.75832,8.584049,-37.1699,1007.684
26.351683140,-2.891021,0.107404,-0.3535686,-0.1401488,0.1170262,0.9976181,18.38145,9.319738,-36.74577,1007.685
26.384459495,-3.139504,-0.3062448,0.01296555,-0.1576135,0.1070226,0.9808269,18.73804,9.677361,-37.18709,1007.685
26.419756889,1.457434,-0.6017082,0.01296555,-0.1449608,0.09796819,0.9942887,18.73804,9.677361,-37.18709,1007.685
26.452532291,0.1528974,-0.06987408,0.01296555,-0.1542597,0.1285705,0.9937833,18.75229,8.95443,-36.74052,1007.685
26.485309124,-1.524364,0.5210528,-0.04812346,-0.1493559,0.108653,0.9952456,18.75229,8.95443,-36.74052,1007.685
26.518085480,-4.009195,0.3437747,-0.6590136,-0.1581382,0.1245917,0.986578,18.75229,8.95443,-36.74052,1007.685
26.553382397,-6.494026,1.466536,-0.7201027,-0.1498581,0.113946,0.9865744,18.7448,9.312923,-37.18136,1007.684
26.586158276,-5.562214,1.11198,-0.7201027,-0.1454482,0.09894489,0.995251,18.75229,8.95443,-36.74052,1007.685
26.618934631,-6.680388,1.99837,-0.1092125,-0.1542075,0.1086761,1.004403,19.1096,9.317993,-36.74672,1007.685
26.651710510,-4.754644,3.062038,1.662369,-0.1575235,0.07256762,0.998689,19.1096,9.317993,-36.74672,1007.685
26.684486866,-8.481891,11.68957,6.305134,-0.2105407,0.1202162,1.05073,18.01665,9.314669,-37.18042,1007.685
26.719783783,-16.49547,11.27592,12.84166,-0.249578,-0.01442927,0.9956689,18.73949,9.689247,-36.31686,1007.683
26.752560139,-15.43942,18.13067,10.03156,-0.2236384,0.1137387,1.045476,18.73949,9.689247,-36.31686,1007.687
26.785336018,-46.49981,28.64917,8.870872,-0.2977047,0.04088178,1.163214,19.09753,10.05876,-35.88795,1007.687
26.818112373,-30.41052,33.08112,15.34631,-0.3074747,0.03078542,0.983704,20.18977,10.05614,-35.88937,1007.687
26.853409767,-0.841035,39.99496,26.89213,-0.3076296,-0.09184037,1.069572,20.18977,10.05614,-35.88937,1007.687
26.886186123,16.05582,51.51804,31.5349,-0.3381648,0.04766292,0.8561906,21.25703,11.52825,-34.67051,1007.687
26.918961525,43.5132,78.75977,50.22814,-0.3570847,0.05939624,0.9553783,21.63608,10.81039,-33.7893,1007.689
26.951738358,44.01017,85.67361,70.4486,-0.573972,0.2010263,0.9917814,21.63608,10.81039,-33.7893,1007.687
26.984513760,44.44501,94.71479,80.40611,-0.5879304,0.09826621,0.7291458,24.2738,9.358278,-32.89953,1007.687
27.019811630,63.57821,115.8109,96.16708,-0.6507026,0.3249578,0.5556628,27.23728,6.829107,-30.74978,1007.687
27.052587509,42.95411,137.8524,105.697,-0.6295701,0.3977697,0.4250539,27.23728,6.829107,-30.74978,1007.687
27.085363865,8.41496,156.9985,114.616,-0.7373224,0.3829072,0.4484373,30.58094,3.521339,-27.71786,1007.687
27.118139744,-4.692523,165.5669,118.9533,-0.7828889,0.3822171,0.6141348,33.58113,-0.8062396,-23.79901,1007.685
27.153437138,-138.3764,145.9482,112.1724,-0.6661599,0.519546,0.681523,33.58113,-0.8062396,-23.79901,1007.679
27.186213017,-150.6142,151.8574,112.1113,-0.5063188,0.225773,0.4067291,37.35871,-4.389853,-18.64947,1007.679
27.218989372,-100.6691,119.6519,138.3796,-0.9075316,0.412805,1.10056,39.23286,-6.892629,-14.75786,1007.679
27.251765251,-158.6899,99.85586,141.3119,-0.5283768,0.1476076,0.6090711,39.23286,-6.892629,-14.75786,1007.684
27.284541607,-153.9688,112.8562,139.9068,-0.5505575,0.09226845,0.6621569,40.37239,-9.096756,-11.36736,1007.678
27.319838524,-157.1369,90.04647,139.4181,-0.6506581,-0.211745,1.048423,40.45039,-13.07584,-9.12877,1007.682
27.352615356,-114.5221,74.44601,129.3384,-0.6519343,-0.3220866,0.8709702,40.45039,-13.07584,-9.12877,1007.682
27.385390758,-53.58157,70.90044,83.94927,-0.7710742,-0.1975196,1.137739,39.43461,-17.06505,-7.821154,1007.684
27.418167591,-35.62867,49.98162,65.31712,-0.714503,-1.075142,0.3028026,38.41933,-21.12009,-6.885536,1007.679
27.453464508,188.8137,55.35906,53.95457,-0.750108,1.336442,0.8008313,38.41933,-21.12009,-6.885536,1007.679
27.486240864,-22.89391,72.73232,46.5628,-0.9688646,0.3437364,0.4167942,37.01461,-23.63284,-4.295034,1007.679
27.519016743,32.26934,47.97247,43.69161,-0.7961169,0.3741976,0.3171781,35.91474,-26.13444,-0.8347023,1007.681
27.551793098,30.77844,41.76774,37.82707,-0.7527423,0.7397025,0.4373461,35.91474,-26.13444,-0.8347023,1007.681
27.584568977,31.8345,38.63583,30.06876,-0.7543154,0.5722009,0.3750253,34.85101,-27.57768,0.05985117,1007.681
27.619866371,18.66489,29.00373,17.24007,-0.7972327,0.6456917,0.3490228,33.41996,-28.62674,3.062543,1007.683
27.652642250,8.663444,18.01249,5.083354,-0.8244489,0.6536706,0.3384854,32.70054,-28.9733,4.250231,1007.681
27.685418606,7.172545,8.734935,-0.7201027,-0.7878805,0.5957187,0.3654422,32.70054,-28.9733,4.250231,1007.681
27.718194485,9.967979,3.948428,0.9903898,-0.7741439,0.5444919,0.4064026,32.70876,-29.32585,5.126184,1007.681
27.750970840,7.917994,3.77115,4.289197,-0.7478324,0.486018,0.3005287,32.72301,-30.04878,5.572756,1007.683
27.786267757,13.3225,2.648389,5.9386,-0.7703735,0.578601,0.334138,32.72301,-30.04878,5.572756,1007.683
27.819044590,0.4013805,0.8165162,6.366223,-0.7320022,0.5715219,0.3205795,32.71697,-29.6784,6.002137,1007.683
27.851819992,12.01797,3.712058,-0.8422807,-0.7582883,0.5985665,0.319157,32.00234,-30.40553,6.014537,1007.681
27.884596348,0.7119844,14.05328,-11.71613,-0.7827891,0.6989426,0.355166,32.00234,-30.40553,6.014537,1007.681
27.919893742,6.116492,17.06701,-13.79315,-0.8108371,0.6515062,0.3610803,32.36787,-30.39451,6.884291,1007.683
27.952670097,12.20433,15.53059,-6.890093,-0.7187081,0.4835815,0.2653239,32.71842,-29.66651,6.872361,1007.683
27.985445976,-14.01064,19.5489,-6.340292,-0.774363,0.4188366,0.336795,32.71842,-29.66651,6.872361,1007.683
28.018222332,11.14827,17.36247,-6.279203,-0.8858193,0.7421405,0.3875965,33.07637,-29.29785,7.239114,1007.681
28.050998211,3.383178,20.08073,-6.340292,-0.755613,0.4928451,0.3111269,33.07033,-28.92747,7.668495,1007.681
28.086295605,6.7377,27.70369,-8.111874,-0.8029888,0.6068432,0.3024029,33.07033,-28.92747,7.668495,1007.683
28.151847839,12.01797,27.23095,-19.41334,-0.7972302,0.6482574,0.367792,32.69636,-28.16801,9.833064,1007.685
28.184623718,11.27252,31.89927,-19.77987,-0.8236691,0.4986526,0.177461,32.69636,-28.16801,9.833064,1007.686
28.219920635,10.71343,18.60341,-27.59927,-0.8504966,0.5566438,0.214502,33.41838,-27.80022,10.19935,1007.686
28.252696991,-4.319798,21.38077,-31.02025,-0.9450954,0.5304431,0.2725293,33.77039,-27.06033,11.05764,1007.686
28.285472870,-1.648605,18.24886,-31.20352,-0.7560028,0.4150287,0.1172563,33.77039,-27.06033,11.05764,1007.686
28.318249225,0.2150182,12.98961,-37.86222,-0.8816497,0.5991307,0.2684244,34.49396,-26.67981,12.35631,1007.686
28.351025104,0.6498636,17.59884,-37.74005,-1.080236,0.5930939,0.2693859,34.84451,-25.95181,12.34438,1007.688
28.386322975,24.19364,5.898487,-39.81707,-0.8527986,0.6979907,0.1623074,34.84451,-25.95181,12.34438,1007.69
28.419098377,8.849806,2.471111,-49.1026,-0.9161334,0.3704066,0.1263679,35.90429,-24.1212,13.12238,1007.69
28.451875210,-31.03173,2.293833,-49.59132,-0.9622077,0.3693642,0.2420055,36.29462,-22.30513,12.72023,1007.692
28.484650612,19.22398,-2.256303,-58.38813,-0.8416401,0.4736708,0.03842769,36.29462,-22.30513,12.72023,1007.692
28.519948482,-15.06669,-4.560918,-55.76131,-1.029346,0.2056421,0.1716513,37.00249,-21.21356,12.7021,1007.692
28.552724361,0.6498636,-11.53385,-50.38547,-1.004894,0.3156337,0.06071438,38.42561,-19.38977,13.04452,1007.69
28.585500717,-28.98175,-22.70237,-52.03488,-0.9586623,0.07720585,0.1071748,39.86052,-18.23921,13.0245,1007.69
28.618276596,-6.928871,-31.3299,-43.11588,-1.013566,0.308048,0.1709782,39.86052,-18.23921,13.0245,1007.69
28.651052952,-5.127368,-23.70695,-36.94589,-0.9271609,0.114408,0.1662515,40.18195,-16.07045,11.74647,1007.687
28.686349869,-39.97712,-32.74813,-33.40273,-0.9231397,0.09637894,0.3703665,40.88087,-14.63228,10.41728,1007.692
28.719126224,4.501352,-27.54797,-10.00563,-0.9389635,0.1604694,0.08052769,40.88087,-14.63228,10.41728,1007.686
28.751902103,-28.79538,-34.58,-6.218114,-0.9541745,0.068985,0.3204198,41.60092,-14.28062,9.602544,1007.686
28.784678459,-26.37267,-35.23002,8.137804,-0.9649653,0.1076102,0.2847664,41.94784,-13.58234,7.415055,1007.686
28.819975853,-42.27559,-35.34821,10.21483,-1.021307,0.1265997,0.3517807,41.94784,-13.58234,7.415055,1007.684
28.852752209,-14.81821,-44.21211,20.59996,-0.9328919,0.1087899,0.3458215,41.95253,-13.96376,6.177609,1007.684
28.885527611,-40.78469,-40.31199,23.28788,-0.9995978,0.1927583,0.3843621,41.95503,-14.36301,3.634828,1007.684
28.918304443,-5.624335,-48.88043,31.59599,-0.8717332,0.09984748,0.2470108,41.95503,-14.36301,3.634828,1007.684
28.951079845,-43.89073,-55.08516,31.65708,-1.034006,0.1920039,0.5274093,41.61665,-15.83092,2.850153,1007.684
28.986377716,-22.39694,-58.63072,46.013,-0.590871,0.05689438,0.4562831,41.62519,-16.60056,-0.1220098,1007.686
29.019153595,-32.64687,-60.81715,42.22548,-1.036075,0.4263953,0.4076832,41.62519,-16.60056,-0.1220098,1007.687
29.051929951,-46.93465,-76.00397,50.59467,-0.8604113,0.09730693,0.5685374,41.27849,-17.71677,-1.844796,1007.689
29.084705830,-27.86357,-72.04475,28.84698,-0.9831166,0.6374491,0.5078441,40.56491,-18.85504,-5.245401,1007.689
29.120002747,-64.51483,-81.14503,31.10728,-0.7189786,0.07227373,0.7208313,40.56491,-18.85504,-5.245401,1007.689
29.152779102,-90.7298,-74.52665,33.61193,-0.778563,0.4457197,0.8460452,39.50804,-21.15158,-9.000345,1007.687
29.185554981,-147.0112,-80.31773,47.47913,-0.8659939,0.4743478,0.9357427,38.41685,-21.5601,-12.41194,1007.687
