Time (s),Gyroscope X (deg/s),Gyroscope Y (deg/s),Gyroscope Z (deg/s),Accelerometer X (g),Accelerometer Y (g),Accelerometer Z (g),Magnetometer X (uT),Magnetometer Y (uT),Magnetometer Z (uT),Barometer (hPa)
0.000000000,0.5476506,-0.5086991,-0.2914429,0.06703503,-0.3098596,0.9506708,-17.1521,25.62797,-38.36914,1008.387
0.034647942,0.2395206,-0.684095,-0.04599612,0.06945229,-0.3065073,0.9463379,-17.53556,26.00879,-38.81535,1008.385
0.066816330,0.6071262,-0.3863469,-0.04605846,0.08260898,-0.3109423,0.9461786,-17.52427,25.63902,-37.92093,1008.389
0.101463795,-0.2549855,0.02834459,0.01535402,0.08463759,-0.3031452,0.9515259,-17.52427,25.63902,-37.92093,1008.389
0.133635998,-0.9273292,-0.03078877,-0.04574575,0.07722931,-0.3109263,0.9447829,-17.1521,25.62797,-38.36914,1008.389
0.168283463,0.7332025,0.6192302,0.07681772,0.07527167,-0.3162411,0.9466854,-17.53004,25.63334,-38.36721,1008.389
0.200455666,1.035708,0.5577248,-0.2902179,0.06607914,-0.3040336,0.9502457,-17.53004,25.63334,-38.36721,1008.389
0.235103130,-0.01049505,0.2009834,0.1388923,0.0665547,-0.3001788,0.9468991,-17.52401,26.02016,-37.92279,1008.391
0.267271519,-0.1330627,0.08177516,0.07686607,0.06996687,-0.3108377,0.9515994,-17.1521,25.62797,-38.36914,1008.391
0.301919460,0.7251189,-0.03712048,-0.1067555,0.06806371,-0.3088494,0.9564535,-17.1521,25.62797,-38.36914,1008.395
0.334092140,-0.5652154,-0.1546895,0.1388663,0.07919918,-0.3065676,0.9448004,-17.52979,26.01447,-38.36907,1008.395
0.368739128,-0.1328572,-0.03584508,0.1995245,0.07776415,-0.3142712,0.9519803,-17.53004,25.63334,-38.36721,1008.395
0.400911808,0.4194401,-0.03610753,-0.1071085,0.07825426,-0.3166895,0.9534017,-17.53004,25.63334,-38.36721,1008.395
0.435558796,0.04884351,0.08188254,-0.1062927,0.07094263,-0.3079413,0.9501681,-17.15763,26.00342,-38.81728,1008.395
0.467727661,-0.6254132,0.08171578,0.01661836,0.06756532,-0.3035371,0.952646,-17.15236,25.24684,-38.36729,1008.393
0.499900341,-0.2548406,0.140512,-0.04490927,0.06509941,-0.3088678,0.952143,-17.15236,25.24684,-38.36729,1008.393
0.534547806,-0.6215717,-0.03695424,-0.04507744,0.06848058,-0.3094,0.948251,-17.9022,25.64439,-37.91899,1008.395
0.566720486,-0.3125027,-0.2140244,0.01623946,0.07136382,-0.3133238,0.9448178,-17.90824,25.25757,-38.36342,1008.394
0.601367951,0.5469097,0.3188557,0.1382423,0.07189661,-0.3161869,0.9515373,-17.90773,26.01984,-38.36714,1008.392
0.633540154,1.096147,0.3180941,0.01522021,0.07138413,-0.3133053,0.9472278,-17.90773,26.01984,-38.36714,1008.392
0.668183327,0.5389248,0.139867,0.07644054,0.07384784,-0.3045916,0.9458306,-17.53004,25.63334,-38.36721,1008.392
0.700356007,-0.1368481,0.08063164,-0.04638745,0.0748398,-0.3007133,0.9458534,-17.52979,26.01447,-38.36907,1008.39
0.735003472,-0.4423013,0.1393516,0.07592916,0.0714066,-0.3157028,0.9510638,-17.52979,26.01447,-38.36907,1008.388
0.767175674,-0.3791641,-0.09743655,0.07581171,0.07385239,-0.3142588,0.9510528,-17.90798,25.63871,-38.36528,1008.391
0.801823616,0.4186671,-0.03854797,0.01463376,0.06599422,-0.3118479,0.9439161,-17.9022,25.64439,-37.91899,1008.391
0.833996296,0.232188,0.1387744,0.07572649,0.07191423,-0.3031145,0.9473069,-17.9022,25.64439,-37.91899,1008.391
0.868639469,-0.2583671,0.07931429,0.07531703,0.07236606,-0.3118541,0.9472306,-17.90798,25.63871,-38.36528,1008.391
0.900812149,0.2325683,0.07884233,-0.231002,0.0714366,-0.3064876,0.9501755,-17.51823,26.02584,-37.47651,1008.391
0.935459137,-0.5651779,-0.3946495,-0.04633842,0.06503618,-0.3036061,0.942065,-17.51823,26.02584,-37.47651,1008.389
0.967631817,-0.4398593,-0.3934676,0.1988639,0.07287227,-0.3113563,0.949158,-17.52452,25.25789,-37.91907,1008.387
0.999804497,-0.009749047,-0.03731066,-0.2301677,0.07289244,-0.3084366,0.9501458,-17.52979,26.01447,-38.36907,1008.387
1.034451962,-0.5614233,-0.0366646,0.07683545,0.07143474,-0.3098743,0.9515936,-17.52979,26.01447,-38.36907,1008.387
1.066620827,-0.4366206,0.02281796,-0.290662,0.07529158,-0.3084858,0.9453031,-17.52427,25.63902,-37.92093,1008.387
1.101267815,-0.3736397,0.08138314,-0.1679077,0.07188603,-0.3079758,0.9463031,-17.53004,25.63334,-38.36721,1008.387
1.133440495,-0.3719242,0.1989574,0.0771754,0.07047503,-0.3088875,0.9530567,-17.53004,25.63334,-38.36721,1008.385
1.168087482,-0.1250326,0.1983252,-0.1070629,0.06946472,-0.3113317,0.9501539,-17.15236,25.24684,-38.36729,1008.389
1.200260162,0.6113504,0.07953642,0.1374836,0.06798059,-0.3123099,0.9482317,-17.1521,25.62797,-38.36914,1008.388
1.234907627,0.4855558,0.07885355,0.1370917,0.07241241,-0.3045583,0.9492183,-17.1521,25.62797,-38.36914,1008.388
1.267076016,-0.252201,0.01940297,-0.04677093,0.06509525,-0.3069373,0.9507129,-17.15236,25.24684,-38.36729,1008.386
1.301723957,-0.6798156,-0.3939377,0.01460596,0.07381779,-0.3128396,0.946245,-17.91376,25.63302,-38.81155,1008.386
1.333896160,0.4262551,0.02092347,-0.1690839,0.08072819,-0.3094172,0.9539206,-17.91376,25.63302,-38.81155,1008.384
1.368543625,0.6082705,0.02033027,-0.04622882,0.0734312,-0.3088764,0.9564032,-17.90773,26.01984,-38.36714,1008.384
1.400716305,0.0537462,0.07882003,-0.1073465,0.07139602,-0.3074917,0.9458296,-17.5303,25.25221,-38.36535,1008.384
1.435363293,-0.3758278,0.07856662,0.07638959,0.06462756,-0.3059493,0.9526535,-17.5303,25.25221,-38.36535,1008.384
1.467531681,-1.354522,-0.2760097,0.3817251,0.06655118,-0.3108205,0.9516314,-17.15262,24.86571,-38.36543,1008.388
1.499704361,-0.6755209,-0.1570716,0.1967116,0.0729129,-0.3113194,0.9539778,-17.5303,25.25221,-38.36535,1008.386
1.534352303,0.06410734,0.08039477,0.07321684,0.06694193,-0.3167142,0.9429032,-17.5303,25.25221,-38.36535,1008.385
1.566524983,0.2472121,0.02125341,0.3177395,0.07341681,-0.3055045,0.9530572,-17.90798,25.63871,-38.36528,1008.385
1.601171971,-0.3050893,-0.1560605,0.438669,0.07240047,-0.3094049,0.9501424,-17.53004,25.63334,-38.36721,1008.386
1.633344650,-1.775052,-0.2738683,0.5586087,0.07185163,-0.310425,0.9433912,-17.53004,25.63334,-38.36721,1008.386
1.667987824,-0.4175662,0.08186824,0.3113745,0.0742634,-0.319167,0.9442606,-17.9022,25.64439,-37.91899,1008.386
1.700160504,0.5047633,0.08192439,-0.05740494,0.07089437,-0.3176566,0.9491245,-17.9135,26.01416,-38.81342,1008.385
1.734808445,0.133697,0.08171301,0.1879563,0.07096504,-0.3093717,0.9535301,-17.90773,26.01984,-38.36714,1008.387
1.766980648,2.775141,0.9677809,0.4328959,0.09767129,-0.3255841,0.9454352,-17.90773,26.01984,-38.36714,1008.387
1.801628113,-4.170544,4.871209,0.6771336,0.0892396,-0.2865346,0.9684898,-17.51849,25.64471,-37.47465,1008.387
1.833800793,-19.28242,5.640614,1.228717,0.07171873,-0.301879,0.9815409,-17.90773,26.01984,-38.36714,1008.389
1.868443966,-28.43556,4.456913,6.31554,0.05669956,-0.2335965,1.07768,-17.90773,26.01984,-38.36714,1008.387
1.900616169,-71.19112,-6.788239,5.70267,0.0704046,-0.2839928,1.223182,-17.52375,26.40129,-37.92465,1008.387
1.935264111,-128.0143,-10.57608,12.6281,0.07000577,-0.07225551,1.363747,-17.12905,26.7933,-36.65336,1008.387
1.967436790,-266.0484,-37.97874,2.454457,-0.07462376,-0.2281942,1.12715,-17.12905,26.7933,-36.65336,1008.389
2.002083778,-366.1185,-70.88561,-58.46484,-0.02583069,-1.234747,0.8581166,-17.43585,29.53482,-31.30908,1008.387
2.034256458,-325.513,-73.72649,-143.6538,0.1741191,-1.975903,0.7363888,-18.033,36.1767,-19.41478,1008.387
2.066424847,-333.6219,-64.31608,-227.188,0.211393,-2.11165,0.591768,-18.033,36.1767,-19.41478,1008.387
2.101072311,-242.7048,-22.82738,-277.0757,0.1965737,-1.815722,0.3109303,-21.63865,40.65448,-6.219064,1008.386
2.133244991,-133.7887,8.067199,-284.614,0.2283518,-1.585982,-0.02583588,-29.06274,37.46646,4.419586,1008.386
2.167892456,15.54862,29.66973,-273.1533,0.4504236,-0.8380798,-0.268044,-29.06274,37.46646,4.419586,1008.388
2.200065136,65.61441,62.5766,-257.8928,0.5983037,-0.5238825,-0.5926652,-35.44244,27.6359,8.517675,1008.384
2.234712601,88.2208,75.53811,-227.0042,0.4025138,-0.2288481,-0.2244964,-40.7797,19.28632,5.461723,1008.383
2.266880989,44.29805,82.93624,-211.3147,0.5422066,-0.08152892,-0.1648175,-40.7797,19.28632,5.461723,1008.381
2.301527977,-5.767735,98.32434,-191.7641,0.571215,0.1805074,-0.091592,-44.2267,10.52959,2.461716,1008.381
2.333700657,-10.31358,107.9715,-153.8274,0.5185441,0.2958508,-0.08532963,-45.79509,3.639495,-1.513581,1008.377
2.368348599,-14.42942,135.7293,-107.4332,0.4989487,0.5634047,-0.3981687,-45.79509,3.639495,-1.513581,1008.38
2.400521278,-79.54566,198.8205,-82.85709,0.4973397,0.4279183,-0.4079466,-45.47929,-4.108102,-5.877041,1008.378
2.435168266,-109.2165,256.5851,-56.07465,0.4835676,0.3201264,-0.4848627,-44.80682,-9.152349,-12.04089,1008.378
2.467337132,-273.42,191.8959,33.77213,-4.512019,-0.09136678,8.210249,-44.80682,-9.152349,-12.04089,1008.374
2.501984120,340.5155,-250.5713,-147.331,3.017668,-0.268117,3.798127,-42.2993,-10.84928,-22.63021,1008.374
2.534156799,-82.2486,40.14548,-81.57005,-0.6700791,0.4085166,0.982269,-38.19506,-5.247365,-27.07845,1008.371
2.568804741,-51.28767,-9.688305,-29.23093,0.9570732,0.378093,1.421843,-38.19506,-5.247365,-27.07845,1008.369
2.600976944,45.21951,-21.52531,4.722077,0.6156631,-0.04163655,0.776171,-37.43277,-12.8694,-26.15254,1008.373
2.633149624,2.893954,-4.894319,22.00502,0.8919622,0.1158002,0.536301,-37.05637,-15.16157,-26.14331,1008.37
2.667792797,48.10674,-9.569935,24.4565,0.703352,-0.001813596,1.087535,-37.05637,-15.16157,-26.14331,1008.37
2.699965477,33.36344,-29.87039,24.15006,0.836749,0.03610956,0.741009,-37.03275,-14.37656,-24.36191,1008.368
2.734612465,72.00317,-26.31929,44.00706,0.6834755,0.09776094,0.7063155,-37.78285,-14.36014,-23.91176,1008.366
2.766785145,150.2041,-22.41308,76.8569,0.4758956,0.09520294,0.7443813,-37.78285,-14.36014,-23.91176,1008.368
2.801433086,223.3677,-17.08643,109.8293,0.5507559,0.2207767,0.6488001,-38.52222,-14.33316,-22.6328,1008.367
2.833605766,228.3436,-6.551499,128.3993,0.3644968,0.1648195,0.6365808,-39.62137,-14.28295,-19.94932,1008.367
2.868248939,222.8763,0.8466278,138.8181,0.3597427,0.254902,0.6079658,-41.47119,-13.83599,-16.8813,1008.367
2.900421143,226.6235,11.44074,151.3206,0.4026188,0.353759,0.5519868,-41.47119,-13.83599,-16.8813,1008.365
2.935068607,151.5556,31.32691,157.3268,0.5366197,0.3872462,0.5119705,-42.94807,-12.25669,-14.26708,1008.363
2.967241287,61.92858,41.80266,161.8007,0.4639222,0.2822392,0.5064812,-43.69637,-9.572329,-13.82996,1008.366
3.001888752,30.72193,40.97407,172.6485,0.3807138,0.1194243,0.6138833,-43.69637,-9.572329,-13.82996,1008.364
3.034061432,80.23485,43.51902,192.8732,0.4443215,-0.1258323,0.6363317,-44.84996,-4.624228,-15.63347,1008.364
3.068704605,112.9773,86.84245,202.2502,0.52442,-0.003750928,0.468855,-44.49514,1.44174,-17.76907,1008.364
3.100877285,1.542485,99.92234,221.1879,0.4404843,0.1899436,0.6076409,-44.49514,1.44174,-17.76907,1008.366
3.133049965,-32.5514,118.1513,212.7302,0.1059263,-0.3714148,0.6721687,-41.88059,6.769443,-20.48665,1008.364
3.167696953,53.0826,136.6171,202.5566,0.3798006,-0.7735536,0.8793417,-38.88686,13.93392,-23.21516,1008.364
3.199869633,129.4406,146.9744,176.7548,0.1877097,-0.6874399,1.033674,-38.88686,13.93392,-23.21516,1008.364
3.234517574,92.88951,142.1805,134.8957,0.1203055,-0.5471501,1.307307,-32.5318,20.24883,-29.01756,1008.363
3.301332951,36.25067,120.8738,58.83852,-0.01014181,-0.2463456,1.14375,-26.17405,21.99583,-34.35135,1008.363
3.333505631,-50.91909,102.3489,40.45241,-0.01660223,-0.2052419,0.9937656,-20.17241,21.86527,-37.88879,1008.368
3.368153095,-57.06213,90.92622,30.40134,0.06727225,-0.484621,0.9472998,-14.46999,20.61202,-40.14394,1008.368
3.400326252,10.2656,81.63417,28.19501,-0.06492781,-0.5120063,1.024464,-14.46999,20.61202,-40.14394,1008.368
3.434973240,-77.64132,-6.137204,-11.02869,-0.6387427,-0.2660912,3.529566,-10.31689,22.83408,-40.62265,1008.37
3.467142105,55.60125,-11.81896,-6.554735,0.2378996,-0.06763632,1.189663,-7.688392,23.16059,-41.97689,1008.37
3.501789093,0.4367371,-7.320904,7.909002,-0.3488391,-0.358142,0.9045073,-7.688392,23.16059,-41.97689,1008.37
3.533961773,43.49945,1.675218,5.212373,-0.2472482,-0.1366079,0.8075398,-7.681842,24.30967,-41.53619,1008.37
3.568609715,-27.75982,-0.8105526,0.9835687,-0.1282119,0.04886889,0.8296481,-7.681842,24.30967,-41.53619,1008.37
3.600781918,-54.72778,0.8466278,-3.183949,-0.06593252,-0.3210926,1.044845,-7.681842,24.30967,-41.53619,1008.372
3.635429382,-32.12138,-2.171808,-4.777411,-0.07754489,-0.2928596,0.9849359,-7.682613,23.16627,-41.53062,1008.376
3.667597771,-24.13543,3.924248,-4.961273,-0.1226066,-0.2579335,0.8902085,-7.297868,24.69112,-41.09371,1008.376
3.699770451,-16.21091,1.734403,-6.370874,-0.1210868,-0.2569976,1.01263,-7.297868,24.69112,-41.09371,1008.376
3.734417439,-30.52419,1.438478,-3.735532,-0.1262694,-0.2407698,0.9106281,-8.041418,25.85663,-40.20287,1008.376
3.766590118,-37.83441,-0.04114746,-5.63543,-0.09807207,-0.3841062,0.9091834,-7.662964,26.61353,-40.20852,1008.378
3.801238060,-22.41538,0.5507027,-5.145133,-0.09293211,-0.36072,0.98693,-8.400995,27.40358,-38.86953,1008.379
3.833410740,-16.33377,2.562993,-6.554735,-0.1007492,-0.3988542,0.9462007,-8.400995,27.40358,-38.86953,1008.379
3.868053913,-12.27936,2.326253,-7.228892,-0.1246857,-0.311232,0.9008745,-7.632788,28.54762,-37.98642,1008.379
3.900226116,-15.41231,1.142553,-7.90305,-0.09017447,-0.36327,0.9097634,-8.38841,28.93949,-37.98441,1008.381
3.934874058,-6.44347,7.356979,-10.59968,-0.1302224,-0.4844017,0.8484066,-8.38841,28.93949,-37.98441,1008.381
3.967046738,30.23049,3.983433,-14.15433,-0.119681,-0.2647575,0.9513389,-8.772127,28.93917,-38.42876,1008.381
4.001693726,-22.72253,-0.9289227,-17.40254,-0.1919192,-0.339403,1.043941,-8.010212,29.31525,-37.9882,1008.385
4.033866405,-11.97221,7.534534,-23.59253,-0.2444129,-0.398801,0.9234417,-8.010212,29.31525,-37.9882,1008.385
4.068509579,4.306853,4.575284,-17.83155,-0.2375073,-0.3088615,0.9467727,-8.382631,28.94517,-37.53813,1008.385
4.100682259,7.562665,-6.492314,-18.13798,-0.207573,-0.3581818,0.9904307,-8.76114,29.33086,-37.60181,1008.385
4.135330200,14.93432,-2.230993,-10.53839,-0.2210263,-0.2408988,0.9587473,-8.76114,29.33086,-37.60181,1008.385
4.167502880,-3.064796,-3.710618,-6.616022,-0.173445,-0.2321687,0.9255993,-9.522228,28.95559,-37.97861,1008.387
4.199675083,8.791274,-4.006543,-3.245236,-0.1909142,-0.3137523,1.034985,-9.518048,27.81706,-37.5905,1008.391
4.234322548,12.90711,-5.249428,5.27366,-0.1857118,-0.1176752,1.036553,-9.518048,27.81706,-37.5905,1008.389
4.266490936,-63.20517,-11.87815,18.69552,-0.1511339,-0.05638536,0.8241743,-8.750612,27.8177,-36.70181,1008.389
4.301138878,-81.94144,-15.13333,41.86201,-0.03049156,-0.309197,0.7848145,-8.751127,27.05543,-36.69809,1008.389
4.333311558,-110.0151,-7.853569,49.27774,0.04988255,-0.3943907,0.8667481,-8.751127,27.05543,-36.69809,1008.387
4.367958546,-164.7496,-5.959649,44.86508,-0.2056378,-0.8927726,0.8404416,-9.086819,29.76853,-33.58521,1008.389
4.400131226,-38.69444,-4.302468,39.59439,-0.2137284,-1.079983,0.6649719,-7.138108,32.84679,-29.21072,1008.389
4.434778214,-58.22931,20.08176,30.95292,-0.2043325,-0.5215058,0.5836924,-7.138108,32.84679,-29.21072,1008.391
4.466947079,-153.1393,4.871209,12.99583,-0.3308712,-0.7815818,0.5759811,-5.217462,35.89744,-27.00387,1008.391
4.501594544,-66.03097,-2.053438,7.54128,-0.279146,-0.9428691,0.6536987,-4.409591,37.14398,-23.06086,1008.391
4.533767223,-36.05293,-2.941213,8.521873,-0.3764408,-0.9961928,0.599701,-4.409591,37.14398,-23.06086,1008.391
4.568414688,14.99575,-0.8697376,13.17969,-0.3821639,-0.8191314,0.6460401,-3.239818,39.06765,-20.39828,1008.389
4.600586891,21.69166,11.85504,14.03771,-0.2976418,-0.7613202,0.4553382,-2.10497,40.57608,-20.41153,1008.387
4.635234833,33.36344,7.593719,22.61789,-0.2758045,-0.7786151,0.6815317,-2.10497,40.57608,-20.41153,1008.389
4.667403698,85.57929,11.73667,38.36865,-0.05695344,-0.6490779,0.8781772,-1.354868,40.55965,-20.86167,1008.389
4.702050686,51.54684,9.428454,58.77723,0.3127289,-0.6418876,0.7899551,-0.2507114,39.37173,-23.0933,1008.393
4.734223366,-66.21526,20.73279,68.03157,0.4382069,-0.1868582,1.216213,-0.2507114,39.37173,-23.0933,1008.392
4.766395569,-50.12049,12.56526,64.96722,0.2617301,-0.8483445,0.8605468,0.8597918,37.80915,-24.81302,1008.39
4.801043034,-31.19993,15.99799,63.06732,-0.008478476,-0.7076811,0.9259238,5.039157,37.3909,-23.11107,1008.39
4.833216190,4.491144,20.73279,43.02647,-0.04155509,-0.9653084,0.5404369,5.039157,37.3909,-23.11107,1008.39
4.867859364,53.38975,36.71275,39.04281,-0.3317868,-0.6185966,0.5623913,7.70836,38.13833,-21.3432,1008.39
4.900032043,61.06855,37.60052,34.93658,-0.4155438,-0.4682983,0.8015558,9.975741,37.72498,-21.35295,1008.39
4.934679031,-27.82125,28.90032,30.0949,-0.5652477,-0.4800265,0.8206899,12.21975,36.90777,-23.14595,1008.392
4.966851711,-56.44783,33.87186,22.25017,-0.5613616,-0.748144,0.4834536,12.21975,36.90777,-23.14595,1008.394
5.001499653,-67.32101,41.98021,20.6567,-0.5455372,-0.597642,0.4353828,12.99271,36.53295,-21.80911,1008.394
5.033672333,-144.1704,22.6859,21.63729,-0.4952431,-0.7491461,0.3960685,14.53361,36.92104,-19.58731,1008.394
5.068315506,-115.4825,21.73894,25.68224,-0.2311165,-0.8847415,0.41755,14.53361,36.92104,-19.58731,1008.392
5.100487709,-121.5641,2.503808,21.82116,-0.4021705,-0.8402707,0.5983346,16.10279,38.86045,-15.26905,1008.392
5.135135174,-113.2095,-24.78048,12.93454,-0.2495885,-0.7153724,0.4022487,16.90014,40.41404,-12.1564,1008.39
5.167308331,-37.46583,-38.03793,32.42381,-0.01288938,-0.2040943,0.3893131,16.90014,40.41404,-12.1564,1008.388
5.201955318,156.1628,-73.43056,123.1899,0.05196407,0.5860965,0.8724018,17.69616,41.20455,-9.103775,1008.388
5.234127998,27.89613,-67.63043,144.6404,-0.6728927,-1.115981,0.8622414,19.23706,41.14888,-11.72576,1008.387
5.268771172,116.8474,-67.57125,110.9938,-0.7883879,-0.3716445,0.6954536,19.23706,41.14888,-11.72576,1008.391
5.300943852,-5.092,-59.81801,89.97232,-0.7840855,-0.7596822,1.046966,23.72354,37.22765,-15.30061,1008.391
5.333117008,16.65437,-55.73425,73.05711,-0.5877372,-0.2214305,0.9811275,26.69487,34.40371,-19.19176,1008.392
5.367764473,28.32615,-18.03339,54.671,-0.6896904,-0.6405879,0.3751599,26.69487,34.40371,-19.19176,1008.392
5.399936676,17.76011,-2.526918,38.24608,-0.8052688,-0.7727037,0.8552207,28.188,32.45951,-20.52903,1008.391
5.434584141,0.7438892,-4.302468,43.27161,-0.6213976,-0.3555357,0.8150101,29.68769,31.6644,-21.42561,1008.391
5.466753006,39.26076,-14.068,53.32269,-0.6587394,-0.3294699,0.7721935,29.68769,31.6644,-21.42561,1008.391
5.501400471,24.57889,-4.953504,64.53821,-0.5573277,-0.4000999,0.6790851,30.04675,29.35518,-22.75522,1008.391
5.533573151,25.68464,-8.682159,80.65669,-0.7542177,-0.4979413,0.6415557,31.17376,27.80885,-23.19986,1008.391
5.568220139,35.14492,-8.563789,81.75986,-0.6655479,-0.1853486,0.7633232,31.17376,27.80885,-23.19986,1008.391
5.600392819,45.95667,-8.800529,83.35332,-0.5873816,-0.3007092,0.7712828,32.66747,25.48433,-24.47152,1008.391
5.635040760,29.67761,-3.947358,80.04382,-0.5674715,-0.1394226,0.7396507,34.16587,22.78355,-25.35879,1008.395
5.667209149,41.34939,9.428454,80.90184,-0.6936504,-0.1028182,0.7473958,34.16587,22.78355,-25.35879,1008.393
5.701856136,29.18617,2.799733,78.45036,-0.7558796,-0.08827172,0.7683403,35.65824,19.69596,-26.69048,1008.393
5.734028816,42.39371,-1.994253,66.13167,-0.7736484,-0.0709961,0.7941946,37.92382,16.61468,-26.6872,1008.393
5.768676281,25.93036,-4.420838,60.55455,-0.6238241,0.1912557,0.7843546,37.92382,16.61468,-26.6872,1008.393
5.800848484,-21.37106,-5.486168,57.12248,-0.66905,0.08282139,0.8557006,38.2997,13.56024,-26.67424,1008.393
5.833022118,-39.12445,-2.230993,48.48101,-0.6167873,0.0522523,0.7016851,39.05981,11.26839,-26.22067,1008.397
5.867665291,-23.02968,10.49378,47.31656,-0.8418688,0.00531608,0.8272722,39.05981,11.26839,-26.22067,1008.395
5.899837494,-22.78396,10.55297,29.1756,-1.097984,0.1147585,1.13326,39.05878,9.743856,-26.21322,1008.395
5.934484959,-77.27274,-10.75364,-0.855042,-1.010401,0.2465499,1.096897,40.19787,8.971169,-25.76902,1008.395
5.966657639,-141.1604,-8.563789,-20.52818,-0.7823275,0.1997546,0.9661714,40.19787,8.971169,-25.76902,1008.395
6.001305103,-325.1445,-1.047293,-31.00826,-0.6400804,0.3000001,0.7135849,40.2152,8.988224,-24.43018,1008.395
6.033477783,-276.9216,-10.81282,-18.56699,-0.5140084,-0.6653739,-0.01951333,40.24532,12.0649,-22.27742,1008.394
6.068120956,-38.0187,50.91715,20.41155,-0.2360476,0.1449393,0.3778849,39.18934,18.63256,-16.62911,1008.392
6.100293636,-201.6079,55.00092,25.00808,-0.2521246,-0.554307,0.1385005,39.18934,18.63256,-16.62911,1008.392
6.134941578,25.99179,69.02776,24.33392,-0.2539967,-0.806351,0.5605996,39.61454,20.1972,-13.06824,1008.39
6.167113781,65.73727,54.05396,11.27979,-0.4827154,-0.2440273,0.8878993,41.16065,20.97129,-10.46577,1008.39
6.201761246,49.70393,34.16779,6.867123,-0.410414,-0.3804945,0.6725739,41.16065,20.97129,-10.46577,1008.392
6.233933926,101.9812,44.22924,16.79562,-0.3952236,0.28179,0.6499361,42.30552,20.20429,-9.57529,1008.391
6.268577576,15.18004,56.83565,18.45037,-0.6839205,0.03912582,0.9075351,41.91524,19.05489,-10.46033,1008.391
6.300750256,2.463941,81.16069,26.41768,-0.7538124,0.4152935,0.4220589,41.91524,19.05489,-10.46033,1008.391
6.335397244,-127.5842,99.44886,29.97233,-1.099597,-0.09013978,0.05238901,43.07744,18.30494,-8.231012,1008.389
6.367569923,-238.5276,81.27906,16.67305,-1.287928,-0.8976628,0.3897087,43.51683,16.45563,-3.37831,1008.389
6.399742603,38.70788,85.77711,29.05302,-0.9800148,-0.4935601,-0.4470661,43.51683,16.45563,-3.37831,1008.393
6.434390545,-85.50441,105.249,42.04588,-0.9896589,-0.3437989,-0.04086191,44.34756,16.13766,2.421331,1008.391
6.466558933,20.46305,78.55655,40.14598,-1.037609,-0.4735722,0.4718451,44.38063,15.02755,5.040842,1008.391
6.501205921,-43.91602,66.18688,44.00706,-0.7342058,-0.3104474,-0.1461185,44.38063,15.02755,5.040842,1008.391
6.533378601,-1.160454,101.6979,68.09286,-0.9846413,-0.5053968,0.3443227,44.42532,12.78623,8.622252,1008.389
6.568026066,39.62934,76.95855,56.5709,-1.158078,0.192477,0.1574485,44.45813,11.295,11.24363,1008.389
6.600199223,38.52359,104.0061,68.33801,-0.8076788,-0.4156387,-0.3019859,44.45813,11.295,11.24363,1008.392
6.634846211,59.10278,100.8693,68.58315,-1.537562,-0.1710557,0.3551303,43.35718,8.677276,13.94013,1008.392
6.667014599,49.21248,84.41586,51.72923,-1.35044,-0.294274,-0.08239511,43.77923,6.810907,17.45399,1008.392
6.701662064,23.16599,73.17071,52.52596,-1.430335,-0.3918424,-0.1349919,43.77923,6.810907,17.45399,1008.39
6.733834744,42.20942,56.71728,36.22361,-1.311257,0.01451411,0.01763083,42.29533,5.336271,19.70058,1008.39
6.768482685,-15.47374,44.93946,42.53617,-1.468909,-0.3494883,-0.3323846,41.18411,4.612849,21.49522,1008.388
6.800654888,21.01592,28.07173,30.76906,-1.458395,0.1164516,0.1128701,41.18411,4.612849,21.49522,1008.386
6.835302353,-8.777824,5.581429,28.6853,-1.341941,0.2283085,0.1536755,39.6999,3.899668,23.67433,1008.386
6.867470741,-39.30874,-25.905,14.03771,-1.109809,0.06621177,-0.1351705,38.20522,3.557063,25.02277,1008.386
6.899643898,-8.900685,-14.068,9.012169,-1.018731,0.239199,-0.2401521,38.20522,3.557063,25.02277,1008.385
6.934291363,-11.05075,-21.05183,3.43505,-0.949746,0.1424168,-0.3466696,37.82625,2.037898,25.03214,1008.389
6.966463566,28.75616,2.740548,21.08571,-0.8435848,0.28594,-0.6752006,37.83147,1.217793,25.48245,1008.387
7.001111031,0.4981675,14.81429,36.34618,-0.9258484,0.4397548,-0.608577,37.83147,1.217793,25.48245,1008.387
7.033283710,21.69166,37.12704,52.15823,-0.9448621,0.310753,-0.5439112,38.20942,1.212425,25.48052,1008.385
7.067927361,21.07736,58.25609,68.39929,-0.9397694,0.4694953,-0.537348,37.08638,0.09649992,26.38447,1008.382
7.100100040,8.11554,70.32983,75.50858,-1.009319,0.3414628,-0.5054606,35.96938,-0.632607,27.73283,1008.384
7.134747028,-36.48294,67.84406,81.20827,-1.022559,0.405151,-0.3115302,35.96938,-0.632607,27.73283,1008.382
7.166919708,-110.568,57.07239,83.90491,-0.9436334,0.3026077,-0.2774441,34.49018,-2.483503,30.3638,1008.382
7.201567650,-172.367,55.65195,85.37579,-0.9940341,-0.0737808,-0.4020226,32.62102,-6.245257,32.1772,1008.38
7.233739853,-132.7444,51.68655,90.58519,-0.8856168,0.1495738,-0.3843229,32.62102,-6.245257,32.1772,1008.377
7.268383503,-162.9682,54.05396,89.17559,-0.7582446,0.07060824,-0.3456745,29.96085,-11.93524,31.38984,1008.375
7.300555706,-151.3578,56.30299,89.35945,-0.8169334,0.04373884,-0.4060803,27.68224,-18.38879,30.92304,1008.372
7.335203648,-185.3288,53.10699,90.89162,-0.7260234,0.3174149,-0.2311526,27.68224,-18.38879,30.92304,1008.368
7.367376328,-237.1147,43.63739,77.3472,-0.6929165,-0.009154019,-0.1984858,24.62025,-25.23954,28.35808,1008.368
7.402023316,-160.4495,42.33532,62.2093,-0.7796177,0.03092781,0.03401339,20.02441,-30.56703,24.00828,1008.37
7.434195995,-170.8927,17.71436,34.99787,-0.579591,0.157884,0.1985194,20.02441,-30.56703,24.00828,1008.367
7.466364384,-141.6518,15.76125,18.20522,-0.5606631,0.04353533,0.2995839,17.25969,-36.74137,20.0357,1008.363
7.501012325,-98.65052,-4.006543,-6.983744,-0.4599765,-0.05171027,0.538859,16.05478,-40.60401,14.7685,1008.362
7.533185005,-80.65141,-35.13786,-39.7723,-0.4551699,-0.08658083,0.4888807,16.05478,-40.60401,14.7685,1008.362
7.567831993,-83.23148,-72.42442,-71.82542,-0.4958758,-0.1639721,0.5604405,15.24561,-42.5501,10.76514,1008.358
7.600004673,-155.2279,-115.2744,-123.3065,-0.2084062,-0.1361263,0.9580472,16.34007,-42.22406,7.697268,1008.36
7.634652615,-293.8764,-165.9367,-196.7896,-0.3955129,-0.8054615,1.025611,16.34007,-42.22406,7.697268,1008.357
7.666821003,-215.9826,-154.9283,-252.4996,-0.3750224,-1.490225,0.4847551,20.07375,-42.0047,-0.73983,1008.353
7.701468468,-46.61896,-131.7278,-293.807,-0.4894835,-1.210363,0.2591806,25.21865,-38.79585,-12.25944,1008.348
7.733641148,7.992678,-107.6395,-296.3198,-0.4949687,-0.7317101,0.01350209,25.21865,-38.79585,-12.25944,1008.348
7.768288612,1.603915,-83.49202,-266.902,-0.5719141,-0.4724743,-0.09305665,31.20839,-30.87614,-17.1751,1008.346
7.800461292,-50.61194,-61.17926,-230.4975,-0.8171043,-0.500247,0.3018318,35.71548,-22.58892,-19.85317,1008.344
7.835108757,-190.3047,8.303939,-179.3228,-0.4298489,-0.6586298,-0.2867887,35.71548,-22.58892,-19.85317,1008.345
7.867277145,-180.9058,114.0084,-112.3361,-0.4414947,-1.619473,-0.3948572,38.71552,-14.65649,-22.13912,1008.341
7.901925087,127.5977,180.8283,-117.2391,-0.4794439,-3.112889,1.039183,39.4836,-5.133204,-21.74323,1008.341
7.934097290,330.2566,132.0006,-243.4291,-1.493198,-2.025873,-0.1469124,39.4836,-5.133204,-21.74323,1008.338
7.968744755,369.3878,97.02227,-276.6466,-1.770256,-0.5444412,-0.4420398,41.07269,0.6346031,-16.10473,1008.336
8.000917435,354.5831,214.5045,-173.9296,-1.188037,0.7855767,-3.581072,41.49291,3.400486,-12.99604,1008.338
8.033089638,450.476,-104.6211,-52.21357,-7.195812,2.875051,-4.124748,41.49291,3.400486,-12.99604,1008.341
8.067733765,-453.7798,1.793588,-72.68344,-8.571264,2.619637,-2.695494,40.02887,6.896828,-9.49856,1008.341
8.099906445,586.4828,-142.4995,-99.09814,2.444152,-3.528629,-2.714488,39.22104,5.713812,-13.44188,1008.347
8.134553432,77.40905,-117.1683,-15.50264,-0.2877059,0.4498723,-0.4587623,35.38437,12.56699,-18.23761,1008.355
8.166726112,-90.60313,-34.48682,-10.10938,-2.013865,-1.372793,0.1800036,35.38437,12.56699,-18.23761,1008.359
8.201374054,135.7679,-80.71033,-29.59866,-1.472558,0.6632438,-0.6180212,33.85926,9.909161,-19.10942,1008.364
8.233546257,-196.202,-15.13333,-11.33512,-0.01754264,-0.6799574,1.053485,33.07448,9.891472,-21.33695,1008.373
8.268189430,-30.9542,15.87962,3.496337,-1.033985,-0.3428755,1.24698,33.07448,9.891472,-21.33695,1008.373
8.300362110,-37.83441,-47.27079,-0.3647459,-0.8417358,-0.09176043,0.8900946,31.94747,11.4378,-20.89231,1008.373
8.335010052,-43.85459,-75.20612,-9.12879,-0.0136734,-0.2459106,0.3161938,32.69757,11.42138,-21.34246,1008.378
8.367182732,16.47008,-38.62978,-5.267708,0.06321672,0.04435971,0.5569411,32.69757,11.42138,-21.34246,1008.382
8.401829720,-33.28856,-21.58449,-14.52205,-0.2357835,-0.6174089,0.7784051,32.30333,12.93422,-22.68681,1008.389
8.434002400,4.491144,-39.16244,-17.27996,-0.3797148,-0.4029692,0.736208,30.7863,13.71228,-23.12908,1008.389
8.468646050,2.40251,-54.78728,-18.44442,-0.2601721,-0.4524553,0.8161425,30.7863,13.71228,-23.12908,1008.393
8.500818730,-6.689191,-36.5583,-14.58333,-0.2214255,-0.4206659,0.9982388,30.02465,13.71733,-23.57149,1008.396
8.532991409,-11.91078,-19.39465,-7.228892,-0.1749389,-0.3825039,0.8785838,28.86328,14.46809,-25.73706,1008.401
8.567638397,-13.81512,-7.498459,-2.14207,-0.154437,-0.4580369,0.9158478,28.86328,14.46809,-25.73706,1008.403
8.599811077,-18.72955,5.107949,-1.284051,-0.1414043,-0.4509416,0.8372187,28.11369,15.24678,-25.29063,1008.407
8.634459019,-9.084976,4.338544,-0.977616,-0.225794,-0.4417504,0.778796,28.49767,15.62823,-24.84814,1008.407
8.666627407,0.86675,-9.096455,-3.306523,-0.2399862,-0.4654116,0.7854814,28.49767,15.62823,-24.84814,1008.41
8.701274872,-4.293405,-8.859715,-2.632366,-0.1421379,-0.328969,0.981385,28.11421,16.00905,-25.29435,1008.412
8.733447075,-1.221884,0.1364076,-0.6098939,-0.1443866,-0.5375353,0.8726827,28.49818,16.3905,-24.85187,1008.414
8.768095016,5.228309,12.50607,2.883466,-0.1887505,-0.4208097,0.9376829,28.49818,16.3905,-24.85187,1008.415
8.800267696,-8.040659,12.03259,2.39317,-0.2331958,-0.3939899,0.8621628,27.35858,16.40092,-25.29235,1008.415
8.834914684,-3.126227,2.030328,0.6158466,-0.2655884,-0.4186602,0.8521397,28.12468,15.63847,-24.46368,1008.417
8.867083549,-3.187657,-8.741344,-1.71306,-0.2460632,-0.4704567,0.8197185,28.12468,15.63847,-24.46368,1008.421
8.901731491,0.3753067,-10.63527,-2.509792,-0.1979484,-0.3824944,0.9279625,27.73652,16.39555,-25.29428,1008.422
8.933903694,-21.12534,-9.688305,-5.083847,-0.192143,-0.3956259,0.9282821,27.35858,16.40092,-25.29235,1008.424
8.968973637,-20.14245,-1.875883,-1.284051,-0.1671627,-0.4826329,0.8651538,27.35858,16.40092,-25.29235,1008.428
9.001146317,-1.037593,1.911958,0.9835687,-0.18678,-0.5628598,0.8343095,27.36462,16.78774,-24.84793,1008.428
9.033318996,5.105448,3.450768,1.841587,-0.1871933,-0.4404838,0.8420702,26.99246,16.79879,-24.39971,1008.424
9.067962170,1.603915,5.285504,10.72821,-0.2809627,-0.3980905,0.9290906,26.99246,16.79879,-24.39971,1008.43
9.100135326,7.562665,0.1364076,18.87938,-0.3931702,-0.5415708,0.9443787,27.37066,17.17456,-24.40351,1008.43
9.134782314,10.44989,5.699799,17.16334,-0.2897899,-0.4043351,0.8688715,27.74885,17.55032,-24.4073,1008.432
9.166954994,-15.47374,13.15711,31.68837,-0.3554143,-0.3400572,1.04257,27.74885,17.55032,-24.4073,1008.432
9.201602936,-15.5966,25.76352,46.33596,-0.2863392,-0.3806631,0.9196444,28.12628,16.78268,-24.40551,1008.432
9.233775616,-21.30963,32.56979,67.97028,-0.5821887,-0.2719182,0.7946076,28.50866,16.01992,-24.0212,1008.432
9.268418789,-101.4763,21.02872,116.8773,-0.9594425,0.1134297,1.302102,29.65929,15.2586,-22.68444,1008.432
9.300590992,-41.58167,-14.95577,178.6547,-0.9467899,-0.6111616,1.067543,29.65929,15.2586,-22.68444,1008.432
9.335238934,-51.53339,22.09405,292.4647,-0.9763638,0.1520453,1.767226,31.55978,14.09973,-21.79596,1008.432
9.367411614,-19.03671,-26.20092,338.4299,-0.6911622,0.4566654,0.5403873,33.43483,9.487917,-22.67587,1008.432
9.402058601,-64.55664,-10.57608,399.0428,-1.101861,-0.04328556,0.399354,33.43483,9.487917,-22.67587,1008.436
9.434231281,-12.1565,37.77808,430.6056,-1.329769,-0.5134972,0.3932662,34.93567,1.838088,-23.09267,1008.432
9.468875408,148.4226,111.9961,456.2849,-1.057861,-0.1226233,0.2729695,33.7896,-7.743351,-23.48632,1008.434
9.501047611,114.3902,155.9706,433.1797,-1.053243,-0.07136602,-0.1898525,33.7896,-7.743351,-23.48632,1008.432
9.535695076,71.38886,223.0272,388.0111,-1.666855,0.1357485,-0.6036869,30.05294,-21.35931,-19.38346,1008.432
9.567867756,169.3704,213.7943,298.9611,-1.352501,-0.3980336,0.2454924,22.94387,-32.23222,-13.17234,1008.429
9.600039959,138.9623,263.5689,211.1368,-1.339409,0.3051556,0.3017773,22.94387,-32.23222,-13.17234,1008.425
9.634687901,77.65477,223.0863,103.8232,-1.094301,-0.2491783,0.6438878,13.9028,-39.3117,-5.566924,1008.422
9.666856289,9.897021,201.0103,15.26345,-0.9903568,0.210031,0.6539337,7.905143,-41.84339,-1.570186,1008.422
9.701503754,-37.09725,144.4295,-62.57108,-0.9802204,-0.05463339,0.768783,7.905143,-41.84339,-1.570186,1008.422
9.733676434,-3.55624,120.8738,-99.58844,-0.7180071,0.5079775,0.6311947,5.659844,-42.93184,0.2321224,1008.424
9.768323898,-60.50224,86.01385,-105.7171,-0.7411274,0.4519791,0.403927,7.165826,-42.959,-0.2218933,1008.424
9.800496578,20.46305,69.2645,-81.75391,-0.7504607,0.8446647,0.1484177,7.165826,-42.959,-0.2218933,1008.426
9.835144043,65.92156,55.94788,-30.88568,-0.5655522,1.255114,0.1187461,11.31764,-42.6426,-0.6913071,1008.427
9.867312431,-24.87259,56.77647,6.989697,-0.7074968,1.373791,0.1851549,13.60968,-40.74641,1.072906,1008.427
9.901960373,-45.8818,44.99865,21.45343,-0.7274268,0.6451502,-0.09203177,13.60968,-40.74641,1.072906,1008.429
9.934133053,10.57276,34.46371,15.38602,-0.6667755,0.5095777,-0.009847473,14.35978,-40.76283,0.6227608,1008.429
9.968780041,50.50252,13.57141,-0.05831072,-0.721709,0.763804,0.06650689,13.98762,-40.75178,1.070972,1008.429
10.000952721,-42.2574,-14.42311,-9.802947,-0.8708254,0.9120382,0.3106021,13.98762,-40.75178,1.070972,1008.433
10.035600662,-76.47414,-38.21548,-15.50264,-0.8667061,0.8489792,0.1924359,13.24907,-40.72398,2.413683,1008.434
10.067769051,-187.9089,-45.49524,-19.67016,-0.8046752,0.8783318,0.01038529,13.59812,-40.75778,0.1803455,1008.434
10.102416039,-76.10555,-41.47066,-6.86117,-0.7886021,0.4992926,-0.1003754,13.59812,-40.75778,0.1803455,1008.432
10.134589672,-59.2122,-33.24394,3.618911,-0.732018,0.8150203,0.09257129,14.27945,-41.22274,-5.559554,1008.432
10.166761875,-52.20913,-35.72971,22.80175,-0.7412974,0.8242848,0.02911032,14.61168,-40.51132,-9.135454,1008.434
10.201409340,14.13572,-47.86264,31.93352,-0.6264051,0.6092795,0.04217172,14.61168,-40.51132,-9.135454,1008.434
10.233581543,43.13087,-56.03017,53.75169,-0.6284652,0.956578,0.3260598,13.8393,-40.51683,-10.40667,1008.434
10.268225670,3.262536,-54.49136,72.38295,-0.721526,0.8311492,0.1138143,12.33827,-40.48479,-9.570131,1008.432
10.300398350,143.5082,-42.4768,77.65363,-0.5954905,0.6263567,-0.1782497,12.33827,-40.48479,-9.570131,1008.434
10.335045338,40.61222,-25.96418,65.45751,-0.4964406,1.104324,-0.004605737,10.44806,-41.22021,-9.556741,1008.432
10.367218018,22.42883,-3.533063,36.77519,-0.5304424,0.07140249,-0.4735955,7.109128,-42.6339,-4.622807,1008.432
10.401865959,137.918,16.47147,27.64342,-0.5320023,1.227718,0.1755652,4.852019,-44.11485,-3.711199,1008.432
10.434038162,-8.409242,17.12251,3.373763,-0.5157178,0.4868652,-0.02542222,4.852019,-44.11485,-3.711199,1008.432
10.468681336,122.8676,19.54909,5.947817,-0.4072034,0.7345613,-0.1241666,2.996163,-44.05471,-1.087601,1008.432
10.500854015,125.6934,4.160989,21.20829,-0.4565573,0.8820474,0.08717954,3.036096,-44.77719,2.040085,1008.432
10.535501957,63.40291,1.616033,-0.855042,-0.5804934,0.4887916,-0.06914587,3.036096,-44.77719,2.040085,1008.432
10.567674637,68.50164,-4.243283,5.212373,-0.1225935,0.8498251,-0.225646,3.459949,-43.97562,5.54092,1008.432
10.602321625,20.58591,0.6098877,-4.348403,-0.7392724,0.8170505,0.09940372,2.738994,-43.54964,8.220612,1008.432
10.634494305,55.53981,-3.118768,-9.496511,-0.7608871,0.4999553,0.003483345,2.738994,-43.54964,8.220612,1008.432
10.666662693,93.56525,3.332398,-8.761067,-0.7431854,0.7652099,-0.4576966,3.128747,-43.16251,9.109379,1008.433
10.701310635,252.8543,13.51222,-2.264644,-0.8076865,0.8238888,-0.379973,2.790172,-43.49929,12.17338,1008.432
10.733483315,236.0224,11.67748,-4.532263,-0.8203049,0.7747657,-0.4641281,2.790172,-43.49929,12.17338,1008.428
10.768130302,246.1584,5.463059,11.89266,-0.4988857,1.035964,-0.437018,3.267056,-41.12202,19.6833,1008.432
10.800303459,232.2137,5.522244,34.63014,-0.5524386,0.7217665,-0.6184124,3.739448,-36.84478,26.73763,1008.432
10.834950924,170.9676,9.901935,57.9805,-0.4982795,1.292956,-0.7216947,3.739448,-36.84478,26.73763,1008.428
10.867119312,51.85399,16.29392,73.48611,-0.6883621,0.7623392,-0.6688656,2.328736,-31.32808,34.24202,1008.429
10.901766777,68.44021,3.569138,92.73024,-0.650349,0.9335844,-0.4672967,1.226842,-25.56737,36.38756,1008.431
10.933939934,-37.46583,-37.44608,99.34924,-0.7064386,0.8853838,-0.207855,1.226842,-25.56737,36.38756,1008.433
10.968586922,-113.271,-81.5981,82.00501,-0.7722522,0.6502352,-0.02794765,-0.2660389,-23.24204,37.72298,1008.433
11.000759602,-231.0331,-157.7692,51.11635,-0.8872452,0.09939978,-0.03093378,-1.799056,-21.71796,36.0019,1008.428
11.035406590,-357.1497,-274.9555,-82.55065,-1.045689,-0.5108284,0.1669897,-1.799056,-21.71796,36.0019,1008.428
11.067575932,-255.3595,-290.7579,-208.8019,-1.144193,-0.6595106,-0.04298669,0.01796055,-26.76775,30.66105,1008.429
11.102223396,-43.91602,-262.8226,-279.9561,-1.148703,0.06813771,-0.3512095,8.196456,-34.32005,20.51723,1008.429
11.134395599,73.96894,-193.7537,-306.0644,-1.086611,0.1727238,-0.9110101,8.196456,-34.32005,20.51723,1008.429
11.169043064,130.9764,-89.884,-280.569,-0.9684116,0.5812194,-0.9222413,19.88318,-35.72091,13.3858,1008.429
11.201216221,241.8583,-37.09097,-173.6232,-1.620773,2.938217,-1.528624,29.68539,-28.96499,11.07031,1008.433
11.233388901,-186.9874,71.21761,-28.80193,-1.564929,1.965116,-0.160577,29.68539,-28.96499,11.07031,1008.431
11.268032074,63.52577,12.21015,-17.77026,-0.8080871,-2.219496,-0.581471,35.37799,-19.88126,12.33549,1008.431
11.300204277,33.54773,-10.16179,-37.93369,-1.19982,1.197002,0.1049054,36.51387,-16.8483,12.3148,1008.433
11.334852219,-11.54219,-21.05183,-40.14003,-0.9869505,-0.09899304,0.04692692,36.51387,-16.8483,12.3148,1008.433
11.367024899,0.06815465,-29.63365,-42.16249,-0.8729546,0.1047749,-0.01704483,37.26949,-17.24017,12.3128,1008.433
11.401672363,-2.020479,-10.93119,-42.46893,-0.998247,-0.1006783,0.3877921,38.00933,-15.36229,10.96078,1008.431
11.433844566,11.18706,-11.7006,-33.52103,-1.139456,0.1146763,0.08818942,38.00432,-14.22458,10.50892,1008.431
11.468488693,9.835591,-9.51075,-34.44033,-0.9658896,-0.005364196,0.2431941,38.00432,-14.22458,10.50892,1008.433
11.500660896,16.53151,-6.137204,-33.33717,-1.067351,0.07500374,0.1512955,37.99957,-12.70573,10.0552,1008.433
11.535308361,22.73598,-2.941213,-34.01132,-0.9872239,0.1843519,0.2839991,39.51788,-11.57812,10.48816,1008.435
11.567481041,18.25156,-0.5738125,-34.74677,-0.972732,-0.05023702,0.1474521,39.51788,-11.57812,10.48816,1008.431
11.602128506,21.5688,1.024183,-34.99191,-1.008393,-0.1139621,0.2320914,39.89082,-10.44577,10.03436,1008.433
11.634301186,8.914135,-2.882028,-31.86628,-1.002493,0.05968739,0.09513407,39.89762,-8.915548,10.4732,1008.433
11.668944359,19.66446,-6.965794,-25.615,-0.9418933,0.05068795,0.2260803,39.89762,-8.915548,10.4732,1008.435
11.701117039,13.15283,-7.735199,-23.65381,-1.049092,-0.1516197,0.1690188,39.89839,-7.772149,10.46762,1008.435
11.733289719,19.72589,-14.42311,-15.93165,-0.9928213,0.059521,0.1427604,39.13725,-7.00483,10.02148,1008.435
11.767937660,6.026905,-15.78436,-7.596614,-0.9974276,-0.09014964,0.3059313,39.13725,-7.00483,10.02148,1008.436
11.800109863,8.852704,-14.8374,-6.983744,-1.021037,-0.1727425,0.09146294,40.64457,-6.26891,9.627501,1008.438
11.834757328,1.972497,-20.04568,0.6158466,-0.9810298,-0.02468048,0.30921,39.88317,-5.882725,9.183226,1008.438
11.866925716,3.446827,-12.41082,1.290004,-0.93329,-0.0651676,0.3768747,39.88317,-5.882725,9.183226,1008.438
11.901573658,5.474031,-8.031124,10.91207,-1.003416,-0.1825654,0.2767873,39.87688,-6.650676,8.740667,1008.44
11.933746338,0.9896109,-13.23941,14.46671,-0.9153748,-0.03585014,0.2877793,40.62724,-6.285964,8.288658,1008.44
11.968393326,-5.276291,-7.676014,20.41155,-1.045309,-0.1387681,0.2645253,40.62724,-6.285964,8.288658,1008.44
12.000566006,-6.382039,-9.86586,23.23076,-0.9987866,-0.1045167,0.2672656,40.62146,-6.291649,7.842379,1008.44
12.035213947,3.87684,-6.610684,33.03668,-0.9784942,-0.1656957,0.2145159,40.61542,-6.678468,7.397957,1008.436
12.067382336,-2.757644,-3.473878,31.81094,-0.9146982,-0.02500503,0.2468925,40.61542,-6.678468,7.397957,1008.436
12.102029800,2.156789,-6.551499,37.93964,-1.031828,0.07614837,0.1967634,40.23671,-7.8165,7.405474,1008.44
12.134202004,3.753979,-5.722908,39.59439,-0.7848426,-0.1043522,0.1746547,40.61414,-8.584135,7.407261,1008.436
12.168849945,-0.6690103,-4.894319,35.97846,-1.157093,0.2585799,0.3589781,40.61414,-8.584135,7.407261,1008.436
12.201022625,-3.003366,-13.00267,33.64955,-0.8524802,-0.1888727,0.1225331,40.61259,-10.87094,7.418425,1008.434
12.235669613,10.20417,-14.36392,26.96927,-0.9372473,0.4090723,0.3152694,39.4667,-11.62847,6.535387,1008.434
12.267838478,-14.61371,-18.56606,26.04996,-0.98845,-0.3336238,0.2725103,39.4667,-11.62847,6.535387,1008.434
12.300011635,20.58591,-28.33158,28.74659,-0.9429368,0.4239466,0.0373314,39.08221,-12.77218,6.096622,1008.436
12.334658623,4.982587,-32.47453,32.23995,-1.058314,-0.06169665,0.30577,39.82551,-14.31883,5.207636,1008.434
12.366831303,13.89,-48.04019,15.14087,-0.8071913,0.4522131,0.2657295,39.82551,-14.31883,5.207636,1008.434
12.401478291,-2.08191,-32.47453,6.621975,-1.021376,0.1176832,0.49151,38.67435,-14.31977,3.874598,1008.434
12.433651924,-25.17974,-35.67052,-4.409689,-0.9364176,0.198061,0.4581219,39.42394,-15.09846,3.428169,1008.436
12.468295097,37.23355,-43.30539,-4.225828,-0.8825829,0.3179728,0.2441183,39.02898,-15.8716,2.158737,1008.44
12.500467301,20.46305,-38.98489,9.257318,-0.9584132,-0.1068451,0.3690536,39.02898,-15.8716,2.158737,1008.44
12.535114765,28.14185,-40.16859,9.870188,-0.8859677,0.2952156,0.3750662,39.76226,-15.14281,0.3660259,1008.438
12.567287922,23.71886,-35.43378,29.60461,-1.025705,-0.137412,0.3901555,38.99431,-15.90571,-0.5189457,1008.438
12.601934910,54.37264,-40.16859,28.31758,-0.7022794,0.4322309,0.4487097,38.99431,-15.90571,-0.5189457,1008.438
12.634107590,61.49857,-21.58449,37.38806,-0.914473,0.02143543,0.5417749,38.98827,-16.29253,-0.9633656,1008.438
12.668750763,72.12603,-12.05571,38.49123,-1.027188,0.3454017,0.5609214,38.98198,-17.06048,-1.405925,1008.438
12.700923920,83.55209,-15.42925,33.4044,-0.9950699,0.3369396,0.554286,38.98198,-17.06048,-1.405925,1008.44
12.735571385,84.35069,-31.17247,20.04383,-1.201733,0.3512473,0.5770583,38.23085,-18.5686,-0.9483337,1008.44
12.767743587,95.16244,-48.75041,0.7384206,-1.373711,0.3823431,0.5962714,37.8524,-19.32549,-0.9426785,1008.44
12.799916267,77.53191,-73.6673,-33.09202,-1.137622,0.5937746,0.5977395,37.8524,-19.32549,-0.9426785,1008.44
12.834564209,51.30112,-92.90244,-63.4291,-0.9898601,0.3478163,0.6463889,38.61932,-20.08713,-0.05026245,1008.438
12.866736889,50.50252,-109.5926,-88.31163,-1.107437,0.4093943,0.5621978,38.59749,-18.2042,-1.844689,1008.438
12.901380062,-58.84361,-111.5457,-91.31469,-1.045267,0.728235,-0.03391511,38.59749,-18.2042,-1.844689,1008.438
12.933552742,-111.3052,-101.4251,-95.91122,-0.7607919,0.2995102,-0.1205979,40.06514,-16.36467,-5.368219,1008.438
12.968200207,38.89217,-65.44059,-108.1686,-0.781617,0.1724307,0.1923304,41.52747,-12.62598,-9.411087,1008.436
13.000372887,7.316943,-56.44447,-93.21459,-0.8072155,0.5604731,0.2685503,41.52747,-12.62598,-9.411087,1008.438
13.035020351,-72.60402,-36.61749,-87.14717,-0.7738137,0.3246745,0.1761608,41.11826,-8.842569,-12.04169,1008.436
13.067192554,-62.6523,-4.716763,-70.23196,-0.693701,0.2838062,0.08928039,41.85334,-5.445846,-13.84743,1008.433
13.101836681,-21.8625,32.45142,-43.5721,-0.7332023,0.4048066,0.2082544,41.85334,-5.445846,-13.84743,1008.431
13.134008884,-40.66021,56.95402,-16.97353,-0.806329,0.3762219,0.230873,42.22781,-2.026697,-14.31239,1008.431
13.168656349,-74.44694,77.43203,13.66998,-0.7649378,0.2261039,0.1767113,42.25273,0.6639766,-12.54029,1008.429
13.200829029,-120.5197,105.3674,40.32984,-0.7235422,0.284296,0.1965668,42.25273,0.6639766,-12.54029,1008.428
13.235476971,-165.0568,112.3512,74.77314,-0.8685955,-0.2492119,0.09230209,43.42699,1.893776,-9.491776,1008.428
13.267649174,-68.36533,120.0452,105.9682,-0.7940472,-0.2093288,0.4659669,44.22857,1.166251,-5.921677,1008.424
13.302292347,-131.2701,109.9246,103.3329,-0.9888666,-0.1568318,0.6022134,44.22857,1.166251,-5.921677,1008.424
13.334465027,-100.5549,73.88093,91.93351,-1.17221,-0.8964321,0.6869968,45.04007,-0.7576394,-1.516879,1008.426
13.366637707,-87.53162,59.26224,62.08673,-0.9942493,-0.3952928,0.8321395,45.08373,-4.523495,2.071974,1008.425
13.401285648,-145.7676,31.85957,37.2042,-0.7850309,-0.4789927,0.6241654,45.08373,-4.523495,2.071974,1008.423
13.433457852,-109.5851,10.49378,22.43403,-0.5969404,-0.6301971,0.8385456,44.34756,-8.302166,3.815817,1008.421
13.468113899,-28.1284,17.77354,13.24097,-0.4255019,-0.4210029,0.6969627,43.59091,-9.43483,3.825268,1008.421
13.500282288,-51.65625,15.1694,12.07652,-0.6244117,0.09065995,0.7049649,43.59091,-9.43483,3.825268,1008.421
13.534930229,-30.64705,6.291649,9.012169,-0.745851,-0.6801116,0.5638199,43.59541,-11.33481,4.280851,1008.421
13.567102909,52.03828,5.285504,2.883466,-1.565667,-0.3711183,0.7663347,43.20565,-11.72195,3.392084,1008.421
13.601749897,-47.909,-55.73425,-33.6436,-1.547408,0.2702994,1.061134,43.59489,-12.09708,4.284573,1008.421
13.633922577,-161.4324,-85.56349,-56.99396,-1.580354,0.07900206,0.7171627,43.59489,-12.09708,4.284573,1008.421
13.668570519,-140.1775,-99.17605,-57.42297,-1.344784,0.052307,0.3652949,43.9395,-11.37348,1.664988,1008.421
13.700738907,-50.24335,-96.80865,-25.79886,-1.30515,0.3972518,0.5596046,44.63914,-9.154263,-2.812851,1008.421
13.735386372,-67.19814,-107.9354,27.03055,-1.239285,0.5182126,0.6154172,44.63914,-9.154263,-2.812851,1008.419
13.767558575,-81.88001,-105.0946,77.3472,-1.222971,0.4506987,0.5568684,44.20528,-7.680398,-7.217412,1008.419
13.802206516,-80.34425,-108.8824,125.7027,-1.169493,0.2979243,0.6066839,43.01425,-8.101461,-11.6088,1008.423
13.834379196,-46.92611,-103.4374,167.194,-1.181142,0.3614248,0.5253761,43.01425,-8.101461,-11.6088,1008.422
13.869026661,-53.37631,-110.362,201.147,-1.210095,0.2875095,0.425745,42.20482,-10.42869,-15.61029,1008.422
13.901195049,-24.56544,-106.9293,222.2297,-1.16154,0.0714481,0.3849508,39.50555,-15.39539,-19.46158,1008.42
13.933368206,-17.68523,-94.20451,233.0775,-1.057268,0.1683536,0.4932266,39.50555,-15.39539,-19.46158,1008.418
13.968015194,-46.92611,-78.99396,235.529,-1.011908,0.1338482,0.390817,34.54803,-21.08239,-22.5325,1008.416
14.000187874,-89.68168,-62.00785,228.7874,-0.7488373,0.06499241,0.2542808,27.69008,-26.75311,-26.42255,1008.415
14.034835815,-77.82561,-35.13786,221.433,-0.7674174,-0.1506203,0.3543785,27.69008,-26.75311,-26.42255,1008.415
14.067008495,-61.54655,-16.61295,212.4851,-0.6895908,-0.05125096,0.4503894,21.22812,-30.12616,-29.05061,1008.413
14.101651669,-74.56979,4.397728,189.3186,-0.5032928,-0.2784431,0.3137462,14.33942,-30.81283,-30.73312,1008.409
14.133824348,-67.32101,24.22471,167.7456,-0.3832429,-0.1944865,0.3894741,14.33942,-30.81283,-30.73312,1008.408
14.168471813,-94.41182,44.64354,127.5413,-0.4174256,-0.4051739,0.488794,9.024377,-31.90381,-32.48559,1008.406
14.200644493,-25.17974,19.9042,99.0428,-0.4593077,-0.5017884,0.8363919,5.978265,-31.12133,-34.25896,1008.406
14.235291958,51.85399,13.80815,59.57396,-0.1189675,-0.3276408,0.6018462,5.978265,-31.12133,-34.25896,1008.402
14.267464161,44.66663,15.70207,17.28592,-0.1497933,-0.2763793,0.6835323,4.08356,-29.95677,-34.70116,1008.402
14.302108288,56.27698,16.41229,-20.58946,-0.2033995,-0.1838339,0.8800052,2.594655,-30.29369,-32.90644,1008.401
14.334280491,24.14888,10.8489,-53.80703,-0.2253122,0.01978848,0.9614183,2.594655,-30.29369,-32.90644,1008.399
14.368927956,13.15283,3.036473,-80.65075,-0.3107493,-0.011254,0.9720815,3.738486,-32.58523,-32.00851,1008.397
14.401100636,46.07953,-8.504604,-99.7723,-0.5726689,0.08531974,1.116066,5.244466,-32.61238,-32.46253,1008.397
14.433272839,68.68593,-30.58062,-106.0236,-0.47444,0.2493752,1.05336,5.244466,-32.61238,-32.46253,1008.397
14.467920780,67.39589,-30.87654,-97.32082,-0.4345741,0.529994,0.8996152,8.67373,-33.01422,-30.31042,1008.397
14.500089646,71.63459,-35.25623,-84.2054,-0.4366083,0.4162154,1.06113,11.32457,-33.80839,-29.87396,1008.397
14.534736633,68.07162,-41.76658,-75.01234,-0.4273318,0.5496387,0.9970734,11.32457,-33.80839,-29.87396,1008.397
14.566909313,29.06331,-48.92797,-75.62521,-0.4080679,0.4052428,0.9783513,13.60873,-35.03047,-28.54083,1008.397
14.601557255,29.73904,-54.49136,-73.05116,-0.4821711,0.3099299,1.033205,15.88818,-34.67017,-27.66173,1008.393
14.668376923,-26.22406,-50.11167,-79.4863,-0.3490227,0.331223,0.6070145,16.25512,-33.86112,-28.56026,1008.393
14.700545311,-13.20081,-39.04407,-80.46689,-0.4675134,0.1045808,0.7860375,17.75584,-33.13169,-29.46428,1008.393
14.735193253,13.76714,-28.39077,-75.62521,-0.4334657,0.1493561,0.6347411,18.93717,-31.64041,-30.75293,1008.391
14.767365932,26.17608,-10.39853,-73.23502,-0.3577347,0.1756603,0.6328053,18.93717,-31.64041,-30.75293,1008.391
14.802012920,52.22257,3.746693,-71.4577,-0.4870612,0.09598544,0.7287911,19.31588,-30.50238,-30.76044,1008.391
14.834185600,1.419624,17.83273,-75.25749,-0.4898562,0.1779189,0.5887489,21.58403,-29.77232,-30.77577,1008.39
14.868833542,-101.8449,57.36832,-86.41173,-0.5662686,0.08151056,0.3110353,21.58403,-29.77232,-30.77577,1008.391
14.901001930,-155.7194,86.66489,-79.85402,-1.03405,0.1043664,1.022682,23.84641,-29.04795,-31.23738,1008.387
14.935649395,-138.826,14.34081,-48.84278,-1.411401,0.0486485,1.674033,26.85567,-24.53435,-32.61402,1008.387
14.967821598,-5.829165,3.273213,-45.28814,-0.6527296,-0.1803079,0.5439354,26.85567,-24.53435,-32.61402,1008.391
14.999994278,-151.0507,34.64127,-18.81214,-0.6041002,0.04638577,0.7044104,29.48251,-18.1154,-34.44431,1008.387
15.034642220,13.52142,79.03003,-11.76413,-0.6213706,-0.3297721,1.386874,29.862,-15.83397,-34.45741,1008.387
15.066814899,13.76714,65.47666,0.4319854,-0.3396615,0.1540852,0.9939583,29.862,-15.83397,-34.45741,1008.387
15.101458073,-59.15076,110.7532,13.66998,-0.442944,-0.2623401,0.8676153,32.53249,-13.18087,-32.69885,1008.389
15.133630276,55.17123,113.5941,17.65364,-0.7179087,-0.3913713,1.078305,34.06684,-13.94187,-30.91774,1008.389
15.168278217,15.79434,93.53036,16.30532,-0.6378569,0.2882228,0.6353831,34.06684,-13.94187,-30.91774,1008.389
15.200450897,-69.16392,109.2144,21.26957,-0.7886959,-0.273127,0.3786311,36.76411,-13.16683,-26.98223,1008.391
15.235097885,-20.38817,95.83857,27.2757,-0.6948628,0.07377097,0.9243108,38.69844,-14.29241,-23.47982,1008.391
15.267270565,-53.80632,86.72408,45.84567,-0.5798426,-0.1763415,0.09792047,38.69844,-14.29241,-23.47982,1008.391
15.301914692,53.75834,88.02615,55.28387,-0.797594,-0.3847796,0.2447618,40.6228,-14.28514,-20.81181,1008.391
15.334086895,21.44594,73.11153,61.71901,-1.08608,-0.1579303,0.6489013,40.65696,-15.0133,-18.1304,1008.393
15.368734360,-7.794939,45.41294,66.56068,-1.164485,-0.1454508,0.1392984,40.65696,-15.0133,-18.1304,1008.394
15.400907040,25.0089,46.24154,60.00297,-1.107777,0.05161841,0.1138839,41.82777,-17.65917,-15.12673,1008.391
15.435554504,-21.61678,18.24702,49.58418,-1.133904,0.2894212,0.7229255,40.71552,-19.90713,-13.32464,1008.391
15.467727184,-48.46187,13.45304,39.41053,-1.00762,0.02109768,0.3749055,40.71552,-19.90713,-13.32464,1008.391
15.499895573,-8.470672,18.89806,33.34312,-0.9526045,0.1631738,0.5813771,39.59197,-21.78532,-12.41697,1008.392
15.534543038,-6.013456,1.438478,28.56273,-1.095867,0.2182353,0.5797939,38.82928,-23.3048,-12.85194,1008.394
15.566715717,-25.11831,-5.663723,27.21441,-0.8237468,0.1405013,0.3047662,38.82928,-23.3048,-12.85194,1008.394
15.601363182,34.28489,0.3139626,38.73637,-0.8406328,-0.2319946,0.3919868,38.07289,-24.05633,-12.84435,1008.394
15.633535862,85.21071,3.569138,32.91411,-0.8840992,0.1588757,0.2567989,36.94408,-25.17794,-12.38669,1008.392
15.668183327,61.56,-0.2187025,20.96314,-0.8619596,0.03907976,0.2199367,35.83157,-27.80703,-10.58274,1008.392
15.700351715,74.27609,0.6098877,12.01523,-0.7561223,0.03139752,-0.01584792,35.83157,-27.80703,-10.58274,1008.392
15.734999657,87.4222,-2.408548,18.14393,-0.769567,0.4159152,0.1146954,35.09169,-28.54232,-9.30006,1008.391
15.767172337,62.42002,-12.41082,24.39521,-0.7318537,0.3728535,0.0937445,34.36945,-30.02201,-6.611065,1008.391
15.801819324,61.62143,-6.965794,29.35946,-0.7395051,0.3687946,-0.0599754,34.36945,-30.02201,-6.611065,1008.387
15.833992004,49.88822,-0.6921826,27.03055,-0.7387849,0.4583889,0.04053039,34.01436,-30.37503,-4.822148,1008.387
15.868639946,18.19013,8.422309,20.71799,-0.8504097,0.4503915,0.001500077,32.51365,-31.10446,-3.918131,1008.385
15.900808334,22.85884,7.94883,14.16028,-0.8920197,0.589672,0.03484854,32.51365,-31.10446,-3.918131,1008.385
15.935455322,4.675436,13.57141,15.56988,-0.9837093,0.8550225,0.1453776,31.76169,-32.61338,-3.524294,1008.383
15.967628002,-75.30696,11.97341,1.657726,-0.9267657,0.6786193,0.1544779,31.39582,-31.83438,-2.63352,1008.381
16.002275944,-61.48512,17.41843,-19.36372,-0.923018,0.3337852,0.1284641,31.39582,-31.83438,-2.63352,1008.381
16.034448624,-2.880505,20.02257,-35.35964,-0.8826256,0.3502958,0.2814992,31.38375,-32.60801,-3.52236,1008.381
16.066620827,7.562665,20.61442,-44.85912,-0.8682751,0.527355,0.277523,31.757,-32.23712,-3.908681,1008.381
16.101264477,32.38055,18.42458,-50.43624,-0.8593949,0.1871906,0.104972,31.757,-32.23712,-3.908681,1008.381
16.133436680,90.37086,14.93266,-45.34942,-0.875327,0.4073385,0.1932134,33.27473,-30.72919,-3.541333,1008.38
16.168084621,110.3972,11.08563,-42.34636,-0.8559373,0.4883255,0.1965922,34.44374,-29.94892,-0.8731728,1008.378
16.200257301,108.4928,5.463059,-29.29222,-0.801555,0.3699644,-0.01118682,34.44374,-29.94892,-0.8731728,1008.378
16.234904289,188.5367,11.38156,-7.290179,-0.9027063,0.6777797,-0.001921332,36.36913,-28.41711,1.787399,1008.376
16.267076969,125.5091,-0.9289227,0.1868374,-0.9653256,0.7651005,0.5184963,37.17092,-27.62092,5.286301,1008.374
16.301720619,146.3954,-15.66599,14.95701,-0.7551334,0.2310063,0.06339036,37.17092,-27.62092,5.286301,1008.374
16.368540764,199.9013,-6.492314,24.57907,-0.8438534,0.3116568,0.2682869,38.02549,-25.63016,12.79614,1008.374
16.400712967,93.62668,-13.23941,15.50859,-0.6722587,0.7477122,0.1517087,38.02549,-25.63016,12.79614,1008.372
16.435360909,26.66752,-34.54601,5.947817,-0.7489538,0.2701791,0.4897432,38.07847,-22.91187,16.73589,1008.367
16.467533589,9.958452,-50.88107,-2.632366,-0.6133077,0.1406017,0.2015835,37.70734,-21.37628,17.17666,1008.367
16.502176762,-72.11258,-39.16244,-35.23706,-0.8044903,-0.3189269,0.03087925,37.70734,-21.37628,17.17666,1008.365
16.534349442,64.63152,-13.29859,-39.52715,-0.868226,0.2911586,0.04903554,38.82986,-21.02263,16.27644,1008.365
16.566521645,-36.17579,-8.267864,-48.41377,-1.1715,0.3782339,-0.3103623,39.94113,-21.44179,14.55113,1008.365
16.601169586,19.91018,-29.51528,-57.11653,-1.42005,0.417558,0.3492464,39.94113,-21.44179,14.55113,1008.365
16.633342266,-47.909,-62.83644,-88.37292,-1.26983,0.3343078,-0.02735527,40.69278,-19.17141,14.08982,1008.365
16.667989731,-9.269267,-68.75495,-102.9592,-1.209064,0.1309912,0.3338292,42.92678,-17.7132,11.39309,1008.365
16.700158119,-38.63301,-82.13076,-113.378,-0.9015809,0.3569331,-0.003130917,42.92678,-17.7132,11.39309,1008.367
16.734806061,-25.42547,-72.24686,-116.1359,-1.014372,-0.1172432,-0.07153953,44.41279,-14.33208,9.200954,1008.367
16.766978264,-123.2841,-81.53892,-117.852,-1.143498,-0.6407269,0.3793932,46.62522,-10.60981,4.707939,1008.367
16.801625729,-23.76685,-95.15147,-127.474,-1.138844,0.5344499,0.01597043,48.48442,-5.715212,2.06015,1008.371
16.833798408,-115.2367,-96.86783,-134.4607,-0.9572321,-0.5784026,0.2730931,48.48442,-5.715212,2.06015,1008.371
16.868445396,-75.06124,-93.8494,-138.138,-1.06721,-0.1494306,0.5673375,48.05782,-0.8062723,-1.97863,1008.369
16.900614738,-143.6176,-81.47973,-114.9102,-0.5987273,-0.567358,0.3628648,48.01657,5.310719,-5.515203,1008.369
16.935261726,-18.97527,-74.91019,-100.3239,-0.9265642,-0.7001867,0.6135406,48.01657,5.310719,-5.515203,1008.369
16.967434406,-74.26264,-81.95321,-103.2044,-0.9211671,-0.5845392,0.4447798,46.85143,10.24745,-8.211275,1008.369
17.002081394,-50.91909,-76.38982,-85.98272,-0.6516035,-0.569225,0.4014208,45.6981,15.57668,-10.01665,1008.369
17.034255028,-22.16965,-57.45061,-63.36781,-0.4139908,-0.685569,0.5105504,45.6981,15.57668,-10.01665,1008.37
17.068902016,40.67366,-42.95028,-49.76209,-0.3929834,-0.801783,0.6858081,43.41076,19.3983,-11.74502,1008.374
17.101070404,68.25591,-26.02337,-52.52,-0.5417342,-0.7313676,0.7205524,42.25562,22.0596,-13.53736,1008.374
17.133243084,84.22782,-26.49685,-69.49651,-0.6633432,-0.8764079,0.7792955,42.25562,22.0596,-13.53736,1008.37
17.167890549,173.8548,-54.25462,-92.96944,-0.5981178,-1.013325,0.9419199,40.34936,23.21279,-14.87212,1008.37
17.200063705,168.3875,-62.5997,-85.615,-0.55118,-0.1346457,0.9921057,38.41008,24.3335,-18.75705,1008.369
17.234710693,22.42883,-83.37365,-72.68344,-0.4877869,-0.2403834,0.9795566,38.41008,24.3335,-18.75705,1008.372
17.266883373,47.86102,-77.04086,-56.44237,-0.3463602,-0.446425,0.6613107,35.32224,23.17051,-23.64508,1008.372
17.301526547,77.1019,-72.8979,-36.89181,-0.1423865,-0.4938306,0.6247946,32.2659,24.70469,-26.25098,1008.369
17.333699226,43.80661,-45.14013,-11.15126,-0.3756561,-0.2157066,0.663968,32.2659,24.70469,-26.25098,1008.371
17.368346691,18.1287,-37.50526,-4.041967,-0.2225581,-0.6520594,0.5104863,29.20746,24.3324,-28.91133,1008.369
17.400519371,90.30943,-16.08029,8.705734,-0.2187835,-0.639661,0.5471853,27.67182,23.18773,-30.68314,1008.367
17.435166836,131.0378,-7.853569,17.8375,-0.2546113,-0.4009736,0.6979432,27.67182,23.18773,-30.68314,1008.367
17.467339039,114.8816,-5.604538,25.06937,-0.2259912,-0.2862579,0.7381458,26.8984,21.65769,-31.94692,1008.367
17.501983166,99.33971,-1.047293,35.7946,-0.1857636,-0.2716819,0.6400447,26.86168,18.57452,-34.60971,1008.371
17.534155846,70.71313,12.15096,37.63321,-0.211507,-0.1341852,0.7040784,26.86168,18.57452,-34.60971,1008.367
17.568802834,29.49332,15.1694,34.63014,-0.3072519,-0.3388699,0.8498122,27.22548,14.74644,-35.4856,1008.367
17.600975514,23.78029,24.69819,28.31758,-0.2572106,-0.2953541,0.860308,27.97276,10.53755,-35.91528,1008.367
17.633148194,1.358193,34.16779,20.35027,-0.2507092,-0.2371768,0.792765,27.97276,10.53755,-35.91528,1008.367
17.667795658,-3.986253,47.78034,13.42484,-0.2843671,-0.2201096,0.8443117,28.34415,9.383101,-36.35791,1008.367
17.699964523,20.64734,52.33759,10.97335,-0.3032322,-0.2402107,0.9320459,29.12236,8.251703,-34.57108,1008.367
17.734611511,21.63023,55.11929,7.479993,-0.349679,-0.1322614,0.9275852,29.12236,8.251703,-34.57108,1008.365
17.766784191,9.344148,55.53358,2.39317,-0.3393422,-0.06892121,0.965607,30.65095,7.485016,-33.23625,1008.369
17.801432133,23.84172,58.01935,3.312475,-0.3541224,-0.0414127,0.9356057,32.9241,7.077357,-32.79971,1008.369
17.833604336,26.72895,59.14387,3.802772,-0.3542136,0.03442471,0.8880318,32.9241,7.077357,-32.79971,1008.369
17.868251801,26.54466,57.90098,4.967225,-0.4463885,-0.007657682,0.9733769,34.84135,6.315859,-30.63801,1008.369
17.900420189,32.19626,54.05396,2.577031,-0.4804668,0.04867984,0.9558433,35.6025,5.54854,-30.19188,1008.37
17.935068130,34.65348,52.33759,-3.000088,-0.4623092,0.09413826,0.9459267,36.76494,5.179725,-27.96441,1008.372
17.967240810,33.11771,48.19464,-13.41888,-0.4957205,-0.08140212,0.9457553,36.76494,5.179725,-27.96441,1008.372
18.001887798,46.57098,53.63966,-34.19518,-0.4529514,0.003334129,0.8838769,38.67647,3.269955,-26.17966,1008.372
18.034060478,40.98081,61.3929,-56.13594,-0.4493523,0.000136083,0.8491129,39.07149,2.900508,-24.84089,1008.376
18.068707466,100.7526,61.09697,-72.56086,-0.5323719,-0.1919675,0.9350638,39.07149,2.900508,-24.84089,1008.376
18.100876331,133.1264,58.43365,-89.23093,-0.552529,0.02028296,0.8145738,40.23414,4.055415,-22.68462,1008.372
18.135524273,115.373,68.0808,-125.758,-0.7040737,-0.3252566,0.6598634,40.25751,4.459288,-20.90136,1008.376
18.167696476,129.5635,97.3182,-158.3627,-0.8672364,-0.1649515,0.4458077,40.25751,4.459288,-20.90136,1008.376
18.199869156,130.1778,125.4903,-182.2646,-0.9087067,-0.2458272,0.2536921,40.65908,5.238926,-19.12189,1008.376
18.234516621,248.247,155.4379,-181.3453,-1.389677,0.1613728,0.254789,40.70019,8.707297,-16.14219,1008.378
18.266688824,106.097,127.5026,-175.2779,-1.28474,0.6170579,0.5009763,40.70019,8.707297,-16.14219,1008.376
18.301332951,-19.8353,103.4143,-149.4761,-0.9425001,-0.4282257,0.5600194,40.74873,12.18298,-12.58869,1008.372
18.333505154,41.34939,104.1245,-125.2677,-0.5922411,-0.4202552,0.3085871,39.65788,17.1928,-9.546866,1008.372
18.368152618,-3.310518,89.97926,-112.2749,-0.5340363,-0.5612155,0.5088397,39.65788,17.1928,-9.546866,1008.372
18.400325298,15.11861,80.98313,-86.22787,-0.6068932,-0.1851417,0.1352143,37.06109,21.08719,-5.981692,1008.372
18.434973240,-52.39342,57.4275,-70.78354,-1.010997,-0.5635199,-0.03476221,35.20755,24.57754,-3.374841,1008.37
18.467145443,-23.82828,34.93719,-61.28405,-1.239004,-0.5689641,0.2454341,35.20755,24.57754,-3.374841,1008.376
18.501788616,-13.26224,15.64288,-52.70387,-1.104213,-0.2905562,0.1809197,33.72572,26.15197,-1.143145,1008.376
18.533961296,-46.68039,-3.947358,-50.31367,-0.9805069,-0.615311,0.1925121,32.61077,28.47193,0.1903343,1008.376
18.568609238,-2.389062,-4.361653,-39.7723,-0.7376392,-0.5789018,0.09800214,32.61077,28.47193,0.1903343,1008.378
18.600781918,-12.1565,-9.333195,-33.33717,-0.6430121,-0.6394117,0.1800062,31.873,29.64312,1.52746,1008.378
18.635428906,5.658322,-7.202534,-26.47302,-0.7355145,-0.44927,0.2301549,29.97804,30.42654,1.08713,1008.378
18.667601586,12.10852,-3.059583,-20.28303,-0.8984177,-0.6548654,0.3403579,29.97804,30.42654,1.08713,1008.38
18.702245236,26.91324,-7.853569,-19.79273,-0.8139785,-0.3336219,0.0703706,29.22268,31.19955,1.087275,1008.38
18.734417916,-3.371948,-18.56606,-17.83155,-0.4858495,-0.3994611,0.2412498,28.45524,31.19892,0.1985817,1008.38
18.766590595,5.105448,1.556848,2.39317,-0.8704167,-0.8853853,0.2996362,28.45524,31.19892,0.1985817,1008.38
18.801237583,10.63419,1.379293,-4.777411,-1.012512,-0.3703932,0.2724318,28.83947,31.9615,0.6392059,1008.38
18.833410263,-31.7528,-9.925045,-7.719189,-0.684381,-0.6936737,0.103307,28.44998,31.9555,-0.251421,1008.381
18.868057251,-5.890595,4.693654,12.32167,-0.7301061,-0.725824,0.3107284,28.44998,31.9555,-0.251421,1008.381
18.900226593,-2.389062,8.008015,17.28592,-1.013311,-0.5979137,0.2874335,28.08308,31.20997,0.6467953,1008.381
18.934874058,11.55564,-5.190243,11.15722,-0.7464917,-0.2869943,0.1809852,27.69962,31.59079,0.2005882,1008.381
18.967046261,-4.96914,-3.296323,14.83444,-0.7731703,-0.6792978,0.2739178,28.84474,31.20492,1.089209,1008.381
19.001693726,0.1910155,0.1955926,12.93454,-0.7326073,-0.5401023,0.09731104,28.84474,31.20492,1.089209,1008.381
19.033865929,-11.41933,-3.414693,18.57294,-0.7691662,-0.7115132,0.127087,29.59458,30.80736,0.6409206,1008.383
19.068513870,-0.7304407,7.652905,17.22463,-0.9943018,-0.740644,0.2957194,29.21638,30.4316,0.6447163,1008.383
19.100682735,12.29281,1.438478,12.01523,-0.8433143,-0.09479384,0.1805811,29.21638,30.4316,0.6447163,1008.383
19.135329723,-22.78396,-4.065728,20.47284,-0.7657604,-0.8803049,0.2076036,30.35572,30.04004,1.087055,1008.381
19.167502403,40.79652,1.616033,39.1041,-0.7504485,-0.1062802,0.2615598,29.97701,28.90201,1.094572,1008.38
19.202150345,-5.952026,-0.8697376,43.14904,-0.9630206,-0.6890121,0.2765732,29.97701,28.90201,1.094572,1008.378
19.234322548,17.45296,-4.657578,52.03566,-0.8776481,-0.3838448,0.1254986,31.49454,28.88622,1.533115,1008.38
19.266495228,-2.941936,-13.71289,67.11226,-0.8193212,-0.6149721,0.1514869,32.61604,27.71535,0.6403351,1008.38
19.301138401,20.58591,-15.48844,80.65669,-0.8939433,-0.4376524,0.186903,32.61604,27.71535,0.6403351,1008.38
19.333311081,8.05411,-17.02725,82.49531,-0.9778206,-0.510648,0.1711779,33.74331,26.55016,0.1938362,1008.38
19.367959023,21.99881,-23.1233,81.82115,-0.920869,-0.4464136,0.3552998,35.61991,24.22514,-0.6972294,1008.381
19.400131703,57.75131,-24.42537,84.82421,-0.8267741,0.06792755,0.2699742,35.61991,24.22514,-0.6972294,1008.381
19.434778690,25.19319,-14.48229,83.10818,-0.9020959,-0.2228509,0.2162239,37.86867,21.88908,-2.03651,1008.381
19.466951370,42.578,-11.64141,88.93044,-0.8566903,-0.1080416,0.2794066,38.98887,18.81253,-2.919988,1008.38
19.501594544,31.45909,-11.22712,80.04382,-1.007394,0.06832186,0.2046649,38.98887,18.81253,-2.919988,1008.378
19.533767700,22.67455,-22.17634,75.4473,-1.066558,-0.2681301,0.4699529,40.4768,16.48233,-4.637926,1008.378
19.568414688,41.7794,-23.71515,68.52187,-1.002839,0.06007804,0.4604961,41.97469,13.01929,-5.521476,1008.38
19.600587368,61.43713,-14.54148,71.46364,-0.9125885,0.04319973,0.4069769,41.97469,13.01929,-5.521476,1008.38
19.635234833,72.18746,7.238609,78.87937,-1.01206,0.1376158,0.3127656,42.33349,10.32893,-6.849226,1008.38
19.667407036,91.10803,21.44301,79.06323,-1.03346,0.193882,0.2941491,43.07627,8.02002,-7.734491,1008.38
19.702051163,101.5512,35.76579,63.49633,-1.027893,0.2693615,0.4557073,43.07627,8.02002,-7.734491,1008.38
19.734223366,123.5433,41.68429,42.04588,-1.039305,0.2015838,0.408019,44.21959,4.966216,-6.832845,1008.381
19.768870830,118.506,46.12317,15.9376,-0.9822101,0.3676471,0.3273974,45.35764,2.668994,-6.381202,1008.381
19.801043510,101.6126,38.72504,0.6771336,-0.9108572,0.4182015,0.2572585,45.35764,2.668994,-6.381202,1008.381
19.833215713,85.76358,25.11248,-1.651773,-0.7843298,0.517797,0.225087,45.00097,-0.03435433,-4.580811,1008.381
19.867863655,63.09576,2.858918,5.641382,-0.7074319,0.5185288,0.4325992,45.76263,-0.03940654,-4.138398,1008.38
19.900032520,-31.62994,-31.70513,-5.390282,-0.7290514,0.1685091,0.4101534,45.76263,-0.03940654,-4.138398,1008.378
19.934679508,-29.11129,-49.75656,-30.45667,-0.7388452,-0.0533566,0.3973297,45.3899,0.3519683,-3.755798,1008.376
19.966852188,-40.47592,-88.16763,-39.71101,-0.8051116,0.05434222,0.4735458,45.36787,0.7111744,-5.479027,1008.376
20.001500130,-71.00683,-120.7786,-47.43318,-0.7216756,0.2083258,0.1650751,45.3285,2.259437,-8.610744,1008.376
20.033672333,-178.8172,-105.3313,-101.3045,-0.7870181,-0.3858335,0.05185461,45.3285,2.259437,-8.610744,1008.376
20.068319798,-69.65536,-78.047,-117.7907,-0.8356315,-0.1477676,0.3656425,44.91248,4.512624,-11.68019,1008.376
20.100488186,-19.03671,-97.22294,-129.7416,-0.9522632,-0.2973923,0.1476335,42.60247,10.21636,-15.26674,1008.374
20.135135651,90.67802,-72.66116,-143.9602,-0.9748096,-0.3434217,0.3325522,42.60247,10.21636,-15.26674,1008.376
20.167308807,115.8645,-68.9325,-143.9602,-0.9720453,-0.1904058,0.4133178,40.29361,15.15945,-18.72206,1008.376
20.201955795,75.07469,-62.12622,-137.5251,-0.7941321,-0.04737312,0.319329,37.21488,18.95688,-23.188,1008.376
20.234128475,49.64249,-36.26237,-121.7743,-0.7656724,0.06786709,0.04961178,37.21488,18.95688,-23.188,1008.38
20.268775463,5.35117,25.88189,-73.66403,-0.6979504,0.1892902,-0.02231904,33.39188,21.63384,-26.68818,1008.38
20.300944328,163.9031,52.45596,7.725141,-1.315001,0.6515367,0.4837089,30.35283,24.32767,-28.02458,1008.38
20.333117485,-99.69483,34.5229,9.257318,-1.462301,0.8535736,1.0343,30.35283,24.32767,-28.02458,1008.38
20.367764473,-52.27056,-2.763658,-5.819291,-1.362486,-0.5690398,0.5338574,31.09112,23.91874,-29.36543,1008.378
20.399937153,-8.962115,-6.610684,-36.9531,-1.11645,-0.1495514,0.4569361,32.25357,23.54992,-27.13796,1008.378
20.434584141,-47.23326,-11.75978,-55.15535,-0.7944824,-0.1764331,0.5144421,32.25357,23.54992,-27.13796,1008.38
20.466756821,-33.28856,-12.23326,-60.18088,-0.6796536,-0.3475288,0.5567861,31.49821,24.32293,-27.13782,1008.38
20.501400948,-5.399152,-20.28242,-60.30346,-0.575474,-0.3425103,0.5823653,29.99981,27.02371,-26.25055,1008.381
20.533573151,-17.50094,-32.88883,-51.6007,-0.6886522,-0.3887836,0.5512279,29.99981,27.02371,-26.25055,1008.381
20.568220616,-16.02661,-46.79731,-51.41684,-0.721971,-0.3926103,0.5370473,28.11114,28.57508,-26.24832,1008.381
20.600393295,-7.917799,-63.07318,-58.34227,-0.9887381,-0.3756222,0.4909946,25.46711,30.89946,-26.24594,1008.381
20.635040760,-5.399152,-73.78568,-64.77741,-0.7591702,-0.2929125,0.4755563,25.46711,30.89946,-26.24594,1008.38
20.667213440,-22.41538,-90.71259,-69.68037,-0.6612285,-0.541231,0.752637,23.93275,31.66047,-28.02705,1008.38
20.701856613,-8.10209,-102.9047,-72.43829,-0.5537033,-0.5121152,0.7581397,20.14809,32.47073,-28.45772,1008.38
20.734029293,-3.55624,-107.8171,-68.27077,-0.3239642,-0.3769122,0.5633469,20.14809,32.47073,-28.45772,1008.38
20.768676281,6.026905,-107.7579,-57.36168,-0.4354366,-0.7146024,0.7601868,15.15584,34.43003,-29.7804,1008.381
20.800849438,34.53061,-127.4665,-56.07465,-0.4423762,-0.5213134,0.7700391,10.98225,34.85398,-31.03608,1008.381
20.835496902,-22.35395,-144.3934,-49.2105,-0.3492033,-0.2743696,0.8786914,10.98225,34.85398,-31.03608,1008.381
20.867669582,-50.7348,-149.5425,-62.75494,-0.05790164,-0.4215857,1.236259,6.051959,35.28785,-32.35164,1008.381
20.899837971,-71.98972,-93.25755,-77.89284,0.3363905,-0.859952,1.040022,0.7781382,35.38006,-30.98572,1008.381
20.934484959,7.071221,-46.56057,-55.70693,0.1129672,-0.6811516,0.7307635,0.7781382,35.38006,-30.98572,1008.381
20.966657639,5.044018,-19.86813,-40.01745,-0.1420841,-0.7135046,0.6509367,-5.618513,35.88007,-28.78706,1008.383
21.001305580,62.48145,-6.847424,-19.4863,-0.2097865,-0.6177877,0.6200636,-7.880116,36.2991,-28.33104,1008.387
21.033478260,66.65872,-12.47,-17.70897,-0.1499557,-0.6623403,0.7348179,-7.880116,36.2991,-28.33104,1008.388
21.068125248,118.6289,-3.947358,-9.435225,0.05907468,-0.4852707,0.6687753,-9.403688,35.92807,-29.214,1008.388
21.100294113,107.8171,7.238609,0.7997077,0.2243387,-0.4694306,0.8153376,-10.94428,34.77853,-31.36833,1008.384
21.134941578,102.1655,11.02645,8.399299,0.1029442,-0.2880909,1.090295,-11.74896,30.93245,-34.9161,1008.384
21.167114258,43.56089,0.01803755,2.883466,0.0498988,-0.1474216,0.9815717,-11.74896,30.93245,-34.9161,1008.386
21.201761723,10.87991,-5.900464,0.1868374,0.03573993,-0.2009217,0.832325,-11.39542,28.99868,-36.69386,1008.39
21.233933926,-16.33377,3.332398,3.618911,0.006994531,-0.2336567,0.9118533,-11.41296,27.4579,-37.9615,1008.39
21.268581390,-12.27936,13.86733,7.234845,0.04397363,-0.3582168,0.9591634,-11.41296,27.4579,-37.9615,1008.386
21.300750732,-4.293405,17.83273,8.338012,-0.07288353,-0.3800503,0.8848818,-10.65156,27.07172,-37.51722,1008.386
21.335397720,-16.70235,11.204,3.618911,-0.08350468,-0.3098125,0.9226739,-10.64057,27.46341,-36.69028,1008.392
21.367570400,-48.46187,2.740548,-0.855042,-0.04562196,-0.4364897,1.13673,-10.64057,27.46341,-36.69028,1008.392
21.399742603,-42.99457,-6.729054,-8.454633,-0.000694342,-0.5487219,0.9623476,-10.26237,27.83917,-36.69407,1008.39
21.434390068,-9.023546,-6.788239,-5.206421,0.01092842,-0.4762511,0.8004027,-10.24426,28.99962,-35.36081,1008.39
21.466562748,7.501235,-0.9881077,-0.977616,-0.03135214,-0.41205,0.7902405,-10.24426,28.99962,-35.36081,1008.39
21.501206398,10.63419,4.220174,1.7803,-0.03775533,-0.3715273,0.8798043,-9.86504,30.89993,-35.37205,1008.39
21.533379078,12.29281,1.379293,3.00604,-0.03428641,-0.3967165,1.014524,-10.25531,29.75052,-36.2571,1008.39
21.568026066,3.692549,-2.526918,1.657726,0.02141566,-0.3828302,0.8998849,-10.25531,29.75052,-36.2571,1008.39
21.600198746,1.173902,-0.04114746,3.373763,0.02406815,-0.3313907,0.9002842,-9.493393,30.12661,-35.81654,1008.39
21.634846687,-5.522013,-4.775949,0.9222817,-0.03376165,-0.4416573,1.040659,-9.871847,29.36971,-35.81089,1008.388
21.667019367,-41.95025,-5.545353,-8.209484,-0.03337715,-0.4760499,0.9868696,-9.871847,29.36971,-35.81089,1008.392
21.701662541,-28.61985,-24.42537,-17.40254,-0.1530504,-0.4181651,1.177889,-10.24401,29.38076,-35.36267,1008.392
21.733834744,-88.39164,-60.40986,-39.15943,-0.1747078,-0.5208934,1.438006,-10.22616,30.16008,-34.02755,1008.39
21.768482208,-281.5289,-68.57739,-87.5149,-0.1729358,-0.4101053,1.014261,-10.22616,30.16008,-34.02755,1008.39
21.800655365,-350.8224,-69.46517,-119.139,0.1471976,-1.040808,0.5645632,-12.06943,31.75612,-30.51884,1008.39
21.835302353,-261.3797,-45.37687,-124.3484,0.2055426,-0.7807622,0.5873706,-15.32494,35.37595,-19.42492,1008.39
21.867475033,-199.1507,-24.48456,-123.4904,0.3380227,-1.096045,0.07020575,-15.32494,35.37595,-19.42492,1008.39
21.902118206,25.43892,1.734403,-95.91122,0.3765957,-0.8592684,-0.04195404,-20.16811,39.44981,-9.345181,1008.388
21.934290886,79.49768,15.40614,-75.07363,0.4185808,-0.4438157,0.1076071,-24.64035,38.8145,-4.409167,1008.388
21.966591358,70.22169,31.80039,-53.31673,0.4800709,-0.1696755,0.3237831,-24.64035,38.8145,-4.409167,1008.388
22.001239300,42.02512,46.53746,-30.70182,0.5455363,-0.3285061,0.3512648,-28.45625,36.10262,-7.054177,1008.388
22.033411980,29.73904,57.48669,-10.84483,0.4728894,-0.4663499,0.3676763,-30.00371,34.56545,-9.716682,1008.387
22.068058968,37.5407,58.72957,2.515744,0.3820922,-0.7019829,0.5945667,-30.00371,34.56545,-9.716682,1008.387
22.100227356,12.66139,55.82951,3.251189,0.304623,-0.7528198,0.7500743,-30.03858,33.00762,-12.32317,1008.385
22.134875298,-33.65714,23.63286,5.089799,0.2398671,-0.742358,0.9951384,-29.69505,33.34928,-15.00465,1008.387
22.167047977,-40.04591,14.16326,-2.203357,0.2908916,-1.08681,0.671293,-29.69505,33.34928,-15.00465,1008.387
22.201695442,25.68464,18.12865,-12.80601,0.2654925,-0.9603817,0.4330186,-29.32289,33.33822,-15.45286,1008.387
22.233867645,9.467009,5.463059,-22.85708,0.330292,-0.600801,0.6532421,-28.56123,33.33317,-15.01045,1008.385
22.268515110,-0.5461495,6.350834,-20.34432,0.4496032,-0.7059961,0.5582356,-29.32341,32.57595,-15.44914,1008.385
22.300683975,26.48323,21.62057,-6.922457,0.5306861,-0.6830807,0.4979001,-29.32341,32.57595,-15.44914,1008.385
22.335331440,31.82768,20.37768,1.596439,0.3766503,-0.5637602,0.576959,-30.09058,32.95646,-16.33969,1008.385
22.367504120,59.16421,18.01028,4.476929,0.3369537,-0.6502765,0.5987881,-29.3509,32.16802,-17.55117,1008.385
22.402151108,-19.15956,15.64288,-8.69978,0.2633164,-0.3536242,0.7518227,-29.3509,32.16802,-17.55117,1008.385
22.434323788,-94.41182,14.04489,-14.95106,0.4275178,-0.7326723,0.6724557,-29.37453,31.38301,-19.33257,1008.387
22.466496468,-101.9063,12.62444,-19.05729,0.2905536,-0.9183893,0.6076148,-29.73513,31.40544,-17.9918,1008.385
22.501140118,7.501235,10.67134,-8.332058,0.2649983,-0.981774,0.6169707,-29.73513,31.40544,-17.9918,1008.385
22.533312798,105.7285,-0.1595175,-0.1808848,0.2742943,-0.7362573,0.6753018,-29.71316,32.18882,-16.33791,1008.385
22.567959786,80.84915,0.9649978,-5.145133,0.3211302,-0.7194633,0.4913615,-29.72884,32.17339,-17.54924,1008.385
22.600132466,102.9641,5.226319,-2.693653,0.3862083,-0.580992,0.6774656,-29.72884,32.17339,-17.54924,1008.383
22.634780407,51.6697,4.930394,-1.71306,0.3961519,-0.5436758,0.7393764,-29.39212,30.98483,-20.66956,1008.383
22.666952610,50.56395,3.095658,0.3094114,0.3942795,-0.4749644,0.7737003,-30.17818,29.06147,-22.88779,1008.383
22.701596260,-65.60095,-4.124913,-12.43829,0.3347501,-0.4003058,0.9127231,-30.17818,29.06147,-22.88779,1008.383
22.733768463,-69.96252,-15.31088,-12.19314,0.2907991,-0.6040703,0.8333694,-29.812,27.52101,-23.71108,1008.383
22.768415928,-78.86993,-17.6191,-15.01234,0.4043354,-0.5185616,0.5394773,-30.53352,28.32731,-21.09701,1008.381
22.800588131,-72.84975,-9.688305,-14.70591,0.4054332,-0.7243066,0.421127,-30.53352,28.32731,-21.09701,1008.381
22.835236073,56.39984,2.385438,0.5545595,0.4141152,-1.093406,0.5876669,-30.88732,29.87995,-19.31739,1008.38
22.867408752,109.7829,9.250899,-1.161477,0.4268678,-0.5573564,0.6845111,-31.63164,29.90206,-18.42097,1008.38
22.902051926,-165.6097,-8.622974,-6.799883,0.3302248,-0.0716904,0.9121005,-31.63164,29.90206,-18.42097,1008.381
22.934224606,-120.274,0.1955926,-3.36781,0.3943479,-1.38639,0.4095062,-31.27733,29.11168,-20.2043,1008.383
22.968872547,31.15194,-7.380089,8.399299,0.5260512,-0.6756549,0.6397123,-31.22672,29.54236,-16.31714,1008.383
23.001044750,-64.55664,-0.1003325,8.215438,0.5186502,-0.3808647,0.7198136,-31.22672,29.54236,-16.31714,1008.387
23.033217430,-93.24464,-13.59452,2.148022,0.6347079,-0.7980937,0.5046572,-31.23121,31.44234,-16.77273,1008.387
23.067864895,-143.4333,-10.28016,0.06426332,0.4715784,-0.6718698,0.7178538,-31.19077,31.48213,-13.64877,1008.387
23.100033283,-128.69,-27.97647,-6.432161,0.4486185,-1.010461,0.414027,-31.19077,31.48213,-13.64877,1008.387
23.134680271,-10.12929,-26.73359,7.909002,0.4000081,-0.7426702,0.3651143,-31.13856,33.05702,-9.703438,1008.388
23.166853428,-19.8353,-37.38689,17.96007,0.285475,-0.591319,0.6580764,-32.23193,33.11292,-6.573671,1008.388
23.201500893,-3.126227,-47.09323,22.31145,0.2622735,-0.8325235,0.3945787,-32.23193,33.11292,-6.573671,1008.388
23.233673573,34.65348,-25.25396,33.8947,0.3527187,-0.8257517,-0.05398692,-32.21434,33.51111,-5.236691,1008.388
23.268320561,129.502,1.260923,19.36967,0.1817545,-1.131525,-0.09973842,-31.44613,34.65514,-4.35358,1008.388
23.300488949,169.1247,18.36539,5.641382,0.3997659,-0.9241915,0.3660301,-30.3412,34.61061,-6.590783,1008.388
23.335136890,81.34059,18.77969,-13.05116,0.244596,-0.8776573,0.6358533,-30.3412,34.61061,-6.590783,1008.388
23.367309570,136.0137,-2.053438,-31.00826,0.3269356,-1.189456,0.5385246,-30.40394,34.54889,-11.43612,1008.388
23.401957035,202.5428,-8.9189,-37.25953,0.34584,-0.945613,0.6377223,-30.45119,32.97888,-14.99892,1008.388
23.434129238,237.7424,-18.50687,-49.76209,0.3862541,-0.7863924,0.6661319,-30.45119,32.97888,-14.99892,1008.388
23.468776703,223.4292,-22.94575,-47.98476,0.5291384,-0.3613169,0.6808349,-31.65501,29.49819,-20.20423,1008.387
23.500945568,144.2453,-18.50687,-51.72327,0.6300625,-0.1637499,0.7485199,-33.59319,24.90676,-23.67872,1008.384
23.533118248,69.05451,-17.97421,-53.56188,0.7123154,-0.2818652,0.7795547,-33.59319,24.90676,-23.67872,1008.384
23.567765713,54.43407,0.7874427,-56.13594,0.6527398,-0.3685364,0.6425081,-34.76528,19.55289,-26.32455,1008.387
23.599937916,76.3033,0.8466278,-52.88773,0.6486133,-0.3547707,0.725564,-35.9072,16.13311,-26.74828,1008.387
23.634585381,87.66792,-9.806675,-37.99498,0.5437482,-0.04490332,0.8727329,-35.9072,16.13311,-26.74828,1008.387
23.666758061,98.35682,-16.55377,-23.83768,0.5048585,-0.02656901,0.7074392,-36.29348,12.32146,-27.17402,1008.387
23.701401711,115.9259,-28.62751,-1.406625,0.5284619,0.2136997,0.7868016,-37.81256,10.05045,-27.6014,1008.387
23.733574391,73.23178,-19.15791,8.460586,0.3382294,0.3327506,0.6815903,-37.81256,10.05045,-27.6014,1008.385
23.768221378,-2.941936,-23.41923,20.10512,0.2686883,0.4701301,0.7021697,-37.81462,7.001376,-27.58652,1008.385
23.800394058,-45.14463,-13.06185,12.6281,0.1487712,0.06059304,0.4512007,-38.56601,5.112131,-27.12707,1008.385
23.835042000,-39.80019,-3.000398,7.725141,0.07631578,0.3188169,0.5311255,-38.56601,5.112131,-27.12707,1008.383
23.867214203,-79.05421,10.8489,9.870188,0.04348523,0.285565,0.4149958,-39.3093,6.658772,-26.23808,1008.383
23.901857853,-100.432,44.46598,16.61176,0.5765223,0.4787108,0.6285141,-39.30327,7.04559,-25.79366,1008.383
23.934030056,-325.9431,37.00867,9.625039,1.27371,2.743925,3.405432,-39.30327,7.04559,-25.79366,1008.383
23.968677521,-527.6805,-5.782094,91.81094,0.2575083,-2.481062,-0.7695003,-38.93534,9.315653,-26.69932,1008.383
24.000849724,-49.62905,11.26319,86.54025,0.6851323,-1.711694,0.2686692,-37.30922,17.40518,-18.33055,1008.383
24.035497665,85.14928,1.734403,42.96518,0.05574925,-1.145687,0.1857003,-37.30922,17.40518,-18.33055,1008.383
24.067670345,177.5406,16.05718,25.06937,0.4267029,-0.6921605,0.3233477,-35.38534,27.69574,-16.28657,1008.383
24.099838734,29.8619,18.77969,2.209309,0.5119022,-0.205331,0.8191696,-34.66119,29.55819,-18.84991,1008.385
24.134486198,-13.69226,5.344689,-3.735532,0.504533,-0.9518205,0.9422601,-34.66119,29.55819,-18.84991,1008.385
24.166658878,87.72935,2.207883,-0.1808848,0.4278341,-0.6426276,0.9570928,-32.80745,27.59157,-21.52797,1008.385
24.201306343,85.27214,-27.32544,-8.148197,0.3947607,-0.6975642,1.113116,-33.18565,27.21581,-21.52417,1008.383
24.233479023,66.72015,-40.22777,-24.81827,0.4221636,-0.6953632,1.353396,-33.18565,27.21581,-21.52417,1008.383
24.268126488,75.44328,-72.66116,-44.36883,0.3985367,-0.7925168,1.20195,-33.96567,25.67927,-23.29798,1008.381
24.300294876,118.2603,-92.07384,-61.83563,0.3641746,-0.5802072,1.017005,-34.71731,23.40889,-22.83667,1008.381
24.334941864,50.56395,-110.5988,-80.28303,0.4393454,-0.4273458,1.061426,-36.59751,20.39803,-21.91955,1008.381
24.367115498,53.0826,-120.8969,-95.72736,0.5617371,-0.6393601,1.152526,-36.59751,20.39803,-21.91955,1008.381
24.401762486,99.21684,-135.5748,-107.0042,0.5974067,-0.383129,0.9176439,-38.82727,16.6587,-18.76538,1008.381
24.433935166,88.28223,-142.7954,-117.9745,0.7592983,-0.3998534,0.6783696,-42.19251,12.93386,-15.73291,1008.379
24.468582153,140.8052,-136.6402,-118.281,0.7322846,-0.2731085,0.4801188,-42.19251,12.93386,-15.73291,1008.379
24.500750542,140.3138,-144.9261,-123.0614,0.688883,-0.1510063,0.4246545,-44.01152,7.697921,-9.959295,1008.379
24.535398483,157.8215,-146.2873,-120.7325,0.7876732,0.05763914,0.2909749,-45.84126,2.451428,-5.014489,1008.377
24.567571163,137.5494,-151.0813,-119.0777,0.7759292,0.124959,0.1383636,-45.84126,2.451428,-5.014489,1008.377
24.602218628,139.0852,-141.6117,-116.2585,0.7895166,0.03986299,-0.06201249,-46.14329,-3.626086,1.2017,1008.377
24.634390831,128.7649,-142.9138,-118.2197,0.6574615,0.3050938,0.006958229,-44.54248,-7.368748,8.289309,1008.376
24.666563511,76.9176,-147.5302,-125.5128,0.5856455,0.3407146,-0.0778739,-44.54248,-7.368748,8.289309,1008.376
24.701207161,92.02949,-136.9953,-122.7549,0.5737016,0.3223356,-0.3290357,-42.58685,-11.13952,13.58986,1008.374
24.733379841,88.28223,-124.0337,-116.994,0.4808984,0.4934193,-0.4217132,-39.11919,-14.55063,18.88081,1008.374
24.768027306,50.31823,-113.9723,-112.949,0.4381975,0.5538531,-0.4801025,-39.11919,-14.55063,18.88081,1008.374
24.800199509,33.79345,-100.1822,-108.7815,0.3639618,0.6189273,-0.4605573,-35.65051,-16.43721,24.16433,1008.37
24.834846973,17.9444,-89.82481,-104.5527,0.3076611,0.6809379,-0.5120587,-30.69865,-19.13514,27.27618,1008.37
24.867019653,-0.7304407,-80.65114,-98.11755,0.2876537,0.7689726,-0.4383644,-30.69865,-19.13514,27.27618,1008.37
24.901663303,-14.30656,-71.12235,-89.10836,0.2586429,0.7075778,-0.5509056,-26.88066,-20.67438,30.32449,1008.37
24.933835983,-19.40529,-55.73425,-88.12777,0.2140771,0.8420117,-0.5185336,-21.95743,-23.0196,31.20308,1008.37
24.968571663,-30.9542,-47.38916,-81.07976,0.2173025,0.8190564,-0.4719989,-21.95743,-23.0196,31.20308,1008.37
25.000744343,-2.880505,-38.86652,-67.84177,0.2082469,1.006887,-0.479042,-18.1738,-25.3544,31.64118,1008.372
25.035391331,4.798296,-23.36004,-38.91428,0.232963,1.227114,-0.6061509,-14.71039,-26.92815,31.6309,1008.372
25.067564011,5.781183,2.681363,1.473865,0.2826645,1.458504,-0.8432968,-14.71039,-26.92815,31.6309,1008.367
25.102208138,-24.31972,33.69431,51.42279,0.2858534,1.451845,-0.6346757,-12.8212,-27.71725,31.62495,1008.369
25.134380341,-48.5233,49.43752,77.04076,0.2731182,1.162207,-0.5000568,-12.82094,-27.33612,31.62309,1008.371
25.166553021,-112.4109,58.90713,83.23075,0.3015518,1.037424,-0.4242309,-12.82094,-27.33612,31.62309,1008.371
25.201200008,-133.6658,52.87025,86.66283,0.2985976,0.8401182,-0.33184,-14.73427,-28.09429,29.85136,1008.371
25.233372688,-104.1793,43.51902,87.45956,0.3347964,0.7093052,-0.02574059,-18.24489,-29.23314,26.36818,1008.371
25.268020630,-67.87388,35.82497,78.87937,0.3672883,0.5870981,0.009098709,-18.24489,-29.23314,26.36818,1008.371
25.300189018,-112.5338,25.76352,58.83852,0.4300381,0.6034898,0.0351583,-20.9322,-31.14102,23.26705,1008.365
25.334836483,-112.5338,0.6098877,36.16232,0.4128048,0.4235847,0.04588593,-23.98981,-31.51251,20.67046,1008.365
25.367009163,-100.8006,-14.48229,9.747613,0.3945568,0.4200399,0.1409809,-23.98981,-31.51251,20.67046,1008.365
25.401656151,-83.41578,-21.34775,-24.51183,0.397065,0.3112868,0.2017568,-25.93177,-31.91796,16.66546,1008.365
25.433828831,-77.2113,-26.85196,-59.69059,0.3451212,0.3065486,0.1202626,-26.71623,-32.6971,14.5054,1008.365
25.468476772,-94.7804,-18.56606,-101.3658,0.3056941,0.5133202,0.03220119,-24.85123,-35.097,12.72208,1008.361
25.500645161,-98.40479,-6.788239,-127.4127,0.2346265,0.5713821,0.025631,-24.85123,-35.097,12.72208,1008.361
25.535292149,-106.4522,20.02257,-145.615,0.2135724,0.8710483,0.1627758,-21.8697,-37.46655,9.593813,1008.359
25.567464829,-179.9844,54.64581,-144.328,0.2601025,1.17019,0.2125257,-17.38741,-40.24926,5.630859,1008.359
25.602112293,-263.4683,81.81172,-148.7406,0.2673447,0.9839841,0.1771831,-17.38741,-40.24926,5.630859,1008.361
25.634285450,-222.0642,104.4796,-108.5363,0.04969424,0.891136,0.3963123,-12.89386,-42.70289,-2.350801,1008.359
25.701100826,-77.82561,89.44659,-27.82133,-0.131293,1.26436,1.094675,-7.344715,-43.28231,-11.62233,1008.361
25.733273506,-115.2982,60.56431,-3.98068,-0.1404366,1.057667,1.035699,-2.860928,-42.63563,-15.66579,1008.361
25.767920971,-137.0445,40.08629,5.763957,-0.1186744,0.785762,0.9113081,-0.6368351,-41.18716,-19.12757,1008.361
25.800093174,-129.7343,28.90032,8.58316,-0.1074227,0.5556275,0.9097878,-0.6368351,-41.18716,-19.12757,1008.363
25.834741116,-92.01604,14.28163,5.518808,-0.1064158,0.4343123,0.9140803,-0.3261204,-39.35427,-24.43042,1008.363
25.866913795,-77.70274,12.09178,1.16743,-0.09870213,0.3733328,0.8161417,0.0194664,-35.96354,-27.12678,1008.359
25.901556969,-32.61283,12.92037,-7.535327,-0.05664152,0.248523,0.7713403,0.0194664,-35.96354,-27.12678,1008.361
25.933729649,-17.6238,12.802,-14.64462,-0.08364895,0.4016456,0.9097426,0.3692865,-34.85394,-29.3657,1008.361
25.968376636,-21.8625,12.74282,-21.01847,-0.104362,0.3938127,0.8876993,0.3596277,-33.27644,-30.20226,1008.361
26.000549316,-11.66505,18.89806,-24.87955,-0.1032854,0.2755371,0.7826023,0.3596277,-33.27644,-30.20226,1008.362
26.035197258,-7.856369,30.9718,-25.43114,-0.1242259,0.4341792,0.8853254,1.109986,-32.91172,-30.65427,1008.361
26.067369461,-35.07005,27.0064,-24.51183,-0.188461,0.5162367,1.099645,2.616481,-32.17662,-31.11201,1008.362
26.102013111,-32.42854,12.62444,-18.19927,-0.2296801,0.2885844,1.008501,2.616481,-32.17662,-31.11201,1008.362
26.134185314,-20.4496,5.936539,-11.15126,-0.2592476,0.476539,0.9414005,4.1172,-31.4472,-32.01603,1008.362
26.168832779,-40.90593,8.599864,-10.78354,-0.17268,0.2897396,0.8802488,5.623693,-30.71209,-32.47377,1008.362
26.201005936,-22.23108,0.7282577,-6.493448,-0.3698312,0.2363709,1.196876,5.623693,-30.71209,-32.47377,1008.364
26.233178616,-18.11525,-24.54374,-3.306523,-0.2737881,0.3364297,1.079197,5.612908,-29.58006,-33.37191,1008.366
26.267825604,8.29983,-26.43766,-5.63543,-0.2077104,0.1973514,0.6470082,5.990849,-29.58543,-33.37384,1008.366
26.299993992,8.606983,-10.75364,-12.377,-0.1072086,0.3238212,0.8731708,5.990849,-29.58543,-33.37384,1008.366
26.334641457,-41.58167,1.438478,-18.38313,-0.1513722,0.2817468,0.8645601,5.607644,-28.82348,-33.82191,1008.366
26.366814137,-28.80414,0.6690727,-20.8959,-0.2330274,0.12094,0.9816042,5.217893,-29.21061,-34.71068,1008.368
26.401461601,18.00583,-8.741344,-23.16352,-0.324934,0.1401435,0.8948962,5.217893,-29.21061,-34.71068,1008.368
26.433634281,15.9172,-14.18637,-28.86321,-0.3127562,0.1453447,0.9478453,5.591083,-27.69713,-35.16634,1008.368
26.468281746,25.25462,-16.0211,-27.26975,-0.248529,0.2642953,0.8677328,5.975059,-27.31568,-34.72385,1008.368
26.500450134,40.79652,-9.51075,-22.3055,-0.1396302,0.3272462,0.7298657,5.975059,-27.31568,-34.72385,1008.364
26.535097122,16.53151,1.379293,-15.01234,-0.03333139,0.5174271,0.9762615,5.608417,-27.68008,-33.82749,1008.365
26.567269802,-17.0095,3.805878,-11.21255,-0.09522747,0.4181917,1.033861,7.136737,-28.8279,-32.49081,1008.365
26.601917744,-34.45574,3.214028,-5.758004,-0.1675951,0.4604895,0.9963248,6.368789,-29.5908,-33.37578,1008.364
26.634090424,-29.60274,5.522244,-2.571079,-0.1942239,0.2466684,1.008789,6.368789,-29.5908,-33.37578,1008.364
26.668737412,-32.98141,5.107949,0.4319854,-0.1643792,0.2504964,0.9579317,7.119403,-28.84495,-33.82965,1008.364
26.700906277,-41.33595,7.83046,2.331883,-0.1633137,0.1428118,0.9044961,7.480781,-27.72397,-35.176,1008.364
26.735553265,-34.21002,10.67134,4.415642,-0.1503307,0.1908906,0.9163393,7.480781,-27.72397,-35.176,1008.364
26.767726421,-31.01563,9.487639,6.009105,-0.2099009,0.1664551,0.9822456,7.469737,-26.97308,-36.07229,1008.364
26.799899101,-26.53121,5.818169,6.92841,-0.2239302,0.1033267,0.9693241,7.476289,-25.82399,-35.63159,1008.364
26.834546089,-7.794939,4.042619,6.070392,-0.2308611,0.1438904,0.9379112,7.476289,-25.82399,-35.63159,1008.364
26.866718769,-12.70937,8.481494,4.66079,-0.2174548,0.1532597,0.9026774,7.837153,-25.46528,-36.97423,1008.364
26.901361942,-15.16659,9.487639,6.131679,-0.270449,0.1807083,1.0292,8.59958,-24.32693,-36.53739,1008.365
26.933534622,-13.44654,-0.7513676,9.134743,-0.3481613,0.17373,1.0183,8.59958,-24.32693,-36.53739,1008.365
26.968182564,3.569688,-9.03727,15.56988,-0.3557208,0.2944033,0.989481,8.211167,-23.95099,-37.36613,1008.367
27.000354767,-14.73657,-10.33934,22.61789,-0.309941,0.2815941,0.8684484,8.216687,-24.32644,-36.91799,1008.369
27.035002232,-50.7348,-9.27401,25.92739,-0.3221609,0.7046098,0.8937398,8.216687,-24.32644,-36.91799,1008.369
27.067174912,-53.49917,-5.071874,27.33699,-0.390688,-0.2716009,0.6443676,7.455802,-23.17798,-37.36598,1008.367
27.101818085,-49.75191,-63.60585,22.43403,-0.8674653,0.2169698,0.814796,6.67707,-22.80885,-39.1491,1008.369
27.133990288,19.84875,-77.21841,24.27264,-0.4238395,0.09004124,0.879982,6.67707,-22.80885,-39.1491,1008.369
27.168638229,-27.5141,-96.27599,14.28285,-0.3720235,0.2136212,0.8887113,4.404424,-21.63893,-39.58936,1008.371
27.200810909,-16.64092,-109.0008,14.40543,-0.1983299,0.1064184,0.8201728,1.375129,-21.60166,-40.02016,1008.371
27.235457897,-37.15868,-110.7763,18.3278,-0.03225217,0.1729556,0.8066397,1.375129,-21.60166,-40.02016,1008.371
27.267630577,-38.63301,-103.6741,25.98867,0.1257775,0.08661746,0.6641915,-2.793505,-21.17285,-40.89332,1008.371
27.299798966,-61.54655,-85.97779,37.02034,0.2273914,0.3342852,0.5573173,-6.950069,-19.97039,-40.87762,1008.369
27.334446907,-115.0524,-65.85489,41.49429,0.349275,0.1120628,0.7090698,-6.950069,-19.97039,-40.87762,1008.369
27.366619587,-146.3205,-64.96711,39.41053,0.2945941,0.02285076,0.7493325,-11.49035,-18.76825,-41.30628,1008.369
27.401266575,-171.1384,-62.36296,30.21748,0.3961912,-0.254057,0.7200737,-14.90053,-14.53884,-42.2019,1008.365
27.433439255,-187.6632,-59.4629,17.89879,0.3518241,-0.3277484,0.7025281,-14.90053,-14.53884,-42.2019,1008.367
27.468086720,-177.5272,-61.29763,1.7803,0.4585719,-0.8785058,0.6637337,-18.3669,-8.778309,-42.65837,1008.361
27.500255108,-112.8409,-55.73425,0.9835687,0.5360425,-0.6890329,0.6737308,-20.62439,-2.261144,-42.23212,1008.361
27.534903050,-109.0937,-43.54213,-0.855042,0.5866982,-0.7991048,0.6574087,-20.62439,-2.261144,-42.23212,1008.363
27.567075730,-110.1994,-34.07253,0.1255503,0.5529891,-0.8675637,0.5699169,-22.87027,4.330914,-40.91362,1008.363
27.601722717,-89.37453,-22.05797,6.192966,0.4856068,-0.9348896,0.4817848,-24.36187,8.561911,-39.58751,1008.365
27.633895397,-62.09943,-18.68443,8.154151,0.4144131,-0.9688952,0.6209846,-25.47026,12.03096,-37.81333,1008.365
27.668542385,-33.78001,-25.4907,5.641382,0.4008985,-1.005443,0.6564774,-25.47026,12.03096,-37.81333,1008.365
27.700711250,-4.784848,-29.21936,2.331883,0.4937814,-0.8132566,0.5246452,-25.83484,14.71563,-36.93186,1008.365
27.735358715,-12.1565,-16.25784,0.7384206,0.5707686,-0.6972048,0.4545116,-26.96268,16.26114,-36.55098,1008.365
27.767531395,-31.19993,-4.006543,1.964161,0.6070216,-0.6706965,0.5165699,-26.96268,16.26114,-36.55098,1008.365
27.802178860,-31.99852,5.877354,8.767021,0.464054,-0.7053482,0.6516141,-27.70726,15.90212,-35.65269,1008.365
27.834351063,-46.12752,-1.284033,8.767021,0.416692,-0.7046538,0.6482058,-28.07865,17.05657,-35.21005,1008.365
27.866523743,-39.92305,-5.012689,5.518808,0.4325785,-0.8261951,0.5067937,-28.07865,17.05657,-35.21005,1008.365
27.901167870,-30.15561,-2.704473,-1.529199,0.4196,-0.8428377,0.4802676,-26.93199,18.9575,-34.3326,1008.365
27.933340073,-34.02573,-2.882028,-3.36781,0.4354834,-0.7769065,0.4801809,-27.29786,19.7365,-33.44183,1008.365
27.967987537,-15.47374,0.7282577,-2.14207,0.4937597,-0.8509199,0.424079,-27.29786,19.7365,-33.44183,1008.365
28.000159740,3.81541,4.101804,-2.632366,0.4402893,-0.8393411,0.4434714,-28.04744,20.51519,-32.9954,1008.367
28.034807205,-0.6075799,1.852773,-3.061375,0.416469,-0.738148,0.5216478,-27.66873,21.65323,-33.00291,1008.367
28.066979885,-2.14334,0.4323326,-2.938801,0.4154662,-0.8309381,0.4471463,-27.66873,21.65323,-33.00291,1008.367
28.101623535,-3.187657,-0.2778875,-1.958208,0.4025007,-0.6881032,0.5192987,-28.05296,20.89064,-33.44354,1008.367
28.133796215,-11.3579,-2.467733,-0.7324679,0.4831483,-0.8135559,0.478952,-27.6808,20.87959,-33.89175,1008.367
28.168443203,-7.119204,-1.579958,-0.3647459,0.4072977,-0.8452882,0.4692762,-27.6808,20.87959,-33.89175,1008.363
28.200615883,5.965474,-0.3370725,-1.038903,0.3983081,-0.8618729,0.4528354,-28.04693,21.27746,-32.99912,1008.364
28.235262871,19.5416,-3.118768,-4.041967,0.4190576,-0.8511054,0.4777945,-27.66899,21.27209,-33.00105,1008.364
28.267435551,64.44723,-5.663723,-7.290179,0.4112681,-0.9129093,0.4518117,-27.66899,21.27209,-33.00105,1008.364
28.302079678,80.05055,-7.320904,-10.78354,0.441196,-0.7727512,0.5192038,-28.05245,21.65291,-33.44726,1008.364
28.334251881,84.47354,-6.669869,-10.53839,0.4470609,-0.7597157,0.5139546,-27.68735,19.7305,-34.33245,1008.363
28.368899345,88.95796,-6.433129,-9.12879,0.4527605,-0.5549659,0.5705373,-27.68735,19.7305,-34.33245,1008.364
28.401072025,48.16817,-7.084164,-6.922457,0.493649,-0.6012396,0.6387002,-28.84031,17.06162,-35.65247,1008.364
28.433244228,49.64249,-4.184098,-7.106318,0.4797051,-0.6569994,0.5742646,-28.84814,14.00687,-36.08386,1008.364
28.467891693,30.90622,0.2547776,-8.822354,0.4730816,-0.5963672,0.6278463,-28.84814,14.00687,-36.08386,1008.364
28.500060082,45.83381,-1.816698,-5.574143,0.4568003,-0.6037396,0.6684254,-29.23784,12.47715,-36.90329,1008.366
28.534708023,27.95756,-7.084164,-2.325931,0.4960919,-0.4697557,0.6334954,-29.24491,10.56579,-37.34027,1008.366
28.566880703,3.016814,1.616033,0.1868374,0.585288,-0.4325779,0.6026036,-29.24491,10.56579,-37.34027,1008.366
28.601527691,-20.69533,8.599864,2.822179,0.4787823,-0.5260112,0.691515,-29.2399,9.428078,-36.8884,1008.368
28.633700371,-25.05688,4.989579,4.109207,0.4495083,-0.591626,0.7240233,-29.23438,9.052629,-36.44026,1008.368
28.668347359,-21.06391,0.7282577,2.454457,0.4461434,-0.6529012,0.6435376,-29.2399,9.428078,-36.8884,1008.368
28.700516701,-8.224951,-2.171808,0.4932725,0.4659617,-0.6430552,0.6742818,-29.2399,9.428078,-36.8884,1008.368
28.735163689,2.893954,-5.190243,-2.571079,0.4439094,-0.6976362,0.6316216,-28.85649,10.18985,-36.51154,1008.368
28.767336369,21.81452,-3.414693,-5.451569,0.4267848,-0.6676109,0.611785,-29.23913,10.57148,-36.89399,1008.368
28.801983833,39.13789,-3.000398,-7.290179,0.4254932,-0.6601933,0.6287282,-29.23913,10.57148,-36.89399,1008.368
28.834156036,65.73727,-4.716763,-9.312651,0.4211625,-0.6591486,0.6355252,-29.24021,10.18953,-36.95588,1008.368
28.868803978,92.88951,-8.682159,-14.09304,0.3435161,-0.7318699,0.7224101,-29.23463,8.671495,-36.4384,1008.37
28.900972843,145.1668,-23.41923,-17.34125,0.2733937,-0.6932956,0.8959382,-29.23463,8.671495,-36.4384,1008.374
28.933145046,169.6161,-51.65048,-13.41888,0.1905981,-0.4810438,0.9871484,-29.61412,6.390063,-36.4253,1008.374
28.967792511,264.3418,-98.05153,3.251189,0.2130058,-0.5203235,0.9432356,-30.3739,0.620275,-36.39322,1008.374
28.999964714,380.3224,-140.5464,49.76804,0.3531179,-0.06068366,0.8435336,-30.3739,0.620275,-36.39322,1008.374
29.034612179,378.1723,-166.351,123.5576,0.3653716,0.5233813,0.6833906,-32.1992,-5.383612,-31.06216,1008.372
29.066784859,361.279,-163.9244,195.6925,0.5588787,0.6886354,0.4597816,-35.8819,-13.61416,-23.09634,1008.374
29.101428509,288.4839,-116.3989,266.7854,0.4890603,0.8470397,0.437157,-35.8819,-13.61416,-23.09634,1008.37
29.133601189,150.2655,-87.45741,301.0448,0.4557527,0.5672174,0.3835869,-41.4213,-15.69131,-12.91923,1008.374
29.168248177,68.93165,-54.66891,322.1888,0.2819248,0.1470232,0.226541,-45.11625,-9.079576,-6.747347,1008.37
29.200420857,6.8255,-35.43378,320.9018,0.06915363,-0.124025,0.1250719,-45.11625,-9.079576,-6.747347,1008.37
29.235067844,-32.91998,-15.19251,302.2093,0.1671715,-0.684361,0.0973659,-46.2098,0.4981646,-4.174134,1008.368
29.267240524,78.14621,17.9511,293.0775,0.3134319,-1.021665,0.06960241,-43.53732,14.6431,-2.917988,1008.368
29.301884651,153.3371,61.57045,283.6393,0.4182022,-0.6324551,0.4444191,-43.53732,14.6431,-2.917988,1008.368
29.334056854,63.52577,95.83857,268.8691,0.4006311,-0.9873479,0.673981,-39.40111,24.84704,-5.157149,1008.368
29.368704319,132.205,116.7309,253.241,0.06681041,-1.307702,0.7096408,-31.533,33.04615,-10.97659,1008.368
29.400876999,212.1874,129.9291,202.1276,-0.3225697,-1.226501,0.7920275,-31.533,33.04615,-10.97659,1008.368
29.435523987,221.5862,127.3842,132.3217,-0.3269565,-0.8273457,1.064315,-22.92729,38.61386,-18.06227,1008.368
29.467696667,177.3563,74.59115,70.11533,-0.1876108,-0.2103901,1.726994,-13.16365,39.1114,-27.87102,1008.37
29.499866009,94.67099,3.095658,-59.44544,-0.9853989,-2.612251,0.8672821,-13.16365,39.1114,-27.87102,1008.371
29.534512997,13.70571,9.073344,-54.72634,0.2109908,0.4915894,0.678303,-7.554381,34.71885,-32.2783,1008.371
29.566685677,-60.99368,-0.8105526,-43.02052,-0.1823696,-0.6747912,0.4838959,-6.833429,34.29287,-34.95799,1008.373
29.601332665,66.04442,25.34922,-34.5629,-0.02712731,-0.1510218,0.5277354,-6.833429,34.29287,-34.95799,1008.375
29.633505345,97.74252,31.26772,-15.01234,0.1437103,-0.4256088,0.7812652,-9.09054,32.81191,-34.04638,1008.377
29.668152332,177.2949,30.49832,6.009105,-0.1598796,-0.296122,1.642161,-8.741489,32.77812,-36.27972,1008.378
29.700321675,12.23138,0.9649978,-19.17986,0.03494633,0.04761662,1.024289,-8.741489,32.77812,-36.27972,1008.374
29.734969139,-24.44258,6.469204,-13.41888,0.01445759,-0.1502396,0.6560476,-8.417299,28.91106,-40.21581,1008.374
29.767141342,55.9084,21.97568,-8.51592,0.05053208,-0.5024162,0.7058275,-8.419101,26.24313,-40.20279,1008.376
29.801788807,74.0918,9.72438,-13.72532,-0.1886948,-0.2164708,1.252185,-8.808597,26.23713,-41.09341,1008.374
29.833961010,47.18528,7.71209,-15.93165,-0.02452943,-0.1318465,1.002157,-8.808597,26.23713,-41.09341,1008.376
29.868608475,36.43496,11.38156,-8.08691,-0.05723747,-0.1055453,0.9298968,-8.077116,24.29798,-42.8731,1008.382
29.900777817,39.62934,7.297794,-5.696717,-0.1060937,-0.08463582,1.029335,-8.089132,22.38176,-43.6926,1008.382
29.935424805,20.03304,0.6690727,-3.858106,-0.08841787,-0.04062004,1.020857,-8.089132,22.38176,-43.6926,1008.382
29.967674255,-13.20081,-4.539208,-0.4260329,-0.03644416,-0.006282205,0.975347,-7.724293,20.07822,-44.57594,1008.378
29.999846458,-17.0095,0.4323326,-0.5486069,-0.05283757,-0.1176865,0.9948255,-8.480429,19.70782,-44.57021,1008.38
30.034493923,-9.146406,0.1364076,-0.3647459,-0.07352978,-0.1762751,0.9998375,-8.480429,19.70782,-44.57021,1008.38
30.066666126,-13.87655,-1.698328,-1.467912,-0.05920852,-0.12683,0.9379336,-8.096455,20.08927,-44.12772,1008.38
30.101309776,-14.67514,-1.461588,-1.774347,-0.05537415,-0.1313021,0.989917,-8.096455,20.08927,-44.12772,1008.381
30.133481979,-14.24513,-1.165663,-1.284051,-0.0635685,-0.1577649,1.014839,-8.096455,20.08927,-44.12772,1008.381
30.168129921,-13.50797,-2.053438,-2.325931,-0.03823442,-0.1709477,0.9581003,-8.479401,21.23236,-44.57765,1008.383
30.200302601,-8.347812,-0.9289227,-1.161477,-0.03434375,-0.1956412,0.9684644,-8.461809,21.63054,-43.24067,1008.383
30.234949589,-2.696214,0.1364076,-0.3034588,-0.0555646,-0.1812829,0.9914346,-8.461809,21.63054,-43.24067,1008.383
30.267122269,-0.6075799,0.7282577,-0.1195977,-0.0506998,-0.171166,0.9847247,-8.078091,21.63086,-42.79633,1008.383
30.301765442,0.9896109,-0.1595175,0.002976296,-0.04344083,-0.1828634,0.9831147,-8.833456,22.40386,-42.79618,1008.385
30.333938599,-0.3618582,-0.5146276,-0.1195977,-0.05593817,-0.153613,0.9916663,-8.833456,22.40386,-42.79618,1008.385
30.368586063,-0.7918712,-0.3370725,-0.1195977,-0.05940006,-0.1637928,0.9911326,-8.078091,21.63086,-42.79633,1008.383
30.400758267,-1.406175,-0.2778875,-0.1808848,-0.04146308,-0.1736619,0.9817259,-8.461552,22.01168,-43.24253,1008.381
30.435405731,-1.344745,-0.5146276,0.06426332,-0.05603724,-0.1628909,0.9843608,-8.461552,22.01168,-43.24253,1008.381
30.467578411,-2.14334,-0.5738125,0.002976296,-0.05074267,-0.1668529,0.9775307,-9.217688,21.64128,-43.2368,1008.381
30.502221584,-2.020479,-0.6921826,-0.05831072,-0.04673723,-0.1716156,0.991914,-8.461552,22.01168,-43.24253,1008.383
30.534393788,-2.204771,-0.9289227,-0.1195977,-0.05411768,-0.1677658,0.9828566,-8.461552,22.01168,-43.24253,1008.383
30.566567421,-4.354836,-1.165663,-0.3647459,-0.05076876,-0.173163,0.9774789,-8.461552,22.01168,-43.24253,1008.387
30.601214409,-2.941936,-0.8697376,-0.2421718,-0.04395316,-0.1828831,0.9802272,-8.833714,22.02273,-42.79432,1008.387
30.633387089,-0.4847191,0.2547776,-0.3034588,-0.04294495,-0.1789901,0.9821778,-8.833714,22.02273,-42.79432,1008.387
30.668034077,-0.6075799,-0.2778875,-0.3647459,-0.05128472,-0.1818902,0.9783758,-8.077577,22.39313,-42.80005,1008.388
30.700202942,-1.099023,-0.6329976,-0.1808848,-0.04884328,-0.1746475,0.9750387,-8.450306,22.7845,-42.41745,1008.388
30.734849930,-2.020479,-0.5146276,-0.2421718,-0.04684863,-0.1780033,0.9817404,-8.450306,22.7845,-42.41745,1008.385
30.767023086,-0.914732,-0.3962575,-0.3647459,-0.04296306,-0.1823916,0.981668,-8.834282,22.40305,-42.85993,1008.386
30.801670551,-0.4232887,0.4323326,0.06426332,-0.04541697,-0.1838429,0.980715,-8.455517,22.39849,-42.79811,1008.386
30.833842754,0.1295851,-0.04114746,0.1255503,-0.0492234,-0.1779319,0.9894751,-8.455517,22.39849,-42.79811,1008.388
30.868490219,-0.177567,-0.04114746,0.2481244,-0.04541922,-0.1794928,0.9783408,-8.078402,22.39231,-42.8638,1008.388
30.900658607,-0.4847191,-0.1595175,0.002976296,-0.0483587,-0.1881929,0.9811885,-8.833456,22.40386,-42.79618,1008.388
30.935306072,-0.1161366,-0.1595175,0.002976296,-0.04588491,-0.1780193,0.9802853,-8.455259,22.77963,-42.79997,1008.388
30.967661858,-1.037593,-0.3962575,-0.05831072,-0.04683229,-0.1799227,0.9846165,-8.455259,22.77963,-42.79997,1008.39
31.002308846,-1.406175,-0.1595175,-0.1195977,-0.04262302,-0.1897821,0.9676259,-8.455259,22.77963,-42.79997,1008.39
31.034481525,0.2524459,0.4915177,0.6771336,-0.04600365,-0.1998879,0.9767321,-8.455259,22.77963,-42.79997,1008.392
31.066654682,2.218219,1.024183,0.7384206,-0.04137923,-0.1847077,0.997058,-8.455259,22.77963,-42.79997,1008.393
31.101297855,-0.7304407,0.3139626,-0.1195977,-0.05712729,-0.1552527,0.9670819,-8.839491,22.01705,-43.2406,1008.395
31.133470535,-5.092,-1.224848,-0.3647459,-0.04586719,-0.1668812,0.977003,-8.828504,22.40874,-42.41365,1008.395
31.168117523,-6.197748,-1.047293,-0.6711809,-0.04049641,-0.1915672,0.9892813,-8.828504,22.40874,-42.41365,1008.395
31.200290203,-3.126227,0.4915177,-0.2421718,-0.039279,-0.2188786,0.9731388,-8.455259,22.77963,-42.79997,1008.393
31.234937191,0.6210284,0.2547776,0.002976296,-0.06215087,-0.1988803,0.9711071,-8.828246,22.78987,-42.41551,1008.391
31.267109871,2.033928,-0.3370725,0.6771336,-0.06257016,-0.1910783,0.9755133,-8.828246,22.78987,-42.41551,1008.393
31.301753998,1.788206,-1.284033,0.8609946,-0.0556273,-0.1866592,0.9865709,-8.077062,23.15539,-42.80377,1008.393
31.333926201,0.1295851,-2.112623,0.1255503,-0.04443133,-0.1756182,0.9778815,-8.833767,23.16532,-42.86366,1008.393
31.368573666,-0.8533015,-1.994253,-0.6098939,-0.03667462,-0.1800557,0.9739165,-8.833767,23.16532,-42.86366,1008.395
31.400746346,-2.204771,-1.165663,-0.5486069,-0.02160047,-0.1879167,0.9713011,-9.206186,22.79524,-42.41358,1008.395
31.435393334,-1.651897,1.142553,-0.3034588,-0.02977097,-0.2037193,0.993901,-8.450049,23.16564,-42.41931,1008.395
31.467566013,0.6824588,2.207883,-0.1808848,-0.04261392,-0.2091165,0.9780704,-8.450049,23.16564,-42.41931,1008.396
31.502209664,2.40251,1.911958,-0.2421718,-0.0484097,-0.1838872,0.9730305,-8.82799,23.17101,-42.41737,1008.396
31.534382343,0.559598,0.7282577,-0.3647459,-0.052694,-0.1765139,0.9822892,-8.828246,22.78987,-42.41551,1008.396
31.569029331,-0.7304407,-0.2187025,-0.3034588,-0.05270404,-0.1789409,0.9822693,-8.828246,22.78987,-42.41551,1008.396
31.601202011,-0.6075799,-0.3962575,-0.1195977,-0.05337025,-0.1887719,0.9658065,-8.454744,23.54189,-42.8037,1008.392
31.633374691,-0.4232887,-0.4554425,-0.05831072,-0.04898654,-0.1936369,0.9671714,-8.832941,23.16613,-42.7999,1008.396
31.668021679,0.1910155,-0.2778875,0.06426332,-0.04296242,-0.1949638,0.9878302,-8.832941,23.16613,-42.7999,1008.396
31.700190544,-0.3004278,-0.04114746,0.3094114,-0.04006152,-0.1867823,0.9806408,-8.455517,22.39849,-42.79811,1008.396
31.734838009,-0.8533015,0.07722256,0.2481244,-0.04006504,-0.197424,0.985373,-8.454744,23.54189,-42.8037,1008.394
31.767010689,-0.1161366,0.01803755,0.3094114,-0.03960974,-0.1945547,0.9800904,-8.454744,23.54189,-42.8037,1008.392
31.801658153,0.2524459,0.4323326,0.06426332,-0.03913411,-0.191667,0.9772178,-8.072109,23.16027,-42.42124,1008.392
31.833830357,-0.4232887,0.07722256,-0.05831072,-0.0482799,-0.1799006,0.9865581,-8.822468,22.79556,-41.96923,1008.392
31.868477821,-1.406175,0.2547776,-0.1808848,-0.0469315,-0.1862994,0.9758888,-8.822468,22.79556,-41.96923,1008.394
31.900646210,-0.9761624,-0.04114746,0.06426332,-0.05428673,-0.1988679,0.9777818,-8.833767,23.16532,-42.86366,1008.394
31.935294151,0.6210284,0.2547776,-0.2421718,-0.03779365,-0.2019415,0.9674806,-8.450049,23.16564,-42.41931,1008.396
31.967466831,2.095358,0.1955926,0.002976296,-0.04484214,-0.1745785,0.9865699,-8.450049,23.16564,-42.41931,1008.394
32.002113819,-0.7918712,-0.3370725,0.1255503,-0.04634032,-0.1789544,0.9846198,-8.827421,22.79068,-42.35176,1008.392
32.034286499,-1.897619,-0.2778875,0.1255503,-0.03963612,-0.1950623,0.9771945,-8.450306,22.7845,-42.41745,1008.39
32.068933487,0.6210284,0.07722256,0.002976296,-0.0430657,-0.2013441,0.9786207,-8.450049,23.16564,-42.41931,1008.39
32.101102352,1.173902,-0.1595175,0.1255503,-0.04682225,-0.1774958,0.9846364,-8.450049,23.16564,-42.41931,1008.389
32.133274555,-1.836188,-0.2187025,0.1255503,-0.04436393,-0.1828105,0.9893896,-8.455259,22.77963,-42.79997,1008.389
32.167922497,-1.467606,-0.4554425,0.06426332,-0.04360225,-0.2042872,0.9742634,-8.82799,23.17101,-42.41737,1008.385
32.200095177,0.9896109,0.3139626,-0.05831072,-0.04838068,-0.1954664,0.9820927,-8.82799,23.17101,-42.41737,1008.383
32.234742642,-0.1161366,0.07722256,0.1868374,-0.05125035,-0.178474,0.9808137,-8.455259,22.77963,-42.79997,1008.383
32.266914845,-1.529036,-0.8697376,0.002976296,-0.04446525,-0.1877383,0.97971,-8.450306,22.7845,-42.41745,1008.383
32.301558018,-1.774758,-1.284033,-0.05831072,-0.04103507,-0.1930616,0.9839721,-8.450306,22.7845,-42.41745,1008.385
32.333730698,-1.651897,-0.8697376,-0.3034588,-0.03873098,-0.201418,0.9718317,-8.827732,23.55214,-42.41924,1008.385
32.368378639,-1.037593,-0.2778875,-0.05831072,-0.04647125,-0.2008341,0.9796207,-8.072109,23.16027,-42.42124,1008.385
32.400551319,0.4367371,-0.1003325,-0.1195977,-0.04060625,-0.1887657,0.9748454,-8.072109,23.16027,-42.42124,1008.386
32.435198307,-0.7918712,-0.5146276,0.4319854,-0.04688416,-0.1983455,0.987357,-8.455002,23.16076,-42.80183,1008.386
32.467370987,-1.344745,-0.6329976,-0.1195977,-0.04310412,-0.204764,0.9757009,-8.82799,23.17101,-42.41737,1008.386
32.502014160,-0.2389974,-0.1595175,-0.1808848,-0.04019715,-0.1960934,0.9689972,-8.82799,23.17101,-42.41737,1008.386
32.534186840,0.006724231,0.07722256,-0.1808848,-0.03564566,-0.1848481,0.9825435,-8.455002,23.16076,-42.80183,1008.385
32.568834305,-2.511923,0.4323326,-0.1195977,-0.04002873,-0.1925553,0.9873407,-8.450049,23.16564,-42.41931,1008.385
32.601006985,-0.5461495,0.5507027,0.002976296,-0.03579661,-0.2125488,0.9779785,-8.450049,23.16564,-42.41931,1008.385
32.635654450,0.006724231,0.2547776,-0.1808848,-0.04659346,-0.1941753,0.9618428,-8.826906,23.55295,-42.35548,1008.385
32.667826653,1.911067,-0.7513676,0.06426332,-0.05713551,-0.1934621,0.984601,-8.82799,23.17101,-42.41737,1008.386
32.699995518,3.385397,-1.579958,-0.05831072,-0.04785439,-0.1901148,0.98406,-8.82799,23.17101,-42.41737,1008.384
32.734642506,1.542485,-2.941213,-0.05831072,-0.04838959,-0.1800003,0.9735444,-8.832684,23.54726,-42.80176,1008.384
32.766815185,-0.2389974,-2.822843,0.1868374,-0.04024512,-0.2116113,0.9707977,-8.450049,23.16564,-42.41931,1008.384
32.801463127,2.40251,-1.579958,0.5545595,-0.02992897,-0.2125672,0.9793696,-8.450049,23.16564,-42.41931,1008.384
32.833635330,7.255513,-1.224848,1.719013,-0.03840525,-0.1754926,0.9980703,-8.833199,22.785,-42.79804,1008.384
32.868282795,2.955384,-1.047293,1.902874,-0.03456035,-0.1789507,0.9927039,-9.210624,23.55263,-42.79983,1008.384
32.900451183,0.9281805,-1.935068,1.473865,-0.03274833,-0.1863412,0.9796122,-9.210624,23.55263,-42.79983,1008.383
32.935098648,4.921157,-1.875883,1.351291,-0.03961355,-0.1993939,0.9819785,-8.833199,22.785,-42.79804,1008.383
32.967270851,8.606983,-2.822843,1.290004,-0.03522069,-0.1844242,0.974831,-8.82799,23.17101,-42.41737,1008.383
33.001918316,3.631119,-4.539208,0.6771336,-0.03808704,-0.1529217,0.9669234,-8.833456,22.40386,-42.79618,1008.383
33.034090996,-6.5049,-3.769803,-0.5486069,-0.03464738,-0.1853162,0.9854223,-8.833456,22.40386,-42.79618,1008.383
33.068738461,2.463941,-1.106478,1.351291,-0.02008516,-0.2009337,0.9837117,-8.833199,22.785,-42.79804,1008.383
33.100907326,-4.846279,1.556848,1.290004,-0.01114237,-0.1839079,0.9943725,-9.21666,23.16582,-43.24425,1008.383
33.135554314,-5.276291,2.267068,0.6771336,-0.01281479,-0.1971466,0.9759631,-9.21666,23.16582,-43.24425,1008.383
33.167726994,1.726776,3.509953,-0.2421718,-0.04019255,-0.2067277,0.9746935,-8.450306,22.7845,-42.41745,1008.383
33.199899674,3.569688,3.628323,-1.161477,-0.0414946,-0.1528971,0.9679195,-8.832941,23.16613,-42.7999,1008.383
33.234546661,-7.242065,1.556848,-0.977616,-0.0504446,-0.1162906,0.9885486,-8.832941,23.16613,-42.7999,1008.383
33.266719341,-20.38817,-2.290178,-0.1195977,-0.06182348,-0.1656999,0.9940315,-9.205618,22.41492,-42.34796,1008.383
33.301362991,-19.34386,-3.059583,0.2481244,-0.03402187,-0.2456023,0.9728695,-8.82799,23.17101,-42.41737,1008.383
33.333535671,-8.593533,-1.520773,-0.1808848,-0.02441745,-0.2801256,0.9710493,-8.82799,23.17101,-42.41737,1008.383
33.368183136,0.8053195,0.3139626,-0.977616,-0.01558485,-0.2535287,0.9639561,-8.443756,23.93359,-41.97675,1008.383
33.400355339,3.87684,0.4915177,-0.916329,-0.03229341,-0.2158714,0.9899684,-9.199121,24.70659,-41.9766,1008.384
33.435002804,2.218219,-0.2778875,-1.222764,-0.03290887,-0.2251727,0.9792935,-9.199121,24.70659,-41.9766,1008.384
33.467175007,5.28974,-0.3370725,-1.161477,-0.03151882,-0.2117073,0.9639675,-8.443499,24.31472,-41.97861,1008.384
33.501819134,5.842613,-1.343218,-0.4873199,-0.03712978,-0.1858262,0.9806213,-9.205156,24.31977,-42.42102,1008.384
33.533991814,1.788206,-1.165663,-0.1195977,-0.03121594,-0.1756477,0.982578,-9.205156,24.31977,-42.42102,1008.384
33.568638802,-0.6075799,-1.224848,-0.4260329,-0.03868977,-0.2129861,0.9823399,-9.199636,23.94432,-41.97288,1008.384
33.600811482,0.86675,-2.290178,0.1868374,-0.04267289,-0.2077195,0.9703705,-8.821953,23.55782,-41.97295,1008.384
33.635458470,0.3753067,-2.882028,0.7997077,-0.01520209,-0.1903166,0.9789336,-8.821953,23.55782,-41.97295,1008.386
33.667631149,-2.757644,-1.520773,0.5545595,-0.02515652,-0.2238113,0.9720024,-9.199893,23.56319,-41.97102,1008.386
33.702274323,0.8053195,-0.9289227,0.8609946,-0.03398252,-0.220421,0.9653648,-9.205414,23.93864,-42.41916,1008.386
33.734447479,0.006724231,-0.2778875,0.2481244,-0.03059552,-0.2156286,0.9595886,-9.205414,23.93864,-42.41916,1008.386
33.766620159,-7.672078,0.2547776,-0.3647459,-0.03106147,-0.1774415,1.001842,-9.577576,23.94969,-41.97095,1008.386
33.801267147,1.358193,2.622178,0.002976296,-0.01098925,-0.2306375,0.9771159,-9.204845,23.55832,-42.35355,1008.386
33.833439827,1.296763,2.562993,-0.6711809,-0.04094701,-0.2388832,0.9585295,-9.204845,23.55832,-42.35355,1008.386
33.868087292,-0.914732,0.7874427,-1.222764,-0.02494922,-0.2574353,0.9548532,-9.205414,23.93864,-42.41916,1008.386
33.900255680,-11.11218,-0.9881077,-0.3647459,-0.04656704,-0.1946348,0.9652127,-9.199893,23.56319,-41.97102,1008.386
33.934902668,-4.477696,-0.7513676,0.1255503,-0.03823872,-0.2062522,0.9746792,-9.199893,23.56319,-41.97102,1008.382
33.967075348,-0.1161366,-0.1003325,-0.6098939,-0.01800719,-0.2365756,0.9578524,-9.193858,23.95001,-41.5266,1008.382
34.001723289,2.525371,0.8466278,-0.855042,-0.02420909,-0.222875,0.9681453,-9.577576,23.94969,-41.97095,1008.382
34.033895969,3.262536,2.207883,-0.793755,-0.02795552,-0.1985338,0.9751288,-9.577576,23.94969,-41.97095,1008.382
34.068542957,1.726776,2.030328,-1.038903,-0.03244406,-0.2092384,0.9688165,-9.577833,23.56856,-41.96909,1008.382
34.100711346,1.911067,0.4915177,-0.4873199,-0.03558476,-0.1838256,0.9892993,-8.815918,23.94464,-41.52853,1008.384
34.135358810,-0.8533015,-0.6329976,0.002976296,-0.02592441,-0.1999223,0.9852205,-9.205414,23.93864,-42.41916,1008.384
34.167531490,-0.7918712,-0.1595175,0.1868374,-0.02804979,-0.2223145,0.9754158,-9.205414,23.93864,-42.41916,1008.384
34.202179432,2.771093,0.6098877,-0.05831072,-0.02950386,-0.2150447,0.9730792,-8.816175,23.56351,-41.52667,1008.384
34.234351635,1.665345,-0.5738125,0.7384206,-0.02872556,-0.172229,0.9869209,-9.199893,23.56319,-41.97102,1008.384
34.268999100,-3.187657,0.07722256,0.1255503,-0.03522608,-0.1984526,0.9809814,-9.199893,23.56319,-41.97102,1008.384
34.301167488,-2.696214,0.3139626,-0.4873199,-0.03109454,-0.2378803,0.9690498,-8.82221,23.17669,-41.97109,1008.384
34.333340168,1.665345,0.2547776,-0.3647459,-0.02944899,-0.2154783,0.9798231,-8.827475,23.93327,-42.4211,1008.384
34.367987156,0.3753067,-0.3962575,0.1255503,-0.02641642,-0.1999235,0.9847431,-8.827475,23.93327,-42.4211,1008.384
34.400159836,2.832523,0.7282577,0.6158466,-0.02950186,-0.2145593,0.9730832,-9.578091,23.18743,-41.96722,1008.384
34.434807778,2.832523,1.201738,-0.1808848,-0.0338835,-0.210176,0.9721963,-8.444014,23.55245,-41.97488,1008.385
34.466980457,0.3753067,0.6690727,-0.793755,-0.03806291,-0.1882003,0.9868763,-8.444014,23.55245,-41.97488,1008.387
34.501623631,-1.406175,-0.4554425,-0.3034588,-0.02931243,-0.1844057,0.981042,-9.583354,23.94401,-42.41723,1008.387
34.533795834,-2.020479,-0.5146276,-0.1195977,-0.02738866,-0.1921782,0.981442,-9.583611,23.56287,-42.41537,1008.387
34.568443298,-2.819075,0.01803755,-0.05831072,-0.03284068,-0.2077022,0.9789549,-9.583611,23.56287,-42.41537,1008.389
34.600615502,-2.327631,-0.4554425,0.06426332,-0.03097766,-0.2193984,0.9740211,-9.200407,22.80092,-41.9673,1008.389
34.635262966,-2.573353,-1.047293,0.2481244,-0.02945952,-0.2082344,0.9750629,-9.19463,22.80661,-41.52102,1008.391
34.667435646,-2.14334,-0.6329976,0.4319854,-0.02948154,-0.2145408,0.9754932,-9.19463,22.80661,-41.52102,1008.391
34.702079296,-0.6690103,-0.7513676,0.3706984,-0.03048559,-0.2203643,0.9749725,-8.821439,24.32009,-41.97668,1008.392
34.734251976,-1.037593,-1.047293,0.1868374,-0.02365859,-0.2145999,0.9715824,-9.577576,23.94969,-41.97095,1008.392
34.768898964,-2.204771,-0.5738125,-0.2421718,-0.02555133,-0.2179213,0.9802486,-9.577576,23.94969,-41.97095,1008.392
34.801071644,-0.7918712,0.1955926,-0.1808848,-0.02471041,-0.2398096,0.9747583,-9.577576,23.94969,-41.97095,1008.392
34.833244324,2.771093,1.438478,-0.3647459,-0.01987776,-0.2364918,0.9675105,-9.571798,23.95538,-41.52467,1008.392
34.867891312,2.525371,1.556848,-0.2421718,-0.02943553,-0.2004754,0.9741627,-9.571798,23.95538,-41.52467,1008.392
34.900060177,0.1910155,0.4915177,-0.1195977,-0.03036518,-0.1912407,0.9752114,-8.816433,23.18237,-41.52481,1008.392
34.934707642,-2.696214,-0.5146276,-0.2421718,-0.03480463,-0.2086705,0.9780012,-9.199636,23.94432,-41.97288,1008.392
34.966880321,-1.959049,-0.5738125,-0.1808848,-0.02803354,-0.2222997,0.9773437,-9.199636,23.94432,-41.97288,1008.392
35.001527786,0.006724231,-0.3962575,-0.1195977,-0.03242723,-0.2208288,0.9764329,-8.810397,23.56919,-41.08039,1008.394
35.033699989,0.6824588,-0.6921826,0.06426332,-0.02908311,-0.2117233,0.9634627,-8.810141,23.95033,-41.08225,1008.394
35.068347454,-0.6690103,-0.3962575,0.1868374,-0.02700139,-0.2096807,0.9779201,-8.810141,23.95033,-41.08225,1008.394
35.100515842,-2.634784,-0.3370725,-0.2421718,-0.02707187,-0.221834,0.9754106,-9.199636,23.94432,-41.97288,1008.394
35.135163307,-1.099023,-0.5738125,0.06426332,-0.02320695,-0.2194711,0.96961,-8.821696,23.93896,-41.97482,1008.394
35.167335510,0.4981675,-0.3370725,0.1255503,-0.02855605,-0.2218451,0.9730143,-8.821696,23.93896,-41.97482,1008.39
35.201983452,0.3138763,-0.3370725,0.1255503,-0.02801758,-0.2164824,0.9764275,-9.577318,24.33083,-41.97281,1008.39
35.234156132,-0.177567,-0.3370725,-0.05831072,-0.02369104,-0.2155965,0.9682005,-8.821182,24.70122,-41.97853,1008.388
35.268803120,-1.344745,-1.106478,0.3094114,-0.02847342,-0.2087136,0.9764958,-9.571798,23.95538,-41.52467,1008.387
35.300971985,-3.371948,-1.047293,0.1255503,-0.02514443,-0.221866,0.9725003,-9.571798,23.95538,-41.52467,1008.387
35.335618973,-2.573353,-0.8697376,0.1868374,-0.0256341,-0.2281515,0.9753451,-9.199379,24.32546,-41.97474,1008.387
35.367791653,-0.5461495,-0.7513676,0.1868374,-0.03056439,-0.2286566,0.9696029,-9.193858,23.95001,-41.5266,1008.388
35.399964333,-1.467606,-0.8697376,0.3094114,-0.02466044,-0.2238064,0.9729618,-9.193858,23.95001,-41.5266,1008.387
35.434611797,-2.08191,-0.7513676,0.3094114,-0.02379162,-0.2350307,0.9656312,-9.949223,24.72301,-41.52645,1008.387
35.466784477,0.6210284,-0.5738125,0.1255503,-0.02076248,-0.2320519,0.9762315,-9.572055,23.57424,-41.5228,1008.388
35.501427651,0.2524459,-0.5146276,0.2481244,-0.02649327,-0.2067634,0.9789034,-9.572055,23.57424,-41.5228,1008.388
35.533600330,-2.204771,-1.047293,0.06426332,-0.03000973,-0.222312,0.97447,-9.199379,24.32546,-41.97474,1008.387
35.568247318,-2.266201,-1.047293,0.1255503,-0.02424311,-0.2330609,0.9690256,-9.94948,24.34188,-41.52459,1008.388
35.600419998,-1.406175,-0.8105526,0.002976296,-0.02479171,-0.2389164,0.9646445,-9.94948,24.34188,-41.52459,1008.39
35.635067463,-0.6075799,-0.2187025,0.06426332,-0.01693183,-0.2350393,0.968941,-9.571541,24.33651,-41.52653,1008.388
35.667240620,2.463941,0.01803755,0.3706984,-0.02016362,-0.2159957,0.9816602,-9.187822,24.33683,-41.08218,1008.388
35.701883793,-0.1161366,0.01803755,0.002976296,-0.0246365,-0.2150804,0.9715876,-9.187822,24.33683,-41.08218,1008.39
35.734056473,-1.283314,-0.4554425,0.1255503,-0.02657599,-0.2179607,0.9744738,-9.182045,24.34251,-40.6359,1008.396
35.768703461,-1.467606,-0.2778875,-0.05831072,-0.02429553,-0.2408456,0.9665519,-9.193858,23.95001,-41.5266,1008.396
35.800876141,-0.6690103,-0.04114746,-0.3034588,-0.01595778,-0.2384309,0.97035,-9.193858,23.95001,-41.5266,1008.396
35.835523128,1.419624,0.3139626,-0.1195977,-0.0163429,-0.2233443,0.975298,-9.193087,25.09341,-41.53218,1008.392
35.867695808,0.06815465,0.7282577,0.002976296,-0.0266082,-0.2237928,0.973462,-9.193344,24.71228,-41.53032,1008.392
35.899864197,0.6824588,0.6690727,0.2481244,-0.03160682,-0.2388671,0.9666364,-9.193344,24.71228,-41.53032,1008.392
35.934512138,1.726776,0.2547776,0.2481244,-0.02517658,-0.2286652,0.9719626,-9.199121,24.70659,-41.9766,1008.394
35.966684818,0.86675,-0.1003325,0.1255503,-0.02173467,-0.2252736,0.9734043,-9.576803,25.09309,-41.97653,1008.392
36.001331806,0.8053195,0.4915177,-0.05831072,-0.01638955,-0.2248374,0.9704661,-9.576803,25.09309,-41.97653,1008.392
36.033504486,1.603915,0.3731476,-0.1808848,-0.02461389,-0.220379,0.9768456,-9.187822,24.33683,-41.08218,1008.392
36.068151474,0.1295851,0.1364076,-0.1808848,-0.02506156,-0.21357,0.9783519,-9.193344,24.71228,-41.53032,1008.394
36.100320339,0.6824588,0.7874427,-0.1808848,-0.02083967,-0.2321221,0.9670736,-9.193344,24.71228,-41.53032,1008.394
36.134968281,2.033928,0.7874427,-0.05831072,-0.01923024,-0.2184571,0.9777752,-9.193601,24.33114,-41.52846,1008.392
36.167140484,1.603915,0.9058127,0.2481244,-0.02801161,-0.2140591,0.9759655,-9.193601,24.33114,-41.52846,1008.39
36.201787949,0.7438892,0.8466278,0.6158466,-0.02951996,-0.2179607,0.9725733,-9.193601,24.33114,-41.52846,1008.39
36.233960629,0.4981675,-0.5738125,0.1255503,-0.02899134,-0.2188933,0.9778627,-9.571798,23.95538,-41.52467,1008.39
36.268607616,-1.467606,-0.9289227,-0.2421718,-0.0280585,-0.2107167,0.9687634,-9.571283,24.71765,-41.52839,1008.39
