Time (s),Gyroscope X (deg/s),Gyroscope Y (deg/s),Gyroscope Z (deg/s),Accelerometer X (g),Accelerometer Y (g),Accelerometer Z (g),Magnetometer X (uT),Magnetometer Y (uT),Magnetometer Z (uT),Barometer (hPa)
0.000000000,-0.4061896,0.4028674,-0.9644588,0.09647998,0.6235051,0.7767925,-23.39337,-9.371157,-42.55101,1007.591
0.032776356,1.581675,0.5801454,-0.4146576,0.1100822,0.6196755,0.7700269,-22.65991,-9.749227,-43.41644,1007.591
0.068074703,1.519554,-0.06987408,-0.5979246,0.09448132,0.6468529,0.7748367,-23.7589,-9.382172,-43.42076,1007.591
0.100851536,-2.269813,-0.1289668,0.1962326,0.1095855,0.6230338,0.763284,-23.7589,-9.382172,-43.42076,1007.593
0.133628368,2.140762,-0.3062448,-0.1703015,0.09843041,0.6185975,0.7690935,-23.03605,-9.007592,-42.55721,1007.594
0.166404724,1.084709,-0.1289668,0.1351436,0.0944928,0.6424863,0.7772499,-23.40086,-9.012663,-42.99185,1007.594
0.199182034,-1.400122,-0.8971716,0.5016777,0.1110342,0.6284768,0.7738623,-23.40086,-9.012663,-42.99185,1007.59
0.234479904,1.333192,0.2255893,0.3794996,0.09257781,0.6287531,0.7657226,-22.66594,-9.378845,-42.98706,1007.592
0.267256260,-1.897088,-0.06987408,0.1962326,0.09888297,0.6332392,0.7729213,-23.39472,-9.382195,-43.35907,1007.592
0.300033093,-1.648605,0.2255893,0.1962326,0.09698126,0.6146623,0.765252,-23.39472,-9.382195,-43.35907,1007.594
0.332809448,0.7741051,-0.2471521,0.1962326,0.09937201,0.6317822,0.7729223,-23.03002,-9.377973,-42.98659,1007.594
0.368108273,0.02865586,-0.2471521,-0.04812346,0.1008344,0.629863,0.7753285,-23.02388,-9.747504,-43.35381,1007.596
0.400884628,-1.089518,0.2255893,0.5016777,0.1042329,0.6278629,0.7637708,-23.03209,-9.394955,-44.22977,1007.597
0.433661461,-0.7167935,0.1664966,0.3794996,0.09257835,0.6292669,0.7695726,-23.03209,-9.394955,-44.22977,1007.597
0.466437816,-0.4061896,-0.1880594,0.3794996,0.1028063,0.6172098,0.7743802,-23.03137,-9.389011,-43.79465,1007.597
0.499215126,0.9604675,0.46196,0.2573216,0.09207455,0.6355439,0.7623439,-23.02326,-9.74241,-42.98086,1007.599
0.534512997,-1.524364,-0.3062448,0.2573216,0.09499493,0.633657,0.7676349,-23.02326,-9.74241,-42.98086,1007.597
0.567289829,-0.5925519,-0.3062448,0.4405887,0.1028219,0.6103814,0.7729464,-23.3941,-9.3771,-42.98612,1007.599
0.600066185,1.9544,-0.06987408,-0.1092125,0.09353503,0.637131,0.7787044,-23.03678,-9.013535,-42.99232,1007.599
0.632842541,-1.462243,-0.1289668,0.1351436,0.1120108,0.6240247,0.7627954,-23.03678,-9.013535,-42.99232,1007.599
0.668141365,0.4635013,0.284682,0.1962326,0.1018218,0.6225489,0.7729304,-22.66667,-9.384789,-43.42218,1007.599
0.700917721,-0.841035,0.1664966,0.5016777,0.1008135,0.6381223,0.7724279,-23.03002,-9.377973,-42.98659,1007.601
0.733694553,-0.7167935,0.1664966,0.1962326,0.1013532,0.6152328,0.7719799,-23.03002,-9.377973,-42.98659,1007.601
0.766470909,0.7119844,-0.06987408,0.2573216,0.1047063,0.6347489,0.7729052,-23.04354,-8.649099,-42.99805,1007.601
0.799248218,-2.456175,0.4028674,0.3794996,0.09550899,0.6214787,0.7666892,-23.0374,-9.018631,-43.36527,1007.599
0.834546089,-0.3440688,0.3437747,0.1962326,0.104738,0.6205949,0.7685942,-23.0374,-9.018631,-43.36527,1007.596
0.867322922,-0.9031558,0.107404,-0.04812346,0.09647149,0.6279185,0.7811182,-23.03678,-9.013535,-42.99232,1007.597
0.900099277,0.5256221,-0.4835229,0.01296555,0.09937716,0.629337,0.7714819,-23.40762,-8.648226,-42.99758,1007.596
0.932876587,-0.5304312,0.1664966,0.1351436,0.1057073,0.62108,0.767147,-23.40762,-8.648226,-42.99758,1007.596
0.968174458,-1.027397,-0.1289668,0.3184106,0.1032602,0.6303568,0.7733966,-23.03751,-9.01948,-43.42743,1007.596
1.000950813,-0.7167935,0.284682,0.01296555,0.1003756,0.6176497,0.7705343,-23.04416,-8.654194,-43.37101,1007.596
1.033727646,-0.03346492,0.46196,-0.04812346,0.09452426,0.62934,0.7777511,-23.04416,-8.654194,-43.37101,1007.596
1.066504002,-0.2198272,-0.1289668,0.2573216,0.1110499,0.6216518,0.7729099,-23.04427,-8.655043,-43.43317,1007.596
1.099281311,0.5877428,0.1664966,0.2573216,0.1052388,0.6152819,0.7743773,-23.04489,-8.660137,-43.80612,1007.594
1.134579182,-0.3440688,-0.1880594,0.1351436,0.09451981,0.6302805,0.772936,-23.04489,-8.660137,-43.80612,1007.594
1.167356014,-0.4683104,0.5210528,0.07405458,0.1018369,0.6152067,0.7676464,-23.77169,-8.647354,-42.99711,1007.594
1.200132370,-0.4683104,0.107404,0.07405458,0.09598476,0.6284015,0.7811186,-23.03678,-9.013535,-42.99232,1007.592
1.232909679,-0.9652766,0.04831128,-0.3535686,0.1008771,0.6113358,0.7724681,-23.03678,-9.013535,-42.99232,1007.592
1.268207550,0.5256221,0.4028674,-0.1092125,0.09936538,0.6342039,0.7709932,-22.66667,-9.384789,-43.42218,1007.592
1.300984383,-0.4683104,0.5210528,-0.2924795,0.09890194,0.6229279,0.7609027,-23.04489,-8.660137,-43.80612,1007.592
1.333760738,-0.9031558,0.1664966,-0.1092125,0.09987348,0.6254683,0.7748561,-22.66667,-9.384789,-43.42218,1007.592
1.366538048,0.4635013,-0.4835229,-0.2313905,0.1013621,0.6123407,0.7763164,-22.66667,-9.384789,-43.42218,1007.592
1.399314404,1.208951,-0.5426155,-0.1703015,0.09743251,0.6318095,0.7791846,-23.03751,-9.01948,-43.42743,1007.592
1.434612274,-1.027397,-4.088177,-0.1703015,0.08586697,0.6058146,0.8370146,-23.03751,-9.01948,-43.42743,1007.59
1.467389107,29.41178,-9.406518,-3.835642,0.09187929,0.5294603,0.84578,-23.03751,-9.01948,-43.42743,1007.592
1.500165462,62.77064,-26.72067,-4.324355,0.03938604,0.5630662,0.9089121,-23.03751,-9.01948,-43.42743,1007.592
1.532942772,117.9339,-55.26244,6.427312,0.03579133,0.6498893,0.9318951,-23.37309,-10.46447,-42.53382,1007.592
1.565719128,186.1425,-93.25903,50.71685,0.1239578,1.150468,0.9516301,-23.37309,-10.46447,-42.53382,1007.592
1.601017475,147.317,-113.646,111.8059,0.2231615,1.480393,0.8608829,-25.12836,-13.70522,-39.93139,1007.594
1.633793831,184.6516,-118.4325,175.705,0.2675263,1.342105,0.5317347,-28.6876,-17.64671,-35.5747,1007.594
1.666571140,174.9608,-104.4866,238.6877,0.3293637,1.655398,0.4054804,-28.6876,-17.64671,-35.5747,1007.594
1.699347496,110.6036,-73.04933,286.7037,0.3199874,1.443345,0.03902464,-33.80785,-19.07642,-29.94988,1007.594
1.734645843,35.06477,-29.55712,320.4249,0.3386246,1.172639,0.09955864,-38.91918,-17.85156,-25.67249,1007.59
1.767422199,-14.56973,-18.09314,341.4395,0.3717466,0.6840773,-0.08895873,-38.91918,-17.85156,-25.67249,1007.592
1.800198555,-42.52407,16.35789,333.8034,0.4657471,0.3524251,-0.1286348,-43.49473,-9.800404,-24.11454,1007.592
1.832975864,-73.89507,21.08531,325.9229,0.2413331,0.1871462,-0.09367678,-45.52657,1.556302,-24.72589,1007.592
1.865752220,-131.8538,9.030398,297.2722,0.4323174,-0.5018122,-0.153743,-45.52657,1.556302,-24.72589,1007.584
1.901050568,-99.30247,-11.1793,251.3943,0.2735935,-0.6941774,0.03946814,-43.57424,14.0634,-24.92544,1007.587
1.966604233,-47.49374,-73.93572,165.8696,0.4312155,-1.034202,-0.0200821,-39.3638,26.18155,-22.07542,1007.583
1.999380589,72.213,-108.8004,127.1392,0.4602394,-0.9745604,0.04714981,-34.05785,34.97269,-17.99319,1007.583
2.034678936,7.048304,-89.418,71.48711,0.7819276,-0.9413414,-0.3252745,-30.45468,40.52593,-15.53636,1007.583
2.067455292,10.65131,0.6983308,22.98244,0.6690819,-1.10442,-0.5283771,-30.45468,40.52593,-15.53636,1007.582
2.100232601,164.7729,119.2973,-4.813066,0.9066551,-1.039303,-0.9752611,-27.5609,41.62415,-14.68709,1007.58
2.133008957,210.3075,276.0111,-39.38945,0.4489091,-0.4726377,-0.8811639,-26.85052,42.31646,-17.248,1007.576
2.165786266,103.3976,366.8366,-40.91668,-0.03980449,-0.5348375,0.4274675,-26.85052,42.31646,-17.248,1007.578
2.201083660,373.3745,43.83599,25.67035,-1.31883,1.205424,10.45175,-24.62909,39.25563,-27.46118,1007.578
2.233860016,-483.768,-115.7142,23.65442,1.946057,1.199849,0.609318,-16.85485,34.68599,-35.97932,1007.574
2.266637325,-330.8887,153.9848,17.72878,0.8880446,-1.932906,-0.65569,-16.85485,34.68599,-35.97932,1007.574
2.299413681,177.8804,-19.68864,-3.163663,0.2308269,-0.4006228,0.4222911,-14.13437,25.59273,-34.09892,1007.574
2.334712029,-15.3773,9.739511,11.37552,0.6312079,-0.265224,0.641601,-13.28169,38.81134,-31.32394,1007.574
2.367488384,40.71777,-6.747347,-10.67761,0.4176042,-0.9269499,0.5015846,-12.84502,34.71715,-33.00087,1007.574
2.400265694,10.3407,9.50314,-19.59661,0.5672383,-0.5350367,0.5795824,-12.84502,34.71715,-33.00087,1007.572
2.433042050,24.81485,0.5210528,-24.667,0.5683507,-0.5878767,0.6138361,-12.49632,35.49995,-33.44886,1007.572
2.465819359,37.48748,-1.724469,-23.38413,0.7211929,-0.527225,0.6774033,-12.47022,33.96448,-34.66817,1007.576
2.501116753,49.04195,-8.224665,-16.96978,0.5992171,-0.47371,0.7454839,-12.47022,33.96448,-34.66817,1007.576
2.533894062,28.04513,-12.18387,-13.79315,0.6111251,-0.3812511,0.7198041,-13.91519,33.22126,-35.96016,1007.576
2.566670418,12.45281,-7.042811,-5.668313,0.6021975,-0.3145496,0.6571478,-14.25971,32.12288,-36.37762,1007.576
2.599447727,-12.95459,-4.029084,-1.330993,0.5698608,-0.3875168,0.7088402,-14.25971,32.12288,-36.37762,1007.575
2.634745121,-46.06496,-7.515553,0.4405887,0.6009256,-0.3753144,0.7453316,-14.97362,31.4017,-35.9301,1007.573
2.667521477,-57.12246,-8.401942,-3.285841,0.5485927,-0.4240646,0.7315697,-14.60954,31.40083,-35.93057,1007.573
2.700298786,-76.31778,-17.38403,-13.24335,0.5225531,-0.4906511,0.7827561,-14.60954,31.40083,-35.93057,1007.571
2.733075142,-82.84046,-20.63413,-31.8755,0.4836369,-0.6976596,0.6170906,-14.99027,32.52473,-33.77174,1007.571
2.765852451,-43.70437,-26.83886,-50.69092,0.5044164,-0.6985486,0.3941722,-15.77011,35.53158,-31.7042,1007.569
2.801149845,-7.239475,-17.08857,-78.6086,0.4588662,-0.723232,0.4713354,-15.77011,35.53158,-31.7042,1007.568
2.833927155,25.18757,-20.51594,-97.42402,0.5271332,-0.6196787,0.5725847,-17.97205,36.65305,-30.04028,1007.568
2.866703510,17.60884,-19.03862,-113.4904,0.5873773,-0.4257056,0.5889971,-21.24864,36.66175,-29.97389,1007.568
2.899480820,-4.878885,-16.0249,-123.9366,0.6828448,-0.3970638,0.320609,-21.24864,36.66175,-29.97389,1007.568
2.934778213,7.855874,-2.669952,-129.3736,0.8413658,-0.2765497,0.3710757,-23.81617,34.42064,-29.93519,1007.568
2.967555523,34.25721,-2.492674,-124.1199,0.9207231,-0.1675562,0.3307702,-27.05906,32.60631,-29.90231,1007.568
3.000331879,44.25865,8.675842,-110.0084,1.007148,0.06187749,0.4423767,-27.05906,32.60631,-29.90231,1007.568
3.065885544,-19.10454,12.10322,-55.88348,1.059744,0.2096924,0.4839076,-32.02383,25.30602,-31.52158,1007.568
3.101182938,-17.92425,5.189374,-34.25797,0.8822739,0.09540179,0.4406969,-32.02383,25.30602,-31.52158,1007.566
3.133960247,-10.40763,-4.679104,-18.43592,0.8257402,0.1992745,0.5278009,-33.49767,23.07418,-30.61406,1007.566
3.166736603,-21.52725,-10.11563,-5.485046,0.7924144,0.1194489,0.5048949,-33.84968,22.33429,-31.47235,1007.568
3.199513912,-14.88033,-11.65204,2.395437,0.8518667,0.02376459,0.4712028,-33.84968,22.33429,-31.47235,1007.566
3.234811306,-6.245543,-8.992869,7.465826,0.8583498,-0.0432183,0.4963191,-34.22655,23.06998,-31.04823,1007.564
3.267588615,1.208951,-3.674528,8.687606,0.8904105,-0.04981615,0.489514,-34.22437,23.08781,-29.7429,1007.564
3.300364971,-13.38943,2.530204,8.993051,0.8709374,-0.02197328,0.5246576,-34.23186,23.4463,-30.18374,1007.567
3.333142281,-13.70004,5.543931,9.603941,0.8371552,-0.1154899,0.4945529,-34.23186,23.4463,-30.18374,1007.567
3.365918636,4.625593,7.139433,7.16038,0.8395503,-0.09931403,0.5065569,-34.60197,23.81756,-29.75389,1007.567
3.401216984,3.818023,7.375803,7.221469,0.8113072,-0.05736005,0.5503646,-34.24403,24.18622,-29.38714,1007.565
3.433993340,-1.772847,8.203101,7.099291,0.8205208,-0.05545551,0.5330108,-34.24403,24.18622,-29.38714,1007.565
3.466770172,-10.28339,6.312135,4.533553,0.8148421,-0.1173364,0.5360057,-34.25254,24.60629,-29.76677,1007.565
3.499547005,-1.959209,2.707482,2.700882,0.8235745,-0.1143547,0.5340551,-33.89595,24.96392,-30.20808,1007.563
3.534844398,0.277139,1.11198,-0.3535686,0.8604479,-0.1028954,0.5267299,-33.89595,24.96392,-30.20808,1007.565
3.567621708,0.8983467,-0.3653375,-3.652375,0.8473808,-0.1230399,0.5171641,-33.16925,24.95028,-31.07925,1007.565
3.600398064,1.9544,-1.488098,-4.263266,0.8380529,-0.07773632,0.5296333,-33.52512,24.59861,-30.20282,1007.565
3.633175373,-1.959209,-1.251728,-5.485046,0.8123287,-0.08636776,0.5099714,-33.52512,24.59861,-30.20282,1007.565
3.665951729,0.5256221,-2.551767,-6.401381,0.8210788,-0.09068477,0.5089945,-33.52439,24.60455,-29.76771,1007.565
3.701250076,-2.394054,-2.374489,-7.195539,0.8142195,-0.06038514,0.5320705,-33.52512,24.59861,-30.20282,1007.563
3.734026432,-2.580417,0.107404,-7.195539,0.8560416,-0.08935541,0.5180555,-33.52512,24.59861,-30.20282,1007.563
3.766803265,-6.680388,-0.3062448,-8.295141,0.8574108,-0.04928989,0.5348395,-33.88919,24.59948,-30.20235,1007.563
3.799580097,-10.84248,0.8165162,-9.761277,0.8526685,-0.09857366,0.5272233,-34.25254,24.60629,-29.76677,1007.563
3.832356930,-6.307663,0.4028674,-11.65504,0.8258698,-0.05882347,0.5325218,-34.25254,24.60629,-29.76677,1007.563
3.867654800,-10.40763,1.289258,-12.87682,0.8409318,-0.06461252,0.5223863,-34.24588,24.24101,-29.8232,1007.563
3.900431633,-10.65612,-0.7198936,-13.97642,0.8084143,-0.07019772,0.5287296,-33.88181,24.24014,-29.82367,1007.563
3.933208466,-5.748576,-2.610859,-15.68691,0.822992,-0.07950713,0.5031968,-33.88181,24.24014,-29.82367,1007.565
3.965984821,-5.997059,-1.901747,-18.98572,0.8229296,-0.05472235,0.4954578,-33.88784,24.61052,-29.39429,1007.565
4.001283169,-3.947074,-2.197211,-19.47443,0.8384342,-0.04046894,0.4953995,-34.97404,24.24275,-29.82226,1007.567
4.034059525,-0.7167935,-0.7789862,-20.02423,0.84033,-0.02097502,0.4948843,-34.97404,24.24275,-29.82226,1007.567
4.066836834,0.09077663,-0.0107814,-19.96314,0.8519439,-0.002810933,0.5015684,-35.32274,23.45996,-29.37427,1007.567
4.099613190,-5.375852,0.5210528,-19.04681,0.8421969,0.01524186,0.5179307,-35.31598,23.09552,-29.36854,1007.568
4.132390022,-4.941006,0.3437747,-18.31374,0.8475621,0.0005082202,0.493872,-35.31598,23.09552,-29.36854,1007.568
4.167687893,-4.009195,0.8165162,-19.29116,0.8334566,0.01062164,0.4943717,-35.30246,22.36665,-29.35708,1007.568
4.200464726,-0.5304312,0.107404,-20.08532,0.8320172,0.002293203,0.4890926,-36.3872,22.01077,-28.91482,1007.568
4.233241558,0.9604675,1.11198,-20.81839,0.8242064,0.02380152,0.5097772,-36.3872,22.01077,-28.91482,1007.568
4.266018391,-3.015262,2.116555,-21.06274,0.840202,0.0341025,0.5010593,-36.75127,22.01164,-28.91435,1007.568
4.301316261,-3.450108,2.825667,-23.20086,0.8285456,0.03497263,0.500123,-37.10256,21.2777,-29.33754,1007.568
4.334093094,2.078641,4.598447,-24.1172,0.8329196,0.03254382,0.4957839,-37.09507,20.91921,-28.89669,1007.568
4.366869927,1.581675,5.898487,-25.40006,0.8299172,0.0730532,0.5116149,-37.09507,20.91921,-28.89669,1007.57
4.399646282,-2.8289,7.021247,-28.33234,0.821214,0.05840632,0.5169527,-37.81719,20.55057,-29.32514,1007.57
4.432423115,-0.5304312,5.957579,-30.34827,0.8051466,0.07627921,0.5150384,-37.79691,19.45726,-29.30795,1007.57
4.467720985,-0.7789143,7.257618,-33.5249,0.8245282,0.09701356,0.5318088,-37.79691,19.45726,-29.30795,1007.568
4.500498295,-4.257678,7.257618,-37.37351,0.8089949,0.09342451,0.5246306,-37.41317,18.35798,-29.66418,1007.568
4.533274650,0.8362259,6.075765,-40.36687,0.79146,0.1191982,0.5400369,-37.75634,17.27064,-29.27357,1007.57
4.566051483,1.208951,7.316711,-43.17697,0.79478,0.1513301,0.5342044,-37.75634,17.27064,-29.27357,1007.57
4.601349354,-4.257678,8.734935,-46.23142,0.7845393,0.1712701,0.5423816,-38.4717,16.53757,-29.69628,1007.572
4.634126186,2.637728,8.203101,-47.33102,0.7518996,0.2147909,0.5366172,-38.81612,15.44003,-30.05157,1007.576
4.666903019,1.643796,10.74409,-47.14775,0.7727157,0.2417582,0.53749,-38.81612,15.44003,-30.05157,1007.576
4.699679851,-2.083451,10.68499,-46.29251,0.7648494,0.2876547,0.5634329,-38.42572,13.97547,-30.46423,1007.574
4.732456207,-4.381919,10.68499,-44.76528,0.7580482,0.2895695,0.5668157,-38.75486,12.09342,-30.43416,1007.574
4.767754555,-0.5304312,9.089491,-40.85559,0.750586,0.3650079,0.5681638,-38.75486,12.09342,-30.43416,1007.574
4.800531387,-1.710726,9.562233,-38.41203,0.7414252,0.3376608,0.5687081,-39.46346,10.99591,-30.85114,1007.574
4.833307743,6.489217,6.548506,-34.86886,0.7345328,0.3805762,0.585026,-39.07837,9.907667,-30.39931,1007.574
4.866084576,0.7741051,6.312135,-31.8755,0.7238024,0.3989338,0.5763593,-39.07837,9.907667,-30.39931,1007.574
4.901382446,-3.698591,6.134857,-29.55412,0.7248017,0.3867529,0.5744498,-39.41686,8.438902,-31.24614,1007.574
4.934159279,0.4013805,6.666691,-26.37749,0.7247563,0.4082691,0.5869329,-39.76815,7.704958,-31.66932,1007.574
4.966936111,3.134695,5.780301,-23.44522,0.7218038,0.4243033,0.5849903,-39.76815,7.704958,-31.66932,1007.57
4.999712944,-0.5925519,6.962155,-21.42928,0.7004649,0.4103878,0.5706211,-39.02647,6.974339,-31.6588,1007.57
5.032489300,-4.009195,9.975882,-20.94057,0.6669868,0.3968782,0.5591682,-39.37702,6.246338,-31.64687,1007.568
5.067787647,-9.848548,12.33959,-27.17165,0.6671013,0.3370425,0.4990878,-39.37702,6.246338,-31.64687,1007.567
5.100564480,1.643796,21.02621,-44.76528,0.6062877,0.1740776,0.460006,-39.00618,5.881029,-31.64161,1007.573
5.133341312,14.25431,34.32207,-61.13714,0.5765169,0.2512796,0.5316832,-38.6368,5.503831,-32.50657,1007.573
5.166117668,-22.76967,49.21342,-80.8078,0.5192252,0.2549254,0.5645462,-38.6368,5.503831,-32.50657,1007.571
5.201416016,6.613458,49.09524,-95.10263,0.4684471,0.3749067,0.5798894,-38.59695,3.311265,-32.9073,1007.571
5.234192848,13.88159,47.97247,-102.0057,0.4190297,0.5459327,0.6500276,-37.85622,2.502924,-34.13901,1007.571
5.266969681,11.89372,43.89508,-103.6551,0.4011025,0.5266883,0.6356583,-37.85622,2.502924,-34.13901,1007.571
5.299746037,22.08153,40.17224,-102.0057,0.3609064,0.6956992,0.6850792,-36.32772,-1.527205,-35.38319,1007.571
5.332522392,-6.494026,46.84971,-98.27926,0.3829922,0.7945109,0.6502198,-34.44721,-4.817445,-35.76908,1007.571
5.400597572,-48.86039,74.26872,-88.32175,0.1613469,0.6754818,0.6090465,-33.30973,-7.388104,-36.97356,1007.571
5.433374405,-63.76938,85.49634,-84.53423,0.135298,0.6183463,0.688619,-30.65496,-10.02993,-38.67631,1007.571
5.466150761,-64.88756,86.14635,-81.84631,0.08169032,0.7431556,0.9114285,-28.11671,-9.700474,-40.79873,1007.573
5.501449108,-53.08461,42.35867,-59.36556,0.2115924,1.456406,1.978187,-28.11671,-9.700474,-40.79873,1007.573
5.534225941,-78.36777,-21.87507,28.41936,0.2410601,0.6824562,0.8158324,-24.47811,-9.727032,-42.10876,1007.573
5.567002773,13.26038,14.88057,4.289197,-0.05471367,0.2042002,0.3334862,-23.40013,-9.00672,-42.55674,1007.574
5.599779129,-3.512228,29.29919,3.311773,0.04329547,0.7281408,0.7594319,-23.40013,-9.00672,-42.55674,1007.574
5.632556438,-133.4068,13.10779,10.09265,-0.02273935,0.4200479,1.288588,-23.79238,-7.487359,-42.58015,1007.574
5.667853832,65.25547,-10.52928,11.68097,0.1156128,0.1372863,0.8020294,-22.70836,-7.137428,-43.45751,1007.576
5.700631142,75.816,-7.811016,7.83236,-0.0260207,0.708228,0.9208825,-22.70836,-7.137428,-43.45751,1007.578
5.733407497,32.70419,-3.969991,10.82572,0.06493019,0.6153489,0.7624388,-23.11904,-4.579552,-43.06204,1007.578
5.766184807,55.87523,-1.251728,17.0568,0.06500944,0.576683,0.7350593,-23.4283,-7.488232,-42.58062,1007.58
5.801482201,32.1451,-2.079025,16.07938,0.05365258,0.6771903,0.8442038,-23.4283,-7.488232,-42.58062,1007.58
5.834259033,46.495,-5.27003,14.42997,0.08528692,0.6280713,0.7464864,-23.3994,-9.000775,-42.12163,1007.58
5.867035866,39.16475,-5.624587,13.75799,0.08657776,0.702269,0.7689955,-23.74247,-10.08727,-41.66886,1007.58
5.899812222,45.25258,-9.761074,18.21749,0.1400487,0.6667532,0.7101961,-23.74247,-10.08727,-41.66886,1007.58
5.932589531,51.46466,-5.447309,17.0568,0.08990844,0.7098133,0.6592258,-23.72749,-10.80426,-40.78717,1007.586
6.000664234,19.47246,-1.251728,17.97314,0.1520471,0.7217311,0.6874608,-24.0639,-12.25604,-40.39083,1007.586
6.033440590,28.54209,0.284682,16.93462,0.1238846,0.7215028,0.6884906,-24.40083,-13.71206,-40.30528,1007.586
6.066217899,26.67847,3.002945,15.4074,0.1062289,0.7943842,0.6845717,-25.85507,-13.69159,-39.06023,1007.586
6.098994255,11.89372,2.352926,10.82572,0.1142791,0.6761015,0.6847309,-25.85507,-13.69159,-39.06023,1007.586
6.134292603,14.25431,-5.329123,5.144443,0.0868854,0.7686909,0.7250907,-25.11339,-14.42221,-39.04971,1007.586
6.167068958,9.16041,-8.401942,1.356924,0.1691837,0.6700422,0.7279324,-25.4707,-14.78577,-39.04351,1007.586
6.199846268,34.69205,-13.77938,0.4405887,0.1422938,0.7326105,0.6528094,-25.4707,-14.78577,-39.04351,1007.586
6.232622623,38.35717,-11.35658,-3.285841,0.1188918,0.7571991,0.5748473,-25.82657,-15.13745,-38.16708,1007.586
6.267920494,33.88448,-10.70656,-9.272566,0.1217245,0.7943513,0.5911509,-25.81835,-15.49,-37.29113,1007.584
6.300697327,14.5028,-1.724469,-18.43592,0.1611255,0.7518259,0.5218055,-26.15538,-16.94687,-37.26774,1007.584
6.333473682,2.327125,-0.4244302,-26.43858,0.1403162,0.7471951,0.6513481,-26.15538,-16.94687,-37.26774,1007.584
6.366250992,34.44357,1.584721,-30.28719,0.1507465,0.8337556,0.5496255,-26.13448,-18.03509,-36.8776,1007.584
6.399027348,26.74059,2.943853,-27.72145,0.1761123,0.9903392,0.554143,-25.01262,-19.54431,-35.98491,1007.584
6.434325695,-8.916737,15.23513,-26.07204,0.2397587,0.9919563,0.6401533,-25.01262,-19.54431,-35.98491,1007.586
6.467102051,-9.475823,21.73533,-31.44788,0.2134889,0.8141897,0.6722534,-25.35641,-20.63675,-35.96725,1007.586
6.499879360,5.495284,32.96293,-31.20352,0.1545055,0.9146681,0.6943846,-23.52385,-21.38102,-36.7662,1007.584
6.532655716,-19.04242,48.09066,-29.79847,0.1755424,0.8465883,0.6843286,-23.52385,-21.38102,-36.7662,1007.584
6.567954063,-7.550079,59.20008,-34.80777,0.07074369,0.8000481,0.6312162,-21.69743,-21.75577,-37.19793,1007.584
6.600730419,-31.09385,71.43227,-32.24203,0.01562003,0.9087579,0.641773,-19.46799,-21.05011,-38.51762,1007.584
6.633507728,-47.55586,83.48718,-28.69887,-0.06482814,0.8418297,0.6391765,-19.46799,-21.05011,-38.51762,1007.586
6.666284084,-41.03318,94.71479,-28.5156,-0.1308109,0.8098009,0.5950961,-15.4518,-21.80641,-39.81667,1007.586
6.699060917,-56.12852,102.3378,-25.88878,-0.1614103,0.8195139,0.6278866,-12.20422,-20.3735,-41.08699,1007.586
6.734358787,-66.93754,113.4472,-30.10392,-0.2970285,0.6575217,0.5384378,-12.20422,-20.3735,-41.08699,1007.586
6.767135143,-60.97395,115.3972,-29.18758,-0.2482638,0.7722917,0.5251524,-7.448379,-18.52584,-42.86324,1007.586
6.799912453,-79.92078,131.6477,-25.33898,-0.3225359,0.7436919,0.4238043,-2.757393,-16.36245,-43.77394,1007.584
6.832688808,-130.9219,147.1891,-25.58333,-0.3648449,0.5519088,0.3505454,-2.757393,-16.36245,-43.77394,1007.584
6.867987156,-68.67693,142.4617,-17.3974,-0.4068125,0.4599152,0.4793071,3.087957,-14.18993,-43.81592,1007.584
6.900763512,-102.0979,136.316,-15.25929,-0.4342648,0.6127138,0.7034566,8.455187,-9.094961,-43.46808,1007.584
6.933540821,-77.37383,132.8296,-10.00563,-0.5601459,0.4370621,0.599083,8.455187,-9.094961,-43.46808,1007.582
6.966317177,-9.475823,119.061,-13.97642,-0.5346665,0.140837,0.6235371,14.28879,-6.109058,-41.78202,1007.582
6.999094009,92.34013,113.5654,-19.41334,-0.667735,0.3277631,0.4892711,18.97051,-3.18198,-40.15568,1007.578
7.034391880,121.6611,123.8475,-30.2261,-0.6516993,0.5099131,0.3994252,18.97051,-3.18198,-40.15568,1007.578
7.067169189,114.1445,114.0972,-20.02423,-0.8295032,0.7500364,0.40478,22.68309,-3.519626,-37.54406,1007.578
7.099945545,17.48459,114.9836,-13.73206,-0.7530541,0.6621005,0.4143585,26.37617,-6.038652,-34.52502,1007.58
7.132722378,-2.580417,111.4971,-20.57403,-0.8693392,0.3266338,0.2890231,26.37617,-6.038652,-34.52502,1007.58
7.233573914,-0.1577065,95.60118,-24.05611,-0.9868413,0.4964494,0.126827,31.88514,-7.829375,-26.79478,1007.584
7.266350746,16.3043,82.18714,-16.05345,-0.8752455,0.2945195,-0.04979315,34.51287,-8.523745,-23.80306,1007.58
7.299127102,34.62993,84.07811,-25.82769,-0.8134038,0.417464,-0.09392904,36.69482,-8.129729,-21.2631,1007.58
7.334424973,21.58457,72.14139,-20.08532,-0.8716848,0.6309373,-0.07245128,37.41404,-7.295159,-17.85772,1007.583
7.367202282,-10.34551,67.1776,-15.748,-0.9022101,0.4044148,-0.0426744,37.41404,-7.295159,-17.85772,1007.583
7.399978638,14.87552,50.69074,-14.28187,-0.9385747,0.581719,-0.06596074,39.60214,-7.270676,-15.68498,1007.585
7.432755470,-3.325866,42.18139,-9.089298,-0.8284401,0.3928414,-0.1848336,39.96975,-7.242678,-13.57205,1007.591
7.468053341,10.65131,39.16766,-10.79979,-0.9517948,0.3930055,-0.2230503,39.96975,-7.242678,-13.57205,1007.592
7.500830650,-16.12275,35.91757,-13.97642,-0.8781984,0.495405,-0.1540631,40.31644,-6.126464,-11.84926,1007.592
7.533607006,0.277139,24.57178,-4.202177,-0.8743345,0.4966306,-0.192583,40.31779,-6.115426,-11.0412,1007.592
7.566383839,2.327125,22.08988,-7.623161,-0.8243638,0.3059587,-0.2169636,40.31779,-6.115426,-11.0412,1007.588
7.599160194,7.483149,14.46693,-5.485046,-0.9245054,0.5649745,-0.1795702,40.67656,-5.739974,-10.17718,1007.591
7.634459019,13.94371,9.030398,-1.819705,-0.9955623,0.4168583,-0.2422369,41.04137,-5.734902,-9.742535,1007.591
7.667235374,-0.5304312,11.86685,-2.186239,-0.9856518,0.3407507,-0.202674,41.04137,-5.734902,-9.742535,1007.591
7.700012207,20.09367,1.407443,1.784547,-0.8954132,0.5509195,-0.3447251,40.67802,-5.728086,-9.306953,1007.591
7.732788563,-1.586484,6.548506,-3.591286,-0.9054213,0.2850763,-0.2509165,40.31466,-5.721269,-8.871371,1007.591
7.768087387,13.19826,-1.606284,-3.530197,-0.9379685,0.4845985,-0.3055339,40.31466,-5.721269,-8.871371,1007.589
7.800863743,3.258936,0.4028674,-11.65504,-0.8763836,0.3307903,-0.2255422,40.67874,-5.722142,-8.871841,1007.587
7.833640099,-1.959209,1.702906,-13.42662,-0.853382,0.4641037,-0.2026923,40.66377,-5.005156,-9.753525,1007.587
7.866416931,13.57098,5.071189,-17.09196,-0.9462404,0.499415,-0.266065,40.66377,-5.005156,-9.753525,1007.587
7.899193287,1.705917,8.380379,-23.62848,-0.9824797,0.4236053,-0.2682716,40.6645,-4.999212,-9.318413,1007.587
7.934492111,1.208951,8.498565,-29.6763,-0.8735191,0.3401501,-0.2838078,40.30114,-4.992395,-8.882832,1007.587
7.967268467,-1.772847,6.075765,-35.66302,-0.8702421,0.4009079,-0.2352896,40.30114,-4.992395,-8.882832,1007.587
8.000045300,-1.959209,-5.210938,-36.39609,-0.9128035,0.3223659,-0.2726165,40.64494,-3.899957,-8.900491,1007.587
8.032821655,-1.275881,-13.77938,-39.45054,-0.8749467,0.3254401,-0.2962977,39.88974,-2.440464,-8.922471,1007.586
8.068120480,0.09077663,-11.71113,-44.0933,-1.002616,0.3289672,-0.1958769,39.88974,-2.440464,-8.922471,1007.584
8.100896835,12.26645,-31.44809,-37.92331,-1.074181,0.3825318,-0.3214234,40.23353,-1.348025,-8.940131,1007.584
8.133673668,-6.990992,-32.33448,-39.45054,-1.025053,0.1519307,-0.2735375,40.56984,0.1029062,-9.398633,1007.586
8.166450024,-13.70004,-35.05274,-38.10658,-0.9365632,0.1302518,-0.1355639,40.56984,0.1029062,-9.398633,1007.586
8.199227333,-5.872818,-45.39396,-33.58599,-1.026843,0.2947145,-0.259789,39.80497,1.903061,-11.16679,1007.586
8.234525204,-5.500093,-46.39854,-35.11322,-0.9918492,0.07883265,-0.249438,39.40534,3.781764,-11.56888,1007.586
8.267302036,-3.512228,-48.23041,-37.31242,-1.072966,0.120675,-0.08805248,39.01589,4.83434,-14.63138,1007.586
8.332855702,-27.11812,-60.34441,-42.50499,-0.8289835,0.03281974,-0.05817296,38.62196,6.270034,-16.33212,1007.586
8.368153572,-15.19094,-47.75767,-52.03488,-0.964301,0.1740324,-0.0397731,37.14319,7.349004,-17.65276,1007.586
8.400929928,-31.03173,-55.43972,-52.95121,-1.031163,0.1212093,0.008601281,37.14319,7.349004,-17.65276,1007.584
8.433706761,-24.19845,-51.00777,-58.93793,-1.046763,-0.2526367,0.05637518,36.73709,9.524611,-18.5569,1007.586
8.466483116,-1.524364,-54.73061,-59.30447,-1.093006,0.001280643,0.06621076,35.22992,12.05029,-20.70853,1007.584
8.499260425,-33.51656,-54.43514,-55.51695,-0.9853498,0.05908848,0.05527833,35.22992,12.05029,-20.70853,1007.582
8.534558296,-41.03318,-49.1168,-59.48774,-0.9424184,-0.2283415,0.06283014,33.7365,13.91887,-22.04159,1007.582
8.567335129,-15.31518,-48.34859,-51.85161,-0.9711769,0.04194936,0.165021,32.23755,16.092,-23.31726,1007.582
8.600111484,-26.18631,-47.40311,-45.13182,-0.9695073,-0.05421708,0.1314667,32.23755,16.092,-23.31726,1007.582
8.632888794,-4.878885,-48.52588,-47.02558,-0.9481478,-0.2430275,0.1990912,30.68457,17.89999,-24.64929,1007.582
8.665665150,4.439231,-45.57124,-42.62717,-0.9326616,-0.0002523137,0.2834083,28.82965,19.7206,-25.1107,1007.582
8.700963497,-38.48623,-30.08896,-33.46381,-0.9006979,-0.1482691,0.3913806,28.82965,19.7206,-25.1107,1007.582
8.733739853,-34.19989,-25.18426,-32.48639,-0.9150308,-0.4695144,0.2975518,26.98753,20.80638,-25.99577,1007.585
8.766517162,-23.70148,-13.42482,-24.91135,-0.9192561,-0.3294004,0.280503,26.21746,22.98371,-26.83727,1007.583
8.799293518,-38.73471,-4.206362,-16.23671,-0.8980591,-0.4611467,0.2897972,26.21746,22.98371,-26.83727,1007.583
8.834591866,-5.686456,0.04831128,-4.202177,-1.00874,-0.2934416,0.166097,24.74159,24.08646,-26.41747,1007.585
8.867368221,-8.41977,3.53478,-0.5368356,-0.8405623,-0.5444272,0.2912304,24.35673,25.24647,-26.06219,1007.583
8.900145531,32.89055,0.5801454,5.694244,-0.9211103,-0.3674381,0.2757511,24.35673,25.24647,-26.06219,1007.583
8.932921886,34.38145,10.21225,16.32373,-0.928313,0.01106611,0.2949336,23.99265,25.24734,-26.06172,1007.583
8.965698242,35.25114,12.16231,19.80581,-0.9423345,-0.4078436,0.3740602,23.63533,24.88378,-26.05552,1007.585
9.000996590,13.88159,24.74905,17.78987,-0.9291133,-0.2514448,0.3665726,23.63533,24.88378,-26.05552,1007.585
9.033772945,32.82843,27.40822,18.52294,-1.007521,-0.1935823,0.1669063,24.74835,23.72202,-26.41174,1007.586
9.066550255,-2.642538,33.79023,22.0661,-0.9412352,-0.07399347,0.265248,24.7625,22.99824,-26.02733,1007.586
9.099326611,3.321057,29.47647,18.52294,-0.8433179,-0.4106624,0.2698554,24.7625,22.99824,-26.02733,1007.585
9.134624958,7.172545,36.21303,9.115229,-1.028126,-0.120794,0.08308852,26.60993,21.53613,-26.00676,1007.585
9.167401314,-15.50154,37.86763,16.69027,-1.000291,0.05970642,0.3022514,26.97546,21.54715,-25.137,1007.585
9.200178623,-8.35765,36.27213,9.66503,-0.9380597,-0.4133439,0.1381911,26.97546,21.54715,-25.137,1007.585
9.232954979,-9.97279,40.64498,6.610579,-0.9919283,-0.01835343,0.1329099,28.0834,20.83348,-23.82162,1007.585
9.265731812,-6.86675,37.80853,15.4074,-1.07906,0.09728079,0.2672422,29.17781,20.8487,-22.51769,1007.585
9.301029682,3.880144,30.42195,5.083354,-0.9929453,-0.2393036,-0.05207895,30.27212,20.86306,-21.27593,1007.585
9.333806992,-12.51974,32.07654,-1.51426,-0.9976904,-0.2588283,0.08755663,30.27212,20.86306,-21.27593,1007.585
9.366583347,7.358908,30.59923,-4.018909,-1.07125,-0.1677168,0.0409017,30.27357,20.87495,-20.4057,1007.585
9.399360180,-16.99244,32.07654,-1.086637,-1.013042,-0.1277428,0.1162772,31.0039,20.89104,-19.10131,1007.585
9.434658050,-31.46658,33.84932,-0.7811917,-1.018974,-0.1057047,0.00073122,31.0039,20.89104,-19.10131,1007.585
9.467434406,-34.19989,30.89469,-4.751978,-0.9055803,-0.210869,0.009766642,31.3633,21.27158,-17.86433,1007.585
9.500211716,-8.481891,28.88554,-0.9033697,-1.076929,-0.04372871,-0.05217452,31.77598,22.01133,-17.00612,1007.583
9.532988071,-31.09385,24.92633,-2.552773,-0.9430067,-0.2178355,-0.1066236,31.77598,22.01133,-17.00612,1007.583
9.565765381,-10.78036,28.11734,-11.22741,-0.9963812,-0.4156779,0.0126975,32.14828,21.65791,-16.13063,1007.583
9.601062775,-2.02133,27.82187,-10.98306,-1.084953,0.0633456,-0.05327959,31.78773,21.68765,-14.01676,1007.583
9.633840084,-32.21203,28.64917,-7.562072,-0.8229793,-0.2431726,-0.04236766,31.78773,21.68765,-14.01676,1007.585
9.666616440,-20.1606,32.90384,-18.92463,-1.045122,-0.1441861,-0.03862043,31.71425,22.42261,-13.59303,1007.581
9.699393272,-18.91818,24.57178,-22.16235,-1.051983,0.07093808,-0.1217226,32.86862,22.43174,-12.7243,1007.579
9.734691143,-21.40301,27.52641,-24.78918,-0.9882371,-0.1870191,-0.1031933,32.86862,22.43174,-12.7243,1007.579
9.767468452,-24.81965,23.62629,-33.34164,-1.042956,-0.4604133,-0.1310518,31.75214,23.91503,-11.06752,1007.579
9.800244808,-30.90749,29.00373,-33.70817,-1.162946,-0.2506297,-0.215803,31.31419,24.71755,-10.20916,1007.577
9.833021641,-45.07103,35.03118,-37.61787,-1.009398,-0.2835099,-0.1559474,31.31419,24.71755,-10.20916,1007.577
9.865798473,-32.83323,24.3354,-43.11588,-1.012607,-0.1719835,-0.2230172,30.20531,25.84319,-8.049386,1007.577
9.901096821,-39.2938,22.97627,-46.53687,-1.052822,-0.4144162,-0.2283328,29.47996,25.86787,-6.370159,1007.577
9.933873177,-48.79827,29.06282,-49.22478,-1.118017,-0.3437375,-0.1416395,29.47996,25.86787,-6.370159,1007.577
9.966650009,-43.58013,28.76735,-46.59795,-1.156149,-0.4334227,-0.1057932,28.7209,27.71557,-4.657422,1007.577
9.999426842,-75.82081,23.03536,-43.23806,-1.245025,-0.363717,0.2197131,27.59912,29.57519,-2.136151,1007.577
10.034724236,-72.77689,14.46693,-33.34164,-1.334292,-0.000590443,0.1572819,27.59912,29.57519,-2.136151,1007.579
10.067501545,-131.481,-9.465611,6.427312,-1.262378,0.4053658,0.2469955,26.49013,30.69999,-0.03853202,1007.579
10.100277901,-84.57984,-76.12215,76.80186,-1.402675,0.6789865,0.6820669,25.40289,30.74337,2.946501,1007.581
10.133054733,-182.0473,-157.7882,104.7806,-1.194575,0.4693417,0.1904189,25.40289,30.74337,2.946501,1007.581
10.165831566,77.67963,-192.9484,180.5921,-1.489553,-0.1217412,-0.1988563,26.17441,28.57792,4.658229,1007.581
10.201129913,127.5005,-246.7227,246.6293,-1.278652,1.003374,-0.3753052,28.4163,25.26473,2.655739,1007.581
10.233906269,-107.6888,-186.5073,265.0172,-1.133933,0.7422231,-0.6332648,28.4163,25.26473,2.655739,1007.583
10.266683102,-283.3042,-110.3368,240.3371,-1.118415,0.5288953,-0.7225134,30.70251,18.88615,-5.826632,1007.581
10.299459934,-431.5865,-87.8225,180.1645,-1.007316,-0.07577089,-0.8917862,31.98148,11.86948,-7.831694,1007.581
10.334758282,-316.3525,-34.99365,150.5363,-0.6143534,-0.5456319,-0.9247427,32.4192,7.853852,-8.204246,1007.582
10.367534638,-136.4507,19.90345,122.191,-0.7060453,0.01302156,0.02869176,32.4192,7.853852,-8.204246,1007.58
10.400311470,-209.0078,95.89664,62.32376,-0.378368,0.1574121,-0.4729193,33.17793,6.42323,-6.068866,1007.578
10.433087826,-204.3487,139.3889,35.20024,-0.9644619,0.4179997,-0.1855117,33.57331,4.999423,-3.497904,1007.578
10.465865135,-46.1892,191.095,24.8762,-0.6560875,-0.5077023,-0.6729487,33.57331,4.999423,-3.497904,1007.578
10.501163006,83.95383,203.5044,-18.80245,-1.183361,0.7474304,-0.3852541,34.32506,4.351168,2.542021,1007.578
10.533939838,-108.4963,189.0267,-42.56608,-0.8255318,0.2720865,0.236533,32.51381,4.430254,8.014346,1007.577
10.566716194,174.3396,115.87,-19.1079,-1.989609,0.9132907,0.06214919,32.51381,4.430254,8.014346,1007.575
10.599493503,-27.73933,109.5471,-33.40273,-1.544619,0.3105977,-0.505042,29.50928,6.700424,13.5781,1007.575
10.634791374,-86.00862,91.4056,-41.77192,-1.230106,-0.3262763,0.1228676,25.44784,10.02477,16.08021,1007.569
10.667568207,111.1006,44.19054,-48.98043,-1.00018,0.5836902,0.08147909,25.44784,10.02477,16.08021,1007.569
10.700344562,-31.46658,63.21839,-42.74934,-1.020571,0.7461889,-0.1290725,22.87516,11.5124,17.80102,1007.569
10.733121395,-5.997059,57.72277,-47.33102,-1.110824,-0.1036423,-0.1526084,21.40064,12.62619,19.02889,1007.57
10.765898228,16.98763,47.32246,-51.42398,-1.198883,0.3682373,-0.195952,21.40064,12.62619,19.02889,1007.57
10.801196098,2.078641,45.84514,-49.46914,-0.9800264,0.2139072,-0.2400424,18.40851,13.73851,19.88576,1007.57
10.833972931,14.56492,54.47267,-62.66436,-0.9740593,-0.0328617,-0.1540022,17.28811,15.25962,19.86329,1007.57
10.866749287,49.97376,34.0266,-54.96715,-1.019634,0.345135,-0.1616843,17.28811,15.25962,19.86329,1007.57
10.899526596,9.471013,41.11773,-58.51031,-1.163118,-0.1861398,-0.2568156,15.80766,16.74463,21.5827,1007.57
10.932302952,91.6568,21.73533,-50.26329,-1.189528,-0.1115272,-0.2814148,14.69442,17.83462,21.13181,1007.57
10.967601299,53.82525,18.7216,-32.36421,-1.134889,0.217174,-0.1443704,14.69442,17.83462,21.13181,1007.574
11.000377655,36.12083,14.6442,-23.99502,-1.23892,-0.1765059,-0.3211528,13.93318,19.66449,21.53921,1007.574
11.033154964,0.277139,3.357502,-21.3071,-1.205717,-0.01978676,-0.1664692,12.80777,21.49439,21.88492,1007.574
11.065931320,-8.109166,-9.524704,-3.530197,-1.289504,-0.3317905,-0.2485945,12.80777,21.49439,21.88492,1007.574
11.101229668,28.47997,-40.13471,3.983752,-1.120593,-0.3026302,-0.2504832,14.25128,22.22571,22.30669,1007.574
11.134006023,6.240734,-54.61242,7.343647,-1.148787,-0.05584464,-0.09723383,16.07988,21.8688,23.1803,1007.572
11.166783333,14.37855,-56.73976,6.488401,-0.9121628,-0.1909125,-0.4744977,16.07988,21.8688,23.1803,1007.572
11.199559689,-16.37123,-45.74852,11.74206,-0.9583513,0.04567272,-0.4357545,17.5415,21.48899,22.31392,1007.572
11.232336998,-17.67576,-51.48051,17.72878,-0.9537832,-0.2057592,-0.2481366,20.83099,20.74632,21.88604,1007.572
11.267634392,66.18729,-64.95364,12.0475,-0.9362802,-0.2249623,-0.2991735,23.10256,19.27809,21.53311,1007.574
11.300411701,117.9339,-60.16713,4.71682,-0.9141808,-0.1643331,-0.5019706,23.10256,19.27809,21.53311,1007.572
11.333188057,86.74926,-47.5213,4.594642,-0.89948,0.02325284,-0.2986722,25.64747,19.24227,19.35427,1007.57
11.365964413,25.80878,-34.99365,8.687606,-0.9663233,-0.009571823,-0.1059195,27.45008,19.93196,16.79194,1007.57
11.401262760,25.74666,-35.05274,6.916025,-0.8637533,-0.2554225,-0.07402237,27.45008,19.93196,16.79194,1007.57
11.434039116,99.29766,-40.90292,12.47512,-0.8810923,-0.1210296,-0.1276149,29.248,21.00308,15.46707,1007.569
11.466816425,83.5811,-35.70276,15.71284,-0.8434806,0.01712519,0.01360798,29.99894,19.50877,12.94054,1007.569
11.499592781,75.94025,-33.27996,24.69293,-0.7642323,-0.03165858,-0.02308995,29.99894,19.50877,12.94054,1007.567
11.532370090,55.44039,-22.87965,29.70223,-0.8125908,0.1023581,0.04662021,30.34659,20.213,11.18816,1007.567
11.567667484,40.71777,-18.62498,29.39678,-0.7985083,-0.1030804,0.04304555,31.83977,21.2738,9.055615,1007.567
11.600444794,103.3976,-25.59791,31.10728,-0.8482683,-0.006602171,0.03916727,31.83977,21.2738,9.055615,1007.561
11.633221149,70.65998,-24.71152,30.25203,-0.8577655,0.1209136,0.1078323,33.31345,20.15322,7.330479,1007.567
11.665998459,80.47506,-23.35239,29.09134,-0.9392761,-0.1302954,0.01068785,34.04484,19.75817,5.22187,1007.567
11.701295853,95.75677,-28.02071,29.88549,-1.025033,0.2108566,0.07584226,34.04484,19.75817,5.22187,1007.567
11.734073162,12.08009,-17.97496,23.47115,-1.02417,0.0561335,0.09725332,34.04193,19.7344,3.481423,1007.565
11.766849518,64.19942,-22.76146,20.9665,-1.049025,-0.117226,0.06099008,34.77488,19.35208,2.305196,1007.565
11.799626350,118.6172,-29.67531,16.32373,-1.029941,0.02361637,0.05062394,34.77488,19.35208,2.305196,1007.564
11.832403183,98.80069,-18.38861,12.23077,-0.9961542,0.1101304,0.05426431,35.16309,17.86968,0.5871994,1007.564
11.867701530,100.0431,-10.58837,10.88681,-1.002444,0.1185197,0.1476508,35.50939,18.56287,-1.973242,1007.564
11.900477886,107.4976,-18.32951,9.298495,-1.029704,0.1470241,0.1471911,35.50939,18.56287,-1.973242,1007.564
11.933254719,86.93562,-23.64785,7.83236,-0.9371877,0.2447664,0.1540448,35.89084,17.44491,-3.696968,1007.562
11.966031551,71.77815,-17.85677,6.793847,-0.9758701,0.1803155,0.177339,35.90833,16.32867,-5.358067,1007.564
12.001328945,84.14019,-22.40691,5.9386,-0.9588444,0.155177,0.1137968,35.90833,16.32867,-5.358067,1007.564
12.034106255,73.14481,-15.78853,1.051479,-1.019781,0.2564792,0.1166768,35.89055,17.02273,-7.918037,1007.562
12.066882610,45.3147,-17.08857,6.121867,-0.9951269,0.3160881,0.1844005,35.91614,15.5531,-8.765342,1007.562
12.099659920,16.05582,-7.692831,8.44325,-0.9906182,0.2612144,0.2022829,35.91614,15.5531,-8.765342,1007.562
12.132436276,10.21646,-5.683679,13.69691,-1.008023,0.2253784,0.1826423,35.92675,14.80045,-10.49433,1007.56
12.167734623,2.824091,-1.369913,12.65839,-0.9585248,0.2404794,0.1935735,35.56268,14.80132,-10.49386,1007.56
12.200510979,0.8362259,2.057462,13.20819,-1.061924,0.2188232,0.1452339,35.56268,14.80132,-10.49386,1007.56
12.233287811,6.7377,-5.03366,12.35295,-0.9589182,0.1954446,0.1613911,35.57016,14.44283,-10.05302,1007.56
12.266064644,17.91944,0.5801454,9.66503,-1.006545,0.2080466,0.1398237,35.94744,13.64046,-10.91129,1007.56
12.301362991,33.38751,-9.938353,13.08601,-0.9735713,0.2222618,0.1132492,36.32431,12.90476,-11.33542,1007.56
12.334139347,39.16475,-3.910898,12.65839,-0.9051636,0.2502237,0.1298925,36.32431,12.90476,-11.33542,1007.562
12.366916180,36.61779,-1.015357,12.65839,-0.9766237,0.2791626,0.1049876,36.32504,12.91071,-10.9003,1007.564
12.399693012,31.02692,-2.610859,11.00899,-0.9363236,0.2835089,0.1212517,36.32296,12.89373,-12.14348,1007.564
12.432469845,18.35429,1.289258,8.259982,-1.00875,0.3145319,0.1170445,36.32296,12.89373,-12.14348,1007.561
12.467767715,9.781617,-1.429006,7.465826,-0.9737216,0.2906296,0.1396214,36.34397,11.80636,-11.69118,1007.561
12.500544548,-7.177354,2.057462,7.282558,-0.9538493,0.3149848,0.1862297,37.09096,10.69942,-12.54515,1007.561
12.533321381,-13.01671,5.071189,4.411375,-0.9910516,0.2296958,0.1527511,37.09096,10.69942,-12.54515,1007.563
12.566097736,1.271071,-2.138118,3.495039,-0.974095,0.2454024,0.1497991,36.72084,11.07067,-12.1153,1007.563
12.601396084,4.936197,-2.610859,2.273259,-0.9751815,0.2915781,0.137698,36.73291,10.3299,-12.97406,1007.563
12.634172439,6.613458,-1.901747,1.60128,-0.9703017,0.2778513,0.118934,36.73291,10.3299,-12.97406,1007.563
12.666949272,8.41496,-4.14727,1.112568,-0.9839807,0.3117962,0.1141017,36.74716,9.606976,-12.52749,1007.563
12.699726105,3.258936,-1.369913,-0.5979246,-0.9645968,0.3330712,0.1385731,37.10375,9.964596,-12.9688,1007.561
12.732502937,-0.4061896,-2.433581,0.1351436,-0.9251624,0.288546,0.1318076,37.10375,9.964596,-12.9688,1007.559
12.767800808,5.557405,-2.019933,1.60128,-0.9625733,0.2964734,0.1261081,36.73364,10.33585,-12.53895,1007.559
12.800577640,6.240734,-2.315396,2.21217,-0.9640588,0.3086402,0.1265746,36.74643,9.60103,-12.9626,1007.559
12.833354473,7.172545,-3.556342,1.784547,-0.9616311,0.3091643,0.1289749,36.74643,9.60103,-12.9626,1007.561
12.866131306,7.980115,-2.019933,0.6849447,-0.9621025,0.3048338,0.1371657,36.73291,10.3299,-12.97406,1007.567
12.901429176,6.613458,-2.610859,0.9293008,-0.9514491,0.3176024,0.1395279,36.37487,9.960398,-13.40298,1007.569
12.934206009,1.892279,0.1664966,0.1962326,-0.9748008,0.3369191,0.1438865,36.37487,9.960398,-13.40298,1007.569
12.966982365,1.395313,-1.429006,0.3794996,-0.984889,0.28701,0.1228057,37.10979,9.594215,-13.39819,1007.565
12.999759674,5.93013,-1.606284,-0.1703015,-0.9363685,0.305539,0.1375849,37.48063,9.228905,-13.39293,1007.565
13.032536030,-3.015262,-0.0107814,-1.147726,-0.9655716,0.3350279,0.1409793,37.48063,9.228905,-13.39293,1007.565
13.067833900,-0.281948,-0.9562643,-0.9644588,-0.961103,0.289627,0.1203386,37.09627,10.32309,-13.40965,1007.565
13.100610733,4.066506,-0.7198936,-1.453171,-0.9393127,0.3166493,0.1279479,36.73895,9.959524,-13.40345,1007.566
13.133387566,0.9604675,1.466536,-1.453171,-0.9713689,0.3187702,0.1212817,36.73895,9.959524,-13.40345,1007.566
13.166164398,0.277139,-0.4244302,-0.2924795,-0.9436296,0.2942096,0.127992,37.10303,9.958652,-13.40392,1007.566
13.198940754,1.333192,0.5210528,-1.025548,-0.9718425,0.3149135,0.1275463,36.3756,9.966341,-12.96786,1007.566
13.234239101,3.134695,-2.138118,-0.9644588,-0.9684166,0.3042507,0.1309238,36.3756,9.966341,-12.96786,1007.566
13.267015934,1.519554,-3.142694,-1.025548,-0.9558253,0.3205015,0.1414594,37.46783,9.963722,-12.96927,1007.566
13.299792767,1.14683,-0.2471521,-0.7811917,-0.9601704,0.307722,0.1299363,36.74571,9.595087,-13.39772,1007.566
13.332569122,1.271071,-1.015357,-0.4757466,-0.9621264,0.3135535,0.1304135,36.74571,9.595087,-13.39772,1007.568
13.367867470,-1.089518,0.04831128,-0.9644588,-0.9490084,0.3117616,0.1371242,36.73895,9.959524,-13.40345,1007.566
13.400643826,-0.1577065,-1.07445,-1.025548,-0.9674089,0.289171,0.1323882,36.37487,9.960398,-13.40298,1007.568
13.433421135,-3.201624,-1.665376,-1.758616,-0.9562603,0.2995687,0.1434174,36.36811,10.32483,-13.40871,1007.566
13.466197491,-3.512228,-1.31082,-2.064061,-0.9844256,0.3008116,0.1458892,36.36811,10.32483,-13.40871,1007.566
13.498974800,-1.834967,-2.256303,-2.430595,-0.9703265,0.2905977,0.1309489,36.3756,9.966341,-12.96786,1007.569
13.534272194,-6.369784,-0.8971716,-4.690889,-0.9732797,0.3121767,0.1559542,37.46034,10.32222,-13.41012,1007.565
13.567049503,-14.94245,-1.724469,-6.46247,-0.9819714,0.2921524,0.1584118,37.46034,10.32222,-13.41012,1007.569
13.599825859,-24.9439,-1.96084,-9.089298,-0.9596785,0.3128775,0.1703618,36.36738,10.31889,-13.84382,1007.569
13.632603168,-33.76505,-0.06987408,-11.8383,-0.9804522,0.2623287,0.1401614,36.73967,9.965467,-12.96833,1007.569
13.667900562,-25.37874,-2.197211,-13.42662,-0.9536933,0.2416563,0.1468682,36.73967,9.965467,-12.96833,1007.57
13.700676918,-32.52263,0.9937943,-18.61918,-0.9722202,0.2787139,0.1752566,36.71263,11.42322,-12.99125,1007.568
13.733454227,-41.96499,0.9347016,-21.18492,-0.9902022,0.2833639,0.1651837,36.33503,12.15296,-13.00224,1007.568
13.766230583,-42.77256,2.293833,-22.71215,-0.9697064,0.24169,0.1709742,36.33503,12.15296,-13.00224,1007.566
13.799007893,-47.61798,4.598447,-22.58997,-1.04402,0.2462901,0.1514077,36.32899,12.52335,-12.57286,1007.566
13.834305286,-47.12101,4.953003,-21.36819,-0.9570053,0.2131846,0.1887974,35.93747,14.04865,-12.16116,1007.566
13.867082596,-52.4634,8.853121,-26.80511,-1.043232,0.1227133,0.1694025,35.93747,14.04865,-12.16116,1007.566
13.899858952,-44.63618,6.607599,-31.81441,-0.9460536,0.09322415,0.1542942,36.28407,15.16401,-10.50053,1007.566
13.932636261,-60.10426,16.47608,-37.00698,-1.002512,0.159882,0.2125724,35.53635,16.26501,-10.08167,1007.566
13.967933655,-65.0118,13.40326,-38.35094,-0.9283876,0.0215144,0.1866116,35.53635,16.26501,-10.08167,1007.566
14.000710964,-56.37701,19.60799,-40.36687,-0.9739935,-0.002528289,0.1458403,34.42457,17.36689,-9.662335,1007.566
14.033487320,-53.70581,22.44444,-42.74934,-0.8918517,-0.04098988,0.1192285,34.38753,19.58238,-7.583316,1007.566
14.066264629,-63.8315,32.31292,-48.61389,-0.9754297,-0.01434292,0.1294952,34.38753,19.58238,-7.583316,1007.568
14.099040985,-73.7087,33.37658,-52.70686,-0.9034703,-0.05316569,0.1332339,33.62848,21.43008,-5.870579,1007.568
14.134339333,-83.77227,40.64498,-56.06675,-0.9786788,-0.09385885,0.04490307,33.61245,22.55821,-3.339257,1007.568
14.167115688,-79.92078,39.64041,-55.94457,-0.8775378,-0.1519029,0.05100837,33.61245,22.55821,-3.339257,1007.568
14.199892998,-85.63589,48.26794,-55.39477,-0.9846028,-0.05299722,0.04485554,31.70797,24.05018,-1.184191,1007.568
14.232669354,-84.57984,41.11773,-49.46914,-0.9143035,-0.229367,-0.04842956,30.21422,26.33585,1.330864,1007.568
14.267966747,-74.70264,47.55883,-46.29251,-0.9592573,-0.1058408,-0.02059013,29.48419,26.74194,4.247539,1007.574
14.300744057,-83.21318,43.18597,-39.45054,-0.9205677,-0.2630162,-0.1171987,29.48419,26.74194,4.247539,1007.572
14.333520413,-49.54372,47.26336,-37.31242,-0.8894283,-0.2875317,-0.1080898,27.27839,28.25163,7.646173,1007.572
14.366297722,-38.98319,45.72695,-33.40273,-0.9611939,-0.3406415,-0.1651215,26.1823,28.64246,9.382298,1007.568
14.399074078,-14.32124,41.41319,-29.6763,-0.9548069,-0.1540519,-0.0951391,26.1823,28.64246,9.382298,1007.572
14.434372425,-44.57406,42.9496,-21.00166,-1.013183,-0.3360459,-0.2121786,24.35192,29.40456,11.48659,1007.57
14.467148781,-22.64543,36.80396,-14.95384,-0.9481712,-0.2984604,-0.1382597,22.89103,29.79033,12.78807,1007.574
14.499926090,-31.71506,38.75402,-15.50364,-1.035436,-0.3728094,-0.2192908,22.89103,29.79033,12.78807,1007.574
14.532702446,-17.05456,29.59465,-18.55809,-0.972283,-0.3814258,-0.2035427,22.52841,29.80309,13.65876,1007.574
14.568000793,-14.25912,26.69911,-20.08532,-0.9208864,-0.3604292,-0.2576088,20.29137,29.45507,14.47546,1007.576
14.600777149,-23.57724,28.94463,-23.56739,-0.9248635,-0.3452435,-0.3803695,20.29137,29.45507,14.47546,1007.576
14.633554459,-34.51049,25.04452,-21.49037,-0.9054062,-0.3460537,-0.3101356,18.82903,29.82894,14.90672,1007.574
14.666330814,-28.79538,25.45816,-15.1982,-0.8701001,-0.2979475,-0.3685366,18.09629,30.21295,16.20726,1007.576
14.699107647,-22.21058,22.91718,-3.163663,-0.9122893,-0.3292605,-0.4083424,18.09629,30.21295,16.20726,1007.576
14.734405518,0.2150182,17.18519,2.089992,-0.8526223,-0.2902652,-0.3353757,16.64674,29.85201,16.21487,1007.576
14.767182350,-0.9031558,13.28507,3.006327,-0.771136,-0.2389487,-0.2677743,16.29015,29.49438,16.65619,1007.576
14.799959183,-1.959209,9.444047,2.273259,-0.8172526,-0.2542959,-0.3181848,16.29015,29.49438,16.65619,1007.576
14.832736015,-43.76649,16.41698,2.517615,-0.8151178,-0.3356232,-0.3195113,14.82636,29.85637,16.21722,1007.576
14.868033886,-1.089518,7.021247,11.07008,-0.8779817,-0.2649197,-0.442216,14.84061,29.13344,16.66379,1007.576
14.900810242,-17.73789,6.607599,4.71682,-0.7446923,-0.3231311,-0.2186112,14.84061,29.13344,16.66379,1007.576
14.933587551,11.95584,-12.42025,1.479102,-0.7850328,-0.318008,-0.2738799,14.46831,29.48686,15.78831,1007.577
14.966363907,9.036168,-16.97038,3.678307,-0.7766466,-0.1886055,-0.3756621,13.73943,29.48266,15.35414,1007.577
14.999140739,24.00728,-8.638313,8.076715,-1.14608,-0.4540395,-0.4913567,13.73943,29.48266,15.35414,1007.579
15.034438610,27.23756,-25.65701,-5.362868,-1.25261,-0.5387106,-0.2825468,13.74266,29.08936,13.24647,1007.581
15.067215920,38.48142,-50.83049,24.14313,-1.292841,-0.08687834,0.09569931,12.2692,29.792,11.06133,1007.581
15.099992275,-23.453,-53.72603,58.35298,-1.356487,-0.3627646,-0.3499563,12.2692,29.792,11.06133,1007.583
15.132769108,-10.46976,-65.30819,81.20027,-1.176938,-0.279157,-0.1690348,11.90232,29.76995,9.383512,1007.583
15.168066978,-5.25161,-74.76302,83.88818,-0.9172099,-0.2600977,-0.1918222,13.72801,29.38926,8.516669,1007.585
15.200843811,26.61635,-75.53122,77.10731,-0.8634397,-0.00455248,-0.2082198,13.72801,29.38926,8.516669,1007.586
15.233620644,-1.089518,-60.75806,63.2401,-0.8905092,-0.0341815,-0.09402818,15.94483,27.54995,7.672276,1007.586
15.266397476,6.427096,-59.6353,51.38883,-0.9285452,-0.1648104,-0.06293393,18.52572,25.70977,6.827415,1007.588
15.299173832,9.719497,-66.19458,51.93863,-1.03934,0.07537154,-0.0596636,18.52572,25.70977,6.827415,1007.59
15.334472179,3.010453,-65.13091,58.29189,-1.125303,0.09307956,-0.001241634,19.63544,24.59091,5.164907,1007.59
15.367249012,14.99976,-75.53122,61.65178,-1.054741,0.02940964,0.003019221,21.5425,23.05009,3.881019,1007.59
15.400025845,17.36035,-78.78132,61.10198,-1.05771,0.05427725,0.01069057,22.65835,21.5617,1.851289,1007.59
15.432802200,23.19971,-76.65398,55.48179,-1.029541,0.05965368,0.04960596,22.65835,21.5617,1.851289,1007.59
15.468100548,26.80271,-76.06306,54.50437,-1.032264,0.1939273,0.1013971,24.13276,20.44707,0.561264,1007.59
15.500876903,4.439231,-70.56744,49.25071,-0.9654668,0.09826383,0.2019875,25.61862,18.58658,-1.960477,1007.59
15.533653736,26.24362,-73.87663,46.80715,-1.008915,0.2028718,0.2389977,25.61862,18.58658,-1.960477,1007.59
15.566430569,15.62097,-69.20831,45.09666,-0.9559621,0.1951277,0.2523619,26.36415,17.46775,-3.684673,1007.59
15.599206924,3.818023,-66.78551,38.7434,-0.9638316,0.2419848,0.276378,26.75175,15.98025,-5.775622,1007.591
15.634505272,32.20722,-66.07639,36.97182,-0.986224,0.2727422,0.313931,26.75175,15.98025,-5.775622,1007.591
15.667282104,0.02865586,-60.87624,30.9851,-1.000387,0.3188371,0.3759908,27.50945,14.12151,-8.296424,1007.591
15.700058937,-9.97279,-58.39435,19.50036,-1.021883,0.153464,0.2934968,27.15068,13.74606,-9.160447,1007.593
15.732835293,0.7741051,-53.78512,14.97977,-1.049968,0.3327468,0.3346903,27.15068,13.74606,-9.160447,1007.593
15.765612602,-62.27848,-43.08935,0.01296555,-1.050441,0.3334407,0.3650162,27.89807,12.57243,-10.44858,1007.593
15.800910473,-44.94678,-21.28415,-14.6484,-1.075061,0.01373008,0.08395981,27.91627,11.46214,-11.67456,1007.593
15.833687305,9.781617,12.93052,-19.77987,-1.193591,0.2321502,0.04877235,27.91627,11.46214,-11.67456,1007.591
15.866463661,37.79809,45.3724,-36.21282,-1.270445,0.07334112,-0.003755801,27.90202,12.18507,-12.12114,1007.591
15.899240971,71.15694,51.87259,-52.58468,-1.211577,0.04733126,0.1073383,28.63694,11.81889,-12.11635,1007.59
15.934538364,128.1217,53.94083,-65.2301,-1.272283,0.2487106,0.07348348,28.63694,11.81889,-12.11635,1007.59
15.967315674,118.8657,62.39109,-75.61523,-1.197436,0.3903282,-0.1026045,29.72917,11.81627,-12.11775,1007.59
16.000092030,87.68107,83.369,-87.03888,-1.046036,0.1895404,-0.3029075,30.8214,11.81365,-12.11916,1007.588
16.032869339,149.4291,83.95992,-92.04818,-1.024903,0.5093545,-0.2129436,30.8214,11.81365,-12.11916,1007.585
16.065645695,97.49615,90.51921,-85.02294,-0.8114904,0.6205793,-0.1635558,32.33443,12.19738,-10.44856,1007.585
16.100944042,109.6718,96.42848,-66.69624,-0.7456974,0.5410532,-0.05239744,34.50152,13.30923,-8.728127,1007.585
16.133720398,127.1278,92.76473,-47.33102,-0.4812734,0.4126887,-0.1293677,34.50152,13.30923,-8.728127,1007.583
16.166497707,177.1971,87.3873,-41.64974,-0.3836056,0.4080153,-0.008289106,35.54883,15.94728,-6.657202,1007.581
16.199274063,109.8582,60.61831,-31.57006,-0.5145246,0.5906321,0.2858582,36.62005,17.03203,-7.110912,1007.579
16.234571457,139.1792,45.66786,-11.89939,-0.3473074,0.479191,0.09789847,37.32792,18.12359,-7.129043,1007.577
16.267348766,36.12083,-32.92541,6.366223,-0.7819815,1.099991,1.015469,37.32792,18.12359,-7.129043,1007.577
16.300125122,-3.077383,-111.3414,9.726119,-0.8919088,-0.002943615,1.248446,38.40455,18.83287,-8.385089,1007.577
16.365678787,448.7891,-153.2972,28.84698,-2.440843,0.1037058,-0.1834617,39.13086,18.39621,-13.53948,1007.576
16.400977135,19.65882,-118.3143,47.17369,-1.769045,0.2153988,0.9233527,37.67978,17.18326,-22.53344,1007.576
16.433753491,101.037,-125.1691,46.80715,-0.9845404,-0.07626737,0.06029404,35.60817,10.48638,-28.39377,1007.577
16.466530800,49.04195,-67.79008,38.68231,-0.2122572,0.8565726,0.06475813,35.60817,10.48638,-28.39377,1007.577
16.499307155,-8.730374,-31.97992,25.67035,-0.5747818,0.3969586,0.2424891,33.10801,7.530288,-31.76338,1007.576
16.534605503,45.74955,-32.80722,12.96384,-1.019663,0.03962316,0.3090667,31.99963,4.959066,-33.40006,1007.576
16.567381859,36.86628,-32.33448,15.59066,-1.161913,0.02563616,0.2896893,31.99963,4.959066,-33.40006,1007.574
16.600159168,4.128627,-25.06608,11.43661,-0.9255974,0.1201377,0.4281,30.93153,3.48016,-35.11618,1007.574
16.632935524,0.8983467,-19.74774,6.671669,-0.7538063,0.1604202,0.4112655,30.23082,1.957474,-35.52648,1007.574
16.665712356,11.8316,-11.9475,2.456526,-0.8866791,0.4736443,0.2989513,30.23082,1.957474,-35.52648,1007.576
16.701010227,-3.139504,-4.442733,-5.362868,-0.9705668,0.05199242,0.4879982,29.87954,1.223529,-35.94966,1007.576
16.733787537,0.6498636,-8.815592,-0.9033697,-1.037504,0.194976,0.3286107,29.14462,1.589712,-35.95445,1007.574
16.766563892,3.196815,7.316711,-4.324355,-0.9889281,0.1936574,0.3607487,29.14462,1.589712,-35.95445,1007.574
16.799340725,-17.98637,10.80318,1.906725,-0.9300689,0.1629663,0.4290088,29.1439,1.583767,-36.38956,1007.574
16.834638596,-9.351582,22.20807,5.32771,-0.9924152,0.2336723,0.3761002,28.77982,1.58464,-36.38909,1007.572
16.867415905,-13.26519,29.12191,5.266621,-0.9416733,-0.08689278,0.301852,28.77982,1.58464,-36.38909,1007.572
16.900192261,-11.21521,34.0266,3.983752,-0.7997986,0.3167264,0.461682,29.50267,1.959219,-35.52554,1007.572
16.932969093,-11.33945,30.12649,3.617218,-0.9006308,0.2123995,0.2883068,30.22479,2.327856,-35.0971,1007.568
16.965745449,-0.4061896,24.92633,5.32771,-1.03528,0.06401379,0.2633376,30.22479,2.327856,-35.0971,1007.574
17.001043320,1.395313,20.78984,13.69691,-1.056828,0.1529063,0.3253504,30.94764,2.702435,-34.23354,1007.574
17.033820629,31.89662,6.607599,18.40076,-1.029588,0.1144955,0.2319595,31.6839,2.347291,-33.42068,1007.576
17.066596985,21.70881,2.293833,19.74472,-0.9684857,0.1567012,0.2745922,31.6839,2.347291,-33.42068,1007.576
17.099373817,31.8345,2.766575,33.91737,-0.9294872,0.2983139,0.2810253,33.21441,1.614782,-33.41118,1007.572
17.134671688,11.21039,3.593872,36.17767,-0.9264476,0.03412478,0.2467582,31.71771,0.525106,-33.39204,1007.576
17.167448998,33.51175,-1.842654,27.56411,-0.9530386,0.1958165,0.2778661,31.71771,0.525106,-33.39204,1007.576
17.200225353,15.68309,7.73036,19.92799,-0.852158,0.4610099,0.331621,32.17772,-1.286209,-32.49371,1007.576
17.233002186,24.62848,0.8165162,16.62918,-0.8638874,0.4718479,0.2233261,32.56812,-2.750773,-32.90637,1007.576
17.265778542,20.59063,2.116555,22.12719,-0.9755721,0.485502,0.2899983,32.56812,-2.750773,-32.90637,1007.576
17.301076889,-13.70004,16.83063,11.86423,-0.9219499,-0.03456152,0.1693518,32.59517,-4.208522,-32.88345,1007.577
17.333853722,-1.400122,3.830243,5.755333,-0.7921686,0.3439105,0.299404,32.98025,-5.296761,-32.43162,1007.577
17.366630554,30.9648,-0.06987408,10.03156,-1.055049,0.6079906,0.2100962,32.63115,-6.012875,-31.54947,1007.577
17.399406910,-33.6408,8.439471,10.45919,-0.9482241,0.1906635,0.1613729,32.63115,-6.012875,-31.54947,1007.577
17.434705257,5.308922,-3.379064,-0.9033697,-0.9255508,0.2668285,0.2310018,32.63646,-6.3892,-32.41396,1007.577
17.467482090,26.11938,-4.915474,-15.01493,-1.005838,0.3160541,0.1223303,32.63646,-6.3892,-32.41396,1007.577
17.500258922,-4.319798,0.5801454,-13.5488,-0.8925402,0.6791332,0.2298207,32.63646,-6.3892,-32.41396,1007.577
17.533035278,-37.49229,15.41241,-18.61918,-0.8741416,0.09406995,0.2595406,32.19891,-5.653364,-31.98977,1007.577
17.565812588,6.861941,20.43529,-26.80511,-0.9131735,0.3757081,0.2548764,32.6297,-6.024763,-32.41969,1007.577
17.601110458,-50.28917,27.64459,-29.1265,-0.8050686,0.433955,0.166443,32.6297,-6.024763,-32.41969,1007.582
17.633887291,-64.01786,36.27213,-27.11056,-0.9009645,0.1415255,0.2523123,32.97494,-4.920436,-31.56713,1007.583
17.666663647,-27.73933,32.01745,-26.49967,-1.061425,0.22106,0.186145,34.04158,-3.453419,-30.72124,1007.582
17.699440956,-50.53765,29.71284,-32.05877,-1.041672,0.07231398,0.1338539,34.04158,-3.453419,-30.72124,1007.582
17.734738350,-26.55904,17.30338,-26.8662,-0.8810848,0.3634869,0.2798495,34.36041,-0.8862495,-29.51864,1007.582
17.767515182,-43.20741,10.6259,-27.72145,-1.061482,0.03024687,0.1315575,35.0609,0.5646582,-29.91545,1007.58
17.800292015,-7.798562,-0.1880594,-21.36819,-0.8627234,0.3824323,0.1806169,35.0609,0.5646582,-29.91545,1007.582
17.833068371,-52.774,10.27135,-10.7387,-1.14062,0.04337236,0.2231842,35.40001,2.038517,-28.69567,1007.582
17.865845680,2.824091,21.67623,-24.23937,-1.059842,-0.4679355,0.06828338,35.00027,3.916369,-29.15991,1007.582
17.901143551,91.53256,28.82645,-7.745339,-0.7902632,0.8176413,0.5542886,35.00027,3.916369,-29.15991,1007.583
17.933920383,-55.56944,33.55386,-4.568711,-1.058444,0.3680998,0.0357315,35.34479,5.014752,-28.74246,1007.583
17.966696739,-26.4348,-8.10648,6.427312,-1.031045,0.2796276,0.02713534,36.10217,3.57309,-27.41515,1007.585
17.999474049,-56.37701,-8.579221,-16.72542,-0.9938002,-0.2758838,0.01151796,36.10217,3.57309,-27.41515,1007.587
18.032250404,2.948332,-12.59752,-31.02025,-1.246209,-0.2821893,0.1786773,36.08116,4.660457,-27.86745,1007.587
18.067548752,12.39069,-23.17511,-13.60989,-0.9191021,0.8296634,0.2667217,36.06764,5.389331,-27.87891,1007.589
18.100325108,-53.33309,-17.20675,-0.04812346,-1.044039,-0.1732405,0.05432361,36.06764,5.389331,-27.87891,1007.59
18.133102417,-6.618267,-20.51594,-13.36553,-1.002336,-0.133354,0.1369588,34.96719,5.744499,-28.75345,1007.59
18.165878773,12.01797,-40.48927,-9.944545,-1.142124,0.03807967,0.09419078,35.30422,7.201374,-28.77684,1007.59
18.201177120,14.93764,-40.48927,11.19226,-0.8901354,0.2999811,0.3333979,35.30422,7.201374,-28.77684,1007.592
18.233953476,-4.692523,-39.13014,8.565428,-1.026559,-0.3503861,0.1931813,33.83907,7.552319,-30.02387,1007.592
18.266730785,56.43432,-40.96201,4.533553,-0.9779162,0.236766,0.2432054,32.75818,6.808231,-31.31634,1007.598
18.299507141,6.79982,-49.1168,16.07938,-0.8023802,0.1274124,0.2054076,32.75818,6.808231,-31.31634,1007.598
18.332283974,19.41034,-39.95744,10.88681,-0.9145676,-0.04153804,0.34793,32.76276,6.425962,-32.61594,1007.598
18.367581844,91.84316,-44.2712,47.29586,-1.117413,0.5092143,0.2984822,30.91343,4.591302,-33.82804,1007.596
18.400359154,40.90413,-21.40233,38.98776,-1.049184,0.2151817,0.3767442,30.21014,3.117468,-35.10951,1007.596
18.433135510,50.59497,-47.93495,28.23609,-1.171773,0.0388751,0.03408969,30.21014,3.117468,-35.10951,1007.596
18.465912342,49.91164,-34.22544,32.57341,-1.178343,0.6338706,0.4380337,29.15066,1.21933,-36.38383,1007.595
18.501210213,14.00583,-24.59334,23.95986,-0.8433677,-0.1836438,0.2781779,28.45496,-0.6121478,-37.1623,1007.593
18.533987522,25.37393,-32.9845,22.55481,-1.132301,0.6884512,0.5273756,28.45496,-0.6121478,-37.1623,1007.593
18.566763878,-14.38336,-43.91665,42.22548,-0.9104663,0.06289439,0.3025149,27.38905,-2.073222,-37.57309,1007.593
18.599540234,70.03877,-17.91586,27.31976,-0.7779291,0.1161812,0.5221026,27.05587,-3.91831,-39.28442,1007.593
18.632317066,41.09049,-32.21629,65.01168,-1.094377,1.035529,0.3154447,27.05587,-3.91831,-39.28442,1007.593
18.667614937,56.80704,-2.729045,28.78589,-0.5510283,-0.3641164,0.4486399,25.60705,-4.273312,-38.84169,1007.591
18.700392246,43.26472,-29.02529,43.87488,-0.9261157,0.925238,0.2916251,24.897,-5.38271,-40.1289,1007.591
18.733168602,-62.3406,-16.8522,37.70489,-0.9216574,-0.1037288,0.4481638,24.897,-5.38271,-40.1289,1007.593
18.765945435,112.5294,-41.90749,83.88818,-0.8563932,0.839378,0.4677675,23.48779,-8.002056,-40.89402,1007.593
18.801243782,-64.14211,-21.87507,78.93997,-0.4355097,0.283146,0.5176693,22.40087,-8.375763,-41.7571,1007.595
18.834020615,106.1309,-27.48888,90.66907,-0.805473,0.642314,0.3634883,22.40087,-8.375763,-41.7571,1007.595
18.866796970,-79.79654,-32.51176,109.2401,-0.6794335,0.9436778,0.4055763,21.30808,-11.65888,-42.13916,1007.595
18.899573803,-7.487958,-16.20218,80.65047,-0.5585356,-0.04541824,0.5526329,19.56811,-16.0337,-42.50316,1007.595
18.932350159,136.3216,-63.41722,136.608,-0.7911739,1.673203,0.88129,19.56811,-16.0337,-42.50316,1007.595
18.967648983,-103.713,-19.92501,101.3596,-0.3496728,-0.3274866,0.2911832,17.71922,-14.58348,-43.39396,1007.595
19.000425339,144.6458,-71.51292,100.7488,-0.6296772,0.8703828,0.5215769,13.43859,-19.37737,-43.74798,1007.599
19.033202171,-46.81041,-64.71726,110.0954,-0.4091566,1.461791,0.556746,13.43859,-19.37737,-43.74798,1007.597
19.065978527,-119.3054,-99.40466,112.7833,-0.3186428,0.7873061,0.6677798,10.85183,-20.4466,-42.42209,1007.599
19.101276875,-93.64948,-129.4828,127.0781,-0.2727315,0.8989524,0.76907,5.421673,-22.27862,-44.06468,1007.599
19.134053707,-136.8234,-129.5419,112.0502,-0.2172749,0.6444175,0.729369,5.421673,-22.27862,-44.06468,1007.599
19.166830540,-34.57262,-161.5111,97.32777,-0.2550844,0.4269155,0.8043975,0.2061862,-19.38048,-46.27942,1007.599
19.199606895,58.67067,-177.407,83.39948,0.06356438,0.4000773,0.9042868,-6.82059,-13.47217,-46.36312,1007.599
19.232384205,146.4473,-179.8889,71.5482,0.0217757,0.3719797,0.6959986,-6.82059,-13.47217,-46.36312,1007.599
19.267682076,209.2514,-182.8435,75.82443,0.4450741,0.798969,0.5162473,-14.54365,-12.33152,-44.25697,1007.599
19.300458908,82.21445,-104.7821,57.49773,0.3933175,1.080446,0.2935567,-22.19401,-14.79363,-39.04773,1007.599
19.333235264,-34.63474,-37.06189,22.67699,0.3655666,0.8729836,0.1192008,-28.29993,-18.78381,-34.25169,1007.599
19.366012573,-36.68472,7.434896,-3.896731,0.4718938,0.6948839,0.2241539,-28.29993,-18.78381,-34.25169,1007.599
19.401310444,-4.568282,11.92594,-7.68425,0.3567724,0.9316755,0.3054202,-30.47701,-19.13791,-33.87019,1007.597
19.466863632,-40.16349,13.876,11.55879,0.1873592,0.9234685,0.3794828,-29.7577,-18.7922,-35.12004,1007.597
19.499639988,-45.13315,12.45777,16.87354,0.4422232,0.7650687,0.4773148,-29.77307,-18.00853,-35.56756,1007.597
19.532417297,-39.2938,10.68499,5.144443,0.4130836,0.7788842,0.5380147,-28.70934,-16.56529,-36.46212,1007.597
19.567715168,-33.57868,2.293833,9.176317,0.3765861,0.8187508,0.5717365,-28.70934,-16.56529,-36.46212,1007.597
19.600492000,-38.05138,1.052887,6.182956,0.4383919,0.7582933,0.5582029,-29.10784,-14.74733,-36.86325,1007.595
19.633268356,-46.74829,5.839394,-1.086637,0.3439946,0.6281567,0.5177072,-29.49366,-13.66503,-37.75019,1007.595
19.666045666,-52.83612,2.530204,-14.40404,0.2874167,0.5404129,0.5747743,-29.49366,-13.66503,-37.75019,1007.594
19.701343536,-19.47727,-3.556342,-25.33898,0.2586061,0.6073467,0.5694467,-29.52747,-11.84285,-37.77884,1007.595
19.734120369,-45.07103,9.562233,-32.18095,0.3196166,0.6849915,0.5956599,-29.17764,-11.12079,-38.22588,1007.595
19.766896725,-73.27386,25.22179,-38.65638,0.4034571,0.5523335,0.6086578,-29.17764,-11.12079,-38.22588,1007.594
19.799674034,-63.02393,34.67662,-48.06409,0.2947316,0.5379366,0.6301173,-28.45697,-10.76404,-38.66766,1007.594
19.832450390,-56.43913,38.69492,-51.17963,0.1660329,0.5839861,0.8233792,-27.75731,-9.319927,-39.56175,1007.594
19.867748737,-14.32124,15.11694,-33.09728,0.1696123,0.7307861,0.9179777,-27.75731,-9.319927,-39.56175,1007.594
19.900525093,-7.550079,3.948428,-24.85026,0.1367166,0.8652651,0.8254316,-26.31598,-8.606431,-40.44531,1007.594
19.933302402,-21.34089,1.939277,-11.34959,0.2738944,0.7586475,0.8069751,-25.59594,-8.254778,-41.26004,1007.592
19.966078758,-0.5304312,0.46196,-2.674951,0.2240534,0.6720247,0.7369452,-25.59594,-8.254778,-41.26004,1007.592
20.001377106,-18.79394,5.189374,-7.012271,0.1891307,0.6521248,0.7187662,-25.23872,-7.892063,-41.32841,1007.594
20.034153461,-7.736441,3.652965,-8.783854,0.1604448,0.6755475,0.7597147,-25.96001,-8.253905,-41.25957,1007.594
20.066930771,-23.39088,3.652965,-16.17562,0.1603029,0.5228129,0.7180668,-25.96001,-8.253905,-41.25957,1007.594
20.099707127,-3.760711,-2.374489,-21.67364,0.2487805,0.480225,0.7208093,-24.14712,-7.899776,-41.70277,1007.595
20.132483959,14.87552,-0.3653375,-26.62185,0.08291188,0.6021048,0.7272767,-25.24724,-7.471981,-41.70804,1007.595
20.167781830,21.95729,0.284682,-27.90471,0.1598534,0.5031671,0.6949921,-25.24724,-7.471981,-41.70804,1007.595
20.200559139,57.30401,-1.901747,-25.70551,0.1362313,0.6324112,0.6789683,-24.51119,-7.898903,-41.7023,1007.595
20.233335495,28.91482,0.5801454,-21.18492,0.1613041,0.7121947,0.7057449,-24.12007,-9.357523,-41.67985,1007.595
20.266111851,42.14654,1.466536,-18.19156,0.1560938,0.6540869,0.6904413,-24.12007,-9.357523,-41.67985,1007.595
20.298888683,24.93909,3.475687,-18.61918,0.1486173,0.7464792,0.7485645,-24.44889,-11.16695,-40.7805,1007.595
20.334186554,36.24507,2.825667,-17.03087,0.1653942,0.8290807,0.7002641,-24.41373,-12.97809,-39.94379,1007.595
20.366963863,-1.027397,2.116555,-16.72542,0.1155121,0.7665666,0.6653372,-23.65915,-14.44268,-40.29476,1007.595
20.399740219,10.83767,0.1664966,-18.98572,0.07371446,0.7666198,0.5831234,-23.65915,-14.44268,-40.29476,1007.594
20.432517052,-12.51974,1.821092,-21.91799,0.1279731,0.8302816,0.637774,-23.63814,-15.53005,-39.84246,1007.594
20.467814922,1.395313,-6.80644,-23.26195,0.08033291,0.844184,0.5930994,-23.9888,-16.2589,-39.89269,1007.594
20.500592232,12.76341,-16.91129,-24.17828,0.09989742,0.7637204,0.4848679,-23.9888,-16.2589,-39.89269,1007.594
20.533368587,18.04368,-15.49306,-20.2075,0.1022052,0.8042926,0.4332955,-23.63752,-15.52495,-39.46951,1007.592
20.566145420,-30.3484,-1.783562,-10.86088,0.09188651,0.6750279,0.5572248,-23.61724,-16.61827,-39.45232,1007.596
20.598921776,-88.61769,30.06739,-1.758616,0.08080669,0.2555769,0.6950713,-23.61724,-16.61827,-39.45232,1007.596
20.634220600,-46.87253,29.83102,-6.951182,-0.06302864,0.5744609,1.059804,-23.97528,-16.98777,-39.88123,1007.594
20.666996956,60.09945,0.46196,-5.057423,0.05346079,0.992915,1.002097,-23.6525,-14.80797,-40.35119,1007.594
20.699773788,-47.61798,6.962155,8.504338,0.09983194,0.8480702,0.7783716,-23.6525,-14.80797,-40.35119,1007.594
20.732550144,9.595255,7.73036,10.3981,-0.01038121,0.6316431,0.7447825,-22.93776,-14.07999,-40.30143,1007.594
20.767848968,25.74666,0.6392381,17.85096,0.0230454,0.6564696,0.7027873,-22.93173,-14.45037,-40.73081,1007.594
20.800625324,51.71314,-6.451884,15.16304,0.002909185,0.7426494,0.6531249,-22.93173,-14.45037,-40.73081,1007.592
20.833402157,15.80733,-6.983718,15.52958,0.08777632,0.7937096,0.679803,-22.57441,-14.08681,-40.73701,1007.592
20.866178513,-3.015262,0.9347016,7.649093,0.123259,0.7723452,0.646537,-23.63897,-15.53684,-40.33973,1007.592
20.898955822,-6.86675,0.9937943,1.295835,0.06515027,0.7036352,0.641002,-23.63897,-15.53684,-40.33973,1007.592
20.934253693,-6.618267,0.9347016,1.356924,0.09235952,0.7031257,0.6751149,-23.64501,-15.16646,-39.91035,1007.591
20.967030525,-0.03346492,-0.2471521,-0.04812346,0.06849425,0.7381639,0.6996682,-22.91685,-15.16821,-39.91129,1007.591
20.999806881,-1.524364,-0.5426155,0.6849447,0.07338151,0.7255651,0.7030451,-22.91685,-15.16821,-39.91129,1007.591
21.032584190,1.022588,-0.3062448,1.173657,0.07344293,0.6957126,0.6823914,-23.30184,-14.07912,-40.30096,1007.591
21.067882061,4.501352,-1.015357,-0.1092125,0.06950351,0.7165419,0.6708167,-23.65177,-14.80202,-39.91608,1007.592
21.100658894,3.56954,-0.4835229,0.6238557,0.09659349,0.7631635,0.6889739,-23.65177,-14.80202,-39.91608,1007.592
21.133435249,2.327125,-0.06987408,0.8682117,0.06362639,0.7369215,0.666949,-24.00909,-15.16559,-39.90988,1007.594
21.166211605,3.755903,-1.192635,0.6849447,0.07187781,0.7394658,0.672702,-24.37244,-15.15877,-39.4743,1007.594
21.198988915,0.8983467,0.4028674,1.540191,0.08497119,0.7458764,0.668329,-24.37244,-15.15877,-39.4743,1007.594
21.234286785,3.507419,-1.133542,0.6238557,0.06026378,0.7238239,0.6785294,-23.63825,-15.5309,-39.90462,1007.594
21.267063618,1.084709,-0.3653375,0.4405887,0.08501836,0.7274196,0.6755771,-23.99484,-15.88852,-39.46331,1007.594
21.299839974,-1.275881,0.9347016,1.051479,0.08112002,0.7327277,0.6731716,-23.99484,-15.88852,-39.46331,1007.596
21.332617283,1.643796,-0.3062448,0.3794996,0.0762785,0.7288681,0.6842602,-23.27948,-15.15545,-39.0406,1007.598
21.367915154,3.755903,2.057462,0.2573216,0.0917897,0.738678,0.6755441,-24.36567,-15.52321,-39.46857,1007.598
21.400691986,0.3392597,2.471111,1.112568,0.0713889,0.7414299,0.6755883,-23.26741,-15.89621,-39.89936,1007.598
21.433468342,1.830158,-0.4244302,0.3184106,0.06219277,0.7286836,0.6746666,-23.26741,-15.89621,-39.89936,1007.598
21.466245651,4.128627,-0.3062448,-0.1703015,0.07867745,0.7385384,0.6712431,-23.63148,-15.89533,-39.89889,1007.598
21.499022007,1.271071,-0.5426155,0.2573216,0.07330918,0.7506996,0.6755698,-23.63752,-15.52495,-39.46951,1007.599
21.534320354,-0.4683104,0.5801454,0.3184106,0.07721891,0.7379924,0.6645083,-23.63752,-15.52495,-39.46951,1007.599
21.567096710,-0.0955857,0.2255893,0.2573216,0.07140288,0.7350818,0.6731911,-24.00763,-15.1537,-39.03966,1007.599
21.599874020,0.09077663,0.5801454,0.1962326,0.06657484,0.7228456,0.6703328,-23.63752,-15.52495,-39.46951,1007.598
21.632650375,0.8983467,-0.0107814,0.1962326,0.07431354,0.7360736,0.6722199,-23.63752,-15.52495,-39.46951,1007.596
21.667948723,1.457434,0.284682,0.01296555,0.07865366,0.7482689,0.6697845,-23.27417,-15.53177,-39.90509,1007.596
21.700725079,0.9604675,-0.1289668,-0.04812346,0.07478605,0.7409244,0.668842,-23.99484,-15.88852,-39.46331,1007.596
21.733502388,1.581675,0.107404,-0.2313905,0.0781701,0.7477912,0.6717117,-23.99484,-15.88852,-39.46331,1007.596
21.766278744,1.768038,-0.3062448,0.3794996,0.08015607,0.7272753,0.6606666,-23.63076,-15.88939,-39.46378,1007.596
21.799055576,2.948332,0.2255893,0.1351436,0.07818919,0.7379871,0.6625805,-23.27417,-15.53177,-39.90509,1007.594
21.834353447,3.755903,-0.3062448,-0.1703015,0.06506598,0.7452534,0.6727094,-23.27417,-15.53177,-39.90509,1007.592
21.867130756,5.060439,-1.665376,-0.1703015,0.07724866,0.7248192,0.6611586,-23.26668,-15.89026,-39.46425,1007.592
21.899907112,9.533134,-0.3062448,-1.330993,0.07331417,0.7432001,0.6476621,-23.2592,-16.24876,-39.02341,1007.592
21.932683945,4.37711,-1.133542,-0.6590136,0.07421619,0.7754658,0.6639776,-23.2592,-16.24876,-39.02341,1007.592
21.967981815,2.575608,-1.488098,0.1962326,0.0859366,0.746805,0.6606236,-23.63076,-15.88939,-39.46378,1007.592
22.000759125,0.7741051,-0.1880594,-0.2924795,0.07424493,0.7607612,0.6505216,-22.89585,-16.25557,-39.45899,1007.591
22.033535481,-0.281948,-1.07445,-0.2313905,0.07331734,0.7422394,0.649589,-22.89585,-16.25557,-39.45899,1007.591
22.066312313,1.705917,-0.6017082,-0.4146576,0.08108528,0.7427912,0.6495697,-23.98808,-16.25296,-39.45758,1007.592
22.099088669,6.116492,-3.201786,-0.6590136,0.05489016,0.7348905,0.6655287,-23.25992,-16.2547,-39.45852,1007.592
22.134386539,35.1269,-27.84343,-0.2313905,0.0343943,0.6083776,0.8472414,-23.25992,-16.2547,-39.45852,1007.592
22.167163849,164.2139,-57.92161,12.84166,-0.02520423,0.5537859,0.8426514,-23.98808,-16.25296,-39.45758,1007.592
22.199940205,334.0521,-106.1412,57.31446,0.1199156,1.160085,0.6584759,-24.32751,-17.30973,-36.82925,1007.594
22.232717037,347.5323,-123.9281,144.7328,0.30302,1.903783,0.3661783,-24.32751,-17.30973,-36.82925,1007.594
22.268014908,195.8955,-84.27694,237.4049,0.2969916,2.379915,0.2754603,-26.7546,-23.09601,-29.46074,1007.594
22.300792217,59.6646,-64.95364,295.9282,0.1029264,1.678236,0.1797431,-31.79527,-28.42198,-19.98216,1007.591
22.333568573,78.42508,-54.13968,338.7516,0.1421842,1.206659,-0.3053333,-38.3881,-25.79068,-15.28974,1007.591
22.366345406,2.451366,-11.59295,357.9335,0.2911569,1.037692,-0.3391273,-38.3881,-25.79068,-15.28974,1007.589
22.399121761,-58.30275,10.44862,356.2841,0.2526096,0.5025842,-0.3411175,-44.79796,-16.9396,-13.30675,1007.586
22.434420586,-54.20278,19.60799,337.2244,0.366253,0.09220424,-0.30948,-49.04276,-4.131803,-14.80842,1007.582
22.467196941,-34.38625,22.79899,318.2257,0.206674,0.0385187,-0.2036024,-49.04276,-4.131803,-14.80842,1007.582
22.499973774,-77.8708,12.2214,289.636,0.3371113,-0.2985902,-0.2313227,-48.92998,9.412233,-15.02185,1007.58
22.532750130,-77.5602,-1.547191,256.2203,0.4410955,-0.7334929,-0.2126221,-45.50597,21.13217,-14.77576,1007.579
22.568048954,-45.69223,-33.69361,220.7276,0.4127509,-0.6491809,-0.1708035,-45.50597,21.13217,-14.77576,1007.577
22.600825310,-15.62578,-46.04398,180.3477,0.5267229,-1.03373,-0.347154,-39.80758,31.40682,-13.2043,1007.577
22.633602142,81.65536,-31.50718,133.3703,0.6481571,-1.0851,-0.5264311,-34.47103,38.41953,-10.33755,1007.577
22.666378498,71.21906,21.02621,75.39681,0.5457802,-1.155458,-0.7157388,-34.47103,38.41953,-10.33755,1007.575
22.699155807,97.931,127.6885,17.85096,0.6634296,-1.275515,-1.032573,-29.7539,42.39901,-11.7121,1007.573
22.734453678,216.6438,286.7069,-39.084,0.3489255,-0.6404723,-0.5928195,-26.86186,43.06316,-15.95412,1007.573
22.767230511,107.4355,376.5278,-74.82108,0.1154602,-0.7672215,0.02118018,-26.86186,43.06316,-15.95412,1007.572
22.800006866,-42.21347,267.5018,0.7460337,-1.46737,1.680208,11.94987,-23.54685,40.01075,-25.36065,1007.572
22.832784176,-173.2262,-214.6945,20.23343,2.621642,0.1250637,0.6541022,-17.59548,35.49518,-34.68547,1007.574
22.865560532,-289.5163,215.7957,-12.44919,1.257921,-1.686817,-0.7310679,-17.59548,35.49518,-34.68547,1007.572
22.900858879,82.27657,-23.47058,-22.52888,-0.0514903,-0.5556479,0.2503855,-17.16975,32.57072,-30.7853,1007.574
22.933635235,45.99803,25.57635,-23.32304,0.7290965,-0.3907102,0.6184526,-15.45659,38.47507,-29.63711,1007.572
22.966412544,13.38462,7.08034,-21.67364,0.3971207,-0.4380683,0.7208787,-15.45659,38.47507,-29.63711,1007.572
22.999188900,-11.21521,-9.288333,-15.56473,0.551864,-0.393707,0.6106943,-16.14698,36.26727,-31.28007,1007.572
23.034487247,-62.46484,-13.83847,-19.04681,0.5111626,-0.4290663,0.6175832,-16.13418,35.53245,-31.70373,1007.571
23.067263603,-51.34523,-20.75231,-24.85026,0.6225102,-0.728819,0.4517011,-16.13418,35.53245,-31.70373,1007.571
23.100040913,-46.12708,-20.92959,-55.15042,0.4254228,-0.7644872,0.3920521,-16.85954,35.55712,-30.0245,1007.571
23.132817268,-65.633,-17.38403,-86.97779,0.3770163,-0.8216401,0.4259484,-17.98943,37.77013,-28.31702,1007.571
23.165594101,-27.18024,-16.49764,-115.9951,0.5270998,-0.6323283,0.434453,-17.98943,37.77013,-28.31702,1007.571
23.200891972,-10.46976,-10.94293,-153.0761,0.3753326,-0.4953669,0.561686,-20.17712,38.16868,-26.20653,1007.571
23.233668327,51.96162,-14.3703,-169.9367,0.6079255,-0.5352658,0.3575785,-23.8636,37.46056,-25.32007,1007.566
23.266445637,64.51003,3.416594,-196.6326,0.7138199,-0.3443378,0.3714804,-23.8636,37.46056,-25.32007,1007.568
23.299222469,13.63311,20.3171,-209.278,1.046332,-0.3194123,0.2642732,-28.5442,34.47275,-26.94545,1007.571
23.334520340,16.92551,49.68616,-225.039,1.553419,-0.1587209,0.3504362,-33.97887,29.74236,-27.29895,1007.571
23.367296696,-8.668253,81.35985,-248.4972,0.9012251,0.08921172,0.4382545,-37.50648,23.47114,-28.93633,1007.572
23.400074005,-18.60758,77.28246,-231.3922,0.6359415,0.125354,0.2814239,-37.50648,23.47114,-28.93633,1007.572
23.432850361,-4.568282,81.18257,-229.3152,0.1224071,0.4625468,0.3615584,-39.20266,16.51638,-31.37362,1007.572
23.465627193,-17.30304,81.59622,-199.0151,0.1572779,0.5033555,0.3748923,-37.98447,9.499004,-33.44077,1007.568
23.500925064,21.33608,53.76356,-147.2727,0.3689719,0.970614,0.6374722,-37.98447,9.499004,-33.44077,1007.568
23.533702373,3.56954,50.39528,-120.027,0.5998407,0.8649138,0.5682492,-36.43099,3.994146,-35.9052,1007.568
23.566478729,22.01941,55.8318,-103.2886,0.6878314,0.8212909,0.5628113,-35.61309,-0.800076,-35.39559,1007.566
23.599255562,-28.60902,70.95953,-98.21817,0.5697692,0.8712536,0.6756547,-35.61309,-0.800076,-35.39559,1007.571
23.634553432,-17.4894,69.83678,-102.6777,0.2586609,0.5834523,0.5651504,-33.00796,-4.120932,-37.89582,1007.572
23.667330742,-28.29842,70.54588,-98.89015,0.1372566,0.5787089,0.5192348,-30.37387,-5.602765,-39.1816,1007.572
23.700107098,-39.48016,70.48679,-97.42402,0.07007641,0.4582888,0.582634,-30.37387,-5.602765,-39.1816,1007.572
23.732883930,-8.35765,67.00033,-102.6166,0.1425143,0.434009,0.6460385,-28.52924,-7.087802,-40.83932,1007.574
23.765660286,-3.63647,67.65034,-111.4134,0.06209077,0.8245847,0.9484171,-25.96678,-7.889468,-41.2653,1007.574
23.800959110,73.7039,19.90345,-87.89413,0.03017871,2.404885,2.016178,-25.96678,-7.889468,-41.2653,1007.574
23.833735466,-211.8653,-5.565494,45.27993,0.4244938,0.4579808,0.4624161,-24.10051,-10.45678,-42.09777,1007.578
23.866512299,-12.7061,41.3541,-1.575349,-0.3456526,-0.1753238,0.3159751,-21.89722,-11.56721,-42.95362,1007.578
23.899288654,-73.14962,17.06701,-3.285841,0.01466117,0.5998473,1.185217,-21.89722,-11.56721,-42.95362,1007.578
23.934587479,64.51003,-14.13393,-1.636438,-0.0335039,0.1736927,0.893787,-20.90899,-6.054424,-43.91216,1007.579
23.967363834,23.51031,4.65754,-4.690889,0.0595881,0.8446079,0.8891854,-20.92251,-5.32555,-43.92362,1007.579
24.000140667,17.29823,2.707482,5.572066,0.00662926,0.6365766,0.8034608,-20.92251,-5.32555,-43.92362,1007.579
24.032917023,17.7952,2.530204,-0.2313905,0.0262353,0.5416093,0.7106546,-20.89474,-6.777354,-43.46559,1007.579
24.065694332,1.022588,6.253043,-3.224752,0.02150976,0.7123051,0.8196777,-20.88049,-7.500284,-43.01902,1007.584
24.100992203,-11.71217,6.548506,0.3794996,0.0261377,0.6037313,0.8193491,-20.88049,-7.500284,-43.01902,1007.582
24.133769035,4.811956,4.775725,-2.308417,-0.03009652,0.5622641,0.8070294,-20.077,-8.291788,-43.00762,1007.582
24.166545391,3.383178,5.307559,-1.208815,-0.004503625,0.6264266,0.828052,-20.86729,-8.301785,-43.87683,1007.582
24.199322701,-0.9652766,3.180223,1.356924,0.003078492,0.4957834,0.8022373,-20.86729,-8.301785,-43.87683,1007.582
24.234620571,15.31037,1.880185,0.8682117,-0.03210155,0.593595,0.8324992,-19.72114,-7.940112,-43.88404,1007.584
24.267397404,12.14221,2.293833,4.655731,0.02650248,0.6437702,0.7634498,-19.72041,-7.934168,-43.44893,1007.584
24.300173760,1.519554,4.243891,2.884149,-0.009266151,0.5889486,0.8372657,-19.70762,-8.668985,-43.87259,1007.586
24.332951069,28.79058,-0.8380789,7.893449,0.02468281,0.5971802,0.7895179,-19.70762,-8.668985,-43.87259,1007.587
24.365727425,3.693782,2.530204,14.30779,-0.01342443,0.6896988,0.7625126,-20.07097,-8.662169,-43.437,1007.587
24.401025772,14.31643,0.6392381,9.542851,0.002433386,0.5574342,0.7737457,-18.96522,-9.393661,-43.42695,1007.589
24.433802128,8.166477,3.002945,13.51364,0.02121203,0.6253257,0.7788938,-18.96522,-9.393661,-43.42695,1007.591
24.466579437,12.01797,5.012096,15.4074,0.04464438,0.5663556,0.7452317,-20.05672,-9.385099,-42.99043,1007.591
24.499355793,10.0301,11.33501,8.565428,-0.03130898,0.6529382,0.7505763,-20.05069,-9.75548,-43.41981,1007.591
24.534654140,14.06795,2.175648,10.33701,-0.002444704,0.5666406,0.7727806,-20.05069,-9.75548,-43.41981,1007.592
24.567430496,37.17688,-0.3062448,8.748694,0.05904423,0.625486,0.6863823,-19.68661,-9.756352,-43.42028,1007.592
24.600207806,12.94978,4.598447,4.411375,-0.006348227,0.7744085,0.74889,-20.40727,-10.1131,-42.9785,1007.594
24.632984161,4.874076,-0.1880594,7.649093,0.0313528,0.6462525,0.7643973,-20.40727,-10.1131,-42.9785,1007.594
24.665760994,19.72094,-2.669952,7.893449,0.0610439,0.6036697,0.6984445,-19.6656,-10.84372,-42.96798,1007.596
24.701058865,19.53458,2.293833,0.3184106,-0.001395147,0.7193964,0.6762755,-20.02822,-10.83096,-42.09729,1007.596
24.733836174,1.581675,4.302984,-1.453171,0.01112536,0.7734363,0.7281514,-20.02822,-10.83096,-42.09729,1007.596
24.766612530,-4.319798,5.307559,0.9293008,0.05125264,0.6422445,0.7244031,-19.64313,-11.9192,-41.64545,1007.596
24.799389362,5.433164,6.253043,-4.263266,0.002687733,0.6477741,0.7375067,-19.6371,-12.28958,-42.07484,1007.596
24.834687233,9.036168,6.962155,-7.07336,0.02781025,0.7000464,0.7301479,-19.6371,-12.28958,-42.07484,1007.596
24.867464542,4.625593,8.498565,-10.55544,0.01766923,0.674569,0.7205831,-19.29403,-11.20309,-42.52761,1007.596
24.900240898,9.595255,6.843969,-13.24335,-0.01048326,0.6709616,0.7259504,-18.92319,-11.5684,-42.52235,1007.596
24.933017254,9.408893,2.707482,-15.99236,-0.00678167,0.7439008,0.7046517,-18.92319,-11.5684,-42.52235,1007.596
24.965794086,4.066506,5.780301,-19.16899,0.01264488,0.7405866,0.6949834,-18.54487,-12.2922,-42.07624,1007.598
25.001091957,-10.22127,10.6259,-22.4067,-0.01550209,0.7395918,0.7258588,-18.16727,-13.02194,-42.06525,1007.598
25.033869267,-0.6546727,18.30795,-23.32304,0.002990825,0.7085677,0.6546202,-18.16727,-13.02194,-42.06525,1007.598
25.066645622,-16.61971,31.30834,-26.07204,-0.05842864,0.6285843,0.7829286,-17.79039,-13.75764,-42.48938,1007.598
25.099422455,17.17399,37.51307,-31.38679,-0.04105019,0.6665341,0.7563553,-17.06369,-13.77127,-43.36054,1007.598
25.132198811,1.705917,51.8135,-35.17431,-0.1225942,0.6532109,0.7594569,-17.06369,-13.77127,-43.36054,1007.598
25.167497635,29.10118,58.96371,-42.38281,-0.1406852,0.6995979,0.7281414,-16.3423,-13.40858,-43.36721,1007.598
25.200273991,4.687714,66.52759,-46.96449,-0.1460176,0.6911031,0.7036174,-13.77347,-14.508,-43.35331,1007.598
25.233050823,25.31181,75.74604,-46.59795,-0.2529427,0.7295606,0.6893722,-13.77347,-14.508,-43.35331,1007.599
25.265827179,7.731632,67.53216,-47.02558,-0.2869904,0.7440265,0.6393695,-10.46973,-15.9736,-43.33462,1007.599
25.301126003,-2.145571,65.87756,-44.52093,-0.3676217,0.7555599,0.6438757,-6.75403,-16.7054,-42.89282,1007.599
25.333902359,1.519554,57.72277,-46.17033,-0.4142096,0.7439694,0.6440037,-3.465991,-17.45996,-44.19093,1007.598
25.366679192,5.18468,44.60419,-47.08667,-0.4704902,0.7174359,0.608075,-3.465991,-17.45996,-44.19093,1007.599
25.399455547,-2.518296,43.36325,-48.24736,-0.471903,0.695884,0.5922259,-0.5586799,-17.09061,-43.33019,1007.599
25.432232857,-3.63647,35.91757,-47.14775,-0.4668996,0.6396404,0.6226246,1.679703,-16.73156,-43.33882,1007.599
25.467530727,5.743767,33.43568,-45.00964,-0.5475397,0.6485109,0.5944022,1.679703,-16.73156,-43.33882,1007.599
25.500307560,-4.009195,34.14479,-45.43726,-0.4998306,0.5967893,0.5934042,3.850644,-16.00792,-43.3531,1007.599
25.533083916,-0.4061896,35.91757,-44.82637,-0.5964711,0.605891,0.6176878,6.036562,-16.00127,-42.48569,1007.599
25.565861225,1.271071,34.61753,-44.52093,-0.5464469,0.5908155,0.5607913,6.036562,-16.00127,-42.48569,1007.599
25.601159096,3.010453,37.63126,-47.14775,-0.6387328,0.5997093,0.5499254,7.856222,-16.01158,-42.92316,1007.599
25.633935928,5.371043,37.51307,-44.39875,-0.6725618,0.5286963,0.5342277,10.0361,-15.63454,-41.62637,1007.599
25.666712284,4.190748,36.68577,-45.80379,-0.6823849,0.5723272,0.5168562,10.0361,-15.63454,-41.62637,1007.599
25.699489593,5.681646,39.04948,-43.48241,-0.7061102,0.5413623,0.5049251,11.54706,-15.2678,-41.19895,1007.601
25.732265949,3.445299,38.45855,-40.00034,-0.7385589,0.5050308,0.5021687,13.71935,-14.53312,-40.40516,1007.601
25.767564297,8.849806,36.56759,-33.95253,-0.7769721,0.5261031,0.496933,13.71935,-14.53312,-40.40516,1007.601
25.800340652,-0.5925519,36.56759,-30.71481,-0.7515314,0.437874,0.4556085,14.79879,-13.80092,-39.98292,1007.601
25.833117962,11.76948,36.09484,-27.66036,-0.8390967,0.5043009,0.4480143,16.61314,-13.4349,-39.55589,1007.603
25.865894318,7.607391,32.78566,-24.36155,-0.7923214,0.424362,0.3825587,16.61314,-13.4349,-39.55589,1007.603
25.901192665,7.234666,31.54471,-20.69621,-0.8050144,0.4620859,0.4297054,18.7923,-13.06381,-38.69421,1007.601
25.933969021,10.96191,32.60838,-15.13711,-0.8804058,0.5140033,0.4221042,19.52263,-13.04773,-37.38982,1007.603
25.999522686,5.12256,45.43149,-4.018909,-0.9154519,0.5487473,0.4178027,20.97967,-13.04527,-36.95658,1007.603
26.032299519,-4.878885,52.34533,0.5627667,-0.8803171,0.4724553,0.4005053,22.48521,-12.30305,-35.72683,1007.603
26.067597389,-22.02422,66.11394,-2.247328,-0.7980058,0.3548142,0.3335781,22.48521,-12.30305,-35.72683,1007.603
26.100374699,-7.239475,72.79141,-1.453171,-0.8993246,0.4929147,0.3538274,24.30778,-12.28959,-34.42384,1007.603
26.165927887,-32.58475,80.53255,3.800485,-1.041454,0.4308091,0.3484818,26.49369,-12.28293,-33.55644,1007.603
26.201225758,-41.59226,63.45476,8.504338,-1.096288,0.4177656,0.3597029,28.30554,-11.51766,-30.58663,1007.601
26.234003067,-40.22561,44.36782,7.038202,-1.085564,0.371013,0.2071562,30.11521,-10.77023,-28.92215,1007.603
26.266779423,-1.710726,29.41738,10.3981,-0.9655592,0.3352221,0.1688979,32.33549,-9.300029,-27.64263,1007.605
26.299556255,-7.798562,16.59426,7.954538,-0.8997079,0.4222748,0.2114518,32.33549,-9.300029,-27.64263,1007.605
26.332332611,-46.37556,14.05328,0.07405458,-0.7492047,0.3999322,0.03928231,33.8075,-10.01456,-26.32771,1007.605
26.367631435,-80.85259,18.30795,-0.9644588,-0.6501841,0.6062828,-0.03202374,34.15191,-8.917028,-25.97242,1007.605
26.400407791,-176.1459,38.63583,5.083354,-0.4633486,0.6334255,-0.1355192,34.15191,-8.917028,-25.97242,1007.603
26.433184624,-105.4524,27.82187,30.12985,-0.6269656,0.4672073,0.1115766,34.86124,-7.813575,-25.12033,1007.603
26.465960979,-52.71188,15.35332,46.37953,-0.7109488,0.4900613,0.2773298,34.79926,-4.472902,-25.17285,1007.603
26.501259327,-21.89998,33.02203,53.34368,-0.6975446,0.4497789,-0.3488929,34.79926,-4.472902,-25.17285,1007.603
26.534036159,-19.16666,58.55006,48.82309,-0.93782,0.6495609,-0.1864052,35.52211,-4.098323,-24.3093,1007.607
26.566812992,-58.11639,47.20427,40.82043,-0.8246897,0.1205717,0.2290576,35.90865,-5.174675,-22.98724,1007.607
26.599589348,87.24622,18.83978,35.56677,-0.9218293,0.5274659,0.166579,35.90865,-5.174675,-22.98724,1007.607
26.632366657,-32.27415,5.012096,26.22015,-1.053305,0.4846979,0.1977625,35.92352,-5.89251,-22.16772,1007.605
26.667664528,23.94516,-2.729045,0.8682117,-0.8676338,-0.01799082,0.1056583,36.33606,-8.505181,-22.12712,1007.605
26.700441360,58.73279,-8.34285,2.884149,-0.9408401,0.9711445,0.1871353,36.33606,-8.505181,-22.12712,1007.605
26.733217716,-22.08634,-0.4244302,10.45919,-0.936879,0.5385002,0.2306192,36.3294,-8.139895,-22.07069,1007.605
26.765995026,3.942265,0.04831128,4.594642,-0.6627185,0.3858568,0.08242094,36.34219,-8.874713,-22.49435,1007.605
26.801292419,-5.810697,3.712058,1.723458,-0.8558075,0.75406,0.2445429,36.34219,-8.874713,-22.49435,1007.605
26.834069729,-6.369784,3.830243,6.244045,-0.8178099,0.4870862,0.1880544,35.27025,-9.965406,-22.47575,1007.607
26.866846085,2.824091,14.88057,0.9293008,-0.8019428,0.5292178,0.06424334,35.62819,-9.596747,-22.10899,1007.607
26.899623394,-12.02278,18.48523,4.900087,-0.9056781,0.683643,0.1937429,35.62819,-9.596747,-22.10899,1007.607
26.932399750,3.631661,20.3171,3.067416,-0.7953255,0.6087837,0.08191811,35.26338,-9.601818,-22.54364,1007.607
26.967697620,5.12256,23.03536,-3.163663,-0.8486258,0.5494764,0.02196371,35.26556,-9.583986,-21.2383,1007.607
27.000474453,-4.506161,18.89888,-11.04415,-0.8256674,0.5119016,0.1240146,35.26556,-9.583986,-21.2383,1007.605
27.033250809,12.82554,12.2805,-8.844942,-0.8568763,0.7560548,0.04237048,35.62964,-9.58486,-21.23877,1007.605
27.066028118,3.56954,15.94424,-12.44919,-0.8693964,0.5050364,0.02978174,35.63786,-9.937408,-20.36282,1007.607
27.101326466,1.395313,21.32168,-20.08532,-0.8781781,0.5139123,-0.01401473,35.63786,-9.937408,-20.36282,1007.607
27.134102821,0.277139,22.26716,-26.74402,-0.8843187,0.6635265,0.07675171,36.71802,-9.199265,-19.50546,1007.609
27.166879177,-3.574349,19.25343,-31.8755,-0.8557819,0.4907916,-0.003924404,36.69908,-8.094915,-18.71459,1007.609
27.199656487,5.805888,14.99876,-39.38945,-0.9017006,0.6043047,-0.01409517,36.69908,-8.094915,-18.71459,1007.609
27.232432842,-4.754644,16.12152,-43.23806,-0.9141468,0.5342551,0.01299618,37.41269,-7.306198,-18.66578,1007.613
27.267731190,-2.518296,13.99418,-51.17963,-0.8402268,0.4846201,0.0003802591,37.76532,-6.561214,-17.43454,1007.613
27.300507546,-0.7789143,11.27592,-53.68428,-0.9501128,0.5455468,-0.0008950213,38.47319,-5.469648,-17.45267,1007.613
27.333284855,-1.959209,11.39411,-59.42665,-0.8414097,0.3666504,-0.01339862,38.47319,-5.469648,-17.45267,1007.611
27.366061211,2.389246,6.548506,-60.77061,-0.8865882,0.3699891,-0.03929003,38.06927,-3.27621,-17.05147,1007.611
27.398838043,4.687714,11.74866,-64.80248,-0.9951605,0.2857532,-0.04564463,38.02195,-0.7251511,-17.09158,1007.613
27.434135914,1.084709,3.77115,-63.94723,-0.970459,0.3127663,-0.04285575,38.02195,-0.7251511,-17.09158,1007.613
27.466913223,5.18468,0.5801454,-60.77061,-0.984486,0.2816748,-0.0846541,38.34618,1.466543,-16.69131,1007.611
27.499689579,-5.500093,-4.974567,-60.8317,-1.040805,0.07877526,-0.05870254,38.30449,3.713904,-16.72665,1007.607
27.532466411,0.8362259,-15.1976,-57.10526,-0.946283,0.1451933,-0.07635586,38.30449,3.713904,-16.72665,1007.613
27.567764282,-3.63647,-17.97496,-58.08269,-1.047394,0.1931035,-0.06896782,37.54325,5.543778,-16.31925,1007.613
27.600541592,-7.798562,-29.55712,-54.17299,-1.020516,0.1404398,0.02972696,37.8728,7.359147,-16.78348,1007.613
27.633317947,-0.5304312,-36.11641,-56.79982,-0.9337702,-0.007974781,-0.05545613,37.8728,7.359147,-16.78348,1007.613
27.666094780,-11.89853,-38.30284,-52.52359,-1.017963,0.08332393,0.007664348,36.37978,9.161047,-18.5507,1007.613
27.698871136,-18.73182,-36.88462,-45.74271,-1.023833,0.1220067,0.1144823,35.60284,11.70196,-19.46009,1007.613
27.734169960,-5.686456,-36.35278,-52.70686,-1.027942,-0.2037794,0.05577554,35.60284,11.70196,-19.46009,1007.613
27.766946316,-14.88033,-43.20753,-51.42398,-0.9871016,-0.009673673,0.1145936,34.12417,12.78178,-20.71858,1007.609
27.799723148,-7.984924,-47.16674,-53.68428,-0.9806978,-0.04405592,0.1353288,33.71018,15.38256,-21.6294,1007.609
27.832499504,-5.686456,-39.18923,-56.12784,-0.9692975,-0.1534785,0.07481511,33.71018,15.38256,-21.6294,1007.609
27.867797852,-19.84999,-37.71191,-46.10924,-0.9455388,-0.1048131,0.2508638,31.86879,16.47429,-22.07935,1007.609
27.900574684,-10.594,-31.97992,-37.25134,-0.9673808,-0.1159744,0.2129049,30.67999,18.28226,-23.34969,1007.609
27.933351517,-6.121301,-28.9071,-31.3257,-1.038351,-0.2834393,0.2393191,30.67999,18.28226,-23.34969,1007.607
27.966127872,-21.46513,-28.67073,-29.55412,-0.9549146,-0.2521937,0.2198197,28.45882,20.08591,-25.11596,1007.605
27.998905182,3.010453,-11.77023,-23.44522,-0.9432476,-0.2448127,0.2866901,27.70965,21.17502,-25.56733,1007.607
28.034203053,4.439231,-8.283757,-7.439894,-0.9592841,-0.02947241,0.3157667,27.70965,21.17502,-25.56733,1007.607
28.066979885,-4.941006,0.5210528,-7.68425,-0.8740727,-0.345293,0.2520195,27.33205,21.90476,-25.57832,1007.61
28.099756241,-9.724306,2.825667,-4.996334,-0.9417022,-0.2888773,0.2516135,25.5049,22.27357,-25.5817,1007.61
28.132533550,1.519554,9.798603,1.295835,-0.9456382,-0.2578889,0.3001937,25.5049,22.27357,-25.5817,1007.602
28.167831421,4.749835,3.948428,5.694244,-0.9492019,-0.1978608,0.2519754,26.21953,23.00069,-25.5941,1007.6
28.200608254,11.14827,9.621325,6.121867,-0.9141855,-0.2259975,0.2259413,26.2263,22.63626,-25.58837,1007.6
28.233384609,-3.760711,11.51229,2.395437,-1.019918,-0.0795252,0.1946828,26.2263,22.63626,-25.58837,1007.599
28.266161919,-1.151639,6.016672,1.784547,-0.9960691,-0.287552,0.2974698,26.96266,22.28196,-24.71335,1007.599
28.298938274,-0.7789143,15.29422,-1.575349,-1.00366,-0.1716955,0.2279971,26.96194,22.27602,-25.14846,1007.597
28.334236622,-1.21376,13.876,-0.5368356,-1.026502,-0.1555362,0.2679799,26.96339,22.28791,-24.27824,1007.597
28.367012978,-10.15915,18.7216,-9.455832,-0.9477338,-0.2264663,0.1287865,26.96339,22.28791,-24.27824,1007.595
28.399790287,-26.12419,24.3945,-16.60325,-1.037805,-0.09662548,0.2785079,27.32071,22.65147,-24.28444,1007.595
28.432566643,-42.52407,24.45359,-13.5488,-1.092559,-0.1311466,0.3528195,27.30937,23.39818,-22.99057,1007.595
28.500641346,-84.26923,38.39946,-10.12781,-1.075497,-0.1845009,0.2238545,27.30501,23.85222,-20.88385,1007.597
28.533418655,-102.4085,36.5085,-15.99236,-1.052135,-0.4142774,0.2111487,27.26735,26.06262,-19.17779,1007.597
28.566195011,-81.84653,34.55844,-18.86354,-1.067151,-0.2274544,0.2003127,27.26735,26.06262,-19.17779,1007.597
28.598971844,-112.5963,34.67662,-18.98572,-1.115876,-0.1486599,0.2436321,27.25881,26.83225,-16.20562,1007.597
28.634269714,-103.8373,22.79899,-19.47443,-1.091203,-0.2877634,0.3814527,27.603,28.34772,-11.94005,1007.596
28.667047024,-44.76042,-4.501826,-18.00829,-1.257753,-0.276522,0.447296,27.603,28.34772,-11.94005,1007.594
28.699823379,33.636,-39.95744,18.46185,-1.205435,0.3634568,0.315277,27.93898,30.21573,-8.550439,1007.594
28.732600212,-68.73904,-67.6719,72.76998,-1.160224,0.8086381,0.6148685,26.11256,30.59047,-8.118708,1007.592
28.767898083,-182.7928,-126.1737,101.3596,-1.228323,0.2460603,0.6202102,26.11256,30.59047,-8.118708,1007.592
28.800675392,-149.6203,-173.4478,64.52296,-1.051067,-0.6779306,0.1162339,27.95927,29.12242,-8.533249,1007.592
28.833451748,159.679,-179.5343,113.3942,-0.9261048,-0.1479214,0.05159892,28.73006,26.95103,-7.256632,1007.594
28.866228580,128.1217,-151.4653,128.6053,-0.6667147,0.409332,-0.03890812,28.73006,26.95103,-7.256632,1007.592
28.899004936,-63.70726,-90.54076,126.4061,-0.6316002,0.6292273,0.3736855,28.76597,24.30657,-14.05399,1007.59
28.934303284,-248.6408,-31.15262,107.4075,-0.8195437,0.1584717,-0.000139958,28.85001,19.4674,-16.96217,1007.589
28.967080116,-179.811,-24.0615,88.71422,-0.7646681,-0.1000928,-0.2684803,28.85001,19.4674,-16.96217,1007.589
28.999856949,-139.9916,8.61675,53.58803,-0.9059166,-0.1130892,-0.21662,28.16461,17.30035,-15.62152,1007.587
29.032634258,-124.0887,26.10818,51.02229,-0.7998471,0.01188116,-0.162666,28.16355,17.71149,-12.20851,1007.587
29.067931652,-179.0034,71.19591,48.09002,-0.939856,0.3046249,-0.05976373,28.16355,17.71149,-12.20851,1007.585
29.100708485,-255.9711,107.8925,34.16173,-1.061981,-0.2442508,-0.2603374,28.15502,18.48112,-9.236347,1007.583
29.133485317,-79.48594,83.30991,30.80183,-1.180426,-0.4295683,-0.08263604,27.42331,19.29326,-3.279621,1007.583
29.166261673,13.07402,79.52798,4.10593,-1.21829,-0.4378073,-0.1013069,27.42331,19.29326,-3.279621,1007.583
29.199038982,-7.550079,93.8284,19.19492,-1.544638,0.1714251,-0.2073507,27.0746,19.00017,1.88576,1007.582
29.234336376,-18.54546,109.9016,32.6345,-1.373044,-0.08685424,-0.08462115,25.62172,19.03168,3.93888,1007.58
29.267113686,12.57705,87.56458,20.90541,-1.100077,-0.08890347,0.06299392,24.90531,18.70975,6.929173,1007.582
29.299890041,40.28292,83.01444,1.295835,-0.7730571,0.03867846,0.1568543,24.90531,18.70975,6.929173,1007.582
29.332667351,22.33002,90.51921,-7.623161,-0.7526084,0.1634406,-0.1365316,23.44442,19.09551,8.230658,1007.582
29.367964745,-59.42093,105.1151,-21.3071,-1.097399,0.2423199,0.2049714,21.99102,19.12277,9.972983,1007.582
29.400742054,-45.31951,99.67858,-36.09064,-1.132129,-0.3438267,-0.2075525,21.99102,19.12277,9.972983,1007.586
29.433518410,-47.3695,85.49634,-56.18893,-1.197255,-0.07455745,0.001588491,20.10745,19.52653,12.51819,1007.586
29.466295719,-66.12997,70.72317,-44.15439,-1.331986,0.2217804,-0.01538624,17.55567,19.92595,14.62915,1007.586
29.499072075,-29.7272,68.77311,-46.84231,-1.131688,0.1045095,-0.1008856,17.55567,19.92595,14.62915,1007.586
29.534370422,28.72845,62.27291,-57.71616,-1.28568,0.1132936,-0.1934364,14.63316,20.69152,16.79701,1007.586
29.567146778,98.73857,38.8722,-42.13845,-1.36977,-0.004914775,0.06832062,12.81558,20.71881,18.47765,1007.586
29.599924087,114.7657,-3.49725,-14.6484,-1.511798,-0.5584168,-0.1432702,12.81558,20.71881,18.47765,1007.586
29.632700443,91.40832,-47.93495,-28.45452,-1.21278,-0.6887254,-1.031896,10.59523,22.52925,17.20864,1007.586
29.665477276,117.1263,-8.579221,35.32242,-0.9719622,0.2635254,-0.3985043,12.00309,25.13756,17.1657,1007.586
29.700775146,-21.58937,-2.138118,58.10862,-1.317546,-0.3149772,0.101878,12.00309,25.13756,17.1657,1007.586
29.733552456,188.3788,-54.19877,70.87623,-1.097344,-0.6119459,0.1354987,14.54269,25.47805,15.85134,1007.584
29.766328812,291.6857,-92.78629,84.07145,-1.023178,0.04887974,0.1035196,17.44782,25.82957,15.40674,1007.584
29.799105644,196.8894,-86.69974,84.98779,-0.7932504,0.1477049,0.1008999,17.44782,25.82957,15.40674,1007.582
29.834403515,225.7134,-107.9731,88.2866,-0.7154235,0.02823276,-0.2240238,22.21729,26.45949,8.986735,1007.582
29.867180347,241.7406,-82.20869,90.79124,-0.6700066,0.156409,-0.05632949,26.20541,26.73281,3.008591,1007.582
29.899957180,212.4817,-57.56705,97.32777,-0.8695324,0.1372243,-0.05390188,26.20541,26.73281,3.008591,1007.582
29.932734013,154.523,-42.55751,100.0157,-0.7075166,0.2178474,-0.00097652,29.13439,25.18062,-3.374605,1007.581
29.965510368,95.57041,-3.49725,101.4207,-0.7834338,0.2782225,-0.05239316,32.52595,21.76827,-7.988298,1007.581
30.000808716,36.12083,20.19892,94.76203,-0.8367284,0.2326441,-0.02909269,32.52595,21.76827,-7.988298,1007.579
30.033585548,1.395313,35.6221,85.04887,-0.8712951,0.2693169,-0.03676777,34.42457,17.36689,-9.662335,1007.579
30.066362381,-45.00891,45.84514,67.88287,-0.8809718,0.2672527,0.02824213,37.02866,14.45717,-8.749561,1007.579
30.099138737,-72.59053,48.09066,50.65576,-0.8841884,0.1922892,0.03798998,37.02866,14.45717,-8.749561,1007.579
30.134437084,-77.8708,44.89965,31.5349,-0.842518,0.2316634,0.04697767,38.55047,11.14188,-6.585516,1007.577
30.167213917,-82.90258,41.64956,14.79651,-0.8395579,0.2122133,0.04796269,40.05098,8.981483,-4.377457,1007.574
30.199990749,-70.54054,37.45398,-2.247328,-0.7720169,0.1948234,0.05745593,40.05098,8.981483,-4.377457,1007.574
30.232767105,-49.60584,37.86763,-17.15305,-0.8065777,0.2391666,0.1022377,40.06054,8.639973,-2.693439,1007.572
30.265544415,-37.74078,22.50353,-28.02689,-0.8076489,0.2911382,0.1531863,41.53536,7.948366,0.2997649,1007.572
30.300841808,-15.12881,18.66251,-43.84895,-0.7633302,0.2309348,0.1271784,41.1667,8.331507,1.59984,1007.57
30.333619118,3.942265,10.68499,-55.21151,-0.7780975,0.3090069,0.09580719,41.1667,8.331507,1.59984,1007.57
30.366395474,41.09049,11.03955,-61.19823,-0.7307238,0.1964901,0.1074171,41.13362,10.15964,2.006301,1007.57
30.399172783,44.69349,-0.3062448,-59.85427,-0.8384666,0.5813003,0.1037231,41.10054,11.98777,2.412763,1007.57
30.434470177,12.26645,-11.47476,-57.16636,-0.6526526,0.4596655,0.1785582,41.10054,11.98777,2.412763,1007.569
30.467247486,1.643796,-33.33905,-51.54617,-0.5764722,0.4781508,0.1538002,39.96661,14.23775,2.378838,1007.569
30.500023842,-72.09357,-19.51137,-53.68428,-0.3299086,0.5225133,0.1435213,40.29689,16.05906,2.349718,1007.569
30.532801151,-121.9765,12.2805,-64.06941,-0.2753784,0.2514949,0.1158814,40.29689,16.05906,2.349718,1007.569
30.565577507,-153.6581,19.5489,-67.06277,-0.3276498,0.3981687,0.1894327,39.16409,18.2483,2.316747,1007.569
30.600875854,-155.7081,29.89012,-55.51695,-0.2230483,0.2936326,0.08921891,39.14868,19.38152,5.221022,1007.567
30.633652210,-112.9069,35.03118,-44.15439,-0.00719495,0.1737399,0.02823606,39.14868,19.38152,5.221022,1007.563
30.666429520,-144.2779,85.31905,-79.03622,0.248819,0.3176522,-0.03564646,38.03584,20.89453,9.053358,1007.562
30.699205875,-186.7064,88.45097,-61.25932,-0.1317195,0.4895136,0.132511,36.59949,20.22179,12.92054,1007.56
30.734504223,-160.6778,90.22375,-70.60593,-0.2305498,1.201859,0.08305422,36.59949,20.22179,12.92054,1007.56
30.767280579,-693.1771,1072.285,-546.2451,-11.96655,-1.166636,-11.23701,34.43103,19.93816,18.46123,1007.556
30.800057888,-126.8841,448.2663,-277.5755,-0.7954127,-0.9627311,4.449757,31.13077,18.57078,24.51786,1007.549
30.832834244,-319.6449,479.6445,-79.21949,-0.8652387,-0.3469052,-2.722814,31.13077,18.57078,24.51786,1007.556
30.865611076,103.1491,437.7478,-119.2328,-0.436299,-0.6607012,-2.908683,14.98377,23.09889,32.98561,1007.565
30.900908947,179.6198,68.35946,-32.30312,0.3541757,-0.793416,-1.5818,-2.10288,15.52268,35.73885,1007.565
30.933685780,176.1411,-161.452,-11.10524,-0.9491177,-0.3663259,-1.492226,-2.10288,15.52268,35.73885,1007.574
30.966462612,254.6617,1.584721,-200.7256,-1.993652,-0.5903762,-0.6580989,-13.90161,19.87135,31.83136,1007.579
30.999239445,-27.11812,37.98581,-9.822367,0.1634357,-0.2187543,0.5324087,-12.13146,22.39427,30.04845,1007.582
31.100090981,-42.52407,66.76395,-1.025548,0.8722287,-0.4898016,-1.196953,-16.89754,24.23375,30.46102,1007.591
31.132867813,-3.822832,40.99954,9.848297,0.3158537,-0.4739017,-0.902989,-16.89754,24.23375,30.46102,1007.596
31.165644169,-48.98464,9.207677,7.526915,0.2904181,-0.3653847,-0.745687,-19.76814,22.06599,31.36938,1007.6
31.200942516,-75.75869,-5.92005,3.861574,-0.02829853,-0.3239509,-0.9178023,-20.12618,21.69648,30.94047,1007.599
31.233719349,-12.20914,-12.7748,4.838998,-0.08409914,-0.3263195,-0.8411299,-20.81159,19.52944,32.28113,1007.604
31.266496182,-20.90605,-17.02947,9.787208,-0.0280724,-0.4168926,-0.9061101,-20.81159,19.52944,32.28113,1007.604
31.299272537,-35.93927,-17.6204,11.4977,0.1133353,-0.4660615,-0.9328464,-20.78392,18.07678,32.677,1007.61
31.334570885,-48.36343,-12.18387,30.31312,0.009317963,-0.4185756,-0.9129353,-20.04828,17.71655,33.1169,1007.613
31.367347241,-67.18603,2.589297,34.34499,0.09486769,-0.5053671,-1.170055,-20.04828,17.71655,33.1169,1007.618
31.400124550,-92.8419,0.9937943,35.68895,0.2202422,-0.2931688,-0.9222891,-18.58375,17.36051,33.99098,1007.624
31.432900906,-37.98926,9.030398,-7.928607,-0.4098431,-0.1774015,-0.9565899,-18.54995,15.53832,34.01963,1007.624
31.465678215,11.8316,2.589297,-12.08266,-0.4546743,-0.112573,-0.9652458,-18.54995,15.53832,34.01963,1007.627
31.500975609,24.31788,-16.37945,-3.041485,-0.3433963,-0.1366123,-0.9139678,-18.87691,13.6741,35.35504,1007.631
31.533752918,23.63455,-3.438157,0.6849447,-0.2479859,-0.2568471,-1.019431,-18.51356,13.66729,34.91946,1007.634
31.566529274,9.284651,6.312135,-0.7201027,-0.3174454,-0.2097995,-0.8239045,-18.51356,13.66729,34.91946,1007.632
31.599306583,19.84518,20.3171,-4.202177,-0.1367701,-0.2454891,-0.9205515,-17.79289,14.02403,34.47767,1007.632
31.634603977,29.41178,18.13067,-3.774554,-0.1081002,-0.2696701,-1.000489,-18.16558,14.44414,34.03635,1007.635
31.667381287,38.17081,12.98961,-4.935245,-0.1318609,-0.2749213,-0.9566209,-18.16558,14.44414,34.03635,1007.639
31.700157642,18.78913,9.680418,-4.446533,-0.04141528,-0.3110259,-0.8643596,-18.90799,15.16881,33.59071,1007.642
31.732934952,-3.574349,-0.3062448,0.6849447,-0.06232573,-0.3121927,-0.9369938,-19.27279,15.16374,33.15607,1007.644
31.765711307,-8.668253,-1.842654,1.173657,-0.1065539,-0.2935104,-0.9287339,-19.27279,15.16374,33.15607,1007.644
31.801009655,-4.071315,-1.429006,1.051479,-0.09685434,-0.2920989,-0.9475321,-19.66319,16.62831,33.56873,1007.647
31.833786011,-0.281948,-1.133542,0.8071228,-0.1094863,-0.2892854,-0.9479878,-18.94252,16.98505,33.12695,1007.651
31.866563320,0.8983467,-0.1289668,0.4405887,-0.1143345,-0.2912305,-0.9417157,-18.94252,16.98505,33.12695,1007.654
31.899339676,2.513487,1.052887,0.8682117,-0.09392171,-0.2942988,-0.91721,-18.92224,15.89174,33.14414,1007.65
31.934638023,-3.325866,0.6392381,0.8682117,-0.1031563,-0.2965348,-0.9475105,-19.28632,15.89261,33.14461,1007.652
31.967414379,-3.512228,1.052887,0.6238557,-0.1026881,-0.2902362,-0.9528161,-19.28632,15.89261,33.14461,1007.652
32.000191212,-0.4683104,0.107404,0.2573216,-0.1051283,-0.2848925,-0.9518557,-19.28559,15.89856,33.57972,1007.655
32.032968044,5.619526,-0.0107814,-0.3535686,-0.1017129,-0.2916792,-0.9513721,-19.29308,16.25705,33.13888,1007.655
32.065744877,9.471013,-0.4244302,-0.4146576,-0.09927499,-0.2940271,-0.9417471,-19.29308,16.25705,33.13888,1007.657
32.101042748,9.036168,-0.3062448,-0.4757466,-0.1016723,-0.3031669,-0.9224733,-19.28704,15.88667,32.7095,1007.659
32.133819580,3.445299,-0.4244302,-0.3535686,-0.09535225,-0.3065301,-0.9234459,-19.65715,16.25793,33.13935,1007.659
32.166596413,-0.3440688,0.04831128,-0.1092125,-0.09730099,-0.3051322,-0.9301825,-19.65715,16.25793,33.13935,1007.66
32.199373245,-0.1577065,0.107404,0.07405458,-0.09778488,-0.3061203,-0.9316239,-19.65715,16.25793,33.13935,1007.662
32.232149601,-0.3440688,0.5801454,0.1962326,-0.09731071,-0.3022535,-0.9364445,-19.66319,16.62831,33.56873,1007.664
32.267447949,-0.7789143,0.6392381,0.2573216,-0.09827106,-0.3051235,-0.9277734,-19.66464,16.61642,32.69851,1007.664
32.300224304,-1.462243,0.2255893,-0.1092125,-0.1050795,-0.3018079,-0.9330572,-19.66464,16.61642,32.69851,1007.664
32.333001614,1.022588,0.107404,-0.2924795,-0.1060456,-0.3047682,-0.9373826,-19.65788,16.25198,32.70424,1007.666
32.365777969,1.395313,-0.3062448,0.1962326,-0.1031337,-0.3032527,-0.9330596,-19.6714,16.98086,32.69278,1007.663
32.401076317,0.3392597,-0.2471521,0.01296555,-0.108475,-0.3032973,-0.9330469,-19.6714,16.98086,32.69278,1007.663
32.433852673,2.202883,-0.2471521,0.01296555,-0.09875571,-0.3066288,-0.9335463,-19.66464,16.61642,32.69851,1007.663
32.466629982,3.880144,-1.842654,0.3184106,-0.1045846,-0.3092364,-0.9513389,-19.29984,16.62149,33.13315,1007.663
32.499406338,4.874076,-1.547191,-0.1703015,-0.1016611,-0.3105694,-0.9364216,-19.29984,16.62149,33.13315,1007.663
32.532183647,7.855874,-3.910898,-0.04812346,-0.1055465,-0.3131407,-0.9513307,-19.30057,16.61555,32.69804,1007.663
32.567481041,31.46177,-27.37069,6.854936,-0.557533,-0.4031,-1.227869,-19.67068,16.9868,33.12789,1007.663
32.600258350,34.50569,-22.52509,-3.224752,-0.143845,-0.3417987,-0.9641935,-19.67068,16.9868,33.12789,1007.663
32.633034706,40.28292,-21.57961,-3.163663,-0.1380561,-0.3201167,-0.9348768,-19.3066,16.98593,33.12742,1007.663
32.665812015,54.5707,-22.93874,-1.086637,-0.1867708,-0.464413,-0.9653509,-18.60684,18.43089,32.2955,1007.663
32.701109409,59.60248,-15.67034,16.01829,-0.233635,-0.5394078,-0.8375659,-18.60684,18.43089,32.2955,1007.665
32.733885765,68.60999,-20.22048,28.96916,-0.3232388,-0.6618941,-0.9743568,-17.52137,18.79271,32.28836,1007.666
32.766663074,147.6276,-41.43475,39.10994,-0.4383624,-0.8473945,-0.9670651,-17.57619,21.70226,31.80741,1007.666
32.799440384,228.4467,-106.6731,11.68097,-0.4774212,-1.191991,-1.097384,-17.57619,21.70226,31.80741,1007.666
32.832216740,265.7192,-61.70354,-7.989696,-0.3557352,-1.024236,-0.6526654,-15.80676,24.21924,29.58939,1007.666
32.867514133,250.2511,-51.71688,-2.186239,-0.5789852,-0.8895077,-0.7606453,-14.11096,30.40142,24.39165,1007.666
32.900291443,274.2297,-49.41227,17.36225,-0.6945648,-0.8492735,-0.5789585,-14.11096,30.40142,24.39165,1007.666
32.933068275,276.1555,-54.08059,52.79388,-0.6027356,-0.6642705,-0.5597193,-12.41202,36.18944,17.02409,1007.665
32.965845108,261.0602,-40.90292,94.27332,-0.4443846,-0.4337666,-0.3106155,-11.05117,40.44201,8.37553,1007.659
33.001142502,156.2003,-61.28989,133.6757,-0.3190506,-0.2110914,-0.0970424,-11.05117,40.44201,8.37553,1007.663
33.033919811,87.1841,-73.2857,150.2919,-0.2782753,-0.5821794,0.06948997,-7.789598,43.59167,-0.6312149,1007.663
33.066696167,91.09772,-93.73177,186.0901,-0.1498263,-0.4578577,0.2134065,-3.442705,44.24044,-5.745337,1007.663
33.099473476,63.45397,-110.9868,237.5882,-0.3543985,0.009374308,0.2021162,-3.442705,44.24044,-5.745337,1007.663
33.132249832,-104.1479,-112.0505,259.2137,-0.5347186,-0.1408283,0.1108301,2.436776,44.17369,-9.606779,1007.661
33.167548180,-172.4807,-96.62731,318.47,-0.8733022,-0.009029085,-0.5600651,9.036044,41.59504,-10.44535,1007.661
33.200324535,-48.17707,-74.70393,314.0105,-1.329695,-1.780508,-0.09709354,17.8741,39.79847,-7.009321,1007.661
33.233101845,-104.5206,-30.14805,257.9919,-1.275772,-0.1138594,0.1173608,17.8741,39.79847,-7.009321,1007.658
33.265878201,-356.731,-45.80761,180.4088,-1.217806,-0.7509669,0.3896716,27.53038,32.79059,-6.911791,1007.658
33.301176548,-220.0031,-42.61661,120.9081,-0.9193091,-0.8853152,0.4618517,34.27404,26.2794,-2.093117,1007.659
33.333952904,-148.8127,10.21225,97.02232,-0.8709346,-0.3311305,0.8142211,34.27404,26.2794,-2.093117,1007.658
33.366729736,-118.7463,10.74409,72.6478,-0.7485242,-0.5940472,0.609267,38.00134,21.87151,0.5204103,1007.658
33.399506569,-68.80116,34.73571,63.54555,-0.5819848,-0.07411209,0.09640083,38.78846,18.99418,3.486775,1007.659
33.432283402,-59.35881,90.57831,64.21752,-1.017834,-0.1621598,0.07542467,38.78846,18.99418,3.486775,1007.658
33.467581272,23.19971,81.35985,57.31446,-1.082481,0.0746782,0.1026587,40.31602,15.37604,5.717753,1007.658
33.500358105,-30.53477,88.92371,51.02229,-1.21497,0.06256658,0.201189,41.08336,13.52618,8.29493,1007.656
33.533134937,12.39069,71.19591,46.74606,-1.163351,0.175913,0.04974811,41.08336,13.52618,8.29493,1007.656
33.565911770,-32.83323,63.1002,39.10994,-0.9774132,-0.02814008,-0.03125413,41.13712,11.02777,12.18889,1007.656
33.601209640,-19.60151,38.81311,38.43796,-0.9408351,0.111044,-0.02096071,40.42602,10.32951,14.31468,1007.66
33.633986473,-3.698591,14.88057,44.42468,-0.9355449,0.1153395,-0.1100317,40.42602,10.32951,14.31468,1007.654
33.666763306,-7.239475,-3.910898,46.13517,-1.039478,0.1267653,-0.0929547,40.46877,8.160717,15.6544,1007.657
33.699540138,-4.44404,-20.45685,44.66904,-1.110154,0.2598761,0.01339326,39.78336,5.993674,16.99506,1007.657
33.732316494,-8.35765,-28.84801,42.83636,-0.9656778,0.1535536,0.02861441,39.78336,5.993674,16.99506,1007.657
33.767614841,-3.760711,-24.59334,42.89746,-0.9431993,0.3140579,0.1101507,40.53035,4.886729,16.14108,1007.657
33.800391197,-11.96065,-18.50679,46.013,-1.022653,0.2560902,0.204292,42.02014,2.988426,15.29858,1007.657
33.833168507,7.110425,-9.761074,43.63052,-0.9286713,0.3312488,0.1134598,42.02014,2.988426,15.29858,1007.655
33.865944862,-11.40157,0.4028674,43.99706,-1.06515,0.3573555,0.1796908,42.03835,1.878132,14.0726,1007.655
33.901243210,-15.12881,9.207677,43.56944,-0.9782186,0.3466983,0.1535071,42.86775,-0.3103795,14.10596,1007.655
33.934019566,-9.103099,13.63963,38.43796,-0.7397014,0.2831195,0.03895446,42.86775,-0.3103795,14.10596,1007.655
33.966796875,-13.57579,23.74448,41.30914,-1.00381,0.4921789,0.1634571,42.11334,-2.125579,14.50858,1007.655
33.999573231,-8.481891,23.33083,42.77528,-1.023674,0.441678,-0.001045359,41.77028,-3.212074,14.96135,1007.655
34.032350540,-17.61364,20.43529,35.20024,-0.7484564,0.2757427,-0.0308111,41.77028,-3.212074,14.96135,1007.655
34.067647934,-40.59833,19.60799,33.30648,-0.8890518,0.4042667,0.06030603,42.15609,-4.29437,15.8483,1007.655
34.100425243,-12.27126,16.41698,30.37421,-0.9437597,0.5427026,0.07274254,41.10588,-6.466486,16.75431,1007.655
34.133201599,-11.40157,-4.029084,13.08601,-0.8493119,0.3943023,-0.1597555,41.10588,-6.466486,16.75431,1007.655
34.165978909,-15.43942,-2.315396,12.78057,-1.035997,0.5255831,0.03303409,41.13478,-7.97903,17.2133,1007.655
34.201276302,-9.475823,-24.8888,3.983752,-0.9228452,0.5302911,0.08378296,40.4269,-9.070595,17.23143,1007.657
34.234053612,11.95584,-17.67949,-0.3535686,-0.924033,0.6238791,0.09616012,40.42545,-9.082483,16.3612,1007.659
34.266829968,22.14365,-17.56131,-8.35623,-0.9267374,0.5240762,0.03518403,40.42545,-9.082483,16.3612,1007.659
34.299607277,-2.704658,-3.49725,-12.51028,-0.8789808,0.4609774,0.07896977,40.78953,-9.083356,16.36073,1007.654
34.332383633,-1.897088,-4.029084,-13.91533,-0.8673159,0.4642814,0.1198529,40.41869,-8.718046,16.35547,1007.654
34.367681980,-14.50761,17.65793,-15.07602,-0.9523355,0.5073214,0.2480319,40.41869,-8.718046,16.35547,1007.656
34.400458336,14.75128,10.74409,-21.06274,-0.8923218,0.7906328,0.2248385,41.13332,-7.990917,16.34307,1007.656
34.433235169,25.8709,15.23513,-21.79581,-0.8975343,0.4920617,0.01879671,41.12729,-7.620536,16.77246,1007.656
34.466012001,8.477081,5.957579,-27.35491,-0.8870593,0.3676871,-0.01954962,41.12729,-7.620536,16.77246,1007.656
34.498788834,27.48604,5.780301,-26.37749,-0.8907294,0.508393,0.1179165,41.1198,-7.262043,16.33161,1007.656
34.534086704,21.0876,0.1664966,-29.1265,-0.92922,0.3529868,0.08839757,40.729,-5.730795,17.17843,1007.656
34.566863537,17.17399,-6.274606,-29.18758,-0.9147195,0.3682311,0.02191228,40.729,-5.730795,17.17843,1007.656
34.599640369,-13.26519,-9.87926,-29.6763,-1.022981,0.3853212,0.1583687,41.06676,-4.267976,17.59015,1007.656
34.632417202,18.1058,-11.82932,-26.8662,-0.9839797,0.4941455,0.002150947,41.03899,-2.816172,17.13212,1007.656
34.667715073,22.95122,-27.42978,-28.21016,-0.8895435,0.1475683,-0.2233094,41.03899,-2.816172,17.13212,1007.654
34.700491428,-3.760711,-23.58876,-23.32304,-0.9723452,0.3272692,0.1540038,41.39558,-2.458552,16.69081,1007.656
34.733268261,10.65131,-34.10726,-15.50364,-1.024137,0.2197816,-0.04258829,41.00373,-1.005875,16.23325,1007.659
34.766045093,-4.009195,-41.55294,-12.87682,-0.9037911,0.2817519,0.1096245,41.00373,-1.005875,16.23325,1007.659
34.798821926,-10.28339,-49.82591,-11.89939,-0.8915715,0.2416893,0.07692333,41.71546,-0.3025217,14.4804,1007.659
34.834119797,3.072574,-53.43057,-11.89939,-0.8953719,0.4328886,0.1916896,42.05717,0.7729335,13.21957,1007.659
34.866896629,-10.40763,-51.12595,-1.819705,-1.065808,0.2263708,0.1847033,42.05717,0.7729335,13.21957,1007.659
34.899673462,-12.76822,-48.88043,6.488401,-1.027799,0.1504912,0.08316024,42.78107,0.7363744,10.67011,1007.661
34.932450294,-46.93465,-56.62157,4.10593,-0.87242,0.1734764,0.1901007,43.19689,1.081962,9.358501,1007.655
34.967748165,-17.80001,-49.53045,7.282558,-0.9401592,0.4948705,0.2639067,43.19689,1.081962,9.358501,1007.655
35.000524998,-54.32702,-58.33526,3.983752,-0.8856878,0.05423409,0.2880283,43.93431,0.3165288,6.82051,1007.657
35.033301830,-38.85895,-51.42142,10.9479,-1.030001,0.3035172,0.3096562,43.57409,-0.07081127,5.086263,1007.657
35.066078663,-48.79827,-58.63072,9.848297,-0.8893805,0.1920595,0.3614777,43.57409,-0.07081127,5.086263,1007.657
35.098855019,-0.3440688,-65.78093,16.62918,-0.6522486,0.3159662,0.3149992,43.93536,-0.09461021,3.407505,1007.657
35.134153366,-35.81503,-58.98528,9.603941,-0.8526669,0.3232675,0.6254606,43.95211,-1.216791,1.311296,1007.657
35.166929722,-12.95459,-58.21708,27.68629,-0.9173678,0.1364861,0.4579002,43.95462,-1.616043,-1.231486,1007.659
35.199707031,-24.50905,-56.50339,33.67302,-0.7923176,0.263812,0.6177052,43.95462,-1.616043,-1.231486,1007.66
35.232483387,-2.766779,-57.50796,36.72747,-0.8149157,0.3560049,0.5251983,43.59367,-2.009326,-3.400844,1007.662
35.267781735,-13.32731,-61.93991,31.84034,-0.7610072,0.3697535,0.6165085,43.96701,-2.773887,-5.938366,1007.662
35.300558090,11.70736,-66.31277,36.60529,-0.7894738,0.2935617,0.6200604,43.96701,-2.773887,-5.938366,1007.662
35.333335400,-7.67432,-63.59451,30.25203,-0.7773649,0.5361429,0.7505965,43.63997,-4.988506,-8.016915,1007.662
35.366111755,1.022588,-62.76721,28.60262,-0.6501977,0.3358724,0.653843,42.85957,-5.757097,-11.05022,1007.662
35.398889065,-19.22878,-43.503,17.66769,-0.7551739,0.4027411,0.8008066,42.85957,-5.757097,-11.05022,1007.664
35.434186459,-32.83323,-35.64367,13.1471,-0.6335112,0.2650349,0.6726832,41.79231,-7.229209,-12.26907,1007.664
35.466963768,-44.13922,-29.14347,0.7460337,-0.7703262,0.6364307,0.7359878,41.06052,-7.257184,-14.44368,1007.666
35.499740124,-38.48623,-28.67073,-7.500983,-0.6233433,0.5071161,0.803706,41.06052,-7.257184,-14.44368,1007.666
35.532517433,-51.46947,-18.32951,-15.25929,-0.6411299,0.4471408,0.8851888,41.06634,-7.699343,-15.68018,1007.666
35.567814827,-42.08923,-24.59334,-14.22078,-0.6152186,0.3804036,0.9222928,40.32135,-6.925816,-16.99698,1007.666
35.600592136,-89.30102,-27.78434,-16.8476,-0.5397837,0.04529167,0.6174356,40.32135,-6.925816,-16.99698,1007.666
35.633368492,-107.0054,-21.46142,-21.8569,-0.7146346,0.5204299,0.8669609,39.57073,-5.848591,-18.31857,1007.664
35.666145801,-92.5313,-25.89338,-23.01759,-0.5888945,0.3105104,0.7851475,39.52954,-3.667064,-18.7259,1007.664
35.698922157,-107.8751,-25.95247,-27.72145,-0.6079794,0.1817752,0.8556656,39.52954,-3.667064,-18.7259,1007.664
35.734219551,-112.6584,-22.11144,-19.35225,-0.590651,0.04064579,0.8510236,38.75864,-1.496528,-20.06468,1007.664
35.766996860,-117.1933,-17.50221,-8.111874,-0.5589094,-0.02295316,0.9121771,37.9817,1.044388,-20.97407,1007.664
35.799773216,-74.14355,-12.95208,-7.256628,-0.6354508,-0.3299339,0.7732264,37.9817,1.044388,-20.97407,1007.662
35.832550526,20.21791,-2.374489,-2.980396,-0.6255696,-0.4004382,0.778123,38.30409,3.290877,-21.00988,1007.662
35.867847919,148.0625,2.175648,37.94925,-1.333912,-0.4911574,0.5604388,37.89872,5.472429,-21.4789,1007.662
35.900625229,301.3144,-33.22087,109.4845,-1.171054,-0.01201217,0.2796592,37.89872,5.472429,-21.4789,1007.662
35.933401585,305.0417,-22.70237,201.8511,-1.165862,0.9266965,0.5795645,37.919,4.379117,-21.46171,1007.662
35.966178894,53.0798,44.89965,253.1048,-1.884433,1.024312,0.2123986,36.95636,-2.603308,-21.35048,1007.66
35.998955250,-24.19845,81.7735,233.3119,-1.591098,-0.02252423,0.1834362,36.95636,-2.603308,-21.35048,1007.66
36.034253597,49.72528,82.95535,134.9586,-1.262931,0.07197349,0.4910683,35.34285,-13.56902,-19.43482,1007.659
36.067029953,104.2673,89.10099,-14.52622,-1.001167,0.0152115,0.2782525,31.77524,-20.51038,-16.77171,1007.659
36.099806786,267.7692,119.711,-132.6724,-0.8647149,0.2326525,0.3560631,31.77524,-20.51038,-16.77171,1007.659
36.132583618,293.1766,92.05563,-239.2727,-0.8509192,1.406188,0.5159991,31.48521,-24.10122,-12.86009,1007.657
36.167881966,206.7666,104.7606,-277.881,-0.4000132,1.454006,0.3367538,34.4668,-23.62079,-3.856634,1007.655
36.200658321,142.658,110.138,-250.6964,-0.3548057,1.491538,0.6369597,39.84472,-18.43836,2.893568,1007.655
36.233435154,75.62964,114.8654,-199.3816,0.4011004,1.396938,0.9024652,39.84472,-18.43836,2.893568,1007.654
36.266211987,-23.7636,104.1696,-152.2209,0.6027852,0.4972221,0.8484676,42.99403,-7.742224,8.192111,1007.654
36.298988819,15.49673,74.85965,-121.2487,0.2781759,0.374944,0.7440036,43.58696,0.03448009,12.79396,1007.654
36.334286690,-72.90114,59.90919,-111.7799,0.1191511,0.2435286,0.5972821,43.58696,0.03448009,12.79396,1007.654
36.367063522,-66.37846,14.99876,-62.11456,-0.441198,1.36517,1.128825,41.24425,5.607913,15.69357,1007.654
36.399840355,-95.07825,21.38077,-72.13316,-0.8857151,-0.02551023,-0.1835859,40.08866,9.289717,18.18619,1007.654
36.432617188,104.3294,-11.00202,-21.73472,-2.50861,0.6984334,0.1854885,40.08866,9.289717,18.18619,1007.658
36.467915058,-102.9055,-11.23839,-2.308417,-2.078518,-0.03831362,0.3198787,39.71856,9.660969,18.61604,1007.658
36.500691891,12.94978,-37.18008,10.45919,-1.165501,-1.492151,-0.5706149,40.39262,12.57472,18.56926,1007.658
36.533468246,124.146,-42.97116,16.38482,-1.070574,0.8272765,0.3157021,40.39262,12.57472,18.56926,1007.658
36.599021912,25.8709,-41.8484,7.038202,-0.9388545,0.09044442,-0.04403973,41.12328,12.17372,16.02554,1007.659
36.634319782,-14.01064,-35.34821,10.21483,-0.9512714,0.462312,0.2177714,41.12328,12.17372,16.02554,1007.655
36.667096615,-11.33945,-34.81637,3.739396,-1.018779,-0.1713544,0.085068,42.23434,11.06591,15.1711,1007.657
36.699873447,-3.760711,-35.34821,20.90541,-1.140174,0.2543918,0.1713594,43.39194,10.68172,13.93217,1007.657
36.732650280,0.09077663,-39.4847,35.56677,-1.146843,0.1916976,0.1286285,43.39194,10.68172,13.93217,1007.657
36.765426636,-26.12419,-44.56667,44.73013,-1.069703,0.05395394,0.3288996,42.6002,10.65984,12.19274,1007.657
36.800724983,-5.997059,-53.19419,19.68363,-1.172911,-0.09454884,0.0391071,44.14819,8.811092,10.54114,1007.657
36.833501816,18.97549,-52.18962,8.321072,-0.6830542,0.5603458,0.05524994,44.14819,8.811092,10.54114,1007.657
36.866278648,23.13758,-50.47593,45.21884,-0.959444,0.8271864,0.1691047,44.89517,7.704148,9.687168,1007.657
