Time (s),Gyroscope X (deg/s),Gyroscope Y (deg/s),Gyroscope Z (deg/s),Accelerometer X (g),Accelerometer Y (g),Accelerometer Z (g),Magnetometer X (uT),Magnetometer Y (uT),Magnetometer Z (uT),Barometer (hPa)
0.517717361,0.8236944,0.3326017,1.863265,0.01405135,0.977964,-0.04319424,-2.206366,-37.9522,21.45967,1007.136
0.550000667,0.5757998,0.7435212,1.314798,0.02318318,0.998773,-0.05083062,-2.582452,-37.22482,21.02022,1007.136
0.584766865,0.6997471,0.8609267,1.741383,0.02027431,0.9977558,-0.06291611,-2.582452,-37.22482,21.02022,1007.138
0.617050171,1.381457,0.5674129,1.375739,0.03049456,0.972158,-0.05679898,-2.593114,-37.95948,20.59373,1007.138
0.651816845,2.868825,0.50871,0.339747,0.02418321,0.9818087,-0.05963114,-2.207028,-37.58768,21.45505,1007.138
0.684099674,3.488562,0.2151961,-0.2087194,0.01834739,0.9948485,-0.06244506,-2.207028,-37.58768,21.45505,1007.139
0.716382980,2.992773,0.03908782,0.09598416,0.01834533,0.9938626,-0.06776848,-2.206366,-37.9522,21.45967,1007.139
0.751149654,2.001194,-0.3718316,-0.02589725,0.02655509,0.9957972,-0.07502675,-1.844251,-37.59167,21.44953,1007.141
0.783432484,-0.4157788,-0.1370205,-1.12283,0.02123826,0.9933476,-0.07938016,-1.844251,-37.59167,21.44953,1007.141
0.818199158,-3.266567,-0.01961496,-0.5134229,0.01350469,0.9933386,-0.07549604,-2.219013,-37.59332,21.01932,1007.141
0.850482464,-5.249724,0.1564934,-0.4524822,0.01304705,0.9866031,-0.06344738,-2.219013,-37.59332,21.01932,1007.137
0.885248661,-5.187751,0.03908782,-0.3915415,0.02125191,0.9958476,-0.05567748,-2.21769,-38.32235,21.02855,1007.141
0.917531967,-3.390514,0.2738989,-0.5134229,0.005326926,0.9866498,-0.04312605,-2.21769,-38.32235,21.02855,1007.141
0.949815273,1.25751,-0.3131289,0.6444505,0.01404026,0.982316,-0.04413635,-2.219013,-37.59332,21.01932,1007.141
0.984581470,3.736457,-0.4305344,0.339747,0.02079512,0.9852062,-0.05380325,-2.219013,-37.59332,21.01932,1007.141
1.016864777,2.930799,-0.2544261,0.5225691,0.02221394,0.9968066,-0.05905818,-2.219013,-37.59332,21.01932,1007.141
1.051631450,0.5138261,0.3326017,0.4006877,0.01835717,0.9890248,-0.06731257,-1.86756,-37.96746,20.5827,1007.139
1.083914757,-0.3538052,0.3913045,0.1569249,0.02367665,0.9900194,-0.0639343,-2.58179,-37.58933,21.02484,1007.143
1.118680954,-0.2918315,0.1564934,-0.696245,0.02125297,0.994386,-0.05858643,-2.58179,-37.58933,21.02484,1007.139
1.150964260,0.08001049,0.09779059,-0.9400079,0.01835856,0.9914741,-0.05859675,-1.856236,-37.59731,21.01381,1007.139
1.183247566,0.3279051,-0.07831774,-0.5134229,0.01353099,0.9866061,-0.06296497,-1.854913,-38.32634,21.02304,1007.137
1.218013763,0.8236944,-0.1957233,-0.1477787,0.01159452,0.9875684,-0.06295533,-1.854913,-38.32634,21.02304,1007.137
1.250297069,0.2659315,-0.01961496,0.03504346,0.01979178,0.9958041,-0.06727712,-2.582452,-37.22482,21.02022,1007.137
1.285063743,-0.3538052,0.03908782,0.4616284,0.0159316,0.9943609,-0.06147574,-1.856236,-37.59731,21.01381,1007.137
1.317346573,-1.097489,0.03908782,0.339747,0.02028681,0.991455,-0.0658526,-1.856236,-37.59731,21.01381,1007.137
1.349629879,-1.345384,-0.1370205,-0.1477787,0.01981756,0.9876034,-0.05958878,-1.432335,-37.96648,21.01199,1007.137
1.384396553,-1.28341,0.09779059,-0.08683795,0.01885478,0.9871299,-0.05572188,-2.218352,-37.95784,21.02394,1007.135
1.416679382,-0.3538052,-0.07831774,-0.08683795,0.01596073,0.9837308,-0.05670186,-2.218352,-37.95784,21.02394,1007.137
1.451446056,1.071589,0.1564934,-0.1477787,0.01883926,0.9904863,-0.0648881,-2.208351,-36.85866,21.44582,1007.135
1.483729362,1.195536,-0.01961496,-0.3306008,0.01496675,0.9929013,-0.06293227,-2.219013,-37.59332,21.01932,1007.135
1.518495560,0.5757998,0.03908782,-0.02589725,0.01934001,0.9837175,-0.06347735,-2.219013,-37.59332,21.01932,1007.135
1.550778866,-0.04393683,0.03908782,-0.08683795,0.01740275,0.9846765,-0.0644346,-1.844251,-37.59167,21.44953,1007.135
1.583062172,-0.04393683,-0.01961496,0.1569249,0.01690283,0.9919375,-0.06342536,-2.569805,-37.5837,21.46056,1007.135
1.617828369,-0.1059105,0.09779059,0.4616284,0.01690653,0.9890206,-0.06730947,-2.569805,-37.5837,21.46056,1007.137
1.650111675,-0.1678842,0.09779059,0.09598416,0.01497106,0.9924306,-0.05906745,-1.831604,-37.95055,21.88988,1007.137
1.684878349,-0.1678842,0.09779059,-0.2696601,0.01981511,0.9866159,-0.06539565,-2.219013,-37.59332,21.01932,1007.139
1.717161655,-0.1059105,0.1564934,-0.02589725,0.01935154,0.9798559,-0.06059871,-2.219013,-37.59332,21.01932,1007.139
1.751927853,-0.2918315,0.03908782,-0.08683795,0.02077061,0.9943895,-0.05713506,-2.23166,-37.23444,20.57898,1007.139
1.784211159,-0.6016998,0.09779059,0.2178656,0.01883326,0.9943708,-0.0609985,-2.219013,-37.59332,21.01932,1007.137
1.816494465,-0.6636735,0.03908782,0.03504346,0.01738694,0.9938958,-0.05713058,-2.219013,-37.59332,21.01932,1007.137
1.851260662,0.4518524,-0.01961496,0.2788063,0.01402548,0.9851869,-0.05378877,-2.581129,-37.95385,21.02945,1007.137
1.883543968,0.9476417,-0.01961496,0.1569249,0.01691163,0.9885532,-0.06247776,-2.570466,-37.21918,21.45595,1007.137
1.918310642,0.7617208,0.03908782,-0.08683795,0.01785989,0.9948307,-0.06727849,-2.218352,-37.95784,21.02394,1007.137
1.950593472,-0.1059105,0.1564934,0.09598416,0.0154499,0.9929011,-0.06341675,-2.218352,-37.95784,21.02394,1007.137
1.985360146,-0.2918315,0.1564934,0.03504346,0.02077818,0.9905114,-0.05909088,-2.206366,-37.9522,21.45967,1007.137
2.017642498,-0.3538052,-0.1370205,-0.3306008,0.01788519,0.9856507,-0.06297979,-1.856236,-37.59731,21.01381,1007.137
2.049925804,-0.4157788,0.1564934,-0.1477787,0.01689987,0.9943686,-0.06002746,-1.856236,-37.59731,21.01381,1007.137
2.084692478,-0.1678842,0.2151961,-0.08683795,0.01497876,0.9900191,-0.05666399,-1.844913,-37.22716,21.44492,1007.137
2.116975307,0.2039578,0.09779059,0.03504346,0.02078513,0.9885855,-0.0562012,-1.856236,-37.59731,21.01381,1007.139
2.151741981,0.3279051,-0.1370205,-0.02589725,0.01545377,0.9919398,-0.06148848,-1.856236,-37.59731,21.01381,1007.141
2.184025287,0.2659315,-0.1370205,0.09598416,0.01594963,0.9880829,-0.05764397,-1.855575,-37.96183,21.01842,1007.141
2.216308117,-0.1059105,0.09779059,0.03504346,0.01690894,0.9895193,-0.06295568,-2.58179,-37.58933,21.02484,1007.141
2.251074791,-0.6636735,-0.01961496,0.1569249,0.02319714,0.9910122,-0.0561926,-2.58179,-37.58933,21.02484,1007.141
2.283358097,-0.8495944,0.3326017,-0.1477787,0.0207862,0.9871239,-0.05911016,-2.207028,-37.58768,21.45505,1007.141
2.318124294,-0.04393683,0.3326017,0.339747,0.02031942,0.9798619,-0.05963388,-1.844251,-37.59167,21.44953,1007.139
2.350407600,0.8856681,-0.01961496,-0.5134229,0.01353467,0.9880874,-0.05425466,-1.844251,-37.59167,21.44953,1007.139
2.385174274,1.009615,-0.2544261,-0.8181264,0.01446481,0.9996652,-0.06579337,-2.230337,-37.96347,20.58821,1007.139
2.417457104,-0.6016998,0.1564934,0.7053912,0.0115826,0.9914285,-0.06631742,-2.582452,-37.22482,21.02022,1007.139
2.449740410,-1.469331,0.50871,1.253857,0.008698614,0.9856277,-0.06199324,-2.582452,-37.22482,21.02022,1007.138
2.484507084,0.5757998,-0.1957233,1.802324,0.01549753,0.9720856,-0.06546897,-1.868222,-37.60294,20.57808,1007.138
2.516790390,1.93922,-0.54794,2.28985,0.0188517,0.9880944,-0.05668328,-1.868883,-37.23843,20.57346,1007.138
2.551556587,3.488562,-0.9001566,2.533612,0.02656207,0.9987581,-0.05808957,-1.868883,-37.23843,20.57346,1007.138
2.583839893,3.550536,-1.076265,1.863265,0.02174305,0.9875729,-0.07022876,-1.854913,-38.32634,21.02304,1007.136
2.618606090,3.922378,-1.487184,1.131976,0.02275273,0.9726034,-0.06161415,-1.844251,-37.59167,21.44953,1007.136
2.650889397,6.029482,-1.898104,0.2178656,-0.004358619,0.9865615,-0.06099292,-1.844251,-37.59167,21.44953,1007.136
2.683172703,12.59869,-2.426429,4.05713,-0.02368713,0.9758106,-0.07551555,-1.856898,-37.2328,21.00919,1007.136
2.717939377,21.08908,-2.250321,8.201098,-0.01553981,1.000943,-0.09182712,-2.207028,-37.58768,21.45505,1007.136
2.750222206,27.72026,-3.600484,8.018276,0.02644389,1.026611,-0.1212614,-2.207028,-37.58768,21.45505,1007.136
2.784988880,27.96816,-4.950648,-7.034079,-0.0305182,0.9877536,-0.1155583,-2.183719,-37.2119,22.32189,1007.133
2.817272186,37.20224,-14.93012,-12.21404,-0.04359719,0.9793125,-0.1677895,-2.183057,-37.57642,22.3265,1007.131
2.849555016,41.10658,-21.97445,-18.97846,0.005586225,1.02677,-0.1995326,-2.122741,-36.81841,24.55815,1007.131
2.884321690,39.49526,-21.03521,-30.13061,0.002988055,1.107624,-0.1860145,-2.122741,-36.81841,24.55815,1007.129
2.916604996,42.47,-19.21543,-32.5073,-0.04087067,1.034305,-0.2216278,-0.9373305,-37.17865,25.85248,1007.129
2.951371193,46.56026,-18.33488,-31.776,-0.04107826,0.905461,-0.2571676,0.2329128,-36.05762,28.87218,1007.129
2.983654499,41.78828,-22.09186,-29.39932,-0.0008409283,0.8717957,-0.2294063,0.2329128,-36.05762,28.87218,1007.131
3.018421173,24.99342,-19.74375,-22.81772,0.06244019,0.8937044,-0.2439213,1.029717,-35.66728,31.47089,1007.131
3.050704002,-2.336962,-11.58406,-19.95351,0.0134991,0.9234357,-0.2828053,2.18599,-33.45834,34.04101,1007.134
3.082987308,-24.52353,-8.766329,-15.62672,0.01982969,0.9260813,-0.2214071,2.18599,-33.45834,34.04101,1007.134
3.117753982,-44.41708,-3.07216,-17.75964,-0.1740004,0.881844,-0.2594326,2.946177,-32.72039,35.32792,1007.133
3.150036812,-53.34129,-7.005246,-14.16414,-0.1834409,0.9863217,-0.2660698,2.911544,-33.46632,34.02998,1007.133
3.184803486,-57.18365,-11.11444,-15.50484,-0.1439707,1.070716,-0.2429533,2.911544,-33.46632,34.02998,1007.133
3.217086792,-69.57838,-9.529465,-16.90647,-0.2355058,1.131426,-0.2433777,2.488841,-33.49051,31.85686,1007.134
3.251852989,-72.30522,-9.940384,-14.28602,-0.1073385,0.949192,-0.1484859,3.529891,-33.88953,30.10202,1007.136
3.284136295,-78.81246,-3.013457,-25.62099,-0.15464,0.9733571,0.02530799,3.529891,-33.88953,30.10202,1007.132
3.316419601,-104.2836,16.29976,-29.64308,-0.01625746,1.27216,0.402824,3.483273,-34.64109,28.36834,1007.136
3.351186275,-99.88351,15.36051,-35.43245,-0.06992862,0.9368368,0.02975215,3.063216,-36.12334,26.21369,1007.136
3.383469105,-26.07288,9.959858,-39.02795,-0.1591078,1.052029,0.1108501,3.063216,-36.12334,26.21369,1007.138
3.418235779,-39.39721,17.64992,-47.01118,-0.1334361,1.073785,0.2259769,3.039907,-36.49913,25.34685,1007.138
3.450519085,18.36224,10.07726,-42.01405,-0.2587246,0.8391938,0.07891461,4.140223,-36.50546,25.76603,1007.138
3.485285282,30.695,4.500499,-48.10812,-0.1955994,0.9381552,0.09674504,4.140223,-36.50546,25.76603,1007.139
3.517568588,34.53737,2.504605,-44.81732,-0.1727094,1.030231,-0.02702451,4.18618,-35.38937,27.49509,1007.139
3.549851894,27.59632,6.320285,-42.25781,-0.2950637,1.036162,-0.02962771,5.006292,-34.62324,30.96064,1007.138
3.584618091,8.756323,2.739416,-38.78419,-0.4704978,0.9857128,-0.05999311,5.006292,-34.62324,30.96064,1007.138
3.616901398,-3.14262,-2.837348,-29.46026,-0.5495836,1.075759,-0.1250583,5.777803,-33.51513,32.67867,1007.139
3.651668072,-5.68354,-1.839401,-5.44962,-0.4310774,1.08847,-0.04450719,6.901429,-33.14568,33.96469,1007.141
3.683950901,-14.66972,3.796066,3.082079,-0.5496329,0.7330918,0.003038415,6.913142,-32.04569,34.44882,1007.139
3.716234207,-0.9115681,-17.33694,11.61378,-0.352154,0.4593784,0.03393032,6.913142,-32.04569,34.44882,1007.139
3.751000881,-8.472356,-9.588167,16.42809,-0.1571839,0.8267627,0.03753279,7.987113,-31.69958,33.92968,1007.139
3.783283710,-17.14867,-3.189565,25.50826,-0.3513923,0.7321381,-0.01769869,7.975789,-32.06973,33.49857,1007.139
3.818050384,4.294219,-7.416164,31.48045,-0.2939134,1.019332,0.1438286,7.975789,-32.06973,33.49857,1007.139
3.850333691,29.64145,-3.600484,29.59129,-0.3053449,1.129433,0.08453286,6.851503,-32.07467,32.20794,1007.138
3.885099888,37.01632,7.611746,30.32257,-0.4340776,1.1291,-0.04765378,7.20494,-33.54235,31.78516,1007.138
3.917383194,26.9146,4.500499,18.62196,-0.4027831,0.9830502,-0.04613446,7.20494,-33.54235,31.78516,1007.138
3.949665546,37.20224,-6.242109,7.957335,-0.3559159,0.991828,-0.06600655,6.117271,-33.89491,31.80632,1007.138
3.984433174,12.53672,8.198774,6.250995,-0.2175788,0.7999132,0.01962306,5.427673,-33.87003,33.12453,1007.136
4.016715527,23.69197,6.789907,20.75488,-0.2002907,0.8165712,-0.07749067,5.427673,-33.87003,33.12453,1007.136
4.051481724,34.16552,0.6261156,14.35611,-0.1756529,1.039821,-0.05065213,6.153227,-33.87801,33.1135,1007.136
4.083765030,34.53737,7.905261,17.82973,-0.1571082,0.9663,-0.05594452,4.72609,-33.85078,34.00702,1007.136
4.118531704,26.29487,16.00624,10.09026,-0.2900658,0.9391153,-0.111408,4.72609,-33.85078,34.00702,1007.136
4.150815010,16.68895,21.93522,16.85468,-0.3973786,1.089414,-0.2229633,4.750722,-34.20403,34.88308,1007.138
4.183097839,29.39355,12.9537,25.8739,-0.3524893,1.137099,-0.1841138,5.124161,-33.47335,35.30406,1007.138
4.217864513,48.79131,11.19262,31.72421,-0.2627657,0.8531272,-0.09020101,5.124161,-33.47335,35.30406,1007.138
4.250147819,77.67104,-0.4892372,34.83218,-0.1498213,0.8941374,-0.22219,4.062837,-34.17834,36.26354,1007.138
4.284914017,91.36722,-16.16288,28.37247,0.09976903,1.023658,-0.3409174,3.383901,-33.41879,38.00825,1007.136
4.317197323,94.58984,-36.88496,39.76838,0.2967665,1.108541,-0.4496331,3.383901,-33.41879,38.00825,1007.136
4.351963997,91.49117,-6.359515,105.2796,0.9367203,0.8430609,-0.3626022,2.692981,-32.66488,39.31723,1007.134
4.384246826,63.35512,85.39293,124.9025,0.3371899,0.7116821,-0.06764292,2.727613,-31.91895,40.61518,1007.134
4.416530132,-6.117356,146.0329,69.75121,-0.5982108,0.7598823,-0.19008,2.727613,-31.91895,40.61518,1007.134
4.451296806,-10.39354,64.37733,-19.3441,-0.9437334,1.014766,-0.3686922,0.8884354,-31.18124,39.76207,1007.134
4.483579635,10.67751,0.2738989,-0.696245,-0.1850797,0.6273905,-0.9381531,-2.178803,-33.02196,35.90865,1007.136
4.518346310,-43.79734,-4.833243,-20.74574,0.08970593,1.853044,-0.7780429,-4.374454,-30.08834,35.40684,1007.136
4.550629616,-93.25232,-9.23595,-28.78991,0.02783379,1.128449,-0.4880988,-4.374454,-30.08834,35.40684,1007.136
4.582912445,-46.46221,-6.829137,-13.49379,-0.06484348,0.7414399,-0.2285592,-4.060941,-29.38584,33.64919,1007.136
4.617679119,-43.73537,0.802224,-0.2087194,0.03219411,0.8046023,-0.2361442,-3.404653,-30.88568,31.04226,1007.138
4.649962425,-36.54642,4.676607,-5.815264,0.07767867,0.8190332,-0.1573597,-3.404653,-30.88568,31.04226,1007.138
4.684728622,-27.37432,3.619957,4.849359,0.0455629,0.9002026,-0.1684315,-2.725718,-31.64523,29.29755,1007.139
4.717011928,-21.3009,1.271846,4.300893,0.01960455,1.020439,-0.2232873,-2.374265,-32.01937,28.86093,1007.139
4.751778603,-23.96577,-1.311076,-2.463525,-0.005026153,1.002901,-0.2368703,-2.374265,-32.01937,28.86093,1007.139
4.784061909,8.260533,-6.88784,-11.05616,0.01429847,1.009727,-0.2383234,-2.78366,-32.76695,27.13277,1007.139
4.816344738,35.90079,-6.124704,-9.288884,-0.004230085,1.059859,-0.280541,-2.407575,-33.49434,27.57221,1007.139
4.851111412,24.24974,-1.076265,4.727478,-0.01310326,0.9252838,-0.2861215,-2.407575,-33.49434,27.57221,1007.141
4.883394718,1.133563,1.976279,4.483715,0.02189513,0.8709223,-0.2207583,-2.72241,-33.46781,29.32063,1007.141
4.918160915,-16.15709,1.858874,-0.7571857,0.02951101,0.9183334,-0.2311409,-2.362941,-31.64922,29.29204,1007.141
4.950444221,-16.15709,1.213143,-1.976,0.0148555,0.9724051,-0.256424,-2.362941,-31.64922,29.29204,1007.141
4.985210896,-1.655252,-0.01961496,-0.4524822,-0.00796041,1.010087,-0.2561606,-2.759689,-32.75568,28.00422,1007.141
5.017493725,10.98737,-1.017562,0.7053912,-0.001227084,1.015331,-0.2851516,-3.121804,-33.11621,28.01435,1007.139
5.049777031,9.56198,-0.4892372,0.6444505,0.01003802,0.9607376,-0.2680826,-3.121804,-33.11621,28.01435,1007.139
5.084543705,0.4518524,0.6261156,0.949154,0.005817015,0.9153326,-0.2398087,-2.735057,-33.10893,28.88029,1007.138
5.116826534,-4.691962,0.50871,-0.2087194,0.01646305,0.9168622,-0.2258032,-2.022812,-32.39351,28.4243,1007.136
5.151593208,-0.9735417,0.3913045,-0.3915415,0.01149549,0.9666341,-0.2429133,-2.022812,-32.39351,28.4243,1007.136
5.183876514,4.170272,0.09779059,1.071035,0.01432172,0.9858783,-0.2785845,-3.110481,-32.74606,28.44547,1007.134
5.218642711,5.967508,-0.2544261,0.8272726,0.004654159,0.9834212,-0.2814783,-2.747042,-33.11456,28.44456,1007.133
5.250926018,6.649219,-0.3131289,0.7053912,0.005699094,0.9554037,-0.2676201,-2.747042,-33.11456,28.44456,1007.133
5.283209324,3.736457,0.2151961,0.4616284,0.006713796,0.9389888,-0.25708,-2.771675,-32.76131,27.5685,1007.133
5.317975521,-0.6636735,1.037035,1.010095,0.00572315,0.950128,-0.2536304,-3.099157,-32.37591,28.87658,1007.137
5.350258827,-2.522883,1.271846,1.558561,0.0003917447,0.9529933,-0.2603708,-3.099157,-32.37591,28.87658,1007.137
5.385025501,1.381457,-0.54794,2.899257,0.07577005,0.9730173,-0.2700882,-2.724395,-32.37426,29.30679,1007.137
5.417308330,4.97593,-2.719943,-2.768229,0.05407027,0.9463259,-0.2740606,-2.349633,-32.37262,29.737,1007.137
5.449591637,5.65764,-4.363621,-5.023035,-0.005326326,0.9147218,-0.2678276,-2.349633,-32.37262,29.737,1007.137
5.484358311,3.79843,-3.306971,-4.169865,-0.03299902,0.9571878,-0.2796125,-2.361618,-32.37825,29.30127,1007.135
5.516641617,-4.939856,-0.8414539,-1.305652,-0.03119414,1.007479,-0.2918998,-1.998841,-32.38224,29.29576,1007.133
5.551407814,-14.4838,1.389252,1.802324,-0.00554818,1.001275,-0.2881229,-2.361618,-32.37825,29.30127,1007.131
5.583691120,-11.07525,1.213143,2.35079,0.01103142,0.954008,-0.2555535,-2.361618,-32.37825,29.30127,1007.131
5.618457794,1.25751,0.802224,2.35079,0.009687651,0.9187737,-0.2272281,-2.373603,-32.38389,28.86554,1007.131
5.650740623,10.11974,0.2151961,2.35079,0.0275369,0.9367319,-0.226681,-2.748365,-32.38553,28.43533,1007.135
5.683023930,11.85501,-0.1370205,1.010095,0.02940341,0.9589359,-0.2449295,-2.748365,-32.38553,28.43533,1007.133
5.717790604,12.16487,-0.7240483,0.949154,0.01968228,0.9679849,-0.2796646,-2.021489,-33.12254,28.43353,1007.137
5.750073433,13.77619,-1.252373,0.2788063,0.01000853,0.9625702,-0.2985287,-1.986194,-32.74112,29.7361,1007.137
5.784840107,10.11974,-1.076265,-0.3306008,0.008565758,0.9528252,-0.3169517,-1.986194,-32.74112,29.7361,1007.133
5.817123413,1.505405,0.09779059,-0.9400079,0.008103686,0.945094,-0.3131271,-2.349633,-32.37262,29.737,1007.137
5.851889610,-6.613145,0.4500073,-1.061889,0.01729736,0.9495445,-0.2928172,-2.350294,-32.0081,29.73238,1007.133
5.884172916,-8.100513,0.03908782,-1.12283,0.01585153,0.9549357,-0.2715121,-2.350294,-32.0081,29.73238,1007.133
5.916456223,-2.708804,-0.6653455,-1.244711,0.006673988,0.9495747,-0.2749069,-2.338309,-32.00246,30.16811,1007.133
5.951222420,3.736457,-1.311076,-0.5134229,0.01632977,0.9529603,-0.2836104,-1.986194,-32.74112,29.7361,1007.133
5.983505726,5.223824,-1.780698,-0.5134229,0.004250514,0.9471006,-0.2889355,-1.986194,-32.74112,29.7361,1007.138
6.018272400,1.93922,-1.487184,-1.305652,0.00424502,0.9475665,-0.2942506,-2.725056,-32.00975,29.30217,1007.134
6.050555229,-2.646831,-0.7240483,-1.549415,-0.004964883,0.9567316,-0.2951455,-2.713071,-32.00411,29.7379,1007.133
6.085321903,-3.080646,0.4500073,0.2788063,-0.001558566,0.9538984,-0.2772818,-2.713071,-32.00411,29.7379,1007.138
6.117605209,-0.5397261,0.802224,-0.2087194,-0.001567847,0.9563032,-0.281619,-2.363602,-31.2847,29.28742,1007.138
6.149888515,2.063168,0.50871,0.7663319,0.002784064,0.9563156,-0.2816283,-2.713732,-31.6396,29.73328,1007.138
6.184654712,3.11672,0.4500073,0.7053912,0.004251263,0.946615,-0.2894217,-2.713732,-31.6396,29.73328,1007.137
6.216938019,4.418167,0.6848184,0.949154,0.004278687,0.9345119,-0.2909409,-2.712409,-32.36863,29.74251,1007.138
6.251704693,8.322507,0.2151961,2.228909,0.01345368,0.9423056,-0.2836648,-3.087833,-32.00576,29.30769,1007.137
6.283987522,16.8129,-0.01961496,1.985146,0.007665172,0.9355058,-0.2861081,-3.087833,-32.00576,29.30769,1007.137
6.316270828,22.7004,-1.017562,2.107028,0.01343135,0.9446566,-0.3039557,-2.350294,-32.0081,29.73238,1007.138
6.351037502,23.81592,-1.60459,1.924205,0.0182339,0.9528413,-0.3203565,-2.678438,-31.25818,31.03585,1007.14
6.383320331,22.63842,-1.017562,2.28985,0.01053171,0.9314609,-0.339799,-2.303676,-31.25653,31.46606,1007.14
6.418087005,24.74553,-0.9588594,3.20396,0.01150128,0.9280532,-0.3465886,-2.303676,-31.25653,31.46606,1007.138
6.450370312,32.36829,-0.6653455,4.361834,0.01737927,0.8951528,-0.349689,-3.017906,-30.8784,31.9082,1007.138
6.485136509,49.59697,-1.369779,5.032181,0.01968318,0.9323158,-0.3809062,-2.258381,-29.77593,33.1905,1007.14
6.517419815,57.46762,-2.250321,4.118071,0.02699878,0.8949676,-0.4125578,-2.258381,-29.77593,33.1905,1007.142
6.549703121,58.89302,-2.015509,3.996189,0.00660386,0.919964,-0.4447621,-2.611157,-28.67276,33.6179,1007.14
6.584469318,50.96039,-2.66124,3.264901,0.02603303,0.8690709,-0.4852188,-2.213747,-27.93081,34.91033,1007.142
6.616752624,33.85566,-2.485132,1.314798,0.02897567,0.8443283,-0.5061536,-2.213747,-27.93081,34.91033,1007.142
6.651519298,16.50303,-1.956807,-1.305652,0.02846197,0.8476228,-0.5332063,-1.829645,-26.46547,35.7578,1007.142
6.683802128,4.851982,-1.663293,-2.951051,0.01682649,0.8621238,-0.5282644,-2.532824,-24.62284,36.67945,1007.143
6.718568802,-3.82433,-0.6653455,-2.097881,0.01103736,0.8572761,-0.5258623,-2.532824,-24.62284,36.67945,1007.143
6.750851154,-7.480776,0.09779059,-0.8181264,0.01592411,0.8423537,-0.5066202,-2.182032,-24.63246,36.23821,1007.143
6.783135414,-6.427224,-0.9001566,-1.732237,0.01882,0.8486924,-0.4949878,-2.169385,-24.99134,36.67855,1007.143
6.817901611,-1.593278,-3.248268,-3.682339,0.006702625,0.8592895,-0.4992524,-2.169385,-24.99134,36.67855,1007.143
6.850183964,1.25751,-2.015509,-1.915059,0.04051493,0.8694996,-0.5137705,-2.182694,-24.26795,36.2336,1007.143
6.884950638,-4.196172,-2.250321,-1.671296,0.02650032,0.8685163,-0.5064942,-1.830579,-25.0066,35.80159,1007.143
6.917233944,-7.232882,-2.191618,-3.377636,-0.001485856,0.8520676,-0.4813887,-1.830579,-25.0066,35.80159,1007.143
6.952000141,-3.700383,-1.193671,-2.82917,0.004309016,0.8593825,-0.469757,-2.182032,-24.63246,36.23821,1007.143
6.984283447,3.550536,-1.076265,-2.158822,-0.006359702,0.8699756,-0.4764419,-1.829918,-25.37112,35.8062,1007.142
7.016566753,14.14803,-0.6066427,-0.7571857,-0.01167207,0.8597258,-0.49776,-1.829918,-25.37112,35.8062,1007.143
7.051333427,15.75935,-0.7240483,0.09598416,0.01393373,0.8553094,-0.5374823,-2.193356,-25.00261,35.8071,1007.143
7.083616257,9.376059,-0.6653455,-0.4524822,0.0003901386,0.8557415,-0.5413181,-1.807932,-24.2663,36.66381,1007.145
7.118382931,-0.4777525,-0.3718316,-2.158822,0.001407296,0.8403142,-0.5249711,-1.807932,-24.2663,36.66381,1007.145
7.150666237,-2.336962,0.03908782,-1.427534,0.0009175534,0.8510379,-0.501704,-2.159385,-23.89216,37.10044,1007.145
7.182949066,2.063168,-0.54794,-1.061889,0.008661714,0.8501135,-0.4954413,-1.796608,-23.89615,37.09492,1007.147
7.217715740,4.232245,-1.017562,-1.549415,0.002859328,0.8427675,-0.5162584,-2.522161,-23.88817,37.10595,1007.149
7.249999046,5.16185,-1.311076,-1.732237,0.00861077,0.8552778,-0.5423054,-2.522161,-23.88817,37.10595,1007.145
7.284765243,16.99882,0.8609267,-3.377636,-0.1425744,1.008434,-0.487447,-1.807932,-24.2663,36.66381,1007.145
7.317048549,4.851982,-0.4305344,-1.061889,-0.01405944,0.8402978,-0.5167195,-1.796608,-23.89615,37.09492,1007.147
7.351815224,4.294219,-0.01961496,-0.08683795,0.001891237,0.8403172,-0.5244887,-1.796608,-23.89615,37.09492,1007.151
7.384098053,4.294219,-0.7240483,-0.8181264,-0.0063182,0.8330086,-0.5322476,-1.435154,-23.17111,37.08017,1007.147
7.416381359,4.97593,-0.8414539,-0.4524822,0.001425458,0.8262181,-0.543422,-1.786607,-22.79697,37.5168,1007.151
7.451148033,6.153429,-1.898104,-1.488474,0.008184465,0.826682,-0.5550364,-1.786607,-22.79697,37.5168,1007.151
7.483430862,1.691326,-1.898104,-1.976,-0.007813953,0.8416137,-0.5621687,-2.149384,-22.79298,37.52232,1007.151
7.518197536,-7.914592,-0.4892372,-1.12283,-0.005416448,0.8547308,-0.5490464,-2.150045,-22.42846,37.5177,1007.149
7.550480842,-8.286434,-0.3718316,-1.12283,-0.01305733,0.8292063,-0.506149,-2.150045,-22.42846,37.5177,1007.147
7.585247040,-1.903147,-1.311076,-1.427534,-0.002428566,0.8321305,-0.5090559,-1.799254,-22.43809,37.07646,1007.147
7.617530346,5.099877,-1.898104,-1.488474,-0.008233426,0.828195,-0.5230855,-2.160707,-23.16313,37.09121,1007.147
7.649813652,6.215403,-2.426429,-2.097881,-0.00732972,0.8450385,-0.5515146,-2.160707,-23.16313,37.09121,1007.147
7.716863155,0.8856681,-2.074212,-2.03694,-0.003434553,0.8348986,-0.5481966,-1.42383,-22.80096,37.51128,1007.147
7.751629829,1.071589,-2.015509,-1.305652,0.001056111,0.7934603,-0.4991311,-1.42383,-22.80096,37.51128,1007.147
7.783913135,4.666061,-2.191618,-1.610356,-0.01939292,0.8328927,-0.5554252,-1.774622,-22.79133,37.95253,1007.146
7.816195965,0.2659315,-0.9001566,-1.000949,-0.02327901,0.8381835,-0.5616714,-2.151368,-21.69943,37.50847,1007.146
7.850962639,-6.241303,-0.3131289,-1.427534,-0.02375789,0.8465089,-0.5321332,-2.151368,-21.69943,37.50847,1007.146
7.883245945,-2.274989,-0.1957233,-1.549415,-0.02418704,0.8262087,-0.5245128,-1.001913,-22.07658,37.49562,1007.146
7.918012142,6.029482,-0.3131289,-1.549415,-0.02713769,0.8450539,-0.5302005,-0.6264896,-22.43945,37.93044,1007.147
7.950295448,13.40435,-0.3131289,-0.2696601,-0.03054664,0.8449443,-0.5596836,-0.6264896,-22.43945,37.93044,1007.147
7.985062122,11.91698,0.3326017,-1.12283,-0.04162374,0.828482,-0.5529851,-1.411845,-22.79532,37.94701,1007.147
8.017344952,16.75093,2.739416,-1.305652,0.02372052,0.8005974,-0.5542514,-1.401844,-21.69614,38.36889,1007.147
8.049628258,12.47474,1.154441,0.1569249,-0.01214435,0.8250756,-0.5835247,-1.401844,-21.69614,38.36889,1007.147
8.084394932,7.578823,0.7435212,0.5835098,-0.01206499,0.7916861,-0.5832312,-1.389197,-22.05502,38.80923,1007.147
8.116677761,1.567378,0.802224,0.09598416,-0.01447879,0.7868087,-0.5924391,-1.391182,-20.96148,38.79538,1007.147
8.151444435,-4.196172,1.213143,0.8882133,-0.008747884,0.8134054,-0.6029359,-0.9552951,-21.32501,39.22929,1007.147
8.183727741,-8.844197,1.506657,0.8272726,-0.002438879,0.8086315,-0.588957,-0.9552951,-21.32501,39.22929,1007.147
8.218493938,-11.26117,0.9196295,-0.3915415,-0.01451815,0.8164545,-0.5550457,-0.9672804,-21.33064,38.79356,1007.151
8.250777244,-6.799066,-0.07831774,-0.1477787,-0.01691256,0.8072596,-0.5531591,-1.401844,-21.69614,38.36889,1007.151
8.283060551,-2.336962,-0.07831774,0.2788063,-0.04447179,0.803772,-0.5594042,-1.401844,-21.69614,38.36889,1007.151
8.317826748,-3.204593,1.447954,0.7663319,-0.02285831,0.852096,-0.5978512,-1.402505,-21.33162,38.36427,1007.151
8.350110054,-9.959723,5.439744,4.239952,-0.04599923,0.8254398,-0.5902178,-1.401844,-21.69614,38.36889,1007.151
8.417160034,-37.41405,11.19262,6.372877,-0.01299324,0.8021063,-0.5063033,-1.413829,-21.70177,37.93316,1007.153
8.451926231,-38.90142,13.18851,6.555699,-0.02085062,0.8519173,-0.5093871,-2.173354,-22.80425,36.65086,1007.153
8.484209537,-32.45616,13.65813,8.444861,0.003811444,0.8617664,-0.4798946,-2.173354,-22.80425,36.65086,1007.153
8.516492844,-29.79129,14.59738,7.043224,0.01441795,0.8817018,-0.46095,-2.571426,-23.18168,35.35381,1007.147
8.551259041,-34.99708,17.47381,8.810505,0.03408223,0.9392427,-0.4911218,-2.616449,-25.75663,33.58097,1007.146
8.583542347,-60.15839,26.33793,9.054268,0.05210463,0.8929251,-0.4653183,-2.616449,-25.75663,33.58097,1007.144
8.618309021,-83.27456,34.32151,0.339747,0.02220856,0.8692416,-0.4315479,-3.013197,-26.8631,32.29315,1007.148
8.650591850,-100.9371,42.95082,-1.854118,0.06220346,0.9357266,-0.4099847,-3.445901,-27.98646,29.69815,1007.148
8.682875156,-128.3914,52.75418,6.982284,3.93503E-05,1.061484,-0.3757784,-3.445901,-27.98646,29.69815,1007.142
8.717641830,-135.0226,51.28661,9.480853,0.02537475,1.012015,-0.2866781,-4.251383,-30.20502,26.68679,1007.141
8.749924660,-160.9276,57.333,12.40601,-0.04025922,1.509729,0.1262493,-4.778375,-33.19685,20.56681,1007.141
8.784691334,-125.1068,58.56576,7.46981,0.04637305,1.01537,-0.02806462,-4.778375,-33.19685,20.56681,1007.145
8.816974640,-127.0899,53.81083,8.201098,0.09431402,1.015308,0.05595004,-6.03987,-36.91456,14.09362,1007.145
8.851740837,-96.41298,39.25254,11.4919,0.1244545,0.9847841,0.1625515,-5.819322,-38.80955,8.820211,1007.145
8.884024143,-75.6518,26.98366,11.12625,0.1741746,0.8096775,0.1421111,-5.819322,-38.80955,8.820211,1007.146
8.916307449,-40.69866,8.903208,4.971241,0.2551797,0.7449858,0.261945,-6.323937,-39.96672,3.610852,1007.146
8.951073647,16.62698,-3.130862,-5.937146,0.1426149,0.7191842,0.311835,-6.404528,-41.82874,0.5838437,1007.146
8.983356953,72.09341,-13.75606,-8.98418,0.07579955,0.7293876,0.2375875,-6.404528,-41.82874,0.5838437,1007.146
9.018123627,90.62353,-17.63045,-10.93428,0.09274552,0.8912291,0.1427503,-6.766643,-42.18926,0.5939751,1007.146
9.050406933,86.4713,-18.92191,-14.46884,0.07474171,1.11643,0.06720285,-6.660098,-41.40952,4.506285,1007.146
9.085173130,81.14156,-20.7417,-15.38295,0.05385633,1.134555,0.006921081,-6.552892,-40.9943,8.42321,1007.146
9.117456436,82.38103,-23.03111,-7.15596,0.06700738,1.047515,-0.1275147,-6.552892,-40.9943,8.42321,1007.148
9.149739742,67.32143,-18.51099,-1.061889,0.08600167,0.9880261,-0.1336951,-6.084504,-38.75967,12.37379,1007.148
9.184505939,48.29552,-13.93217,2.35079,0.08743219,0.9977204,-0.130259,-5.603197,-37.97829,16.71631,1007.148
9.216789245,20.0975,-5.772487,0.6444505,0.06668854,0.9768503,-0.1308164,-5.603197,-37.97829,16.71631,1007.148
9.251555919,3.426588,-3.189565,-1.000949,0.09174182,1.011729,-0.1413078,-5.558563,-36.13317,18.43614,1007.148
9.283838749,-3.328541,-2.015509,-1.793178,0.07523439,1.033884,-0.15855,-5.535254,-35.75739,19.30297,1007.148
9.318605423,0.6997471,-1.60459,4.300893,0.08165538,0.9890143,-0.1240114,-5.535254,-35.75739,19.30297,1007.15
9.350888729,13.03251,-2.778646,3.143019,0.07745496,0.916329,-0.149071,-5.184463,-35.76701,18.86173,1007.15
9.383171558,16.31711,-1.545887,0.4006877,0.09621159,0.9662948,-0.1290063,-5.183139,-36.49604,18.87096,1007.15
9.417938709,12.28882,0.09779059,-4.108925,0.08256529,1.004418,-0.1490646,-5.183139,-36.49604,18.87096,1007.148
9.450222015,22.51447,-0.7827511,3.143019,0.05757552,0.9541646,-0.105787,-5.534592,-36.1219,19.30759,1007.15
9.484988689,40.30092,-3.189565,6.494758,0.08127644,0.941068,-0.1349188,-5.499959,-35.37597,20.60554,1007.15
9.517271042,55.48447,-6.946543,1.863265,0.06913314,0.9398296,-0.2045149,-5.499959,-35.37597,20.60554,1007.15
9.549554825,63.97485,-7.709679,2.046087,0.07965955,0.9706725,-0.2512557,-5.101888,-34.99854,21.90259,1007.152
9.584321499,60.13249,-7.474867,3.630545,0.08495618,0.9632651,-0.2996531,-5.381701,-33.49623,25.00197,1007.152
9.616604805,51.76604,-7.592273,4.849359,0.09026182,0.9549176,-0.3398375,-5.381701,-33.49623,25.00197,1007.152
9.651371002,39.06144,-5.244162,3.20396,0.08885709,0.9233401,-0.3748216,-5.324421,-32.01,27.16214,1007.152
9.683654308,32.49224,-4.598432,0.4006877,0.0903373,0.9132047,-0.3681142,-5.277802,-31.25843,28.89582,1007.152
9.718420982,24.99342,-2.954754,-0.08683795,0.08260837,0.9073508,-0.3753825,-5.277802,-31.25843,28.89582,1007.152
9.750703812,14.08606,-1.134968,1.619502,0.07816473,0.9440973,-0.3809652,-5.606608,-30.14399,30.19467,1007.148
9.782987118,12.53672,-2.954754,2.838316,0.08734971,0.9392269,-0.397933,-4.86973,-29.78182,30.61475,1007.148
9.817753792,18.54816,-5.42027,5.946292,0.08215117,0.8918211,-0.3880392,-4.86973,-29.78182,30.61475,1007.148
9.850036621,24.74553,-7.122651,7.347928,0.06713632,0.9053578,-0.3792279,-5.584622,-29.03918,31.05228,1007.148
9.884803295,32.30632,-11.87758,10.76061,0.09179423,0.8990635,-0.4010716,-5.561313,-28.66339,31.91911,1007.148
9.917086601,36.5825,-13.28644,11.73566,0.08981977,0.9086645,-0.4222841,-5.514033,-28.27634,33.65741,1007.148
9.951852798,42.40802,-20.50689,20.81582,0.04381229,0.9468454,-0.3977959,-5.514033,-28.27634,33.65741,1007.154
9.984136105,38.6896,-27.0816,25.50826,0.08492253,0.9396695,-0.4080775,-5.841516,-27.89093,34.96548,1007.154
10.016419411,10.30566,-19.56764,20.08454,0.09221499,0.9320343,-0.3825144,-5.467026,-26.79493,35.4441,1007.154
10.051185608,-20.43327,-6.829137,9.176149,0.1043843,0.8815814,-0.4297211,-5.467026,-26.79493,35.4441,1007.152
10.083468914,-32.39419,0.4500073,-1.427534,0.1738074,0.7358333,-0.5143342,-6.194564,-25.6934,35.44128,1007.152
10.118235588,-16.8388,0.03908782,-10.5077,0.1912454,0.679323,-0.6399038,-6.244217,-25.71675,33.63612,1007.146
10.150518417,9.995795,-2.309023,-16.54083,0.06161918,0.7115445,-0.5896471,-6.244217,-25.71675,33.63612,1007.15
10.185285091,-6.923013,3.561255,-10.14205,0.08102126,0.9292602,-0.4777434,-5.892103,-26.4554,33.20411,1007.152
10.217568397,22.7004,-1.956807,-11.11711,0.1272061,0.797012,-0.5573954,-5.516679,-26.81827,33.63894,1007.152
10.249851703,41.41644,-4.011404,-10.99522,0.05027907,0.8273992,-0.5217658,-5.516679,-26.81827,33.63894,1007.15
10.284617901,38.56565,0.09779059,-7.948189,0.05936897,0.8846847,-0.475533,-5.892765,-26.09089,33.1995,1007.149
10.316901207,45.01092,-1.839401,-5.754323,0.06672764,0.8333435,-0.4951783,-4.769412,-24.62708,34.53392,1007.149
10.351667404,55.05065,-4.539729,-2.524466,0.007565722,0.657088,-0.6198133,-4.769412,-24.62708,34.53392,1007.149
10.383950710,44.01934,-2.837348,-5.571502,0.1106225,0.857456,-0.557016,-5.122188,-23.52391,34.96131,1007.149
10.416234016,31.12881,-0.3718316,-3.926102,0.07141135,0.8429908,-0.6512843,-5.450993,-22.40947,36.26015,1007.149
10.451000690,15.20158,5.439744,0.7053912,0.03480389,0.7794583,-0.6612354,-5.450993,-22.40947,36.26015,1007.147
10.483283520,-8.844197,12.01445,-0.2087194,0.05230138,0.7486054,-0.6411442,-3.615123,-21.3246,37.09019,1007.147
10.518050194,-32.51814,18.76527,-5.937146,0.05090543,0.7410091,-0.5967079,-3.605122,-20.22542,37.51207,1007.145
10.550333500,-44.91286,23.81371,-6.119968,0.05870996,0.7110145,-0.6007628,-3.605122,-20.22542,37.51207,1007.145
10.585099697,-49.49892,25.28128,-10.08111,0.1411906,0.7797903,-0.6532444,-4.387956,-21.70367,35.36293,1007.145
10.617383003,-55.20049,26.39663,-11.90933,0.157907,0.8830645,-0.6087002,-4.81171,-22.09318,33.13218,1007.147
10.649666309,-69.76431,30.21231,-10.38582,0.09643588,0.9530054,-0.4810258,-4.81171,-22.09318,33.13218,1007.147
10.684432506,-74.53628,30.44712,-10.14205,0.0685411,0.9144567,-0.408669,-5.207797,-23.56416,31.84898,1007.147
10.716715813,-65.11628,28.86215,-6.790316,0.05555114,0.9024751,-0.3632659,-5.27574,-25.78506,29.26231,1007.147
10.751482487,-39.70708,23.81371,-3.133873,0.04266404,0.8313019,-0.3631594,-4.969583,-27.6398,27.10124,1007.149
10.783765316,-24.77143,20.05673,-1.12283,0.08321829,0.8643842,-0.3456549,-4.969583,-27.6398,27.10124,1007.147
10.818531990,-22.97419,21.99393,-1.915059,0.06129844,0.8988421,-0.4406491,-5.727784,-29.47131,25.82817,1007.147
10.850815296,-38.46761,25.33998,-8.252892,0.09160627,0.9798927,-0.3967441,-5.727784,-29.47131,25.82817,1007.147
10.883098125,-60.22036,31.67988,-6.119968,0.1562809,1.068028,-0.2905093,-5.727784,-29.47131,25.82817,1007.147
10.917864799,-83.8943,41.24844,-7.521604,0.1462553,1.007938,-0.3067828,-6.522604,-30.9552,23.2433,1007.151
10.950148106,-95.29745,48.52758,-10.08111,0.03333986,0.9323522,-0.2388044,-6.594244,-32.08336,20.58054,1007.149
10.984914303,-95.97916,42.01157,-6.363731,0.1151751,0.8978822,-0.1980845,-6.594244,-32.08336,20.58054,1007.149
11.017197609,-76.39548,40.01568,-4.779273,0.1885454,0.9933387,-0.08070768,-8.500703,-33.93107,17.14538,1007.147
11.051964283,-66.41772,36.2,-1.915059,0.218063,0.9930227,-0.05611771,-7.504947,-35.81069,13.6661,1007.147
11.084247589,-45.22274,25.10517,6.250995,0.2099665,0.9426902,-0.05058519,-7.504947,-35.81069,13.6661,1007.149
11.116530418,-14.66972,9.020614,16.54997,0.2107239,0.8397393,-0.01443085,-8.675191,-36.93172,10.64641,1007.147
11.151297092,27.1625,-4.481026,5.946292,0.1896278,0.8032848,0.09901543,-8.361406,-37.32356,8.840356,1007.146
11.183580398,85.78959,-20.15467,2.838316,0.1880861,0.8248936,0.05079775,-8.361406,-37.32356,8.840356,1007.146
11.218346596,122.354,-25.96624,-5.083976,0.1784278,0.980757,-0.07205552,-7.947652,-38.03324,10.64923,1007.146
11.250629902,125.2048,-27.84473,-10.93428,0.09853852,0.9722782,-0.2217975,-8.918776,-36.50687,15.00458,1007.144
11.282913208,106.2409,-25.61403,-9.106062,0.06633995,1.046752,-0.3523166,-8.918776,-36.50687,15.00458,1007.142
11.317679405,65.77209,-20.38948,-7.15596,0.08091889,1.003114,-0.3898209,-8.766935,-34.24652,20.64133,1007.142
11.349962711,43.83342,-13.87347,-6.546553,0.05345703,0.9643568,-0.3793464,-7.198894,-31.65371,25.00647,1007.142
11.384729385,50.21671,-9.588167,0.8272726,0.02230036,0.8657126,-0.3305294,-7.198894,-31.65371,25.00647,1007.142
11.417012215,62.23959,-10.41001,11.24813,0.092272,0.9053937,-0.3899176,-7.867167,-30.1595,27.17767,1007.142
11.451778889,42.16013,-8.003192,2.777375,0.08829014,0.9371647,-0.4361385,-7.445786,-29.40629,29.34156,1007.142
11.484062195,32.18237,-6.007298,7.957335,0.08114041,0.8896829,-0.4470287,-7.445786,-29.40629,29.34156,1007.142
11.516345024,30.50908,-6.946543,9.054268,0.1159185,0.8891396,-0.4940003,-7.751283,-27.91606,31.50725,1007.142
11.551111698,18.98198,-3.130862,7.896394,0.07683653,0.8551739,-0.4878244,-7.027713,-26.83049,31.48237,1007.146
11.583395004,14.14803,-2.66124,8.140158,0.09034962,0.8678094,-0.4834308,-7.027713,-26.83049,31.48237,1007.146
11.618161201,15.94527,-3.424376,6.250995,0.1411,0.8747051,-0.4907525,-7.368504,-25.72169,32.34549,1007.146
11.650444508,19.04395,-5.009351,6.250995,0.1073464,0.8442141,-0.4632972,-7.005727,-25.72567,32.33997,1007.146
11.685211182,26.72868,-8.531517,7.46981,0.1267722,0.8050352,-0.4741975,-6.619641,-25.35388,33.20129,1007.146
11.717494488,35.59092,-10.76222,6.372877,0.1359251,0.7946566,-0.5458251,-6.619641,-25.35388,33.20129,1007.146
11.749777317,48.97723,-11.05574,6.311936,0.1232786,0.8128821,-0.5834024,-6.958447,-25.33862,34.07827,1007.146
11.784543991,65.83407,-15.22363,4.544655,0.09366406,0.8582428,-0.5961335,-6.572634,-23.87247,34.98799,1007.146
11.816827297,70.17223,-15.63455,5.885351,0.08454862,0.8213758,-0.6146942,-6.572634,-23.87247,34.98799,1007.148
11.851593494,77.85696,-16.80861,7.347928,0.0657016,0.8096405,-0.6345413,-7.230245,-21.64359,37.58569,1007.148
11.883876801,89.508,-20.03726,7.774513,0.05032768,0.7626076,-0.6487952,-6.083972,-20.53384,39.73392,1007.144
11.918643475,98.43221,-21.97445,7.896394,0.06791764,0.6666561,-0.7035239,-6.083972,-20.53384,39.73392,1007.144
11.950926304,108.4719,-22.7963,7.774513,0.05299178,0.6253417,-0.7443355,-6.017352,-17.5839,42.31136,1007.144
11.983209610,119.0694,-19.03932,10.82155,0.03658114,0.5960985,-0.7918434,-5.588616,-14.27344,44.87866,1007.142
12.017976284,130.5965,-21.03521,10.21214,0.07966667,0.5612443,-0.8317764,-5.588616,-14.27344,44.87866,1007.142
12.050259113,122.54,-22.03316,8.505802,0.06952786,0.540756,-0.871513,-4.794731,-11.33068,47.50731,1007.146
12.085025787,109.9593,-17.21953,7.46981,0.004942203,0.4432159,-0.8970672,-3.992557,-7.289545,50.49559,1007.146
12.117309093,110.5171,-18.27618,8.018276,0.1018661,0.353001,-0.8968222,-3.992557,-7.289545,50.49559,1007.146
12.149591923,119.3793,-19.50894,8.018276,0.1045679,0.2031857,-0.9827651,-3.951341,-3.561096,52.19157,1007.146
12.184358597,126.8161,-18.6284,9.663675,0.0042833,0.2846949,-0.9787014,-3.535252,0.1082454,54.31853,1007.146
12.216641903,122.416,-22.38537,11.00437,0.060865,0.2956358,-0.9396027,-3.535252,0.1082454,54.31853,1007.146
12.251408100,108.1621,-16.28029,15.02646,0.04527333,0.1074999,-1.036843,-2.779034,3.033298,55.57775,1007.146
12.283692360,100.9112,-17.10213,14.17329,-0.05774876,0.1535178,-0.9362875,-3.134456,5.594531,55.98669,1007.146
12.318458557,59.82262,-15.45845,10.4559,-0.006527198,0.1549883,-0.9740978,-3.134456,5.594531,55.98669,1007.148
12.350741863,51.20828,-18.27618,18.37819,-0.06228117,0.2245921,-0.9508603,-2.750355,7.059875,56.83416,1007.148
12.383025169,63.91288,-8.648923,20.69394,0.06389162,0.01131621,-1.018093,-2.390886,8.878466,56.80556,1007.148
12.417791366,74.6963,-13.99088,33.67431,-0.02993009,0.03395811,-0.9689344,-2.390886,8.878466,56.80556,1007.148
12.450074673,60.07051,-11.64277,15.94057,-0.04834614,-0.1426282,-0.9399254,-2.415518,9.231712,55.9295,1007.148
12.484841347,54.80275,-9.118546,36.051,-0.00919473,-0.1699471,-1.03782,-2.790941,9.594582,55.49467,1007.146
12.517124176,24.86947,4.441796,22.40028,-0.01964654,-0.06027994,-1.0831,-2.790941,9.594582,55.49467,1007.146
12.551890850,16.75093,-4.833243,26.36143,-0.05858549,-0.1322581,-1.012844,-2.802927,9.588947,55.05894,1007.146
12.584174156,0.8236944,6.789907,27.2146,-0.03694918,-0.09898829,-1.066846,-2.102005,9.934217,54.17184,1007.146
12.616456985,-9.525908,2.504605,32.82114,-0.09123486,-0.05862745,-1.106142,-2.490076,10.65597,53.29667,1007.146
12.651223659,-40.57471,8.785802,38.06204,-0.08638739,-0.0614959,-1.099884,-2.490076,10.65597,53.29667,1007.146
12.683506966,-28.86169,12.77759,30.38351,-0.07584424,-0.1937521,-1.008805,-2.124653,9.193916,53.30962,1007.146
12.718273163,-3.14262,6.731205,41.96225,-0.06378627,-0.1826052,-1.014086,-1.785846,9.178658,52.43265,1007.148
12.750556469,-3.080646,8.374883,44.09517,-0.1082528,-0.1890038,-1.008225,-1.785846,9.178658,52.43265,1007.148
12.782839775,-11.26117,8.609694,43.72953,-0.0167679,-0.2078965,-0.9485831,-2.171271,8.442347,51.57594,1007.148
12.817605972,9.066191,12.36667,37.20887,-0.2034847,-0.1686415,-0.9165339,-2.90881,8.444689,51.15125,1007.152
12.849889278,37.26421,7.905261,39.21991,-0.09947496,-0.2380276,-1.059283,-2.90881,8.444689,51.15125,1007.15
12.884655952,71.28775,-1.956807,38.36674,-0.1338852,0.02098537,-0.99634,-1.857097,8.780334,49.8229,1007.148
12.916938782,53.7492,-15.10623,23.49722,0.05722577,-0.03225343,-1.017359,-2.620319,8.770605,48.46451,1007.148
12.951705456,5.781587,-10.2339,-1.793178,0.1176496,-0.2344231,-1.036043,-2.620319,8.770605,48.46451,1007.148
12.983988762,-57.0597,25.04647,16.06245,0.1898827,-0.2500663,-0.8578983,-2.30774,10.93198,46.75064,1007.147
13.016272068,-38.46761,21.28949,52.93157,-0.01861204,0.06216936,-0.6502122,-2.358055,11.27315,44.94087,1007.145
13.051038265,-21.23893,12.01445,61.34139,-0.1781392,-0.02851306,-0.8568123,-2.358055,11.27315,44.94087,1007.143
13.083321571,53.93512,-18.92191,60.6101,-0.1659055,-0.1065532,-0.9051428,-2.071159,13.42245,42.2933,1007.143
13.118088245,181.7868,-28.60787,70.36062,0.09042156,-0.4642584,-1.290613,-0.9376582,15.22676,41.81702,1007.143
13.150371074,197.4661,-2.426429,54.02851,-0.01829395,-0.6474327,-1.129951,-0.9376582,15.22676,41.81702,1007.142
13.185137749,272.5782,12.07316,53.60192,-0.08327626,-0.5301353,-1.019404,0.4808793,19.93824,40.8635,1007.142
13.217421055,277.4741,18.47176,30.07881,-0.2617157,-0.4569024,-0.8208763,2.152341,25.68857,35.96907,1007.14
13.249703884,248.4085,9.431533,13.86858,-0.3436077,-0.3606065,-0.7529543,2.152341,25.68857,35.96907,1007.138
13.284470558,217.3597,-17.74786,7.896394,-0.144996,-0.2936107,-0.7148097,3.051242,29.96547,29.29899,1007.138
13.316753864,227.8952,-22.03316,-29.58214,-0.04572759,-0.2888318,-0.5308064,3.593709,31.69556,22.72898,1007.138
13.351520061,261.9807,-11.17314,-61.08849,-0.2096629,-0.2277832,-0.3700877,3.593709,31.69556,22.72898,1007.138
13.383803367,301.7678,7.024718,-70.96088,-0.4586584,-0.08621321,-0.5099102,3.713744,32.30711,13.93744,1007.138
13.418570042,372.2318,-13.87347,-69.07172,-0.6530608,0.4144415,-0.2629915,2.688829,31.07986,3.006907,1007.138
13.450852871,314.9682,-53.67395,-34.51834,-0.3326667,0.9725093,-0.07438496,2.688829,31.07986,3.006907,1007.138
13.483136177,210.4806,-13.34515,2.960197,0.5712579,1.249926,0.3419684,1.937153,27.25275,-11.3204,1007.136
13.517902851,90.00379,38.01979,41.84037,0.3167926,1.248748,0.7809891,0.884882,21.26991,-23.49812,1007.136
13.550185680,-9.773803,90.03045,108.997,-0.2686281,0.7303478,1.24147,0.08403015,16.49974,-26.47717,1007.136
13.584952354,-111.6585,214.4216,100.8919,-1.004841,-5.542219,4.019555,0.08403015,16.49974,-26.47717,1007.142
13.617235660,-101.2469,-231.1911,-166.8816,1.446757,-10.03296,1.675483,2.815895,16.19745,-19.53953,1007.142
13.649518967,155.0142,-220.7421,-165.7846,-0.8822175,-0.3759277,1.037809,6.169961,27.51306,-15.74847,1007.154
13.684285164,131.96,-99.57953,-92.35107,-0.1459542,-1.428962,-0.4486038,6.169961,27.51306,-15.74847,1007.159
13.716568470,485.7676,-77.50728,-100.7609,-1.735199,-0.7438725,0.5681369,-5.154888,17.60391,-29.96094,1007.154
13.751335144,261.237,0.9783323,48.05632,-0.8736285,0.5044099,-0.08845005,-10.40098,10.64943,-36.33192,1007.154
13.783617973,149.6844,-155.5233,77.42974,-0.0220172,0.7748558,-0.9719903,-10.40098,10.64943,-36.33192,1007.154
13.818384647,47.55184,-136.6797,72.18884,2.49909,0.267271,-0.2329137,-3.604837,4.326167,-40.27979,1007.157
13.850667953,38.9375,-7.416164,88.46001,1.150713,0.1011592,-0.4151423,-7.495427,-3.783694,-50.20705,1007.157
13.882950783,54.80275,183.3092,71.0919,0.4767714,-0.09959747,-0.2523959,-7.495427,-3.783694,-50.20705,1007.157
13.917717457,194.4914,115.6836,99.42934,-1.003413,0.1255872,-0.2382565,-11.55563,-5.961528,-52.79529,1007.159
13.950000763,174.226,112.8071,62.07268,-0.318358,0.1788098,-0.2490992,-10.46388,-7.856824,-52.78799,1007.159
13.984766960,200.4409,83.98406,101.7451,-0.3681496,-0.4122843,1.584714,-10.46388,-7.856824,-52.78799,1007.154
14.017050266,-120.1489,112.2201,130.0825,-0.9145675,-0.0003374889,4.514972,-6.811168,-14.08704,-52.2667,1007.159
14.051816940,-329.7438,39.31124,3.935249,-0.9706051,-1.088448,2.62978,-5.618355,-18.79263,-48.73742,1007.161
14.084099769,-298.6331,-79.79669,-25.01159,-0.7022436,-1.291529,1.451357,-5.618355,-18.79263,-48.73742,1007.165
14.116383552,-283.6354,-95.58774,-65.65903,-0.3071634,-1.012879,0.5185697,-2.183631,-12.9406,-44.50457,1007.165
14.151150226,-102.6103,-66.06024,-94.17928,-0.1482487,-0.6393986,0.2094997,-3.218021,-2.992145,-41.99906,1007.166
14.183433533,20.40737,-58.37017,-74.12979,-0.1179824,-0.334268,0.2604801,-3.218021,-2.992145,-41.99906,1007.168
14.218199730,54.30696,-34.30204,-16.90647,0.1133281,-0.2219985,0.2074417,-4.341053,3.599478,-40.69525,1007.168
14.250483036,41.78828,-28.72528,46.47186,0.2750711,-0.07985808,0.3171585,-6.566706,3.23555,-42.4627,1007.17
14.285249710,-17.64446,-18.7458,65.48536,0.1864261,-0.02553852,0.2847845,-6.566706,3.23555,-42.4627,1007.175
14.317533016,-77.94482,-12.75812,59.87881,0.1543597,-0.01404425,0.1336027,-6.935787,1.047614,-42.80297,1007.175
14.349815845,-149.8963,8.903208,66.39948,0.2878984,-0.2859612,0.03459761,-7.297241,0.3225708,-42.78822,1007.179
14.384582519,-253.2063,36.72832,69.62933,0.1144387,-0.6581777,0.3006801,-6.845859,4.373332,-39.3587,1007.179
14.416865826,-325.7155,34.79113,53.78474,-0.3442394,-2.67788,0.0305782,-6.845859,4.373332,-39.3587,1007.179
14.451632023,-181.8127,-7.592273,1.375739,-0.4889386,-2.644138,-0.6007724,-5.868535,11.0506,-29.86682,1007.179
14.483915329,7.702771,-6.653029,-28.42427,-0.075273,-1.670258,-0.4549625,-4.918761,20.63353,-21.22108,1007.179
14.516198635,74.20051,-10.70352,-20.13633,-0.06205433,-1.008518,-0.1157219,-4.918761,20.63353,-21.22108,1007.175
14.550964832,121.1146,-2.543834,-20.6848,-0.04688678,-0.6354671,-0.001475698,-5.309478,22.81334,-22.11472,1007.179
14.583248138,134.7488,6.613799,-3.987043,0.02835042,-0.5182938,0.096683,-5.800124,20.56826,-26.8745,1007.175
14.618014812,119.1314,17.94343,14.84364,0.03352901,-0.5779421,0.3409527,-5.800124,20.56826,-26.8745,1007.175
14.650297642,88.08261,16.00624,29.34752,-0.07212723,-0.8132299,0.5433703,-5.188859,16.49346,-31.25427,1007.175
14.685064316,37.76,7.435638,22.40028,-0.1684162,-0.9432179,0.6801353,-5.618256,13.54751,-33.82619,1007.175
14.717347622,-10.82735,3.150335,2.777375,-0.1716995,-0.9804344,0.6963677,-5.618256,13.54751,-33.82619,1007.175
14.749630451,-45.47063,-2.309023,-10.38582,-0.1299784,-0.8918381,0.5295117,-4.912043,10.97665,-34.67636,1007.177
14.784397125,-65.48812,-1.956807,-14.34696,-0.05775111,-0.8293654,0.3392364,-4.912704,11.34117,-34.68098,1007.177
14.816680431,-63.00917,0.9783323,-7.277841,-0.01857181,-0.8634101,0.2558069,-4.912704,11.34117,-34.68098,1007.177
14.851446629,-47.39181,3.913471,-0.8181264,-0.04982891,-0.9575836,0.1958759,-4.844761,13.56207,-32.09431,1007.181
14.883729935,-25.20524,2.152388,1.802324,-0.05345185,-1.068972,0.1734956,-5.513034,15.05629,-29.92311,1007.179
14.918496609,-1.779199,0.4500073,2.228909,-0.07606886,-1.104256,0.2052507,-5.513034,15.05629,-29.92311,1007.179
14.950779915,8.446454,-0.3718316,-0.08683795,-0.07331793,-1.022774,0.2569525,-5.51568,16.51435,-29.94157,1007.179
14.983062744,10.55356,-0.8414539,-0.4524822,-0.07058819,-0.9487095,0.2617187,-4.778803,16.87652,-29.5215,1007.179
15.017829418,10.30566,-1.076265,0.8272726,-0.05660922,-0.925395,0.2753575,-4.778803,16.87652,-29.5215,1007.177
15.050112724,10.11974,-0.6653455,2.35079,-0.07494399,-0.934078,0.2990361,-5.51568,16.51435,-29.94157,1007.179
15.084878921,3.984351,-1.076265,1.43668,-0.08502872,-0.9553197,0.3226255,-5.527004,16.1442,-30.37269,1007.179
15.117162227,-3.390514,-0.9588594,-0.9400079,-0.08305768,-0.9727536,0.3172043,-5.527004,16.1442,-30.37269,1007.181
15.151928901,-4.134199,-1.076265,-2.219763,-0.08114829,-0.9713846,0.2911023,-5.527004,16.1442,-30.37269,1007.181
15.184211731,-3.018672,-0.7827511,-1.854118,-0.06475841,-0.9583535,0.2669691,-5.139595,15.78696,-29.50213,1007.185
15.216495037,0.5138261,-0.4892372,0.4616284,-0.05363673,-0.9568552,0.2713046,-5.139595,15.78696,-29.50213,1007.186
15.251261711,2.43501,0.4500073,1.43668,-0.08067953,-0.9685125,0.2814488,-5.150919,15.41681,-29.93324,1007.182
15.283544540,0.8236944,0.50871,-0.1477787,-0.07342781,-0.9626338,0.2964533,-5.163566,15.77569,-30.37359,1007.182
15.318311214,-1.531305,0.6848184,-0.3915415,-0.0647161,-0.967463,0.2920561,-5.515019,16.14983,-29.93696,1007.182
15.350594520,-1.779199,0.8609267,-0.3915415,-0.07829151,-0.9554346,0.2829684,-5.515019,16.14983,-29.93696,1007.182
15.382877350,-2.894725,0.9196295,-0.5743636,-0.07734594,-0.943793,0.2902841,-4.789465,16.14185,-29.94799,1007.184
15.417644024,-4.629988,0.6848184,-0.7571857,-0.06715714,-0.9626797,0.2775854,-5.86581,16.15945,-29.49572,1007.188
15.449927330,-3.14262,0.3326017,-0.5134229,-0.06082939,-0.9839907,0.2668149,-5.86581,16.15945,-29.49572,1007.19
15.484693527,0.5138261,0.6261156,0.2788063,-0.06230524,-0.9738373,0.2654255,-5.140257,16.15148,-29.50675,1007.19
15.516977787,1.567378,0.1564934,1.010095,-0.06667153,-0.9616925,0.2829078,-5.504356,16.8845,-29.51046,1007.19
15.551743984,1.25751,0.1564934,0.5835098,-0.07150056,-0.9651003,0.280965,-5.504356,16.8845,-29.51046,1007.188
15.584027290,0.3279051,0.3326017,-0.08683795,-0.07490446,-0.9524837,0.2940969,-5.503034,16.15547,-29.50123,1007.186
15.616310596,-0.3538052,-0.3718316,0.2788063,-0.07392216,-0.964146,0.2790419,-4.800789,15.7717,-30.3791,1007.19
15.651076794,-0.1678842,-0.1957233,-0.08683795,-0.07682085,-0.9617002,0.2892143,-4.800789,15.7717,-30.3791,1007.188
15.683360100,-1.159463,0.03908782,-0.1477787,-0.07636471,-0.9539936,0.278138,-5.152242,16.14584,-29.94247,1007.188
15.718126774,-0.2918315,-0.1370205,0.09598416,-0.06907719,-0.9684908,0.2780399,-5.152242,16.14584,-29.94247,1007.186
15.750409603,0.8236944,0.3326017,0.4006877,-0.06908032,-0.968015,0.2756254,-5.152242,16.14584,-29.94247,1007.186
15.785176277,0.08001049,0.1564934,-0.02589725,-0.0797307,-0.960278,0.282944,-5.164227,16.14021,-30.3782,1007.185
15.817459583,-0.8495944,-0.07831774,-0.3306008,-0.07052013,-0.9709064,0.2804465,-4.764833,15.78861,-29.07192,1007.185
15.849742413,-1.159463,0.2738989,-0.5743636,-0.06520826,-0.9665228,0.2843274,-4.764833,15.78861,-29.07192,1007.185
15.884509087,-1.96512,-0.1370205,-0.02589725,-0.07925354,-0.9563938,0.2863491,-5.14158,16.88051,-29.51598,1007.183
15.916792393,-3.204593,-0.9001566,-1.000949,-0.07101427,-0.9699743,0.2703006,-4.790127,16.50637,-29.95261,1007.183
15.951558590,-2.832752,-0.6066427,-1.488474,-0.06908674,-0.9646209,0.2775785,-4.790127,16.50637,-29.95261,1007.185
15.983841896,-3.762357,-0.4305344,-1.610356,-0.08505695,-0.9617893,0.269894,-5.152904,16.51036,-29.94709,1007.185
16.018608570,-1.407357,-1.017562,-1.427534,-0.052632,-0.9742886,0.2668524,-5.504356,16.8845,-29.51046,1007.185
16.050891399,0.3898788,-0.2544261,-0.696245,-0.07392193,-0.9660997,0.273713,-5.504356,16.8845,-29.51046,1007.185
16.083174705,-0.6016998,-0.3131289,-1.671296,-0.07102661,-0.961718,0.2790495,-5.127221,16.52243,-29.01339,1007.185
16.117941379,-3.452488,-0.6066427,-1.610356,-0.06041561,-0.9539808,0.268435,-5.152904,16.51036,-29.94709,1007.185
16.150224685,-2.956699,-0.6066427,-0.7571857,-0.0497306,-0.9728138,0.2712055,-5.152904,16.51036,-29.94709,1007.185
16.184990883,-1.841173,0.1564934,-0.02589725,-0.07005325,-0.9670647,0.271282,-4.766156,16.51764,-29.08115,1007.185
16.217274189,-2.708804,0.2738989,-0.2696601,-0.07151017,-0.9666062,0.265003,-5.128271,16.15711,-29.07102,1007.185
16.249557495,-2.522883,-0.1957233,-1.244711,-0.05599631,-0.9839867,0.2639039,-4.401005,16.14994,-29.01981,1007.185
16.284323692,-0.8495944,-0.07831774,-1.000949,-0.06764443,-0.9695381,0.2533755,-4.401005,16.14994,-29.01981,1007.185
16.316606998,-0.1678842,0.09779059,-0.696245,-0.07055919,-0.9608061,0.2621333,-5.127882,16.88695,-29.01801,1007.185
16.351373672,-0.4157788,-0.7827511,-0.5134229,-0.05699284,-0.9723833,0.2615548,-5.493033,17.25465,-29.07935,1007.185
16.383656502,0.08001049,-0.4305344,0.2178656,-0.05990541,-0.9704838,0.2533534,-5.493033,17.25465,-29.07935,1007.183
16.418423176,1.753299,-0.6653455,-0.8790671,-0.06956405,-0.9748586,0.2557666,-5.127221,16.52243,-29.01339,1007.185
16.450706482,1.25751,-1.017562,-1.305652,-0.06519511,-0.9791737,0.2639511,-5.504356,16.8845,-29.51046,1007.186
16.482989311,1.071589,0.09779059,-1.610356,-0.06571767,-0.9593012,0.2737339,-5.504356,16.8845,-29.51046,1007.188
16.517755985,-0.8495944,-0.2544261,-1.915059,-0.0667187,-0.9447845,0.2743021,-5.140257,16.15148,-29.50675,1007.188
16.550039291,-3.080646,-0.8414539,-1.854118,-0.05264977,-0.9694756,0.2591448,-5.489998,16.52642,-29.00788,1007.188
16.584806442,-0.6636735,0.1564934,-0.696245,-0.03810486,-0.9902872,0.2459423,-5.489998,16.52642,-29.00788,1007.19
16.617089271,3.488562,1.037035,-1.061889,-0.07584381,-0.9748503,0.2635152,-5.492371,16.89013,-29.07474,1007.19
16.651855946,1.195536,-1.545887,-2.341644,-0.04491913,-0.9621486,0.2727061,-5.854097,17.25944,-29.01159,1007.192
16.684139252,0.6997471,0.2738989,-0.8181264,-0.05020564,-0.9796213,0.2619825,-5.854097,17.25944,-29.01159,1007.192
16.716422558,2.806852,-0.2544261,-1.000949,-0.07296524,-0.967606,0.256782,-5.116948,16.52726,-28.63991,1007.192
16.751188755,2.992773,-0.4305344,-1.000949,-0.0371566,-0.974725,0.2677835,-5.855148,16.89412,-29.06922,1007.193
16.783472061,3.240667,0.8609267,-0.8181264,-0.0618335,-0.9685094,0.2664216,-5.855148,16.89412,-29.06922,1007.19
16.818238735,4.97593,0.2738989,-0.8790671,-0.05265634,-0.9631501,0.269333,-5.491048,16.1611,-29.06551,1007.19
16.850521564,3.302641,0.802224,-0.7571857,-0.03814087,-0.9630709,0.2804212,-5.51568,16.51435,-29.94157,1007.19
16.885288238,1.877247,1.447954,-0.2696601,-0.05746943,-0.9650259,0.2910874,-5.51568,16.51435,-29.94157,1007.19
16.917571545,-1.035515,1.389252,-1.976,-0.07103545,-0.9588226,0.2766488,-5.51568,16.51435,-29.94157,1007.188
16.949854374,0.2039578,0.7435212,-3.438577,-0.0487152,-0.9994876,0.2531644,-5.515019,16.14983,-29.93696,1007.188
16.984621048,5.16185,1.741468,-3.560458,-0.05839202,-0.994653,0.2599809,-5.515019,16.14983,-29.93696,1007.186
17.016904354,6.711192,1.213143,-5.876205,-0.07533594,-0.9815896,0.273628,-5.503034,16.15547,-29.50123,1007.186
17.051670551,6.33935,1.154441,-7.948189,-0.04969859,-0.977568,0.2963172,-5.527666,16.50871,-30.3773,1007.186
17.083953857,2.373036,0.7435212,-7.399723,-0.02753499,-0.9411835,0.3042113,-5.515019,16.14983,-29.93696,1007.186
17.116237163,-3.700383,1.330549,-5.876205,-0.01644611,-0.9256495,0.3091101,-5.515019,16.14983,-29.93696,1007.192
17.151003361,-9.154066,1.506657,-3.560458,-0.01016021,-0.9324738,0.2892368,-5.162904,15.41118,-30.36897,1007.192
17.183286667,-7.294856,1.858874,-0.5743636,0.01161394,-0.9421245,0.2789828,-5.164227,16.14021,-30.3782,1007.194
17.218053341,-3.762357,1.154441,0.4616284,-0.04201638,-0.9679983,0.2576799,-5.164227,16.14021,-30.3782,1007.194
17.250336170,0.1419841,-0.54794,0.6444505,-0.02648295,-0.9970257,0.2468458,-5.515019,16.14983,-29.93696,1007.192
17.285102844,5.967508,1.330549,1.314798,-0.02644881,-1.009101,0.2535452,-5.152242,16.14584,-29.94247,1007.19
17.317386150,8.632375,0.7435212,0.2178656,-0.05068745,-0.9732628,0.2823241,-5.152242,16.14584,-29.94247,1007.189
17.349669456,7.145008,1.858874,-4.108925,-0.08020128,-0.961203,0.2959926,-4.426027,15.77335,-29.94889,1007.189
17.384435654,4.790009,0.1564934,-7.765367,-0.05939157,-0.9674248,0.298813,-5.164227,16.14021,-30.3782,1007.189
17.416718960,-0.2918315,0.5674129,-8.740417,-0.03135962,-0.9659355,0.2861916,-5.164227,16.14021,-30.3782,1007.189
17.451486111,-8.658277,3.209038,-8.131011,-0.0251082,-0.9553104,0.274636,-5.537666,15.40953,-30.79918,1007.187
17.483768463,-15.59933,4.73531,-6.485612,0.004816223,-0.9329755,0.2713144,-6.239911,15.79329,-29.92131,1007.187
17.518535614,-16.77683,5.557149,-4.53551,0.02417424,-0.9470245,0.250405,-6.239911,15.79329,-29.92131,1007.191
17.550818920,-12.1288,5.615852,1.192917,0.03241491,-0.9488712,0.2697143,-5.877796,16.15382,-29.93144,1007.191
17.583102226,-8.286434,6.378988,3.082079,-0.008666583,-0.9567249,0.2716919,-5.866472,16.52397,-29.50033,1007.19
17.617868423,-4.444067,2.211091,3.325842,-0.03274725,-0.9871801,0.3015438,-5.866472,16.52397,-29.50033,1007.19
17.650151730,-7.170908,0.09779059,2.960197,-0.04005884,-0.9630093,0.3002467,-5.489336,16.16191,-29.00326,1007.191
17.684918404,-19.06985,1.330549,0.8882133,-0.0512041,-0.9675372,0.2586692,-5.85581,17.25864,-29.07384,1007.191
17.717201233,-21.61077,-0.3131289,1.558561,-0.02413381,-0.9670054,0.249912,-5.85581,17.25864,-29.07384,1007.191
17.749484539,-25.01932,1.624063,0.4006877,-0.03285478,-0.9641693,0.2373776,-5.46735,17.26672,-28.14565,1007.19
17.784251213,-28.30393,1.682766,-1.305652,-0.05750681,-0.9769088,0.211736,-5.795494,18.01665,-26.84219,1007.188
17.816534042,-27.31235,0.2151961,-2.707288,-0.02506743,-1.005474,0.1800801,-5.795494,18.01665,-26.84219,1007.186
17.851300716,-22.29248,-0.54794,-2.585407,-0.01927161,-1.01477,0.1452072,-5.795494,18.01665,-26.84219,1007.186
17.883584022,-20.24735,-2.132915,-0.696245,-0.01392152,-1.030264,0.1383394,-5.385437,18.39971,-25.10941,1007.186
17.918350220,-20.99104,-0.7240483,-0.5743636,0.002030867,-1.028771,0.1368632,-5.738214,19.50288,-24.68202,1007.184
17.950633526,-20.43327,-1.428482,-0.8790671,-0.02416539,-0.9988997,0.1201692,-5.738214,19.50288,-24.68202,1007.184
17.982916832,-22.60235,-1.663293,2.777375,-0.007691071,-1.015328,0.1137556,-5.363451,19.50453,-24.25181,1007.183
18.017683506,-31.58853,1.858874,3.691486,-0.01737761,-0.9992938,0.1409402,-5.704242,20.61333,-23.38869,1007.187
18.049966335,-46.958,6.202879,-1.976,-0.04305874,-0.9883482,0.1081839,-5.704242,20.61333,-23.38869,1007.187
18.084733009,-62.57536,7.200827,-5.693383,-0.05077721,-1.015172,0.05341948,-5.270876,21.37218,-20.78907,1007.185
18.117016315,-69.0826,7.083421,-10.20299,-0.04744518,-1.008539,0.008490212,-5.224258,22.12375,-19.0554,1007.183
18.151782512,-62.07957,5.322338,-9.77641,-0.0160358,-1.019287,-0.04820092,-5.224258,22.12375,-19.0554,1007.181
18.184065819,-43.23958,1.447954,-5.998086,0.002769813,-1.001859,-0.06216208,-5.880818,24.71795,-16.40007,1007.181
18.216349125,-20.1234,-0.7827511,-2.768229,0.01916244,-0.9937036,-0.09695863,-5.460761,26.2002,-14.24541,1007.181
18.251115322,-5.249724,-1.60459,-0.5743636,0.009925841,-0.9778078,-0.1108681,-5.460761,26.2002,-14.24541,1007.187
18.283398628,0.6377735,-2.778646,-1.12283,0.0007250696,-0.9774009,-0.1258325,-5.811552,26.20982,-13.80417,1007.185
18.318165779,6.215403,-1.721996,0.2178656,-0.01431081,-0.955644,-0.1189083,-5.822876,25.83967,-14.23528,1007.187
18.350449085,11.73106,-0.9001566,3.874308,0.0104761,-1.001963,-0.09940407,-5.822876,25.83967,-14.23528,1007.185
18.385215282,16.50303,2.211091,3.813367,-0.009293777,-1.014007,-0.0665561,-5.460761,26.2002,-14.24541,1007.185
18.417498588,16.25513,0.802224,2.472672,-0.01656265,-1.003342,-0.05487727,-5.460099,25.83568,-14.2408,1007.185
18.449781895,10.18172,1.56536,2.411731,-0.01072882,-1.011992,-0.04188617,-5.460099,25.83568,-14.2408,1007.185
18.484548092,2.806852,1.56536,3.447723,-0.00250994,-1.005133,-0.02397766,-5.482747,25.09538,-15.10302,1007.185
18.516831398,-4.258146,3.150335,0.4616284,-0.0382544,-1.014851,-0.005585209,-5.494071,24.72523,-15.53413,1007.184
18.551598072,-6.86104,-0.1370205,-1.000949,-0.04795826,-1.007197,-0.023408,-5.494071,24.72523,-15.53413,1007.184
18.583881378,-0.9735417,-1.252373,-2.89011,-0.01940591,-1.018259,-0.02739995,-5.496055,25.81878,-15.54798,1007.184
18.616164207,3.922378,-1.428482,-1.549415,-0.01904719,-0.9757715,-0.0566489,-5.120631,25.45591,-15.11315,1007.188
18.650930881,3.674483,0.09779059,0.7663319,-0.00544062,-1.002331,-0.05151142,-5.120631,25.45591,-15.11315,1007.188
18.683214188,5.471719,1.095738,-0.3306008,-0.02519131,-1.030421,-0.04147636,-5.858171,25.45825,-15.53785,1007.188
18.717980385,5.905534,1.858874,-2.707288,-0.0130675,-1.044412,-0.03916484,-5.506718,25.08411,-15.97447,1007.19
18.750263691,1.753299,1.213143,-0.8790671,0.01740848,-1.044762,-0.02521279,-5.506718,25.08411,-15.97447,1007.19
18.785030365,-5.869461,2.152388,-2.03694,-0.004885261,-1.01767,-0.008573784,-5.507379,25.44863,-15.97909,1007.188
18.817313194,-10.26959,0.03908782,-1.671296,-0.02394956,-0.9355031,-0.02208523,-5.858171,25.45825,-15.53785,1007.188
18.849596500,-13.3063,0.6261156,-4.53551,-0.009827816,-0.9804994,-0.03155684,-5.858171,25.45825,-15.53785,1007.19
18.884363174,-18.38814,-1.428482,-4.901154,-0.0273103,-0.9681538,-0.08656098,-5.494071,24.72523,-15.53413,1007.19
18.916646004,-25.39116,-1.780698,-19.95351,-0.07408641,-1.003431,-0.03251562,-5.846185,25.46389,-15.10212,1007.19
18.951412678,-18.57406,-3.424376,-31.10566,-0.04471686,-0.9833478,-0.128669,-6.173006,25.48478,-13.78942,1007.19
18.983695984,-9.525908,-4.363621,-31.41036,0.07246966,-1.079072,-0.2005314,-6.173006,25.48478,-13.78942,1007.19
19.018462181,14.27198,-3.424376,-24.88971,0.08435775,-1.171691,-0.1237334,-5.436129,25.84695,-13.36934,1007.19
19.050745487,26.85263,0.2151961,-30.92284,-0.04401379,-1.050851,-0.05653855,-6.196977,25.47351,-14.66088,1007.191
19.083029270,29.64145,-3.424376,-27.02263,0.06077884,-0.9861243,-0.03754226,-6.196977,25.47351,-14.66088,1007.191
19.117795944,22.88632,3.032929,-21.90361,0.1158579,-0.9597659,-0.01720667,-6.571739,25.47187,-15.09109,1007.191
19.150079250,24.93145,5.674554,-27.81486,0.09029889,-0.985453,-0.00714543,-6.982184,24.35896,-16.87688,1007.193
19.184845447,20.22145,3.091632,-19.3441,0.1603118,-0.9480441,-0.0230371,-6.982184,24.35896,-16.87688,1007.193
19.217128753,0.5757998,9.255424,-11.54369,0.1902597,-0.9388063,-0.03561852,-8.092502,23.26611,-17.71794,1007.193
19.284178257,1.505405,19.88062,0.8272726,0.1105795,-1.029492,-0.1679412,-7.741048,22.89198,-18.15457,1007.193
19.316461563,15.01566,19.2349,0.8272726,0.1213462,-1.077796,-0.1508352,-7.752372,22.52182,-18.58568,1007.193
19.351228237,25.55118,20.81987,-0.7571857,0.1161169,-1.100895,-0.1084127,-7.752372,22.52182,-18.58568,1007.193
19.383511066,14.51987,18.23695,5.154063,0.209753,-1.002139,-0.03408688,-7.752372,22.52182,-18.58568,1007.191
19.418277740,-19.87551,31.85599,20.75488,0.3036677,-0.6482146,-0.06128322,-7.062775,22.49694,-19.90389,1007.195
19.450561046,-70.13615,54.86748,28.98188,0.3238695,-0.4649077,-0.2507593,-6.688012,22.49859,-19.47368,1007.195
19.482843876,-85.31969,40.60271,70.66532,0.2917458,-0.2953217,-0.01767528,-6.688012,22.49859,-19.47368,1007.195
19.517610550,40.115,0.09779059,142.7582,0.1501369,-0.863618,0.1945288,-6.629408,23.25579,-17.30428,1007.193
19.549893856,122.354,-29.01879,180.0539,-0.3049346,-1.203654,0.9134165,-5.8342,25.46952,-14.66639,1007.192
19.584660053,-230.9578,-34.24334,65.66818,-1.224941,-1.054582,0.9844118,-5.8342,25.46952,-14.66639,1007.192
19.616943359,-363.8913,-53.85006,-62.36824,-0.8003185,-1.633621,-0.5972562,-3.345077,25.78278,-16.51477,1007.192
19.651710033,-270.1871,-83.02534,-111.913,-1.558595,-1.338647,-1.592246,-2.298301,28.45051,-6.910797,1007.193
19.683992863,-181.8127,-115.9576,-172.7319,-1.20494,-0.7056592,-1.314816,-2.298301,28.45051,-6.910797,1007.193
19.716277122,-133.969,-127.4633,-176.5711,-1.119716,-0.8123806,-0.8916304,-3.506192,32.98782,4.385692,1007.192
19.751043320,-121.9461,-103.3952,-182.4214,-0.9211593,-1.218013,-0.5192162,-3.724756,33.78925,9.672943,1007.192
19.783326626,-61.02602,-49.09514,-70.1077,-0.6074359,-1.117344,-0.3520502,-6.153019,32.04531,13.65617,1007.192
19.818093300,52.88157,15.53662,-8.801358,-0.4204723,-1.040786,-0.3384816,-6.153019,32.04531,13.65617,1007.193
19.850376129,124.3992,25.45739,32.27267,-0.2556869,-0.9962757,-0.3381002,-7.576848,30.24995,14.57277,1007.195
19.885142803,174.164,30.38842,69.75121,0.1327772,-0.7995006,-0.1487941,-8.409608,29.8427,10.66687,1007.197
19.917426109,170.9414,45.82726,79.68455,1.348921,-0.538434,0.03377596,-8.409608,29.8427,10.66687,1007.197
19.949708939,233.9066,-0.7240483,88.33813,1.330039,-0.05885107,-0.3743794,-7.12933,30.47609,4.473158,1007.197
19.984475613,361.0146,33.44097,4.483715,1.7873,-0.02205459,0.1015149,-7.753799,29.26257,-5.09347,1007.197
20.016758919,336.411,68.83875,38.67145,1.721078,0.4473253,-0.2785569,-7.753799,29.26257,-5.09347,1007.195
20.051525116,245.9295,42.5399,-86.8664,1.277,-1.313488,-0.277943,-18.30944,29.55202,-19.38488,1007.19
20.083808422,-200.5907,79.05302,-157.9233,0.3191786,-2.299783,0.5147369,-15.45498,30.05278,-34.32071,1007.196
20.118575096,-225.3802,85.15812,-118.7384,-0.7254261,-3.012339,-0.5245227,-15.45498,30.05278,-34.32071,1007.196
20.150857925,210.4806,-71.34349,-29.15556,0.1849412,-1.056588,-0.3727501,-14.63958,26.8036,-31.24011,1007.197
20.183141231,156.1917,-26.08365,24.65509,0.8250338,-0.9370052,-0.1839417,-15.70055,31.57117,-29.97639,1007.196
20.217907905,206.1424,-4.657135,-1.244711,-0.115696,-0.9367048,0.129422,-15.70055,31.57117,-29.97639,1007.196
20.250190735,182.9023,-27.60992,11.55284,0.4160523,-0.4159162,0.8486602,-15.86372,28.94068,-36.04425,1007.194
20.284957409,-6.241303,22.69836,14.96552,-0.02889347,-0.6910958,1.133283,-15.28907,25.21349,-41.73582,1007.194
20.317240715,-77.26311,-12.4059,-8.98418,0.1729492,-0.786966,0.5178526,-15.28907,25.21349,-41.73582,1007.194
20.349524498,-62.69931,-6.359515,-6.180909,0.1995981,-1.227399,-0.09529222,-15.30577,21.19255,-42.5565,1007.194
20.384291172,44.08131,4.73531,1.010095,0.01992237,-1.189933,0.2601521,-14.88637,23.03931,-40.40646,1007.192
20.416574001,44.14328,-0.54794,-4.779273,0.09575078,-0.8783574,0.460937,-14.88637,23.03931,-40.40646,1007.196
20.451340675,18.92,-1.721996,-5.144917,0.1249079,-0.7125533,0.5256308,-15.28537,24.12075,-41.65973,1007.196
20.483623981,-9.711828,1.741468,-6.485612,0.1048161,-0.830947,0.449101,-15.30841,22.65061,-42.57497,1007.196
20.518390179,-7.232882,0.03908782,-6.607493,0.1327655,-1.007628,0.4108114,-15.30841,22.65061,-42.57497,1007.195
20.550673485,-1.779199,-3.600484,-8.679477,0.1841563,-0.8965306,0.3069096,-14.93061,21.92403,-42.07328,1007.195
20.582956791,4.728035,2.739416,-2.585407,0.1402237,-0.8992979,0.3843387,-14.93233,21.92322,-42.13552,1007.193
20.617722988,6.835139,4.73531,-13.25003,0.1251044,-1.056692,0.3617216,-14.91797,21.56515,-41.63293,1007.193
20.650006294,22.82434,-1.487184,-9.167003,0.1999826,-0.7875641,0.4612286,-14.91797,21.56515,-41.63293,1007.193
20.684772968,-0.7256471,0.8609267,-10.14205,0.1364114,-0.8819734,0.5019211,-14.94431,21.91759,-42.57125,1007.193
20.717055798,-9.092092,-3.483079,-7.826308,0.2350913,-0.7276559,0.402514,-15.31841,21.55143,-42.99685,1007.193
20.751822472,-21.48682,5.615852,-5.754323,0.1321574,-0.9758935,0.3510468,-15.31841,21.55143,-42.99685,1007.197
20.816389084,11.66908,-4.422323,-2.585407,0.2905083,-0.6618284,0.3597429,-15.29444,21.5627,-42.12539,1007.197
20.851155281,2.001194,3.913471,-0.2087194,0.123048,-0.9834153,0.4240229,-15.29444,21.5627,-42.12539,1007.197
20.883438587,12.28882,-0.4305344,-3.74328,0.154034,-1.02519,0.3512028,-14.94365,21.55307,-42.56664,1007.199
20.918205738,34.35145,2.152388,-4.840213,0.2461699,-0.9510769,0.2948633,-15.30577,21.19255,-42.5565,1007.199
20.950489044,38.81355,3.150335,-0.3915415,0.1710814,-0.8199261,0.5036494,-15.30577,21.19255,-42.5565,1007.199
20.985255241,22.7004,5.204932,-10.08111,0.09608417,-0.9918134,0.5390918,-15.69185,20.82075,-43.41782,1007.199
21.017538548,32.30632,1.976279,-17.08929,0.2155845,-0.8764146,0.3615848,-15.71516,20.44497,-44.28466,1007.197
21.049821853,46.00249,4.383093,-8.07007,0.2230525,-0.760225,0.369481,-15.71516,20.44497,-44.28466,1007.195
21.084588051,40.23895,2.680713,-4.108925,0.2083936,-0.8224234,0.5920241,-15.37239,18.24261,-45.13394,1007.197
21.116871357,35.90079,3.972174,-6.180909,0.1770513,-0.8734585,0.552643,-15.03358,18.22736,-46.01091,1007.195
21.151638031,38.50368,3.26774,-10.62958,0.1555853,-0.8024719,0.5265038,-15.03358,18.22736,-46.01091,1007.195
21.183920860,41.66434,-2.191618,-6.851256,0.2105901,-0.7339067,0.5780196,-15.429,16.39186,-47.28949,1007.197
21.216204166,36.70644,-0.07831774,-5.876205,0.2160786,-0.8035576,0.5834129,-15.43967,15.6572,-47.71599,1007.197
21.250970840,31.31474,-2.309023,-12.21404,0.2015316,-0.7656512,0.6431228,-15.43967,15.6572,-47.71599,1007.195
21.283253670,34.41342,-5.537676,-8.252892,0.2181962,-0.6806722,0.5725046,-15.48562,14.54111,-49.44505,1007.195
21.318020344,31.68658,2.387199,-3.926102,0.2955135,-0.710467,0.4256866,-15.49629,13.80644,-49.87154,1007.195
21.350303650,37.88395,10.25337,6.555699,0.3528256,-0.4000193,0.4519836,-15.49629,13.80644,-49.87154,1007.195
21.385069847,11.48316,10.25337,37.33075,0.2769639,-0.2841939,0.8516427,-15.12086,13.44357,-49.43671,1007.193
21.417353153,-52.47365,19.46971,46.59374,0.1946907,-0.6613907,0.85596,-15.15351,11.60409,-50.72081,1007.193
21.449636459,-38.28168,6.555096,59.75693,0.1403527,-0.8801944,0.5952263,-15.15351,11.60409,-50.72081,1007.193
21.484403610,5.099877,11.60354,70.29967,0.158545,-1.069476,0.4166889,-15.15285,11.23958,-50.7162,1007.193
21.516686916,75.25407,15.83013,84.49886,0.01465908,-1.299621,0.5984303,-15.13285,13.43794,-49.87244,1007.193
21.551453113,130.3486,17.35641,102.903,-0.01549216,-1.14111,0.8459503,-14.80669,13.78156,-51.18975,1007.193
21.583736420,94.15603,5.322338,94.91972,-0.2863568,-1.177838,1.233076,-14.80669,13.78156,-51.18975,1007.19
21.618503094,38.56565,-46.04259,97.78394,-1.130276,-0.9071887,1.273175,-14.48563,9.380043,-52.94503,1007.181
21.650785923,-110.6049,-96.9966,52.99252,-1.742019,-0.1397109,1.069528,-13.80272,6.433401,-54.66204,1007.181
21.683069229,-245.2117,-91.12633,4.666537,-1.155219,0.2548118,0.7528879,-13.80272,6.433401,-54.66204,1007.176
21.717835903,-347.4683,-98.34677,-65.53716,-1.10517,-0.2922302,0.6486309,-15.62859,6.447709,-55.07019,1007.173
21.750118732,-366.6801,-99.22731,-92.47295,-0.6654097,-1.030755,0.5448624,-19.69983,10.64128,-44.53509,1007.171
21.784885406,-310.3461,-94.7072,-81.32079,-0.3271416,-1.061948,0.1929795,-19.69983,10.64128,-44.53509,1007.173
21.817168713,-179.4577,-85.02124,-82.05209,-0.02883691,-1.1248,-0.04248856,-22.19408,18.16152,-29.2706,1007.173
21.851934910,-52.47365,-107.5631,-64.92775,0.3298874,-1.122095,-0.1191462,-23.72786,23.42071,-18.78795,1007.174
21.884218216,41.10658,-137.8537,-47.25495,0.5043656,-0.8864435,-0.1293014,-23.72786,23.42071,-18.78795,1007.174
21.916501522,181.1671,-140.6715,-18.24717,0.684868,-0.5653638,-0.2114997,-24.67264,24.59465,-13.49429,1007.174
21.951267719,330.0898,-105.4498,39.6465,0.9542366,-0.4042181,-0.2967326,-26.4852,23.88556,-13.45748,1007.174
21.983551979,447.5298,-71.40219,73.89518,0.9484693,-0.481787,-0.4765171,-26.4852,23.88556,-13.45748,1007.174
22.018318176,457.8794,-38.58734,73.40765,0.9386061,-0.358489,-0.3554185,-26.68802,22.3309,-20.90862,1007.174
22.050601482,402.1031,-16.98472,59.87881,0.8478197,-0.3729113,-0.2503986,-25.15688,18.52977,-31.40973,1007.173
22.082884788,294.6408,-20.8591,66.27759,0.7730209,-0.101337,0.1264552,-25.15688,18.52977,-31.40973,1007.173
22.117650986,150.8619,-23.97035,86.32708,0.5582303,-0.04322017,0.1789765,-25.02494,12.58003,-40.11817,1007.173
22.149934292,6.215403,-13.28644,86.38802,0.5778761,-0.2881951,-0.1560315,-24.36336,8.164057,-42.68817,1007.175
22.184700966,-175.8632,60.79647,94.06655,0.1583034,-0.1686294,-0.2187447,-24.36336,8.164057,-42.68817,1007.175
22.216983795,-274.8971,50.87569,39.21991,-0.8644218,-2.546377,1.720615,-24.71151,6.715616,-42.22847,1007.173
22.251750469,-106.7006,-2.66124,-144.2726,-0.8726764,-3.700986,1.879404,-24.30872,11.10836,-40.54646,1007.172
22.284033775,136.9798,-81.32296,-55.421,0.1079102,-0.9229402,1.004042,-24.30872,11.10836,-40.54646,1007.173
22.316316604,83.74445,-85.72567,8.140158,0.6881801,0.2063009,0.157877,-25.25343,18.84921,-34.90015,1007.173
22.351083279,-24.52353,19.2936,0.1569249,0.7940037,-0.1816081,0.126437,-24.87337,15.93473,-34.43301,1007.173
22.383366585,-19.31775,25.39869,-7.15596,0.4675786,-0.4385944,1.110444,-24.87337,15.93473,-34.43301,1007.172
22.418132782,21.77079,19.11749,3.20396,-0.1904487,-1.067461,1.164365,-23.7857,16.28728,-34.45418,1007.17
22.450417042,-2.398936,-25.61403,-24.15842,0.06146264,-0.789337,0.7694675,-24.88469,15.56458,-34.86413,1007.172
22.485183239,14.27198,-12.05368,-22.69584,0.3314684,-0.5801996,0.4224823,-25.24747,15.56856,-34.85861,1007.172
22.517466545,13.34237,5.028824,-7.399723,0.2419544,-0.52401,0.5143647,-25.24747,15.56856,-34.85861,1007.172
22.549749851,18.98198,2.445902,-5.023035,0.1902701,-0.683678,0.7088774,-25.60893,14.84352,-34.84386,1007.174
22.584516048,22.20461,-1.311076,0.1569249,0.180541,-0.62384,0.8102773,-25.64422,14.4621,-36.14643,1007.176
22.616799354,-7.418803,-7.005246,-0.5134229,0.2192842,-0.6029589,0.9418078,-25.64422,14.4621,-36.14643,1007.174
22.651566029,-26.63064,-9.764276,-3.499517,0.1935088,-0.5933807,0.7910851,-25.2688,14.09923,-35.7116,1007.174
22.716132164,-31.71248,-6.242109,1.010095,0.2567513,-0.7817129,0.7120442,-24.8947,14.46539,-35.28601,1007.174
22.750898838,-31.65051,-12.58201,-3.011992,0.1026038,-0.8051811,0.7717059,-25.24549,14.47502,-34.84476,1007.176
22.783181667,-30.10116,-26.25976,-11.17805,0.1524899,-0.6737871,0.6606712,-25.56165,15.23058,-33.10558,1007.177
22.817948341,-24.39959,-25.32051,-5.754323,0.3321908,-0.6950237,0.3821859,-25.56165,15.23058,-33.10558,1007.177
22.850231647,-12.1288,0.50871,-8.557595,0.3848258,-0.6756222,0.3507592,-25.86582,15.99177,-30.93065,1007.177
22.884997845,28.34,19.58711,0.5835098,0.3978713,-0.6472844,0.4195406,-26.21793,16.73042,-30.49865,1007.177
22.917281151,41.85026,18.17825,15.63586,0.2623992,-0.7461755,0.6266655,-26.21793,16.73042,-30.49865,1007.183
22.949564934,30.57105,12.66019,-0.6353043,0.1322785,-1.009063,0.9880301,-25.51503,15.98215,-31.3719,1007.185
22.984331608,37.26421,-11.58406,-11.84839,0.1401694,-0.7172495,0.8407732,-25.56099,14.86606,-33.10096,1007.186
23.016614914,26.60474,-9.881681,-10.99522,0.3167135,-0.4361359,0.5350076,-25.56099,14.86606,-33.10096,1007.186
23.051381111,5.037903,6.496393,10.1512,0.4073748,-0.336226,0.5237777,-25.57297,14.86042,-33.53668,1007.186
23.083664417,-12.62459,16.76938,22.40028,0.2489916,-0.5204392,0.8484259,-25.22019,13.75726,-33.96408,1007.186
23.118431091,-23.16011,-4.715837,36.41664,0.1138431,-0.5760112,0.9861812,-25.22019,13.75726,-33.96408,1007.186
23.150713920,-49.87076,-31.3669,33.36961,0.1622514,-0.3968442,0.9793606,-25.58363,14.12576,-33.96318,1007.19
23.182997227,-123.1856,-41.34637,30.01787,0.1884813,-0.5472782,0.6908028,-25.16159,14.51446,-31.79468,1007.19
23.217763901,-136.386,-31.24949,29.89599,0.2876781,-0.6952606,0.3498901,-25.16159,14.51446,-31.79468,1007.188
23.250046730,-120.3348,-5.302865,35.01501,0.3268141,-0.9429861,0.1864452,-26.49444,16.41014,-27.37618,1007.188
23.284813404,-48.07352,17.1803,42.81541,0.1811888,-1.146476,0.095199,-26.36922,20.11728,-22.62934,1007.188
23.317096710,9.190138,-6.300812,49.51889,0.1952396,-0.8160266,0.4915336,-25.94048,23.42774,-20.06204,1007.188
23.351862907,-32.33221,-7.357462,59.08659,0.203831,-1.281051,0.7774839,-25.94048,23.42774,-20.06204,1007.19
23.384146690,-26.07288,-4.950648,52.01746,0.1506863,-1.384124,0.5372268,-25.92916,23.79789,-19.63093,1007.19
23.416429996,5.471719,-39.29177,63.9009,0.1730104,-1.003146,0.5572322,-25.54638,25.99227,-18.79269,1007.19
23.451196670,-5.807487,-43.57708,81.08618,0.288081,-0.918821,0.7817792,-25.54638,25.99227,-18.79269,1007.192
23.483479500,-56.62589,-45.33816,96.13853,0.2306272,-1.032922,1.147217,-24.77421,26.73586,-17.07004,1007.193
23.518246174,-126.904,-86.19529,101.867,0.01146619,-0.9059923,1.374661,-24.31648,28.23582,-13.54596,1007.193
23.550529480,-166.0714,-149.2421,103.5124,-0.1829651,-0.3805825,1.07205,-24.31648,28.23582,-13.54596,1007.193
23.582812786,-263.3081,-144.8981,164.6968,-0.4127495,0.3633782,0.7456203,-24.12802,30.14855,-6.597411,1007.193
23.617578983,-414.7097,-50.03438,184.9901,-1.053819,0.8460918,-0.06919856,-23.40032,33.96439,6.858446,1007.193
23.649862289,-466.7676,-137.0906,63.10867,-1.44307,0.03585007,-1.214849,-23.40032,33.96439,6.858446,1007.193
23.684628963,-389.4865,-272.5179,97.90582,0.02491212,-0.5870327,-1.336129,-20.7328,36.36018,24.78695,1007.193
23.716911793,-144.0707,-109.0894,107.2297,0.139896,-1.469025,-2.232369,-19.55613,33.28084,41.0016,1007.193
23.751678467,89.87984,-36.70885,110.4596,-0.4754026,-1.57528,-2.221979,-19.55613,33.28084,41.0016,1007.192
23.783961773,137.7235,-31.19079,99.36839,-0.2942891,-1.015643,-0.8800619,-16.90851,27.46655,44.58491,1007.192
23.816245556,154.4564,0.4500073,77.06409,-0.2781403,-0.4314257,-0.142915,-15.54301,27.41035,41.45051,1007.192
23.851011753,99.11392,-9.529465,100.4653,-0.4491284,-0.05935678,-0.01812092,-15.54301,27.41035,41.45051,1007.192
23.883295059,15.32553,-17.63045,128.6809,-0.7252066,-0.102551,-0.1072077,-14.92996,29.90327,37.48563,1007.192
23.918061733,-55.01457,-18.98061,117.285,-1.285797,-0.5244935,-0.3360982,-14.99253,31.33316,35.28853,1007.192
23.950344563,-40.20287,-24.20516,85.23015,-1.118555,-0.5413868,-0.464666,-14.99253,31.33316,35.28853,1007.193
23.985111237,0.6997471,-11.17314,82.97534,-0.7943778,-0.5518413,-0.253678,-13.89089,30.5978,35.71694,1007.193
24.017394543,8.756323,-3.776593,80.72054,-0.6960816,-0.3770764,-0.1736122,-13.86361,28.78649,36.61148,1007.192
24.049677849,-8.72025,-9.705573,83.46287,-0.6782574,-0.3709504,-0.2374296,-13.86361,28.78649,36.61148,1007.192
24.084444046,-28.05603,-9.705573,81.269,-0.7839336,-0.484689,-0.2958613,-12.7733,27.68098,36.60878,1007.193
24.116727352,-26.32077,-13.34515,79.92831,-0.9439059,-0.3309259,-0.3400854,-12.44449,26.56654,35.30993,1007.192
24.151493549,-12.87249,-12.69941,70.90909,-1.120876,-0.3035466,-0.2505956,-11.71629,25.1005,35.31736,1007.19
24.183776855,-19.1938,-8.414112,55.91767,-1.074658,-0.1933246,-0.1799699,-11.71629,25.1005,35.31736,1007.188
24.218543529,-23.28406,-10.41001,44.8874,-0.903768,-0.1148516,-0.3017186,-12.05311,24.02221,36.20818,1007.188
24.250827312,-20.30932,-5.537676,41.53566,-0.9653638,-0.04591544,-0.327783,-11.32624,23.2852,36.20638,1007.188
24.283110618,4.108298,-6.711732,33.91807,-1.343977,-0.216506,-0.2239976,-11.32624,23.2852,36.20638,1007.186
24.317876816,9.623954,14.89089,28.92094,-1.284231,-0.172262,-0.356337,-10.96015,21.45863,36.22394,1007.185
24.350160122,6.773166,14.94959,23.98474,-1.009679,-0.1357381,-0.3779924,-10.95817,20.36509,36.23779,1007.185
24.384926796,1.815273,9.37283,24.83791,-0.8634798,-0.1673638,-0.2663295,-10.95817,20.36509,36.23779,1007.185
24.417209625,-10.14564,6.672502,22.40028,-0.8045847,-0.09283304,-0.1712787,-11.31028,21.10374,36.6698,1007.185
24.449492931,-14.29788,14.24516,19.04854,-0.9284824,0.07636775,-0.403067,-10.94552,20.0062,36.67813,1007.185
24.484259605,4.418167,13.36462,9.785557,-0.9928759,-0.07608462,-0.3535174,-10.94552,20.0062,36.67813,1007.185
24.516542435,10.9254,14.77349,6.494758,-1.015057,-0.09446051,-0.3308525,-10.92089,19.65296,37.5542,1007.185
24.551309109,8.756323,19.11749,3.752427,-0.9479572,-0.05417763,-0.3530063,-11.63446,19.66657,38.00096,1007.187
24.583592415,5.719614,15.1257,6.007233,-0.8993139,-0.1764766,-0.3547734,-11.63446,19.66657,38.00096,1007.187
24.618359566,-2.770778,9.37283,11.24813,-0.8752998,-0.1203979,-0.3917311,-11.27234,20.0271,37.99083,1007.187
24.650642872,-5.311698,7.024718,14.29517,-0.927801,-0.02298855,-0.4485933,-11.28499,20.38598,37.55049,1007.187
24.682925701,-2.522883,3.032929,13.92952,-0.9565527,-0.1050642,-0.3677803,-11.28499,20.38598,37.55049,1007.186
24.717692375,-6.303277,4.73531,13.01541,-0.9127361,-0.02410099,-0.3611296,-11.27102,19.29807,38.00006,1007.184
24.749975681,-4.32012,4.676607,8.993327,-0.9268253,-0.00633565,-0.390488,-11.25903,19.3037,38.43579,1007.184
24.784741878,2.311062,6.085474,5.82441,-0.9721314,-0.06351838,-0.3757289,-11.25903,19.3037,38.43579,1007.184
24.817025185,0.01803683,5.204932,2.716434,-0.9528397,-0.04510165,-0.3838842,-11.62049,18.57866,38.45053,1007.184
24.851791859,0.8856681,5.615852,-0.9400079,-0.9443932,0.03888601,-0.4544904,-11.2697,18.56903,38.00929,1007.184
24.884074688,12.47474,3.619957,-0.696245,-0.9218343,-0.08239853,-0.420421,-11.2697,18.56903,38.00929,1007.184
24.916357994,13.21843,3.619957,1.741383,-0.9343718,-0.08913249,-0.3977107,-11.9826,18.21813,38.46067,1007.184
24.951124668,0.08001049,2.269793,-1.732237,-0.9616574,0.006201013,-0.3743882,-11.63313,18.93754,38.01019,1007.184
24.983407497,0.01803683,2.211091,-6.424672,-0.9030278,-0.04493141,-0.3757721,-11.63313,18.93754,38.01019,1007.184
25.018174648,8.012638,3.091632,-4.59645,-0.934456,-0.0606495,-0.4178529,-11.6085,18.58429,38.88626,1007.184
25.050457954,10.80145,4.852715,-5.876205,-0.9403861,-0.01770291,-0.4490195,-12.35935,19.31003,38.01661,1007.181
25.085224628,17.68053,6.085474,-4.474569,-0.9633734,-0.1013857,-0.4189892,-11.62247,19.6722,38.43669,1007.181
25.117507934,13.65224,2.093685,-1.427534,-0.8705932,-0.07889233,-0.42873,-11.62247,19.6722,38.43669,1007.181
25.149790764,6.029482,0.03908782,1.192917,-0.892307,-0.07632196,-0.3658215,-11.63446,19.66657,38.00096,1007.181
25.184557438,0.9476417,2.974227,3.813367,-0.9603946,-0.1240238,-0.3901179,-11.99723,19.67056,38.00647,1007.181
25.216840744,-1.159463,0.2738989,4.300893,-0.9586269,-0.06509035,-0.4226605,-11.99723,19.67056,38.00647,1007.181
25.251606941,-0.2918315,2.62201,3.386782,-0.9548623,-0.02934721,-0.4456704,-11.62247,19.6722,38.43669,1007.181
25.283890247,1.629352,1.271846,4.605596,-0.8805881,-0.125661,-0.3695114,-12.34869,20.0447,38.4431,1007.183
25.316173553,-1.96512,2.445902,5.519707,-0.8995533,-0.06898385,-0.3362744,-12.34869,20.0447,38.4431,1007.183
25.350939751,-10.88933,2.152388,4.849359,-0.893234,-0.09130685,-0.3601035,-12.36133,20.40358,38.00276,1007.183
25.383223057,-13.43025,1.154441,6.921343,-0.8790041,-0.02399696,-0.5018824,-12.36067,20.03906,38.00737,1007.183
25.417990208,-4.629988,-4.833243,5.275944,-0.9615961,-0.04485555,-0.446711,-12.36067,20.03906,38.00737,1007.183
25.450273514,-1.531305,-2.015509,2.899257,-0.9987818,-0.03254928,-0.3537406,-11.61049,19.67784,38.87241,1007.183
25.485039711,-2.956699,1.624063,-0.6353043,-0.9113176,-0.03498079,-0.4312931,-11.98525,19.6762,38.4422,1007.183
25.517323017,0.8236944,-1.428482,1.314798,-0.889945,-0.07996627,-0.443681,-11.98525,19.6762,38.4422,1007.183
25.549606323,-1.469331,-3.483079,1.863265,-0.9011698,-0.02129693,-0.4002972,-12.34604,18.58664,38.46156,1007.185
25.584372520,-3.018672,-2.132915,2.411731,-0.9256605,-0.083212,-0.3715901,-11.97194,18.9528,38.88716,1007.185
25.616655826,-3.638409,0.3913045,3.20396,-0.9733284,0.01029223,-0.4425046,-11.97194,18.9528,38.88716,1007.185
25.651422501,0.8856681,-0.1957233,3.447723,-0.9692274,-0.07864784,-0.4159466,-11.98459,19.31168,38.44682,1007.185
25.683705807,-1.469331,-0.07831774,4.422774,-0.9456344,-0.03648322,-0.417208,-11.98392,18.94716,38.45143,1007.185
25.718472004,-8.658277,-2.778646,6.433817,-0.9030089,-0.06439994,-0.4087567,-11.98392,18.94716,38.45143,1007.185
25.750755310,-11.63301,-3.541782,7.896394,-0.9180768,-0.02420629,-0.3877079,-11.62049,18.57866,38.45053,1007.185
25.783039093,-8.286434,-3.130862,7.835454,-0.8983957,0.02167617,-0.4309988,-11.9826,18.21813,38.46067,1007.183
25.817805767,1.009615,-3.835296,7.286987,-0.9306141,-0.04168987,-0.3955153,-11.9826,18.21813,38.46067,1007.183
25.850088596,-3.266567,-3.835296,6.982284,-0.9297225,-0.009747824,-0.3953356,-11.61983,18.21414,38.45515,1007.183
25.884855270,-5.311698,-1.956807,5.946292,-0.9897643,0.02003846,-0.4085731,-11.2697,18.56903,38.00929,1007.183
25.917138576,-1.593278,-0.8414539,5.76347,-0.9281994,-0.03143365,-0.3698399,-11.2697,18.56903,38.00929,1007.183
25.951904774,-5.807487,-0.1957233,3.20396,-0.8674798,0.04704687,-0.3961136,-11.63115,17.84399,38.02404,1007.183
25.984188080,-2.213015,2.974227,-0.3915415,-0.9514316,-0.01106689,-0.3377671,-12.00591,17.84235,37.59383,1007.183
26.016471386,4.666061,8.31618,-0.02589725,-0.9747753,0.02300945,-0.4013369,-11.25705,18.21015,38.44963,1007.183
26.051237583,6.773166,4.383093,-1.427534,-0.9627239,0.01213878,-0.477808,-11.25705,18.21015,38.44963,1007.185
26.083520889,-2.027094,-0.6653455,0.5225691,-0.9132009,-0.04552628,-0.3999256,-12.34406,17.49309,38.47541,1007.186
26.118287563,-9.711828,-1.839401,1.680442,-0.9177508,0.03231645,-0.4163935,-11.63181,18.20851,38.01942,1007.186
26.150571346,-1.531305,-1.311076,3.082079,-0.9325811,-0.02814868,-0.3964009,-11.63181,18.20851,38.01942,1007.186
26.182854652,-0.4777525,-0.4892372,3.935249,-0.8862876,0.01885958,-0.4155709,-11.98128,17.4891,38.4699,1007.186
26.217620849,-0.2298578,1.154441,1.924205,-0.9297565,0.0140564,-0.3681276,-11.26771,17.47549,38.02314,1007.188
26.249904156,5.905534,5.557149,2.777375,-0.9582863,0.006642202,-0.389863,-11.26771,17.47549,38.02314,1007.186
26.284670830,6.525271,4.08958,3.447723,-0.9428495,-0.0007952609,-0.4556862,-11.25572,17.48112,38.45887,1007.186
26.316953659,-0.1059105,1.389252,1.253857,-0.9370068,0.005740085,-0.3884637,-11.96929,17.49474,38.90562,1007.188
26.351720333,-0.9735417,4.08958,-0.2696601,-0.9622445,0.03655609,-0.4128895,-11.96929,17.49474,38.90562,1007.186
26.384003639,8.446454,6.907313,1.010095,-0.9297315,-0.0136946,-0.4175962,-11.61916,17.84963,38.45977,1007.188
26.416286468,9.500007,6.496393,-0.5134229,-0.9105148,0.04008495,-0.4149146,-11.60652,17.49075,38.90011,1007.19
26.451053142,3.426588,7.024718,-1.305652,-0.9375465,0.02407557,-0.4038283,-11.60652,17.49075,38.90011,1007.19
26.483336449,5.099877,8.96191,-0.02589725,-0.9562845,-0.02923342,-0.4108591,-11.60652,17.49075,38.90011,1007.19
26.518103599,9.623954,12.19056,0.6444505,-0.9907802,0.0261859,-0.4501117,-11.6185,17.48511,38.46438,1007.186
26.550386429,10.55356,9.431533,2.107028,-0.9051195,-0.011383,-0.4703309,-11.6185,17.48511,38.46438,1007.192
26.585153103,2.311062,6.202879,6.129114,-0.8750215,-0.05723119,-0.4590539,-12.32141,18.23339,39.33764,1007.192
26.617436409,-7.790645,7.553043,11.24813,-0.8880848,-0.02993428,-0.3897388,-12.33339,18.22775,38.90191,1007.192
26.649719715,-10.45551,9.196722,13.68576,-0.8963829,-0.01562011,-0.4428178,-12.33339,18.22775,38.90191,1007.192
26.684485912,-11.07525,8.96191,17.15938,-0.8660191,0.02705761,-0.4411903,-11.96996,17.85925,38.90101,1007.192
26.716769218,-9.89775,11.48613,18.25631,-0.9269431,0.0220081,-0.4517233,-12.30942,18.23902,39.77336,1007.192
26.751535892,-9.40196,11.13391,22.2784,-0.8592414,0.001210896,-0.5056491,-12.30942,18.23902,39.77336,1007.19
26.783818722,4.356193,15.24311,20.45018,-0.9328246,0.03241517,-0.5173991,-12.29678,17.88014,40.2137,1007.19
26.818585396,17.92842,12.895,21.9737,-0.8827401,0.1167412,-0.5233123,-12.64625,17.16073,40.66418,1007.192
26.850869179,22.32855,11.72094,17.46408,-0.8449422,0.0883546,-0.5066348,-12.63227,16.07282,41.11375,1007.192
26.883152485,18.92,13.18851,11.37002,-0.8720898,0.1353919,-0.4550644,-12.63227,16.07282,41.11375,1007.192
26.917918682,10.86343,9.607641,7.774513,-0.8541005,0.1001769,-0.4374161,-12.64492,16.4317,40.67341,1007.192
26.950201988,3.364614,8.727099,4.9103,-0.8913354,0.1137449,-0.4005174,-12.63426,17.16637,41.0999,1007.192
26.984968662,-8.472356,5.146229,4.300893,-0.8714763,0.06067661,-0.5120528,-12.63426,17.16637,41.0999,1007.19
27.017251492,-6.613145,2.093685,5.032181,-0.8937614,0.06434849,-0.5521092,-12.64558,16.79622,40.66879,1007.19
27.049534797,-9.463934,-1.076265,5.580647,-0.8885725,0.1185555,-0.5542294,-12.6336,16.80185,41.10452,1007.19
27.084301471,-10.76538,-1.721996,2.167968,-0.8686903,0.1041877,-0.526798,-12.6336,16.80185,41.10452,1007.19
27.116584301,-2.151041,1.095738,2.594553,-0.8502274,0.09629846,-0.4427644,-12.99571,16.44133,41.11465,1007.19
27.151350975,-1.903147,4.265688,4.239952,-0.8762121,0.02393664,-0.4967815,-12.63227,16.07282,41.11375,1007.188
27.183634281,3.240667,-1.076265,5.154063,-0.9263918,0.1561384,-0.5703712,-12.63227,16.07282,41.11375,1007.188
27.218401432,14.4579,6.144176,2.167968,-0.8329843,0.1313392,-0.5417072,-12.63227,16.07282,41.11375,1007.188
27.250684738,31.68658,12.895,1.863265,-0.8753495,0.06895295,-0.4941102,-12.59527,16.45505,42.47856,1007.186
27.282967567,45.69263,21.81782,0.4616284,-0.9587782,0.1800368,-0.4879809,-12.59527,16.45505,42.47856,1007.186
27.317734241,68.99472,31.50377,5.519707,-1.115574,0.1468093,-0.735836,-12.62161,16.80749,41.54025,1007.185
27.350017547,85.47971,42.65731,11.24813,-0.9938174,0.1584853,-0.8206338,-11.85971,17.54625,42.88942,1007.183
27.384783745,64.78052,31.62118,25.8739,-1.079274,0.1133384,-0.7902496,-11.85971,17.54625,42.88942,1007.18
27.417067051,18.11435,21.34819,26.36143,-1.093358,-0.04425902,-0.7306855,-12.23778,19.36718,42.43612,1007.174
27.451833725,-62.9472,15.65403,26.54425,-0.9311132,-0.1038169,-0.5926269,-12.96532,20.46871,42.4333,1007.173
27.484116554,-83.27456,10.8991,20.02359,-0.8746702,-0.38949,-0.4014809,-12.96532,20.46871,42.4333,1007.173
27.516399860,-51.72997,3.796066,-13.55473,-1.038115,-0.5555956,-0.2986172,-13.2795,20.13072,44.18634,1007.173
27.551167011,-56.00615,-38.58734,-71.87498,-1.194257,-0.2617301,0.0132744,-13.60169,17.6,45.53135,1007.173
27.583450317,-23.71788,-65.70802,-109.902,-1.325734,-0.2130433,0.211561,-13.60169,17.6,45.53135,1007.173
27.618216514,-81.2914,-9.00114,-169.502,-0.943755,0.2433032,0.3192056,-12.50137,17.59367,45.95053,1007.173
27.650499821,-240.4398,-42.81394,-205.3961,-1.617105,0.450845,-0.5580215,-7.395878,16.09104,46.76323,1007.173
27.682783127,-358.9954,-123.0606,-218.1936,-0.5670946,-0.1983976,-0.3928388,-7.395878,16.09104,46.76323,1007.173
27.717549801,-196.1286,-85.19734,-206.0055,-0.3945244,-0.3793836,-0.3956901,-6.269607,15.00243,48.06771,1007.173
27.749832630,7.950665,-30.31025,-172.2443,-0.2291989,-0.1597406,-0.4097842,-5.194662,9.14694,47.25357,1007.171
27.784599304,118.8215,-69.81721,-96.86068,-0.4584721,0.1080246,-0.3125301,-4.479109,8.039782,46.82066,1007.169
27.816882610,144.4786,-85.49086,-30.55719,-0.5505851,0.2592358,-0.1674071,-4.479109,8.039782,46.82066,1007.169
27.851648807,100.4154,-37.53069,40.01214,-0.6680048,0.4053039,-0.2335214,-4.194859,11.64714,44.15462,1007.167
27.883932590,25.11737,-37.7655,41.71848,-1.101777,0.1982487,-0.2763065,-3.538221,15.61986,41.85194,1007.167
27.916215897,-104.1597,-34.36074,45.67963,-1.020858,0.3609204,0.3915895,-3.538221,15.61986,41.85194,1007.167
27.950982571,-199.1653,10.72299,61.76797,-1.587493,0.5441635,-1.320904,-2.451213,16.33693,41.82616,1007.167
27.983265400,-182.7423,-48.03849,63.65714,-1.628804,0.2666844,-1.1996,-0.8720504,13.06865,44.0856,1007.167
28.050315380,-0.8495944,-50.3279,5.885351,-1.128423,-0.1777312,-0.245513,1.645323,5.368991,42.83675,1007.169
28.085081577,27.47237,-35.7109,-9.77641,-1.021013,-0.009109115,-0.2723418,2.326243,3.515898,41.10588,1007.171
28.117364883,19.47777,-41.17026,-7.704426,-0.9867154,-0.1332254,-0.08409686,2.326243,3.515898,41.10588,1007.171
28.149648189,2.620931,-39.8788,1.43668,-1.002988,-0.03733619,-0.1918068,2.673339,4.599016,40.58855,1007.171
28.184414387,2.682904,-37.23717,-3.011992,-1.064075,-0.1441635,-0.1047802,2.999497,4.94264,39.27124,1007.173
28.216698646,10.86343,-29.42971,-0.5743636,-0.9243595,-0.08475816,0.02820212,2.999497,4.94264,39.27124,1007.174
28.251464844,3.488562,-15.34104,9.176149,-0.9900592,-0.135509,-0.04107658,2.964203,4.561221,37.96867,1007.176
28.283748150,-7.604723,-12.87552,15.33116,-1.012402,-0.1149733,-0.1027918,2.962219,5.654768,37.95482,1007.178
28.318514824,-4.196172,-6.88784,22.70498,-0.9735938,-0.1456212,-0.04020268,2.962219,5.654768,37.95482,1007.178
28.350797653,0.8236944,0.50871,27.33648,-1.001291,-0.08371127,-0.02625469,3.30301,4.545963,37.0917,1007.178
28.383080959,-1.717226,4.265688,27.88494,-1.009219,-0.02050747,-0.07567243,3.666448,4.177459,37.09081,1007.18
28.417847633,-5.063804,4.148282,25.08167,-1.033421,-0.01775001,-0.09832621,3.666448,4.177459,37.09081,1007.18
28.450130463,-8.844197,6.555096,18.01255,-0.9833516,0.1080523,-0.002964825,2.918908,3.08062,36.24422,1007.183
28.484897137,-13.86406,8.433585,11.85754,-1.019981,0.02976939,-0.08164807,2.907584,2.710468,35.81311,1007.183
28.517180443,-13.86406,7.787855,4.666537,-1.023868,0.04678429,-0.05543725,2.907584,2.710468,35.81311,1007.183
28.549464226,-19.50367,7.963964,4.788418,-0.9730452,0.03150105,-0.03871333,2.933539,1.628191,36.69842,1007.185
28.584230423,-30.59695,9.490235,6.068173,-1.028651,-0.007744041,-0.1485572,2.558777,1.626545,36.2682,1007.183
28.616513729,-32.88998,14.06905,2.777375,-1.021897,0.03032805,-0.05795226,2.558777,1.626545,36.2682,1007.183
28.651280403,-38.21971,20.52636,8.018276,-0.969106,0.00932675,-0.01660972,2.197323,0.9015017,36.28295,1007.183
28.683563709,-40.63668,24.22463,8.993327,-1.023886,0.00859395,-0.1866663,2.937508,-0.5589037,36.72612,1007.183
28.718329906,-31.77445,23.28539,8.505802,-0.983736,-0.01223947,-0.2279635,2.938831,-1.287935,36.73535,1007.183
28.750613213,-27.74616,26.45534,10.09026,-0.9894974,-0.02039275,-0.2014084,2.938831,-1.287935,36.73535,1007.183
28.782896519,-21.61077,25.39869,11.06531,-0.9970078,0.09482375,-0.1823664,2.953463,-2.740364,37.18954,1007.181
28.817662716,-10.76538,26.80755,10.33402,-0.954228,-0.01064111,-0.2096474,1.866455,-3.45743,37.21531,1007.183
28.849946499,-5.187751,34.67373,19.84077,-1.044619,-0.01809631,-0.1911243,1.866455,-3.45743,37.21531,1007.183
28.884713173,-19.99946,30.74064,23.9238,-0.9631675,0.07143151,-0.2594391,1.891087,-3.810677,38.09138,1007.183
28.916996479,-36.98024,33.26486,23.86286,-0.9913513,0.1162256,-0.2977987,1.540957,-4.165569,38.53724,1007.183
28.951762676,-62.88523,28.27512,23.25345,-1.030405,0.1019234,-0.2011081,1.540957,-4.165569,38.53724,1007.183
28.984045982,-97.71442,26.33793,0.7053912,-0.9980142,0.1063861,-0.1968016,1.179503,-4.890612,38.55199,1007.183
29.016329288,-168.9841,28.68604,-6.363731,-1.050228,0.2811714,-0.269178,0.7974963,-7.510256,37.71913,1007.183
29.051095485,-224.0787,10.25337,-8.191952,-1.107125,0.1946953,-0.3207915,0.7974963,-7.510256,37.71913,1007.183
29.083378792,-201.3344,-2.954754,-23.18337,-1.031957,-0.1066251,-0.3362031,-0.0179863,-10.828,34.28589,1007.181
29.118145466,-115.067,-9.00114,-57.24922,-1.229468,-0.6249903,-0.3367911,0.2198393,-15.63348,29.48514,1007.181
29.150428772,-24.46156,-4.77454,-63.52612,-1.072491,-0.5568532,-0.3551126,0.2198393,-15.63348,29.48514,1007.181
29.185195923,41.85026,-9.646871,-71.1437,-1.019998,-0.4276008,-0.2432999,0.5026882,-17.864,26.45723,1007.181
29.217478752,58.02539,-14.75401,-85.28194,-1.029498,-0.266686,-0.1606634,1.263536,-17.49056,27.74877,1007.181
29.249762058,38.75158,-15.92807,-98.07949,-1.044508,-0.2291813,-0.07629944,1.263536,-17.49056,27.74877,1007.181
29.284528732,14.95369,-20.27208,-103.2595,-1.068768,-0.2090696,-0.1186754,2.40584,-14.19371,29.86931,1007.18
29.316811561,12.28882,-24.90959,-104.4783,-1.0421,-0.2155343,-0.0496379,3.48491,-9.102454,29.78814,1007.181
29.351578235,19.60171,-28.25565,-98.38419,-1.042496,-0.03978965,-0.02543272,3.48491,-9.102454,29.78814,1007.181
29.383861542,26.10895,-29.3123,-79.00505,-0.9902093,0.09936063,-0.1344948,4.213078,-3.940823,30.14744,1007.181
29.416144371,59.07894,-26.31846,-47.62059,-0.9030553,0.3985727,-0.3075027,5.272146,-1.047931,29.22252,1007.181
29.450911045,77.60906,-11.99498,11.73566,-0.7769691,0.9768824,-0.5505565,5.272146,-1.047931,29.22252,1007.18
29.483194351,66.57775,-0.01961496,80.3549,-0.8523049,1.033267,-0.2701625,4.528653,2.235053,28.75628,1007.181
29.517961502,-25.57709,4.148282,50.00642,-1.976678,-0.1419806,0.3119895,5.216266,3.303719,27.42422,1007.181
29.550244331,-74.90812,-59.60294,29.59129,-1.073544,0.01052743,-0.002358082,5.193619,2.563418,26.562,1007.181
29.585011005,-38.83945,-19.09802,29.22564,-0.7590202,-0.2925496,-0.02458021,5.193619,2.563418,26.562,1007.177
29.617294311,4.232245,-15.22363,31.1148,-1.190323,-0.3801933,-0.2470142,4.036684,0.718998,23.98726,1007.177
29.649577618,34.78526,-20.09597,22.76593,-0.9639556,-0.1765151,-0.1685104,5.104352,-1.126815,23.12234,1007.176
29.684343815,36.45855,-14.34309,17.64691,-1.055096,0.005509009,0.07202318,5.104352,-1.126815,23.12234,1007.176
29.716627121,14.51987,-14.87142,10.02932,-1.029193,0.1200431,0.1470681,4.368135,-1.853504,22.70688,1007.174
29.751393795,-5.435646,-11.58406,3.752427,-0.9752102,-0.0402705,0.0614385,5.457127,-2.229986,22.69495,1007.176
29.783676624,-5.249724,-10.17519,3.874308,-1.019966,-0.1582574,-0.01696954,5.457127,-2.229986,22.69495,1007.176
29.818443775,6.029482,-10.11649,3.20396,-1.028234,-0.138932,-0.01925903,4.708264,-2.597794,21.83914,1007.176
29.850727081,11.85501,-7.827084,-2.158822,-0.987305,-0.042285,0.04840026,5.422494,-2.975921,21.397,1007.176
29.883010387,9.190138,-5.537676,-6.424672,-1.016282,-0.04564079,0.08228435,5.422494,-2.975921,21.397,1007.181
29.917776585,3.302641,-3.013457,-6.668434,-0.9939122,-0.1041817,0.06740011,5.059056,-2.607417,21.3979,1007.181
29.950059891,3.612509,-1.839401,-5.144917,-1.016135,-0.1329903,0.01023844,5.409186,-2.252524,20.95204,1007.181
29.984826565,7.02106,-1.369779,-6.180909,-1.018158,-0.09280688,0.01723942,5.409186,-2.252524,20.95204,1007.179
30.017109394,6.029482,-1.780698,-5.876205,-0.9948848,-0.09834291,0.07758762,5.760639,-2.626663,20.51541,1007.179
30.051876068,0.08001049,1.095738,-1.183771,-0.9759249,-0.1486896,0.05598919,5.047071,-2.613051,20.96217,1007.179
30.084159374,1.319484,1.389252,0.7663319,-1.035465,-0.1447271,-0.009607621,5.047071,-2.613051,20.96217,1007.181
30.116443157,5.65764,0.6848184,2.411731,-0.9996458,-0.1474039,0.0270413,5.05641,-1.149354,21.37943,1007.182
30.151209831,2.992773,1.330549,1.314798,-1.00173,-0.07228582,0.06131362,5.443819,-1.506589,22.24999,1007.182
30.183492660,-1.159463,2.328496,-1.061889,-1.021594,-0.05833478,0.05370073,5.443819,-1.506589,22.24999,1007.186
30.218259334,0.01803683,2.152388,-3.74328,-0.9992574,-0.1052827,0.03259779,5.419848,-1.517858,21.37854,1007.186
30.250542641,2.001194,3.737363,-2.82917,-1.011729,-0.1523007,0.02027136,5.420509,-1.882374,21.38315,1007.188
30.282825470,1.195536,3.209038,-3.804221,-1.022965,-0.1044317,0.01815056,5.420509,-1.882374,21.38315,1007.184
30.317592144,4.418167,1.389252,-6.363731,-0.9964132,-0.07863376,0.03999477,5.431833,-1.512223,21.81426,1007.184
30.349875450,4.790009,0.09779059,-5.876205,-1.013172,-0.1527642,0.02752342,4.718265,-1.498612,22.26102,1007.19
30.384641647,1.505405,-1.721996,-4.53551,-1.031634,-0.1219026,0.01081833,5.431833,-1.512223,21.81426,1007.19
30.416925430,-3.700383,-5.889893,-6.119968,-1.035546,-0.1069479,0.0002761388,5.431833,-1.512223,21.81426,1007.192
30.451692104,-5.435646,-5.596379,-3.560458,-0.9730381,-0.1379907,0.06909664,5.817258,-0.7759109,22.67097,1007.189
30.483975410,-9.525908,-5.009351,-0.8181264,-1.006814,-0.1817688,0.03121231,5.055748,-0.7848377,21.37482,1007.191
30.516258716,-0.5397261,-5.302865,-1.671296,-1.011783,-0.1276039,0.02524629,5.055748,-0.7848377,21.37482,1007.191
30.551024914,6.773166,-5.478973,-5.266798,-1.008942,-0.09754619,0.03894735,5.405217,-0.06542921,20.92435,1007.191
30.583308220,1.25751,-5.009351,-7.521604,-1.005035,-0.1056866,0.06113083,5.418525,-0.7888265,21.3693,1007.193
30.618074417,-6.117356,-6.007298,-6.241849,-0.9996029,-0.1638411,0.03178214,5.418525,-0.7888265,21.3693,1007.193
30.650357723,-4.258146,-7.298759,-5.44962,-1.002017,-0.1569894,0.05648167,5.768655,-0.4339333,20.92345,1007.193
30.685124397,-1.469331,-5.83119,-4.047984,-0.9918021,-0.1777251,0.0693946,5.756008,-0.07505226,20.4831,1007.193
30.717408180,-3.762357,-5.713785,-4.108925,-1.001142,-0.1226752,0.04265517,5.756008,-0.07505226,20.4831,1007.193
30.749691486,-5.559593,-6.066001,-3.865162,-1.012611,-0.1685686,0.07577621,5.768655,-0.4339333,20.92345,1007.193
30.784457684,-5.68354,-6.242109,-2.951051,-0.9826671,-0.156903,0.06562579,6.095476,-0.4548259,19.61075,1007.191
30.816740990,-3.886304,-4.011404,0.2788063,-0.9941655,-0.197542,0.07847235,6.095476,-0.4548259,19.61075,1007.189
30.851507664,-1.345384,-2.778646,0.4006877,-1.008824,-0.1356635,0.07208764,5.007146,-0.4428601,19.6273,1007.191
30.883790493,-0.9735417,-3.189565,-2.03694,-0.9981635,-0.1423819,0.07976148,5.744023,-0.08068657,20.04738,1007.191
30.918557167,-3.080646,-2.485132,-1.061889,-0.9975981,-0.1796692,0.07181323,5.744023,-0.08068657,20.04738,1007.191
30.950840473,-3.576436,-2.954754,0.2178656,-0.9990233,-0.1971603,0.0523793,5.731376,0.2781944,19.60703,1007.191
30.983123302,0.6997471,-3.306971,1.619502,-0.9976326,-0.1666179,0.06753656,5.006485,-0.07834435,19.62268,1007.197
31.017890453,1.071589,-3.07216,2.167968,-0.9966819,-0.1544661,0.0825902,5.006485,-0.07834435,19.62268,1007.197
31.050173759,-1.035515,-2.426429,2.960197,-0.999571,-0.1602881,0.08062958,5.370584,-0.8113647,19.6264,1007.197
31.084940433,0.2659315,-2.837348,4.483715,-0.9951822,-0.178204,0.07375011,5.732038,-0.08632135,19.61165,1007.197
31.117223739,1.319484,-2.309023,5.885351,-0.9971611,-0.1554272,0.08500297,5.732038,-0.08632135,19.61165,1007.197
31.149506569,0.6377735,-1.839401,5.702529,-1.007819,-0.1477213,0.08313599,5.359261,-1.181515,19.19529,1007.197
31.184273243,1.753299,-1.369779,6.129114,-0.9995797,-0.1559262,0.08258814,5.721375,-0.8209877,19.18515,1007.197
31.216556549,3.054746,-1.017562,6.007233,-1.000153,-0.1147642,0.09152533,5.721375,-0.8209877,19.18515,1007.197
31.251322746,0.6997471,-1.076265,4.361834,-0.9996378,-0.127824,0.09290028,5.359261,-1.181515,19.19529,1007.197
31.283606052,-1.28341,-0.9588594,3.386782,-1.003035,-0.1278861,0.0774372,5.358599,-0.8169994,19.19067,1007.199
31.318373203,1.691326,-0.4305344,2.533612,-1.001059,-0.1394342,0.09525452,5.73336,-0.8153529,19.62088,1007.2
31.350656509,0.5138261,1.037035,3.082079,-0.9914386,-0.1210468,0.08663644,5.73336,-0.8153529,19.62088,1007.2
31.382939339,-0.2298578,1.154441,2.107028,-1.005944,-0.1235259,0.08133578,6.05847,-0.8370504,18.24594,1007.2
31.417706013,2.125141,2.445902,-0.8790671,-1.004508,-0.1103918,0.1002615,5.709001,-1.556458,18.69641,1007.202
31.449989319,0.4518524,3.443849,-3.072932,-1.00354,-0.1152709,0.08766224,5.709001,-1.556458,18.69641,1007.2
31.484755516,-0.1059105,4.148282,-4.108925,-0.9986641,-0.1341467,0.08271001,5.359261,-1.181515,19.19529,1007.2
31.517038822,0.1419841,5.322338,-3.072932,-0.9956881,-0.1660809,0.08155514,5.734022,-1.179869,19.6255,1007.202
31.551805496,0.9476417,5.381041,-2.219763,-1.005466,-0.1274565,0.06342516,5.734022,-1.179869,19.6255,1007.204
31.584088802,2.063168,6.026771,-3.682339,-1.007378,-0.128348,0.08759616,6.096799,-1.183857,19.61998,1007.204
31.616372585,0.5757998,6.202879,-4.53551,-1.001107,-0.1283939,0.06872827,5.371246,-1.17588,19.63101,1007.202
31.651138782,0.7617208,6.026771,-4.291747,-1.002006,-0.1559692,0.07195749,5.371246,-1.17588,19.63101,1007.202
31.683422089,0.8856681,5.028824,-3.621399,-1.004476,-0.1425112,0.04690052,5.383231,-1.170246,20.06674,1007.202
31.718188763,0.2659315,3.091632,-3.072932,-1.006367,-0.1574842,0.05697167,5.75667,-0.439568,20.48772,1007.204
31.750471592,-0.9115681,1.506657,-2.03694,-1.011219,-0.1551226,0.04394271,5.75667,-0.439568,20.48772,1007.204
31.782754898,-0.9735417,-0.3718316,-0.6353043,-1.001512,-0.1656955,0.05739796,5.381908,-0.4412146,20.05751,1007.204
31.817521572,-4.134199,-1.487184,1.985146,-0.9947681,-0.1564995,0.05211788,5.769317,-0.798449,20.92806,1007.205
31.849804401,-2.894725,-1.252373,2.838316,-1.009259,-0.1603846,0.06034548,5.769317,-0.798449,20.92806,1007.207
31.884571075,-0.2298578,-0.3718316,4.788418,-0.9927973,-0.1675817,0.06462003,5.744023,-0.08068657,20.04738,1007.207
31.916854858,-0.9115681,-0.3131289,5.946292,-1.003029,-0.1395871,0.05174841,5.394555,-0.8000956,20.49785,1007.207
31.951621532,-3.080646,-0.8414539,5.641588,-1.003,-0.145332,0.07008635,5.394555,-0.8000956,20.49785,1007.213
31.983904839,-1.097489,0.2151961,3.935249,-1.010326,-0.1182905,0.05913681,5.01847,-0.07271004,20.05841,1007.209
32.016187668,1.381457,0.1564934,1.071035,-1.009337,-0.1221034,0.07554992,5.758655,-1.533115,20.50157,1007.207
32.050954342,0.6997471,1.095738,0.6444505,-0.9991676,-0.1322762,0.06386763,5.758655,-1.533115,20.50157,1007.207
32.083237648,-0.9115681,0.9196295,-0.5743636,-1.013211,-0.1245833,0.061041,5.382569,-0.8057299,20.06212,1007.207
32.118003845,1.009615,1.213143,-0.9400079,-1.005447,-0.135685,0.0628949,6.121431,-1.537104,20.49605,1007.207
32.150287151,0.5138261,0.4500073,-0.8181264,-1.004471,-0.1415123,0.05609152,6.121431,-1.537104,20.49605,1007.209
32.185054302,-1.593278,0.7435212,-0.9400079,-1.003517,-0.1337421,0.06338523,5.383231,-1.170246,20.06674,1007.211
32.217337608,0.3898788,0.6261156,-1.12283,-1.002527,-0.1473286,0.05170332,5.746008,-1.174234,20.06122,1007.213
32.249620437,1.691326,0.8609267,-0.6353043,-0.9996316,-0.1434358,0.05558671,5.758655,-1.533115,20.50157,1007.213
32.284387111,-0.3538052,0.50871,0.4006877,-1.0074,-0.1338137,0.04550596,5.758655,-1.533115,20.50157,1007.215
32.316670418,-1.469331,0.4500073,0.8882133,-1.004485,-0.1337498,0.06193695,5.394555,-0.8000956,20.49785,1007.215
32.351436615,-2.584857,0.3326017,2.046087,-0.9976851,-0.1521754,0.04538062,5.73336,-0.8153529,19.62088,1007.215
32.383719921,-0.6636735,1.624063,1.802324,-1.00885,-0.1235571,0.07457372,5.73336,-0.8153529,19.62088,1007.215
32.418486595,1.815273,2.211091,0.8272726,-1.001115,-0.1294044,0.05615313,5.395216,-1.164611,20.50247,1007.215
32.450769424,0.2659315,2.211091,0.4616284,-1.008398,-0.1168446,0.0557568,5.757993,-1.1686,20.49695,1007.213
32.483053684,-2.956699,1.506657,0.2178656,-1.007867,-0.1366827,0.0561263,5.757993,-1.1686,20.49695,1007.213
32.517819881,-3.018672,1.976279,-0.3306008,-1.00352,-0.1361994,0.05225217,5.382569,-0.8057299,20.06212,1007.213
32.550103187,-0.4777525,1.56536,-1.488474,-1.002076,-0.1303603,0.06050072,5.769979,-1.162965,20.93268,1007.211
32.584869862,1.009615,1.56536,-1.854118,-1.003506,-0.1429842,0.04931293,5.769979,-1.162965,20.93268,1007.207
32.617152691,-0.7256471,0.7435212,-0.4524822,-1.008827,-0.1454502,0.04012504,5.03244,-1.160623,20.50798,1007.207
32.649435997,-2.522883,0.6848184,1.43668,-1.005421,-0.1536608,0.04200478,5.769979,-1.162965,20.93268,1007.211
32.684202671,-0.8495944,0.3913045,1.010095,-1.00836,-0.1337887,0.05372662,5.769979,-1.162965,20.93268,1007.213
32.716485500,1.381457,0.802224,0.2788063,-1.004979,-0.1308639,0.05712004,5.031778,-0.7961068,20.50336,1007.209
32.751252651,-1.531305,0.3326017,1.253857,-1.000652,-0.129001,0.0319825,5.769979,-1.162965,20.93268,1007.209
32.783535957,-1.655252,-0.54794,1.071035,-1.010256,-0.1531825,0.04443511,5.769979,-1.162965,20.93268,1007.209
32.818302631,1.071589,0.6848184,1.314798,-1.004042,-0.1173014,0.06009577,5.757993,-1.1686,20.49695,1007.207
32.850585461,-0.9115681,1.213143,1.43668,-1.002076,-0.1352471,0.04645321,5.045086,-1.519504,20.94832,1007.207
32.882868767,-0.6636735,1.858874,1.43668,-1.005926,-0.1410456,0.0522298,5.045086,-1.519504,20.94832,1007.207
32.917635441,0.8856681,1.447954,1.253857,-1.00646,-0.1256186,0.03539832,5.757993,-1.1686,20.49695,1007.207
32.949918747,0.1419841,1.271846,-0.9400079,-1.012294,-0.1052398,0.05631462,5.395878,-1.529127,20.50708,1007.207
32.984684944,-2.089068,0.9783323,-2.89011,-1.005507,-0.1183422,0.03978859,5.395878,-1.529127,20.50708,1007.207
33.016968250,-2.089068,0.5674129,-2.89011,-1.005443,-0.1444661,0.0420571,5.40654,-0.7944608,20.93358,1007.211
33.051735401,0.3279051,1.271846,-0.8181264,-1.000088,-0.1589638,0.04341344,5.383893,-1.534761,20.07136,1007.21
33.084018707,0.8236944,1.037035,0.339747,-1.013718,-0.1276127,0.02428353,5.769317,-0.798449,20.92806,1007.204
33.116301536,0.1419841,-0.4892372,1.192917,-1.004486,-0.1405968,0.04062672,5.769317,-0.798449,20.92806,1007.204
33.151068210,-0.7876208,-0.54794,3.325842,-0.9952899,-0.1468862,0.03331956,5.40654,-0.7944608,20.93358,1007.21
33.183351517,-0.6636735,-0.3718316,4.300893,-1.006915,-0.1338075,0.04695527,5.407202,-1.158977,20.93819,1007.21
33.218117714,-0.3538052,0.1564934,3.752427,-1.00114,-0.1231559,0.04361931,5.407202,-1.158977,20.93819,1007.21
33.250401020,2.001194,0.2151961,1.863265,-1.020504,-0.11255,0.04807229,5.758655,-1.533115,20.50157,1007.205
33.285167694,0.7617208,-0.01961496,0.4006877,-1.006974,-0.1110857,0.04031644,5.771301,-1.891996,20.94191,1007.205
33.317451477,-1.407357,-0.1957233,-0.08683795,-1.009821,-0.1313945,0.04745869,5.771301,-1.891996,20.94191,1007.205
33.349734783,0.1419841,0.8609267,0.03504346,-0.9987092,-0.1250487,0.05423896,5.407863,-1.523492,20.94281,1007.204
33.384500980,1.009615,0.802224,0.2788063,-1.01468,-0.1256405,0.03589935,5.045748,-1.884019,20.95294,1007.205
33.416784286,0.08001049,0.50871,0.5835098,-1.005969,-0.1260749,0.04312968,5.045748,-1.884019,20.95294,1007.205
33.451550484,0.2039578,0.3913045,0.09598416,-1.004526,-0.1241465,0.03975347,5.395878,-1.529127,20.50708,1007.205
33.483833790,2.558957,0.4500073,-0.8790671,-1.013257,-0.1159758,0.0306334,5.407863,-1.523492,20.94281,1007.205
33.516117096,1.443431,-0.1957233,-0.3915415,-1.006435,-0.1372427,0.03243154,5.407863,-1.523492,20.94281,1007.207
33.550883770,0.2039578,-2.074212,-0.696245,-1.010375,-0.1145845,0.01033068,5.408525,-1.888008,20.94743,1007.207
33.583167553,-3.82433,-6.300812,-1.610356,-1.046561,-0.161757,-0.02756777,5.769979,-1.162965,20.93268,1007.207
33.617933750,-1.345384,-11.76017,-3.865162,-1.01125,-0.1420565,0.04401707,5.769979,-1.162965,20.93268,1007.207
33.650217056,9.623954,-5.948596,-8.00913,-0.9740666,-0.07032279,0.188893,5.769317,-0.798449,20.92806,1007.207
33.684983730,5.967508,1.56536,-10.38582,-1.004066,-0.1012777,0.0761404,5.746008,-1.174234,20.06122,1007.209
33.717266560,0.4518524,0.1564934,-11.54369,-1.014106,-0.1624013,0.04052347,5.746008,-1.174234,20.06122,1007.209
33.749549866,14.51987,3.737363,-13.85944,-0.9811878,-0.1631326,0.08250754,5.395878,-1.529127,20.50708,1007.209
33.784316540,17.61856,6.261582,-14.1032,-1.014194,-0.1212297,0.05187686,5.757331,-0.8040838,20.49233,1007.209
33.816599369,0.5138261,8.492289,-15.32201,-0.9914861,-0.08899117,0.121143,5.757331,-0.8040838,20.49233,1007.209
33.851366520,-18.51209,21.4656,-6.729375,-1.018467,-0.1492608,0.06622984,5.043102,-0.4259562,20.93448,1007.209
33.883649826,-26.07288,9.842452,-7.399723,-1.094787,-0.2185345,-0.03358793,6.140771,1.025775,21.33519,1007.209
33.918416500,-23.09814,13.30592,-12.03122,-0.9831691,-0.1315697,0.1160485,5.825935,1.052302,23.08362,1007.209
33.950699806,-5.745514,15.1844,-18.49093,-0.992741,-0.2123063,0.00441921,5.825935,1.052302,23.08362,1007.209
33.982982635,-8.844197,12.60148,-13.61567,-1.009679,-0.2187637,-0.03038859,4.761576,1.075537,23.97162,1007.207
34.017749310,-9.649855,14.06905,-6.363731,-0.9328508,-0.1791933,0.01463062,4.760252,1.804568,23.96239,1007.207
34.050032615,9.747901,15.59532,-1.854118,-0.9664853,-0.2961741,-0.06186191,4.760252,1.804568,23.96239,1007.205
34.084798813,-8.162487,10.07726,1.680442,-1.035369,-0.2102999,-0.0815296,5.509115,2.172377,24.81819,1007.207
34.117082596,-15.47538,17.1216,5.275944,-1.056232,-0.1099837,0.1216466,5.509115,2.172377,24.81819,1007.205
34.149365902,2.187115,18.41306,4.605596,-0.959143,-0.3133765,-0.00347946,5.509115,2.172377,24.81819,1007.205
34.184132576,14.33395,12.83629,2.838316,-0.9639931,-0.1844889,-0.2367205,5.147662,1.447333,24.83294,1007.205
34.216415405,7.950665,13.07111,3.143019,-1.085431,-0.07663228,-0.008145873,4.444756,2.195611,25.70619,1007.205
34.251182079,-15.72327,4.911418,-0.5134229,-0.9697722,-0.329985,-0.04029233,4.444756,2.195611,25.70619,1007.205
34.283465385,-8.596303,11.07521,-1.854118,-0.9072964,-0.2067901,-0.153818,5.195603,1.469872,26.57585,1007.207
34.318231582,8.322507,12.13186,-3.926102,-1.167244,-0.01861266,0.04602204,4.833488,1.109344,26.58598,1007.207
34.350514889,-8.472356,4.500499,-8.07007,-0.8751893,-0.2269115,0.02197005,4.833488,1.109344,26.58598,1007.207
34.382798672,-14.35985,7.846558,-9.045121,-0.9707263,-0.2024382,-0.2440596,4.832826,1.473861,26.58136,1007.209
34.417565346,6.711192,6.966016,-10.87334,-1.140213,-0.2415205,-0.06649455,5.206265,2.204537,27.00234,1007.211
34.449848652,2.249089,5.146229,-6.912197,-0.882964,-0.2280686,-0.02733052,5.206265,2.204537,27.00234,1007.211
34.484614849,-10.0217,8.140072,-2.89011,-0.937556,-0.2915499,-0.1498838,4.857847,1.85045,27.51045,1007.211
34.516898155,-2.708804,5.79196,-4.657391,-1.077519,-0.1975637,-0.1432465,5.231948,2.216612,27.93604,1007.209
34.551664829,-2.336962,1.213143,-6.668434,-0.9972557,-0.1484893,-0.009711361,5.231948,2.216612,27.93604,1007.211
34.583947658,-18.14025,5.263635,-4.047984,-0.9027212,-0.2630271,-0.04489051,5.243934,2.222246,28.37177,1007.211
34.616230965,-5.559593,9.138019,-1.793178,-0.979982,-0.3341525,-0.1190945,5.255919,2.22788,28.8075,1007.21
34.650998115,15.44948,10.8991,3.386782,-0.9767623,-0.2600608,-0.1065942,5.255919,2.22788,28.8075,1007.21
34.683281422,6.153429,7.905261,5.397825,-0.9817696,-0.1972589,-0.1342658,4.51838,2.230224,28.3828,1007.21
34.718047619,-6.179329,5.146229,4.300893,-0.988025,-0.2176739,-0.1556397,5.255919,2.22788,28.8075,1007.208
34.750330925,0.4518524,2.563307,-0.5743636,-1.005525,-0.1780334,-0.1529594,5.255919,2.22788,28.8075,1007.208
34.785097599,4.170272,-0.3718316,-4.779273,-0.990042,-0.1613374,-0.09440173,4.1772,2.609191,29.19291,1007.208
34.817380905,-6.179329,0.9196295,-0.08683795,-0.9675309,-0.2622953,-0.05973327,4.530365,2.235858,28.81853,1007.208
34.849663734,-8.100513,2.62201,3.447723,-0.946357,-0.2494632,-0.1467249,4.89248,2.596385,28.8084,1007.208
34.884430408,0.4518524,4.794013,5.093122,-1.026095,-0.2763745,-0.1665271,4.89248,2.596385,28.8084,1007.208
34.916714191,4.48014,3.796066,5.885351,-0.9589359,-0.2358443,-0.1156803,4.543012,1.876976,29.25887,1007.208
34.951480865,-1.903147,2.739416,5.032181,-0.9910182,-0.1750605,-0.1447553,3.80415,2.60835,28.82494,1007.206
34.983763695,-5.125777,-0.07831774,2.472672,-1.003561,-0.1920782,-0.1578779,3.80415,2.60835,28.82494,1007.206
35.018530369,-6.241303,2.093685,2.777375,-1.014638,-0.1987654,-0.122601,3.815084,2.248664,29.20304,1007.206
35.050813675,-4.444067,-0.3131289,-0.696245,-0.9764224,-0.1971274,-0.09995241,4.541299,1.876171,29.19662,1007.206
35.083096504,-4.568014,5.674554,1.192917,-0.9835697,-0.2431328,-0.1035827,4.541299,1.876171,29.19662,1007.206
35.117863178,4.728035,2.211091,-1.610356,-0.982666,-0.2399719,-0.1712481,4.180235,1.880964,29.26439,1007.208
35.150146961,7.51685,0.5674129,-6.059027,-0.9866639,-0.1975168,-0.2062891,4.930421,1.519742,30.12942,1007.208
35.184913635,5.347772,-2.837348,-9.898292,-0.9828802,-0.1431255,-0.1528097,4.930421,1.519742,30.12942,1007.208
35.217196941,0.8236944,-3.71789,-13.49379,-0.9850535,-0.2295919,-0.1049528,4.541299,1.876171,29.19662,1007.208
35.249479770,-0.9115681,-5.537676,-13.67661,-0.9850957,-0.222925,-0.1368217,4.539977,2.605203,29.18739,1007.208
35.284246445,1.133563,-5.772487,-12.7625,-0.9956828,-0.2374045,-0.1165768,4.539977,2.605203,29.18739,1007.21
35.316529751,1.815273,-3.71789,-12.1531,-0.993712,-0.2440888,-0.09148028,4.20117,2.620461,30.06436,1007.21
35.351295948,-5.435646,-1.60459,-14.65167,-1.013206,-0.1978605,-0.1424199,4.915128,3.336686,29.67062,1007.21
35.383579254,-5.249724,-4.950648,-12.39686,-0.9389482,-0.2874026,-0.06718921,4.915128,3.336686,29.67062,1007.21
35.418346405,2.249089,-1.545887,-4.413628,-0.9544218,-0.3123696,-0.1388467,4.914466,3.701202,29.666,1007.208
35.450629711,5.905534,-3.424376,-0.5743636,-0.9994657,-0.2839742,-0.1468067,4.912482,4.794749,29.65215,1007.21
35.482912540,-4.196172,-5.537676,2.655494,-0.9724187,-0.2644807,-0.1293503,4.912482,4.794749,29.65215,1007.21
35.517679214,-10.14564,-5.478973,4.544655,-0.9898081,-0.2551704,-0.08043261,4.550367,4.434222,29.66228,1007.21
35.549962520,-8.162487,-4.891945,6.738521,-0.9205963,-0.2727847,-0.05312592,4.526396,4.422953,28.79083,1007.21
35.584728718,-2.956699,-1.898104,4.483715,-0.9960942,-0.2766892,-0.1419381,4.526396,4.422953,28.79083,1007.21
35.617012024,5.099877,-4.481026,1.558561,-0.9758154,-0.2498791,-0.101704,4.877849,4.048814,28.3542,1007.21
35.651778698,1.319484,-3.776593,1.863265,-1.006332,-0.234551,-0.1223389,4.512699,4.416513,28.29286,1007.21
35.684062481,-2.213015,-6.124704,0.7663319,-0.9883877,-0.2655531,-0.1467258,4.891157,3.325417,28.79916,1007.21
35.716345787,1.381457,-5.537676,1.131976,-0.9578264,-0.2850958,-0.0845392,4.891157,3.325417,28.79916,1007.21
35.751111984,1.877247,-6.242109,1.558561,-1.010196,-0.2296572,-0.1029652,5.965129,3.671528,28.28003,1007.208
35.783395290,-1.035515,-6.711732,-1.305652,-0.98793,-0.2397594,-0.1040375,4.139259,3.685836,27.87188,1007.206
35.818161964,1.133563,-4.77454,-1.793178,-0.9645995,-0.2782877,-0.06901585,4.139259,3.685836,27.87188,1007.205
35.850444794,4.418167,-2.367726,-1.488474,-0.9641877,-0.2394902,-0.04462421,4.514021,3.687482,28.30209,1007.205
35.882728100,1.071589,-1.839401,-2.219763,-0.998074,-0.2285057,-0.05899188,5.215605,3.668235,27.41961,1007.205
35.917495251,0.5138261,-0.54794,-2.463525,-0.9815835,-0.2492644,-0.05817857,5.215605,3.668235,27.41961,1007.206
35.949778557,0.8236944,-1.076265,-1.427534,-0.9549424,-0.2651236,-0.04817395,4.864813,3.677859,27.86085,1007.206
35.984544754,-5.00183,0.6848184,1.314798,-0.9752964,-0.2653684,-0.1032435,5.241288,3.680309,28.3533,1007.205
36.016828060,-2.027094,2.445902,-0.7571857,-0.9805678,-0.2818011,-0.09268992,5.241288,3.680309,28.3533,1007.205
36.051594734,4.728035,3.26774,-2.03694,-0.9902929,-0.2502899,-0.06783441,5.226929,4.038385,27.85072,1007.205
36.083877563,1.25751,1.506657,-5.815264,-0.9879292,-0.2436652,-0.1142119,4.478065,3.670578,26.99491,1007.209
36.116160869,4.046325,0.5674129,-8.07007,-0.9846058,-0.2180106,-0.1150401,4.478065,3.670578,26.99491,1007.209
36.150927543,10.9254,-0.4305344,-9.837351,-0.9877427,-0.3005558,-0.05168879,5.592079,3.670687,27.91206,1007.205
36.183211326,8.508428,-1.311076,-7.826308,-0.9327099,-0.269991,-0.07532211,4.512699,4.416513,28.29286,1007.205
36.217978000,2.682904,-0.3131289,-4.291747,-0.9921618,-0.2817884,-0.07912856,4.512699,4.416513,28.29286,1007.203
36.250260830,2.930799,-1.369779,-1.244711,-0.9524096,-0.3208372,-0.06880061,4.500051,4.775394,27.85251,1007.203
36.285027504,3.488562,0.8609267,4.788418,-0.9495251,-0.3072151,-0.04987527,4.850843,4.765771,27.41127,1007.203
36.317310810,-3.638409,3.209038,7.652631,-0.9859384,-0.2566193,-0.08286639,4.850843,4.765771,27.41127,1007.205
36.349593639,0.4518524,3.091632,9.054268,-0.9838428,-0.3258253,-0.08616503,5.225605,4.767417,27.84148,1007.205
36.384360313,11.66908,2.152388,9.176149,-0.9645959,-0.2914668,-0.1024481,5.225605,4.767417,27.84148,1007.207
36.416644096,8.694348,0.802224,8.018276,-1.003444,-0.2262897,-0.1145632,5.225605,4.767417,27.84148,1007.205
36.451410770,0.6377735,-0.54794,7.713572,-0.9835315,-0.2395537,-0.04700007,4.877188,4.41333,28.34959,1007.205
36.483693600,0.7617208,-0.1370205,7.774513,-0.9834877,-0.2730905,-0.0902169,5.214282,4.397266,27.41037,1007.205
36.518460274,7.702771,-0.7240483,7.165106,-0.9844737,-0.2638872,-0.08677838,4.139259,3.685836,27.87188,1007.205
36.550743580,10.49158,-3.835296,3.813367,-0.9928446,-0.2122466,-0.1207909,4.139259,3.685836,27.87188,1007.205
36.583026886,5.471719,-4.070107,1.192917,-0.9807102,-0.2046927,-0.0439073,5.214943,4.03275,27.41499,1007.205
36.617793083,-0.5397261,-3.659187,0.949154,-0.9762735,-0.2395133,-0.04121422,5.578382,3.664247,27.41409,1007.203
36.650076389,1.25751,-3.248268,-1.000949,-0.9801477,-0.2483448,-0.07364647,5.578382,3.664247,27.41409,1007.203
36.684843540,0.1419841,-2.602537,-1.549415,-1.017933,-0.2140429,-0.0583834,5.204281,3.298084,26.98849,1007.203
36.717126846,-6.613145,-4.070107,1.619502,-0.9490706,-0.2931634,-0.04496197,5.214943,4.03275,27.41499,1007.203
