Time (s),Gyroscope X (deg/s),Gyroscope Y (deg/s),Gyroscope Z (deg/s),Accelerometer X (g),Accelerometer Y (g),Accelerometer Z (g),Magnetometer X (uT),Magnetometer Y (uT),Magnetometer Z (uT),Barometer (hPa)
0.009471893,-1.903702,-0.4508263,0.09742941,-0.02215978,-0.9841909,0.2441526,-5.188847,45.50742,3.873966,1007.709
0.041644573,2.089275,0.2593939,-0.2090057,-0.01867161,-0.9715695,0.2466341,-5.561008,45.51847,4.322182,1007.713
0.076292515,0.6763752,-0.0957162,0.09742941,-0.01749321,-0.9588174,0.2645622,-5.561008,45.51847,4.322182,1007.713
0.108465672,-1.719411,-0.2140862,-0.08643166,-0.01953416,-0.9637244,0.2563468,-5.194368,45.88287,3.425825,1007.713
0.143108845,-1.043676,-0.2732712,-0.08643166,-0.01862511,-0.9671751,0.2500439,-5.561266,45.13734,4.324041,1007.713
0.175282002,0.799236,0.02265382,0.2812904,-0.01763682,-0.9710373,0.2533768,-5.561266,45.13734,4.324041,1007.711
0.209929943,-0.1222202,0.02265382,0.09742941,-0.02149219,-0.9613023,0.2544571,-4.805387,45.1266,4.320175,1007.711
0.242102623,-0.8593851,-0.3324562,0.2812904,-0.01316643,-0.9627671,0.2587053,-5.18859,45.88855,3.872105,1007.711
0.276750564,-1.227968,-0.3324562,0.2812904,-0.02207701,-0.9739608,0.2490561,-5.18859,45.88855,3.872105,1007.711
0.308922767,0.06207109,-0.3324562,-0.08643166,-0.02310368,-0.9744855,0.2432774,-5.183326,45.13197,4.322107,1007.713
0.343566894,1.106388,0.02265382,-0.08643166,-0.0216055,-0.9701096,0.2452275,-5.18859,45.88855,3.872105,1007.713
0.375740051,1.167819,0.08183884,0.2812904,-0.02398644,-0.9685931,0.2515282,-5.18859,45.88855,3.872105,1007.713
0.410387516,0.5535144,-0.2732712,-0.3315798,-0.02152435,-0.9681016,0.2539193,-5.188847,45.50742,3.873966,1007.713
0.442560673,-0.6750939,-0.0957162,-0.2090057,-0.02146762,-0.9651485,0.2592451,-5.183068,45.5131,4.320248,1007.713
0.474732876,-0.4293722,-0.2732712,0.4038645,-0.01957048,-0.9685931,0.254379,-5.183068,45.5131,4.320248,1007.712
0.509380817,0.799236,-0.1549012,0.1587164,-0.02105671,-0.9681225,0.2515047,-5.18859,45.88855,3.872105,1007.714
0.541550159,0.9220968,-0.0957162,-0.08643166,-0.01747912,-0.9563867,0.2650641,-5.194882,45.1206,3.429546,1007.712
0.576198101,-2.640867,-0.2140862,0.1587164,-0.0263594,-0.9641679,0.2573708,-5.194882,45.1206,3.429546,1007.71
0.608370781,-1.719411,-0.6875663,-0.4541538,-0.02222879,-0.9852209,0.2364327,-5.188333,46.26969,3.870245,1007.712
0.643018246,2.457857,0.08183884,-0.2090057,-0.01565877,-0.9676383,0.2548324,-5.18859,45.88855,3.872105,1007.712
0.675190926,0.9220968,-0.2732712,0.09742941,-0.02136865,-0.9539364,0.2656026,-5.18859,45.88855,3.872105,1007.712
0.709838867,-0.6750939,-0.4508263,-0.2090057,-0.01227128,-0.9725168,0.2537965,-5.183068,45.5131,4.320248,1007.714
0.742008209,1.41354,0.3185789,0.2200035,-0.01626204,-0.9769285,0.2456034,-5.188847,45.50742,3.873966,1007.714
0.776655197,2.580718,0.2002089,0.03614238,-0.01564844,-0.9710138,0.2576964,-5.188847,45.50742,3.873966,1007.713
0.808828354,0.6763752,-0.03653119,0.03614238,-0.02476397,-0.9548678,0.2685186,-5.188847,45.50742,3.873966,1007.713
0.843476295,-1.842272,-0.3324562,0.2200035,-0.02251622,-0.9739139,0.2548446,-5.189104,45.12629,3.875826,1007.711
0.875648975,-0.4293722,-0.1549012,-0.08643166,-0.01524374,-0.9715757,0.248048,-5.189104,45.12629,3.875826,1007.715
0.910296917,0.06207109,-0.03653119,-0.08643166,-0.0161083,-0.9642159,0.2577568,-5.189104,45.12629,3.875826,1007.713
0.942465782,-1.166537,-0.2732712,-0.1477187,-0.01563249,-0.9651965,0.2567802,-4.816429,45.87749,3.423891,1007.713
0.977113247,-0.3679418,-0.2732712,-0.08643166,-0.01869188,-0.972555,0.2446981,-5.188847,45.50742,3.873966,1007.711
1.009286404,0.6763752,0.02265382,-0.3315798,-0.009366318,-0.9643316,0.2470889,-5.188847,45.50742,3.873966,1007.711
1.041459084,1.597831,0.3777639,0.03614238,-0.02247212,-0.9622682,0.2544582,-5.561523,44.7562,4.325903,1007.711
1.076107025,-0.552233,-0.03653119,0.09742941,-0.01553533,-0.9583381,0.2650299,-5.183068,45.5131,4.320248,1007.715
1.108280182,-0.6136635,0.2593939,0.3425775,-0.01963318,-0.9739693,0.2495153,-5.183068,45.5131,4.320248,1007.715
1.142923355,1.474971,0.02265382,-0.4541538,-0.02197589,-0.9651645,0.2568397,-5.194368,45.88287,3.425825,1007.714
1.175096512,-1.657981,-0.2732712,-0.1477187,-0.02090503,-0.9549281,0.2631801,-5.18859,45.88855,3.872105,1007.714
1.209744453,-0.6136635,-0.03653119,-0.1477187,-0.02069587,-0.9851655,0.2446129,-5.18859,45.88855,3.872105,1007.712
1.241917133,3.563605,0.08183884,-0.4541538,-0.01226957,-0.9662288,0.2509564,-5.561008,45.51847,4.322182,1007.71
1.276564598,0.06207109,-0.1549012,0.03614238,-0.02133214,-0.9529361,0.2694665,-5.182812,45.89424,4.318386,1007.716
1.308737755,-1.719411,-0.1549012,0.09742941,-0.02204877,-0.9700665,0.250534,-5.182812,45.89424,4.318386,1007.714
1.343381405,0.6763752,0.3777639,0.7715867,-0.01236384,-0.9900095,0.2512432,-4.432711,45.87782,3.868238,1007.714
1.375554561,1.536401,0.3777639,0.2812904,-0.01755386,-0.9646754,0.2601765,-5.566787,45.51279,3.8759,1007.714
1.410202503,0.9220968,-0.03653119,0.1587164,-0.02096773,-0.9603044,0.2583164,-5.566787,45.51279,3.8759,1007.716
1.442374706,0.1235015,-0.1549012,-0.5154408,-0.01752752,-0.9632007,0.2625984,-5.560752,45.8996,4.32032,1007.716
1.477022648,-0.3065114,-0.0957162,-0.08643166,-0.01849306,-0.9675385,0.2659456,-5.572565,45.5071,3.429621,1007.715
1.509195328,-0.1836506,-0.1549012,0.03614238,-0.01658984,-0.970494,0.2615655,-5.572565,45.5071,3.429621,1007.715
1.541364670,0.6149448,0.2593939,0.1587164,-0.017582,-0.9705038,0.2596467,-5.194882,45.1206,3.429546,1007.715
1.576012134,0.3692232,-0.2140862,-0.08643166,-0.01709214,-0.9680867,0.258698,-4.810651,45.88318,3.870171,1007.717
1.608184814,0.6763752,-0.2732712,-0.1477187,-0.01603532,-0.9612481,0.2650106,-4.810651,45.88318,3.870171,1007.717
1.642832756,-1.105107,-0.2140862,0.03614238,-0.02288499,-0.9607467,0.2626686,-4.810651,45.88318,3.870171,1007.715
1.675005913,-0.8593851,0.02265382,0.2812904,-0.02014737,-0.9773757,0.248046,-4.810651,45.88318,3.870171,1007.713
1.709653377,1.597831,0.08183884,-0.2090057,-0.0229519,-0.9632254,0.2559008,-4.810651,45.88318,3.870171,1007.713
1.741822243,-1.903702,0.1410238,0.09742941,-0.02138476,-0.9568525,0.2650967,-5.572565,45.5071,3.429621,1007.713
1.776470184,-1.842272,-0.2140862,-0.08643166,-0.02308532,-0.9759196,0.2461574,-5.566787,45.51279,3.8759,1007.717
1.808642864,2.457857,0.08183884,-0.1477187,-0.01231572,-0.9773929,0.2508648,-5.566787,45.51279,3.8759,1007.717
1.843290806,2.519288,0.1410238,0.09742941,-0.01793863,-0.9563584,0.2684426,-5.561008,45.51847,4.322182,1007.712
1.875463963,-0.982246,-0.3916413,-0.08643166,-0.01941664,-0.9578146,0.2674804,-5.18859,45.88855,3.872105,1007.717
1.910110950,-0.3679418,0.1410238,0.1587164,-0.01865688,-0.9817111,0.2532983,-5.18859,45.88855,3.872105,1007.717
1.942280292,1.044958,0.2593939,0.2812904,-0.0170802,-0.9632401,0.2577739,-5.188847,45.50742,3.873966,1007.717
1.976928234,0.06207109,0.1410238,0.2812904,-0.02541795,-0.9656549,0.2539758,-5.194625,45.50173,3.427687,1007.717
2.009100914,-0.9208155,-0.2140862,-0.1477187,-0.02048931,-0.9724048,0.2630321,-5.194625,45.50173,3.427687,1007.716
2.043748856,-0.7979547,0.02265382,-0.08643166,-0.01270471,-0.9661784,0.2572268,-5.194625,45.50173,3.427687,1007.716
2.075922012,-0.1836506,0.2593939,0.1587164,-0.02147149,-0.9690206,0.2606592,-5.182812,45.89424,4.318386,1007.716
2.108094215,0.4306536,0.02265382,-0.08643166,-0.01707599,-0.9661377,0.259678,-5.182812,45.89424,4.318386,1007.716
2.142738342,-0.7979547,-0.03653119,0.09742941,-0.01945917,-0.9602712,0.2636046,-5.18859,45.88855,3.872105,1007.714
2.174911022,-0.3679418,0.08183884,0.1587164,-0.01376769,-0.9715719,0.2494803,-4.811165,45.12091,3.873894,1007.714
2.209558487,-0.4908026,0.1410238,0.03614238,-0.0243649,-0.9646225,0.2626505,-4.810907,45.50205,3.872032,1007.714
2.241732121,-1.289398,0.08183884,0.4651515,-0.01906808,-0.9729345,0.2581945,-4.810907,45.50205,3.872032,1007.714
2.276379585,0.8606665,0.3185789,-0.2090057,-0.01362991,-0.9646766,0.2625498,-4.805387,45.1266,4.320175,1007.713
2.308552265,-1.903702,-0.4508263,0.2200035,-0.0233124,-0.9529521,0.2661108,-5.18859,45.88855,3.872105,1007.711
2.343196392,-1.965133,-0.3324562,-0.08643166,-0.02312154,-0.9827225,0.2451377,-5.18859,45.88855,3.872105,1007.709
2.375368595,2.212136,0.2002089,-0.3928668,-0.01467464,-0.96957,0.2567352,-4.805129,45.50773,4.318314,1007.707
2.410016537,0.6149448,-0.0957162,0.1587164,-0.02038051,-0.9548973,0.2675135,-4.810651,45.88318,3.870171,1007.706
2.442189693,-1.043676,-0.03653119,-0.08643166,-0.01655573,-0.9622423,0.2616332,-4.810651,45.88318,3.870171,1007.706
2.476837635,-1.105107,0.02265382,0.2200035,-0.0210708,-0.9705531,0.2510028,-5.566787,45.51279,3.8759,1007.704
2.509010315,0.492084,0.3185789,0.4038645,-0.01908018,-0.9748798,0.2576966,-5.188847,45.50742,3.873966,1007.706
2.543653965,-0.4908026,-0.03653119,0.09742941,-0.02149611,-0.9642073,0.2553971,-5.188847,45.50742,3.873966,1007.706
2.575826645,-1.166537,-0.0957162,0.03614238,-0.02099783,-0.9675853,0.2582566,-5.18859,45.88855,3.872105,1007.706
2.607999802,-0.7365243,-0.03653119,-0.08643166,-0.01809438,-0.9695565,0.2562853,-5.555231,45.52415,4.768461,1007.706
2.642647743,-1.105107,-0.2732712,-0.3315798,-0.02005633,-0.9700394,0.2553356,-5.555231,45.52415,4.768461,1007.704
2.674820423,2.089275,1.916574,-4.008801,-0.01845795,-1.010507,0.2328151,-4.810651,45.88318,3.870171,1007.704
2.709468365,-36.4276,-9.091838,-18.96284,-0.08122371,-0.9061702,0.3788608,-5.561008,45.51847,4.322182,1007.701
2.741637230,-118.0686,-8.440803,-58.98326,-0.03760159,-1.200482,0.1952776,-5.561008,45.51847,4.322182,1007.699
2.776284695,-167.3972,-2.640672,-118.3091,0.07707265,-1.466385,0.09079555,-5.927392,45.53521,5.216677,1007.697
2.808457851,-156.6469,6.00034,-164.5195,0.1076518,-1.652266,-0.01320609,-6.982172,44.10555,11.41409,1007.697
2.843105793,-157.3841,21.1517,-216.0006,0.1482651,-1.470025,-0.1465605,-6.982172,44.10555,11.41409,1007.7
2.875278473,-174.8303,52.34221,-250.6278,0.2174881,-1.35289,-0.2701146,-12.20032,42.34814,17.18837,1007.7
2.909925938,-168.2573,92.76556,-269.9332,0.1890142,-1.12373,-0.3431516,-19.76349,36.41999,22.10247,1007.698
2.942095280,-132.1362,111.764,-265.9495,0.3408777,-0.9020281,-0.322979,-19.76349,36.41999,22.10247,1007.696
2.976742744,-66.40563,117.8008,-234.9996,0.5190576,-0.5538318,-0.310203,-27.29357,27.73187,24.86194,1007.696
3.008915901,-3.930906,118.8662,-205.398,0.6168931,-0.4622605,-0.2684271,-33.74283,17.51548,23.60621,1007.698
3.043563843,58.35953,114.1314,-179.4735,0.7168347,-0.1815581,-0.1836596,-38.33468,9.525745,19.71572,1007.695
3.075736046,20.94841,116.3212,-160.5359,0.7503529,0.1027704,-0.04907845,-38.33468,9.525745,19.71572,1007.693
3.110383987,-37.90193,119.2213,-136.4501,0.8685064,0.07177258,-0.02730052,-41.42035,3.032576,15.30002,1007.693
3.142553330,-45.02785,125.2581,-112.3643,0.9209887,0.05192959,0.01398014,-42.60899,-2.401061,11.37941,1007.693
3.174726009,-27.1516,123.2459,-91.71053,0.9215518,0.04325389,0.08523928,-42.60899,-2.401061,11.37941,1007.693
3.209373474,-40.97345,123.2459,-75.04047,0.9938311,0.1627966,0.1501383,-43.80946,-7.021091,6.498457,1007.695
3.241547108,-67.63424,130.0521,-58.7994,0.9916813,0.099279,0.1573467,-44.2527,-10.88878,1.673666,1007.695
3.276194095,-69.41572,134.3727,-43.78408,0.9448385,0.02932356,0.3080729,-44.2527,-10.88878,1.673666,1007.694
3.308367252,-65.11559,132.0052,-37.10379,0.9527,0.04045565,0.3090553,-43.57317,-14.02168,-4.053209,1007.692
3.343011379,-66.58992,143.5463,-22.14976,0.9402426,0.1234185,0.2963595,-42.89839,-15.63572,-10.23381,1007.692
3.375183582,-73.90014,153.5486,-2.783061,0.8063418,0.2012432,0.2943946,-42.89839,-15.63572,-10.23381,1007.692
3.409831524,-83.299,175.5654,23.87679,0.6181585,0.1298841,0.2348303,-41.07803,-15.73078,-15.59884,1007.694
3.442004681,-96.38367,205.3947,44.1628,0.3859765,0.01645117,0.4187394,-38.90593,-14.33348,-23.07715,1007.692
3.476652622,-237.6122,224.4522,21.73175,-0.08325402,-0.1595396,4.424673,-38.90593,-14.33348,-23.07715,1007.692
3.508825302,8.170886,-63.7196,-0.8218759,0.4436763,-1.170447,1.820675,-36.73441,-12.55585,-30.62107,1007.692
3.543468952,141.1677,61.81181,-16.81779,1.411942,-0.2638355,0.9250048,-32.60629,-5.787801,-33.28977,1007.691
3.575641632,65.3626,-9.802058,-1.925042,-0.2249896,0.323651,1.027062,-32.60629,-5.787801,-33.28977,1007.691
3.610289574,14.19107,-21.28395,4.755243,0.5975459,0.06813011,0.7738709,-33.35845,-8.820448,-32.82474,1007.689
3.642462730,-37.0419,-18.3247,12.66127,0.6362532,0.1304233,0.8202953,-32.59312,-10.7263,-31.99049,1007.687
3.677110672,-31.08315,-19.0941,10.94523,0.5507975,-0.3356612,0.7488062,-32.59312,-10.7263,-31.99049,1007.689
3.709283352,-1.289398,-25.48609,8.493752,0.6073366,-0.1852432,0.8420627,-33.34374,-11.47214,-31.53662,1007.689
3.741452217,-4.053767,-22.82276,9.229197,0.6836988,-0.2438445,0.7820631,-33.33667,-9.560787,-31.09965,1007.688
3.776100159,15.23538,-18.79818,16.09334,0.5749625,-0.2181172,0.8382377,-33.33667,-9.560787,-31.09965,1007.686
3.808272839,22.72989,-25.78201,18.72869,0.5449651,-0.2858779,0.843743,-34.47075,-9.925816,-31.09198,1007.686
3.842920780,50.86502,-34.24547,19.46413,0.5453086,-0.3454159,0.7391371,-35.20878,-9.135757,-29.753,1007.684
3.875093460,94.05061,-30.1617,39.38241,0.6436747,-0.09716958,0.7682217,-35.20878,-9.135757,-29.753,1007.684
3.909740925,104.2481,-24.42076,65.3681,0.615908,-0.06559221,0.8169411,-35.20326,-9.511206,-29.30486,1007.682
3.941910267,124.4587,-38.74353,79.21897,0.5316238,-0.1037321,0.8521171,-36.30293,-10.22326,-26.61765,1007.682
3.976558208,152.4095,-55.01941,108.6367,0.6197088,-0.006747467,0.8342608,-36.30293,-10.22326,-26.61765,1007.682
4.008730888,160.5797,-62.35835,129.3518,0.540821,0.1050183,0.8002503,-38.1593,-10.92538,-23.99033,1007.685
4.043378830,115.8584,-77.09542,138.1771,0.5460751,0.1073433,0.7274385,-39.25793,-10.1129,-21.31056,1007.683
4.075551987,104.4938,-80.23223,155.3375,0.6015815,0.05528615,0.6214156,-39.25793,-10.1129,-21.31056,1007.683
4.110198975,98.78075,-74.55047,178.8717,0.590987,0.1038997,0.4985234,-41.84578,-8.875887,-16.90356,1007.683
4.142368317,91.16338,-60.87872,198.2384,0.5888917,0.02696632,0.4024727,-42.93163,-5.003779,-13.40987,1007.681
4.177016258,70.82991,-32.70666,216.2568,0.6158639,0.02360585,0.3617054,-45.161,0.3984102,-10.74664,1007.681
4.209188461,26.35429,-12.46538,221.8339,0.471554,-0.09979253,0.3798686,-45.161,0.3984102,-10.74664,1007.683
4.241362095,-22.9129,4.757455,238.504,0.4922447,-0.1963561,0.3335715,-43.63879,7.306547,-10.3419,1007.683
4.276009559,-61.06119,37.19084,235.2557,0.2251344,-0.6226292,0.4612436,-41.35997,15.28382,-9.946293,1007.683
4.308182239,-22.79004,32.04174,209.1475,0.4066449,-1.142756,0.4774339,-41.35997,15.28382,-9.946293,1007.682
4.342826366,48.53066,37.07247,179.9748,0.4463244,-0.9843154,0.5930857,-37.2025,23.98516,-10.45664,1007.678
4.374999523,7.249429,32.51522,162.5693,0.4886146,-0.8242437,0.6701667,-31.91853,30.3779,-11.40791,1007.678
4.409647465,-14.06692,35.29692,146.8186,0.5386731,-1.085211,0.5976582,-31.91853,30.3779,-11.40791,1007.678
4.441819668,41.40474,42.16238,129.4743,0.4365956,-1.196897,0.52539,-26.64787,34.15485,-13.23903,1007.682
4.476467609,50.43501,44.76653,109.127,0.175867,-0.8162774,0.5574708,-22.12183,37.50927,-14.17154,1007.682
4.508640766,-3.255171,45.47675,90.55707,0.1615524,-0.6688665,0.4667577,-22.12183,37.50927,-14.17154,1007.682
4.543283939,-30.10026,55.1239,72.29354,0.02579942,-0.7682992,0.3881567,-17.6202,38.93527,-16.87988,1007.68
4.575457573,9.522355,67.25683,60.89415,-0.01966355,-0.9527947,0.351874,-13.39884,40.39986,-16.90891,1007.68
4.610105038,8.723761,55.59738,50.65922,-0.2108006,-0.4130831,0.9813322,-13.39884,40.39986,-16.90891,1007.68
4.642277718,-145.6509,18.42919,42.87577,-0.2424888,-0.3342247,1.179416,-10.76843,41.10911,-18.1375,1007.684
4.676925659,-94.04932,-8.085692,77.01263,-0.3004307,-1.933647,0.7488772,-8.106915,41.46809,-16.94157,1007.684
4.709098816,-24.08008,10.02492,6.593853,-0.4229018,-1.396116,1.013767,-8.106915,41.46809,-16.94157,1007.684
4.741267204,17.44688,-4.771332,-30.54608,0.07038978,-0.5949016,0.558352,-5.808587,44.13224,-14.73479,1007.684
4.775915146,43.24765,14.28624,-21.23045,-0.1557289,-0.3357148,0.4122148,-4.296828,44.11077,-14.74253,1007.684
4.808088303,-31.88174,1.798204,-15.71462,-0.0881301,-0.528985,0.8847602,-4.296828,44.11077,-14.74253,1007.683
4.842736244,-112.6627,-13.76745,-27.54302,-0.09289534,-0.9850094,0.5961835,-5.820658,43.3586,-15.62363,1007.681
4.874908924,-59.15685,-5.718292,-17.67581,0.001059015,-1.012169,0.4075851,-6.541611,43.78459,-12.94394,1007.687
4.909556866,-7.739592,-8.795913,-6.766717,-0.07342144,-0.8960966,0.4314089,-6.541611,43.78459,-12.94394,1007.687
4.941725254,-46.74791,-7.375473,-19.39184,-0.02640151,-0.7767683,0.4521979,-7.651802,44.5857,-11.15674,1007.687
4.976373196,-34.09324,-0.9243064,-18.53382,-0.008259915,-0.8874798,0.457864,-8.001934,44.23755,-8.985297,1007.687
5.008546352,-38.76195,0.08183884,-11.73097,-0.002682589,-0.8592691,0.4691304,-8.001934,44.23755,-8.985297,1007.687
5.043194294,-54.54957,0.792059,-8.605328,-0.02731784,-0.86178,0.4423476,-8.356762,44.26565,-7.198241,1007.685
5.075366974,-52.09235,-0.5100113,-7.563448,-0.04207008,-0.9676363,0.3640107,-8.722889,44.66353,-6.305607,1007.685
5.110014915,-29.24023,-4.534592,-2.108903,0.03363409,-0.9630798,0.3112859,-8.722889,44.66353,-6.305607,1007.685
5.142183781,-22.54432,0.6736889,5.368113,0.0718185,-0.9563516,0.2642311,-9.071424,45.45959,-4.075992,1007.685
5.176831722,7.495151,5.230935,12.35483,-0.0197869,-1.098833,0.2335453,-8.670629,45.09583,-2.290942,1007.683
5.209004402,36.92031,1.739019,13.9483,-0.004070535,-1.000729,0.3142194,-9.048569,45.10119,-2.289008,1007.687
5.243652344,42.20333,-0.5691963,21.4866,-0.01017632,-0.9279829,0.365486,-9.048569,45.10119,-2.289008,1007.687
5.275825500,47.42492,-6.665253,24.18323,-0.08484648,-0.9484119,0.3746904,-8.321836,44.6809,-4.522418,1007.685
5.307998180,51.97077,-14.24093,28.41203,-0.05254048,-0.946102,0.4433338,-7.960717,45.42074,-5.866915,1007.685
5.342641830,46.31917,-7.848953,39.4437,-0.04977341,-0.9109996,0.4652874,-7.960717,45.42074,-5.866915,1007.685
5.374814987,18.18404,-6.250957,44.89824,-0.1698288,-0.7992652,0.5266147,-6.855788,45.37621,-8.10412,1007.685
5.409462452,-35.44471,-1.930452,51.39466,-0.1941748,-0.7705272,0.4610449,-4.972125,44.96255,-8.558209,1007.685
5.441635609,-67.57281,3.277829,58.99426,-0.2034836,-0.8677122,0.5037105,-4.972125,44.96255,-8.558209,1007.688
5.476283550,-115.6114,-0.03653119,65.12296,-0.2382659,-0.8792682,0.4933358,-3.064579,45.71503,-7.232759,1007.688
5.508455753,-73.22441,11.38618,65.61325,-0.3482572,-1.083819,0.3953119,-1.128399,46.1148,-3.674043,1007.688
5.543099880,6.635125,23.10481,60.46515,-0.4167746,-1.029984,0.3457851,-1.128399,46.1148,-3.674043,1007.686
5.575273037,17.6926,36.24388,65.42939,-0.434276,-0.8045678,0.3608207,1.923182,46.09947,-1.521866,1007.686
5.609920978,16.52542,43.81956,68.92275,-0.474553,-0.9742649,0.2956916,4.569018,46.44302,-1.537264,1007.686
5.642093658,31.82159,54.70961,76.64491,-0.4712832,-0.9028465,0.243712,4.569018,46.44302,-1.537264,1007.688
5.676741123,22.79132,67.02009,87.67658,-0.4502308,-0.7684561,0.1867835,7.213822,45.26204,-1.545218,1007.688
5.708914280,11.67242,70.45281,93.19241,-0.4935149,-0.8946894,0.09119283,10.23105,44.45114,-2.003248,1007.688
5.743557930,13.94534,78.20605,97.17607,-0.4767518,-0.8148271,0.07289682,10.23105,44.45114,-2.003248,1007.688
5.775731087,0.799236,72.99777,94.84716,-0.4653695,-0.8094943,0.2053844,14.38787,43.62981,-2.0208,1007.686
5.810379028,-20.02567,60.45055,88.84103,-0.4420834,-0.7296128,0.3827195,18.62502,42.82466,-0.699831,1007.686
5.842552185,-10.81111,45.47675,101.7113,-0.3212126,-0.6578165,0.3296456,18.62502,42.82466,-0.699831,1007.686
5.874724388,-5.343805,29.31923,102.8145,-0.2460207,-0.4885321,0.4267395,22.04252,40.88773,0.630909,1007.686
5.909372330,-20.57855,-0.8059363,107.411,-0.4586354,-0.649892,0.639473,25.46003,38.9508,1.961651,1007.686
5.941541672,25.18711,-3.054967,95.64389,-0.5586322,-0.6650906,0.303363,25.46003,38.9508,1.961651,1007.686
5.976188660,16.95543,-2.936597,105.9401,-0.7285114,-0.230575,0.1446505,28.86572,36.62136,2.401691,1007.686
6.008362293,-14.92695,3.51457,101.221,-1.410179,-0.3253358,0.2572339,32.25433,34.65601,1.501026,1007.685
6.043009758,-49.08226,-0.2140862,77.13522,-1.268342,-0.378383,0.2043811,32.25433,34.65601,1.501026,1007.685
6.075182438,-71.87294,-8.499988,66.65513,-0.8842555,-0.4652925,0.1335648,34.89806,31.88697,1.500826,1007.683
6.109830380,-10.19681,-2.581487,61.87475,-0.8089836,-0.4549547,0.2009096,37.18123,29.20388,2.841089,1007.687
6.141999722,11.73385,8.722851,58.38139,-0.8778476,-0.2096072,0.2498468,37.18123,29.20388,2.841089,1007.687
6.176647663,13.51533,9.314701,49.55606,-0.9623187,-0.1975886,0.1803621,39.07491,26.51479,3.290728,1007.689
6.208819866,1.720692,8.841221,39.62756,-0.9222509,-0.2098291,0.1924193,40.20718,24.21189,3.296089,1007.689
6.243467808,21.43986,5.230935,32.21183,-0.9703661,-0.2209415,0.1050528,41.32868,23.04101,2.403309,1007.689
6.275640964,5.037934,-0.9243064,24.24452,-0.9151951,-0.1414388,0.1278474,41.32868,23.04101,2.403309,1007.687
6.310288906,11.67242,-6.250957,16.58364,-0.9687784,-0.1782823,0.09912364,42.078,21.88118,1.958742,1007.689
6.342457294,-1.105107,-14.12256,12.17097,-0.969001,-0.1311697,0.16603,42.83889,20.73273,2.406738,1007.689
6.374630928,-10.93397,-21.69825,7.880881,-1.043472,-0.194901,0.1618615,42.83889,20.73273,2.406738,1007.693
6.409278393,-16.647,-27.49838,6.47128,-1.006418,-0.1472805,0.1927563,43.2108,20.34055,1.960384,1007.693
6.441451073,-10.01252,-25.90038,8.616326,-0.9524423,-0.1467564,0.169603,43.19898,19.94804,1.069683,1007.689
6.476099014,-21.37714,-22.52684,8.432465,-0.9542646,-0.1780607,0.2002099,43.19898,19.94804,1.069683,1007.691
6.508272171,-16.15556,-18.73899,11.25167,-0.9415647,-0.162676,0.2522742,43.1932,19.94236,0.6234016,1007.691
6.542915344,-20.14853,-15.48382,12.9677,-0.8997575,-0.1548096,0.229295,43.94279,19.16367,0.1769772,1007.691
6.575088501,-16.0327,-11.81435,17.01265,-0.8862246,-0.166156,0.2772751,43.94279,19.16367,0.1769772,1007.691
6.609736442,-17.99847,-6.901993,19.5867,-0.9617288,-0.1806482,0.3005141,43.93123,19.1523,-0.7155838,1007.689
6.641909122,-12.59259,-5.895847,16.58364,-0.9537502,-0.1466446,0.2462541,44.30866,18.38466,-0.7137966,1007.691
6.676557064,-0.1222202,-4.652962,10.51622,-0.9852417,-0.1477302,0.2740129,44.30866,18.38466,-0.7137966,1007.695
6.708730221,-0.4908026,-7.257102,5.980983,-0.9448995,-0.08380087,0.2818755,44.68005,17.23021,-1.15643,1007.695
6.743373871,5.959391,-7.612213,-3.947514,-1.00602,-0.1401487,0.2366734,45.44145,16.84402,-0.7121563,1007.695
6.775546551,-3.992336,-8.855098,-11.79225,-0.9629146,-0.1020873,0.3537108,45.44145,16.84402,-0.7121563,1007.695
6.810194492,3.440744,-7.138732,-18.84026,-0.9149377,-0.1083967,0.2587392,45.43567,16.83834,-1.158437,1007.695
6.842367649,-3.255171,-2.699857,-19.02412,-0.9197051,-0.1957962,0.3144571,45.05221,17.21916,-1.604644,1007.695
6.877015591,-0.3679418,1.028799,-20.67887,-0.9218838,-0.09738191,0.2979368,45.05221,17.21916,-1.604644,1007.695
6.909188271,0.0006406754,6.82893,-21.78204,-0.8724813,-0.193715,0.3000557,44.29107,17.98648,-2.050778,1007.693
6.941357136,7.433721,12.68825,-21.10788,-0.88067,-0.1698815,0.3012926,44.29132,18.36761,-2.052639,1007.693
6.976005077,-4.483779,14.40461,-26.13342,-1.016031,-0.2322062,0.2514318,44.29132,18.36761,-2.052639,1007.691
7.008177757,2.027844,16.59446,-29.19777,-0.8737696,-0.1297169,0.2899913,43.92571,19.52775,-1.163727,1007.694
7.042825699,5.406517,18.25164,-31.4041,-0.9040173,-0.2687899,0.300213,43.17613,20.30644,-0.7172985,1007.694
7.074998856,-13.45262,17.00875,-38.32954,-0.9602362,-0.145329,0.2868134,43.17613,20.30644,-0.7172985,1007.694
7.109646797,-7.248148,16.18016,-38.26825,-0.8943909,-0.2877816,0.2353787,43.1769,21.44984,-0.7228813,1007.692
7.141815186,-21.74573,17.18631,-33.12014,-0.83211,-0.3583752,0.2477115,42.06093,22.24526,0.6180401,1007.692
7.176463127,-8.722477,23.99258,-28.5849,-0.88804,-0.3163373,0.250026,42.06093,22.24526,0.6180401,1007.692
7.208636284,0.06207109,28.01716,-30.23965,-0.9362772,-0.3309831,0.2079394,41.69532,23.4054,1.506952,1007.692
7.243284225,-15.04981,33.87648,-33.67172,-1.018429,-0.3225461,0.2420335,40.57409,24.95741,2.397873,1007.692
7.275456905,-3.439462,38.43373,-37.22637,-0.9024949,-0.3478999,0.1130128,40.57409,24.95741,2.397873,1007.692
7.310104847,2.089275,39.43987,-41.39389,-0.9209976,-0.5106585,0.08051368,39.45837,26.13397,3.736933,1007.692
7.342273712,-1.166537,38.37454,-38.5134,-0.9581903,-0.3366344,0.2162912,38.7143,26.53721,4.631502,1007.696
7.376921177,10.81239,36.12551,-43.66151,-0.7865966,-0.3094551,-0.05114954,37.98174,28.09441,6.349295,1007.698
7.409094334,-32.74177,22.92725,-57.14465,-0.977525,-0.6650093,0.1067606,37.98174,28.09441,6.349295,1007.698
7.441267490,9.092342,21.98029,-62.17019,-0.9053833,-0.3134786,0.04295158,36.48231,29.27065,7.244009,1007.698
7.475915432,-35.50614,16.47609,-68.66662,-0.8358919,-0.5137672,0.04691796,34.60519,30.8334,8.138796,1007.698
7.508088112,3.317883,6.47382,-76.7565,-0.6736966,-0.5427509,-0.2083662,34.60519,30.8334,8.138796,1007.698
7.542731762,-36.4276,6.769745,-67.19572,-0.6758516,-0.7345687,0.09276827,32.72834,32.77729,9.031723,1007.699
7.574904919,14.19107,2.626794,-64.13138,-0.7092552,-0.4783496,0.0007203438,30.47308,34.02779,9.929996,1007.699
7.609552383,-21.43857,0.969614,-64.86682,-0.7727543,-0.7816955,0.02435802,30.47308,34.02779,9.929996,1007.703
7.641725540,6.143682,-0.4508263,-50.58694,-0.4423461,-0.7772766,-0.3228362,28.5957,35.2094,10.82664,1007.703
7.676373482,-14.80409,1.739019,-33.12014,-0.8582256,-0.8263465,0.09564137,26.32909,36.76615,10.8308,1007.703
7.708546638,-11.73257,7.716706,-14.05987,-0.8330884,-0.8523185,0.07976872,26.32909,36.76615,10.8308,1007.703
7.743189812,-4.299489,8.071815,-3.089496,-0.6837499,-0.6779223,-0.1197348,25.57925,37.1637,11.27909,1007.703
7.775362968,-17.81418,13.81276,5.674548,-0.7249992,-0.7926337,0.02141224,24.82338,37.17444,11.28296,1007.703
7.810010910,-9.766794,19.90882,14.31602,-0.7523969,-0.6978195,0.02534154,24.82338,37.17444,11.28296,1007.703
7.842183590,-6.633844,16.59446,21.91561,-0.6727362,-0.6540655,-0.04011099,25.20683,36.79362,11.72917,1007.703
7.876831055,-5.589527,14.52298,29.82164,-0.6791793,-0.7546318,-0.1194458,24.83493,37.18581,12.17552,1007.702
7.909004211,-12.89974,7.835076,32.88599,-0.7736002,-0.6920747,-0.06165515,24.83493,37.18581,12.17552,1007.702
7.941173553,-8.415325,10.14329,37.29865,-0.7469119,-0.6817446,-0.02663306,25.22417,36.81068,13.06801,1007.706
7.975821018,12.22529,7.302411,38.76954,-0.7242017,-0.6008239,-0.09269378,26.36299,35.65685,13.51407,1007.704
8.007994175,-3.808045,3.810495,36.37934,-0.8102158,-0.6377477,-0.08978558,26.36299,35.65685,13.51407,1007.704
8.042642117,3.809326,-3.054967,33.68272,-0.7933447,-0.5312284,-0.0500229,27.12413,34.88954,13.96021,1007.704
8.074815273,3.072161,-10.57146,28.47332,-0.8470128,-0.6189237,-0.06422307,28.25769,34.4923,13.95626,1007.702
8.109462261,12.40958,-19.21247,25.77669,-0.7902166,-0.4788354,-0.05154815,28.25769,34.4923,13.95626,1007.702
8.141631603,-13.88263,-28.91882,25.2864,-0.8080049,-0.5799772,-0.08691995,29.3797,34.08369,13.05976,1007.702
8.176279545,-8.476755,-36.67205,30.31193,-0.8243048,-0.5080987,-0.02881734,30.51878,33.311,13.50396,1007.7
8.208452225,-25.61584,-46.08247,33.80529,-0.8604202,-0.5350026,-0.01617016,30.51878,33.311,13.50396,1007.7
8.243099689,-22.23717,-58.45214,35.6439,-0.8859802,-0.5838847,-0.01440665,30.87913,32.90744,12.16505,1007.7
8.275273323,-24.81725,-65.96864,38.09538,-0.8385288,-0.4312439,-0.01648304,32.75016,30.89435,10.82615,1007.7
8.309920788,-43.00065,-70.64426,40.42429,-0.8015218,-0.4339565,0.03327723,33.87744,29.72916,10.37965,1007.704
8.342093468,-56.20819,-68.69115,42.56934,-0.829046,-0.4490275,0.07534377,33.87744,29.72916,10.37965,1007.703
8.376741409,-39.56055,-60.64198,42.56934,-0.841586,-0.539741,0.1368909,35.37712,28.93405,9.483074,1007.703
8.408914566,-18.55134,-48.56824,43.05963,-0.8736473,-0.4254004,0.2152526,37.6314,26.22254,8.591936,1007.703
8.443562507,-23.03576,-37.14553,46.982,-0.830256,-0.4237185,0.2095596,37.6314,26.22254,8.591936,1007.703
8.475735187,-18.55134,-24.12483,53.78486,-0.8976387,-0.3446355,0.2248183,39.50929,25.80319,7.691566,1007.701
8.507908344,-50.80231,-11.16331,50.23021,-0.9333035,-0.3561017,0.2255385,41.0195,23.49492,7.694996,1007.701
8.542556286,-23.15862,5.586045,57.09436,-0.8735133,-0.4634805,0.2496414,41.0195,23.49492,7.694996,1007.699
8.574728489,13.63819,24.64362,56.35891,-0.9277116,-0.3278402,0.1804114,42.15203,21.57314,7.698498,1007.699
8.609376430,9.153773,38.84802,55.68476,-0.9636054,-0.3487025,0.1584023,42.15627,19.29203,8.155941,1007.699
8.641549587,66.46835,59.44441,60.15871,-0.8509053,-0.2805824,0.06392242,42.15627,19.29203,8.155941,1007.703
8.676197529,40.48328,67.19764,55.68476,-0.96619,-0.1700509,0.2871471,42.55026,17.39805,9.502153,1007.701
8.708370209,51.2336,79.03465,61.38445,-0.958595,-0.1334573,0.1278361,43.32848,16.26665,11.28899,1007.703
8.743018150,41.46617,78.38361,62.91662,-1.02138,-0.1091492,-0.09647138,43.32848,16.26665,11.28899,1007.703
8.775191307,27.76719,79.09383,64.01979,-1.01259,-0.08843132,-0.04770066,43.355,14.00746,13.4678,1007.701
8.809839249,20.39554,81.81634,64.4488,-0.9068933,-0.07749411,-0.1348746,43.01122,13.28467,16.15114,1007.701
8.842011929,4.976504,93.59415,67.88087,-0.9196695,-0.1249386,-0.06429265,43.01122,13.28467,16.15114,1007.698
8.876659393,27.46004,115.6702,79.89313,-0.9151405,0.0463478,-0.1308847,43.03253,10.63947,17.94929,1007.698
8.908832550,17.50831,131.4134,85.04124,-1.042776,-0.08561318,-0.3312935,41.95463,9.187083,22.36159,1007.696
8.943480492,45.64344,137.9829,85.16381,-0.9750236,0.139768,-0.3917635,41.95463,9.187083,22.36159,1007.696
8.975653172,24.38852,127.6255,82.71233,-0.9935529,0.1708592,-0.4631522,40.49333,6.972921,26.39701,1007.696
9.010301113,29.30295,114.2497,80.506,-0.9676937,0.1480361,-0.5108176,37.89739,4.774051,30.37449,1007.696
9.042474270,46.56489,93.59415,63.83593,-1.089572,0.05706028,-0.7427541,37.89739,4.774051,30.37449,1007.7
9.074647427,63.82684,77.37746,33.56014,-0.9239386,0.2991377,-0.7779719,34.1569,2.580729,33.52895,1007.7
9.109294891,34.89311,55.71575,-0.94445,-0.9555197,0.1113502,-0.7286154,31.54072,3.409,35.77017,1007.7
9.141468048,63.64255,43.81956,-22.8852,-0.8382391,0.2181187,-0.5287998,31.54072,3.409,35.77017,1007.7
9.176115990,4.730783,18.48838,-31.8944,-0.8559868,0.2136154,-0.4317894,28.913,4.225901,37.11883,1007.698
9.208288193,-9.828224,1.916574,-43.10992,-0.8439298,0.1244483,-0.405645,26.64659,7.306367,37.05179,1007.697
9.242936134,53.75225,-14.00419,-40.96488,-0.9450359,0.1119227,-0.5845907,26.64659,7.306367,37.05179,1007.697
9.275109291,85.38892,-44.48447,-30.60737,-0.9671242,0.08565267,-0.3546874,26.27546,8.841955,37.49257,1007.697
9.309757233,34.21738,-69.22382,-18.41125,-0.9722552,0.1796699,-0.3138585,24.37002,9.995956,36.22156,1007.697
9.341929912,76.17435,-87.57117,-7.808597,-0.8155636,-0.02193265,-0.6760722,24.37002,9.995956,36.22156,1007.697
9.376577854,83.79173,-82.18533,3.468216,-0.8893379,0.2863502,-0.7774362,25.10614,14.91722,34.40838,1007.699
9.408751011,30.65442,-65.79108,13.33543,-0.8612207,0.2165182,-0.9402261,26.20079,16.76698,31.26931,1007.697
9.443398952,-54.11956,-44.07018,17.80938,-0.8168865,0.1485313,-0.9161363,27.30726,19.00925,29.02094,1007.695
9.475571155,-141.7193,-48.92335,9.964641,-0.9627177,0.4245886,-0.4589382,27.30726,19.00925,29.02094,1007.695
9.510219097,-244.9224,-63.7196,-8.727901,-1.080628,0.1759331,-0.4907359,28.45213,18.24225,29.91143,1007.695
9.542392254,-163.0971,-61.70731,-20.066,-0.918892,-0.00884313,-0.4928043,29.21756,14.05123,30.88434,1007.694
9.574565887,-105.9054,-64.25227,-15.40819,-0.8039338,0.1159737,-0.3458382,29.21756,14.05123,30.88434,1007.692
9.609213352,-118.0072,-69.34219,-19.1467,-0.8623582,0.1371061,-0.2236549,30.73093,9.07989,31.28332,1007.692
9.641386032,-133.0576,-78.21994,-31.03638,-0.7663688,0.04751948,-0.1978152,32.22906,5.997979,30.39791,1007.692
9.676033974,-130.8461,-85.38132,-37.41023,-0.7110564,-0.01256315,-0.1486987,32.22906,5.997979,30.39791,1007.69
9.708207130,-125.0717,-91.77331,-53.52872,-0.7944968,-0.05570125,-0.06874584,33.71648,2.905509,28.68369,1007.693
9.742855072,-122.123,-97.27751,-72.22126,-0.790204,-0.07712772,-0.0120866,36.33133,0.108049,26.45209,1007.687
9.775027752,-127.5903,-93.72641,-86.43985,-0.8044109,-0.1616947,-0.03578718,36.33133,0.108049,26.45209,1007.689
9.809675693,-108.0555,-85.61806,-95.26518,-0.8582563,-0.2775983,-0.05744825,38.93594,-0.7315917,23.31831,1007.687
9.841848850,-84.09759,-75.55661,-96.49092,-0.8656408,-0.2858785,-0.002981666,40.4023,-0.7977328,19.80408,1007.687
9.876496792,-104.1853,-65.85027,-97.34895,-0.9143659,-0.2348313,0.03934578,40.4023,-0.7977328,19.80408,1007.685
9.908668995,-116.2871,-59.63584,-99.55527,-0.9570716,-0.3851631,-0.033795,41.88568,-0.08536386,17.56122,1007.684
9.943316936,-81.14893,-43.18241,-93.54915,-0.9051878,-0.3867286,-0.01453006,42.614,1.844664,15.31634,1007.682
9.975490093,-70.64433,-25.48609,-86.13342,-0.8601549,-0.3655496,-0.008509663,42.614,1.844664,15.31634,1007.68
10.010138035,-28.93308,-5.895847,-81.78204,-0.8476253,-0.5020857,-0.01939218,42.98167,3.733594,14.41254,1007.68
10.042310715,49.08354,13.22091,-76.32749,-0.8644686,-0.4911472,0.003509138,42.9714,5.627891,13.51067,1007.678
10.076958656,91.90054,21.50681,-66.64414,-0.8816949,-0.3891998,-0.005129652,42.9714,5.627891,13.51067,1007.681
10.109131813,104.3095,19.13941,-53.46743,-0.8264111,-0.3632332,-0.001093441,42.97981,8.302322,14.00768,1007.677
10.141304493,97.61357,23.04562,-35.2039,-0.8132396,-0.3067625,0.02913317,42.21938,11.35563,13.48663,1007.675
10.175951958,77.21867,20.67822,-17.79838,-0.9160373,-0.3486514,0.06975301,42.21938,11.35563,13.48663,1007.675
10.208125114,78.69301,17.48223,-0.8218759,-1.005327,-0.3477121,0.07107591,41.83855,14.40519,13.09115,1007.675
10.242773056,66.34549,10.38003,13.09028,-1.052877,-0.2920991,0.07679807,40.69394,15.55333,12.19881,1007.674
10.274945736,31.69873,4.757455,20.81244,-1.152474,-0.152416,0.06200898,40.69394,15.55333,12.19881,1007.672
10.309593677,-16.09413,12.56988,35.03103,-0.9918882,-0.08116668,0.08953592,40.6892,17.07218,11.74509,1007.672
10.341766834,-44.35212,9.551441,43.05963,-1.032842,-0.08290056,0.1530457,41.44482,16.68031,11.74308,1007.672
10.376414776,-58.17397,10.9127,52.37526,-0.943316,-0.02269502,0.1502967,41.44482,16.68031,11.74308,1007.672
10.408587456,-94.17218,7.06567,55.37832,-0.9837782,-0.05050328,0.1687609,42.21122,15.15641,12.63922,1007.67
10.443234920,-106.704,0.08183884,60.03614,-1.028132,-0.1261538,0.2119311,42.98289,12.87592,13.98536,1007.67
10.475408554,-104.4311,-4.475407,62.30376,-1.068049,-0.1583024,0.2973524,43.7475,8.68409,14.89452,1007.668
10.510056019,-93.43501,-13.82664,58.07495,-1.067613,-0.2540989,0.3375286,43.7475,8.68409,14.89452,1007.667
10.542228699,-75.12875,-27.08408,48.45289,-1.035978,-0.3099065,0.2962854,44.12833,5.634525,15.29,1007.667
10.576876640,-92.45213,-43.83344,39.01469,-0.9701182,-0.144499,0.3881323,43.73652,2.198323,14.41611,1007.665
10.609049797,-152.8382,-55.4337,28.47332,-0.903458,-0.3623903,0.1215783,43.73652,2.198323,14.41611,1007.663
10.641222954,-113.0927,-53.89489,21.54789,-0.8343244,-0.4039475,0.06419668,44.46801,-0.9469321,12.70607,1007.661
10.675870418,-94.17218,-48.80498,12.72256,-0.840833,-0.3591312,0.08101486,45.19346,-3.272894,10.48197,1007.661
10.708043575,-68.30997,-39.92723,6.777715,-0.7574992,-0.3852777,0.08002172,45.19346,-3.272894,10.48197,1007.66
10.742691517,-46.50219,-28.03104,7.08415,-0.768586,-0.3855809,0.09651066,46.35431,-5.229671,7.807465,1007.66
10.774864674,-27.27446,-20.45536,8.064743,-0.782279,-0.469197,0.133545,45.89058,-6.007603,6.092073,1007.66
10.809511661,2.519288,-11.93272,9.167909,-0.8143297,-0.4268239,0.1317835,45.89058,-6.007603,6.092073,1007.658
10.841684818,0.799236,-4.416222,13.39671,-0.8836448,-0.4032865,0.1181643,46.31944,-6.787503,5.200979,1007.656
10.876332760,6.635125,3.159459,17.07393,-0.8639758,-0.4931915,0.1794175,45.50006,-7.538139,5.208889,1007.662
10.908505917,16.15684,11.44536,19.15769,-0.8752061,-0.5076488,0.1856691,45.50006,-7.538139,5.208889,1007.662
10.943153858,30.83871,18.13327,27.00243,-1.179766,-0.5859349,0.1599096,45.87799,-7.543507,5.206957,1007.66
10.975326538,41.77332,0.910429,16.82879,-1.34065,-0.6121119,0.2494009,46.26146,-7.924324,5.653162,1007.662
11.009974480,38.33321,9.965736,-7.195726,-1.027887,-0.3946837,0.196701,46.26146,-7.924324,5.653162,1007.66
11.042147636,32.12874,23.10481,-34.89746,-0.9162664,-0.3847558,0.2343013,46.27142,-9.057165,6.487553,1007.66
11.076795578,69.96989,25.88651,-59.22841,-0.9174372,-0.3858953,0.2116489,46.71838,-8.676611,6.929716,1007.658
11.108968258,80.16734,21.38844,-73.14057,-0.9203928,-0.2369667,0.1362663,46.71838,-8.676611,6.929716,1007.658
11.143615723,42.57191,14.16787,-84.11095,-1.008203,-0.188147,0.1162802,46.73674,-7.135023,8.261114,1007.657
11.175789356,26.10857,11.20862,-91.83311,-0.9971232,-0.2724378,0.08174192,46.68185,-3.698241,8.690971,1007.655
11.207961559,42.1419,18.37001,-93.67172,-1.022133,-0.3101435,0.08552043,46.68185,-3.698241,8.690971,1007.653
11.242609501,64.19543,15.05565,-97.90053,-1.01419,-0.3008717,0.09709074,46.37499,-0.257881,9.122116,1007.651
11.274782657,68.92557,17.06794,-94.7136,-0.8673019,-0.255177,0.07488886,45.93719,4.385506,9.101732,1007.651
11.309430599,57.74523,16.65364,-87.84946,-0.8924109,-0.2272449,0.09318741,45.93719,4.385506,9.101732,1007.651
11.341603279,33.54165,15.11483,-77.7371,-0.7691721,-0.219841,0.06269653,45.94605,8.964792,9.525684,1007.65
11.376251221,17.50831,18.7843,-59.53485,-0.7177418,-0.2556686,0.04456928,44.81404,11.64883,9.518461,1007.65
11.408424377,14.49822,16.59446,-40.96488,-0.728443,-0.2797622,0.06037649,44.81404,11.64883,9.518461,1007.65
11.443072319,10.75096,17.54142,-17.61452,-0.751768,-0.3061524,0.08495855,43.31063,15.48733,9.953871,1007.65
11.475245476,-2.518006,4.520715,1.384457,-0.9510072,-0.2821147,0.1154538,42.55655,18.166,9.944714,1007.65
11.509892464,-24.26437,-3.350892,19.95443,-0.8943707,-0.2702799,0.1130949,42.56811,18.17737,10.83727,1007.65
11.542065620,-50.98661,-7.316288,31.35381,-0.9321674,-0.3669708,0.07553648,42.56811,18.17737,10.83727,1007.654
11.576713562,-31.88174,-2.877412,39.56627,-0.9566731,-0.5501814,0.09353472,42.94001,17.78518,10.39092,1007.655
11.608886719,31.57587,-2.522302,49.61734,-1.043527,-0.5304734,0.2015115,42.5726,16.27739,11.29286,1007.655
11.643534660,65.66975,3.337014,67.02285,-0.9884346,-0.4273849,0.2616152,42.5726,16.27739,11.29286,1007.655
11.675707340,46.81061,1.739019,77.13522,-1.207309,-0.3188052,0.3537226,44.07755,14.72569,10.84628,1007.655
11.707880497,-10.07395,-5.718292,83.14134,-1.025429,-0.2695844,0.3707473,44.06445,12.42752,9.96489,1007.655
11.742528439,-64.99273,-13.29397,80.62857,-1.017023,-0.3037846,0.284109,44.06445,12.42752,9.96489,1007.655
11.774701118,-77.6474,-26.37386,68.00345,-0.9088383,-0.326182,0.2188089,44.81275,9.743166,9.527765,1007.655
11.809348583,-85.75621,-26.72897,55.62347,-0.8511313,-0.2377877,0.07439933,46.32194,5.910357,9.538637,1007.655
11.841522217,-106.8883,-28.50452,42.2629,-0.9746177,-0.2400602,0.01480091,46.32194,5.910357,9.538637,1007.655
11.876169682,-99.70091,-18.20633,33.56014,-0.917547,-0.3264415,0.05356221,46.30884,3.612186,8.657242,1007.659
11.908342361,-83.299,-7.020362,24.18323,-0.95597,-0.3648559,0.1456659,47.05709,0.8643073,8.220427,1007.659
11.942990303,-63.88699,-5.481552,12.5387,-0.9066183,-0.325948,0.2506021,47.05709,0.8643073,8.220427,1007.659
11.975163460,-62.84267,-4.416222,8.371178,-0.8478869,-0.2520962,0.2352389,47.11276,-1.429073,7.78499,1007.659
12.009811401,-64.9313,-3.824372,10.39365,-0.8457283,-0.2339886,0.1929521,47.47863,-2.208079,6.894217,1007.659
12.041984081,-53.25953,-3.054967,16.58364,-0.8566628,-0.266515,0.185074,47.47863,-2.208079,6.894217,1007.659
12.076632023,-24.69439,-3.114152,21.36403,-0.8877717,-0.3107367,0.2211497,47.03719,-2.964082,6.900194,1007.658
12.108805180,-2.948019,-4.771332,23.20264,-0.7975105,-0.2769052,0.2605923,47.84977,-3.743666,6.453444,1007.658
12.143453121,-1.166537,-4.830517,22.58977,-0.8543182,-0.248313,0.2811201,47.84977,-3.743666,6.453444,1007.656
12.175626278,-6.572414,-9.920428,19.28027,-0.8452941,-0.3032277,0.2781731,47.46584,-5.267704,6.080296,1007.656
12.210273266,-5.282375,-10.27554,16.64493,-0.8615546,-0.3110274,0.2633186,47.02332,-6.405653,6.024378,1007.66
12.242446422,-14.00549,-11.63679,15.05146,-0.9122282,-0.283141,0.2592013,47.02332,-6.405653,6.024378,1007.66
12.274619579,-34.95327,-12.87968,18.78997,-0.8555607,-0.2775647,0.2635385,46.69738,-6.792872,5.199045,1007.658
12.309267521,-51.60091,-12.52457,28.53461,-0.8823559,-0.3730629,0.1988953,47.45274,-7.565876,5.198898,1007.658
12.341440201,-52.39951,-11.57761,34.78588,-0.9021168,-0.3934951,0.1801133,47.45274,-7.565876,5.198898,1007.658
12.376088142,-52.33807,-4.652962,44.53052,-1.061537,-0.4263377,0.09842619,46.99949,-8.714382,4.314177,1007.658
12.408261299,-43.55352,-7.493843,42.32419,-1.205727,-0.4872459,0.1007155,46.23102,-10.23955,3.432926,1007.658
12.442909241,-16.40128,8.249371,23.14135,-1.120221,-0.4750008,0.1072486,46.23102,-10.23955,3.432926,1007.66
12.475081921,20.33411,23.87421,-12.40512,-1.008801,-0.4821799,0.1292857,46.21793,-12.53772,2.551529,1007.658
12.509729385,87.47755,32.87033,-37.34894,-1.048412,-0.3012799,0.1480167,45.46679,-14.04583,3.009119,1007.658
12.541903019,83.42315,27.01102,-56.47049,-0.9572788,-0.002626462,0.1631244,45.46679,-14.04583,3.009119,1007.658
12.576550484,11.54956,20.91496,-71.36324,-1.011909,0.1431848,0.1537502,45.86861,-12.88506,4.786726,1007.658
12.608724117,-49.57371,17.42305,-77.36937,-1.079286,0.1609346,0.08318934,47.09529,-10.20651,6.935226,1007.662
12.643371105,-85.26477,14.81891,-74.61146,-1.101125,0.1031628,0.06749286,47.09709,-7.538579,6.922201,1007.662
12.675544262,-68.55569,14.34543,-62.72177,-1.118001,-0.0725489,0.1187397,47.09709,-7.538579,6.922201,1007.66
12.710192203,-14.6198,0.555319,-44.1518,-1.099954,-0.05430844,0.1669216,47.49391,-5.240092,8.247944,1007.66
12.742365360,-8.169603,-14.3593,-27.60431,-1.003871,0.08584797,0.1507926,47.4889,-4.102376,7.796082,1007.66
12.774538040,-33.04892,-28.978,-7.931171,-0.9589108,0.1495522,0.06944028,47.4889,-4.102376,7.796082,1007.659
12.809185982,-73.77728,-41.88034,17.07393,-0.9553336,0.1772827,0.01709758,47.85658,-2.213447,6.892282,1007.659
12.841359138,-113.707,-52.35608,36.25677,-0.9539403,0.06413067,-0.05277418,47.84032,-1.848556,5.615332,1007.659
12.876007080,-132.3205,-55.37452,46.36913,-1.026168,-0.1051353,-0.1455576,47.84032,-1.848556,5.615332,1007.657
12.908179283,-129.3718,-56.26229,51.57853,-1.008594,-0.2164,-0.1490488,47.81618,-3.39583,3.837654,1007.657
12.942827225,-117.7615,-59.3991,54.39773,-1.063913,-0.2491695,-0.1541048,47.76841,-5.72811,0.278574,1007.657
12.975000381,-119.1744,-59.3991,57.09436,-0.9799462,-0.22151,-0.1638182,47.76841,-5.72811,0.278574,1007.657
13.009648323,-143.9308,-53.71734,51.02694,-1.011456,-0.186828,-0.1555263,47.72776,-7.291625,-2.774193,1007.657
13.041821003,-180.1133,-55.31533,42.87577,-0.9685163,-0.2092517,-0.2033478,47.61674,-10.00414,-6.33109,1007.653
13.076468945,-190.3108,-55.67044,35.09232,-0.9459863,-0.2478992,-0.2911185,47.61674,-10.00414,-6.33109,1007.653
13.108642101,-196.6995,-52.59282,25.16382,-0.9243822,-0.2415617,-0.3365758,46.06377,-11.16586,-9.441736,1007.653
13.143290043,-192.4608,-42.35382,20.87373,-1.13491,-0.3209733,-0.3217701,45.25671,-11.20548,-13.39064,1007.656
13.175463200,-180.1748,-42.23545,12.35483,-1.088329,-0.3708469,-0.213202,45.25671,-11.20548,-13.39064,1007.656
13.210111141,-149.8281,-22.23091,8.371178,-1.016396,-0.4634227,-0.08690656,45.21152,-9.726425,-16.96833,1007.657
13.242283344,-80.59605,-14.53686,5.306826,-1.010234,-0.5396151,0.04447567,43.67933,-8.20153,-18.62565,1007.657
13.276931286,-9.275351,-27.38001,2.855345,-0.9023216,-0.4337802,0.1171232,43.67933,-8.20153,-18.62565,1007.657
13.309104442,6.450834,-33.47606,4.326234,-0.8187077,-0.222277,0.09254064,43.66328,-6.312919,-19.97379,1007.657
13.341277122,-49.94229,-39.92723,10.45494,-0.8217447,-0.08606998,0.1298418,43.27982,-5.932102,-20.42,1007.657
13.375925064,-148.2924,-49.69276,15.72562,-0.9315552,-0.06437025,0.2925152,43.27982,-5.932102,-20.42,1007.657
13.408098221,-192.0308,-50.10705,24.3058,-0.9799992,-0.2353597,0.2433576,42.87273,-6.336291,-22.64761,1007.657
13.442746162,-195.5324,-47.26617,29.0249,-0.9977356,-0.3620833,0.2265724,41.33363,-4.056441,-24.88244,1007.657
13.474918842,-162.2371,-44.54366,31.72153,-0.9436305,-0.4532827,0.2050717,41.33363,-4.056441,-24.88244,1007.661
13.509566784,-107.9326,-44.83958,35.70519,-0.8633462,-0.4011871,0.1517321,40.92916,-1.791883,-27.05932,1007.661
13.541739941,-98.10372,-47.32536,41.89518,-0.8047167,-0.2785876,0.1006218,39.03605,1.722998,-27.51299,1007.66
13.576387882,-119.6044,-43.65589,48.82061,-0.8007852,-0.218582,0.01672994,38.26335,2.478947,-28.85168,1007.66
13.608561039,-143.8694,-38.50679,51.7011,-0.8126343,-0.2578177,0.01940904,38.26335,2.478947,-28.85168,1007.66
13.643208980,-138.7092,-27.26164,52.74298,-0.8612656,-0.3603853,0.03106723,37.11271,3.240265,-30.18845,1007.66
13.675381184,-123.5973,-19.33084,52.13011,-0.9349921,-0.3547732,0.08192939,37.11399,5.145932,-30.19775,1007.658
13.710029125,-117.7,-12.28783,46.00141,-0.9216774,-0.3904965,0.1157326,37.11399,5.145932,-30.19775,1007.658
13.742202282,-105.2911,-5.659107,37.17607,-0.8808212,-0.4333772,0.1202999,36.35941,7.062337,-30.20319,1007.656
13.776850223,-88.52058,0.969614,28.53461,-0.8961572,-0.3972611,0.1361647,36.74364,7.82492,-29.76256,1007.658
13.809022903,-88.95059,4.875825,22.40591,-0.8929216,-0.338484,0.1443311,36.74364,7.82492,-29.76256,1007.658
13.841196060,-92.08354,6.35545,19.70928,-0.9018052,-0.4018786,0.1631713,36.37199,8.598241,-29.31807,1007.66
13.875844002,-84.89619,4.047235,17.56423,-0.9358525,-0.3750852,0.2798718,36.76251,10.12878,-28.43489,1007.66
13.908016682,-121.8159,0.4369489,14.74503,-0.964922,-0.3554432,0.3535689,36.76251,10.12878,-28.43489,1007.658
13.942664146,-132.6276,-5.836662,9.596918,-0.9706559,-0.4896607,0.3168479,37.16459,11.67068,-26.65914,1007.658
13.974837303,-93.18929,-14.95115,8.7389,-0.9425073,-0.5856143,0.2285523,36.80027,14.73649,-25.77953,1007.658
14.009485245,-53.13667,-22.58602,10.45494,-1.003642,-0.5056453,0.1738701,36.80027,14.73649,-25.77953,1007.657
14.041658401,-33.11036,-21.04721,15.72562,-1.006448,-0.4566796,0.1646599,37.19048,17.02848,-24.96382,1007.655
14.076306343,-33.84752,-20.6921,13.82572,-1.197894,-0.4036795,0.1794152,36.4299,17.41548,-25.34434,1007.653
14.108479023,-34.09324,-11.45924,1.874753,-1.245696,-0.4696714,0.2140212,36.4299,17.41548,-25.34434,1007.651
14.143126965,12.16386,2.981904,-20.67887,-1.03057,-0.5651089,0.250269,36.05171,17.03971,-25.34055,1007.648
14.175300121,72.4271,9.314701,-44.82596,-0.8827025,-0.3893358,0.1655065,35.66903,18.56393,-25.79234,1007.648
14.209948063,66.65264,6.769745,-64.4991,-0.8146765,-0.1346547,0.06526941,35.66903,18.56393,-25.79234,1007.65
14.242120743,9.768077,-1.456972,-72.09869,-0.8931839,-0.09452014,-0.005003085,34.53495,18.1989,-25.78467,1007.65
14.276768207,-33.35608,-4.830517,-72.65028,-0.8667217,-0.184457,-0.006473449,33.01163,18.209,-26.6695,1007.65
14.308941841,-44.7207,-1.456972,-71.97611,-0.9372193,-0.2510465,-0.001062608,33.01163,18.209,-26.6695,1007.648
14.343589306,-43.18494,4.757455,-72.22126,-0.98202,-0.3174324,-0.01565185,31.13452,19.77175,-25.77471,1007.648
14.375761986,-16.0327,12.8658,-68.48276,-0.8627686,-0.3502586,0.02152475,29.64107,22.4774,-24.50491,1007.65
14.407935142,12.71674,22.69051,-60.76059,-0.7971113,-0.3348672,0.04562097,29.64107,22.4774,-24.50491,1007.648
14.442583084,34.34024,25.35384,-48.93219,-0.7994865,-0.327059,0.0495635,28.52587,24.41623,-23.16957,1007.644
14.474756241,41.95761,26.18243,-29.38163,-0.7705485,-0.2559843,0.03252744,27.77127,26.33263,-23.17501,1007.648
14.509404182,41.46617,18.66593,-9.58592,-0.810682,-0.3076347,0.0435621,27.77127,26.33263,-23.17501,1007.648
14.541576862,62.04536,17.12712,13.02899,-0.7987143,-0.3156436,0.01976643,27.38782,26.71345,-23.62122,1007.648
14.576224804,50.18929,13.22091,32.08925,-0.8245627,-0.3121909,0.136198,27.76576,26.70808,-23.62315,1007.648
14.608397961,31.14586,7.184041,48.45289,-0.8959661,-0.4009558,0.1607144,27.76576,26.70808,-23.62315,1007.648
14.643045902,30.16298,-1.397786,58.87168,-1.004291,-0.4197515,0.1712102,28.50905,25.16144,-24.51214,1007.648
14.675218105,27.76719,-14.24093,62.48762,-1.043761,-0.3740471,0.1560493,30.39143,22.84211,-24.95692,1007.648
14.709866047,8.232317,-16.96345,63.40692,-1.04691,-0.3007686,0.1523448,31.13529,20.91515,-25.78029,1007.648
14.742039204,-32.61891,-17.9104,63.9585,-1.08918,-0.2907174,0.1696921,31.13529,20.91515,-25.78029,1007.648
14.776687145,-70.46004,-21.22477,64.01979,-1.276319,-0.3195024,0.155777,32.2623,19.36882,-26.22493,1007.648
14.808859825,-85.08047,-14.41849,57.89109,-1.030284,-0.3428535,0.1185848,33.02922,18.60719,-25.33252,1007.65
14.843507767,-65.29988,-10.27554,39.50498,-1.054652,-0.3987602,0.09135929,33.02922,18.60719,-25.33252,1007.65
14.875680923,-27.09017,-6.546883,27.49273,-0.8617045,-0.2622485,0.1056263,33.41763,18.23125,-24.50378,1007.65
14.907854080,-32.55748,-2.108007,18.36096,-0.9039071,-0.1032343,0.116971,34.18533,18.61301,-23.61695,1007.65
14.942502022,-74.8216,-5.659107,4.877817,-0.8751099,-0.09853658,0.115295,34.18533,18.61301,-23.61695,1007.652
14.974674702,-78.56886,1.028799,0.5264386,-0.95013,-0.1860165,0.1152739,35.32518,18.98372,-23.17833,1007.654
15.009322643,-61.85979,-1.871267,0.7102996,-0.9283785,-0.2110142,0.1606548,34.97716,20.54205,-20.95244,1007.654
15.041495800,-50.49516,-0.2140862,1.261883,-0.87429,-0.2253785,0.1581036,34.97716,20.54205,-20.95244,1007.654
15.076143265,-34.64611,3.63294,2.426336,-0.8731935,-0.2731097,0.1374559,34.99501,21.32137,-19.61732,1007.654
15.108315945,0.1849319,2.745164,2.303762,-0.872354,-0.3080556,0.138124,35.38528,22.47078,-18.73228,1007.655
15.142963886,24.87996,0.2002089,1.690892,-0.8875957,-0.2255058,0.2589646,35.38528,22.47078,-18.73228,1007.657
15.175137043,14.12964,-2.522302,2.794059,-0.8322751,-0.1724634,0.3123877,35.00156,22.47046,-19.17662,1007.655
15.209784985,-6.08097,-6.250957,5.184252,-0.7875989,-0.2072191,0.3030083,35.00156,22.47046,-19.17662,1007.654
15.241958141,-15.29553,-10.39391,7.758307,-0.8659306,-0.2592492,0.2401683,35.00156,22.47046,-19.17662,1007.654
15.276606083,-16.15556,-11.57761,10.45494,-0.8934494,-0.3230809,0.1902529,34.99578,22.46478,-19.6229,1007.652
15.308778763,-12.4083,-10.0388,17.07393,-0.9981964,-0.3678217,0.1744735,35.7577,22.84086,-19.18235,1007.652
15.343426704,-12.83832,-11.40005,23.69293,-0.9183774,-0.4003277,0.1647847,35.7577,22.84086,-19.18235,1007.652
15.375599861,-11.48685,-9.802058,30.61837,-0.9495508,-0.4087864,0.1177699,35.0076,22.85728,-18.7322,1007.652
15.410247803,-12.22401,-5.540737,34.54073,-1.006616,-0.4311654,0.07425594,35.38476,21.70851,-18.72855,1007.65
15.442420006,-6.572414,-5.067257,33.68272,-1.311444,-0.523756,0.08163897,35.38476,21.70851,-18.72855,1007.65
15.474593162,18.3069,3.159459,10.20979,-1.103709,-0.498329,0.05099024,35.37899,21.70282,-19.17483,1007.65
15.509241104,50.25072,23.04562,-24.84639,-0.9583266,-0.3777122,-0.01251389,36.52385,20.93582,-18.28435,1007.65
15.541414261,100.7465,33.52137,-50.83209,-0.9749905,-0.3371131,0.01737827,36.52385,20.93582,-18.28435,1007.648
15.576061726,113.9541,30.38456,-76.38878,-1.096739,-0.1602975,0.01997199,36.51178,20.16219,-19.17319,1007.648
15.608234882,63.21254,21.1517,-94.89746,-1.092346,-0.030276,0.01521892,35.7446,20.54269,-20.06375,1007.648
15.642882824,10.32095,21.03333,-106.8484,-1.034573,-0.09176534,0.009352917,35.7446,20.54269,-20.06375,1007.652
15.675055981,6.389403,27.30695,-113.2836,-1.074932,-0.188109,0.01520123,34.59999,21.69082,-20.95609,1007.652
15.709703922,39.43896,32.92952,-107.8903,-0.9943658,-0.200072,0.02640083,32.72314,23.6347,-20.06316,1007.651
15.741876602,58.66668,33.46218,-98.75854,-0.9519132,-0.2118912,0.03169126,29.70771,27.11354,-19.61816,1007.651
15.776524067,57.31521,27.24776,-84.90768,-0.885503,-0.2063789,0.03400903,29.70771,27.11354,-19.61816,1007.651
15.808697700,41.34331,22.92725,-66.76672,-0.7738823,-0.1872258,0.00902542,28.18017,29.40476,-20.96043,1007.652
15.843345165,26.04714,16.59446,-43.35507,-0.7560503,-0.2107303,-0.006276728,25.91253,29.43697,-20.94882,1007.652
15.875517845,16.58685,13.04336,-19.69828,-0.672342,-0.2408512,-0.01887412,25.91253,29.43697,-20.94882,1007.652
15.910165787,11.30384,10.61677,8.800187,-0.7395129,-0.3172101,-0.01935885,25.52329,29.8121,-21.84131,1007.654
15.942338943,13.88391,7.657521,30.80223,-0.7616605,-0.3844878,-0.009102846,24.00023,30.20334,-22.728,1007.652
15.974512100,16.2797,11.03107,45.63369,-0.7923061,-0.4248658,0.02218019,24.00023,30.20334,-22.728,1007.652
16.009160042,30.16298,14.0495,53.23328,-0.9054691,-0.5692899,0.04036146,24.7556,29.43033,-22.72815,1007.651
16.041332722,69.47844,14.10869,59.11683,-0.9405524,-0.6208098,0.07159407,25.50518,28.65164,-23.17457,1007.652
16.075980663,97.85929,6.237081,63.4682,-1.04952,-0.6006497,0.160983,25.50518,28.65164,-23.17457,1007.652
16.108153820,88.21472,-8.914283,54.03001,-1.082573,-0.4616563,0.2255792,26.99178,25.55836,-24.95254,1007.654
16.142801762,38.45608,-15.12871,47.65616,-1.022938,-0.3192085,0.1683571,27.72279,21.71436,-26.65917,1007.654
16.174973965,-12.46973,-19.86351,43.18221,-1.319146,-0.2979064,0.1592467,27.72279,21.71436,-26.65917,1007.656
16.209621906,-29.85454,-16.43078,30.80223,-0.9325182,-0.3229136,0.1867628,28.08134,18.64287,-27.98506,1007.656
16.241795063,-35.81329,-10.68983,14.31602,-0.9140695,-0.2819888,0.1555981,28.83067,17.48305,-28.42963,1007.656
16.276443004,-25.92299,-7.020362,-0.8218759,-0.7895814,-0.2501254,0.08770128,28.83067,17.48305,-28.42963,1007.656
16.308616161,-20.0871,-7.612213,-2.966922,-0.8569075,-0.155963,0.04427982,28.83619,17.1076,-27.98149,1007.656
16.343263626,-39.2534,-6.842808,-1.55732,-0.9171758,-0.124493,0.05811562,28.08057,17.49947,-27.97948,1007.656
16.375436783,-48.3451,-2.936597,2.916632,-0.9462258,-0.1903503,0.05928975,28.08057,17.49947,-27.97948,1007.658
16.410084724,-29.11737,8.131001,8.12603,-0.9406957,-0.2724363,0.1183294,28.08661,17.88629,-27.53506,1007.658
16.442257881,-3.500893,15.35157,8.493752,-0.9353881,-0.3020528,0.1835876,27.72073,18.6653,-26.64429,1007.658
16.476905823,16.64828,15.70668,6.103558,-0.9137862,-0.2604541,0.178909,27.72073,18.6653,-26.64429,1007.659
16.509078026,19.7198,15.35157,5.306826,-0.8973772,-0.2075102,0.1314744,28.10419,18.28448,-26.19808,1007.659
16.541251659,8.539469,12.0964,6.042271,-0.9316754,-0.2210066,0.1215612,28.48162,17.51684,-26.19629,1007.659
16.575899124,4.546491,10.32085,6.716428,-0.9025663,-0.3117345,0.1451236,28.48162,17.51684,-26.19629,1007.659
16.608071804,19.41265,13.2801,7.880881,-0.9144051,-0.3935149,0.1696238,29.23724,17.12497,-26.1983,1007.659
16.642719746,52.95366,16.53527,9.106622,-0.9064888,-0.4210185,0.1958332,29.60863,15.97052,-26.64093,1007.658
16.674892902,71.75137,14.22706,8.432465,-0.9232039,-0.3741795,0.2166193,29.60863,15.97052,-26.64093,1007.658
16.709540844,74.82289,8.663666,5.797122,-0.9135639,-0.3893276,0.2096564,29.23043,15.59476,-26.63713,1007.658
16.741714001,80.78164,3.98805,8.7389,-0.9099197,-0.4011888,0.1844607,29.97925,13.67267,-27.07798,1007.658
16.776361942,83.30029,2.034944,15.48047,-0.9087374,-0.3763067,0.1388648,29.97167,10.99905,-27.51123,1007.658
16.808534622,79.79875,1.206354,19.70928,-0.9187598,-0.3929382,0.1156853,29.97167,10.99905,-27.51123,1007.663
16.843182564,87.47755,4.10642,24.48966,-0.9332734,-0.4444553,0.09756199,29.96409,8.325426,-27.94449,1007.663
16.910003662,126.8544,16.59446,19.15769,-0.9196,-0.4948057,0.1230473,30.33445,5.646439,-28.37968,1007.658
16.942175865,154.621,24.88036,10.82266,-0.8744632,-0.4696263,0.08138174,30.33817,2.603055,-27.91851,1007.658
16.976823807,181.3432,28.07635,7.268011,-1.051804,-0.4254061,0.03664711,31.47438,-2.425623,-27.45353,1007.658
17.008996964,184.7833,20.61904,-1.434746,-0.9798689,-0.3119045,-0.05274031,31.47438,-2.425623,-27.45353,1007.662
17.041170120,177.6574,21.80274,-11.17938,-0.8962865,-0.2163744,-0.1992605,33.01138,-6.611953,-25.27315,1007.662
17.075818062,189.3906,23.40073,-16.32749,-0.9141948,-0.1957659,-0.3078554,33.80436,-11.53763,-22.12887,1007.662
17.107990742,236.3234,31.44989,-15.77591,-0.9319451,-0.1736004,-0.340283,33.80436,-11.53763,-22.12887,1007.662
17.142638683,287.7407,36.42144,-14.12116,-0.9867958,-0.07485869,-0.4112571,36.10486,-14.20367,-19.44976,1007.662
17.174811840,313.2343,40.56439,-18.47254,-0.9980561,0.08369984,-0.3761048,37.29827,-17.58907,-14.65724,1007.663
17.209459782,301.8083,46.36452,-9.463346,-0.9219161,0.2157941,-0.3805463,37.29827,-17.58907,-14.65724,1007.663
17.241632462,266.4243,51.21769,1.139309,-0.9548497,0.2360499,-0.418632,38.90589,-19.80151,-7.130794,1007.662
17.276279926,247.1352,57.31375,11.86454,-0.9481184,0.1750322,-0.4592038,39.74081,-21.25801,-0.9430428,1007.662
17.308453083,230.1804,58.08315,32.08925,-0.9780185,0.2852013,-0.3539047,39.74081,-21.25801,-0.9430428,1007.662
17.343101024,176.9202,51.63198,50.53665,-1.007586,0.2951277,-0.2185871,40.56602,-21.20052,4.408457,1007.662
17.375274181,114.3841,38.67047,59.30069,-0.9612066,0.1653938,-0.2697353,39.88469,-20.73556,10.14836,1007.662
17.409921646,104.3095,28.31309,68.00345,-1.030105,0.03944081,-0.2195208,39.88469,-20.73556,10.14836,1007.662
17.442094803,85.81893,6.71056,62.36504,-1.031391,0.02450754,-0.01671018,39.16952,-20.3039,13.27433,1007.663
17.476742744,22.85275,-20.15944,51.33338,-0.8110762,0.1692519,-0.1761505,36.55649,-22.13869,15.9111,1007.665
17.508915901,4.239339,-25.07179,43.48864,-0.8787341,0.1547932,-0.2064863,36.55649,-22.13869,15.9111,1007.665
17.543563843,22.05416,-30.28007,30.18936,-0.950865,0.05271929,-0.1459229,35.8001,-22.89022,15.91869,1007.667
17.575736523,44.47626,-27.0249,25.89927,-0.8520228,0.2613372,-0.1571753,35.79381,-23.65817,15.47613,1007.667
17.607909679,23.71278,-20.51455,18.60611,-0.8238828,0.2687476,-0.1221908,35.79381,-23.65817,15.47613,1007.667
17.642557621,95.77066,-12.16946,29.27005,-0.9393816,0.1480879,-0.04498789,36.1652,-24.81262,15.0335,1007.667
17.674730778,122.4315,-10.45309,32.94727,-0.9662935,0.3173299,-0.01924156,35.4151,-24.7962,15.48365,1007.669
17.709377766,79.00016,-7.967323,37.23736,-0.8802652,0.5471733,-0.05574539,35.4151,-24.7962,15.48365,1007.67
17.741550922,67.5741,-11.51842,38.27924,-0.9542727,0.3746139,-0.01020548,35.44476,-23.62438,17.70947,1007.676
17.776198864,123.5986,-5.244812,48.51418,-0.9213266,0.4236692,-0.2366482,35.46235,-23.22619,19.04644,1007.676
17.808372021,122.0014,5.822785,45.44983,-0.8852046,0.5095373,-0.2189254,35.46235,-23.22619,19.04644,1007.678
17.843019962,132.4446,11.26781,43.79507,-0.9216237,0.5534791,-0.3348672,34.3519,-22.80621,20.83551,1007.68
17.875192642,55.65659,11.56373,20.50601,-1.032558,0.4609263,-0.1345653,34.38074,-21.6352,22.99757,1007.68
17.909840584,53.56796,-1.516157,4.877817,-1.003518,0.07820967,-0.2102913,33.2771,-19.685,25.22548,1007.681
17.942013741,79.00016,-8.499988,-7.502162,-0.9290873,0.4497889,-0.1274286,33.2771,-19.685,25.22548,1007.681
17.976661682,62.78252,-4.593777,-5.050681,-0.9433225,0.6741594,-0.2459459,33.66081,-19.68468,25.66982,1007.679
18.008833885,58.72811,1.502279,0.2200035,-0.8803154,0.3549287,-0.3754495,34.42953,-17.77838,26.54921,1007.679
18.043481827,62.35251,-0.2732712,-17.12422,-1.024405,0.1803229,-0.07381275,34.42953,-17.77838,26.54921,1007.677
18.075654984,64.31829,-21.40232,-37.16508,-0.9781833,0.1461549,-0.1318837,34.82006,-16.24785,27.4324,1007.677
18.107828617,40.729,-34.83732,-51.2611,-0.895063,0.1406824,-0.2845342,34.82712,-14.33649,27.86937,1007.677
18.142476082,28.25863,-21.93499,-60.63801,-0.8739622,0.130567,-0.3238565,34.82712,-14.33649,27.86937,1007.677
18.174648762,70.46133,-4.948887,-54.63189,-0.7076171,0.3549161,-0.2657191,36.71336,-10.93882,27.39668,1007.679
18.209296703,18.36834,-20.33699,-45.37754,-0.9688629,0.1489424,0.04687415,37.84872,-8.668125,27.37971,1007.679
18.241469860,36.4903,-29.80659,-58.98326,-1.105294,0.03211781,-0.3364875,37.84872,-8.668125,27.37971,1007.679
18.276117801,49.94357,-21.93499,-57.26723,-1.162244,0.1450559,-0.1412612,38.20587,-5.266032,25.57591,1007.679
18.308290481,54.79657,-32.17399,-83.13036,-1.329347,-0.1347382,-0.08850671,39.71891,-3.381838,25.55887,1007.679
18.342938423,35.0774,-26.84734,-100.6584,-1.023155,-0.02331166,-0.233117,39.71891,-3.381838,25.55887,1007.681
18.375111580,49.51355,-25.95957,-115.2448,-0.875909,-0.1295787,-0.1972891,40.07631,0.4013882,23.7532,1007.683
18.409759045,75.99007,-13.29397,-85.64312,-0.7363002,0.06259868,-0.1112116,40.82351,4.635272,22.836,1007.684
18.441932678,74.6386,-10.63065,-86.1947,-0.8986285,-0.3086723,-0.08480168,40.82351,4.635272,22.836,1007.684
18.476579666,108.1182,7.361596,-64.07009,-0.6439845,-0.01749658,-0.1787672,41.19406,9.574081,21.98107,1007.684
18.508752823,51.78648,11.26781,-70.75037,-0.9862363,-0.4801763,0.02594378,40.42342,13.3791,20.62748,1007.684
18.543400764,70.52276,15.2332,-62.17019,-0.937462,-0.1830466,-0.1209996,40.42342,13.3791,20.62748,1007.686
18.575573921,18.98264,11.6821,-67.25701,-1.01325,-0.4922903,0.01115399,39.65303,17.56525,19.27205,1007.688
18.610221863,12.71674,13.63521,-63.15078,-0.8888628,-0.3280956,-0.01660901,38.88792,20.99482,18.3666,1007.69
18.642394543,-48.28367,16.89038,-60.02514,-0.9057474,-0.5598342,-0.05547589,38.88792,20.99482,18.3666,1007.686
18.674567699,6.757986,21.38844,-57.81881,-0.8942879,-0.5296571,-0.10016,37.389,22.93333,19.2576,1007.686
18.709215641,-8.722477,28.60901,-52.1804,-0.7552576,-0.3946207,0.002803859,35.51162,24.11494,20.15424,1007.686
18.741388798,-5.466666,39.08476,-48.62576,-0.7425021,-0.6019612,-0.06313042,35.51162,24.11494,20.15424,1007.686
18.776035786,-11.05683,51.69117,-40.90359,-0.7985194,-0.5203501,-0.09037288,34.01792,26.43946,21.4259,1007.688
18.808208942,-12.10115,59.50359,-40.4133,-0.825009,-0.6227866,-0.1733921,32.89643,27.61034,22.31868,1007.69
18.842856884,-13.39119,67.02009,-33.42657,-0.7639964,-0.5216026,-0.1046833,30.27448,28.43292,24.11362,1007.69
18.875030041,-72.42581,78.26524,-26.1947,-0.7142696,-0.5885519,-0.1943872,30.27448,28.43292,24.11362,1007.69
18.909677982,-15.8484,76.96317,-5.969986,-0.7674016,-0.7200985,-0.3559637,28.79161,28.48282,26.35276,1007.691
18.941850662,-8.661047,78.50198,-0.2702928,-0.7018214,-0.4814432,-0.3329181,26.17467,28.16769,28.59956,1007.691
18.976498604,-21.80716,76.78561,11.49682,-0.6618008,-0.6222438,-0.4385642,26.17467,28.16769,28.59956,1007.691
19.008671761,-1.53512,72.8794,20.19957,-0.6904037,-0.5319853,-0.4597253,24.31277,27.84101,30.77874,1007.691
19.043319702,-11.36399,60.03626,19.34155,-0.6894571,-0.5391957,-0.5759554,22.81206,27.11159,31.68276,1007.691
19.075492382,5.83653,45.77267,20.44472,-0.6665632,-0.6229678,-0.5985496,22.81206,27.11159,31.68276,1007.693
19.110139847,11.4267,20.32311,12.41612,-0.643696,-0.5201811,-0.5983976,21.3229,26.39353,33.47934,1007.695
19.142313480,9.460925,6.414635,6.839002,-0.6953793,-0.5445461,-0.5812463,20.5615,26.77972,33.03506,1007.695
19.176960945,12.34816,-4.297852,0.7102996,-0.6952554,-0.5130388,-0.5236297,20.5615,26.77972,33.03506,1007.697
19.209134579,17.20116,-12.11027,0.6490126,-0.6706631,-0.5033135,-0.505463,20.56098,26.01745,33.03879,1007.697
19.241306782,20.88698,-12.4062,-0.1477187,-0.7310778,-0.5792916,-0.5151656,20.17778,26.7794,32.59072,1007.697
19.275954723,14.37536,-11.40005,-7.563448,-0.6831362,-0.5112759,-0.4760103,20.17778,26.7794,32.59072,1007.698
19.308127880,23.65135,-3.291707,-12.65027,-0.6901932,-0.6284704,-0.4460627,21.6785,27.50883,31.6867,1007.698
19.342775822,19.84266,0.732874,-18.53382,-0.7226035,-0.5951657,-0.4281337,21.29556,28.65191,31.23677,1007.698
19.374948501,19.59694,1.443094,-27.97203,-0.6695177,-0.5602255,-0.457743,21.29556,28.65191,31.23677,1007.698
19.409596443,26.53858,-4.712147,-35.57162,-0.6028616,-0.5476823,-0.4876635,21.284,28.64054,30.34421,1007.698
19.441769600,27.64433,-2.167192,-40.22943,-0.7300256,-0.6513162,-0.4131034,20.51181,30.15876,29.00179,1007.698
19.476417541,39.07038,-3.942742,-41.45517,-0.5212887,-0.7660685,-0.4309391,20.51181,30.15876,29.00179,1007.7
19.508590698,32.37447,0.4369489,-37.5328,-0.6122159,-0.711641,-0.4180739,19.75779,31.69484,29.06197,1007.702
19.543237686,38.27179,0.732874,-40.10686,-0.6168225,-0.7577534,-0.4213031,18.60771,33.28195,27.72118,1007.7
19.575410843,42.20333,-2.167192,-35.26519,-0.5769953,-0.8021656,-0.3642009,18.60771,33.28195,27.72118,1007.7
19.610058784,32.55876,0.732874,-39.00369,-0.5289726,-0.6190241,-0.3130113,17.45707,34.04327,26.38442,1007.7
19.642231941,30.16298,-5.303997,-23.55936,-0.5682091,-0.8713949,-0.2723098,16.31273,35.57253,25.49021,1007.7
19.676879883,19.16693,-3.824372,-13.01799,-0.5865458,-0.7971284,-0.2835764,16.31273,35.57253,25.49021,1007.7
19.709052563,13.69962,-4.771332,-10.56651,-0.4165613,-0.8243831,-0.3094872,15.92451,37.47221,24.59028,1007.7
19.741225719,7.679442,-2.640672,-1.434746,-0.5211937,-0.8124794,-0.2809388,15.47203,37.4671,23.69998,1007.7
19.775873661,-5.098084,-0.6283813,5.4294,-0.4909317,-0.7879618,-0.292105,15.47203,37.4671,23.69998,1007.7
19.808046341,-13.02261,0.1410238,12.9677,-0.4939861,-0.8127244,-0.2951726,15.0946,38.23473,23.69819,1007.7
19.842693806,-19.41137,-0.2140862,24.12194,-0.5159456,-0.7836008,-0.3091876,15.0946,38.23473,23.69819,1007.7
19.874867439,-15.11124,-1.101861,31.16995,-0.5525052,-0.7818947,-0.3632984,15.0946,38.23473,23.69819,1007.7
19.909514904,-9.951085,-4.179482,33.56014,-0.5862444,-0.7576104,-0.3830273,15.47228,37.84823,23.69812,1007.7
19.941688538,-1.657981,-10.51228,33.68272,-0.5108377,-0.7432069,-0.4178342,17.05782,36.69383,24.5882,1007.7
19.976336002,0.6763752,-24.77587,39.07597,-0.6997162,-0.7181502,-0.3744132,17.8074,35.91514,24.14178,1007.698
20.008508682,-22.66718,-30.576,36.56321,-0.6723262,-0.7897975,-0.3323615,17.8074,35.91514,24.14178,1007.698
20.043156624,14.62108,-32.82503,35.76648,-0.5859233,-0.7602198,-0.3435279,19.69684,35.50716,24.13397,1007.698
20.075329781,30.83871,-28.38615,38.76954,-0.6655869,-0.6420556,-0.2405905,21.20282,35.48,23.67995,1007.698
20.109977722,28.13577,-17.02263,43.12092,-0.6909583,-0.6854469,-0.2190215,21.20282,35.48,23.67995,1007.698
20.142150402,28.62721,-9.624503,46.06269,-0.7012984,-0.685926,-0.2878549,23.07467,34.67385,22.33516,1007.698
20.176798344,12.77817,-3.054967,49.43348,-0.7248034,-0.7347615,-0.2157382,24.95338,34.25531,21.49855,1007.694
20.208971500,5.160795,1.028799,50.59793,-0.7592733,-0.6497658,-0.2937638,24.95338,34.25531,21.49855,1007.698
20.241144657,-1.719411,4.81664,54.33644,-0.7411236,-0.6237322,-0.1790026,26.08694,33.85807,21.49461,1007.698
20.275791645,8.232317,13.39847,59.79099,-0.7574956,-0.5011817,-0.09589964,26.83679,33.46051,21.04632,1007.698
20.307964802,11.61099,16.4169,58.19753,-0.8439133,-0.5761161,-0.2388649,26.83679,33.46051,21.04632,1007.697
20.342612743,17.75403,13.45765,52.37526,-0.7615677,-0.4490149,-0.2573834,28.72433,31.46367,20.98251,1007.697
20.374785900,66.22263,27.4845,51.76239,-0.8613086,-0.2439216,0.02768977,29.87027,31.07861,21.93488,1007.694
20.409433842,28.32006,17.6006,39.56627,-0.8267798,-0.3890482,-0.2649565,29.87027,31.07861,21.93488,1007.694
20.441606521,29.42581,24.7028,30.98609,-0.8473287,-0.4614928,-0.294282,30.9865,30.66432,20.5921,1007.694
20.476254463,-37.47192,43.64201,35.03103,-1.035525,-0.6023498,0.2013263,31.74161,29.51018,20.59381,1007.694
20.508427620,-38.02479,4.757455,27.86045,-0.9080783,-0.2158679,-0.2671082,31.74161,29.51018,20.59381,1007.693
20.543075561,32.19017,18.96186,17.31908,-0.9498245,-0.3058856,-0.1970889,31.75368,30.28382,21.48265,1007.693
20.575248241,-9.15249,9.610626,10.94523,-0.687529,-0.3697559,-0.2540469,32.50301,29.12399,21.03809,1007.693
20.609895706,17.87689,19.02104,8.493752,-0.902294,-0.4050004,-0.2422114,32.50301,29.12399,21.03809,1007.694
20.642068863,13.4539,15.58831,4.081086,-0.9401935,-0.3664227,-0.2993797,32.88621,28.36204,21.48616,1007.694
20.676716804,21.9313,17.89653,-3.886227,-0.7677893,-0.3666654,-0.2826744,32.13611,28.37847,21.93631,1007.698
20.708889961,18.3069,27.01102,-5.357116,-0.7314943,-0.3971429,-0.2461504,32.13611,28.37847,21.93631,1007.7
20.743537426,6.020821,31.0356,-1.925042,-0.9093834,-0.5477787,-0.3199603,32.14106,28.38334,22.31883,1007.698
20.775710583,17.63117,26.83347,-3.641079,-0.821616,-0.2655043,-0.2909782,31.38049,28.77034,21.93831,1007.698
20.807883739,13.39247,33.16626,-11.97611,-0.9147862,-0.6376528,-0.3968067,31.38049,28.77034,21.93831,1007.698
20.842531681,35.13884,24.40688,-6.705431,-0.6904379,-0.2304934,-0.2610656,30.25817,29.9404,22.76733,1007.698
20.874704361,44.53769,39.38069,-19.02412,-0.9029635,-0.6125395,-0.2795841,29.89179,29.95714,23.66183,1007.698
20.909352303,95.15636,19.13941,-17.2468,-0.7254682,-0.15103,-0.1125918,29.89179,29.95714,23.66183,1007.698
20.941525459,95.40208,31.56826,-26.43985,-0.8953056,-0.728659,-0.4155727,28.37477,30.73519,23.21957,1007.698
20.976173401,208.434,-0.7467514,-29.13648,-0.9851784,-0.4596474,-0.2067026,27.22547,32.25959,21.94284,1007.7
21.008345604,164.1427,-11.16331,-35.44905,-0.7927551,-0.4764204,-0.1806804,25.28009,35.34218,17.47451,1007.7
21.042993546,86.00323,-8.795913,-71.42453,-0.8518597,-0.7473494,-0.2305624,25.28009,35.34218,17.47451,1007.7
21.075166702,108.8553,-33.23932,-72.52769,-0.745416,-0.4660136,-0.1853743,23.32394,38.35068,12.17767,1007.701
21.109814644,108.4868,-57.91948,-63.45722,-0.6573886,-0.606551,-0.03697049,20.63368,40.62958,8.609802,1007.701
21.141987801,183.8004,-106.2144,-44.02923,-0.718128,-0.8172939,0.03801481,20.63368,40.62958,8.609802,1007.701
21.176635742,241.0536,-150.6624,-37.59409,-0.5799917,-0.8059345,0.1524994,18.29278,42.11324,2.876068,1007.7
21.208808422,128.0216,-155.5155,-50.34179,-0.5771012,-0.4116524,0.3639467,15.89963,43.16459,-6.872329,1007.7
21.243456364,-72.67153,-174.2772,-56.22535,-0.4524269,-0.560437,0.3475788,15.89963,43.16459,-6.872329,1007.7
21.275629520,-64.62415,-178.065,-58.3091,-0.318484,-0.9667888,0.1067992,12.36615,42.38413,-12.14249,1007.7
21.307802200,10.87383,-173.3894,-52.6707,-0.2400187,-0.6927912,0.2524437,9.354964,43.58185,-11.24004,1007.7
21.342449665,-107.134,-156.6992,-57.20594,-0.2084846,-0.5646375,0.4006978,9.354964,43.58185,-11.24004,1007.7
21.374623298,-205.7298,-143.7969,-86.13342,-0.394213,-1.09133,0.2727689,4.819432,43.26514,-11.21498,1007.7
21.409270763,-143.5622,-132.7885,-98.14568,-0.1080795,-1.22357,0.2400889,1.126397,44.16555,-4.568905,1007.7
21.441443443,-130.6004,-111.5411,-92.44598,-0.09777253,-0.9088755,0.269097,1.126397,44.16555,-4.568905,1007.7
21.476091385,-173.356,-89.40591,-75.59205,-0.1104277,-0.7955528,0.1019315,-2.9501,45.44678,1.630959,1007.7
21.508264542,-155.8483,-61.82568,-42.55834,0.07466895,-1.119063,-0.1892524,-6.649686,45.19811,7.836334,1007.698
21.542912483,-54.67243,-40.75582,-3.150783,0.1291145,-1.26746,-0.2006238,-6.649686,45.19811,7.836334,1007.698
21.575085640,13.82248,-25.19016,1.813466,-0.0184941,-1.294988,-0.2148974,-8.461117,42.6358,14.0432,1007.698
21.609733581,95.21779,-14.06338,8.12603,-0.2223786,-1.15607,-0.2701716,-8.444555,41.50945,15.38763,1007.7
21.641906261,157.9997,-6.014217,23.32521,-0.02144506,-0.8386923,-0.1479662,-8.444555,41.50945,15.38763,1007.696
21.676554203,134.2261,11.03107,27.43144,-0.1458132,-0.6341682,0.1103401,-7.727525,42.60313,12.31797,1007.696
21.708727360,95.03349,2.922719,24.12194,-0.246296,-0.6419618,0.2938913,-7.423413,44.42952,6.505081,1007.698
21.743374824,68.00411,-11.87353,20.75116,-0.3031741,-0.5627337,0.3977411,-7.423413,44.42952,6.505081,1007.698
21.775547504,2.949301,-20.21862,12.35483,-0.1675101,-0.5204804,0.5515453,-7.101657,45.51152,2.098513,1007.696
21.810195446,-37.0419,-30.28007,13.70315,-0.2574195,-0.7381196,0.4686502,-6.362598,46.246,0.7520809,1007.698
21.842368603,-47.97652,-30.51682,-1.55732,-0.1891238,-0.945448,0.5660776,-6.362598,46.246,0.7520809,1007.692
21.874541759,-22.60575,-24.6575,-35.38776,0.007657725,-1.632351,0.6800423,-5.594906,46.62776,1.638914,1007.694
21.909189224,-13.26833,-17.08182,2.610197,-0.2720775,-1.512851,0.2604422,-5.583349,46.63913,2.531477,1007.694
21.941362381,123.5986,-12.87968,11.37424,0.1335309,-1.096054,0.1260977,-5.583349,46.63913,2.531477,1007.7
21.976010323,138.0962,0.2002089,15.66433,0.04522971,-0.6039146,0.06542698,-5.594648,47.00889,1.637054,1007.701
22.008183479,44.29197,16.77201,4.632669,0.02633535,-0.8649344,0.3825351,-4.895982,46.56099,-2.764004,1007.7
22.042831421,75.99007,17.36386,-15.3469,-0.1622537,-0.9885912,0.5905351,-4.942206,46.51551,-6.334249,1007.7
22.075003624,25.3714,7.184041,-11.5471,-0.1013448,-0.6515573,0.5908173,-4.942206,46.51551,-6.334249,1007.7
22.109651566,-9.643933,0.496134,-9.095624,-0.02440531,-0.779193,0.5167472,-5.354814,46.48677,-9.009999,1007.698
22.141824722,-23.15862,-4.061112,-9.769781,-0.06257357,-0.9589121,0.4751339,-5.739304,45.34305,-9.448763,1007.696
22.176472664,1.35211,3.041089,-7.318301,-0.1333048,-1.026198,0.4530671,-5.739304,45.34305,-9.448763,1007.696
22.208645344,24.26566,2.863534,-6.766717,-0.01740754,-0.9109783,0.4259436,-5.715677,46.12806,-7.667363,1007.696
22.243293285,17.50831,7.716706,-1.189598,-3.602682E-05,-0.7710838,0.4510348,-5.355071,46.10564,-9.008138,1007.696
22.275466442,0.5535144,7.361596,-0.8218759,-0.01469276,-0.8145477,0.4700932,-5.355071,46.10564,-9.008138,1007.696
22.310114384,16.15684,4.047235,1.690892,-0.06693772,-0.907644,0.5117472,-6.489405,45.35947,-8.998615,1007.694
22.342287063,13.51533,0.732874,0.4038645,-0.09932368,-0.8405048,0.5742988,-6.116986,45.72955,-9.44869,1007.694
22.376934528,-10.50396,-7.138732,-3.763653,-0.1114259,-0.7509326,0.6006961,-6.116986,45.72955,-9.44869,1007.694
22.409108162,-21.62286,-9.091838,-3.089496,-0.04794912,-0.8482988,0.4778373,-5.750034,45.33249,-10.27757,1007.689
22.441281319,-12.03972,-7.316288,-0.6993019,-0.04133253,-0.8993034,0.476873,-5.349807,45.34905,-8.558136,1007.689
22.475929260,-5.896679,-5.244812,0.4038645,-0.0007023225,-0.8911313,0.4298073,-5.349807,45.34905,-8.558136,1007.689
22.508101463,0.3692232,-1.220231,0.8941607,-0.01547212,-0.9081017,0.4225753,-6.48337,45.74629,-8.554195,1007.689
22.542749405,14.8668,2.271684,3.774651,-0.03907045,-0.8487398,0.4893188,-6.483626,45.36516,-8.552335,1007.69
22.574922562,4.915073,1.502279,3.039207,-0.05129481,-0.8347153,0.5377485,-6.483626,45.36516,-8.552335,1007.692
22.609570503,-4.176628,-0.5100113,0.3425775,-0.05627088,-0.8541213,0.5357069,-6.116986,45.72955,-9.44869,1007.692
22.641743183,-5.650958,1.383909,-0.02514464,-0.05486627,-0.8788072,0.4824703,-6.116417,45.34923,-9.383076,1007.692
22.676391125,-0.3065114,0.02265382,-0.7605889,-0.05677355,-0.8758554,0.4863684,-6.116417,45.34923,-9.383076,1007.692
22.708564281,-1.412259,1.620649,0.7715867,-0.04368253,-0.8668103,0.4718609,-5.355585,45.34337,-9.004416,1007.692
22.743212223,0.06207109,-0.4508263,1.016735,-0.07453423,-0.8576053,0.5127125,-6.099909,45.36547,-8.107988,1007.692
22.775384426,-5.528097,-1.397786,-0.4541538,-0.04705343,-0.8686866,0.4781428,-6.099909,45.36547,-8.107988,1007.692
22.810032368,1.106388,-0.1549012,0.5264386,-0.05531444,-0.8623273,0.4792363,-5.733269,45.72987,-9.004343,1007.692
22.842205524,1.843553,-0.0957162,-0.5767279,-0.05460857,-0.8732536,0.5104696,-6.105172,46.12206,-8.55799,1007.692
22.876853466,-2.087993,-0.4508263,-0.3315798,-0.05249259,-0.8658607,0.5264168,-6.105172,46.12206,-8.55799,1007.692
22.909026623,-5.098084,-0.2140862,-0.1477187,-0.06311573,-0.8598647,0.4788474,-5.733525,45.34874,-9.002482,1007.692
22.941199303,-3.562323,-1.101861,-0.3315798,-0.05885283,-0.8861165,0.4761812,-6.10543,45.74092,-8.556129,1007.692
22.975847244,-1.412259,-0.6283813,0.03614238,-0.03683625,-0.8808546,0.4803572,-6.10543,45.74092,-8.556129,1007.692
23.008020401,7.31086,0.969614,0.9554477,-0.05875161,-0.8792545,0.4849129,-6.099652,45.74661,-8.109849,1007.692
23.042668343,2.949301,0.496134,0.7715867,-0.05993662,-0.8499794,0.5039633,-5.72749,45.73555,-8.558064,1007.692
23.074841023,0.3077928,0.02265382,0.4038645,-0.04595139,-0.8724453,0.4949715,-5.72749,45.73555,-8.558064,1007.692
23.109488487,2.642148,-0.0957162,-0.3928668,-0.04789287,-0.8758111,0.4978539,-6.48337,45.74629,-8.554195,1007.692
23.141662121,-1.903702,-0.3916413,-0.4541538,-0.06086005,-0.8431568,0.50692,-6.111208,45.73524,-9.00241,1007.692
23.176309586,-2.825158,0.02265382,-0.02514464,-0.04660752,-0.8808165,0.4790027,-6.099909,45.36547,-8.107988,1007.692
23.208482266,-2.395145,-0.5100113,-0.3928668,-0.0590612,-0.8713527,0.5023329,-6.099909,45.36547,-8.107988,1007.692
23.243130207,-5.343805,-1.042676,-0.3315798,-0.05662392,-0.8621795,0.4975657,-5.727233,46.11669,-8.559924,1007.692
23.275303364,-3.13231,0.851244,0.09742941,-0.05454479,-0.8808953,0.4636521,-6.477849,45.37085,-8.106054,1007.692
23.309951305,-3.992336,0.3185789,-0.6993019,-0.05472081,-0.8632008,0.4922376,-6.477849,45.37085,-8.106054,1007.692
23.342124462,-9.582503,-0.3916413,-0.6380149,-0.05011668,-0.8799171,0.4674748,-5.721713,45.74124,-8.111782,1007.692
23.376771927,-4.60664,-0.0957162,0.09742941,-0.03909172,-0.9014308,0.4541806,-5.721713,45.74124,-8.111782,1007.694
23.408945083,0.1235015,0.02265382,-0.2702928,-0.05441479,-0.8807771,0.4790758,-5.721713,45.74124,-8.111782,1007.692
23.441118240,-4.115197,-0.1549012,-0.2090057,-0.06082627,-0.8600136,0.4609909,-6.099652,45.74661,-8.109849,1007.692
23.475766182,-1.59655,0.08183884,-0.1477187,-0.05987352,-0.884218,0.4699404,-5.715935,45.74693,-7.665503,1007.692
23.507938385,-0.6136635,0.02265382,-0.1477187,-0.06232758,-0.882768,0.4675653,-5.715935,45.74693,-7.665503,1007.692
23.542586326,0.0006406754,0.1410238,0.03614238,-0.05295924,-0.8769236,0.476202,-5.715935,45.74693,-7.665503,1007.692
23.574759483,-3.808045,-0.8059363,-0.3928668,-0.05675167,-0.8666478,0.4845161,-6.093616,46.13343,-7.665429,1007.692
23.609407425,-11.24112,-2.699857,-1.067024,-0.05808989,-0.8607234,0.4966275,-6.093616,46.13343,-7.665429,1007.692
23.641580105,-25.80013,-5.777477,-2.966922,-0.06519619,-0.8551734,0.5193934,-5.715935,45.74693,-7.665503,1007.692
23.676228046,-75.43591,-20.63292,-17.00165,-0.1350542,-0.7829925,0.7081382,-6.08206,46.14479,-6.772867,1007.692
23.708401203,-200.8154,-33.53525,-42.49706,-0.117015,-0.7486892,0.5732928,-6.08206,46.14479,-6.772867,1007.692
23.743049145,-377.9807,-42.8273,-113.0384,-0.145909,-1.140515,0.2859525,-6.413775,46.19564,-3.200688,1007.694
23.809869289,-227.6605,47.07474,-248.8505,0.256659,-2.167255,-0.6738794,-7.405308,45.58998,7.838341,1007.694
23.842042923,-133.4262,84.42048,-298.1252,0.1975387,-1.571049,-0.5643007,-12.14884,41.63704,21.20861,1007.688
23.876690388,-134.1019,115.4334,-321.0466,0.1158358,-0.9554741,-0.5382195,-19.70858,32.22085,26.58606,1007.692
23.908863544,-108.854,142.481,-302.9056,0.4292487,-0.6058869,-0.6356258,-19.70858,32.22085,26.58606,1007.692
23.943511486,-63.76413,186.5738,-248.2989,0.6612219,-0.3889008,-0.5458676,-28.39632,22.44622,27.57148,1007.686
23.975684166,0.0006406754,208.4131,-214.591,0.4979336,-0.4392492,-0.3823252,-35.26499,10.67087,23.20116,1007.69
24.007857323,18.55263,203.3824,-195.8985,0.4166899,-0.03413011,-0.1415655,-35.26499,10.67087,23.20116,1007.689
24.042505264,-34.76898,192.374,-159.7391,0.5307939,0.2377326,0.06494278,-39.50861,1.440417,17.08323,1007.687
24.074677944,-40.42057,174.3817,-126.8893,0.8368461,0.2169801,0.02576595,-42.26226,-5.865056,9.162823,1007.687
24.109325886,-6.01954,167.3387,-83.31422,0.9636272,0.4085349,0.211732,-42.72412,-11.65547,3.008495,1007.687
24.141499043,-25.37012,160.1773,-56.89951,0.8785596,0.4508101,0.2890302,-42.72412,-11.65547,3.008495,1007.687
24.176146984,-57.86681,156.9221,-31.58796,0.8798498,0.4414943,0.2147134,-42.81254,-15.55126,-3.603354,1007.683
24.208319187,-95.89223,173.9082,-6.337708,0.8645324,0.3664812,0.170376,-41.7656,-17.17636,-10.23217,1007.683
24.242967129,-81.88609,197.6414,25.59283,0.5496547,0.09903243,0.344147,-41.7656,-17.17636,-10.23217,1007.683
24.275140285,-84.58904,186.0412,35.15361,0.489536,0.07409824,0.3449844,-41.09582,-17.65269,-16.86463,1007.681
24.309788227,-89.74919,225.991,67.88087,0.5886286,-0.01720291,0.2763092,-38.1726,-14.74728,-24.80053,1007.685
24.341961384,-172.8645,-36.31694,28.77976,-3.494494,-3.545743,-2.025868,-38.1726,-14.74728,-24.80053,1007.682
24.376608848,91.53196,-34.95569,-7.502162,2.922029,-0.4183869,0.6758703,-34.1169,-12.62105,-32.80226,1007.682
24.408782005,9.952369,33.93567,-11.1181,0.2701082,0.1838473,0.7773982,-33.7141,-8.793152,-31.10143,1007.682
24.443429947,-16.76986,-20.86966,14.68374,0.1898293,0.07183148,0.8022879,-33.7141,-8.793152,-31.10143,1007.682
24.475603104,-30.16169,-25.4269,23.63165,0.3975438,-0.04634307,0.7805774,-32.96606,-11.85864,-31.5367,1007.682
24.510251045,-26.5373,-21.81662,18.85126,0.834663,-0.2501259,0.6311828,-33.7159,-11.46109,-31.08841,1007.68
24.542423248,51.54076,-21.52069,16.09334,0.5580916,-0.2845003,0.779044,-33.7159,-11.46109,-31.08841,1007.674
24.574596882,11.67242,-29.98415,19.28027,0.6692423,-0.03150513,0.9916902,-34.46472,-9.538998,-30.64756,1007.672
24.609244347,-1.289398,-40.16397,23.44779,0.6324124,-0.3640788,0.8928923,-35.57568,-9.881285,-28.85478,1007.672
24.641417026,36.18315,-52.23771,31.9054,0.6073999,-0.2746458,0.892899,-35.57568,-9.881285,-28.85478,1007.676
24.676064968,64.7483,-73.54432,34.84717,0.4638145,-0.3987239,0.8233259,-35.94155,-9.10228,-27.96401,1007.675
24.708238125,144.4236,-86.50584,53.41714,0.671212,-0.2043549,0.6706812,-37.41864,-9.046696,-25.27859,1007.675
24.742886066,106.951,-91.18146,65.79711,0.5781143,0.114209,0.820222,-37.41864,-9.046696,-25.27859,1007.675
24.775058746,107.8725,-110.8901,91.47637,0.5832891,-0.06528537,0.7097622,-39.2632,-9.356321,-21.76057,1007.669
24.809706688,152.1024,-111.3044,131.742,0.7944055,-0.01658357,0.4893659,-41.47331,-9.648394,-17.2843,1007.669
24.841879845,161.5626,-96.27137,167.5949,0.6850846,0.1110915,0.4846906,-41.47331,-9.648394,-17.2843,1007.667
24.876527786,145.8979,-77.33216,202.8349,0.7515531,0.03697985,0.3581395,-43.66568,-6.875969,-11.61158,1007.669
24.908700943,141.352,-46.61514,221.7113,0.6026984,-0.07251206,0.3513959,-44.75179,-3.384996,-8.116034,1007.665
24.943347931,110.8211,-19.21247,228.698,0.6193113,-0.1068713,0.3123976,-44.75179,-3.384996,-8.116034,1007.667
24.975521088,48.65353,11.38618,228.0239,0.5465716,-0.1041184,0.307797,-45.10772,3.561352,-6.809062,1007.667
25.010169029,-25.98442,21.1517,220.3017,0.2418737,-0.3928822,0.3675455,-43.21262,11.53831,-6.857807,1007.665
25.042342186,-55.4096,4.994195,188.9227,0.3097079,-0.7364383,0.3597423,-43.21262,11.53831,-6.857807,1007.671
25.074514866,-70.5829,-4.001927,161.8952,0.4183089,-1.010806,0.349719,-40.55612,19.12909,-6.462278,1007.671
25.109162807,-29.85454,-16.3716,132.2323,0.5003687,-1.110163,0.2324544,-36.3826,25.94181,-5.624483,1007.669
25.141335964,-48.89797,-11.57761,114.0913,0.4785721,-0.8005705,0.3345019,-36.3826,25.94181,-5.624483,1007.669
25.175983906,-57.12965,-9.979613,101.4049,0.4408661,-1.155851,0.3748227,-32.58252,30.85991,-4.32917,1007.669
25.208156586,17.13973,-12.34701,103.6725,0.5800084,-1.168127,0.4462051,-29.15007,33.95261,-2.130368,1007.671
25.242804050,30.22441,6.888115,121.8135,0.5371826,-1.057256,0.6971945,-26.5077,37.72068,-2.608793,1007.672
25.274977207,12.47101,-7.671398,129.3518,0.2678901,-0.9223799,0.6420153,-26.5077,37.72068,-2.608793,1007.676
25.309625149,-21.06999,-29.03719,126.41,-0.02224853,-0.709754,0.3331758,-22.73883,39.18016,-3.528135,1007.678
25.341798305,-98.47231,-23.23706,111.9462,-0.08263231,-0.6569999,0.1486043,-17.43984,42.15976,-3.123816,1007.678
25.376445770,-71.25864,-1.634526,101.7113,0.09794751,-1.163912,-0.01053551,-17.43984,42.15976,-3.123816,1007.676
25.408618927,71.93566,18.7843,102.6919,0.04550589,-1.089501,0.1009452,-13.17912,43.28219,-0.09078407,1007.68
25.443266868,90.18049,40.32765,92.57954,-0.08863822,-0.7828726,0.2498066,-9.416035,44.73598,-1.456407,1007.682
25.475440025,60.3253,51.04013,69.78077,-0.04513288,-1.139858,0.3732235,-9.416035,44.73598,-1.456407,1007.683
25.510087967,431.9793,50.32991,63.16177,-0.9437155,-1.877585,1.814295,-6.06524,45.39958,-5.430305,1007.683
25.542260647,-21.06999,-26.31468,-51.69011,0.093014,-0.1961324,0.7349482,-3.139125,45.26081,-12.96879,1007.685
25.576908111,-134.2862,32.75196,-27.60431,-0.08896858,-0.008906387,0.475018,-3.139125,45.26081,-12.96879,1007.685
25.641253948,106.951,2.863534,6.47128,-0.08507535,-0.5820395,0.8674243,-3.49973,45.28323,-11.62802,1007.683
25.675901890,-56.33105,-4.593777,-5.47969,-0.06368256,-1.01237,0.7176312,-3.49973,45.28323,-11.62802,1007.685
25.708075046,-39.92913,8.131001,1.997327,-0.06593574,-0.9157338,0.3444173,-3.895262,44.89041,-12.96306,1007.685
25.742722988,10.99669,7.243226,2.365049,-0.09901308,-0.8831105,0.3994609,-4.244053,45.30534,-10.73159,1007.686
25.774895668,33.0502,10.4984,1.445744,-0.1359407,-0.8683487,0.527657,-4.244053,45.30534,-10.73159,1007.688
25.809543610,13.57676,5.64523,-2.844348,-0.12312,-0.8035672,0.6283273,-3.866114,45.29997,-10.73352,1007.688
25.841716766,-11.11826,4.81664,-4.499097,-0.1113124,-0.7778718,0.569143,-4.261388,45.28828,-12.07043,1007.688
25.876364708,-17.32273,3.277829,-5.847412,-0.09234719,-0.8099051,0.5185741,-4.261388,45.28828,-12.07043,1007.688
25.908537865,-9.521072,4.10642,-4.315237,-0.09333311,-0.8843415,0.4953156,-3.505508,45.27754,-12.0743,1007.688
25.943184853,-8.722477,2.745164,-5.173255,-0.1035723,-0.8466018,0.5362102,-3.494209,44.90778,-11.17987,1007.688
25.975358009,-10.81111,4.639085,-5.540977,-0.09001309,-0.8090464,0.5055453,-3.494209,44.90778,-11.17987,1007.688
26.010005951,-16.95415,3.51457,-9.463346,-0.1717982,-0.814262,0.5318114,-3.877414,45.66973,-11.62794,1007.684
26.042179108,-28.25735,-0.5100113,-13.87601,-0.07666086,-0.8867313,0.4479044,-3.86008,45.68679,-10.2891,1007.684
26.076827049,-19.65709,4.402345,-13.32443,-0.100033,-0.8730655,0.5055931,-3.86008,45.68679,-10.2891,1007.69
26.108999729,-28.07306,2.034944,-19.33056,-0.08532603,-0.8904483,0.4638606,-4.605484,45.32695,-9.454565,1007.686
26.141172886,-25.80013,3.573755,-16.08234,-0.01540468,-0.8761247,0.4151263,-5.355585,45.34337,-9.004416,1007.692
26.175820828,-12.4083,8.071815,-6.460282,-0.05213326,-0.8446656,0.4427203,-5.338251,45.36042,-7.665575,1007.689
26.207993507,-21.43857,11.80047,-7.808597,-0.1118193,-1.042696,0.4045307,-5.338251,45.36042,-7.665575,1007.689
26.242641449,-1.289398,9.077961,-14.4276,-0.0301537,-1.005673,0.348644,-6.466292,45.38221,-7.213493,1007.689
26.274814606,14.92823,11.44536,-12.77285,-0.06412656,-0.9154271,0.3853729,-6.460514,45.3879,-6.767212,1007.689
26.309462547,29.42581,8.900406,-3.579792,-0.05111834,-0.8528558,0.4513193,-6.460514,45.3879,-6.767212,1007.689
26.341634750,8.232317,-0.0957162,3.039207,-0.04348958,-0.7313475,0.6035977,-6.844232,45.38758,-7.211559,1007.691
26.376282692,-9.09106,-2.522302,8.922761,-0.03048256,-0.8832951,0.4826878,-7.233213,46.14385,-8.105907,1007.691
26.408455849,-6.695274,-3.114152,11.68068,-0.064373,-0.9828674,0.3886752,-7.233213,46.14385,-8.105907,1007.691
26.475276470,53.07652,5.586045,26.94114,-0.02387329,-1.005279,0.3408766,-7.245027,45.75134,-8.996608,1007.691
26.509924412,87.35469,24.76199,36.37934,-0.1010964,-0.8388441,0.5367331,-7.245027,45.75134,-8.996608,1007.691
26.542097568,41.71189,32.39685,34.41816,-0.1268433,-0.6893361,0.7107617,-5.755555,45.70794,-10.72571,1007.693
26.576745510,-16.70843,37.48677,36.25677,-0.1920189,-0.7013506,0.6842788,-3.90104,44.88472,-13.40934,1007.691
26.608918667,-42.38635,42.39912,39.56627,-0.2109483,-0.7504122,0.6040391,-3.90104,44.88472,-13.40934,1007.691
26.643566608,-83.54472,50.86258,55.31704,-0.3036258,-0.6947872,0.5822265,-2.383503,44.86893,-12.9708,1007.693
26.675738811,-117.0857,46.89719,49.92378,-0.3568447,-0.8317322,0.4128942,-0.0869751,44.86515,-10.751,1007.693
26.707911968,-90.30206,41.33379,51.63981,-0.3699808,-0.9688521,0.3097025,-0.0869751,44.86515,-10.751,1007.695
26.742559910,-42.87779,37.90106,53.29456,-0.4770438,-0.9699469,0.2875565,2.244939,47.18146,-5.928433,1007.695
26.774732590,-16.27842,33.34381,44.77567,-0.555117,-1.023639,0.1981905,4.552768,46.80791,-2.814212,1007.695
26.809380531,16.21827,30.85804,44.04022,-0.4932457,-0.8519652,0.2187904,4.552768,46.80791,-2.814212,1007.695
26.841553688,2.765009,27.01102,50.16893,-0.5782632,-0.7781379,0.1705464,6.074998,46.41586,-1.99128,1007.695
26.876201630,-23.15862,29.61516,58.19753,-0.6025391,-0.7759697,0.1842868,7.971042,46.01438,-1.489054,1007.695
26.908374310,-33.78609,41.09705,65.91969,-0.591533,-0.7771534,0.1007884,7.971042,46.01438,-1.489054,1007.695
26.943021774,-40.29771,58.91174,76.15462,-0.5885616,-0.821542,0.01122483,11.38297,45.59549,-0.6757908,1007.695
26.975195408,-15.29553,73.29369,89.4539,-0.6668935,-0.8132381,0.09348212,13.30079,44.45367,1.551525,1007.695
27.009842873,-10.50396,75.06924,90.31192,-0.6706799,-0.8005391,0.1013341,13.30079,44.45367,1.551525,1007.695
27.042015553,-7.186718,71.6957,96.01161,-0.5448753,-0.7886432,0.02554839,16.79361,43.67062,3.768923,1007.693
27.076663494,2.273566,59.20767,111.0269,-0.2964448,-0.5284153,0.1945574,20.21163,42.49595,5.095942,1007.693
27.108836651,-0.6750939,46.30534,121.5683,-0.3299682,-0.6011695,0.3056124,20.21163,42.49595,5.095942,1007.694
27.143484592,84.09888,-8.204062,114.3364,-0.3781831,-0.9529175,0.5456081,23.25011,40.18245,6.366722,1007.694
27.175657749,107.1967,-9.802058,84.12193,-0.3471093,-0.7504886,0.2544133,26.65002,37.84732,6.360481,1007.693
27.207830429,-12.96118,-0.8651214,89.51519,-0.5192616,0.003346305,-0.03901531,26.65002,37.84732,6.360481,1007.694
27.242478370,-1.105107,-1.752897,96.99221,-1.599227,-0.4086411,0.1585372,30.76067,35.83794,2.842022,1007.693
27.274651527,-5.528097,-7.257102,60.03614,-1.381313,-0.345238,0.2755984,33.41049,33.51925,3.285931,1007.694
27.309299469,-61.49121,-24.06565,46.12398,-0.9690104,-0.4332594,0.07870778,36.04844,30.74452,2.839449,1007.694
27.341471672,-8.845338,-19.44921,51.14952,-0.7347291,-0.4406692,0.08706459,36.04844,30.74452,2.839449,1007.694
27.376119614,-15.17267,-15.66137,50.7818,-0.8436418,-0.2681347,0.1092652,37.18727,29.5907,3.285511,1007.696
27.408292770,-4.60664,-13.5899,47.41101,-0.9961821,-0.2783144,0.1385606,39.45311,26.89056,3.286932,1007.698
27.442940712,-28.19592,-15.06952,38.34053,-0.9654319,-0.2248224,0.1714907,39.45311,26.89056,3.286932,1007.699
27.475113392,-9.213921,-11.04494,33.56014,-0.9690737,-0.2820347,0.114177,40.58038,25.72536,2.840431,1007.699
27.509761333,-6.633844,-8.914283,28.84104,-0.9527586,-0.199753,0.1576011,41.70765,24.56017,2.393932,1007.699
27.541934490,-5.528097,-7.020362,22.58977,-0.9737558,-0.2508821,0.1226715,41.70765,24.56017,2.393932,1007.699
27.576582432,-1.473689,-8.085692,19.09641,-0.9525087,-0.1598731,0.1680495,41.70739,24.17904,2.395794,1007.699
27.608755112,1.966414,-9.269393,16.21592,-0.9687741,-0.2222832,0.1209328,42.83414,22.25158,1.953014,1007.699
27.643402576,-5.036654,-10.27554,14.56117,-0.9020153,-0.1308995,0.1813132,42.83414,22.25158,1.953014,1007.699
27.675575733,-4.852362,-11.40005,13.9483,-0.9853039,-0.2173087,0.1259481,42.83992,22.25727,2.399296,1007.699
27.710223675,-7.801022,-17.85122,12.29355,-0.9918888,-0.157125,0.1843456,43.20001,21.47258,1.062241,1007.699
27.742396355,-8.415325,-21.1064,7.022863,-1.040707,-0.1564157,0.181915,43.20001,21.47258,1.062241,1007.699
27.774569511,-20.70141,-24.53913,3.468216,-0.9504027,-0.15394,0.1835028,43.94985,21.07502,0.6139526,1007.695
27.809217453,-17.38416,-20.04107,2.426336,-0.9129671,-0.1886246,0.2416714,43.93804,20.68252,-0.2767487,1007.699
27.841390610,-16.33985,-13.1756,3.223068,-0.961063,-0.1557895,0.2515489,43.93804,20.68252,-0.2767487,1007.699
27.876038551,-15.11124,-6.901993,1.93604,-0.8892774,-0.111649,0.2941409,43.93201,20.2957,-0.7211666,1007.697
27.908211231,-3.930906,4.520715,-3.028209,-0.9753174,-0.2244419,0.214484,44.30969,19.9092,-0.7212391,1007.697
27.942859173,0.1235015,7.302411,-11.1181,-0.9851225,-0.09442925,0.2624013,44.30969,19.9092,-0.7212391,1007.697
27.975032330,-2.702297,9.314701,-15.8372,-0.9072818,-0.165635,0.2683179,43.94305,19.5448,0.1751156,1007.697
28.009680271,6.819417,11.03107,-12.83413,-0.8360558,-0.1379237,0.1941358,43.56562,20.31244,0.1733284,1007.699
28.041852474,2.642148,9.433071,-16.57264,-0.9076038,-0.2103413,0.1354025,43.56562,20.31244,0.1733284,1007.699
28.076500416,-14.43551,10.32085,-19.51442,-0.9663417,-0.2141563,0.232319,43.57166,20.69926,0.6177464,1007.699
28.108673573,7.863734,16.65364,-23.98837,-0.9250859,-0.1560539,0.1774651,43.95589,21.46184,1.058372,1007.699
28.143321514,-9.889655,27.42532,-27.66559,-0.9231527,-0.309372,0.249447,43.95589,21.46184,1.058372,1007.699
28.175494194,7.679442,33.34381,-24.53995,-0.9636796,-0.2328255,0.2678082,42.82811,21.86476,1.508593,1007.695
28.210142136,-0.06078974,33.63974,-31.64925,-1.038003,-0.2518224,0.08518531,42.07852,22.64345,1.955021,1007.695
28.242315292,-8.968199,28.60901,-34.03944,-0.9719653,-0.3956257,0.1735175,42.07852,22.64345,1.955021,1007.695
28.309135437,-16.83129,11.62292,-19.82085,-0.8841794,-0.4347211,0.06971017,41.35885,24.9751,4.625406,1007.695
28.341309070,12.77817,10.4984,-15.28561,-0.8928054,-0.2507776,-0.0005108202,41.35885,24.9751,4.625406,1007.695
28.375956535,-13.26833,1.324724,-25.15282,-0.985126,-0.303631,0.07269682,40.23158,26.14029,5.071907,1007.697
28.408130169,-16.89272,-1.397786,-34.95875,-0.9179235,-0.3302435,0.1267983,39.86438,26.15622,5.902647,1007.697
28.442777157,2.273566,3.928864,-37.28765,-0.8318332,-0.2719735,0.1226194,38.35339,27.32109,5.9048,1007.698
28.474950313,-3.13231,-1.042676,-47.40002,-0.9366705,-0.4733606,-0.002418504,38.35339,27.32109,5.9048,1007.698
28.509598255,-21.99145,-2.640672,-53.59,-0.9309798,-0.4127224,0.1228662,37.98778,28.48123,6.793716,1007.697
28.541771412,27.03002,2.153314,-64.07009,-0.8916429,-0.5802948,0.006883759,36.47101,29.64042,6.349586,1007.698
28.576418877,-16.52414,7.06567,-48.56447,-0.8263155,-0.2081075,0.2257603,36.47101,29.64042,6.349586,1007.698
28.608592033,8.170886,18.48838,-32.62984,-0.7216796,-0.7424471,-0.01435495,35.33218,30.79424,5.903524,1007.7
28.643239975,6.757986,22.21703,-15.65334,-0.7562426,-0.4319336,0.1360193,33.82836,32.7914,6.411684,1007.7
28.675413132,8.785191,20.73741,-8.053744,-0.9161568,-0.6914984,0.04716568,33.82836,32.7914,6.411684,1007.7
28.710061073,9.890938,16.71283,-3.641079,-0.8572084,-0.4231293,0.07967605,32.70001,33.57465,6.796289,1007.702
28.742233276,7.679442,15.58831,-1.128311,-0.8956131,-0.7016741,-0.0003458492,32.70604,33.96147,7.240709,1007.704
28.776881218,26.10857,15.58831,7.635733,-0.8324462,-0.4016439,0.1123981,32.70604,33.96147,7.240709,1007.704
28.809054375,-4.729501,10.85351,16.89007,-0.8496925,-0.5597627,0.05293354,32.70052,34.33692,6.792568,1007.704
28.841227055,13.57676,8.486111,19.21898,-0.8656247,-0.5043625,-0.01153101,32.32258,34.34229,6.794502,1007.705
28.875874996,-7.125288,1.739019,19.70928,-0.8456793,-0.4765089,0.02562647,32.32258,34.34229,6.794502,1007.701
28.908048153,0.2463623,-2.699857,21.24145,-0.8447796,-0.496893,0.02641403,33.46744,33.57528,7.684982,1007.703
28.942696094,5.775099,-7.908138,23.3865,-0.8135671,-0.379112,0.02516578,33.83879,32.35731,7.242661,1007.703
28.974868774,-8.231034,-20.04107,25.47026,-0.8893424,-0.4852081,0.0023442,33.83879,32.35731,7.242661,1007.705
29.009516239,-10.56539,-30.93111,27.92174,-0.9038884,-0.3985285,0.02970449,33.83883,32.42083,7.24235,1007.703
29.041689396,-35.19899,-43.00485,28.77976,-0.9481035,-0.4638611,0.02620446,34.58786,30.81635,6.799955,1007.703
29.076337338,-38.39337,-52.82956,30.37322,-0.9220617,-0.4154706,0.0239504,34.58786,30.81635,6.799955,1007.703
29.108510017,-60.75404,-57.68274,32.88599,-0.8904629,-0.4143247,0.06704496,36.08833,31.16464,5.897797,1007.703
29.143157959,-42.50921,-59.10317,30.12807,-0.9348106,-0.3613407,0.04861559,37.21616,29.61913,5.516912,1007.705
29.175331116,-100.3766,-61.94405,26.2057,-0.9120463,-0.3767506,0.2680679,37.21616,29.61913,5.516912,1007.705
29.209979057,-35.38328,-57.446,26.87986,-0.8343108,-0.3981697,0.1211201,37.95971,28.45362,4.626066,1007.705
29.242152214,-69.35429,-50.87646,34.47945,-0.8562787,-0.4600396,0.2663789,39.09301,27.67525,4.623985,1007.703
29.276799202,-34.89184,-47.1478,36.99221,-0.9276478,-0.3364491,0.1340679,40.22529,25.37234,4.629349,1007.705
29.308972835,-54.42671,-39.80886,41.40488,-0.9247431,-0.4173156,0.2866499,40.22529,25.37234,4.629349,1007.705
29.341145992,-29.9774,-31.70052,47.77873,-0.8729028,-0.2946806,0.2987452,41.33548,24.57123,2.842146,1007.705
29.375793934,-51.60091,-22.23091,54.76545,-0.9327551,-0.3237247,0.3332862,42.09033,23.03596,2.845722,1007.703
29.407966137,-62.41266,-11.10413,57.09436,-0.8710232,-0.3019724,0.2355256,42.09033,23.03596,2.845722,1007.705
29.442614078,-45.15071,3.810495,59.66842,-0.9313745,-0.2904791,0.3653594,43.60658,21.1145,3.293571,1007.703
29.474787235,-46.1336,15.29239,53.29456,-1.024437,-0.2844909,0.2636112,45.12258,18.81191,3.74328,1007.703
29.509435177,-28.07306,36.30307,62.42633,-1.000793,-0.2051759,0.3676744,45.12258,18.81191,3.74328,1007.701
29.541607857,-7.801022,46.24615,65.06167,-0.9379198,-0.2126638,0.1294002,45.52208,16.54248,5.537632,1007.703
29.576255798,-31.08315,54.76879,66.96156,-0.9423758,-0.1924277,0.1700966,46.30449,14.27255,7.71258,1007.705
29.608428955,-10.9954,59.68115,67.51315,-1.014824,-0.0602963,0.1376399,46.30449,14.27255,7.71258,1007.705
29.643076897,-70.46004,61.21996,59.66842,-0.9712811,-0.06762726,0.09620325,46.33157,11.63304,9.957008,1007.707
29.675249100,-43.12351,55.77494,61.69089,-0.8953263,-0.0294392,-0.001072566,46.74238,8.993851,12.64578,1007.707
29.709897041,-17.4456,60.86485,70.70007,-0.8486524,0.00844699,-0.1563996,46.74238,8.993851,12.64578,1007.707
29.742070198,33.48021,63.58736,77.50294,-1.028475,0.2921548,0.2009229,46.01829,5.988816,15.27847,1007.707
29.776718140,13.51533,79.98161,60.64901,-0.8759806,0.09558727,-0.1404842,45.27794,3.348674,16.6342,1007.707
29.808890820,83.97602,99.51266,52.86555,-0.8704907,0.2280947,-0.07389109,45.27794,3.348674,16.6342,1007.707
29.843538761,25.73998,100.4596,51.63981,-0.8652118,0.1487565,-0.1623183,44.19454,1.06562,20.668,1007.707
29.875711918,97.0607,120.0499,59.97485,-0.8803531,0.04779081,-0.1731314,42.34947,-0.006271362,24.18974,1007.707
29.907884598,107.9339,121.056,52.00754,-1.027626,0.1996005,-0.4086134,42.34947,-0.006271362,24.18974,1007.703
29.942532539,106.1524,114.4865,41.65003,-1.151845,0.08927231,-0.4449958,40.12754,-0.6908484,27.77531,1007.703
29.974705696,83.17742,88.03076,46.36913,-1.10537,0.2975276,-0.4740786,37.14943,-0.6032338,31.29727,1007.701
30.009353638,85.45035,84.83478,39.68885,-0.9806144,-0.06090234,-0.6117115,37.14943,-0.6032338,31.29727,1007.701
30.041526794,140.3691,75.06924,38.21796,-1.032245,0.0428147,-0.4758968,34.15638,1.818462,33.53267,1007.701
30.076173782,146.205,36.48062,20.13829,-1.159532,-0.02269221,-0.4926011,31.54021,2.646733,35.77389,1007.701
30.108346939,129.8031,1.739019,-18.6564,-1.07758,0.04661813,-0.7043922,31.54021,2.646733,35.77389,1007.701
30.142994881,92.76057,-19.74514,-47.4613,-1.004576,0.1316688,-0.7689601,29.26988,7.246861,35.31688,1007.701
30.175168037,23.09848,-38.38842,-47.76774,-0.9161746,0.278116,-0.540592,28.12233,12.58178,33.95779,1007.701
30.209815502,-60.07831,-62.23998,-41.14874,-0.9912553,0.2035628,-0.4378401,28.12233,12.58178,33.95779,1007.701
30.241988659,-118.2529,-85.55888,-41.27131,-0.9673582,0.203877,-0.3816665,27.72385,16.37575,32.156,1007.699
30.276636600,-73.53156,-99.58572,-2.476625,-0.697217,-0.4204146,-0.9764093,26.96823,16.76761,32.158,1007.699
30.308809757,147.3722,-78.81179,27.73788,-0.8678018,0.5192702,-0.7082371,26.96823,16.76761,32.158,1007.699
30.343457699,-82.07039,-82.77718,10.1485,-1.136806,1.090176,-0.3009607,28.46689,14.44797,31.26887,1007.699
30.375629902,-393.6454,-73.72188,-16.81779,-0.8232591,0.7414275,-0.5092014,30.32429,16.67463,28.63411,1007.699
30.407803058,-466.4405,-73.66269,-54.01901,-0.9667367,0.4018877,-0.6359817,30.32429,16.67463,28.63411,1007.699
30.442451000,-441.4383,-79.58119,-69.83107,-0.807644,0.2984375,-0.3529753,31.10014,13.25562,30.36836,1007.699
30.474623680,-432.408,-86.20992,-85.2754,-0.7279924,0.04966135,-0.3360075,33.34272,1.77235,29.07373,1007.697
30.509271622,-332.5836,-78.51586,-108.258,-0.7433903,-0.04722295,-0.3212385,35.91883,-8.299944,24.26356,1007.699
30.541444778,-308.6872,-62.71346,-131.4245,-0.6660493,-0.05609385,-0.2887754,35.91883,-8.299944,24.26356,1007.699
30.576092720,-262.1844,-32.41073,-136.5726,-0.7238384,-0.2556342,-0.3327791,38.10255,-14.12793,18.09569,1007.699
30.608265400,-180.1133,-11.16331,-136.5726,-0.734907,-0.3748788,-0.256539,40.3009,-15.37095,12.79806,1007.699
30.642912865,-102.0353,3.86968,-131.7922,-0.8669729,-0.4770579,-0.1852951,40.3009,-15.37095,12.79806,1007.696
30.675086498,-13.32976,7.598336,-119.1058,-0.9100144,-0.525328,-0.1154015,42.91888,-13.53129,10.54381,1007.694
30.709733963,56.33232,10.4984,-95.26518,-0.8855375,-0.3808666,-0.05997303,42.93301,-9.708584,11.41776,1007.692
30.741906643,74.39288,17.71897,-72.58898,-0.816152,-0.3192693,-0.0210707,42.93301,-9.708584,11.41776,1007.692
30.776554584,80.78164,27.54369,-47.21615,-0.7394804,-0.3573168,0.003928177,44.44733,-5.918722,11.39142,1007.692
30.808727741,94.11204,29.79272,-26.62371,-0.7610729,-0.3839162,0.002464371,44.44965,-2.48852,11.37468,1007.69
30.843375683,108.0567,22.7497,-9.463346,-0.7604655,-0.3682984,-0.04898649,44.44965,-2.48852,11.37468,1007.689
30.875548363,111.3126,20.02719,6.900289,-0.7729284,-0.3293079,-0.0991587,43.33496,0.212574,12.7063,1007.689
30.910196304,106.951,19.84963,22.28333,-0.8050215,-0.3304946,-0.08489104,43.72445,1.424686,13.52727,1007.689
30.942369461,107.4424,16.53527,33.19242,-0.9268041,-0.34565,-0.05158566,43.72445,1.424686,13.52727,1007.689
30.974542618,109.4082,14.81891,37.11479,-0.9860228,-0.3639256,-0.004911802,44.1045,3.325797,13.57979,1007.687
31.009189606,104.4324,9.669811,35.70519,-1.087735,-0.3549454,0.02406728,43.72579,2.187765,13.58731,1007.687
31.041362762,88.82903,4.93501,26.38956,-1.085803,-0.2984328,0.05247112,43.72579,2.187765,13.58731,1007.685
31.076010704,44.29197,9.669811,17.50294,-1.072032,-0.1993089,0.07533179,43.35281,2.198006,13.97177,1007.683
31.108183861,-3.808045,15.41076,11.43553,-1.342381,-0.1723742,0.1209744,43.35884,2.584825,14.41619,1007.683
31.142831326,-42.44778,18.72512,4.326234,-1.01795,-0.234101,0.2562541,43.35884,2.584825,14.41619,1007.683
31.175004482,-36.18188,23.87421,-12.89542,-1.028744,-0.4033869,0.3894371,43.7423,2.204008,14.86239,1007.683
31.209652424,11.36527,-7.138732,-22.70134,-0.9700569,-0.1193351,0.4413592,43.75334,1.45311,15.75868,1007.683
31.241825580,-46.56361,-27.20245,-12.83413,-0.8774061,0.1523918,0.3015089,43.75334,1.45311,15.75868,1007.682
31.276472568,-154.1897,-40.51908,-5.724838,-0.9385445,-0.006339183,0.07133907,43.3754,1.458479,15.76061,1007.682
31.308646202,-173.4788,-50.10705,-6.950578,-0.9442959,-0.3334045,-0.04842949,44.1142,1.811821,14.41604,1007.682
31.343293667,-92.20641,-43.5967,-13.63086,-0.8664427,-0.5254536,-0.04061722,44.1142,1.811821,14.41604,1007.682
31.375467300,-43.79925,-39.80886,-16.81779,-0.8586172,-0.389222,0.06984675,44.47926,-0.1741073,13.53116,1007.68
31.410114765,-35.07613,-34.1271,-16.45007,-0.794364,-0.2804774,0.1140056,45.18922,-0.9917781,10.02452,1007.68
31.442287445,-54.67243,-25.95957,-14.12116,-0.7638941,-0.2272403,0.1136782,45.18922,-0.9917781,10.02452,1007.678
31.474460602,-61.55264,-14.59604,-10.81166,-0.7262914,-0.3250085,0.04793341,45.93958,-0.6270666,9.572514,1007.678
31.509108543,-34.15467,1.857389,-1.55732,-0.7140076,-0.351068,0.01241799,45.91647,-0.649806,7.787392,1007.678
31.541281223,-15.04981,10.08411,11.25167,-0.7212409,-0.3635258,0.02877077,45.53827,-1.025571,7.791187,1007.674
31.575929165,3.993618,13.04336,27.67659,-0.7682592,-0.4118427,0.09002511,45.53827,-1.025571,7.791187,1007.674
31.608102322,20.64126,14.10869,39.87271,-0.753028,-0.4737206,0.1322708,46.31174,-0.6381202,9.124298,1007.672
31.642750263,54.55085,15.41076,51.02694,-0.8330724,-0.4893304,0.196513,45.18242,-2.521997,9.585686,1007.672
31.674922466,24.38852,10.14329,54.27516,-0.9659016,-0.3704697,0.4185241,45.18242,-2.521997,9.585686,1007.672
31.709570408,-43.92211,-2.048822,53.17199,-1.035098,-0.4710267,0.3629108,45.9433,-3.67045,10.03368,1007.672
31.741743565,-34.64611,-12.11027,46.06269,-1.032825,-0.7011828,0.1638544,45.5583,-5.576434,9.598639,1007.672
31.776391506,42.57191,-12.05109,37.0535,-1.333621,-0.835188,0.09036441,45.5583,-5.576434,9.598639,1007.672
31.808564186,98.04359,-17.73285,14.25473,-1.521579,-0.7342298,0.03221864,44.79536,-7.477049,9.165527,1007.672
31.843212128,118.1928,-9.032653,-13.56958,-1.156733,-0.4118381,0.02906207,44.78855,-9.007267,8.726692,1007.672
31.875385284,98.90361,1.324724,-39.86171,-1.055983,-0.2999837,0.05941007,44.78855,-9.007267,8.726692,1007.671
31.910033226,97.73643,10.43922,-64.31524,-0.8220636,-0.2391304,0.107857,45.55624,-8.625502,9.613523,1007.667
31.942205429,71.68993,15.94342,-78.34997,-0.8880336,-0.146524,0.05236007,45.93598,-5.962936,9.598564,1007.667
32.009026527,-66.15991,12.51069,-95.44904,-0.8302749,-0.1861911,-0.08201975,46.70522,-3.294369,10.47423,1007.667
32.041200161,-80.04318,22.80888,-93.67172,-0.8307328,-0.3538477,-0.1716035,46.33619,1.353809,10.89981,1007.667
32.075847149,-29.73168,28.54983,-83.19164,-0.8993074,-0.4538394,-0.153472,46.33619,1.353809,10.89981,1007.667
32.108020306,23.71278,28.90494,-68.23761,-0.8600431,-0.3914858,-0.09885842,45.59367,4.043851,11.78321,1007.667
32.142668247,38.45608,23.9334,-52.48684,-0.751863,-0.3298216,-0.0892375,44.8514,7.115026,12.66475,1007.668
32.174841404,48.03922,27.78043,-33.18143,-0.693647,-0.3135371,-0.08000647,44.8514,7.115026,12.66475,1007.668
32.209488869,43.06336,33.46218,-9.524632,-0.8457864,-0.2880144,-0.07837645,44.48104,9.794014,13.09994,1007.668
32.241662026,30.22441,27.95798,1.32317,-0.8410178,-0.2712523,-0.04165081,43.35294,10.95839,13.48269,1007.668
32.276309967,17.50831,37.19084,11.92583,-0.8257721,-0.2562297,-0.03492122,43.35294,10.95839,13.48269,1007.668
32.308483124,25.3714,42.16238,20.32215,-0.7478601,-0.3336568,-0.01748855,43.73769,12.48324,13.91959,1007.67
32.343130112,70.82991,61.69344,41.09845,-0.774043,-0.4866265,0.01860863,42.62095,12.13527,15.2661,1007.672
32.375303268,119.9128,63.52817,53.53971,-0.9241022,-0.4344381,0.08068901,42.62095,12.13527,15.2661,1007.672
32.409951210,129.1274,57.84641,56.84921,-0.8917242,-0.3725835,0.1290968,42.63828,12.15232,16.60494,1007.674
32.442124367,121.6943,55.18309,52.86555,-0.808105,-0.3075969,0.1760882,42.27716,11.41248,17.94944,1007.674
32.476771831,85.20463,50.80339,48.75932,-0.7688671,-0.2046476,0.2079008,41.53258,11.05345,18.84772,1007.675
32.508944988,38.02606,45.59512,51.82368,-0.7471947,-0.1499285,0.2052577,41.53258,11.05345,18.84772,1007.675
32.541118145,-13.45262,38.49291,59.42327,-0.7514,-0.1381313,0.2217821,41.1662,11.07019,19.74222,1007.675
32.575766086,-49.02083,29.08249,68.37117,-0.7604775,-0.2538904,0.1847626,40.80399,9.948402,21.02483,1007.675
32.607938766,-54.97958,17.36386,75.7869,-0.7662093,-0.3194765,0.1731894,40.80399,9.948402,21.02483,1007.679
32.642586231,-58.60398,7.539151,81.54787,-0.7701181,-0.3392877,0.1822205,40.43555,6.916072,21.93421,1007.681
32.674759865,-68.37141,-1.279416,79.46412,-0.7213545,-0.3192903,0.2262743,40.82825,3.116423,23.28972,1007.681
32.709407329,-75.31304,-7.020362,75.97076,-0.646,-0.2875629,0.2349907,40.82825,3.116423,23.28972,1007.682
32.741580009,-93.6193,-23.23706,69.53562,-0.5962864,-0.2086357,0.3055494,41.19728,-1.531754,22.86414,1007.682
32.776227951,-132.5048,-54.42756,74.74502,-0.3973123,-0.04302152,0.3841061,40.7997,-4.973642,21.54398,1007.684
32.808401108,-226.739,-83.96088,69.53562,-0.4352568,0.07429953,0.3415654,40.7997,-4.973642,21.54398,1007.684
32.843049049,-308.1343,-122.8454,61.50703,-0.177537,0.002584293,0.2084295,40.74492,-10.35986,17.61726,1007.686
32.875221729,-261.8158,-153.2665,61.20059,-0.09293964,-0.3577112,0.05476798,41.02737,-16.17238,10.56651,1007.684
32.909869671,-206.4055,-152.0236,40.17914,-0.2389971,-0.9394473,-0.2619647,41.02737,-16.17238,10.56651,1007.684
32.942042828,460.1759,-157.2911,180.2813,-1.707301,1.142419,-0.5029485,40.52558,-21.24032,1.284492,1007.681
32.976690292,798.596,-259.8587,452.8247,0.231093,1.757812,-10.09329,38.96135,-23.17486,-2.65124,1007.677
33.008862972,-321.2804,436.0387,209.6378,-7.290483,6.226648,-3.48072,38.96135,-23.17486,-2.65124,1007.675
33.043510914,-29.85454,290.266,407.6561,-1.561405,2.459704,-0.8520577,29.73529,-32.02642,15.10204,1007.68
33.075684071,-293.5139,120.7009,534.6428,-1.434891,0.5239822,0.04130054,16.94236,-32.93044,19.63618,1007.68
33.107856751,-336.1466,37.84188,346.124,1.339933,-0.6362255,1.305314,16.94236,-32.93044,19.63618,1007.682
33.142504692,-303.4656,93.53497,50.35279,-0.1925502,1.006576,0.6077482,-2.502335,-38.09313,11.79188,1007.685
33.174677849,124.4587,-25.4269,-36.06192,-0.565491,0.1440419,-0.2658918,-17.08324,-39.56545,-0.1126881,1007.691
33.209325790,168.8728,-39.69049,-77.30808,0.01777418,0.6339647,0.3226721,-17.08324,-39.56545,-0.1126881,1007.691
33.241497994,60.3253,-42.05789,-28.33975,0.1318268,1.261799,0.1763999,-18.21655,-38.78708,-0.1106091,1007.693
33.276145935,38.88609,-13.47153,2.365049,-0.1601737,0.8576325,-0.05556715,-17.02597,-40.27087,4.353838,1007.693
33.308319092,20.5184,-3.824372,38.64697,0.433789,0.8070237,0.4995207,-17.02597,-40.27087,4.353838,1007.696
33.342967033,32.68162,2.153314,40.54686,0.113355,0.9806321,0.1467804,-17.00286,-40.24813,6.13896,1007.695
33.375139713,40.729,14.16787,48.82061,0.3450539,1.126805,0.1800454,-17.74198,-39.84002,7.416056,1007.699
33.409787655,31.88302,19.73126,44.46923,0.4077779,0.9150408,0.1391543,-17.74198,-39.84002,7.416056,1007.702
33.441960811,29.18009,18.25164,24.91867,0.225867,0.9122147,0.09600251,-19.9978,-39.4153,8.318359,1007.702
33.476608753,20.02696,6.47382,3.897225,0.1586068,0.9479252,0.08873052,-21.86965,-38.60914,9.663147,1007.706
33.508781433,17.56974,5.822785,-11.73097,0.1654428,1.016562,0.05597462,-21.86965,-38.60914,9.663147,1007.708
33.543428898,28.8115,8.426926,-23.68193,0.1282664,0.9538386,0.01772646,-23.00295,-37.83076,9.665228,1007.713
33.575602531,43.61623,12.51069,-33.42657,0.1157805,0.9985735,0.02013976,-23.0027,-37.44963,9.663366,1007.712
33.607774734,31.20729,21.92111,-37.04251,0.1323838,0.9767036,0.09017646,-23.0027,-37.44963,9.663366,1007.716
33.642422676,41.95761,27.30695,-31.09767,-0.02958463,1.083377,0.1605292,-21.85206,-38.21095,11.00013,1007.716
33.674595833,87.84614,28.54983,-36.42964,0.1082507,0.9737197,0.06531307,-20.71246,-38.22137,11.44061,1007.719
33.709243774,138.8334,17.00875,-32.13955,0.1684676,0.9297048,-0.06478753,-19.92769,-38.20368,13.66814,1007.721
33.741416454,137.7276,6.71056,-20.49501,-0.1957307,0.940635,-0.2039709,-19.92769,-38.20368,13.66814,1007.723
33.776064396,151.058,3.63294,-13.9373,-0.06431471,1.0712,-0.3082327,-18.73615,-37.02035,18.05581,1007.721
33.808237553,153.8224,0.614504,-7.74731,-0.1431545,0.8505379,-0.5242879,-18.68343,-34.6832,21.99742,1007.721
33.842885494,89.07475,9.610626,2.671484,-0.2952718,0.7609913,-0.4643208,-18.68343,-34.6832,21.99742,1007.722
33.875057697,-8.231034,12.74743,8.493752,-0.2889701,0.9354523,-0.4957173,-17.50736,-31.99158,25.10255,1007.724
33.909705639,-58.29683,11.26781,18.1771,-0.1014117,0.9506328,-0.4833643,-17.8722,-29.68804,25.98589,1007.726
33.941878796,-73.10155,9.314701,20.01571,-0.05991471,0.8904427,-0.3941138,-17.8722,-29.68804,25.98589,1007.728
33.976526737,-70.03003,10.02492,19.52542,-0.02199855,0.9142233,-0.3070296,-18.27377,-30.46767,24.20642,1007.729
34.008699417,-51.47805,8.131001,16.2772,-0.007616508,0.918231,-0.2815849,-19.43147,-31.61771,22.43268,1007.729
34.043347359,-22.72861,4.402345,12.0484,0.01059433,0.9560006,-0.2814434,-19.43147,-31.61771,22.43268,1007.731
34.075520515,-13.14547,3.337014,8.432465,0.01170072,0.9865792,-0.2807196,-20.58891,-32.38661,20.65708,1007.731
34.107693195,-12.77688,1.739019,4.939104,0.01715466,0.9643866,-0.2597455,-20.21593,-32.39685,20.27262,1007.729
34.142341137,-2.763728,-0.1549012,0.1587164,0.02096769,0.9483268,-0.2628055,-20.21593,-32.39685,20.27262,1007.729
34.174514294,10.25952,-1.042676,-3.395931,0.0188846,0.9332266,-0.2711045,-20.97784,-32.77293,19.83207,1007.729
34.209162235,16.2797,-1.042676,-5.724838,-0.008097562,0.9424181,-0.292467,-20.97206,-32.76725,20.27835,1007.729
34.241334438,17.81546,-1.161046,-7.011866,-0.01258371,0.9645985,-0.3144142,-20.97206,-32.76725,20.27835,1007.729
34.275982380,11.36527,0.3185789,-6.276421,-0.02973876,0.9539763,-0.3181977,-20.21041,-32.7723,20.72076,1007.733
34.308155536,7.556581,-1.042676,-2.966922,-0.02816712,0.9516492,-0.3042535,-20.19942,-32.38061,21.54771,1007.734
34.342803478,-0.552233,-0.1549012,-0.02514464,-0.02578016,0.9515888,-0.3105423,-20.19942,-32.38061,21.54771,1007.734
34.374976158,-4.852362,0.08183884,1.752179,-0.02083185,0.9574295,-0.3052384,-20.58809,-32.3858,20.72083,1007.736
34.409624100,-7.432439,-0.2732712,1.139309,-0.02125911,0.962323,-0.300374,-20.57736,-32.37524,21.54964,1007.734
34.441797256,-7.309578,0.1410238,1.752179,-0.01487826,0.9449165,-0.2875631,-20.57736,-32.37524,21.54964,1007.736
34.476445198,-5.036654,0.6736889,1.629605,-0.01885111,0.9477747,-0.2971424,-20.21123,-32.77311,20.65701,1007.737
34.508617401,-3.07088,1.443094,2.181188,-0.01778748,0.940596,-0.2832336,-20.21015,-32.39117,20.7189,1007.737
34.543265343,-0.3065114,1.265539,1.813466,-0.007097572,0.948238,-0.2924283,-20.58891,-32.38661,20.65708,1007.737
34.575438499,2.396427,1.087984,0.9554477,-0.006154017,0.9453022,-0.2948713,-20.58891,-32.38661,20.65708,1007.739
34.610086441,3.809326,0.08183884,-0.2702928,-0.005180409,0.9506145,-0.2977286,-20.21015,-32.39117,20.7189,1007.741
34.642259121,1.290679,-0.2732712,-0.4541538,-0.0145186,0.9510838,-0.3058316,-20.96629,-32.76156,20.72463,1007.741
34.674432278,-3.746614,-0.9834914,-0.5767279,-0.01094903,0.9608778,-0.2922882,-20.96629,-32.76156,20.72463,1007.743
34.709080219,-4.729501,-0.9834914,-0.6380149,-0.009501172,0.9560202,-0.2918597,-20.58809,-32.3858,20.72083,1007.743
34.741252899,-2.948019,-1.101861,-0.94445,-0.012896,0.9454179,-0.2842034,-20.58891,-32.38661,20.65708,1007.743
34.775900364,0.6763752,-0.9834914,-0.7605889,-0.01342306,0.9555398,-0.2937551,-20.58891,-32.38661,20.65708,1007.743
34.808073997,1.720692,0.1410238,-0.2702928,-0.01682401,0.9454154,-0.2870588,-20.21015,-32.39117,20.7189,1007.739
34.842721462,1.474971,-0.8059363,-0.883163,-0.01981375,0.9666508,-0.3046898,-20.59387,-32.39148,20.27456,1007.74
34.874894142,-0.6750939,-0.4508263,-0.3315798,-0.01642744,0.9448463,-0.2976712,-20.59387,-32.39148,20.27456,1007.74
34.909542084,-2.272285,-0.6283813,-0.3928668,-0.02027234,0.9483044,-0.2923048,-20.96629,-32.76156,20.72463,1007.742
34.941715240,-0.4293722,-2.108007,-0.2702928,-0.01824607,0.9623857,-0.2902796,-19.83799,-32.40222,20.27069,1007.74
34.976363182,-7.002427,-2.108007,0.5877256,-0.01240883,0.9608889,-0.2917924,-19.83799,-32.40222,20.27069,1007.742
35.008535862,-12.03972,-2.048822,-0.7605889,-0.007966241,0.956561,-0.2836756,-20.58257,-32.76125,21.16898,1007.742
35.043183804,-11.11826,-1.989637,-1.741181,-0.01222983,0.956216,-0.2682147,-20.58257,-32.76125,21.16898,1007.742
35.075356960,-2.333715,-1.220231,-1.250885,-0.01999398,0.9471068,-0.2585773,-20.58257,-32.76125,21.16898,1007.742
35.110004902,3.133592,-0.03653119,-0.08643166,-0.02386781,0.9602099,-0.2613252,-20.22196,-32.78367,19.8282,1007.744
35.142177105,4.3622,0.6736889,0.8941607,-0.01620684,0.9610047,-0.279224,-19.83247,-32.77767,20.71883,1007.746
35.176825047,5.529378,0.1410238,1.139309,-0.02166156,0.9585345,-0.2883515,-19.83247,-32.77767,20.71883,1007.746
35.208998203,1.474971,-0.8651214,0.03614238,-0.01727041,0.9672162,-0.2926589,-20.58912,-33.91034,20.72828,1007.747
35.241170883,-6.818135,-2.108007,0.2200035,-0.02310134,0.9643667,-0.28829,-20.21041,-32.7723,20.72076,1007.747
35.275818825,-26.66016,-14.3593,1.507031,-0.0504233,0.9761133,-0.2932402,-20.21041,-32.7723,20.72076,1007.747
35.307991981,-44.84356,-31.46378,4.693956,-0.0790009,1.007883,-0.2830717,-20.59438,-33.15375,20.27828,1007.749
35.342639923,-37.8405,-40.63745,-0.7605889,-0.06083456,1.001607,-0.2669049,-19.85057,-33.93812,19.38557,1007.745
35.374812603,2.334996,-57.26844,-9.58592,-0.0912765,1.007429,-0.3499588,-19.85057,-33.93812,19.38557,1007.745
35.409460068,66.28406,-82.3037,-24.47867,-0.1254047,1.044861,-0.3642737,-19.46685,-33.93781,19.82992,1007.747
35.441633701,79.30731,-77.74646,-60.02514,-0.1559504,1.108504,-0.3133361,-18.31126,-34.69425,21.5492,1007.747
35.476280689,51.47932,-47.73965,-80.5563,-0.23124,1.277517,-0.4114961,-18.31126,-34.69425,21.5492,1007.747
35.508453846,-186.3178,-42.76811,-60.08643,-0.1929807,1.847298,-0.141092,-15.63628,-33.94114,23.76335,1007.747
35.543101787,-416.6204,-10.8082,-70.01493,-0.2138944,1.358839,-0.3030196,-11.78183,-33.22208,24.63253,1007.749
35.575274944,-364.466,-2.285562,-82.4562,-0.4195936,0.926351,-0.1234339,-11.78183,-33.22208,24.63253,1007.749
35.609922409,-347.5726,30.2662,-116.2866,-0.4745041,0.4370186,0.08319616,-9.66745,-39.11829,13.10929,1007.749
35.642095566,-250.3283,59.62196,-152.3847,-0.5485559,0.1825463,0.3955709,-6.825261,-45.05285,-0.5854568,1007.749
35.676743507,-216.9716,53.34835,-179.1058,-0.5851735,0.4224871,0.3935527,-1.671387,-45.64396,-11.1939,1007.749
35.708915710,-255.1813,81.40205,-186.3377,-0.5374109,0.3100436,0.38254,-1.671387,-45.64396,-11.1939,1007.749
35.743563652,-172.8031,109.2782,-181.5573,-0.5850395,-0.09607372,0.3699964,5.024938,-43.56018,-19.59169,1007.749
35.775736809,-130.4161,119.1029,-201.8433,-0.5961058,-0.1814664,0.4301276,14.01851,-39.19419,-25.84461,1007.749
35.807909965,-62.65838,134.1359,-207.9107,-0.7939875,-0.419737,-0.006199802,14.01851,-39.19419,-25.84461,1007.749
35.842557430,90.67194,142.7769,-211.0977,-0.7265235,0.07137966,0.467651,21.24361,-32.84056,-27.69843,1007.747
35.874730587,65.85405,141.3565,-188.7892,-0.943117,0.3189208,0.7059646,29.2299,-26.74697,-24.26263,1007.745
35.909378529,74.27001,105.5495,-142.0885,-1.026235,0.5056967,0.8292617,29.2299,-26.74697,-24.26263,1007.745
35.941551208,234.4805,34.40915,-69.83107,-1.053969,-0.02069571,0.3383614,37.62252,-22.59871,-18.524,1007.747
35.976198673,333.0764,-12.11027,-50.40308,-0.9838176,0.0754482,0.4517694,41.46062,-18.78584,-14.22665,1007.747
36.008372307,320.0531,-15.36545,-60.57673,-0.9781661,-0.01125095,0.353156,41.46062,-18.78584,-14.22665,1007.747
36.043019772,322.6946,-18.85736,-55.85762,-0.6599877,0.07860629,0.2516359,42.66192,-20.25907,-8.933393,1007.747
36.075192451,326.9333,-9.861243,-51.13852,-0.603938,0.3405806,0.5231924,44.23171,-19.84256,-4.480184,1007.747
36.109840393,217.4643,11.97803,-41.8229,-0.6651916,0.9024474,0.3953642,44.23171,-19.84256,-4.480184,1007.749
36.142013550,-34.89184,43.76038,-37.96181,-0.604034,0.7036163,0.3941183,45.81301,-18.27209,0.7962494,1007.749
36.176661491,-46.31789,48.19925,-49.48377,-0.8839468,-0.5197299,0.3128989,46.21484,-17.11132,2.573858,1007.747
36.208834171,46.87204,75.95702,-55.85762,-0.9457467,0.2759844,0.2973815,46.21484,-17.11132,2.573858,1007.749
36.243482113,-73.28584,57.31375,-61.06702,-1.011312,-0.0550191,0.3208105,46.61666,-15.95055,4.351463,1007.747
36.275655269,-37.10333,63.52817,-51.62882,-1.126812,-0.2746245,0.1552339,47.4137,-13.6355,7.396641,1007.749
36.307827473,-32.92606,57.78723,-44.09052,-1.076262,-0.1315898,0.2942753,47.4137,-13.6355,7.396641,1007.749
36.342475414,-22.2986,63.05469,-37.77795,-1.020227,-0.1299728,0.2253218,47.43207,-12.09392,8.728041,1007.749
36.374648571,-42.01777,60.09544,-32.44598,-0.9389725,-0.1978128,0.2293064,47.08379,-10.91672,10.9558,1007.749
36.409296512,-0.4908026,59.50359,-26.1947,-0.9567972,-0.2123916,0.08957265,47.08379,-10.91672,10.9558,1007.746
36.441469192,-13.02261,55.00553,-26.99143,-1.033337,-0.2013045,0.09327025,46.34602,-9.745529,12.29292,1007.746
36.476117134,6.573695,49.02784,-24.29481,-1.066489,-0.2880779,0.02297429,45.9964,-9.331415,14.46064,1007.746
