Time (s),Gyroscope X (deg/s),Gyroscope Y (deg/s),Gyroscope Z (deg/s),Accelerometer X (g),Accelerometer Y (g),Accelerometer Z (g),Magnetometer X (uT),Magnetometer Y (uT),Magnetometer Z (uT),Barometer (hPa)
0.014951229,0.003534131,0.0311961,-0.001789157,-0.9977918,-0.0006882063,-0.2346357,44.3491,-35.69131,9.879395,1008.205
0.047235012,-0.1202335,0.03143692,-0.06285626,-0.9924633,-0.005031633,-0.2356388,44.3491,-35.69131,9.879395,1008.206
0.082003117,0.1275672,-0.1446806,-0.06277174,-0.9876366,-0.001144742,-0.2351436,44.33579,-34.96792,9.434436,1008.206
0.114286900,-0.05879604,-0.08595866,-0.001632439,-0.9919881,-0.001644389,-0.236104,45.41346,-35.71455,8.991394,1008.205
0.146571159,0.06533258,-0.2034005,0.05921951,-0.9929504,-0.005047758,-0.2399887,45.41346,-35.71455,8.991394,1008.205
0.181339264,-0.3063881,-0.08552531,0.1811276,-0.9944052,-0.00262571,-0.2380381,44.32381,-34.97356,8.998709,1008.203
0.213623047,-0.1820858,0.090766,-0.00203159,-0.9914943,-0.005998364,-0.2361298,45.05003,-35.34605,8.992294,1008.203
0.248390675,-0.1195263,-0.2605972,0.05872685,-0.9929571,-0.0001888158,-0.2341598,45.05003,-35.34605,8.992294,1008.203
0.280674934,-0.05743501,-0.0253868,0.05871686,-0.9876276,-0.005993857,-0.2380719,45.05003,-35.34605,8.992294,1008.203
0.315442562,-0.1192537,-0.02542263,-0.06328826,-0.9915153,0.003199556,-0.2351106,44.32513,-35.70258,9.007941,1008.203
0.347726822,0.1907701,0.09190251,-0.06320225,-0.9929467,-0.003566487,-0.2312784,44.32513,-35.70258,9.007941,1008.203
0.380011082,0.06666736,-0.1429334,-0.06325036,-0.9900542,-0.001151654,-0.2351384,45.06201,-35.34041,9.428021,1008.207
0.414778710,0.1905745,0.03325004,0.1195629,-0.9871531,-0.001632202,-0.2365977,45.42479,-35.3444,9.422505,1008.207
0.447062492,0.06647239,-0.08421744,-0.0632498,-0.9900542,-0.001151654,-0.2351384,45.42479,-35.3444,9.422505,1008.209
0.481830597,0.06637508,0.09200287,-0.2458707,-0.9886087,0.0007865691,-0.235614,44.71254,-36.05982,9.878495,1008.209
0.514114380,0.004383579,0.1507171,0.05891759,-0.9929447,-0.003558297,-0.2288612,45.0387,-35.71619,8.561183,1008.209
0.546398640,0.004151754,-0.08443239,-0.001861779,-0.9890827,-0.003084603,-0.2351515,45.0387,-35.71619,8.561183,1008.211
0.581166744,0.06610736,0.03299396,-0.2454444,-0.989095,0.0002848775,-0.2404502,44.69989,-35.70094,9.438152,1008.212
0.613450527,-0.05764293,-0.2014177,0.1810517,-0.992477,0.0002866668,-0.2370588,44.33711,-35.69695,9.443668,1008.212
0.648218155,-0.05733157,-0.02514346,-0.001972937,-0.9939299,0.002228062,-0.234144,44.33711,-35.69695,9.443668,1008.212
0.680501938,0.06653835,0.03321974,-0.1846532,-0.9871576,0.0007923543,-0.2351336,45.41214,-34.98552,8.982162,1008.212
0.715270042,0.004700169,0.2678297,0.0591554,-0.9852219,-0.000173249,-0.2361102,44.33646,-35.33244,9.439052,1008.212
0.747554302,-0.1195191,-0.08472374,-0.1843515,-0.9939156,-0.005531175,-0.2390225,45.06267,-35.70493,9.432637,1008.212
0.779838085,0.004856855,-0.1430815,-0.0625976,-0.9939272,0.0007730005,-0.2351191,45.06267,-35.70493,9.432637,1008.212
0.814606190,0.00466074,-0.08435804,-0.001401175,-0.9919922,0.0007818062,-0.2341564,45.06201,-35.34041,9.428021,1008.212
0.846889973,-0.05746792,0.09179939,0.05960248,-0.9934362,-0.003103598,-0.237076,44.67526,-35.34769,8.562082,1008.211
0.881657600,-0.1194417,-0.02542,0.1204531,-0.9915022,-0.0006554929,-0.2302981,44.67526,-35.34769,8.562082,1008.211
0.913942337,0.1905051,-0.02526131,-0.06228646,-0.9919908,-0.001167012,-0.238035,44.32314,-34.60904,8.994093,1008.211
0.948709488,0.1902714,-0.2015717,-0.1232212,-0.9871538,-0.001146636,-0.2361116,44.70055,-36.06546,9.442768,1008.211
0.980993748,0.004371874,-0.2017072,0.05960613,-0.9910253,-0.0011708,-0.2399708,44.70055,-36.06546,9.442768,1008.211
1.013278008,0.1902165,-0.08441838,-0.0621549,-0.9905296,-0.006494269,-0.2404856,44.32381,-34.97356,8.998709,1008.206
1.048045635,-0.1197868,-0.1428424,-0.001419448,-0.9895787,0.003214913,-0.232214,44.68725,-35.34206,8.997809,1008.206
1.080329895,0.06636965,-0.08427553,0.1203342,-0.9890834,-0.002599037,-0.2346653,44.68725,-35.34206,8.997809,1008.206
1.115097046,0.06640851,-0.0252765,-0.1231924,-0.9910175,-0.001626882,-0.231755,45.05003,-35.34605,8.992294,1008.206
1.147381783,-0.1198217,-0.02550489,0.05986439,-0.9866729,0.0007986509,-0.2336843,44.31182,-34.97919,8.562982,1008.206
1.182149410,0.06613937,-0.2016488,-0.001052294,-0.9934447,-0.0002065786,-0.2389933,44.31182,-34.97919,8.562982,1008.208
1.214433670,0.06585027,0.03289805,-0.0008190146,-0.9929525,-0.00212453,-0.2341709,45.05003,-35.34605,8.992294,1008.21
1.246717930,-0.1202028,-0.08454949,-0.001045333,-0.9915022,-0.001633178,-0.2332043,44.33646,-35.33244,9.439052,1008.21
1.281485081,-0.11985,0.03269302,0.05972783,-0.9910257,-0.0006835948,-0.2390012,44.33646,-35.33244,9.439052,1008.21
1.313769817,0.2519751,-0.08473532,-0.06216769,-0.989571,-0.0026168,-0.2394988,44.6879,-35.70657,9.002425,1008.21
1.348537445,-0.05804696,0.1498584,-0.001126014,-0.9890804,-0.004052461,-0.235157,45.05003,-35.34605,8.992294,1008.211
1.380821228,-0.1199203,0.1496342,-0.06217675,-0.9968327,0.003190901,-0.2331654,45.05003,-35.34605,8.992294,1008.211
1.413105965,-0.11982,0.03206056,-0.06238215,-0.9910238,-0.00165309,-0.2394902,44.68725,-35.34206,8.997809,1008.213
1.447873116,0.004050583,0.2081572,0.05950561,-0.9895746,0.001766404,-0.2312554,45.06201,-35.34041,9.428021,1008.215
1.480157375,-0.05801715,0.1493422,0.05943501,-0.9866681,-0.002601953,-0.2375712,45.06201,-35.34041,9.428021,1008.215
1.514925480,0.003880993,0.09053615,-0.1843594,-0.9915015,-0.002118745,-0.2336905,45.04936,-34.98153,8.987679,1008.215
1.547209263,0.06574155,0.03190615,-0.1841046,-0.9900437,-0.006971901,-0.2390391,44.68658,-34.97754,8.993194,1008.215
1.581976891,0.1278544,0.09048764,-0.001181437,-0.9919925,0.001757854,-0.2317336,44.69989,-35.70094,9.438152,1008.217
1.614260673,0.1278775,-0.0268079,-0.1841517,-0.9910203,-0.001638348,-0.2351391,44.69989,-35.70094,9.438152,1008.215
1.646545410,0.06580994,-0.02680908,-0.001324325,-0.9924736,-0.0006762758,-0.235614,45.42479,-35.3444,9.422505,1008.217
1.681313038,-0.2444054,-0.08555989,-0.001280234,-0.9895549,-0.008902957,-0.2380842,44.32447,-35.33807,9.003325,1008.217
1.713596821,0.003882982,-0.02667423,-0.001657226,-0.9934366,-0.002616393,-0.2361064,44.32447,-35.33807,9.003325,1008.215
1.748364925,0.003963143,-0.08518633,0.1809047,-0.9919981,0.001734921,-0.2385019,45.03804,-35.35168,8.556567,1008.215
1.780648708,0.06578456,-0.08513384,0.1201441,-0.9915157,0.003197918,-0.235594,44.33646,-35.33244,9.439052,1008.215
1.815416336,-0.2441584,-0.2024786,0.059058,-0.9900523,-0.001632307,-0.2341743,44.33646,-35.33244,9.439052,1008.219
1.847701073,0.251693,0.03247667,-0.001893998,-0.9919907,-0.0001893268,-0.2351288,45.06135,-34.9759,9.423406,1008.219
1.879984856,0.00339447,0.2088027,-0.06273139,-0.9968324,0.001726011,-0.2370412,44.67526,-35.34769,8.562082,1008.213
1.914752483,-0.05853579,-0.08490992,-0.06253247,-0.9910275,0.001263586,-0.2356061,44.67526,-35.34769,8.562082,1008.217
1.947036743,0.003306977,-0.02628448,0.05931718,-0.9939175,-0.005050522,-0.2399867,44.67592,-35.71221,8.566698,1008.217
1.981804371,0.003408976,0.0326256,-0.06259503,-0.9910296,0.0007665525,-0.2394764,44.33579,-34.96792,9.434436,1008.216
2.014088631,-0.05875355,-0.1431922,0.05921673,-0.9876459,0.002237843,-0.2365747,44.33579,-34.96792,9.434436,1008.216
2.048855782,0.002992168,-0.02560019,-0.06263809,-0.9963404,-0.001169626,-0.235125,45.05068,-35.71056,8.99691,1008.216
2.081140518,0.06522579,0.1505202,0.05919302,-0.9934484,0.002710097,-0.2351092,45.40082,-35.35567,8.551051,1008.216
2.113424301,0.002986111,0.1505142,-0.1237173,-0.9905394,-0.001648431,-0.2385243,45.40082,-35.35567,8.551051,1008.216
2.148192406,0.06482986,0.03292654,-0.123786,-0.994412,0.0007667039,-0.2365685,44.6879,-35.70657,9.002425,1008.217
2.180476666,-0.05905143,0.03292111,0.05902464,-0.9895754,0.000785442,-0.2351285,45.41214,-34.98552,8.982162,1008.217
2.215243816,-0.1210769,0.2089585,0.05891842,-0.9920003,0.003680464,-0.2355902,45.41214,-34.98552,8.982162,1008.217
2.247528553,-0.05903716,0.09158511,0.1197909,-0.9934465,0.0007629163,-0.2385043,43.94904,-34.9752,8.568498,1008.217
2.279812336,-0.1210227,-0.02621222,-0.06332836,-0.991023,-0.0006721286,-0.2356171,44.68725,-35.34206,8.997809,1008.217
2.314579964,-0.1208608,-0.08509436,0.05877364,-0.9953745,-0.0001940901,-0.2336712,44.68725,-35.34206,8.997809,1008.217
2.346864700,0.1889753,-0.1437263,-0.06311778,-0.9895765,0.001269371,-0.2351257,45.05068,-35.71056,8.99691,1008.217
2.381631851,-0.0591852,0.1499767,0.1809219,-0.9915066,-0.0006735112,-0.235616,44.68658,-34.97754,8.993194,1008.221
2.413916111,-0.1831243,0.03262275,0.05902926,-0.9915143,0.001737942,-0.2380195,44.68658,-34.97754,8.993194,1008.217
2.448684216,-0.05918976,-0.02625998,-0.1847632,-0.9919935,-0.000200793,-0.2385129,44.71188,-35.6953,9.873879,1008.221
2.480967999,0.0647269,-0.08487378,-0.06256837,-0.9886084,-0.0001894781,-0.2380367,44.6879,-35.70657,9.002425,1008.22
2.513252258,0.1263977,0.09128593,0.05952983,-0.9886079,0.0003010023,-0.2361002,44.69857,-34.97191,9.428921,1008.22
2.548019409,0.2502174,0.0325873,-0.06226867,-0.9939231,-0.0006755089,-0.2341605,44.69857,-34.97191,9.428921,1008.22
2.580304146,0.002080344,0.03245433,0.05986636,-0.9944046,-0.0006687013,-0.2317422,44.69857,-34.97191,9.428921,1008.22
2.615071773,0.1881083,-0.2020389,-0.1228745,-0.9915119,0.000770084,-0.238025,44.69989,-35.70094,9.438152,1008.22
2.647355556,0.1879634,-0.2018966,0.05998952,-0.9905372,-0.003105131,-0.2399829,44.69989,-35.70094,9.438152,1008.217
2.682123661,0.002014309,0.150102,0.05991718,-0.9914955,-0.005514435,-0.236127,44.69923,-35.33643,9.433537,1008.217
2.714407444,0.1259533,0.09115566,-0.2448201,-0.9910246,-0.001656366,-0.240457,45.77492,-34.98951,8.976647,1008.217
2.746691704,0.002056204,0.2083369,-0.1227626,-0.9939234,-0.00116599,-0.2360971,45.77492,-34.98951,8.976647,1008.217
2.781459808,0.06376845,-0.1440946,0.1212332,-0.9924632,-0.00454279,-0.2341857,44.69989,-35.70094,9.438152,1008.219
2.813743591,0.06385829,-0.02659869,-0.2444082,-0.99394,0.003652001,-0.2423543,45.05068,-35.71056,8.99691,1008.219
2.848511219,0.1877392,-0.02668447,-0.1222947,-0.9924809,0.001736815,-0.237534,45.05068,-35.71056,8.99691,1008.219
2.880795479,-0.06041544,-0.02639148,0.06045251,-0.9881091,-0.005987048,-0.2356536,44.69989,-35.70094,9.438152,1008.219
2.913079739,0.002212495,0.2083429,-0.06184724,-0.9915018,-0.0006538548,-0.2298147,45.06267,-35.70493,9.432637,1008.221
2.947847366,0.06386542,0.09066715,-0.18361,-0.9944048,-0.002624072,-0.2375546,45.06267,-35.70493,9.432637,1008.221
2.980131626,0.06368282,-0.08581059,-0.06172539,-0.9905409,0.0003003867,-0.2346457,45.41214,-34.98552,8.982162,1008.219
3.014899254,0.06423881,0.03162211,0.1816968,-0.9886163,0.004175706,-0.2351113,45.41214,-34.98552,8.982162,1008.219
3.047183037,0.2499172,0.1487883,-0.06217605,-0.9890839,-0.004067203,-0.2395081,45.41214,-34.98552,8.982162,1008.219
3.081951141,0.001741841,-0.02758655,-0.06207512,-0.9886053,-0.0006652164,-0.2356222,44.32447,-35.33807,9.003325,1008.219
3.114235401,-0.1222321,0.1483398,0.1206561,-0.9919956,0.002722435,-0.232695,45.40147,-35.72018,8.555667,1008.219
3.146519184,0.06372079,0.03108445,-0.06223717,-0.9914981,0.0003385723,-0.2225575,45.40147,-35.72018,8.555667,1008.219
3.181287289,-0.06013701,-0.02749718,-0.001195202,-0.9929507,-0.00407171,-0.237566,45.074,-35.33478,9.863749,1008.219
3.213571072,-0.122021,-0.02738495,0.120519,-0.9890957,0.002236972,-0.2356047,45.04936,-34.98153,8.987679,1008.219
3.248338699,-0.05991993,-0.2623147,0.120525,-0.9934362,-0.003103598,-0.237076,44.32513,-35.70258,9.007941,1008.219
3.280623436,0.0640187,-0.1447788,0.05941786,-0.9900451,-0.00453424,-0.2337074,44.32513,-35.70258,9.007941,1008.217
3.315390587,-0.1838073,-0.1445484,-0.123531,-0.9939311,0.001734306,-0.2370474,45.06201,-35.34041,9.428021,1008.216
3.347674847,0.0638646,-0.02721664,-0.1232184,-0.9929634,0.0002738181,-0.2404419,44.32314,-34.60904,8.994093,1008.216
3.379958630,0.001922116,0.09015244,0.1205497,-0.9914995,-0.002110555,-0.2312733,44.32314,-34.60904,8.994093,1008.216
3.414726734,0.00173863,-0.08579893,0.1204028,-0.9866699,-0.001143615,-0.2356291,44.33513,-34.6034,9.42982,1008.218
3.447010994,-0.05981468,-0.202781,0.05918149,-0.9900584,0.001763384,-0.2317378,45.06135,-34.9759,9.423406,1008.216
3.481778145,0.002032854,-0.02638985,-0.001713243,-0.9968175,-0.003587375,-0.2341709,45.06135,-34.9759,9.423406,1008.216
3.514062882,0.001985736,0.09106778,-0.0626278,-0.9919897,-0.001650941,-0.2380378,44.69857,-34.97191,9.428921,1008.215
3.548830509,0.002073951,0.09088895,-0.0626587,-0.9857084,0.00274532,-0.2312582,45.07333,-34.97026,9.859133,1008.215
3.581114292,-0.05977202,-0.02703418,-0.00173044,-0.9944019,-0.0006572351,-0.2283581,45.07333,-34.97026,9.859133,1008.215
3.613399029,0.1259453,-0.08599512,-0.1234708,-0.9905376,-0.003106769,-0.2404663,44.69791,-34.60739,9.424305,1008.213
3.648166180,0.002183847,-0.1446332,0.1812776,-0.9919908,-0.0006781693,-0.2365819,44.68658,-34.97754,8.993194,1008.213
3.680450439,0.06444012,0.03182497,0.05902039,-0.9876571,0.004634553,-0.2433292,44.68658,-34.97754,8.993194,1008.213
3.715218544,0.06411841,0.1489988,-0.001892674,-0.9929551,-0.001158311,-0.2346488,45.06135,-34.9759,9.423406,1008.213
3.747502327,0.2493694,0.5007184,-0.3667263,-0.9866681,-0.002601953,-0.2375712,44.68725,-35.34206,8.997809,1008.207
3.779787064,-0.1229055,-0.02845088,0.06016825,-0.9876386,-0.0006640898,-0.2361078,44.68725,-35.34206,8.997809,1008.213
3.814554214,0.06304891,0.03026575,0.1822442,-0.9905349,-0.004072988,-0.2399884,45.06068,-34.61138,9.418789,1008.213
3.846838474,0.3727379,-0.2041716,-0.06153516,-0.9963543,0.002682146,-0.2409043,45.04936,-34.98153,8.987679,1008.213
3.881606102,-0.06090653,-0.08542782,-0.1224351,-0.9934492,0.002706821,-0.2360761,45.04936,-34.98153,8.987679,1008.213
3.913890362,0.125146,-0.3190621,-0.182953,-0.9944113,-0.0002077052,-0.2385077,45.42413,-34.97989,9.41789,1008.213
3.948657989,0.1244797,-0.02481103,-0.1216108,-0.9934301,-0.005521603,-0.2366063,44.68658,-34.97754,8.993194,1008.213
3.980941772,-0.1854485,0.03412164,0.304533,-0.9910237,0.0003022802,-0.2336778,44.68658,-34.97754,8.993194,1008.213
4.013226509,0.1246896,0.03466361,-0.0008191555,-0.9929551,-0.0006694683,-0.2331957,45.05003,-35.34605,8.992294,1008.213
4.047994137,0.3101215,0.09339789,-0.1830638,-0.9876471,0.002232929,-0.238025,44.68658,-34.97754,8.993194,1008.213
4.080277920,1.954287E-05,-0.1412413,0.0003322263,-0.9876424,0.0007860577,-0.2365829,44.68658,-34.97754,8.993194,1008.213
4.115046024,0.06201216,-0.02393412,-0.3034743,-0.9929534,-0.002616649,-0.2365908,45.4128,-35.35004,8.986778,1008.215
4.147329807,0.06189542,-0.1998342,-0.4244817,-0.9900704,0.00464566,-0.2380061,44.69989,-35.70094,9.438152,1008.215
4.182097435,-0.1243555,-0.1400518,-0.05764356,-0.9944021,-0.002612606,-0.2341705,44.68725,-35.34206,8.997809,1008.215
4.214382172,0.1237934,0.2126249,0.00332184,-0.993912,-0.006494117,-0.2375777,44.68725,-35.34206,8.997809,1008.215
4.246665955,-0.2472702,-0.256741,0.3071898,-0.9910184,-0.002119,-0.234175,44.6879,-35.70657,9.002425,1008.213
4.281433582,0.1251123,0.0956085,-0.05873216,-0.9963447,-0.0002099589,-0.2375367,45.0487,-34.61702,8.983062,1008.212
4.313718319,-0.06092973,-0.08055819,0.1244438,-0.991513,0.002231698,-0.2351161,45.0487,-34.61702,8.983062,1008.212
4.348485470,-0.1846288,-0.08027813,0.002283748,-0.9953907,0.004625538,-0.239445,45.06201,-35.34041,9.428021,1008.212
4.380769730,-0.1840316,-0.02084291,0.2458271,-0.9915106,0.002241526,-0.2322154,44.33711,-35.69695,9.443668,1008.212
4.413053513,0.064477,-0.02044521,-0.05894182,-0.991022,0.001286518,-0.2288378,44.33711,-35.69695,9.443668,1008.212
4.447821617,0.2489876,0.2721643,-0.3623738,-0.9915164,0.003683484,-0.2351078,45.04936,-34.98153,8.987679,1008.21
4.480105877,-0.1233635,0.09524113,0.2470385,-0.9905342,-0.004558555,-0.2404746,45.03738,-34.98717,8.551951,1008.21
4.514873028,-0.5561516,-0.2560307,0.3674915,-0.9876539,0.0051365,-0.2380085,45.03738,-34.98717,8.551951,1008.212
4.547157765,0.1265036,-0.5470282,-0.2421515,-0.9910089,-0.003057373,-0.2254785,44.68658,-34.97754,8.993194,1008.212
4.581924915,0.1267258,0.1004212,0.001641882,-0.991988,-0.001155546,-0.2346509,45.41346,-35.71455,8.991394,1008.212
4.614209175,0.002281792,0.3924944,0.3060517,-0.9910198,-0.00163671,-0.2346557,45.41346,-35.71455,8.991394,1008.212
4.646493912,0.3738614,0.5667448,-0.181842,-0.9977915,-0.002153096,-0.2385115,44.31314,-35.70822,8.572214,1008.21
4.681261063,0.1245984,-0.1972213,-0.1806617,-0.9924828,0.002217467,-0.2384981,44.33646,-35.33244,9.439052,1008.21
4.713545799,0.06248622,-0.4310443,0.002533465,-0.9963266,-0.006487926,-0.233705,44.33646,-35.33244,9.439052,1008.21
4.748313427,-0.123029,-0.07796684,-0.05834199,-0.9905424,0.001760363,-0.2322202,45.4128,-35.35004,8.986778,1008.21
4.780597210,0.434205,0.3324235,-0.05823783,-0.9929479,-0.003082559,-0.2312757,45.05003,-35.34605,8.992294,1008.21
4.815365314,0.3093431,0.272004,0.1852834,-0.9890873,-0.001637732,-0.2365936,45.05003,-35.34605,8.992294,1008.212
4.847649097,-0.2489808,-0.02202916,0.4893079,-0.9944032,-0.00261752,-0.2356208,44.32447,-35.33807,9.003325,1008.212
4.879933357,-0.248374,-0.02190286,0.244334,-0.9890944,0.002730729,-0.2327013,45.06201,-35.34041,9.428021,1008.212
4.914701462,0.1231002,0.1545589,-0.1213889,-0.9895844,0.005634556,-0.2322002,45.06201,-35.34041,9.428021,1008.212
4.946985245,0.3082472,0.1540021,0.1838666,-0.98957,-0.0006581533,-0.2327195,45.76293,-34.99514,8.54092,1008.212
4.981752872,0.1837629,0.4465452,-0.1206118,-0.9890957,0.002236972,-0.2356047,45.05068,-35.71056,8.99691,1008.212
5.014036655,0.1213126,0.3859669,-0.1201012,-0.9929606,-0.0002035581,-0.2385108,45.05068,-35.71056,8.99691,1008.212
5.048804760,-0.1274839,0.2667388,0.1240358,-0.9895624,-0.004536134,-0.2346753,43.96103,-34.96957,9.004225,1008.212
5.081089020,-0.06602147,0.3830937,-0.180466,-0.987143,-0.008431773,-0.243888,45.04936,-34.98153,8.987679,1008.212
5.113372803,0.05821436,-0.2037833,0.002403668,-0.9900708,0.004644022,-0.2384895,44.33711,-35.69695,9.443668,1008.212
5.148140907,0.2440158,-0.1440572,0.002545869,-0.9915118,0.002725455,-0.2322126,44.33711,-35.69695,9.443668,1008.212
5.180424690,-0.06568083,-0.02634077,0.06305555,-0.9929544,-0.001155035,-0.2336819,44.71122,-35.33079,9.869264,1008.212
5.215192318,0.05793275,0.207923,0.06253035,-0.9948877,-0.004088706,-0.240946,45.06135,-34.9759,9.423406,1008.213
5.247477055,0.305494,0.09036978,-0.05962472,-0.9915103,0.001265479,-0.2346381,45.06135,-34.9759,9.423406,1008.213
5.314528465,0.3033217,0.3222837,-0.1201778,-0.9881229,-0.002135276,-0.2414329,44.69923,-35.33643,9.433537,1008.213
5.346812248,0.116417,0.4965811,0.06252234,-0.9939137,-0.00650067,-0.2395115,44.69923,-35.33643,9.433537,1008.213
5.381580353,0.1778991,-0.1497084,-0.1204786,-0.9886214,0.004154412,-0.2413961,45.03804,-35.35168,8.556567,1008.213
5.413864613,-0.06992374,-0.5590782,-0.1812915,-0.9939277,0.0002825196,-0.2370557,45.41214,-34.98552,8.982162,1008.213
5.448631764,-0.07029681,-0.4398999,-0.0587101,-0.9943936,-0.005509625,-0.2322532,45.41214,-34.98552,8.982162,1008.213
5.480916500,-0.07004917,-0.1451271,0.1849673,-0.990537,-0.0001720753,-0.2312643,44.69923,-35.33643,9.433537,1008.213
5.513200760,-0.007887006,0.2656102,0.1231962,-0.9929629,0.001741985,-0.2355992,44.69923,-35.33643,9.433537,1008.213
5.547967911,0.4249328,0.147076,-0.1814745,-0.9944001,-0.004070943,-0.2361126,44.69923,-35.33643,9.433537,1008.213
5.580252648,0.1758699,0.0298439,-0.3023486,-0.9920025,0.005137163,-0.2341316,44.69857,-34.97191,9.428921,1008.213
5.615019798,-0.01107562,-0.1460823,-0.05760294,-0.9943922,-0.007947286,-0.2375849,44.69857,-34.97191,9.428921,1008.213
5.647304535,-0.1346859,-0.08650798,-0.05754007,-0.9885981,-0.001124575,-0.2283733,44.69857,-34.97191,9.428921,1008.213
5.682072163,-0.01084711,-0.02716798,-0.2401861,-0.9953726,-0.0006747424,-0.2327071,45.42413,-34.97989,9.41789,1008.212
5.714355946,0.11227,0.03164561,-0.1180329,-0.9953739,-0.002635027,-0.2399698,44.71122,-35.33079,9.869264,1008.212
5.746640682,-0.01176582,-0.2028523,0.1254465,-0.9944041,-0.003109638,-0.2380408,44.71122,-35.33079,9.869264,1008.212
5.781408310,-0.07413444,-0.5538654,0.185779,-0.9914985,-0.004549854,-0.2370884,44.68725,-35.34206,8.997809,1008.212
5.813692093,0.1739066,0.1519598,-0.1193374,-0.9919877,-0.00164275,-0.2356205,44.69923,-35.33643,9.433537,1008.21
5.848460197,-0.1362579,0.1517534,0.1847621,-0.9953675,-0.002119976,-0.2307816,44.69791,-34.60739,9.424305,1008.208
5.880743980,-0.1978903,0.03441054,0.0008044844,-0.9920055,0.007079429,-0.2321868,44.69791,-34.60739,9.424305,1008.208
5.915511608,0.1736923,-0.08283335,-0.1817532,-0.9905379,-0.001641879,-0.2365905,45.05003,-35.34605,8.992294,1008.208
5.947796345,-0.1366702,-0.2578673,0.244903,-0.9934387,-0.0001820082,-0.2317416,45.04936,-34.98153,8.987679,1008.208
5.980080128,0.2971381,-0.2571112,-0.3033189,-0.9968204,-0.0006674235,-0.2293199,45.04936,-34.98153,8.987679,1008.206
6.014847755,0.1712457,-0.02087698,-0.119204,-0.9818408,0.002753103,-0.2322333,43.96037,-34.60505,8.999609,1008.208
6.047131538,0.3553794,0.03815028,-0.4839227,-0.99538,0.003692081,-0.2292982,45.06068,-34.61138,9.418789,1008.206
6.081899643,-0.2647699,-0.2549783,-0.1170918,-0.996336,-0.005549553,-0.2424015,45.06068,-34.61138,9.418789,1008.206
6.114183903,0.1698521,-0.07770199,-0.1780135,-0.9910114,-0.004533729,-0.2327384,44.69857,-34.97191,9.428921,1008.206
6.146467686,-0.6971099,-0.6631237,0.3701458,-0.9924896,0.005121038,-0.2384816,44.33711,-35.69695,9.443668,1008.206
6.181235790,-0.2611096,-0.7773794,-0.2394516,-0.9919872,-0.00115227,-0.233684,44.33711,-35.69695,9.443668,1008.205
6.213519573,-0.3223686,-1.301578,-0.3599174,-0.9915065,-0.0001846686,-0.234163,45.05003,-35.34605,8.992294,1008.205
6.248287201,0.1739026,-0.4750392,-0.5404907,-0.9924722,0.000795166,-0.2298043,45.05003,-35.34605,8.992294,1008.205
6.280571938,0.1738157,0.11328,-0.5385554,-0.9900568,0.001769936,-0.229804,45.05003,-35.34605,8.992294,1008.205
6.315339089,0.3587984,0.170675,-0.6578434,-0.9924752,-0.001660513,-0.2404539,44.73573,-35.34836,8.561163,1008.209
6.347623348,-0.4475239,-1.119363,-0.1074796,-0.9915099,-0.002641986,-0.245296,44.32381,-34.97356,8.998709,1008.21
6.379908085,-1.56077,-3.520252,-0.4111958,-0.9919782,-0.006001384,-0.2366122,44.32381,-34.97356,8.998709,1008.209
6.414675236,-1.932612,-5.398741,-1.020603,-1.001694,0.008446236,-0.2490785,45.42479,-35.3444,9.422505,1008.209
6.446959496,-1.250902,-6.748905,-1.690951,-0.9997075,-0.007458908,-0.2317694,45.02539,-34.9928,8.116225,1008.21
6.481727123,-1.56077,-8.451285,-1.995654,-1.003101,-0.006039731,-0.2385222,45.02539,-34.9928,8.116225,1008.21
6.514011383,-2.862217,-5.80966,0.1372706,-1.004978,-0.01655573,-0.1984525,45.39949,-34.62664,8.54182,1008.21
6.548779011,-2.552349,-1.817871,0.1372706,-1.00209,-0.01318451,-0.2056912,45.02473,-34.62828,8.111609,1008.21
6.581063271,-4.163664,-0.9960322,1.477966,-0.9982616,0.00229916,-0.2094789,45.02473,-34.62828,8.111609,1008.21
6.613347531,-2.800243,0.2367261,-2.117536,-1.007516,0.03278005,-0.2034844,45.02539,-34.9928,8.116225,1008.212
6.648115635,-3.234059,-1.289546,-7.66314,-1.008471,0.02109911,-0.2224028,45.02473,-34.62828,8.111609,1008.206
6.680399418,-4.287611,-3.520252,-12.11181,-1.00652,0.01677877,-0.2137297,45.02473,-34.62828,8.111609,1008.21
6.715167046,-3.915769,-3.226738,-15.95108,-1.011305,-0.0001316,-0.2017296,44.65063,-34.99445,7.686013,1008.21
6.747450828,-3.729848,-4.400794,-18.3887,-0.9788464,-0.03105954,-0.2164786,45.37354,-33.54436,7.656519,1008.21
6.779735565,-2.800243,-4.987821,-19.66846,-1.008811,-0.03499047,-0.2087013,45.37354,-33.54436,7.656519,1008.21
6.814503193,-2.73827,-5.633552,-20.09504,-1.009687,-0.06882401,-0.1958389,46.06076,-33.20553,6.271445,1008.209
6.846786976,-4.039717,-3.931171,-16.62142,-0.9752858,-0.09336035,-0.1825163,45.69666,-32.47251,6.267729,1008.209
6.881555080,-4.163664,-2.228791,-14.61038,-1.019821,-0.07511954,-0.1886013,45.65739,-30.66684,4.937469,1008.207
6.913838863,-3.915769,-0.52641,-11.86805,-0.990792,-0.09158517,-0.2167969,45.65739,-30.66684,4.937469,1008.205
6.948606491,-3.296032,-0.4677072,-8.821012,-0.9975883,-0.07998697,-0.2157495,46.00554,-29.2184,4.477763,1008.205
6.980891228,-1.498796,-0.52641,-8.394427,-1.003835,-0.0871705,-0.1882209,45.99223,-28.495,4.032804,1008.204
7.013175011,-0.07340218,-2.346196,-8.881953,-1.012525,-0.09789095,-0.2027662,45.99223,-28.495,4.032804,1008.202
7.047942638,1.537913,-4.576902,-7.785021,-1.026607,-0.07765027,-0.2156737,45.61483,-27.03858,3.584129,1008.202
7.080227375,1.785808,-6.337985,-8.881953,-0.988789,-0.1147509,-0.2000126,45.6135,-26.30955,3.574898,1008.202
7.114994526,2.033702,-7.277229,-6.931851,-0.9936128,-0.1210689,-0.2039057,45.6135,-26.30955,3.574898,1008.202
7.147278786,1.104097,-7.394635,-4.677045,-1.000836,-0.1278089,-0.1874915,46.3131,-25.23525,2.678566,1008.204
7.182045937,0.5463344,-7.92296,-2.726943,-0.9863557,-0.1078379,-0.1613035,46.31244,-24.87073,2.67395,1008.204
7.214330673,-0.3212968,-5.457443,-1.203425,-1.004198,-0.1311406,-0.1681657,46.31244,-24.87073,2.67395,1008.204
7.246614933,0.4843608,-4.987821,-0.4721365,-0.9891999,-0.1286224,-0.1517467,45.93768,-24.87238,2.243738,1008.205
7.281382084,0.4223871,-4.342091,-1.081543,-1.012974,-0.1084978,-0.1907396,46.27411,-24.52393,1.299907,1008.205
7.313666821,1.909755,-5.105227,-1.203425,-0.9844131,-0.1112183,-0.1608434,46.27411,-24.52393,1.299907,1008.207
7.348434448,0.1744925,-5.633552,-0.1064922,-0.9974688,-0.1122333,-0.1637217,45.92371,-23.78447,1.794164,1008.207
7.380718231,1.042124,-5.574849,-0.350255,-1.001385,-0.09143049,-0.1621447,45.92305,-23.41995,1.789548,1008.209
7.415486336,3.830939,-6.22058,-1.63001,-0.9989114,-0.1092716,-0.1453311,45.92305,-23.41995,1.789548,1008.209
7.447770119,-0.5691915,-2.287494,0.3810334,-0.9945159,-0.1256931,-0.1396327,45.55894,-22.68693,1.785832,1008.209
7.480054855,-0.2593232,-1.465654,-0.5940179,-1.009564,-0.1054535,-0.1520546,45.91001,-23.7909,1.296191,1008.208
7.514822483,-0.01142852,-0.6438156,0.685737,-0.9920648,-0.1392312,-0.1382646,45.91001,-23.7909,1.296191,1008.209
7.547106266,-0.5691915,0.7650511,2.270195,-0.9525115,-0.08918807,-0.1129265,45.17115,-23.05953,0.8622627,1008.208
7.581874371,1.351992,1.645593,1.660788,-1.017243,-0.1257597,-0.1400675,45.89671,-23.06751,0.8512316,1008.206
7.614158153,0.2984398,2.115215,2.635839,-1.013383,-0.1282289,-0.1579771,46.27146,-23.06586,1.281443,1008.206
7.646442413,0.5463344,-0.2328961,3.184306,-1.032343,-0.09253924,-0.1775543,46.27146,-23.06586,1.281443,1008.206
7.681210518,-0.7551125,-1.759168,3.001484,-0.9974634,-0.113188,-0.1598596,45.89671,-23.06751,0.8512316,1008.208
7.713494301,-0.1973495,-1.99398,2.026432,-0.9989442,-0.09425835,-0.1418616,45.53393,-23.06352,0.8567472,1008.208
7.748261928,-0.3832705,-0.8199239,0.6247963,-0.9994613,-0.08169398,-0.1466234,45.53393,-23.06352,0.8567472,1008.209
7.780546665,0.2364661,-2.522305,-2.605061,-1.013472,-0.09585481,-0.172296,45.89604,-22.703,0.8466158,1008.209
7.815313816,1.537913,-2.581007,-3.214468,-1.007591,-0.1189685,-0.1434338,45.17115,-23.05953,0.8622627,1008.209
7.847598076,1.042124,-1.524357,-0.77684,-1.003684,-0.1368792,-0.1483784,45.17115,-23.05953,0.8622627,1008.209
7.879881859,1.971729,-3.637657,3.976535,-1.039583,-0.09348524,-0.1649746,45.53326,-22.69901,0.8521314,1008.209
7.914649963,-0.07340218,-8.627394,-0.2283736,-1.017314,-0.1069962,-0.172351,45.54525,-22.69337,1.287858,1008.208
7.946934223,-0.4452441,-9.155719,-1.081543,-1.006659,-0.09761064,-0.1249437,45.54525,-22.69337,1.287858,1008.208
7.981701374,-0.8170861,-8.216474,-2.361298,-1.000854,-0.09660816,-0.1196326,45.52061,-22.34012,0.4117889,1008.208
8.013986111,-0.1353758,-5.046524,-3.641053,-0.9906113,-0.1240664,-0.09128796,45.87207,-22.71426,-0.02483749,1008.208
8.048753738,1.785808,-4.459496,-4.25046,-0.9988877,-0.1086845,-0.1148712,45.87207,-22.71426,-0.02483749,1008.208
8.081037521,2.033702,-2.63971,-3.580112,-1.01039,-0.1512968,-0.1131549,45.85942,-22.35538,-0.4651804,1008.206
8.113322258,1.537913,-2.757116,-0.77684,-0.996397,-0.1435597,-0.1266773,46.23286,-21.6247,-0.04420066,1008.206
8.148089409,0.6083081,-3.05063,0.9294998,-1.019611,-0.1426664,-0.1290394,46.23286,-21.6247,-0.04420066,1008.206
8.180373669,-0.2593232,-4.165982,0.8076184,-1.005635,-0.1208299,-0.1231441,46.28266,-22.36003,-0.4716153,1008.206
8.215141773,0.4223871,-3.872468,0.685737,-1.007565,-0.1203269,-0.1158855,45.85876,-21.99087,-0.4697962,1008.204
8.247425556,-0.1353758,-4.870416,0.3810334,-1.006133,-0.1135609,-0.1197177,45.85876,-21.99087,-0.4697962,1008.204
8.282193184,-0.1353758,-5.398741,-0.5330771,-0.9988179,-0.134295,-0.1038978,45.50797,-21.98124,-0.02855372,1008.204
8.314477444,0.2984398,-5.574849,1.356085,-1.00851,-0.127569,-0.1101234,45.12057,-21.62401,-0.8991079,1008.204
8.346761704,0.2364661,-4.635604,1.78267,-0.9983396,-0.1260079,-0.08644796,45.12057,-21.62401,-0.8991079,1008.206
8.381529331,-0.4452441,-2.757116,2.635839,-1.000788,-0.1158801,-0.09460355,45.484,-21.99251,-0.9000075,1008.206
8.413813591,-0.4452441,-2.404899,3.489009,-1.002709,-0.1226738,-0.09850555,45.84612,-21.63198,-0.9101388,1008.206
8.448581219,-0.3212968,-2.111385,3.306187,-1.014339,-0.1154775,-0.1071415,46.20889,-21.63597,-0.9156544,1008.206
8.480865955,0.3604134,-3.637657,3.367128,-1.007518,-0.1313737,-0.09129307,46.20889,-21.63597,-0.9156544,1008.206
8.513149738,0.4843608,-3.226738,3.123365,-1.016744,-0.1178762,-0.09893145,45.47135,-21.63363,-1.34035,1008.206
8.547917366,0.4223871,-3.578955,3.915594,-1.010951,-0.1115456,-0.09213981,45.83479,-22.00214,-1.34125,1008.206
8.580201149,-0.4452441,-2.346196,4.342179,-0.9998325,-0.1032199,-0.07229544,45.83479,-22.00214,-1.34125,1008.206
8.614969253,0.1744925,-1.289546,4.037476,-1.001271,-0.1105043,-0.07861847,45.90856,-22.7262,-0.8972106,1008.206
8.647253513,0.4223871,0.3541316,5.621934,-1.006094,-0.1153508,-0.07670187,46.57233,-22.00448,-0.916554,1008.206
8.682020664,-0.6311651,1.352079,7.389215,-1.006594,-0.1090677,-0.07859883,46.57233,-22.00448,-0.916554,1008.206
8.714305401,-0.9410334,0.53024,7.267333,-1.007132,-0.0917066,-0.09590274,45.1099,-22.35867,-1.325603,1008.208
8.746589661,-0.3212968,-0.8199239,5.25629,-1.023624,-0.0719289,-0.1005891,45.82346,-22.37228,-1.772361,1008.208
8.781356811,0.1744925,-0.9373294,2.69678,-1.030885,-0.06660514,-0.09425852,45.82346,-22.37228,-1.772361,1008.206
8.813641548,0.4223871,-0.4677072,0.9294998,-1.014389,-0.08832182,-0.09055003,45.47334,-22.72718,-1.326503,1008.206
8.848408699,-0.5072178,-0.0567878,2.148314,-1.007602,-0.09409159,-0.08527964,44.76043,-23.07808,-0.8751287,1008.208
8.880692959,-0.1973495,0.2367261,2.209255,-1.010037,-0.08684284,-0.08620006,44.76043,-23.07808,-0.8751287,1008.209
8.915461063,-0.01142852,-0.3503017,1.538907,-1.014419,-0.07818224,-0.09726046,45.49797,-23.08043,-0.4504333,1008.209
8.947744846,0.05054514,-1.054735,1.112322,-1.013916,-0.08347624,-0.08907319,45.84876,-23.09005,-0.8916755,1008.209
8.980029106,-0.2593232,-2.052682,0.685737,-1.012939,-0.08636557,-0.08570765,45.84876,-23.09005,-0.8916755,1008.209
9.014797211,-0.1973495,-1.641763,0.5029148,-1.013928,-0.07570717,-0.08129397,45.12122,-21.98852,-0.8944919,1008.209
9.047080994,-0.3212968,-1.230843,0.3810334,-1.010049,-0.08053704,-0.08181322,45.47334,-22.72718,-1.326503,1008.211
9.081848621,0.1125188,-0.9373294,0.01538919,-1.011962,-0.0887628,-0.07992212,45.47334,-22.72718,-1.326503,1008.209
9.114132404,-0.07340218,-0.3503017,0.6247963,-1.010048,-0.07808954,-0.07358085,45.47466,-23.45621,-1.317271,1008.209
9.146417141,0.05054514,-0.0567878,0.259152,-1.01053,-0.0795509,-0.07600532,45.47334,-22.72718,-1.326503,1008.209
9.181184769,-0.1353758,-0.0567878,0.07632989,-1.012951,-0.08152629,-0.08568011,45.47334,-22.72718,-1.326503,1008.211
9.213468552,0.1125188,-0.2328961,-0.04555152,-1.01538,-0.07620344,-0.08371086,45.12321,-23.08207,-0.8806443,1008.211
9.248236656,0.1744925,-0.52641,-0.5330771,-1.01633,-0.0829812,-0.08374734,45.47466,-23.45621,-1.317271,1008.211
9.280520916,0.05054514,-0.4677072,-0.5330771,-1.012465,-0.0810246,-0.08084392,45.47466,-23.45621,-1.317271,1008.211
9.315288067,-0.1353758,-0.1741934,-0.350255,-1.012455,-0.0834295,-0.07650666,45.47334,-22.72718,-1.326503,1008.211
9.347572804,0.05054514,-0.2915989,-0.04555152,-1.012943,-0.08295842,-0.079887,45.474,-23.09169,-1.321887,1008.213
9.379856587,0.1125188,-0.1154906,0.01538919,-1.01342,-0.08440176,-0.07699355,45.11057,-22.72319,-1.320987,1008.212
9.414624691,-0.01142852,0.1780233,0.07632989,-1.015373,-0.07911028,-0.08469427,45.11057,-22.72319,-1.320987,1008.212
9.446908951,0.1125188,-0.0567878,0.01538919,-1.013431,-0.08102409,-0.07987495,45.8381,-23.82471,-1.318171,1008.208
9.481676102,-0.1353758,-0.2915989,-0.1674329,-1.009563,-0.07906093,-0.07503774,45.83678,-23.09568,-1.327402,1008.208
9.513960838,-0.01142852,-0.1741934,-0.1674329,-1.016322,-0.08392285,-0.07601769,45.83678,-23.09568,-1.327402,1008.208
9.548728466,-0.1973495,0.001914985,0.01538919,-1.012446,-0.08730257,-0.07701214,45.09858,-22.72882,-1.756714,1008.208
9.581012249,0.1125188,-0.1741934,-0.350255,-1.011021,-0.07860735,-0.08276703,45.82479,-23.10132,-1.763129,1008.206
9.613296986,-0.1353758,-0.2915989,-0.2283736,-1.011961,-0.0902244,-0.08283106,45.82479,-23.10132,-1.763129,1008.212
9.648064136,-0.07340218,-0.4090044,-0.2283736,-1.009074,-0.08343621,-0.08134837,45.83678,-23.09568,-1.327402,1008.212
9.680348396,-0.07340218,-0.2915989,-0.4721365,-1.011011,-0.08198503,-0.07988563,44.74779,-22.7192,-1.315472,1008.21
9.715116501,-0.1353758,-0.2915989,-0.5330771,-1.014402,-0.07811344,-0.07695568,44.74779,-22.7192,-1.315472,1008.21
9.747400284,0.05054514,0.1193205,-0.4111958,-1.011969,-0.08341665,-0.07312356,45.47334,-22.72718,-1.326503,1008.208
9.782167911,-0.1353758,0.2367261,-0.2893144,-1.00905,-0.09213217,-0.07704693,45.47267,-22.36266,-1.331119,1008.208
9.814452648,-0.1353758,0.7650511,-0.1064922,-1.013907,-0.08392576,-0.07892355,45.47267,-22.36266,-1.331119,1008.208
9.846736431,-0.1973495,0.7650511,0.1372706,-1.011957,-0.0906985,-0.07993314,45.474,-23.09169,-1.321887,1008.208
9.881504059,-0.1973495,0.5889428,0.1372706,-1.010523,-0.08489704,-0.08280387,45.47532,-23.82072,-1.312655,1008.206
9.913787842,-0.1353758,0.2954289,-0.1064922,-1.009068,-0.08487816,-0.07845595,45.47532,-23.82072,-1.312655,1008.206
9.948555946,-0.01142852,0.1193205,-0.1064922,-1.00858,-0.08827738,-0.08234384,45.09924,-23.09334,-1.752098,1008.205
9.980840206,-0.07340218,0.3541316,0.4419741,-1.01002,-0.09116872,-0.07752279,45.11057,-22.72319,-1.320987,1008.205
10.013123989,-0.1353758,0.7063483,0.685737,-1.011479,-0.0887647,-0.08089005,45.11057,-22.72319,-1.320987,1008.205
10.047892094,-0.1973495,1.645593,0.8076184,-1.007616,-0.0853563,-0.07797836,45.11122,-23.0877,-1.316371,1008.205
10.080175877,-0.1973495,1.645593,1.173263,-1.013398,-0.09505802,-0.07995482,45.48532,-22.72154,-0.8907757,1008.205
10.114943504,-0.3212968,1.821701,1.295144,-1.008113,-0.08248033,-0.08569596,45.48532,-22.72154,-0.8907757,1008.203
10.147228241,-0.2593232,1.880404,1.295144,-1.010542,-0.07911283,-0.08953909,44.73646,-23.08935,-1.746583,1008.203
10.181995392,-0.07340218,1.234673,0.9904405,-1.017795,-0.08108731,-0.09485251,45.90856,-22.7262,-0.8972106,1008.201
10.214279652,-0.01142852,0.53024,0.3810334,-1.012,-0.0767039,-0.091456,45.49863,-23.44494,-0.4458175,1008.201
10.246564388,0.2364661,0.001914985,0.1372706,-1.013934,-0.07426357,-0.08370294,45.49863,-23.44494,-0.4458175,1008.201
10.281331539,0.2364661,-0.2328961,-0.2893144,-1.012465,-0.0824944,-0.0861701,45.46201,-23.09733,-1.757614,1008.203
10.313616276,0.2984398,-0.3503017,-0.77684,-1.014422,-0.07281972,-0.08562744,44.74911,-23.44823,-1.30624,1008.203
10.348383904,-0.01142852,-0.2915989,-1.081543,-1.012953,-0.08348985,-0.09390972,44.74911,-23.44823,-1.30624,1008.203
10.380667687,0.2984398,-0.1154906,-1.508128,-1.009078,-0.08345095,-0.0856994,45.4873,-23.81509,-0.8769281,1008.203
10.415435314,0.3604134,-0.1154906,-2.117536,-1.012,-0.07621669,-0.09048635,45.11189,-23.45222,-1.311755,1008.203
10.447719574,0.3604134,-0.6438156,-2.605061,-1.012953,-0.08446753,-0.09681592,45.11189,-23.45222,-1.311755,1008.203
10.480003834,0.5463344,-0.1154906,-3.031646,-1.008584,-0.08878097,-0.08814796,46.21088,-22.72952,-0.9018068,1008.203
10.514771938,0.8562027,-0.7025183,-3.641053,-1.019217,-0.09074709,-0.08813622,45.48598,-23.08606,-0.8861599,1008.205
10.547055721,1.104097,-0.3503017,-3.031646,-1.011955,-0.09166473,-0.0794552,45.48598,-23.08606,-0.8861599,1008.205
10.581823349,1.475939,-0.1741934,-3.275409,-1.009586,-0.07377867,-0.08709362,45.49797,-23.08043,-0.4504333,1008.205
10.614108086,1.909755,1.058565,-3.580112,-1.007555,-0.110514,-0.07618778,45.484,-21.99251,-0.9000075,1008.203
10.646391869,1.909755,1.117268,-2.605061,-1.014356,-0.09698011,-0.0751293,45.484,-21.99251,-0.9000075,1008.203
10.681159496,1.290018,0.7063483,-2.178476,-1.017729,-0.1091584,-0.09597913,45.48466,-22.35703,-0.8953917,1008.205
10.713443279,1.413966,-1.99398,-3.214468,-1.022609,-0.09420651,-0.1065193,45.89526,-22.0028,-1.342169,1008.205
10.748211384,1.351992,-3.226738,-4.859867,-1.011493,-0.08638109,-0.09151212,45.89526,-22.0028,-1.342169,1008.205
10.780495644,2.83936,-3.813766,-6.017741,-1.011462,-0.09602526,-0.08141481,45.484,-21.99251,-0.9000075,1008.205
10.815262794,3.645018,-5.868363,-6.566207,-1.019203,-0.1102336,-0.1264387,45.83545,-22.36665,-1.336634,1008.209
10.847547531,4.636596,-5.692255,-6.80997,-1.003593,-0.1389467,-0.04445103,45.83545,-22.36665,-1.336634,1008.209
10.879831791,2.901334,-3.05063,-4.737986,-1.008024,-0.1197379,-0.08445768,45.12122,-21.98852,-0.8944919,1008.209
10.914598942,5.318306,-3.872468,-7.297495,-1.016745,-0.1017559,-0.05436344,45.83413,-21.63762,-1.345866,1008.209
10.946883678,4.760543,-3.226738,-5.530215,-0.9997288,-0.1477479,-0.0744826,45.83413,-21.63762,-1.345866,1008.207
10.981651306,2.653439,-4.635604,-3.092587,-1.007486,-0.140037,-0.07732268,45.12122,-21.98852,-0.8944919,1008.207
11.013935089,1.723834,-3.931171,-3.641053,-1.008927,-0.1321836,-0.0434342,46.20757,-20.90694,-0.9248862,1008.207
11.048703194,2.15765,-3.755063,-3.580112,-1.01285,-0.1177587,-0.06751566,45.83347,-21.2731,-1.350482,1008.207
11.080986977,1.785808,-4.635604,-2.361298,-1.010812,-0.1598386,-0.06292493,45.83347,-21.2731,-1.350482,1008.205
11.113271236,0.6083081,-6.044471,-0.8377807,-1.004585,-0.1351435,-0.06376482,45.1199,-21.25949,-0.9037237,1008.203
11.148039341,0.2364661,-6.514093,-0.8377807,-1.009389,-0.1394226,-0.03718967,45.83347,-21.2731,-1.350482,1008.203
11.180323124,0.4843608,-3.755063,0.5029148,-0.9987431,-0.1383834,-0.02512073,45.83347,-21.2731,-1.350482,1008.203
11.215090752,-0.01142852,0.001914985,0.259152,-0.9953242,-0.1514267,-0.02133475,46.18426,-21.28273,-1.791724,1008.207
11.247375488,1.228045,-1.524357,-0.1674329,-1.026429,-0.1018343,-0.06932961,46.19492,-20.54806,-1.365229,1008.207
11.282142639,0.98015,-1.230843,-0.6549585,-1.006412,-0.1693999,-0.03204871,46.19492,-20.54806,-1.365229,1008.207
11.314426899,1.104097,-1.172141,1.051381,-1.011853,-0.1259401,-0.05499493,45.80817,-20.55534,-2.231167,1008.206
11.346711159,0.4843608,0.3541316,1.965492,-0.9982414,-0.1480802,-0.03097821,45.83281,-20.90859,-1.355098,1008.206
11.381478787,0.1125188,2.408729,2.635839,-1.005501,-0.1505697,-0.04547988,45.83281,-20.90859,-1.355098,1008.206
11.413763523,0.3604134,-0.4677072,2.331136,-1.016255,-0.1100321,-0.06939815,45.47135,-21.63363,-1.34035,1008.206
11.448530674,1.413966,-2.815818,1.234203,-0.989064,-0.1476061,-0.04163095,46.18492,-21.64724,-1.787108,1008.204
11.480814934,0.9181764,-0.9960322,1.904551,-0.9915261,-0.1272732,-0.03715909,46.18492,-21.64724,-1.787108,1008.206
11.513099671,2.281597,-1.641763,0.7466777,-1.011942,-0.0886809,-0.05574976,46.62015,-21.64626,-1.357816,1008.206
11.547866821,1.971729,-1.465654,1.051381,-0.9842142,-0.1612159,-0.06347353,45.89459,-21.63828,-1.346785,1008.206
11.580151081,3.273175,-2.874521,0.7466777,-1.006997,-0.133661,-0.0526321,45.89459,-21.63828,-1.346785,1008.206
11.614919186,2.529492,-1.58306,3.54995,-1.013711,-0.1481081,-0.02611065,46.62015,-21.64626,-1.357816,1008.206
11.647202969,0.7322554,3.582784,3.976535,-0.9538516,-0.1058382,-0.02696619,45.48532,-22.72154,-0.8907757,1008.21
11.681970596,0.6702818,6.341815,7.632977,-0.9765368,-0.1213692,-0.02120434,45.48532,-22.72154,-0.8907757,1008.21
11.714254379,-0.4452441,9.042143,6.536045,-0.9910256,-0.1315994,-0.0289663,46.63478,-23.09869,-0.9036255,1008.21
11.746539116,-1.684717,10.68582,8.790852,-1.008895,-0.1447559,-0.04060512,46.22485,-23.81743,-0.4522324,1008.212
11.781306744,-2.056559,14.3841,11.53318,-1.013788,-0.1191084,-0.03658124,46.22485,-23.81743,-0.4522324,1008.207
11.813590527,-1.994586,19.08032,11.1066,-1.014928,-0.05972064,-0.07539965,46.97503,-24.17866,0.412806,1008.212
11.848358631,-1.436823,17.08442,8.912732,-1.068053,-0.09283226,-0.09094346,46.65257,-25.61502,1.806212,1008.212
11.880642891,-1.312875,16.96702,9.644021,-0.9728681,-0.06110129,-0.09000131,46.65257,-25.61502,1.806212,1008.212
11.915410042,2.467518,17.31923,7.693918,-1.005263,-0.05727334,-0.07540657,45.929,-26.70059,1.831091,1008.213
11.947694778,0.98015,20.01956,7.267333,-0.9544666,-0.07950684,-0.1104501,45.95364,-27.05384,2.70716,1008.213
11.979978561,2.219623,21.48713,2.69678,-1.036756,-0.04882612,-0.1265351,46.71713,-28.13846,4.017157,1008.213
12.014746189,3.459097,19.78475,2.69678,-1.000894,-0.08993145,-0.1486009,46.71713,-28.13846,4.017157,1008.213
12.047030926,4.20278,18.14107,3.54995,-1.005751,-0.08612627,-0.1640388,46.00422,-28.48936,4.468532,1008.215
12.081798077,4.450675,19.37383,6.962629,-1.023046,-0.1282238,-0.1482874,46.04216,-29.56601,5.789559,1008.215
12.114082336,4.88449,18.31718,7.572037,-0.9796127,-0.100599,-0.1728794,46.04216,-29.56601,5.789559,1008.217
12.146367073,4.388701,17.49534,8.120503,-0.9603002,-0.08258425,-0.1568651,45.3419,-30.27579,6.681275,1008.218
12.181134224,3.149228,18.61069,9.58308,-1.030874,-0.09343742,-0.158225,46.09512,-31.36524,7.617792,1008.218
12.213418484,-3.977743,20.07826,10.43625,-0.9792962,-0.06121847,-0.2620923,46.09512,-31.36524,7.617792,1008.218
12.248186588,-3.853796,11.56636,8.242385,-1.017603,-0.0256087,-0.2888798,45.75697,-31.7145,8.499377,1008.218
12.280470371,-5.341164,4.522029,5.439112,-0.9923524,-0.04855244,-0.2262177,45.04606,-33.15895,8.964599,1008.217
12.315237999,-6.642611,11.91858,9.58308,-1.00142,-0.07642706,-0.1615758,45.04606,-33.15895,8.964599,1008.217
12.347522259,0.2984398,15.02983,6.840748,-1.002092,-0.005372855,-0.1853423,45.77293,-33.89596,8.962799,1008.217
12.379806519,1.971729,10.39231,2.574899,-0.9915533,0.006951408,-0.2703802,45.07267,-34.60575,9.854516,1008.217
12.414574146,1.290018,0.8824567,-1.081543,-0.9900572,-0.01729001,-0.2850244,45.07267,-34.60575,9.854516,1008.215
12.446858406,0.8562027,-2.757116,-1.995654,-0.9885556,-0.02489277,-0.2449455,45.08334,-33.87108,10.28101,1008.217
12.481626034,-0.2593232,-1.876574,-0.7158992,-0.9884983,-0.04420241,-0.2310356,45.4581,-33.86943,10.71122,1008.215
12.513910771,-0.3832705,0.6476455,0.3200927,-0.9851261,-0.03496041,-0.2198713,45.4581,-33.86943,10.71122,1008.215
12.548677921,0.4843608,2.056512,0.259152,-0.9899737,-0.03404733,-0.2319416,45.084,-34.2356,10.28563,1008.215
12.580962181,0.2984398,2.64354,0.8685591,-0.9972104,-0.043284,-0.2382632,45.43479,-34.24522,9.844385,1008.215
12.613245964,-0.3212968,2.526134,1.173263,-0.9871041,-0.02488534,-0.2439816,45.43479,-34.24522,9.844385,1008.217
12.648014069,0.2984398,2.467432,1.051381,-0.9846917,-0.02245715,-0.2434896,45.81021,-34.60809,10.27921,1008.219
12.680298328,0.1125188,0.2367261,-0.2283736,-0.9895019,-0.03653766,-0.2532281,45.45942,-34.59846,10.72045,1008.217
12.715065479,-0.1353758,-0.5851128,-0.2893144,-0.98709,-0.03069085,-0.2435313,44.72122,-34.23161,10.29114,1008.217
12.747350216,0.1125188,0.001914985,-0.2283736,-0.989006,-0.03599666,-0.2367891,44.72122,-34.23161,10.29114,1008.217
12.782117844,-0.1353758,0.8824567,0.5029148,-0.9866058,-0.02824361,-0.2357834,45.45942,-34.59846,10.72045,1008.215
12.814401627,0.3604134,1.469484,0.1372706,-0.9914336,-0.03066889,-0.2333696,44.72254,-34.96064,10.30037,1008.215
12.846686363,0.2364661,1.234673,-0.1064922,-0.9894952,-0.03650982,-0.2450095,44.72254,-34.96064,10.30037,1008.214
12.881453991,0.1125188,0.9411594,0.1372706,-0.9957842,-0.03458552,-0.2430512,45.09599,-34.22996,10.72135,1008.214
12.913737774,-0.2593232,0.5889428,0.5638555,-0.9933563,-0.03991165,-0.2459874,45.09532,-33.86544,10.71674,1008.214
12.948505878,0.1744925,0.5889428,0.07632989,-0.9847003,-0.01809524,-0.241531,45.09532,-33.86544,10.71674,1008.218
12.980790138,0.2364661,0.4128344,0.3200927,-0.9885298,-0.03846898,-0.2527577,45.79889,-34.97824,9.848102,1008.218
13.013073921,0.2984398,1.175971,-0.1674329,-0.987569,-0.03262794,-0.2435413,45.09731,-34.95899,10.73059,1008.216
13.047842026,0.1744925,0.8824567,-0.2283736,-0.9827361,-0.03115906,-0.2425764,45.09731,-34.95899,10.73059,1008.216
13.080125809,0.1125188,0.4128344,-0.4721365,-0.9837,-0.03554667,-0.2513012,45.10796,-34.22433,11.15708,1008.216
13.114893436,0.05054514,0.53024,-0.2893144,-0.9880617,-0.03022443,-0.2478774,45.084,-34.2356,10.28563,1008.216
13.147178173,0.05054514,0.06061776,-0.2283736,-0.991918,-0.03311776,-0.2416009,45.084,-34.2356,10.28563,1008.214
13.181945324,-0.5072178,0.1780233,0.1372706,-0.9880656,-0.02926312,-0.2498057,45.084,-34.2356,10.28563,1008.216
13.214229584,-0.2593232,0.1780233,-0.04555152,-0.9870921,-0.03265441,-0.2517609,45.80955,-34.24358,10.2746,1008.216
13.246514320,-0.3212968,0.2954289,0.07632989,-0.995791,-0.02581748,-0.226081,45.80955,-34.24358,10.2746,1008.216
13.281281471,0.3604134,0.6476455,-0.5330771,-0.9822654,-0.02778983,-0.2483595,44.73321,-34.22597,10.72687,1008.216
13.313565731,-0.1973495,0.3541316,-0.6549585,-0.9919327,-0.02926927,-0.2483471,45.07267,-34.60575,9.854516,1008.216
13.348333836,0.2364661,-0.4090044,-0.04555152,-0.9890174,-0.03457763,-0.2464498,45.07267,-34.60575,9.854516,1008.216
13.380617619,-0.7551125,-0.0567878,0.5029148,-0.9885449,-0.02973533,-0.2459399,45.51856,-33.8701,10.7103,1008.216
13.415385246,-0.6311651,0.2954289,0.01538919,-0.9866202,-0.02634885,-0.2478585,45.44743,-34.6041,10.28473,1008.216
13.447669506,0.05054514,0.1193205,-0.4721365,-0.9895241,-0.0239244,-0.243971,45.44743,-34.6041,10.28473,1008.214
13.479953766,0.2984398,-0.2328961,-0.4111958,-0.9909546,-0.03361858,-0.2474071,45.51988,-34.59913,10.71953,1008.213
13.514721871,0.05054514,0.1193205,-0.1674329,-0.9870814,-0.03651928,-0.2498491,45.09731,-34.95899,10.73059,1008.213
13.547005654,-0.1973495,0.001914985,0.1982113,-0.987566,-0.03457021,-0.245486,45.09731,-34.95899,10.73059,1008.213
13.581773281,-0.6311651,0.1193205,-0.04555152,-0.992407,-0.03118671,-0.2425557,45.084,-34.2356,10.28563,1008.211
13.614058018,-0.2593232,-0.1154906,0.07632989,-0.9904656,-0.0350608,-0.2449992,45.8222,-34.60246,10.71494,1008.211
13.646341801,0.05054514,0.9411594,0.4419741,-0.9899722,-0.03452962,-0.2314609,45.8222,-34.60246,10.71494,1008.211
13.681109428,-0.1353758,0.6476455,0.6247963,-0.9842163,-0.02004595,-0.2463775,45.4581,-33.86943,10.71122,1008.215
13.713394165,0.2364661,-0.4677072,-0.1064922,-0.9899681,-0.04330913,-0.2518153,45.09664,-34.59447,10.72597,1008.215
13.748161316,-0.07340218,0.1193205,0.259152,-0.9846836,-0.02584465,-0.2435089,44.73453,-34.955,10.7361,1008.215
13.780445576,0.05054514,0.2367261,0.259152,-0.9870985,-0.02877151,-0.2483547,44.73453,-34.955,10.7361,1008.213
13.815213680,0.3604134,0.1193205,0.3810334,-0.9919146,-0.03896749,-0.2542036,45.08466,-34.60011,10.29024,1008.215
13.847497463,-0.3212968,0.1193205,0.5029148,-0.9735879,-0.01810112,-0.2526741,45.44743,-34.6041,10.28473,1008.213
13.879781723,0.05054514,0.2367261,0.01538919,-0.9851696,-0.0263447,-0.2478616,45.44743,-34.6041,10.28473,1008.213
13.914549828,0.4223871,0.2367261,-0.4111958,-0.9817782,-0.02679602,-0.2411034,45.08466,-34.60011,10.29024,1008.213
13.946833611,-0.01142852,-0.0567878,-0.1064922,-0.9919103,-0.040416,-0.2532449,45.44678,-34.23959,10.28011,1008.213
13.981601238,-0.01142852,-0.1154906,-0.1674329,-0.9890497,-0.02054043,-0.2454031,45.44678,-34.23959,10.28011,1008.211
14.013885021,-0.07340218,0.1193205,0.259152,-0.9866024,-0.03409335,-0.248386,45.45942,-34.59846,10.72045,1008.21
14.048653126,-0.01142852,0.2954289,0.1372706,-0.9861377,-0.02732843,-0.2517326,45.43545,-34.60974,9.849001,1008.21
14.080937386,0.05054514,0.2954289,0.3200927,-0.9885332,-0.03261924,-0.240155,45.43545,-34.60974,9.849001,1008.21
14.113221169,-0.07340218,-0.0567878,0.3200927,-0.9856399,-0.03313255,-0.2512833,45.46008,-34.96298,10.72507,1008.21
14.147989273,0.1125188,0.06061776,0.259152,-0.9900051,-0.02684737,-0.2493044,45.09797,-35.32351,10.7352,1008.211
14.180273533,-0.3212968,-0.1154906,0.1982113,-0.9861356,-0.02585371,-0.2449561,45.09797,-35.32351,10.7352,1008.213
14.215040684,-0.01142852,0.1780233,0.01538919,-0.98419,-0.03166515,-0.247894,45.08334,-33.87108,10.28101,1008.215
14.247325420,-0.01142852,0.06061776,-0.350255,-0.990476,-0.03070544,-0.2449744,44.72188,-34.59612,10.29576,1008.215
14.282093048,0.1125188,0.001914985,-0.2893144,-0.9846731,-0.0316649,-0.2474095,44.72188,-34.59612,10.29576,1008.215
14.314376831,-0.01142852,0.06061776,-0.1674329,-0.9866046,-0.03312549,-0.2483805,45.45876,-34.23395,10.71584,1008.217
14.346661568,0.1125188,0.06061776,0.07632989,-0.9899909,-0.03216403,-0.2474009,44.72056,-33.86709,10.28653,1008.213
14.381429195,-0.07340218,0.1780233,0.1982113,-0.988556,-0.02587209,-0.2483351,44.72056,-33.86709,10.28653,1008.214
14.413713455,0.2364661,0.001914985,-0.04555152,-0.9890306,-0.03170027,-0.2541685,45.09664,-34.59447,10.72597,1008.214
14.448481083,-0.01142852,-0.0567878,0.1372706,-0.9870909,-0.03216065,-0.2488575,45.09664,-34.59447,10.72597,1008.218
14.480764866,-0.01142852,-0.0567878,0.1372706,-0.9890265,-0.03119505,-0.2478809,44.73386,-34.59049,10.73149,1008.22
14.513049603,0.05054514,0.001914985,0.01538919,-0.9880711,-0.02537695,-0.2454327,44.73386,-34.59049,10.73149,1008.22
14.547817230,0.1125188,0.2367261,-0.1674329,-0.989024,-0.0336278,-0.2517622,45.09664,-34.59447,10.72597,1008.222
14.580101013,0.05054514,0.06061776,-0.1674329,-0.9885388,-0.03313102,-0.2483764,45.45876,-34.23395,10.71584,1008.222
14.614869118,0.05054514,0.001914985,-0.04555152,-0.9885426,-0.03119203,-0.2473985,45.45876,-34.23395,10.71584,1008.222
14.647153377,-0.07340218,0.06061776,0.01538919,-0.9866188,-0.02731998,-0.248831,45.47141,-34.59283,11.15618,1008.224
14.681920528,-0.01142852,0.3541316,0.1372706,-0.9885526,-0.02781272,-0.2497965,45.53187,-34.5935,11.15526,1008.224
14.714205265,0.05054514,0.1193205,0.07632989,-0.9866057,-0.03166387,-0.2454716,45.53187,-34.5935,11.15526,1008.225
14.746489525,0.1744925,0.4128344,0.1982113,-0.9870982,-0.0302364,-0.2522306,44.72122,-34.23161,10.29114,1008.225
14.781256676,0.2984398,0.2367261,-0.2283736,-0.9904696,-0.03507718,-0.2498336,45.1073,-33.85981,11.15246,1008.224
14.813541412,-0.3212968,0.001914985,0.1372706,-0.9866245,-0.02538918,-0.2502703,45.1073,-33.85981,11.15246,1008.224
14.848309040,-0.01142852,0.001914985,-0.1674329,-0.9856647,-0.02297333,-0.2521923,44.72056,-33.86709,10.28653,1008.224
14.880592823,0.2984398,0.06061776,-0.2283736,-0.9875717,-0.03263941,-0.2469254,45.09664,-34.59447,10.72597,1008.224
14.915360928,-0.01142852,0.1780233,-0.1064922,-0.9890273,-0.03070948,-0.2473947,45.09664,-34.59447,10.72597,1008.224
14.947645187,0.1744925,-0.0567878,-0.1064922,-0.9885499,-0.02926778,-0.2507716,45.09664,-34.59447,10.72597,1008.224
14.979928970,0.1744925,-0.0567878,-0.2283736,-0.9900017,-0.028788,-0.2507657,44.36043,-35.32117,10.3105,1008.222
15.014697075,-0.1353758,0.001914985,0.1982113,-0.9880774,-0.02393663,-0.2488086,44.36043,-35.32117,10.3105,1008.222
15.046980858,0.2364661,0.1193205,-0.04555152,-0.9899828,-0.03848295,-0.2556553,45.09599,-34.22996,10.72135,1008.216
15.081748486,0.05054514,0.2367261,-0.1064922,-0.9856438,-0.03217125,-0.2532116,45.09731,-34.95899,10.73059,1008.216
15.114033222,-0.01142852,-0.0567878,0.07632989,-0.9866214,-0.02537608,-0.2464027,45.09731,-34.95899,10.73059,1008.218
15.148800850,-0.01142852,-0.0567878,0.1982113,-0.9895106,-0.03168691,-0.2498164,45.47141,-34.59283,11.15618,1008.217
15.181084633,0.1125188,0.06061776,-0.2283736,-0.9900013,-0.02829752,-0.2488292,45.09664,-34.59447,10.72597,1008.217
15.213369370,0.05054514,-0.0567878,0.07632989,-0.9856385,-0.03508137,-0.2551619,45.09664,-34.59447,10.72597,1008.217
15.248136520,0.05054514,0.2367261,-0.350255,-0.9899992,-0.02731164,-0.2435058,45.4581,-33.86943,10.71122,1008.217
15.280420780,-0.01142852,0.1780233,0.07632989,-0.9866229,-0.02538263,-0.2483364,45.08466,-34.60011,10.29024,1008.217
15.315188885,0.1125188,0.001914985,-0.1064922,-0.9866146,-0.03023502,-0.2522316,45.44743,-34.6041,10.28473,1008.215
15.347472668,0.5463344,0.1780233,-0.1064922,-0.9899924,-0.0311929,-0.2464285,45.44743,-34.6041,10.28473,1008.215
15.379756928,-0.07340218,0.1193205,-0.2283736,-0.9895,-0.03701832,-0.2522639,44.73453,-34.955,10.7361,1008.221
15.414525032,-0.07340218,-0.0567878,0.1372706,-0.9885384,-0.03312938,-0.2478929,44.72188,-34.59612,10.29576,1008.221
15.446808815,0.1744925,-0.1154906,0.1372706,-0.9851764,-0.02686139,-0.2575333,44.72188,-34.59612,10.29576,1008.219
15.481576443,0.05054514,0.1780233,0.07632989,-0.987095,-0.02924562,-0.2454568,45.44743,-34.6041,10.28473,1008.219
15.513861179,0.1744925,-0.2328961,-0.04555152,-0.9890211,-0.0321498,-0.2440188,45.10863,-34.58884,11.1617,1008.219
15.548628330,0.1744925,0.001914985,0.01538919,-0.985649,-0.02877228,-0.2498082,45.10863,-34.58884,11.1617,1008.219
15.580912590,-0.4452441,-0.1154906,0.07632989,-0.9875787,-0.03071352,-0.249815,45.08466,-34.60011,10.29024,1008.219
15.613197327,0.1744925,-0.1154906,0.07632989,-0.9914348,-0.03507175,-0.2474143,45.09599,-34.22996,10.72135,1008.219
15.647964477,-0.2593232,0.1780233,0.1372706,-0.9885052,-0.05107241,-0.2591141,45.09599,-34.22996,10.72135,1008.219
15.680249214,-0.2593232,0.1193205,0.3200927,-0.9871324,-0.01376318,-0.2463355,45.45876,-34.23395,10.71584,1008.223
15.715016842,-0.07340218,0.2954289,-0.1064922,-0.9866115,-0.03022192,-0.248364,44.37109,-34.5865,10.737,1008.221
15.747300625,0.4843608,0.001914985,-0.2893144,-0.9904681,-0.03653715,-0.2522591,44.37109,-34.5865,10.737,1008.221
15.782068729,-0.07340218,-0.4090044,0.1372706,-0.9861363,-0.02536814,-0.2444699,45.08532,-34.96463,10.29486,1008.221
15.814352512,0.05054514,-0.2915989,0.01538919,-0.9875664,-0.03506069,-0.2474226,45.09664,-34.59447,10.72597,1008.221
15.846636772,0.1125188,0.1780233,-0.04555152,-0.9900085,-0.0244179,-0.2463899,45.09664,-34.59447,10.72597,1008.218
15.881404877,0.05054514,0.06061776,0.01538919,-0.9871012,-0.02731645,-0.2473795,44.74585,-34.58485,11.16721,1008.22
15.913688660,0.05054514,-0.0567878,-0.2283736,-0.9904923,-0.02735234,-0.2551075,45.09664,-34.59447,10.72597,1008.22
15.948456287,0.2984398,0.06061776,-0.2893144,-0.9904741,-0.03265262,-0.2483695,45.09664,-34.59447,10.72597,1008.218
15.980741024,0.05054514,0.001914985,0.01538919,-0.9919466,-0.02541749,-0.2541265,44.73321,-34.22597,10.72687,1008.218
16.013024807,0.05054514,0.06061776,0.3200927,-0.9904883,-0.02684711,-0.2488199,45.46008,-34.96298,10.72507,1008.218
16.047792435,0.1125188,0.001914985,0.1372706,-0.9870868,-0.03458684,-0.250805,45.46008,-34.96298,10.72507,1008.218
16.080077171,0.2984398,0.3541316,-0.1064922,-0.9861202,-0.03507456,-0.2527436,45.09731,-34.95899,10.73059,1008.218
16.114844322,-0.01142852,0.4715372,0.07632989,-0.9875917,-0.02539195,-0.2502682,45.09599,-34.22996,10.72135,1008.218
16.147128582,0.05054514,0.1193205,-0.1064922,-0.9837146,-0.0297428,-0.2522351,45.09599,-34.22996,10.72135,1008.22
16.181896687,0.1125188,-0.1154906,-0.1064922,-0.9875804,-0.03267545,-0.2575612,45.09731,-34.95899,10.73059,1008.22
16.214180470,0.05054514,-0.2328961,0.01538919,-0.9880621,-0.03022606,-0.2483609,45.09599,-34.22996,10.72135,1008.22
16.246464729,0.05054514,0.001914985,0.1982113,-0.9875737,-0.03313644,-0.2507957,45.09599,-34.22996,10.72135,1008.22
16.281232834,0.1744925,-0.0567878,0.07632989,-0.988064,-0.02925657,-0.247872,44.38374,-34.94538,11.17734,1008.22
16.313516617,-0.07340218,-0.0567878,0.1372706,-0.9861251,-0.03167396,-0.2488568,44.73386,-34.59049,10.73149,1008.22
16.348284245,0.4223871,0.001914985,-0.04555152,-0.9875727,-0.0350869,-0.2551577,44.73321,-34.22597,10.72687,1008.219
16.380568981,0.1744925,-0.1741934,-0.04555152,-0.9900013,-0.02829752,-0.2488292,44.73321,-34.22597,10.72687,1008.219
16.415336132,0.2984398,-0.1741934,-0.04555152,-0.9929034,-0.02830909,-0.2497899,45.51923,-34.23461,10.71492,1008.213
16.447620392,-0.1353758,-0.0567878,-0.04555152,-0.9914513,-0.02927607,-0.2507654,45.4481,-34.96862,10.28934,1008.213
16.479905129,0.05054514,-0.0567878,-0.1064922,-0.9866048,-0.03459201,-0.2527398,45.4481,-34.96862,10.28934,1008.219
16.514672279,0.2364661,-0.0567878,0.07632989,-0.9851627,-0.02875943,-0.246425,45.45876,-34.23395,10.71584,1008.219
16.546956539,0.1125188,-0.0567878,0.07632989,-0.9914341,-0.036535,-0.2508067,45.09599,-34.22996,10.72135,1008.219
16.581724644,0.2364661,-0.0567878,0.01538919,-0.9846734,-0.03117769,-0.2464399,45.09599,-34.22996,10.72135,1008.219
16.614008427,-0.1353758,-0.52641,0.01538919,-0.9875814,-0.02925846,-0.2488399,45.44743,-34.6041,10.28473,1008.219
16.648776054,0.1744925,-0.4677072,-0.1674329,-0.992414,-0.03023851,-0.2483516,45.09731,-34.95899,10.73059,1008.22
16.681059837,-0.3212968,-0.4677072,-0.1064922,-0.9875813,-0.02876962,-0.2473868,45.09731,-34.95899,10.73059,1008.22
16.713344574,0.2984398,0.3541316,0.01538919,-0.9933757,-0.03070718,-0.2430344,45.45942,-34.59846,10.72045,1008.22
16.748112202,0.6702818,0.001914985,0.01538919,-0.9880652,-0.02926148,-0.2493223,45.084,-34.2356,10.28563,1008.22
16.780396938,-0.01142852,0.3541316,0.6247963,-0.9885396,-0.03362314,-0.2507964,45.084,-34.2356,10.28563,1008.22
16.815164089,-0.07340218,-0.8199239,0.1982113,-0.9880802,-0.02443694,-0.2536458,45.09599,-34.22996,10.72135,1008.22
16.847448349,0.2984398,-0.6438156,-0.2893144,-0.9861141,-0.03407231,-0.2425857,45.45942,-34.59846,10.72045,1008.219
16.879732609,0.2984398,0.5889428,-0.2893144,-0.9880466,-0.03358244,-0.2391947,45.45942,-34.59846,10.72045,1008.219
16.914500236,-0.1973495,0.9998622,0.259152,-0.9890243,-0.03167406,-0.2464333,45.08466,-34.60011,10.29024,1008.219
16.946784973,0.5463344,0.7650511,-0.350255,-0.9909669,-0.02878257,-0.2483464,45.09664,-34.59447,10.72597,1008.219
16.981552601,0.1744925,0.06061776,-0.04555152,-0.9880422,-0.03796237,-0.2464712,45.09664,-34.59447,10.72597,1008.22
17.013836384,-0.07340218,0.2954289,-0.04555152,-0.984692,-0.02294763,-0.2454261,45.4481,-34.96862,10.28934,1008.22
17.048604488,0.05054514,0.2954289,0.07632989,-0.9841961,-0.02924715,-0.2483637,45.08532,-34.96463,10.29486,1008.219
17.080888271,0.1744925,0.06061776,-0.2283736,-0.9880795,-0.02492251,-0.254132,45.47207,-34.95735,11.1608,1008.217
17.113172531,0.4223871,0.001914985,-0.350255,-0.9895101,-0.03119643,-0.2478799,45.47207,-34.95735,11.1608,1008.217
17.147940636,0.05054514,0.1780233,-0.04555152,-0.9899864,-0.03556628,-0.2517712,44.73519,-35.31952,10.74072,1008.217
17.180224419,-0.1973495,0.1780233,0.1372706,-0.9904764,-0.03168476,-0.248364,45.44678,-34.23959,10.28011,1008.217
17.214992046,0.1125188,0.1193205,0.07632989,-0.9861369,-0.02683631,-0.2493127,45.44678,-34.23959,10.28011,1008.217
17.247276783,-0.01142852,-0.1741934,0.07632989,-0.9914369,-0.03654647,-0.2541908,45.4481,-34.96862,10.28934,1008.215
17.282043934,0.1125188,0.2367261,-0.2283736,-0.990968,-0.02829864,-0.2483437,45.45942,-34.59846,10.72045,1008.215
17.314328194,0.2364661,0.4715372,0.07632989,-0.9914322,-0.03799334,-0.2527487,45.45942,-34.59846,10.72045,1008.213
17.346612930,-0.2593232,0.2954289,0.1372706,-0.9880743,-0.02490121,-0.2478472,45.09797,-35.32351,10.7352,1008.213
17.381380081,-0.01142852,0.1193205,0.07632989,-0.985653,-0.02878866,-0.2546426,45.08466,-34.60011,10.29024,1008.217
17.413664341,0.3604134,0.2954289,-0.2893144,-0.9895176,-0.02976102,-0.2527061,45.08466,-34.60011,10.29024,1008.216
17.448432446,0.05054514,0.4715372,0.07632989,-0.9861425,-0.02295014,-0.2449396,45.44678,-34.23959,10.28011,1008.216
17.480716229,-0.2593232,-0.1154906,0.1372706,-0.9885405,-0.03411525,-0.2532164,45.09731,-34.95899,10.73059,1008.216
17.513000488,-0.01142852,0.4128344,0.01538919,-0.9861285,-0.03071101,-0.2503016,45.09731,-34.95899,10.73059,1008.214
17.547768593,0.2984398,0.1780233,-0.1064922,-0.9846824,-0.03072652,-0.256106,45.09599,-34.22996,10.72135,1008.214
17.580052376,0.2980685,-0.05682762,-0.289128,-0.9876029,-0.02201755,-0.2541165,45.08466,-34.60011,10.29024,1008.212
17.614820003,-0.07467303,-0.3498894,-0.1664173,-0.9885439,-0.03217463,-0.251755,45.08466,-34.60011,10.29024,1008.212
17.647104740,0.2352079,0.002390973,0.01666273,-0.9861251,-0.03167396,-0.2488568,45.82153,-34.23794,10.71032,1008.212
17.681871891,0.2346615,0.1781022,-0.04400702,-0.9841902,-0.03020026,-0.2440182,44.74585,-34.58485,11.16721,1008.212
17.714156151,0.2335687,0.3537238,-0.226363,-0.9875742,-0.03362692,-0.2527322,44.74585,-34.58485,11.16721,1008.214
17.746440887,0.1091553,0.1181705,-0.04334471,-0.9895026,-0.03556326,-0.2512888,45.08334,-33.87108,10.28101,1008.214
17.781208038,-0.07681713,-0.1166803,0.07782865,-0.9861308,-0.03072084,-0.2532023,45.09664,-34.59447,10.72597,1008.214
17.813492298,0.2330335,-0.350537,-0.1661175,-0.985167,-0.02877745,-0.251743,45.09664,-34.59447,10.72597,1008.212
17.848260403,-0.2008523,-0.1732031,0.1381303,-0.9890491,-0.02200368,-0.2487955,45.1438,-33.87175,10.28009,1008.212
17.880544186,-0.01537608,0.06168757,0.01591516,-0.981768,-0.03212907,-0.2440343,45.4581,-33.86943,10.71122,1008.21
17.915311813,0.4177094,0.2949941,-0.2279937,-0.9909706,-0.03124153,-0.2599629,45.09599,-34.22996,10.72135,1008.21
17.947596550,0.4164155,0.3520894,0.07706583,-0.9866142,-0.0292557,-0.248842,45.09599,-34.22996,10.72135,1008.21
17.979880333,0.1056465,0.2922277,-0.1054779,-0.9890302,-0.02827837,-0.2439968,45.46008,-34.96298,10.72507,1008.21
18.014647961,0.1043084,-0.119403,-0.1652103,-0.9885448,-0.03315559,-0.2556281,45.09664,-34.59447,10.72597,1008.212
18.046932697,0.3519527,-0.6461365,-0.4078597,-0.9899975,-0.03072535,-0.2512602,45.09664,-34.59447,10.72597,1008.212
18.081699848,0.2264411,-0.5265947,-0.04107527,-0.9914364,-0.03556715,-0.2508012,45.09664,-34.59447,10.72597,1008.212
18.113984585,-0.08339757,-0.7004272,0.08074405,-0.9846735,-0.03264422,-0.2507991,45.09599,-34.22996,10.72135,1008.21
18.148752213,0.1643188,-0.2284118,-0.2236639,-0.9880533,-0.03312144,-0.2459602,45.09599,-34.22996,10.72135,1008.21
18.181035996,0.4113101,-0.2272789,-0.2837692,-0.989994,-0.03168829,-0.2498154,45.89398,-34.23297,11.14513,1008.216
18.213320732,0.2862304,-0.2268125,-0.3432855,-0.9856503,-0.02926604,-0.2527116,45.08334,-33.87108,10.28101,1008.216
18.248088360,0.0999278,-0.8114637,-0.4025473,-0.9890247,-0.03265338,-0.249823,45.08334,-33.87108,10.28101,1008.216
18.280372143,0.2853441,-0.9840615,-0.8266692,-0.9851693,-0.0278096,-0.2517375,45.52055,-34.96365,10.72415,1008.214
18.315140247,0.3454239,-1.332345,-1.127362,-0.987593,-0.02686339,-0.2560778,45.09599,-34.22996,10.72135,1008.214
18.347424507,0.2815562,-2.499292,-1.305359,-0.9875796,-0.03169449,-0.2536881,45.09599,-34.22996,10.72135,1008.214
18.379708290,-0.09088494,-3.725951,-1.302453,-0.991924,-0.03314234,-0.2488526,45.10664,-33.49529,11.14785,1008.214
18.414476395,0.1570097,-4.430385,-2.338444,-0.9900222,-0.0190996,-0.24781,45.08466,-34.60011,10.29024,1008.214
18.446760655,-0.2148323,-5.134818,-2.82597,-0.9899264,-0.0543756,-0.2330242,45.08466,-34.60011,10.29024,1008.218
18.481528759,-0.2768059,-3.49114,-2.886911,-0.9875885,-0.01609411,-0.2197587,44.72122,-34.23161,10.29114,1008.218
18.513812542,-0.8345689,-2.493193,-3.618199,-0.9913878,-0.05442398,-0.2460741,45.44678,-34.23959,10.28011,1008.22
18.548580170,-2.136016,-4.078168,-2.094682,-0.9889193,-0.06202561,-0.2064807,45.44678,-34.23959,10.28011,1008.214
18.580863953,-3.313515,-2.023571,-0.2055199,-0.9971851,-0.04757711,-0.219917,45.49525,-34.24588,9.843466,1008.213
18.613148689,-4.305094,-1.671354,-0.2055199,-1.003054,-0.02636637,-0.2391213,45.80955,-34.24358,10.2746,1008.217
18.647916317,-2.941673,-2.317085,-2.582207,-0.996308,-0.01471799,-0.2347187,45.80955,-34.24358,10.2746,1008.217
18.680200100,-2.321937,-4.489088,-6.299591,-1.001627,-0.01424435,-0.2332542,45.07135,-33.87672,9.845284,1008.215
18.714968204,-2.507858,-5.60444,-10.38262,-1.002079,-0.02633412,-0.2304213,45.0587,-33.51783,9.404942,1008.215
18.747252464,-2.012069,-8.011253,-13.61247,-1.004473,-0.03894611,-0.237256,45.0587,-33.51783,9.404942,1008.211
18.782020569,-2.755752,-11.0051,-14.4047,-0.9942772,-0.05487198,-0.2330176,45.46996,-33.52812,8.96278,1008.213
18.814304352,-1.888121,-12.82488,-15.4407,-1.006819,-0.0606479,-0.2132024,46.19286,-32.07803,8.933286,1008.213
18.846588612,-1.888121,-12.94229,-14.4047,-1.011555,-0.09591971,-0.1930884,46.14426,-31.73606,7.185762,1008.212
18.881356716,-2.941673,-12.17915,-12.33272,-1.003802,-0.1065801,-0.2038013,46.14426,-31.73606,7.185762,1008.21
18.913640499,-3.127594,-12.82488,-12.21084,-0.9651018,-0.10738,-0.1869689,46.12858,-30.64895,6.673941,1008.208
18.948408127,-2.631805,-12.47266,-11.11391,-1.000858,-0.1137259,-0.1729082,46.11461,-29.56104,6.224367,1008.206
18.980692863,-5.544568,-11.53342,-9.102862,-1.009087,-0.1020565,-0.1496191,46.11461,-29.56104,6.224367,1008.206
19.012976646,-4.181147,-11.65083,-9.346625,-0.975697,-0.1199385,-0.171064,46.08799,-28.11424,5.33445,1008.203
19.047744274,-2.507858,-10.71158,-9.651329,-1.006651,-0.1112606,-0.154511,46.41283,-27.04159,4.007906,1008.199
19.080028057,-3.065621,-10.59418,-9.407566,-0.9625307,-0.15365,-0.1340593,46.41283,-27.04159,4.007906,1008.197
19.114796162,-1.330358,-7.659037,-7.152761,-1.017216,-0.1442161,-0.1599935,46.39886,-25.95368,3.558331,1008.199
19.147080421,0.2189834,-6.954604,-6.848057,-0.96407,-0.1276334,-0.1667819,46.74767,-24.86975,3.103242,1008.199
19.181848526,1.148588,-10.24196,-6.055828,-0.898237,-0.1315501,-0.09297992,46.74767,-24.86975,3.103242,1008.199
19.214132309,0.03306238,-8.36347,-3.801022,-1.008008,-0.1450824,-0.1377801,46.34629,-23.4246,1.783113,1008.198
19.246416569,0.280957,-8.36347,-2.704089,-1.015801,-0.117975,-0.1289072,45.98219,-22.69159,1.779397,1008.198
19.281184673,1.458457,-7.893848,-0.8758676,-1.061599,-0.1888746,-0.1630524,45.98219,-22.69159,1.779397,1008.198
19.313468456,0.7147726,-5.60444,1.257057,-1.007936,-0.1711752,-0.1263261,45.9702,-22.69722,1.34367,1008.198
19.348236084,1.582404,-7.248118,1.439879,-1.015739,-0.1436167,-0.1271194,45.95518,-21.97463,0.8364649,1008.196
19.380520821,1.210562,-5.956657,1.805523,-1.010358,-0.1667989,-0.1180775,45.95518,-21.97463,0.8364649,1008.198
19.415287972,0.9626673,-4.782601,2.35399,-0.9901183,-0.1245146,-0.08113936,46.29465,-22.3544,-0.0358882,1008.198
19.447572231,0.4049044,-0.9669207,1.317998,-1.006539,-0.1386512,-0.09762126,47.01888,-21.63334,-0.05615091,1008.198
19.479856968,1.706351,-2.082274,0.9523536,-1.03943,-0.1461171,-0.1309501,47.01888,-21.63334,-0.05615091,1008.198
19.514624119,3.193719,-3.960763,1.013294,-0.9750962,-0.1355775,-0.07398306,45.93055,-21.62138,-0.03960443,1008.202
19.546908856,0.7147726,-5.017413,2.232108,-0.9910423,-0.1468174,-0.0928667,46.30598,-21.98425,0.3952227,1008.202
19.581676483,-1.02049,-9.244012,1.805523,-1.028845,-0.1223579,-0.1260034,46.29266,-21.26085,-0.04973578,1008.202
19.613960266,-3.871278,-9.889743,0.5257686,-1.053855,-0.1824713,-0.1364435,46.29266,-21.26085,-0.04973578,1008.202
19.648728371,-5.296673,-13.99894,3.024338,-0.9775588,-0.1147575,-0.06854154,45.54248,-20.89963,-0.9147744,1008.202
19.681012630,-5.358646,-17.69721,-0.3274013,-0.8850892,-0.1457915,-0.02250717,45.89194,-20.18022,-1.365248,1008.202
19.713296413,-2.755752,-18.87127,-0.8149269,-0.9698214,-0.1074027,-0.04676165,45.89194,-20.18022,-1.365248,1008.202
19.748064518,0.1570097,-23.7436,-0.8149269,-1.031145,-0.1531527,-0.07202844,45.43275,-20.19247,-2.665994,1008.2
19.780348778,-4.614963,-31.08145,4.97444,-1.058217,-0.168842,-0.1092841,45.43143,-19.46344,-2.675226,1008.2
19.815115929,-4.181147,-33.48826,2.658693,-1.034587,-0.09427291,0.02693527,45.43143,-19.46344,-2.675226,1008.2
19.847400665,-2.012069,-34.3688,-3.801022,-1.005242,-0.04203732,-0.006188239,44.67058,-19.83688,-3.966759,1008.2
19.879684925,3.813456,-33.01863,-10.68732,-1.044774,-0.09785488,-0.02189045,45.09316,-19.47702,-3.97781,1008.2
19.914452076,9.205164,-32.07939,-11.78425,-1.048011,-0.1490512,0.01021582,45.09316,-19.47702,-3.97781,1008.198
19.946736813,11.43622,-31.43366,-12.94213,-1.005506,-0.1027025,0.08532074,44.65727,-19.11349,-4.411718,1008.2
19.981504440,13.66727,-30.49442,-16.17199,-0.9608272,-0.1868051,0.07701123,43.89378,-18.02886,-5.721715,1008.198
20.013788223,16.82792,-31.37496,-17.0861,-1.005919,-0.1346612,0.07982209,43.89378,-18.02886,-5.721715,1008.198
20.048556328,17.32371,-32.37291,-20.31595,-0.9769324,-0.1131871,0.108888,44.61735,-16.94329,-5.746593,1008.198
20.080840588,24.57463,-38.24318,-20.9863,-1.02319,-0.1922984,0.07953159,43.1283,-15.8507,-7.04556,1008.198
20.113124371,25.50424,-48.92709,-23.78957,-0.9593818,-0.1521275,0.1700255,43.1283,-15.8507,-7.04556,1008.197
20.147892475,13.48135,-56.44104,-27.32413,-1.026953,-0.2280334,0.1049588,42.75156,-14.75879,-7.489619,1008.195
20.180176735,14.5349,-80.09826,-37.01371,-1.138139,-0.05577748,0.05009895,42.35084,-13.67816,-8.805132,1008.195
20.214944840,8.95727,-99.41148,-47.19081,-1.129467,0.0007991783,0.1731954,42.35084,-13.67816,-8.805132,1008.197
20.247228622,-23.45496,-109.0387,-51.33477,-1.085835,-0.2184619,0.2661252,41.18756,-12.97178,-11.47442,1008.195
20.281996250,-19.92246,-133.1656,-69.43416,-1.478303,-0.3943075,-0.02699265,41.09969,-10.82413,-14.55221,1008.201
20.314280987,-2.817726,-176.8992,-78.51433,-1.381429,-0.3923686,0.1777876,41.09969,-10.82413,-14.55221,1008.201
20.346564770,-1.144437,-193.0424,-81.37854,-0.7227744,-0.4698224,0.6129563,39.89913,-9.405613,-18.53791,1008.201
20.381332398,11.80806,-168.0937,-67.97158,-0.007237701,-0.2175954,0.6094642,37.2467,-7.545878,-22.50694,1008.201
20.413617134,-7.77562,-135.8072,-57.48978,-0.1824517,-0.2915666,0.7781414,37.2467,-7.545878,-22.50694,1008.201
20.448384285,-39.01034,-158.5839,-62.97445,-0.7423266,-0.436495,1.039581,33.88251,-5.73248,-25.96619,1008.201
20.480668545,-44.71192,-199.2062,-80.22066,-0.618447,-0.1959177,0.6689174,30.17848,-4.269144,-28.60611,1008.201
20.515436649,-36.34547,-165.6869,-80.15972,0.1887525,-0.1714861,0.3409954,25.39981,-2.787403,-30.73151,1008.201
20.547720432,-78.98336,-131.6393,-82.35359,0.09055459,-0.5856866,0.8638664,25.39981,-2.787403,-30.73151,1008.202
20.580004692,-79.10731,-124.595,-87.83825,-0.1488483,-0.9656819,0.8892943,18.48977,0.1988692,-31.09937,1008.202
20.614772797,-17.56746,-34.2514,-70.59203,-0.1699211,-1.493547,0.7920679,13.41759,3.17647,-30.62335,1008.201
20.647056580,45.89357,-16.22964,-40.06075,0.03305629,-1.138703,1.087095,13.41759,3.17647,-30.62335,1008.195
20.681824207,2.01622,-18.22554,-25.06933,-0.4588457,-0.6540518,1.14699,10.14862,5.399461,-30.6014,1008.195
20.714108944,-47.06692,-21.86511,-61.93846,-0.8629545,-0.979076,0.9681074,9.024998,5.030006,-31.88742,1008.192
20.746392727,-6.412199,-56.26493,-83.20676,-1.242988,-1.329375,0.5932366,9.024998,5.030006,-31.88742,1008.19
20.781160355,110.5941,-79.92215,-89.54459,-1.321142,-0.9775915,0.6510007,7.947992,5.412122,-31.43977,1008.19
20.813445091,116.8534,-123.8318,-125.0121,-0.7715594,-0.3481099,0.4416493,5.03313,5.802911,-31.83598,1008.187
20.848212719,87.35395,-91.01698,-85.58344,0.75348,0.01995021,0.2335434,5.03313,5.802911,-31.83598,1008.187
20.880496979,22.21963,-27.20706,12.65297,2.556627,-0.09846147,0.4663524,0.662452,2.194347,-32.59509,1008.187
20.915264606,-9.820749,-5.487035,-8.554396,1.326794,-0.2991037,0.275937,-4.010952,-1.717735,-28.98588,1008.18
20.947548866,31.9495,78.16443,3.877507,1.094917,-0.2397547,0.1351266,-4.010952,-1.717735,-28.98588,1008.182
20.979833126,44.22028,87.20466,-11.54049,0.2071754,-0.1995768,0.3185579,-2.77258,-3.877213,-25.86332,1008.182
21.014600754,98.81908,57.97067,-14.34376,-0.2576971,0.008408516,0.1104465,0.1209574,-5.737334,-26.32009,1008.182
21.046885490,129.8679,34.78307,-19.0362,-0.1601985,0.1320741,0.249203,0.1209574,-5.737334,-26.32009,1008.18
21.081652641,102.2276,37.83562,-2.216563,0.3721824,0.1404252,0.2640565,3.367653,-9.85573,-27.25189,1008.182
21.113936901,62.87436,29.0889,-2.094682,0.7242249,0.1449403,0.299098,5.204497,-14.97245,-26.71687,1008.182
21.148705006,49.55002,-14.40986,-30.06647,0.6724056,-0.179874,1.027355,5.204497,-14.97245,-26.71687,1008.184
21.180988789,126.1495,4.903357,-45.36258,0.7024819,-0.7063805,3.146109,6.700159,-19.71021,-25.37174,1008.184
21.213273048,141.271,51.86558,-44.44847,0.1187797,-0.1415932,2.940283,8.5686,-23.35277,-23.61026,1008.187
21.248041153,75.14514,36.48545,-25.19121,0.1144091,0.0785189,1.207449,8.5686,-23.35277,-23.61026,1008.186
21.280324936,34.3045,10.30401,8.021476,-0.05148285,0.2160959,0.3896437,10.43167,-30.64613,-22.23833,1008.184
21.315092564,13.66727,-4.665196,5.157262,-0.1010585,0.2593715,0.2067733,11.92601,-34.65485,-20.90244,1008.184
21.347377300,23.89292,6.66444,-10.5045,0.07688417,0.07471282,0.2580346,11.55389,-36.11456,-21.31419,1008.184
21.379661083,64.54765,6.488332,-9.407566,0.03762894,0.1729474,0.4336826,11.55389,-36.11456,-21.31419,1008.186
21.414428711,62.00673,-0.3798929,-16.53763,0.06895483,0.2088126,0.9950913,12.28011,-36.48705,-21.3206,1008.186
21.446713448,49.17818,-2.728004,-15.92822,0.2048588,0.2054532,1.602945,12.69651,-38.65479,-19.49327,1008.187
21.481481075,49.85989,2.379138,-11.17485,0.2331282,0.3471498,1.694577,12.69651,-38.65479,-19.49327,1008.189
21.513764858,21.04213,4.257627,-2.033741,0.1638302,0.415671,1.123691,13.43537,-39.38617,-19.05935,1008.189
21.548532963,-11.86588,5.314276,8.935586,0.09400099,0.3530767,0.7043442,12.7504,-41.91289,-17.70882,1008.189
21.580817223,-9.448908,2.555246,6.802661,0.03560556,0.2761702,0.6218481,12.7504,-41.91289,-17.70882,1008.191
21.613101006,-2.197989,-1.436543,0.5257686,0.07306938,0.2342299,0.7805803,13.08855,-41.56364,-18.59041,1008.191
21.647869110,-6.660093,-6.250171,-1.11963,0.1129851,0.2124733,1.038527,13.10053,-41.558,-18.15468,1008.193
21.680153370,-6.164304,-4.019465,-0.6321048,0.1778675,0.2213276,1.168966,13.10053,-41.558,-18.15468,1008.193
21.714920521,-10.00667,-0.6147041,2.171168,0.1463675,0.2131313,1.061664,12.73709,-41.1895,-18.15378,1008.193
21.747205257,-8.209435,0.9115682,3.085278,0.1196725,0.1984693,0.898719,12.72445,-40.83061,-18.59412,1008.191
21.781972885,-6.722067,0.2658376,2.475871,0.1017708,0.1827375,0.8411389,12.72445,-40.83061,-18.59412,1008.191
21.814256668,-3.437463,-0.1450818,0.8304722,0.1115638,0.1534617,0.9047652,13.09855,-40.46445,-18.16853,1008.191
21.846541405,2.69793,-0.02767628,-0.6321048,0.1145529,0.1504134,1.002396,13.0859,-40.10557,-18.60887,1008.191
21.881309032,6.60227,0.08972927,-1.485275,0.1319165,0.1756913,1.021356,13.0859,-40.10557,-18.60887,1008.191
21.913592815,7.345954,1.205082,-1.241512,0.1308255,0.2054726,0.9567475,12.72313,-40.10158,-18.60335,1008.191
21.948360920,6.106481,1.146379,-0.5711641,0.1196224,0.227582,0.9216062,12.7471,-40.09031,-17.7319,1008.191
21.980645180,3.751482,0.5593515,-0.388342,0.1118706,0.2406915,0.941035,12.7471,-40.09031,-17.7319,1008.193
22.015413284,1.210562,-0.2624874,-0.08363844,0.1264054,0.2408509,0.9758121,13.08656,-40.47009,-18.60425,1008.193
22.047697067,-1.764174,0.2071348,-0.02269774,0.1196371,0.2427918,0.9830894,13.09921,-40.82897,-18.16391,1008.193
22.079981327,-4.243121,-0.1450818,0.7085907,0.117212,0.2388447,0.9627678,13.09921,-40.82897,-18.16391,1008.193
22.114749432,-6.59812,-0.6147041,1.378938,0.1225617,0.2189517,0.9428221,13.08656,-40.47009,-18.60425,1008.195
22.147033215,-7.217856,-1.084326,1.744583,0.1230989,0.1996286,0.9523799,12.72379,-40.4661,-18.59874,1008.195
22.181800842,-5.606541,-0.7908124,1.439879,0.1299279,0.177904,0.9619104,13.46132,-40.46844,-18.17404,1008.193
22.214085579,-3.003647,-0.08637906,0.2820058,0.1318805,0.1711443,0.9647684,13.46132,-40.46844,-18.17404,1008.193
22.246369362,0.280957,0.5006487,-0.3274013,0.1207562,0.1715899,0.9628612,13.44934,-40.47408,-18.60977,1008.193
22.281136990,2.140167,0.2658376,-0.2664606,0.114909,0.1855597,0.9489335,13.09723,-39.73542,-18.17776,1008.197
22.313421726,2.69793,0.2658376,-0.2664606,0.1265035,0.1909243,0.9513562,13.09723,-39.73542,-18.17776,1008.199
22.348188877,3.503587,0.3832431,-0.5711641,0.1221377,0.1996504,0.9596337,13.08656,-40.47009,-18.60425,1008.199
22.380473614,3.069772,0.676757,-0.6321048,0.1264685,0.2117922,0.9688787,13.46132,-40.46844,-18.17404,1008.199
22.415241242,1.768325,0.3832431,-0.3274013,0.1186896,0.2262552,0.9593089,13.46132,-40.46844,-18.17404,1008.197
22.447525025,-0.8345689,0.148432,0.2210651,0.119655,0.2252737,0.9544668,13.44868,-40.10956,-18.61438,1008.197
22.479809761,-2.445884,-0.08637906,0.6476501,0.1168013,0.2083591,0.9635621,13.46066,-40.10393,-18.17866,1008.197
22.514577389,-2.631805,-0.2037846,0.5867093,0.1187508,0.2030528,0.9669119,13.46066,-40.10393,-18.17866,1008.199
22.546861172,-2.817726,-0.4972985,0.6476501,0.1173217,0.190921,0.9581441,13.08722,-40.8346,-18.59964,1008.199
22.581629276,-0.7725952,0.0310265,-0.08363844,0.1236221,0.1826909,0.951799,13.46199,-40.83296,-18.16943,1008.199
22.613913536,0.652799,0.148432,-0.1445791,0.1255591,0.1836856,0.9580852,13.46199,-40.83296,-18.16943,1008.2
22.648681164,2.078193,0.3832431,-0.2055199,0.1274822,0.1919523,0.9682802,12.72379,-40.4661,-18.59874,1008.2
22.680965424,2.573982,0.5006487,-0.5711641,0.1202039,0.1991577,0.9586681,12.72313,-40.10158,-18.60335,1008.2
22.713249683,1.830299,0.4419459,-0.5102233,0.122098,0.2151231,0.9558542,12.72313,-40.10158,-18.60335,1008.2
22.748017788,0.466878,0.3245404,-0.2664606,0.1162927,0.2160727,0.9553887,13.46066,-40.10393,-18.17866,1008.207
22.780301571,-0.8345689,0.2071348,0.2210651,0.1216185,0.2170934,0.966502,13.45,-40.83859,-18.60515,1008.205
22.815069199,-2.012069,-0.2037846,0.5257686,0.1129361,0.2083611,0.967438,13.45,-40.83859,-18.60515,1008.208
22.847353935,-2.136016,-0.2037846,0.4648279,0.1163277,0.2040007,0.9630551,13.07458,-40.47572,-19.03998,1008.207
22.882121086,-2.693779,-0.3798929,0.7695315,0.1240676,0.1996379,0.9543115,13.08656,-40.47009,-18.60425,1008.207
22.914405346,-2.569831,-0.3798929,0.7085907,0.1226059,0.2044747,0.9548256,13.08656,-40.47009,-18.60425,1008.207
22.946690083,-2.38391,-0.8495152,0.7695315,0.1197284,0.2050536,0.9852918,13.46199,-40.83296,-18.16943,1008.208
22.981457710,-3.375489,-2.140976,1.744583,0.1008175,0.2370339,1.013554,14.18754,-40.84093,-18.18046,1008.208
23.013741493,-7.155883,-2.551896,3.755626,0.1254513,0.2672898,1.067334,14.18754,-40.84093,-18.18046,1008.208
23.048509598,-17.62943,-1.319137,4.425974,0.146687,0.2862419,1.072714,13.09987,-41.19349,-18.15929,1008.208
23.080793858,-32.87495,-11.1225,9.788756,0.07117929,0.3013547,1.026553,12.72379,-40.4661,-18.59874,1008.208
23.113077641,-40.62166,-19.10608,15.57812,0.08281143,0.2756004,0.985289,12.69849,-39.74833,-19.47942,1008.207
23.147845745,-40.37376,-21.6303,18.6861,0.1660196,0.2618256,0.9913161,12.69849,-39.74833,-19.47942,1008.207
23.180130005,-49.11205,-19.4583,22.34254,0.1965913,0.2022551,0.9512695,11.57222,-38.65973,-20.78391,1008.207
23.214897156,-49.29797,-17.81462,25.02393,0.2354458,0.1287955,0.9469006,10.81834,-37.20576,-21.72504,1008.207
23.247181892,-42.35692,-11.65083,22.03784,0.2016553,0.1059705,0.9516781,10.81834,-37.20576,-21.72504,1008.207
23.281949520,-57.47849,-5.134818,19.05174,0.2679683,0.07418617,0.9412022,9.013132,-35.3576,-21.28481,1008.205
23.314233303,-77.12415,-5.60444,18.3814,0.2893387,0.02674828,0.9191316,8.6244,-34.27134,-22.1646,1008.203
23.346518040,-96.58388,-8.833093,19.05174,0.1628215,-0.08138676,0.8182342,8.6244,-34.27134,-22.1646,1008.203
23.381285668,-96.64585,-15.46651,19.84397,0.1964807,-0.2007726,0.831986,8.561167,-32.47693,-24.36631,1008.201
23.413569450,-93.2373,-6.367577,19.78303,0.1831445,-0.2849984,0.8363702,6.729342,-29.18198,-24.816,1008.201
23.448337555,-82.14401,-10.47677,7.594891,0.1382209,-0.3142561,0.8087447,6.729342,-29.18198,-24.816,1008.201
23.480621815,-84.87086,-5.545738,-1.850919,0.1228376,-0.3637708,0.7761059,5.973866,-25.90464,-25.71797,1008.201
23.515389919,-86.35822,0.5006487,-4.166666,0.06831298,-0.4357696,0.7105498,4.856934,-23.35233,-26.60519,1008.201
23.547673702,-88.03151,-0.3798929,-10.07791,0.3118968,-0.3876937,0.6967619,4.856934,-23.35233,-26.60519,1008.201
23.579957962,-97.32756,5.725196,-14.89223,0.3101005,-0.4760658,0.6102112,5.226404,-20.43456,-26.2119,1008.201
23.614726066,-79.6031,26.15376,-9.651329,0.2447716,-0.4769493,0.5475,4.117761,-16.78387,-26.73949,1008.201
23.647009849,-53.26429,43.70589,2.293049,0.2660145,-0.4760484,0.5097511,4.117761,-16.78387,-26.73949,1008.201
23.681777477,-17.44351,48.1673,15.0906,0.1017479,-0.5380036,0.5020179,4.474584,-13.50722,-26.78655,1008.201
23.714062214,36.03976,20.92921,13.68896,-0.07994732,-0.5956508,1.066738,5.559997,-10.96677,-26.77316,1008.201
23.746345997,13.54332,29.20631,-2.521267,0.03196346,-0.7019146,1.60251,5.559997,-10.96677,-26.77316,1008.201
23.781113625,-23.02114,20.6944,-0.08363844,0.2870103,-0.7652749,1.682334,7.374815,-12.44558,-26.84452,1008.203
23.813398361,-10.99825,11.06715,-8.615336,0.1932269,-0.5607834,1.128711,7.017992,-15.72223,-26.79746,1008.201
23.848165989,-5.42062,26.50598,-8.127811,0.1851385,-0.3898091,0.6080704,7.017992,-15.72223,-26.79746,1008.2
23.880449772,6.850165,24.62749,-4.897954,0.2796794,-0.3020584,0.5754917,7.369445,-16.09637,-27.23409,1008.2
23.915217876,-30.21008,26.21247,10.94663,0.2489247,-0.3199203,0.7572294,8.469761,-16.1027,-26.81491,1008.2
23.947502136,-67.39428,29.61723,29.96013,0.2218915,-0.4487714,1.028248,10.28431,-16.48716,-26.83787,1008.201
23.979786396,-83.32151,35.48751,28.80226,0.2263998,-0.4823178,1.121351,10.28431,-16.48716,-26.83787,1008.2
24.014554024,-93.05138,37.07248,24.96299,0.1615006,-0.506879,0.9255583,11.00959,-15.40079,-26.8005,1008.198
24.046838284,-126.827,32.37626,36.41984,0.1293935,-0.4720971,0.7919129,12.46871,-13.22401,-26.41453,1008.196
24.081605911,-150.5629,30.43906,45.07342,0.05101508,-0.483743,0.7059634,12.46871,-13.22401,-26.41453,1008.196
24.113890171,-163.0816,20.10738,49.8268,-0.1182192,-0.5760687,0.451031,14.33525,-9.206107,-24.31425,1008.198
24.148657799,-178.637,6.488332,50.19244,-0.02756952,-0.6486606,0.5161706,15.82558,-4.400065,-22.65418,1008.198
24.180942535,-182.1075,15.23505,39.77158,-0.2356372,-0.7084879,0.1735207,15.82558,-4.400065,-22.65418,1008.198
24.213226318,-160.1069,15.93948,38.97935,-0.1933257,-0.8295282,0.1200465,17.35238,1.091964,-19.63314,1008.202
24.247994423,-116.4155,3.083571,49.40021,-0.2301969,-0.9527466,0.204994,19.60368,6.210695,-16.68077,1008.202
24.280278683,-58.77994,7.192765,48.85175,-0.3225952,-0.9712616,0.1030823,19.60368,6.210695,-16.68077,1008.202
24.315045834,-23.02114,1.322488,47.63293,-0.3717188,-0.8802253,0.01910401,20.04545,9.892111,-13.62011,1008.198
24.347330570,-28.59877,3.024868,57.68815,-0.4267973,-0.9148893,-0.02448386,21.50854,9.88179,-13.20645,1008.198
24.379614830,-53.07836,12.2412,74.02026,-0.3844215,-0.8524588,-0.0590278,21.50854,9.88179,-13.20645,1008.2
24.414381981,-72.90993,13.88488,74.99532,-0.3813514,-0.9773394,-0.2129945,22.61084,8.781914,-12.77342,1008.2
24.446666718,-59.3377,6.429629,71.21699,-0.4368432,-1.195895,-0.1135624,25.56166,8.408028,-11.07002,1008.201
24.481434345,-42.41889,9.716985,44.5859,-0.621299,-1.113302,-0.1470194,25.56166,8.408028,-11.07002,1008.203
24.513718128,-43.16258,-5.721846,33.18998,-0.6811954,-1.093664,-0.01334955,27.03674,8.403342,-10.22063,1008.209
24.548486233,-53.76007,-17.16889,30.99612,-0.4196163,-1.091041,-0.03178563,28.88829,8.401109,-8.87878,1008.209
24.580770493,-64.66744,-22.68695,37.21207,-0.3917427,-1.045739,-0.1103886,28.88829,8.401109,-8.87878,1008.209
24.613055229,-79.04533,-19.86922,29.22884,-0.4170004,-1.012073,-0.1507516,30.36006,10.219,-8.052467,1008.211
24.647822380,-93.67111,9.188661,18.13763,-0.2922594,-1.021059,-0.194581,31.47104,10.94734,-7.206792,1008.212
24.680106640,-99.37269,25.15582,13.93272,-0.4762163,-0.9525722,-0.2498741,31.47104,10.94734,-7.206792,1008.212
24.714874744,-86.23428,22.749,11.37321,-0.3247606,-1.162759,-0.1406881,31.15422,12.06741,-5.472217,1008.214
24.747158527,-53.88402,25.86025,10.58099,-0.5431628,-0.9990616,-0.06000269,31.93705,13.54567,-3.323077,1008.214
24.781926155,-49.29797,15.35245,9.362171,-0.726462,-0.7960043,-0.1038963,31.98367,14.29724,-1.589402,1008.214
24.814210892,-52.45863,-7.130713,2.841515,-0.7957989,-0.7471443,-0.1929052,31.98367,14.29724,-1.589402,1008.214
24.846494675,-40.68363,-24.56544,0.5257686,-0.6622444,-0.7800834,-0.1725925,32.36909,15.03355,-0.7326956,1008.214
24.881262302,-32.68903,-24.80025,6.863602,-0.6210174,-0.6939752,-0.3592825,32.76849,14.68195,0.5735855,1008.216
24.913547039,-21.71969,-28.0289,4.730677,-0.5935254,-0.6502069,-0.3189675,32.76849,14.68195,0.5735855,1008.216
24.948314667,-10.31654,-24.74155,18.50328,-0.560935,-0.5692207,-0.4389535,32.75518,15.40535,0.1286268,1008.214
24.980598450,-0.4627269,-20.39754,29.83825,-0.5074344,-0.4886648,-0.4178229,32.40572,14.68594,0.5791006,1008.216
25.015366554,-4.305094,-12.23785,39.52782,-0.6087638,-0.3683867,-0.3966162,32.40572,14.68594,0.5791006,1008.216
25.047650814,-22.95917,-6.01536,46.10941,-0.6211591,-0.4165567,-0.32048,33.1073,14.66669,-0.3033836,1008.22
25.079934597,-23.08311,-1.906165,55.92087,-0.6606953,-0.4601761,-0.3066231,34.55973,13.92171,-0.3162138,1008.22
25.114702702,-5.606541,3.90541,62.98999,-0.657204,-0.5032164,-0.3010741,34.55973,13.92171,-0.3162138,1008.22
25.146986961,9.515033,4.375032,65.91515,-0.6729986,-0.5695372,-0.294649,36.03745,12.45896,0.551641,1008.214
25.181755066,30.64805,8.719038,59.63825,-0.6816387,-0.7784011,-0.2310372,37.47922,10.97931,0.1123159,1008.212
25.214038849,76.13672,33.72642,-55.90533,-0.8600794,-1.601205,-0.262887,37.47922,10.97931,0.1123159,1008.218
25.246323109,87.16803,-19.98662,-14.64847,-0.1458478,-1.435804,0.2460585,39.99667,9.846573,-0.7838988,1008.218
25.281091213,-4.367068,-4.547791,0.09918367,-0.7015489,-0.3786835,-0.3577996,39.96072,9.82967,-2.091079,1008.218
25.313374996,15.65042,-12.94229,2.475871,-0.7524384,-0.6782857,-0.1877728,39.96072,9.82967,-2.091079,1008.216
25.348142624,-13.2293,-7.248118,17.58916,-0.6542587,-0.9246536,-0.2860729,38.85908,10.56503,-2.519491,1008.218
25.380427361,-11.37009,-7.952551,27.5225,-0.6490393,-0.6841835,-0.3021207,39.20987,10.55541,-2.960733,1008.216
25.415194512,-12.48562,-1.495246,26.05992,-0.6103443,-0.6444439,-0.1748337,39.20987,10.55541,-2.960733,1008.215
25.447478771,-15.27443,3.200976,25.75522,-0.6890984,-0.6698155,-0.1694904,39.92477,9.812765,-3.39826,1008.215
25.479763508,-21.2239,4.492437,26.73027,-0.7104954,-0.6703776,-0.3173798,40.30019,9.449898,-2.963432,1008.215
25.514531136,-23.39298,2.026921,33.0681,-0.7573047,-0.6974856,-0.2802082,40.30019,9.449898,-2.963432,1008.211
25.546814919,-26.1818,-7.71774,36.0542,-0.8084558,-0.5697024,-0.3717082,42.11539,8.700924,-2.981778,1008.209
25.581583023,-17.56746,-11.53342,31.48365,-0.7783675,-0.6136363,-0.3667051,42.14134,7.618646,-2.096477,1008.209
25.613867283,0.7767463,-13.99894,32.09305,-0.7923855,-0.6160993,-0.3676557,42.14134,7.618646,-2.096477,1008.209
25.648634434,5.486744,-23.33268,29.22884,-0.7489811,-0.5534122,-0.3272674,42.13134,6.519463,-2.518356,1008.213
25.680919170,-0.4627269,-23.50879,32.70246,-0.7522514,-0.5773807,-0.257298,42.48346,5.780808,-2.950366,1008.213
25.713203430,20.54634,-30.2009,26.85215,-0.8261185,-0.4608585,-0.3681507,42.46214,4.311477,-3.803357,1008.213
25.747971535,39.44831,-40.00427,21.48937,-0.9597605,-0.5420943,-0.2363458,42.46214,4.311477,-3.803357,1008.215
25.780255318,11.68411,-30.84664,15.7,-0.9484486,-0.332659,0.009440698,43.13908,4.645476,-5.561911,1008.215
25.815022945,17.63358,-26.91355,0.8914129,-0.8480961,-0.5248145,-0.22972,43.12908,3.546295,-5.98379,1008.215
25.847307682,21.04213,-32.72512,7.716772,-0.8134301,-0.6425672,-0.1632663,43.12908,3.546295,-5.98379,1008.215
25.882074833,28.10713,-27.38317,11.06851,-0.8672033,-0.5781403,-0.09848671,42.36691,3.901884,-7.284555,1008.215
25.914359570,40.43989,-18.28424,12.53109,-0.8666685,-0.6126224,-0.1354253,42.34492,2.797069,-8.142161,1008.215
25.946643829,40.00608,-23.39138,24.90205,-0.8683849,-0.714835,-0.1650091,42.34492,2.797069,-8.142161,1008.215
25.981410980,63.9279,-22.68695,33.79939,-0.857628,-0.7475414,-0.1149406,42.66042,2.406025,-9.885968,1008.215
26.013695717,115.7379,-4.665196,30.56954,-0.8494866,-0.93789,-0.1711525,42.70918,1.305373,-10.37101,1008.215
26.048463345,165.0069,4.140221,18.80798,-0.8525569,-0.6601039,-0.1642485,42.70918,1.305373,-10.37101,1008.215
26.080748081,159.6772,1.498596,15.63906,-0.8641685,-0.4236952,-0.07924443,43.76552,-0.9105902,-11.66705,1008.212
26.113031864,139.8456,-8.36347,17.16258,-0.9020439,-0.1484103,-0.06696189,44.81252,-4.590251,-13.38034,1008.212
26.147799492,90.20473,-16.93408,35.50573,-1.063295,-0.2181908,0.04127915,44.81252,-4.590251,-13.38034,1008.21
26.180084229,64.23777,-22.15862,42.02639,-0.8188889,-0.2737749,0.1400247,45.16795,-7.151485,-13.78927,1008.208
26.214851379,64.36172,-20.10403,45.43907,-0.7809495,-0.3396917,0.2203024,45.13739,-10.14527,-15.05876,1008.21
26.247135639,65.41528,-21.92381,45.62189,-1.059148,-0.08317773,0.1803014,45.13739,-10.14527,-15.05876,1008.212
26.281903744,46.38936,-31.66847,35.14009,-1.101058,0.07124367,0.2305805,45.5048,-12.70087,-15.03196,1008.212
26.314188004,24.69858,-22.45214,30.20389,-0.7625862,-0.5082302,0.3082573,45.49612,-14.52908,-15.44461,1008.212
26.346471787,36.78345,-3.138924,34.28692,-0.9817849,-0.2422334,0.303474,45.49612,-14.52908,-15.44461,1008.214
26.381239891,24.07884,-5.721846,33.31187,-1.10174,-0.2568952,0.2195308,44.76018,-16.35012,-15.90847,1008.214
26.413524151,13.1095,-1.906165,35.93232,-0.8259304,-0.2846465,0.3652605,44.41309,-17.43324,-15.39113,1008.212
26.448291302,8.95727,8.54293,34.53068,-1.030766,-0.1897001,0.2816401,44.41309,-17.43324,-15.39113,1008.212
26.480576038,6.044507,5.196871,31.48365,-0.9959401,-0.2003076,0.2636175,44.41573,-18.8913,-15.37267,1008.212
26.515343666,8.709375,9.129957,24.47547,-0.9434624,-0.09652907,0.2839154,45.13023,-20.36378,-15.86321,1008.214
26.547628403,8.95727,8.54293,18.92986,-0.9550515,-0.1175088,0.2432123,44.79446,-21.07675,-14.91476,1008.213
26.579912186,9.267138,7.897199,14.78589,-0.8887785,-0.1088993,0.3001642,44.79446,-21.07675,-14.91476,1008.211
26.614679813,5.672665,10.77363,11.25133,-0.9969153,-0.2032762,0.245232,45.52068,-21.44925,-14.92118,1008.211
26.646964550,5.982533,10.18661,10.09346,-0.9381753,-0.08540644,0.2771991,45.90874,-22.171,-14.04601,1008.211
26.681731701,1.086615,11.00845,8.813705,-1.01965,-0.2033723,0.2360951,45.90874,-22.171,-14.04601,1008.209
26.714015961,-7.713645,12.88694,13.56708,-0.9238877,-0.1922654,0.2910639,45.89941,-23.63469,-14.46327,1008.207
26.746300697,-2.074042,18.11148,14.54213,-0.9811737,-0.1137185,0.2413564,45.91139,-23.62906,-14.02754,1008.207
26.781068325,-7.713645,10.36272,13.4452,-1.127268,-0.127592,0.1265339,45.91139,-23.62906,-14.02754,1008.207
26.813352108,-2.38391,10.77363,12.28732,-0.9431831,-0.03042605,0.2262781,45.92404,-23.98794,-13.5872,1008.206
26.848120213,0.4049044,13.76748,5.583847,-0.9788409,-0.09060756,0.2047414,45.92603,-25.08149,-13.57336,1008.21
26.880404472,0.1570097,12.2412,5.218203,-1.041198,-0.1205119,0.1437925,45.92603,-25.08149,-13.57336,1008.21
26.915171623,-3.499436,12.2412,6.497958,-0.9812173,-0.1148764,0.185271,45.94999,-25.07022,-12.7019,1008.21
26.947456360,-6.412199,11.18456,4.486915,-0.9894897,-0.1014335,0.1607099,47.40044,-24.72166,-12.72858,1008.21
26.979740620,-3.685357,9.364769,2.232108,-1.007926,-0.08072621,0.1463642,47.40044,-24.72166,-12.72858,1008.21
27.014508724,0.1570097,6.547035,-4.593251,-1.015828,-0.01253406,0.1409677,47.03964,-25.81122,-12.70922,1008.21
27.046792507,-0.02891128,5.255574,-10.68732,-0.9943066,-0.1336224,0.09092207,47.06361,-25.79995,-11.83776,1008.21
27.081560135,1.706351,5.314276,-9.651329,-0.9560998,-0.09732414,0.2027204,47.06361,-25.79995,-11.83776,1008.21
27.113844872,2.326088,10.30401,-8.249693,-0.9995327,-0.1430263,0.1764485,47.39044,-25.82084,-13.15046,1008.21
27.148612022,-4.181147,8.484227,1.317998,-0.9732785,-0.2337411,0.08885716,47.7652,-25.81919,-12.72025,1008.21
27.180896282,-4.552989,13.35656,5.035381,-0.9451416,-0.03835134,0.1740258,47.7652,-25.81919,-12.72025,1008.21
27.213181019,-1.144437,12.47602,-5.202658,-1.02073,-0.03774422,-0.01144827,47.41309,-25.08054,-12.28824,1008.21
27.247948647,-2.817726,-1.495246,-14.34376,-1.034893,-0.1424034,0.1044959,47.41309,-25.08054,-12.28824,1008.21
27.280232430,0.9626673,1.263785,-12.75931,-0.951093,-0.1860265,0.1557952,47.41309,-25.08054,-12.28824,1008.21
27.315000534,1.334509,1.557299,-14.1,-1.040344,-0.09068086,0.09223232,47.77586,-25.08452,-12.29375,1008.21
27.347284794,0.5288517,-0.2624874,-15.31881,-0.9694622,-0.1914317,0.1471021,48.13864,-25.08851,-12.29927,1008.21
27.382051945,-0.7106215,0.6180543,-9.590388,-1.019342,-0.186508,0.07133777,47.7752,-24.72001,-12.29837,1008.208
27.414336681,-1.144437,4.844654,-7.030879,-0.948619,-0.1901849,0.2118451,47.7752,-24.72001,-12.29837,1008.208
27.446620941,-5.172726,2.085624,-9.956032,-1.057272,-0.1078486,0.0385095,48.51274,-24.72235,-11.87367,1008.206
27.481389046,-2.445884,-1.964868,-13.55153,-0.9873857,-0.1867304,0.1215453,47.78587,-23.98534,-11.87187,1008.206
27.513672829,1.830299,-0.6734068,-15.98916,-0.9976035,-0.168452,0.09749927,47.78587,-23.98534,-11.87187,1008.205
27.548440457,1.272536,2.790057,-16.90327,-0.9819817,-0.2269222,0.1092191,47.06965,-22.51367,-11.44358,1008.21
27.580725193,2.078193,1.263785,-19.27996,-1.012615,-0.1505027,0.1232559,47.80653,-22.1515,-11.0235,1008.21
27.613008976,3.751482,7.251468,-23.72863,-0.9801222,-0.1812914,0.1496,47.80653,-22.1515,-11.0235,1008.209
27.647776604,3.255693,14.11969,-25.06933,-0.9601439,-0.2548787,0.1235162,47.43044,-21.42411,-11.46294,1008.209
27.680061340,2.388062,17.46575,-19.21902,-0.9872037,-0.2719821,0.09737163,47.80388,-20.69343,-11.04196,1008.209
27.714828968,5.300823,18.22889,-14.89223,-0.9693067,-0.277282,0.08908446,47.80388,-20.69343,-11.04196,1008.207
27.747113228,3.441614,17.58316,-13.00307,-1.001752,-0.2834373,0.01370296,48.16534,-19.96839,-11.05671,1008.205
27.781880856,4.74306,11.59547,-8.188752,-0.9924573,-0.3152176,0.05266076,48.16402,-19.23936,-11.06594,1008.205
27.814165115,-5.234699,10.77363,-1.9728,-0.9664055,-0.2816717,0.07648385,48.16402,-19.23936,-11.06594,1008.205
27.846449375,11.49819,13.76748,-2.155622,-0.9888173,-0.2164639,0.05949913,48.90089,-18.87719,-10.64586,1008.205
27.881217003,14.22503,16.4091,-3.67914,-0.9514761,-0.2598897,0.06545644,48.55076,-19.23208,-10.2,1008.207
27.913501739,11.99398,17.40705,-3.069733,-0.9867764,-0.2722133,0.0287211,48.55076,-19.23208,-10.2,1008.207
27.948269367,10.38266,17.40705,1.074235,-0.956762,-0.2827347,0.04019912,48.56577,-19.95467,-9.692798,1008.209
27.980553150,12.55174,19.16813,1.561761,-0.9748397,-0.2014629,0.04746832,48.22631,-19.5749,-8.820444,1008.209
28.015320778,4.619113,18.75721,1.683642,-0.9766603,-0.2596382,0.01813515,48.22631,-19.5749,-8.820444,1008.209
28.047605515,0.5908253,18.5811,3.2681,-0.9867992,-0.2708418,0.005040453,48.94054,-19.95302,-9.262587,1008.209
28.079889298,-5.482594,15.41115,6.68078,-1.01428,-0.3101663,-0.009143637,49.32729,-19.94574,-8.396648,1008.209
28.114657402,-7.96154,17.40705,14.48119,-0.9861561,-0.3327292,0.02064066,49.32729,-19.94574,-8.396648,1008.209
28.146941662,-1.826147,26.27117,18.62516,-1.00016,-0.3453957,0.007545972,49.7147,-20.30298,-7.526094,1008.209
28.181709290,94.66684,35.48751,7.899594,-1.061024,-0.6125664,-0.09729785,48.99047,-21.02403,-7.505832,1008.209
28.213993549,156.0827,11.12585,-6.848057,-1.21885,-0.2923077,0.007352277,48.99047,-21.02403,-7.505832,1008.209
28.246277809,157.756,-1.964868,-9.71227,-1.205429,-0.1598378,0.2449615,49.74,-21.02074,-6.645409,1008.209
28.281045914,198.1628,-12.47266,14.29837,-0.901379,-0.1808869,0.05951297,50.07748,-20.30697,-7.53161,1008.209
28.313329697,225.8031,-4.195574,54.27547,-0.7339365,-0.08362564,-0.08435963,50.47753,-21.02308,-6.220713,1008.209
28.348097324,187.5034,14.82413,56.46933,-0.6627087,0.0994115,0.03206945,50.47753,-21.02308,-6.220713,1008.207
28.380382061,134.8877,31.2609,35.74949,-0.8224813,0.1850995,0.03435133,49.09164,-23.89508,-3.98309,1008.207
28.415149689,6.416349,34.72437,-1.91186,-1.028781,0.3273858,0.06992912,46.25068,-24.56403,-1.751101,1008.207
28.447433472,-44.40205,15.99818,-85.52251,-1.089728,-1.003723,-0.2594783,46.25068,-24.56403,-1.751101,1008.209
28.479718208,-9.572855,34.07864,16.18753,-1.527027,-0.9455857,-0.2983307,47.00218,-25.65429,-0.8768301,1008.209
28.514485836,22.21963,5.314276,4.97444,-1.017073,0.2672513,0.02218498,48.46396,-24.93558,-0.4723971,1008.209
28.546770573,6.974112,1.968218,-4.53231,-0.9847267,-0.372395,-0.1188183,48.46396,-24.93558,-0.4723971,1008.209
28.581537724,-14.34483,-0.5560013,11.19039,-1.00574,-0.2116189,0.07551662,47.76237,-24.91633,0.4100876,1008.209
28.613821983,-4.800884,0.5006487,6.619839,-1.044763,-0.1046528,-0.02869727,47.41092,-24.54219,0.846714,1008.207
28.648590088,-3.127594,-5.134818,7.046424,-1.022238,-0.1991984,0.0417821,47.41092,-24.54219,0.846714,1008.207
28.680874348,2.140167,-3.080221,5.583847,-1.00363,-0.1083117,-0.0007672808,47.76304,-25.28085,0.4147034,1008.207
28.713158131,3.317667,0.7354598,0.6476501,-1.010268,-0.1463911,0.04930814,47.76436,-26.00988,0.4239354,1008.207
28.747926235,1.768325,-0.2037846,2.536812,-1.018614,-0.1410726,-0.08794023,47.76436,-26.00988,0.4239354,1008.207
28.780210495,-0.7106215,-2.43449,1.196116,-1.038723,-0.1867272,0.02303443,48.13979,-26.37275,0.8587623,1008.213
28.814977646,-0.09088494,0.08972927,1.50082,-1.00873,-0.1694828,0.08833205,47.41423,-26.36477,0.8697934,1008.213
28.847262382,0.2189834,3.788004,1.317998,-0.998705,-0.1406687,0.01450816,47.41423,-26.36477,0.8697934,1008.213
28.882030010,3.37964,2.496543,-3.130674,-1.018012,-0.1562179,0.01204417,48.15414,-26.73082,1.361351,1008.213
28.914314747,0.1570097,5.079465,0.7695315,-1.00098,-0.2060535,0.0001215713,48.15546,-27.45985,1.370584,1008.211
28.946598530,-0.7725952,9.071255,3.146219,-0.9787794,-0.1797791,0.02342818,48.15546,-27.45985,1.370584,1008.211
28.981366158,-2.631805,5.842601,2.780575,-1.038412,-0.128308,-0.01724293,47.4552,-28.16964,2.2623,1008.209
29.013650894,-1.7022,11.24326,3.816567,-0.9739335,-0.1675049,0.07134796,47.45586,-28.53416,2.266916,1008.209
29.048418522,-1.7022,17.52445,3.755626,-1.004983,-0.1430981,0.01692508,47.83063,-28.53251,2.697127,1008.209
29.080702305,-1.516279,17.93537,2.475871,-1.005468,-0.1543429,-0.01649509,47.83063,-28.53251,2.697127,1008.21
29.112987041,0.03306238,17.52445,-1.180571,-0.9611309,-0.1103649,-0.0714526,48.20605,-28.89538,3.131954,1008.21
29.147754669,1.768325,19.40294,-1.363393,-0.9946669,-0.2073906,0.02862325,47.14169,-28.87214,4.019954,1008.214
29.180038452,-2.445884,21.39884,1.196116,-1.020076,-0.1381912,-0.09323853,47.14169,-28.87214,4.019954,1008.214
29.214806557,0.09503604,19.46165,-1.789978,-1.015673,-0.1521374,-0.07108913,47.16764,-29.95442,4.905256,1008.214
29.247090817,-0.09088494,20.87051,-1.11963,-1.012294,-0.1545981,-0.08609701,47.15499,-29.59554,4.464913,1008.216
29.281858921,-0.9585162,20.98792,-4.105725,-1.003609,-0.1546486,-0.1083542,47.15499,-29.59554,4.464913,1008.218
29.314142704,0.2189834,21.63365,-3.435377,-1.008947,-0.1469242,-0.1092656,47.55373,-29.58263,5.766578,1008.216
29.346426964,-0.2148323,21.04662,-4.776073,-1.048698,-0.1288842,-0.1786926,47.21558,-29.93189,6.648163,1008.216
29.381195068,2.759903,15.52856,-6.543353,-1.038563,-0.1152511,-0.1626834,47.21558,-29.93189,6.648163,1008.218
29.413478851,6.230428,15.99818,-9.224744,-0.980364,-0.166167,-0.09976788,46.85215,-29.56338,6.649062,1008.219
29.448246479,5.23885,18.11148,-9.590388,-1.056827,-0.1593165,-0.155643,46.87783,-29.55131,7.582763,1008.221
29.480531216,8.833323,22.57289,-9.468507,-0.9996654,-0.1973297,-0.1400289,46.87783,-29.55131,7.582763,1008.221
29.515298844,11.80806,21.80976,-13.12495,-1.045658,-0.1942717,-0.1984085,46.91577,-30.62795,8.90379,1008.221
29.547582626,17.50963,18.99202,-14.03906,-1.047505,-0.2276339,-0.188442,46.56366,-29.8893,9.335802,1008.221
29.579867363,20.4224,16.4091,-15.13599,-1.033494,-0.2286207,-0.2058816,46.56366,-29.8893,9.335802,1008.221
29.614634991,17.07582,14.82413,-6.116768,-0.9941688,-0.3016425,-0.2242687,46.95041,-29.88202,10.20174,1008.227
29.646919727,16.27016,10.65623,4.913499,-0.9826034,-0.3042173,-0.2799038,47.33649,-29.51022,11.06306,1008.227
29.681686878,13.97714,4.375032,10.64193,-0.9701999,-0.2384212,-0.2955099,47.33649,-29.51022,11.06306,1008.227
29.713971138,3.875429,15.00024,8.996527,-0.9358912,-0.2154506,-0.257745,46.27213,-29.48698,11.95106,1008.227
29.746255875,-4.305094,30.84999,9.484053,-0.9751543,-0.1768663,-0.2627588,46.63557,-29.85549,11.95016,1008.225
29.781023025,5.982533,38.12913,1.927405,-0.9766544,-0.1501987,-0.246167,46.63557,-29.85549,11.95016,1008.222
29.813307285,18.93503,44.23422,-5.324539,-0.9621868,-0.1600913,-0.3216709,46.29848,-29.83943,12.88938,1008.22
29.848075390,24.01687,26.32987,-5.568302,-0.977241,-0.1164201,-0.2740131,46.69787,-30.19102,14.19566,1008.22
29.880359650,1.024641,12.65212,-1.302453,-0.9537151,-0.2279283,-0.2118508,46.69787,-30.19102,14.19566,1008.218
29.915126801,6.60227,-3.021518,-0.9368083,-1.015919,-0.2664802,-0.1113807,46.6972,-29.82651,14.19104,1008.217
29.947411537,-10.62641,1.909515,2.841515,-0.9527109,-0.238034,-0.195957,45.98232,-29.08387,14.62857,1008.215
29.979695797,-5.110752,2.731354,1.561761,-0.9664512,-0.1944365,-0.314122,45.98232,-29.08387,14.62857,1008.213
30.014463902,-4.119173,3.611896,1.257057,-0.9634801,-0.210754,-0.2765129,46.35773,-29.44674,15.0634,1008.213
30.046747684,-3.003647,3.49449,0.5867093,-0.9644868,-0.2021247,-0.2996667,46.71986,-29.08621,15.05327,1008.211
30.081515312,-0.5247006,1.146379,-0.388342,-0.9446589,-0.2098764,-0.3190911,46.35708,-29.08222,15.05878,1008.21
30.113800049,-1.082464,-2.786707,1.439879,-0.9422261,-0.2127386,-0.3089604,46.35708,-29.08222,15.05878,1008.214
30.148567677,-0.8965425,-4.430385,1.257057,-0.9591737,-0.1972473,-0.2928823,45.9943,-29.07823,15.0643,1008.212
30.180851460,-0.5866742,-5.663143,0.9523536,-0.9528524,-0.2107662,-0.2891053,46.34575,-29.45237,14.62767,1008.212
30.213136196,-0.09088494,-6.074062,0.4038872,-0.9678779,-0.1914093,-0.2763934,46.34575,-29.45237,14.62767,1008.212
30.247903824,1.458457,-1.260435,-0.9368083,-0.9663631,-0.2087316,-0.2484557,45.6202,-29.44439,14.6387,1008.212
30.280188084,0.3429307,0.4419459,0.03824297,-0.9566991,-0.2160628,-0.278008,46.70985,-30.18539,14.63139,1008.21
30.314955711,-1.144437,-0.4385957,1.196116,-0.9610513,-0.2194971,-0.2881704,46.70985,-30.18539,14.63139,1008.209
30.347239971,-1.516279,-1.436543,1.317998,-0.9620638,-0.1972097,-0.2793396,45.98297,-29.44838,14.63318,1008.209
30.382008076,-1.330358,-1.436543,1.378938,-0.9610785,-0.2049498,-0.2793857,45.99562,-29.80726,15.07353,1008.209
30.414291859,-1.02049,-1.964868,0.6476501,-0.9615692,-0.2010716,-0.2769454,45.99562,-29.80726,15.07353,1008.207
30.446576595,0.2189834,-0.7908124,0.03824297,-0.9581817,-0.2025169,-0.2779278,46.72118,-29.81524,15.0625,1008.207
30.481344223,-0.4627269,-1.730057,0.3429465,-0.9606048,-0.2049894,-0.2914729,45.9843,-30.17741,14.64242,1008.205
30.513628006,0.3429307,-2.551896,0.4038872,-0.9601198,-0.2010723,-0.2783989,45.9843,-30.17741,14.64242,1008.205
30.548396111,-0.2768059,-2.199679,0.7085907,-0.9620488,-0.2005677,-0.2706568,46.70919,-29.82088,14.62677,1008.205
30.580680370,-0.2768059,-1.671354,0.09918367,-0.9601196,-0.1996058,-0.2740396,47.08395,-29.81923,15.05698,1008.203
30.612965107,-0.4007533,-0.9669207,0.03824297,-0.9654252,-0.2039632,-0.2701854,47.08395,-29.81923,15.05698,1008.203
30.647732258,0.9006936,-0.7321096,-0.4492827,-0.9615645,-0.2010519,-0.2711441,47.04866,-30.20065,13.75442,1008.203
30.680016518,-0.3387796,-0.3211902,-0.08363844,-0.9629987,-0.2073406,-0.269243,46.34641,-29.81689,14.63229,1008.203
30.714784622,-0.4007533,-0.1450818,0.4648279,-0.9697905,-0.1996334,-0.2740189,46.34641,-29.81689,14.63229,1008.206
30.747068882,-1.144437,-0.3211902,0.8304722,-0.9625033,-0.211688,-0.267335,46.33443,-29.82252,14.19656,1008.206
30.781836033,-1.268384,-0.3798929,1.50082,-0.9634902,-0.2039544,-0.2692226,46.35773,-29.44674,15.0634,1008.203
30.814120769,-2.507858,0.9115682,1.317998,-0.97076,-0.1937816,-0.2599638,46.70853,-29.45636,14.62215,1008.202
30.846405029,-1.826147,1.38119,0.7695315,-0.9702846,-0.1923481,-0.265758,46.70853,-29.45636,14.62215,1008.202
30.881173134,-0.8965425,0.4419459,0.03824297,-0.9591594,-0.2006086,-0.2851665,45.97231,-30.18305,14.20669,1008.206
30.913456917,-2.074042,0.6180543,0.6476501,-0.9620515,-0.2039994,-0.2837291,46.69787,-30.19102,14.19566,1008.204
30.948224545,-1.392332,1.146379,-0.2664606,-0.9639962,-0.1976959,-0.2783713,46.69787,-30.19102,14.19566,1008.204
30.980509281,-0.6486479,1.850813,-0.388342,-0.9582022,-0.1918509,-0.2720659,46.34774,-30.54592,14.64152,1008.202
31.015276909,-0.7725952,1.028974,0.03824297,-0.9654436,-0.1971981,-0.2730475,46.70853,-29.45636,14.62215,1008.204
31.047560692,-1.330358,0.9702709,0.2210651,-0.9620421,-0.2059155,-0.2779388,46.70853,-29.45636,14.62215,1008.204
31.079845428,-0.9585162,1.028974,0.5867093,-0.9630355,-0.1938102,-0.2749672,46.71052,-30.54991,14.636,1008.204
31.114613056,-0.8345689,1.263785,0.03824297,-0.9654394,-0.1991354,-0.273542,45.98363,-29.8129,14.6378,1008.204
31.146896839,-1.02049,1.146379,0.2820058,-0.9654401,-0.198161,-0.2716027,45.98363,-29.8129,14.6378,1008.202
31.181664944,-0.9585162,0.676757,0.03824297,-0.9606171,-0.1952666,-0.2783648,46.34708,-30.1814,14.6369,1008.208
31.213949204,-0.4007533,0.148432,-0.08363844,-0.9640157,-0.1899579,-0.2797776,46.34641,-29.81689,14.63229,1008.208
31.248717308,-0.3387796,0.5593515,-0.2664606,-0.9673729,-0.2006042,-0.2769302,46.34641,-29.81689,14.63229,1008.208
31.281001091,-0.6486479,0.4419459,0.03824297,-0.9654344,-0.2010695,-0.2730696,47.06065,-30.19501,14.19014,1008.208
31.313285351,-0.2768059,0.2071348,0.03824297,-0.9606099,-0.1991462,-0.280804,46.33443,-29.82252,14.19656,1008.208
31.348053455,-0.5866742,-0.02767628,0.3429465,-0.9611157,-0.1909322,-0.2841403,46.33443,-29.82252,14.19656,1008.208
31.380337715,-0.2148323,-0.1450818,-0.02269774,-0.9644793,-0.1967179,-0.2749806,46.72118,-29.81524,15.0625,1008.208
31.415104866,0.09503604,-0.3211902,-0.02269774,-0.9591664,-0.1942847,-0.2754617,46.33443,-29.82252,14.19656,1008.208
31.447389603,-0.5866742,0.3245404,0.09918367,-0.958199,-0.1962357,-0.2807927,46.33443,-29.82252,14.19656,1008.207
31.479673863,0.03306238,0.2071348,-0.02269774,-0.9649814,-0.1923984,-0.2851072,45.9843,-30.17741,14.64242,1008.208
31.514441967,-0.6486479,0.2071348,0.03824297,-0.9606098,-0.1976796,-0.2764447,46.33443,-29.82252,14.19656,1008.208
31.546725750,-0.1528586,-0.02767628,-0.08363844,-0.9664266,-0.1928684,-0.279789,46.33443,-29.82252,14.19656,1008.208
31.581493378,0.03306238,-0.02767628,-0.08363844,-0.9673927,-0.1918902,-0.2759138,47.08395,-29.81923,15.05698,1008.208
31.613778114,-0.09088494,0.2071348,0.03824297,-0.9693133,-0.1986806,-0.2788489,47.4354,-30.19337,14.62035,1008.207
31.648545742,-0.1528586,0.5006487,0.1601244,-0.9649757,-0.1943292,-0.2836679,46.70919,-29.82088,14.62677,1008.207
31.680829525,0.09503604,0.2658376,0.2210651,-0.9640034,-0.1947939,-0.2788382,46.70919,-29.82088,14.62677,1008.205
31.713114262,-0.02891128,0.3245404,-0.02269774,-0.9635087,-0.1996335,-0.2793503,46.35973,-30.54028,15.07725,1008.205
31.747881889,-0.1528586,0.5006487,0.03824297,-0.967379,-0.1981862,-0.2773999,46.72118,-29.81524,15.0625,1008.205
31.780165672,-0.2148323,0.3245404,0.1601244,-0.9649696,-0.1962583,-0.2817451,46.72118,-29.81524,15.0625,1008.205
31.814933777,-0.1528586,0.2658376,-0.08363844,-0.9606084,-0.1991396,-0.2788703,46.34641,-29.81689,14.63229,1008.205
31.847218037,-0.3387796,0.08972927,0.09918367,-0.9673964,-0.1933715,-0.2846241,46.35973,-30.54028,15.07725,1008.205
31.881986141,0.03306238,0.0310265,-0.08363844,-0.9639989,-0.1967297,-0.2788492,46.35973,-30.54028,15.07725,1008.205
31.914269924,-0.2148323,0.2071348,-0.08363844,-0.9620692,-0.1947884,-0.2788424,46.71052,-30.54991,14.636,1008.205
31.946554184,-0.09088494,0.148432,0.1601244,-0.9596527,-0.1957641,-0.2832041,45.9943,-29.07823,15.0643,1008.205
31.981322289,-0.2768059,0.3832431,0.1601244,-0.9635138,-0.1981883,-0.2812758,45.9943,-29.07823,15.0643,1008.205
32.013606548,-0.2148323,0.0310265,0.1601244,-0.9615809,-0.1986765,-0.2841834,46.71052,-30.54991,14.636,1008.205
32.048373699,-0.2768059,0.08972927,0.09918367,-0.9606241,-0.1938295,-0.2827075,46.69919,-30.92006,14.20489,1008.205
32.080658436,0.09503604,0.2658376,-0.08363844,-0.9644896,-0.1933403,-0.277862,46.69919,-30.92006,14.20489,1008.205
32.112942696,-0.1528586,0.148432,0.2210651,-0.9625459,-0.1967157,-0.2759517,46.71052,-30.54991,14.636,1008.205
32.147710800,-0.2768059,0.0310265,0.2210651,-0.9630378,-0.1933312,-0.2764148,46.34774,-30.54592,14.64152,1008.205
32.179994583,-0.09088494,0.2071348,0.03824297,-0.963532,-0.1899566,-0.2797786,46.34774,-30.54592,14.64152,1008.205
32.214762211,-0.09088494,0.5593515,0.1601244,-0.9630308,-0.1986773,-0.2832134,46.35906,-30.17577,15.07263,1008.205
32.247046948,-0.1528586,0.2658376,-0.08363844,-0.9625522,-0.1967419,-0.2836868,47.0733,-30.5539,14.63049,1008.205
32.281814575,-0.02891128,0.3832431,-0.02269774,-0.9649708,-0.1972409,-0.2861016,47.0733,-30.5539,14.63049,1008.207
32.314098358,-0.09088494,0.2071348,0.03824297,-0.9601493,-0.1904439,-0.2836562,45.9843,-30.17741,14.64242,1008.208
32.346383095,-0.4007533,0.08972927,0.1601244,-0.9644843,-0.1996706,-0.2895006,46.72051,-29.45072,15.05788,1008.207
32.381150723,-0.4007533,0.08972927,0.2210651,-0.9635183,-0.1952749,-0.2783586,46.72051,-29.45072,15.05788,1008.207
32.413435459,0.03306238,-0.08637906,0.09918367,-0.9659367,-0.1982165,-0.2875554,46.34708,-30.1814,14.6369,1008.208
32.448202610,-0.2768059,-0.2037846,0.1601244,-0.9606208,-0.196259,-0.285622,45.99562,-29.80726,15.07353,1008.212
32.480486870,-0.4007533,-0.2624874,0.4038872,-0.9625529,-0.1957675,-0.2817475,45.99562,-29.80726,15.07353,1008.212
32.515254974,-0.2148323,0.148432,0.2820058,-0.9630414,-0.1938348,-0.2822189,46.34708,-30.1814,14.6369,1008.212
32.547539234,-0.1528586,0.08972927,0.3429465,-0.9649916,-0.1865765,-0.2807231,47.05998,-29.8305,14.18553,1008.212
32.579823017,0.09503604,0.2071348,0.2210651,-0.9654492,-0.1977099,-0.2812689,46.33443,-29.82252,14.19656,1008.212
32.614591122,-0.1528586,0.2658376,-0.08363844,-0.9659427,-0.1943319,-0.2836658,46.33443,-29.82252,14.19656,1008.212
32.646875381,0.09503604,0.5006487,-0.2055199,-0.960622,-0.1967528,-0.2885254,46.70985,-30.18539,14.63139,1008.21
32.681643486,-0.09088494,0.2071348,-0.02269774,-0.961587,-0.1962585,-0.284653,46.6972,-29.82651,14.19104,1008.21
32.713927269,-0.1528586,0.2658376,-0.08363844,-0.9635273,-0.193846,-0.2851186,46.6972,-29.82651,14.19104,1008.21
32.748694897,-0.09088494,0.2658376,0.03824297,-0.9649668,-0.1972246,-0.2812672,46.72184,-30.17976,15.06711,1008.21
32.780979633,-0.2768059,0.148432,0.09918367,-0.9611031,-0.1957666,-0.2827175,46.70853,-29.45636,14.62215,1008.21
32.813263416,-0.09088494,-0.02767628,0.2210651,-0.960625,-0.1952993,-0.2880337,46.70853,-29.45636,14.62215,1008.212
32.848031044,-0.1528586,0.0310265,0.2820058,-0.9625514,-0.1972275,-0.284173,47.07263,-30.18938,14.62587,1008.21
32.880315781,-0.3387796,0.0310265,0.2820058,-0.9659451,-0.1938529,-0.2851134,47.07197,-29.82487,14.62125,1008.209
32.915083408,-0.09088494,-0.02767628,0.09918367,-0.9601449,-0.194335,-0.2894796,47.07197,-29.82487,14.62125,1008.209
32.947367191,-0.02891128,0.08972927,-0.02269774,-0.9644876,-0.1967523,-0.2851331,47.08462,-30.18375,15.0616,1008.209
32.979651928,-0.09088494,0.0310265,-0.02269774,-0.9596596,-0.1918829,-0.2802814,46.6972,-29.82651,14.19104,1008.209
33.014419556,-0.1528586,0.08972927,-0.08363844,-0.9630349,-0.1962512,-0.2812658,46.6972,-29.82651,14.19104,1008.209
33.046704292,0.03306238,0.0310265,0.09918367,-0.9664372,-0.191935,-0.2899358,46.72184,-30.17976,15.06711,1008.209
33.081471443,-0.02891128,0.148432,0.03824297,-0.959657,-0.1943156,-0.2841627,47.08395,-29.81923,15.05698,1008.209
33.113755703,-0.4007533,0.2071348,0.1601244,-0.9635211,-0.1952863,-0.2817427,47.08395,-29.81923,15.05698,1008.207
33.148523808,-0.02891128,0.148432,-0.08363844,-0.9615712,-0.2015686,-0.2808158,46.34708,-30.1814,14.6369,1008.209
33.180808067,-0.02891128,0.2658376,0.09918367,-0.9644938,-0.1943343,-0.2856027,46.33443,-29.82252,14.19656,1008.207
33.213092327,-0.09088494,0.2658376,-0.02269774,-0.9683674,-0.1919241,-0.2850972,46.33443,-29.82252,14.19656,1008.207
33.247859955,-0.2148323,0.2658376,0.09918367,-0.9659382,-0.1962676,-0.2836768,47.08462,-30.18375,15.0616,1008.207
33.280144692,-0.02891128,0.3832431,0.09918367,-0.9664258,-0.193354,-0.2802751,46.3584,-29.81125,15.06801,1008.207
33.314912319,-0.02891128,0.2071348,-0.1445791,-0.9601464,-0.1933639,-0.2885072,46.3584,-29.81125,15.06801,1008.209
33.347196102,-0.1528586,-0.02767628,0.03824297,-0.9630397,-0.1967597,-0.2885203,46.72184,-30.17976,15.06711,1008.209
33.381963730,-0.09088494,0.08972927,0.03824297,-0.9645004,-0.1899642,-0.2812269,46.71052,-30.54991,14.636,1008.209
33.414248467,0.2189834,0.08972927,-0.2664606,-0.9606218,-0.1952862,-0.2841661,45.99562,-29.80726,15.07353,1008.209
33.446533203,-0.09088494,-0.02767628,0.09918367,-0.9654584,-0.1948161,-0.284153,45.99562,-29.80726,15.07353,1008.209
33.481300354,-0.09088494,0.3832431,-0.08363844,-0.9557865,-0.1957612,-0.2856296,46.35906,-30.17577,15.07263,1008.209
33.513584614,-0.09088494,0.08972927,-0.1445791,-0.9606361,-0.1914361,-0.2904289,46.70853,-29.45636,14.62215,1008.209
33.548352242,0.2189834,0.0310265,-0.2055199,-0.9557876,-0.1952773,-0.2856268,46.70853,-29.45636,14.62215,1008.207
33.580636978,-0.02891128,0.08972927,-0.08363844,-0.9635193,-0.1977223,-0.286591,46.6972,-29.82651,14.19104,1008.207
33.612920761,-0.2148323,0.2071348,0.09918367,-0.9644886,-0.1948019,-0.280771,46.34774,-30.54592,14.64152,1008.207
33.647688866,0.2189834,0.4419459,-0.388342,-0.9649562,-0.202556,-0.2837147,46.34774,-30.54592,14.64152,1008.207
33.679973125,-0.2148323,0.4419459,0.2210651,-0.9601441,-0.1948206,-0.2899658,46.72184,-30.17976,15.06711,1008.207
33.714740753,-0.3387796,0.3832431,0.4038872,-0.9601344,-0.1972238,-0.2851451,46.35906,-30.17577,15.07263,1008.207
33.747025013,-0.02891128,0.4419459,-0.1445791,-0.9654757,-0.1885349,-0.2870179,46.35906,-30.17577,15.07263,1008.207
33.781792641,0.280957,0.3245404,-0.08363844,-0.9611043,-0.1957715,-0.2841679,46.70919,-29.82088,14.62677,1008.207
33.814077377,0.09503604,-0.08637906,0.1601244,-0.9601437,-0.1938412,-0.2865762,46.72118,-29.81524,15.0625,1008.207
33.846361160,0.09503604,-0.4972985,0.09918367,-0.9615774,-0.1996394,-0.2827385,46.72118,-29.81524,15.0625,1008.211
33.881128788,0.09503604,-0.4385957,0.1601244,-0.9625655,-0.1909331,-0.2831703,47.07263,-30.18938,14.62587,1008.207
33.913413525,0.2189834,-0.6147041,0.1601244,-0.964004,-0.1972398,-0.2865872,45.62152,-30.17343,14.64793,1008.207
33.948181152,0.09503604,-0.6147041,-0.02269774,-0.9644917,-0.1938373,-0.2817324,45.62152,-30.17343,14.64793,1008.211
33.980465889,-0.02891128,-0.6147041,0.03824297,-0.9659327,-0.1977112,-0.2812679,47.08395,-29.81923,15.05698,1008.207
34.015233040,-0.3387796,-0.4385957,-0.02269774,-0.9601467,-0.191899,-0.2846313,45.98363,-29.8129,14.6378,1008.205
34.047517300,-0.4627269,0.08972927,0.09918367,-0.9601455,-0.1923829,-0.2846341,45.98363,-29.8129,14.6378,1008.207
34.079802036,0.09503604,-0.2037846,-0.2055199,-0.964501,-0.1919212,-0.2875227,46.70853,-29.45636,14.62215,1008.207
34.114569664,0.1570097,-0.4972985,0.09918367,-0.9625484,-0.1991697,-0.2861179,46.34708,-30.1814,14.6369,1008.205
34.146853447,-0.2148323,0.08972927,0.3429465,-0.9620595,-0.1967028,-0.2725686,46.34708,-30.1814,14.6369,1008.204
34.181621552,-0.09088494,1.087677,-0.08363844,-0.964018,-0.1899678,-0.2826783,46.72118,-29.81524,15.0625,1008.204
34.213905811,0.1570097,0.9702709,-0.1445791,-0.9669198,-0.1904665,-0.2846086,46.69853,-30.55554,14.20028,1008.206
34.248673916,-0.6486479,-0.2037846,0.4648279,-0.9649863,-0.1938845,-0.2952679,47.09727,-30.54263,15.50194,1008.208
34.280957699,0.03306238,-1.495246,-0.1445791,-0.9630384,-0.1952882,-0.2827106,47.09727,-30.54263,15.50194,1008.208
34.313241959,-0.09088494,-1.025624,-0.08363844,-0.9616024,-0.1870376,-0.2768655,47.44805,-30.55225,15.0607,1008.206
34.348010063,0.03306238,1.146379,0.1601244,-0.9644846,-0.1938078,-0.2730303,45.98496,-30.54193,14.64703,1008.208
34.380294323,0.09503604,0.8528654,0.09918367,-0.9645057,-0.1914521,-0.291871,45.98496,-30.54193,14.64703,1008.208
34.415061474,0.1570097,-0.2624874,-0.1445791,-0.9630324,-0.1996616,-0.2880533,46.70985,-30.18539,14.63139,1008.208
34.447346211,-0.2148323,0.08972927,0.1601244,-0.9640014,-0.198206,-0.2861092,45.98363,-29.8129,14.6378,1008.208
34.479630470,-0.1528586,-0.02767628,0.03824297,-0.9635326,-0.1914247,-0.2846214,45.98363,-29.8129,14.6378,1008.208
34.514398575,0.03306238,0.2658376,-0.2055199,-0.964484,-0.1972264,-0.2822351,47.07263,-30.18938,14.62587,1008.208
34.546682358,0.03306238,0.4419459,-0.3274013,-0.9630412,-0.1962774,-0.2890009,46.70985,-30.18539,14.63139,1008.209
34.581449986,-0.2148323,-0.3211902,0.1601244,-0.9630433,-0.1923765,-0.2802769,46.70985,-30.18539,14.63139,1008.209
34.613734722,0.280957,0.08972927,0.03824297,-0.9611068,-0.1928499,-0.2788334,46.34708,-30.1814,14.6369,1008.209
34.648502350,-0.2148323,0.2658376,0.1601244,-0.9620771,-0.1948212,-0.2885113,47.07263,-30.18938,14.62587,1008.208
34.680786133,-0.02891128,0.148432,0.1601244,-0.9659427,-0.1948208,-0.2851189,47.07263,-30.18938,14.62587,1008.208
34.713070869,-0.02891128,-0.3211902,0.3429465,-0.965957,-0.1904818,-0.2899286,47.08462,-30.18375,15.0616,1008.208
34.747838497,-0.1528586,-0.4385957,-0.08363844,-0.9601489,-0.1899534,-0.2817196,47.07263,-30.18938,14.62587,1008.208
34.780123234,-0.2148323,-0.2037846,-0.1445791,-0.9640053,-0.1933356,-0.2768962,47.07263,-30.18938,14.62587,1008.208
34.814890385,-0.02891128,0.4419459,-0.08363844,-0.9649681,-0.1977183,-0.2841706,46.70985,-30.18539,14.63139,1008.206
34.847174644,0.1570097,0.5006487,-0.2055199,-0.9635254,-0.1943267,-0.2841544,46.72184,-30.17976,15.06711,1008.206
34.881942749,-0.2148323,0.08972927,0.03824297,-0.9611074,-0.1952958,-0.2865824,46.72184,-30.17976,15.06711,1008.206
34.914227009,-0.3387796,-0.02767628,0.4038872,-0.9664243,-0.1943251,-0.2812476,45.99695,-30.53629,15.08276,1008.206
34.946510792,0.03306238,0.3832431,-0.02269774,-0.9640129,-0.1904353,-0.2778465,47.05932,-29.46598,14.18091,1008.206
34.981278896,0.03306238,0.6180543,-0.1445791,-0.9630358,-0.1972321,-0.2851389,47.05932,-29.46598,14.18091,1008.208
35.013563156,0.09503604,0.4419459,0.03824297,-0.962072,-0.1952887,-0.2836796,47.07263,-30.18938,14.62587,1008.208
35.048331261,-0.1528586,0.3245404,0.03824297,-0.9640198,-0.1914408,-0.2889713,47.42342,-30.199,14.18463,1008.208
35.080615044,-0.2768059,0.6180543,0.1601244,-0.9659467,-0.1943483,-0.2885003,47.42342,-30.199,14.18463,1008.208
35.112899303,-0.4627269,0.5006487,0.2820058,-0.963023,-0.2006,-0.2793568,46.70853,-29.45636,14.62215,1008.208
35.147667408,-0.4007533,0.3832431,0.2210651,-0.9625641,-0.1928819,-0.2870489,46.71052,-30.54991,14.636,1008.21
35.179951191,0.1570097,-0.08637906,-0.1445791,-0.9640207,-0.1890015,-0.2831562,46.34641,-29.81689,14.63229,1008.208
35.214718819,-1.081843,1.263193,0.03829062,-0.9378752,-0.2107758,-0.3046077,46.34641,-29.81689,14.63229,1008.208
35.247003555,-0.9549428,0.4977809,0.2206893,-0.9605997,-0.1995924,-0.2696875,46.72118,-29.81524,15.0625,1008.208
35.281771183,-0.6413881,0.4957249,-0.08460026,-0.9640131,-0.1919018,-0.2822058,46.37105,-30.17013,15.50836,1008.208
