Time (s),Gyroscope X (deg/s),Gyroscope Y (deg/s),Gyroscope Z (deg/s),Accelerometer X (g),Accelerometer Y (g),Accelerometer Z (g),Magnetometer X (uT),Magnetometer Y (uT),Magnetometer Z (uT),Barometer (hPa)
0.006211758,0.9053527,0.001612922,0.1095327,0.02986398,-0.9985734,0.1119627,10.34374,31.55227,-21.77108,1007.883
0.038383484,1.458226,0.06079794,0.2321067,0.02543974,-0.9956794,0.1067259,10.34374,31.55227,-21.77108,1007.881
0.073029995,1.028214,-0.1167571,-0.1356154,0.03182201,-1.000995,0.1138525,10.34374,31.55227,-21.77108,1007.881
0.105202675,1.458226,0.001612922,-0.01304135,0.03471513,-0.9995909,0.1090171,9.583167,31.93927,-22.1516,1007.883
0.139849186,2.748265,0.001612922,0.2321067,0.02507538,-0.9892783,0.11835,10.33905,31.92853,-22.15546,1007.881
0.172020912,0.1681878,0.119983,0.04824567,0.02314,-0.993122,0.1221924,10.33905,31.92853,-22.15546,1007.879
0.206667423,-2.227598,0.06079794,-0.07432837,0.02984782,-1.000522,0.1109828,10.33879,31.5474,-22.1536,1007.879
0.238840103,0.7210615,-0.1167571,-0.07432837,0.03220649,-1.00351,0.1027422,10.71699,31.92316,-22.1574,1007.877
0.273486614,3.362569,-0.05757209,0.2321067,0.02744648,-0.99709,0.1139255,10.71699,31.92316,-22.1574,1007.877
0.305658340,2.686835,0.001612922,0.2321067,0.02802963,-0.9916868,0.1226406,10.33905,31.92853,-22.15546,1007.877
0.340305805,-0.0775339,-0.1167571,0.1708197,0.02213581,-0.9960442,0.1202497,10.71647,31.16089,-22.15368,1007.877
0.372477531,-0.9375597,0.179168,-0.01304135,0.02700125,-0.9984995,0.119702,10.71647,31.16089,-22.15368,1007.875
0.407124042,0.4139094,0.06079794,-0.01304135,0.02747095,-0.999002,0.1177655,9.961108,31.9339,-22.15353,1007.88
0.439296245,0.5982007,-0.4126822,-0.1356154,0.02894876,-0.9936775,0.1168316,9.955588,32.30935,-22.60167,1007.88
0.473943233,-0.7532685,0.06079794,0.1708197,0.02941244,-0.9956363,0.1148831,10.33879,31.5474,-22.1536,1007.878
0.506114960,-1.429003,-0.05757209,0.1095327,0.03039642,-0.9946668,0.1153639,10.33879,31.5474,-22.1536,1007.876
0.538287163,-0.384686,-0.2351271,0.1095327,0.02702347,-0.9960614,0.1211679,10.71673,31.54203,-22.15554,1007.874
0.572934151,-0.3232556,-0.2351271,-0.01304135,0.02650512,-0.9975373,0.1182686,9.960593,31.17163,-22.14981,1007.872
0.605106354,-0.8761293,-0.05757209,-0.01304135,0.02307711,-0.9946299,0.1154325,9.960593,31.17163,-22.14981,1007.872
0.639752865,-1.244712,-0.1167571,0.1708197,0.02602926,-0.9955896,0.1187711,9.965547,31.1765,-21.76728,1007.872
0.671924591,-0.8146988,-0.1167571,0.1095327,0.02886404,-1.00536,0.1123981,9.965547,31.1765,-21.76728,1007.871
0.706571579,-1.367573,-0.05757209,-0.01304135,0.03236469,-0.9985302,0.1191697,9.965547,31.1765,-21.76728,1007.871
0.738743782,-1.981877,-0.1759421,0.1708197,0.03329571,-0.9947074,0.1119626,11.08915,31.91211,-22.60561,1007.871
0.773390293,-0.5689772,-0.1167571,0.04824567,0.02495796,-0.9971221,0.1081645,10.33879,31.5474,-22.1536,1007.871
0.805562019,-1.121851,-0.2943121,0.1095327,0.0249863,-0.9951621,0.1105904,10.33879,31.5474,-22.1536,1007.871
0.840209484,-0.6304076,-0.05757209,0.1095327,0.03175515,-1.004441,0.1075587,10.33905,31.92853,-22.15546,1007.869
0.872381210,-0.3232556,-0.1759421,0.2321067,0.02258098,-0.9936677,0.1139991,10.33905,31.92853,-22.15546,1007.869
0.907027721,-2.41189,0.001612922,0.04824567,0.0259926,-0.9936886,0.1134851,10.33905,31.92853,-22.15546,1007.869
0.939200401,-2.53475,-0.05757209,-0.07432837,0.02784109,-0.9991117,0.1037832,10.344,31.9334,-21.77294,1007.869
0.973846912,-0.3232556,0.001612922,0.1708197,0.03174473,-0.9991313,0.1037466,9.960851,31.55276,-22.15167,1007.873
1.006018639,0.8439223,0.001612922,0.1095327,0.02543773,-0.9961649,0.1067219,9.960851,31.55276,-22.15167,1007.873
1.038190365,1.273935,-0.1759421,0.1095327,0.02400221,-0.9941974,0.1091615,9.961108,31.9339,-22.15353,1007.873
1.072837829,-0.2003947,-0.1167571,-0.01304135,0.02301426,-0.9971049,0.1091467,9.965804,31.55764,-21.76914,1007.873
1.105009556,-1.429003,-0.05757209,0.1095327,0.02643014,-1.00099,0.1110108,9.965804,31.55764,-21.76914,1007.873
1.139656067,-1.613294,-0.05757209,-0.07432837,0.02351015,-0.9932316,0.10821,10.71673,31.54203,-22.15554,1007.873
1.171828747,-0.5689772,-0.1759421,0.1095327,0.02641354,-0.9942356,0.1057647,9.965804,31.55764,-21.76914,1007.873
1.206475258,0.8439223,-0.1167571,0.04824567,0.02889585,-0.9917914,0.1096177,9.965804,31.55764,-21.76914,1007.871
1.238646984,-0.384686,-0.05757209,0.04824567,0.02746664,-0.9941703,0.1149134,9.960851,31.55276,-22.15167,1007.873
1.273294449,-1.674725,0.06079794,0.04824567,0.03030112,-0.9981384,0.1056962,10.71673,31.54203,-22.15554,1007.872
1.305466175,-0.5075468,0.001612922,0.2321067,0.02490132,-1.002009,0.1037867,10.71673,31.54203,-22.15554,1007.87
1.340112686,0.7824919,-0.1759421,0.2933938,0.02731878,-1.002526,0.1013499,10.34426,32.31454,-21.7748,1007.87
1.372284889,0.5982007,-0.1759421,0.04824567,0.02934328,-0.9937649,0.1057412,10.344,31.9334,-21.77294,1007.87
1.406931877,-0.5689772,-0.1167571,0.04824567,0.02450431,-0.9927364,0.1101329,10.344,31.9334,-21.77294,1007.87
1.439103603,-1.306142,0.001612922,0.04824567,0.02594179,-0.9932513,0.1072232,9.965804,31.55764,-21.76914,1007.87
1.473750114,-0.7532685,-0.2351271,0.1095327,0.02587102,-0.999602,0.1018695,10.72194,31.92803,-21.77487,1007.87
1.505922794,-0.5689772,0.06079794,0.1095327,0.0229615,-0.99812,0.1033549,9.966319,32.3199,-21.77287,1007.87
1.540569305,0.7210615,-0.2943121,0.1708197,0.02294726,-0.9976494,0.1014309,9.966319,32.3199,-21.77287,1007.87
1.572741032,0.04532692,-0.2943121,-0.1969024,0.0259135,-0.9961784,0.1052713,10.33879,31.5474,-22.1536,1007.868
1.604913235,2.441113,0.119983,0.2321067,0.03657968,-1.001131,0.09934698,10.344,31.9334,-21.77294,1007.868
1.639560223,1.273935,0.119983,-0.01304135,0.02351827,-0.9932242,0.109174,10.344,31.9334,-21.77294,1007.868
1.671732426,-0.9989902,0.119983,-0.1356154,0.02782885,-0.9981557,0.1018632,9.966062,31.93877,-21.771,1007.866
1.706378937,0.1681878,0.119983,-0.07432837,0.03320864,-1.000106,0.1042069,9.961108,31.9339,-22.15353,1007.866
1.738551140,1.826809,0.06079794,0.2321067,0.02925253,-1.006904,0.1012958,9.961108,31.9339,-22.15353,1007.866
1.773197651,3.854012,-0.1167571,0.2321067,0.02693811,-0.9951719,0.1105721,10.34374,31.55227,-21.77108,1007.866
1.805369854,2.748265,-0.05757209,0.3546808,0.0211576,-0.9907222,0.1174107,9.955073,31.54708,-22.59795,1007.866
1.840016842,-0.5075468,0.119983,0.04824567,0.02400623,-0.9932266,0.1091695,9.955073,31.54708,-22.59795,1007.865
1.872189045,1.028214,0.06079794,0.1708197,0.01949144,-1.00734,0.1013832,10.71121,31.91747,-22.60368,1007.866
1.906835556,3.608291,0.001612922,-0.1356154,0.02350016,-0.9966257,0.1086642,10.33879,31.5474,-22.1536,1007.866
1.939007282,2.379683,-0.05757209,-0.01304135,0.02412585,-0.9887657,0.1212551,10.33879,31.5474,-22.1536,1007.87
1.973654270,0.2296182,-0.1759421,0.1095327,0.02992051,-0.991752,0.1153924,9.583425,32.3204,-22.15346,1007.869
2.005826473,0.7210615,0.238353,0.2933938,0.02983378,-1.00392,0.1109549,10.33276,31.16058,-22.59802,1007.869
2.040472984,1.94967,0.119983,0.3546808,0.02790007,-1.000509,0.1114831,10.33276,31.16058,-22.59802,1007.869
2.072645664,2.625404,0.06079794,0.2933938,0.02550699,-0.9999704,0.1168118,10.71673,31.54203,-22.15554,1007.869
2.104817390,1.703948,0.06079794,0.2321067,0.02457944,-0.9921845,0.1188127,10.71673,31.54203,-22.15554,1007.87
2.139463901,0.5982007,0.001612922,-0.01304135,0.02647458,-0.9961144,0.1139426,10.71673,31.54203,-22.15554,1007.869
2.171635628,0.2910486,-0.05757209,-0.01304135,0.03185226,-0.9966158,0.1153343,10.344,31.9334,-21.77294,1007.87
2.206283092,0.4139094,-0.1759421,0.04824567,0.0221013,-0.9965591,0.1163897,10.33853,31.16626,-22.15174,1007.869
2.238454819,0.352479,0.119983,-0.1356154,0.02989427,-0.9951608,0.1139186,10.33853,31.16626,-22.15174,1007.869
2.273101330,0.4139094,-0.05757209,0.1708197,0.02795479,-0.9980412,0.1168049,9.955073,31.54708,-22.59795,1007.867
2.305274010,0.659631,-0.05757209,0.04824567,0.0270012,-0.9975324,0.119228,10.71647,31.16089,-22.15368,1007.865
2.339920521,-0.0775339,-0.05757209,-0.01304135,0.02898542,-0.9955784,0.1221176,10.71647,31.16089,-22.15368,1007.865
2.372092247,1.519657,0.001612922,0.2321067,0.02599896,-0.9990021,0.1168152,10.33301,31.54171,-22.59988,1007.869
2.406739712,0.1067573,-0.1167571,0.1095327,0.02271465,-0.9858091,0.1261126,10.33327,31.92284,-22.60175,1007.869
2.438911438,-4.070511,0.001612922,-0.01304135,0.02504116,-0.9955957,0.1173343,10.33327,31.92284,-22.60175,1007.869
2.473557949,-4.193372,0.001612922,-0.3194765,0.02880325,-1.008317,0.1065903,10.33905,31.92853,-22.15546,1007.867
2.505730629,-0.9375597,-1.063717,-1.422643,0.01964733,-0.9970433,0.1149627,10.71699,31.92316,-22.1574,1007.867
2.540377140,-25.20257,0.475093,-3.996698,0.03583428,-0.9569862,0.2216637,9.965804,31.55764,-21.76914,1007.867
2.572548866,-67.89671,-3.253563,-8.28679,0.01195756,-0.9273379,0.211527,9.965804,31.55764,-21.76914,1007.867
2.607196331,-138.296,-7.751624,-18.21529,0.02597936,-0.8612401,0.1059012,10.35004,32.32022,-21.32852,1007.867
2.639368057,-220.9813,-6.627109,-33.96605,0.06296201,-0.9102482,-0.05728178,10.02405,33.51934,-17.3794,1007.867
2.671539783,-325.5359,-11.53946,-65.89659,0.1514637,-0.988754,-0.1729887,10.02405,33.51934,-17.3794,1007.866
2.738358974,-275.5315,6.630334,-93.04675,0.08498345,-1.114774,-0.8226606,7.631919,38.75773,1.927526,1007.87
2.773005485,-215.1454,11.01003,-102.914,0.1591416,-0.8130766,-0.7384434,7.631919,38.75773,1.927526,1007.868
2.805177212,-233.0217,19.29593,-94.57892,0.2444189,-0.6830852,-0.7579294,4.344684,38.15667,10.81051,1007.868
2.839824676,-146.4662,25.51035,-84.03755,0.2424348,-0.6879404,-0.7593969,0.6603212,36.01857,18.30028,1007.868
2.871996403,-56.22493,15.09379,-84.95686,0.2412965,-0.5170118,-0.6871232,0.6603212,36.01857,18.30028,1007.866
2.906642914,-39.02442,1.717978,-83.42468,0.3023266,-0.3412676,-0.7686658,-2.691758,33.4493,22.28348,1007.866
2.938815117,-59.54218,1.658793,-76.31538,0.4604373,-0.2888598,-0.7942911,-5.69345,31.60932,24.09337,1007.865
2.973462105,-80.48994,18.64489,-73.25104,0.3083003,-0.3333777,-0.8746964,-5.69345,31.60932,24.09337,1007.865
3.005633831,-71.15252,4.795599,-82.99567,0.2976536,-0.3017741,-0.9374784,-8.690187,29.77421,26.2858,1007.863
3.040280342,-66.23808,12.78558,-87.65349,0.3916772,-0.229814,-1.049587,-11.69214,27.5531,28.09755,1007.863
3.072453022,-56.77781,26.69406,-85.38586,0.3934774,-0.203849,-1.080237,-11.69214,27.5531,28.09755,1007.863
3.107099533,-46.4575,40.12905,-86.30517,0.4443344,-0.1667702,-1.085708,-13.9445,24.5533,29.46289,1007.859
3.139271736,-22.56106,49.12517,-85.63101,0.4853885,-0.1040529,-1.10871,-17.78291,21.94563,29.94186,1007.857
3.173918724,-32.14421,57.47026,-87.34705,0.4878933,-0.01953092,-0.9094527,-17.78291,21.94563,29.94186,1007.857
3.206090450,-41.05162,44.50874,-86.06002,0.5786373,0.05402078,-1.006093,-20.43606,19.30959,29.52214,1007.857
3.238262653,0.1067573,56.87841,-67.42876,0.6529279,0.2529504,-1.030692,-24.22856,17.0651,28.66008,1007.856
3.272909641,9.689902,79.60545,-50.63612,0.5510918,0.3382597,-1.111461,-24.22856,17.0651,28.66008,1007.854
3.305081367,26.46041,67.65008,-25.14072,0.6565288,0.4920222,-1.182513,-27.26569,14.04761,27.79787,1007.854
3.339727878,-29.62556,122.1595,2.43844,0.6884166,0.442656,-1.080552,-29.56325,12.52687,25.58552,1007.854
3.371900081,-52.90769,127.6045,19.10851,0.5781317,0.3146135,-1.07624,-29.56325,12.52687,25.58552,1007.852
3.406547069,-47.50182,137.3109,28.48543,0.7749777,0.2519449,-1.082449,-32.62009,13.29878,22.98334,1007.851
3.438719272,-5.729132,149.9764,35.65601,0.7955508,0.1377911,-1.018031,-34.93942,12.51838,19.04589,1007.847
3.473366260,58.95709,161.6359,41.41698,0.7585241,0.03841548,-0.9625922,-34.93942,12.51838,19.04589,1007.845
3.505537987,94.77103,176.9056,44.48133,0.779506,0.1224505,-1.003547,-36.89159,12.86463,14.20837,1007.846
3.540184498,100.3612,208.3921,62.6223,0.5876234,0.4655288,-0.9488004,-38.86033,14.33723,8.026417,1007.846
3.572356701,12.94571,229.9946,80.0891,0.4434918,0.6307963,-0.7585953,-38.86033,14.33723,8.026417,1007.842
3.607003689,-23.48252,261.4218,123.1739,0.4418488,0.5592595,-1.035837,-39.33934,16.14756,0.1135063,1007.841
3.639175892,-3.026194,356.7689,185.0125,0.2558504,0.6875924,-0.8156621,-38.6835,19.46632,-7.812651,1007.837
3.673822403,-57.63783,457.0283,244.7061,-0.198799,0.6102091,-0.7580737,-33.88766,22.70898,-17.09892,1007.833
3.705994606,-575.0662,-490.7606,-312.2704,4.166259,-4.251492,-9.054085,-33.88766,22.70898,-17.09892,1007.833
3.738166809,-327.6245,417.1376,-312.8833,2.060959,1.861037,0.7648746,-21.76744,28.27611,-15.46735,1007.832
3.772813320,494.5602,444.0076,130.6509,-1.327324,3.085985,2.719163,-26.12411,18.99793,-30.31994,1007.832
3.804985523,-514.7415,129.0249,30.0176,-0.1726362,0.7982346,0.2906171,-26.12411,18.99793,-30.31994,1007.83
3.839632511,-229.5816,88.77913,101.1105,-0.2813413,-0.1440774,0.7610424,-14.78849,14.58179,-35.20314,1007.834
3.871804237,-413.8728,-4.259708,119.6192,0.5681887,-1.64359,0.7797953,-9.392217,26.03646,-27.76302,1007.834
3.906451225,188.6981,-47.58314,16.16673,-0.1621179,-1.537951,1.105118,-9.392217,26.03646,-27.76302,1007.832
3.938623428,167.0132,-39.35642,-13.49619,-0.4958178,-0.9395267,0.8846978,-6.294786,34.06473,-22.52596,1007.83
3.973269939,120.0804,-85.81666,-13.98648,0.2030241,-0.4370808,1.283343,-6.352513,32.86529,-26.91943,1007.829
4.005441666,102.5727,-126.0625,-0.6259116,0.2357605,-0.3625123,0.9033543,-6.352513,32.86529,-26.91943,1007.829
4.040088653,112.9544,-147.9609,-10.06411,-0.07366096,-0.1109258,0.6620139,-8.267896,29.05806,-28.67627,1007.833
4.072260856,53.18263,-208.2113,-12.27045,-0.03091318,-0.02126116,0.4208725,-12.08242,27.17278,-31.26156,1007.833
4.106907844,-1.797585,-247.0958,15.67644,0.4300055,-0.1448805,0.04489496,-12.08242,27.17278,-31.26156,1007.833
4.139080047,19.94878,-215.9645,49.81331,0.840508,-0.3498528,0.03889275,-16.6489,24.22232,-28.60922,1007.833
4.173726558,53.42835,-245.3794,54.28726,1.059517,-0.4528784,-0.2141579,-22.6558,25.10947,-25.52179,1007.833
4.205898285,128.0663,-210.046,107.4231,1.330441,-0.435248,-0.2710065,-22.6558,25.10947,-25.52179,1007.833
4.240545273,88.62799,-86.52688,158.9042,1.181902,-0.6281109,-0.1998745,-26.37272,24.84374,-20.65525,1007.833
4.272717476,116.886,-95.34545,157.1269,0.879877,-0.6744066,-0.229732,-27.87241,25.63885,-19.75868,1007.833
4.304889202,94.15672,-64.56924,142.9696,0.5430682,-0.6935745,-0.2889252,-27.87241,25.63885,-19.75868,1007.833
4.339536667,111.173,-94.81278,122.3771,0.572187,-0.6289559,-0.5137579,-25.23659,28.25784,-20.6778,1007.837
4.371708393,133.595,-43.381,137.515,0.6730381,-0.512695,-0.4154126,-22.59602,29.35797,-21.1432,1007.839
4.406354904,79.72058,-10.71087,157.5559,0.9839602,-0.7043676,-0.08249432,-22.59602,29.35797,-21.1432,1007.839
4.438527584,47.03959,18.88163,168.1586,0.8178591,-0.8787993,0.03859941,-21.11784,29.68434,-23.76673,1007.839
4.473174095,2.563974,36.51876,176.371,0.4588651,-0.9470905,0.2669619,-16.2217,29.97862,-25.13257,1007.839
4.505345821,-21.08673,29.41656,160.6815,0.05330764,-1.046136,0.2535417,-16.2217,29.97862,-25.13257,1007.84
4.539992809,47.77676,9.944695,155.656,0.1063293,-1.164433,0.1161479,-10.49411,31.79718,-25.61749,1007.842
4.572165012,147.0483,10.35899,140.3955,0.07763307,-1.054508,0.1905858,-3.684649,32.84964,-25.2116,1007.842
4.606811523,163.9417,13.55498,131.3863,0.1034798,-0.9335003,0.4786139,-3.684649,32.84964,-25.2116,1007.842
4.638984203,134.3322,20.47963,120.1708,-0.01206342,-0.8697012,0.8099056,1.932494,31.57536,-29.18779,1007.844
4.673630714,-46.64179,17.16527,75.49257,-0.01548458,-1.947232,2.318871,6.052646,26.52827,-31.79881,1007.846
4.705802441,29.83908,-36.2788,-27.71478,-0.1598464,-1.318722,-0.29957,6.052646,26.52827,-31.79881,1007.851
4.740449428,64.36298,4.618044,-35.74338,0.2127478,-0.6598612,0.2827124,9.089326,21.54683,-30.515,1007.851
4.772621632,-19.12096,-0.4718672,-0.6871986,-0.04599508,-0.5778421,0.1146931,8.336534,26.13117,-30.53346,1007.847
4.804793358,-6.097714,2.487383,8.81229,0.2655364,-0.9809484,0.1576269,8.336534,26.13117,-30.53346,1007.847
4.839440823,28.11903,12.07536,37.49462,-0.001215711,-1.150828,0.552509,7.969636,25.38564,-29.63524,1007.851
4.871612549,21.42311,0.9485732,-9.206095,-0.0974528,-1.211633,0.2212901,8.336019,25.3689,-30.52974,1007.851
4.906259060,30.76053,0.415908,-5.467587,0.1341865,-0.6223056,0.3816009,9.84752,24.96629,-30.53561,1007.853
4.938431740,11.96283,9.64877,3.357745,0.009149587,-0.9422796,0.3492818,9.84752,24.96629,-30.53561,1007.853
4.973078251,41.57228,3.730269,3.970615,0.06589363,-0.9743894,0.4391035,9.084834,23.44681,-30.97058,1007.853
5.005249977,25.47752,5.032339,2.744875,0.01873449,-0.8976275,0.4811464,9.079881,23.44194,-31.35311,1007.855
5.039897442,4.775469,4.322119,1.335273,0.057962,-0.8222136,0.466942,9.079881,23.44194,-31.35311,1007.855
5.072069168,1.888239,5.387449,3.296458,0.02009572,-0.9083294,0.4159755,9.451528,22.66862,-31.7976,1007.857
5.106715679,22.03742,4.440489,1.273986,0.03364454,-0.9457366,0.4203607,10.58509,22.27138,-31.80154,1007.857
5.138888359,22.83601,5.446634,-0.9936337,0.02655419,-0.8623549,0.4654582,10.58509,22.27138,-31.80154,1007.857
5.173534870,20.68595,2.250643,-4.486994,0.03264092,-0.9283857,0.4667851,9.817397,21.88961,-32.68838,1007.857
5.205706596,36.3507,4.381304,-4.97729,0.05461057,-0.9506926,0.4206062,10.1893,21.49743,-33.13473,1007.857
5.240353584,53.42835,3.375159,-11.16728,0.07304747,-0.8929284,0.4961023,10.1893,21.49743,-33.13473,1007.858
5.272525787,39.23793,5.209894,-15.08965,0.08249112,-0.8585222,0.5579938,10.17749,21.10493,-34.02543,1007.858
5.307172298,22.46743,6.09767,-20.48291,0.07545163,-0.8084232,0.5671484,10.54862,19.56934,-34.4662,1007.86
5.339344978,12.57713,5.505819,-26.91804,0.07221026,-0.8005103,0.5841139,10.54862,19.56934,-34.4662,1007.86
5.371516704,-26.61547,5.209894,-23.73112,0.01044519,-0.7192553,0.5699362,10.54233,18.80139,-34.90876,1007.858
5.406163215,-15.00512,7.28137,-26.12131,0.06326082,-0.8784344,0.544031,10.16439,18.80676,-34.90683,1007.858
5.438334942,-19.36668,1.007758,-24.83428,0.1075857,-0.8202931,0.6221807,10.16439,18.80676,-34.90683,1007.857
5.472982406,-43.75456,5.387449,-26.6729,0.1326075,-0.8772437,0.4913378,10.1649,19.56902,-34.91055,1007.857
5.505154133,-27.78265,7.63648,-21.76993,0.05666208,-0.8819823,0.4573035,10.55466,19.95616,-34.02178,1007.857
5.539801597,-4.991967,8.287515,-16.98955,0.09035803,-0.8961509,0.4669942,10.55466,19.95616,-34.02178,1007.857
5.571973324,1.703948,9.05692,-19.19588,0.1212571,-0.8864909,0.4807635,9.80584,21.87824,-33.58094,1007.857
5.606619835,12.20855,14.44276,-12.33173,0.1330076,-0.8662041,0.4755191,9.438943,21.13272,-32.68272,1007.858
5.638791561,29.16334,22.43273,-9.144808,0.1369499,-0.8676393,0.4807725,9.438943,21.13272,-32.68272,1007.857
5.673439026,64.24011,24.32665,-4.793429,0.1111062,-0.9003753,0.4990598,9.421866,21.4968,-34.02342,1007.857
5.705610752,90.4709,25.92465,-8.225502,0.1317378,-0.8240244,0.5944506,9.79955,21.11029,-34.0235,1007.857
5.740258217,62.88864,29.47575,-11.78015,0.09234096,-0.7106288,0.671427,9.79955,21.11029,-34.0235,1007.857
5.772429943,-15.43514,27.46346,-13.37361,0.1287598,-0.6201013,0.6641215,10.15887,19.1822,-35.35497,1007.855
5.807076454,-73.79402,34.03299,-6.509466,0.1221997,-0.8082626,0.5551456,11.65835,16.86337,-36.18035,1007.855
5.839249134,-55.42634,30.65945,-10.92213,0.07017687,-0.8976974,0.5052477,12.43729,18.01796,-34.46843,1007.853
5.873895645,-62.18369,22.9654,-17.84756,0.07186823,-0.8172253,0.4933634,12.43729,18.01796,-34.46843,1007.857
5.906067371,-79.1999,20.89392,-3.996698,0.07660351,-0.7850194,0.5186487,12.83359,19.55418,-33.13896,1007.857
5.938240051,-46.15034,10.41818,4.338337,0.07294457,-0.9153035,0.5527948,13.60232,21.46048,-32.25957,1007.855
5.972886562,-13.40793,0.415908,12.18308,0.09611488,-0.7649635,0.7403517,13.60232,21.46048,-32.25957,1007.857
6.005058289,-102.1134,-3.194378,10.52833,0.06993461,-0.6573245,0.7087075,13.99176,22.60907,-31.43828,1007.855
6.039705753,-291.9949,-13.72931,-5.4063,0.008519903,-0.6392456,0.2438181,14.0209,23.01863,-29.20874,1007.855
6.071877479,-453.8026,-35.92369,-16.68311,0.1416549,-0.7059369,-0.1994856,14.0209,23.01863,-29.20874,1007.855
6.106523990,-481.8148,23.14295,34.98185,0.312361,-1.051467,-0.3340668,14.12031,27.30612,-21.76995,1007.857
6.138696670,-295.9878,13.0815,-2.954818,0.2400438,-1.55838,-0.9714003,14.30731,35.48859,-7.783062,1007.857
6.173343181,-35.9529,17.69793,-6.938475,0.2727146,-1.037131,-0.7037544,14.30731,35.48859,-7.783062,1007.855
6.205514908,-8.616361,-0.9453472,13.28624,0.2300234,-0.7793194,-0.2173031,15.94061,37.11022,1.509899,1007.855
6.272334099,-143.7018,-33.02362,-13.80262,0.2127984,-1.033946,-0.5180812,16.32954,37.49654,2.334909,1007.855
6.306980610,-19.85813,-19.23351,-9.880252,0.1640245,-1.014634,-0.8148605,17.12009,37.51992,5.008726,1007.857
6.339153290,72.41036,-5.088298,8.015559,0.1646685,-0.9454192,-0.7135581,17.15445,38.31548,7.618933,1007.855
6.373799801,78.00053,12.13454,2.193291,0.06582353,-0.8993856,-0.5353625,17.15445,38.31548,7.618933,1007.857
6.405971527,73.33182,14.20602,4.031902,0.01683344,-0.8824664,-0.4499339,17.51531,38.67419,6.276299,1007.857
6.438144207,110.3744,21.48577,20.27296,-0.1125742,-0.8055387,-0.4394162,17.86647,40.54687,4.09741,1007.857
6.472790718,121.1861,16.27749,30.38532,-0.1312742,-0.8037665,-0.2845053,17.86647,40.54687,4.09741,1007.859
6.504962444,64.24011,0.001612922,23.33731,-0.1126665,-0.6385319,-0.1825788,17.82762,41.65129,1.031618,1007.859
6.539609909,-13.28507,-3.016823,19.1698,-0.03409853,-0.9414488,-0.326553,19.29393,42.72774,-2.551944,1007.858
6.571781635,16.32439,-2.898453,20.51811,-0.0924824,-1.059286,-0.5390595,19.29393,42.72774,-2.551944,1007.856
6.606428146,34.32349,-9.586359,2.928736,-0.05685687,-0.79707,-0.3752784,20.04377,42.33018,-3.000232,1007.856
6.638600826,-75.32979,-10.41495,9.792882,-0.06914239,-0.7154763,-0.2506172,20.79469,42.31458,-3.386625,1007.856
6.673247337,-189.0989,-11.42109,1.457847,-0.0821323,-0.8165296,-0.5863187,20.79469,42.31458,-3.386625,1007.856
6.705419063,-179.9458,-12.90072,-4.057985,-0.007725075,-1.017144,-0.8103867,20.81724,42.71764,-1.667117,1007.854
6.740066528,-83.80718,16.6326,-3.935411,0.1146534,-0.777741,-0.5907272,22.04268,42.79168,5.403816,1007.854
6.772238254,-6.343436,64.69083,20.21168,-0.1753009,-0.9985989,-0.08663487,22.04268,42.79168,5.403816,1007.854
6.806884766,-66.6681,-10.23739,18.74079,-0.261127,-0.8238826,-0.3962473,22.0936,42.4609,9.358448,1007.854
6.839057445,-101.192,-34.85836,-0.2581894,0.07187552,-0.7521567,-0.699531,22.12141,42.10738,11.52796,1007.852
6.873703957,-85.89581,8.405885,16.3506,0.07613597,-0.7361909,-0.9553808,22.5335,41.37384,14.20743,1007.852
6.905875683,-34.41714,32.0207,29.95631,-0.01421365,-0.7431725,-0.7858955,22.5335,41.37384,14.20743,1007.852
6.940523148,-26.0626,37.28817,33.51096,-0.02273263,-0.7139111,-0.7103828,22.944,39.49611,16.82872,1007.851
6.972694874,-68.51101,-2.839268,16.90218,-0.03843253,-0.7530791,-0.7014012,23.72825,38.75153,19.05998,1007.851
7.004866600,-17.21662,1.007758,8.444568,0.1109425,-0.7309366,-0.8809523,23.72825,38.75153,19.05998,1007.853
7.039514065,3.54686,25.09606,10.28318,0.03104481,-0.7067229,-0.8766332,24.87755,37.22713,20.33671,1007.851
7.071685791,-11.19644,20.65718,4.460911,-0.05127654,-0.6888061,-0.8092014,25.26127,37.22745,20.78106,1007.851
7.106332779,-12.17933,11.54269,1.457847,0.01081331,-0.5590791,-0.6260335,25.26127,37.22745,20.78106,1007.851
7.138504982,-31.03846,13.96928,7.770411,-0.033381,-0.5392098,-0.7845171,24.52272,37.25524,22.12377,1007.851
7.173151493,-55.85635,-1.063717,5.135068,-0.1699783,-0.6128139,-0.9761671,24.918,37.26693,23.46067,1007.851
7.205324173,6.679811,-16.51101,6.483383,-0.07657106,-0.7324615,-1.010801,24.918,37.26693,23.46067,1007.851
7.239970684,36.84214,-10.05984,3.541606,-0.02341306,-0.7386336,-0.8956681,24.18338,35.77505,25.19336,1007.851
7.272142410,51.83116,-11.06598,-8.470651,-0.08639056,-0.6710913,-0.9894775,25.29517,36.11816,23.46432,1007.851
7.306789398,28.91762,-16.62938,-7.796494,-0.09558006,-0.5202837,-0.7620907,25.29517,36.11816,23.46432,1007.849
7.338961601,-32.81995,-40.36257,-1.606504,-0.1796007,-0.6237625,-0.9544777,25.28464,37.63132,22.56432,1007.849
7.373608112,76.03475,-38.35028,-9.022234,-0.06268521,-0.8613283,-1.096343,24.14556,38.40401,22.12012,1007.848
7.405780315,75.97332,-21.60092,5.686652,-0.007112361,-0.5719274,-0.6042822,24.14556,38.40401,22.12012,1007.848
7.440427303,68.0488,-5.147483,8.689716,-0.05887916,-0.6784257,-0.7897649,24.4896,39.50793,19.43492,1007.848
7.507246017,70.32172,1.303683,0.7836899,-0.1284769,-0.6098766,-0.5682766,24.07256,40.23659,16.37292,1007.848
7.539418220,57.72848,2.191458,3.05131,-0.08997905,-0.7358449,-0.5137624,23.27782,41.35174,13.311,1007.848
7.571589947,46.60958,0.8893881,0.04824567,-0.09498373,-0.8234227,-0.5443217,23.24997,42.84785,11.07215,1007.848
7.606236935,53.55122,16.81016,9.670308,-0.0383488,-0.9536468,-0.6524456,23.24997,42.84785,11.07215,1007.848
7.638409138,98.70258,35.33506,19.04722,-0.07996649,-1.037186,-0.6864859,22.09386,42.84203,9.356588,1007.85
7.673056126,172.0505,50.84154,17.94406,-0.128269,-0.9832996,-0.653297,22.43713,42.80255,6.67697,1007.849
7.705228329,175.3677,39.12291,21.25356,-0.2295641,-0.6550456,-0.322368,22.43713,42.80255,6.67697,1007.849
7.739874840,85.67933,22.78784,18.98594,-0.1102082,-0.7951664,-0.1626851,21.99202,43.50359,1.447323,1007.85
7.772046566,112.2173,55.57634,13.10238,-0.2073506,-1.013583,-0.351077,21.56785,43.46348,-2.120988,1007.85
7.806693554,124.3805,43.0883,-10.18669,-0.2015274,-0.5605022,0.1230353,21.56785,43.46348,-2.120988,1007.85
7.838865757,-2.350459,78.00745,-8.28679,-0.1822401,-0.8933191,-0.03412826,22.64972,42.25362,-6.073977,1007.85
7.873512745,40.15939,54.51101,-9.144808,-0.1180226,-0.8711286,-0.01044456,22.24842,41.85512,-7.855306,1007.85
7.905684471,23.69604,43.44341,-8.531938,0.1741224,-0.9733489,0.07708463,22.24842,41.85512,-7.855306,1007.849
7.940331459,-22.25391,74.45635,8.076846,0.3391943,-1.068309,0.08006348,21.87022,41.47935,-7.851511,1007.849
8.007150173,-19.12096,64.15816,2.377152,0.178584,-1.127454,-0.01436136,23.04449,41.50304,-4.733349,1007.847
8.039322376,-22.80679,54.74775,6.422096,0.1886388,-0.9585059,-0.002940378,23.04449,41.50304,-4.733349,1007.845
8.071494579,-101.5606,74.69309,20.64069,-0.01097183,-0.9729704,-0.05614499,23.82239,41.1331,-3.013988,1007.845
8.106141090,-28.58124,23.20214,-6.877188,0.2662532,-1.166246,-0.01598122,23.86258,40.79176,0.1118374,1007.845
8.138313293,77.50909,44.15363,33.57225,-0.02362727,-1.085438,-0.172152,23.86258,40.79176,0.1118374,1007.845
8.172960281,179.2993,25.45117,27.07582,-0.1235586,-1.040355,-0.1809698,23.49645,41.18963,1.004471,1007.847
8.205132484,259.7117,27.87775,26.03395,-0.06607623,-0.921849,-0.1342573,24.19455,41.12205,-3.462202,1007.846
8.239779472,248.8999,19.94696,40.8654,-0.01111115,-0.7111896,0.09109629,24.19455,41.12205,-3.462202,1007.846
8.271951198,201.7214,34.44729,43.62332,0.01525577,-0.6790196,0.2516213,24.85334,40.25402,-10.92161,1007.844
8.306597709,139.7995,58.83152,48.21984,-0.0629455,-0.7233059,0.3748958,25.14472,37.8782,-17.47908,1007.842
8.338770389,88.4437,60.90299,42.45887,-0.104736,-0.7809649,0.4239743,25.14472,37.8782,-17.47908,1007.842
8.373416900,53.55122,60.25196,39.27194,-0.007045977,-0.8059914,0.3886345,27.36413,33.60886,-20.97671,1007.842
8.405589104,61.53717,72.85836,54.22598,-0.04559715,-0.7908089,0.3814074,28.86279,31.28921,-21.86584,1007.844
8.440236091,43.04662,85.81988,64.27705,-0.2629036,-0.8962136,0.3570201,28.86279,31.28921,-21.86584,1007.844
8.472407818,68.0488,77.35642,58.51606,-0.4227654,-0.9638285,0.2977044,31.12914,29.35134,-21.86814,1007.842
8.507054329,145.6968,76.40946,44.60391,-0.3891385,-0.9481159,0.3428282,32.65065,26.6733,-20.97029,1007.842
8.539227009,204.6086,99.5508,34.85927,-0.4650469,-0.7792943,0.3454103,32.65065,26.6733,-20.97029,1007.842
8.573873520,251.5414,112.5715,17.94406,-0.6350895,-0.5765943,0.337582,35.34612,24.33665,-21.86554,1007.842
8.606045246,258.5445,110.8551,-24.71171,-0.4892105,-0.3095998,0.4367498,37.59391,19.33346,-23.12804,1007.842
8.638217926,174.9991,125.533,-31.63714,-0.3073887,-0.5175807,1.152482,37.59391,19.33346,-23.12804,1007.84
8.672864437,296.6313,134.6475,-11.04471,-0.8534878,-0.5049287,0.6785743,38.35222,14.37367,-22.66144,1007.84
8.705036640,213.946,96.05888,-80.42162,-1.042431,-0.2438018,1.123038,40.26767,10.94424,-20.48671,1007.844
8.739683628,127.452,112.4531,-42.66881,-1.006507,-0.5625977,0.1507733,40.26767,10.94424,-20.48671,1007.844
8.771855354,196.7455,122.5146,-55.72295,-0.9124734,-0.1782802,-0.05323157,41.43776,6.012383,-17.40812,1007.844
8.806502819,71.79605,181.2261,-49.34909,-1.280483,0.1163471,0.08807312,41.84954,6.040312,-14.79612,1007.844
8.838674545,-60.58649,87.65461,-41.7495,-1.579993,-0.02575178,0.2877982,41.84954,6.040312,-14.79612,1007.844
8.873321056,-90.19595,1.007758,-52.59731,-0.8444747,-0.3483844,0.3394892,43.43533,5.710796,-9.064102,1007.846
8.905493736,-39.02442,38.05758,-43.03653,-0.5363252,-0.2752019,0.2721472,43.84814,7.263258,-6.45955,1007.846
8.940140247,-93.88177,58.65396,-45.30415,-0.6368264,-0.4102281,0.5732215,43.84814,7.263258,-6.45955,1007.846
8.972311974,-17.83092,45.33733,-52.29087,-0.7584011,-0.418163,0.2209849,43.4833,9.566797,-5.576219,1007.846
9.006959438,-39.02442,31.90233,-27.95992,-0.7292712,-0.2798471,0.4267031,43.52396,11.13031,-2.523453,1007.848
9.039131164,-41.23591,19.71022,-30.28883,-0.8012595,-0.3392,0.4254395,43.52396,11.13031,-2.523453,1007.85
9.073778629,-37.24294,43.97608,-10.92213,-1.067219,-0.5228266,0.1078057,42.78092,13.05809,-1.636327,1007.852
9.105950355,3.055417,32.19826,-13.37361,-1.051877,-0.4633403,0.2787808,42.42083,13.84278,-0.2992744,1007.852
9.140596866,-69.37103,30.0676,-21.95379,-0.9721953,-0.6038442,0.3631569,41.67677,14.24602,0.595295,1007.852
9.172769546,-11.99503,57.29271,-2.648383,-0.8659449,-0.5130237,0.1869844,41.67677,14.24602,0.595295,1007.852
9.204941273,-21.8239,67.82764,5.870513,-0.8617685,-0.4596776,0.3098131,42.08328,15.03053,2.757288,1007.852
9.239587784,-38.41011,80.37486,-6.264318,-0.8799477,-0.4243248,0.1618183,41.73975,14.68887,5.438766,1007.852
9.271760464,-24.95685,100.8529,5.870513,-0.8707203,-0.3943927,0.08389504,41.73975,14.68887,5.438766,1007.852
9.306406975,-22.80679,96.17725,2.315866,-1.013646,0.01580218,0.1247603,41.40169,15.11436,8.49905,1007.85
9.338578701,-72.50398,76.17272,-10.73827,-0.8315009,-0.3560343,-0.2039084,40.69018,13.64523,12.01685,1007.85
9.373226166,-25.07971,83.80759,-16.80569,-0.7920612,-0.5189017,0.03875465,40.69018,13.64523,12.01685,1007.85
9.405397892,-33.31139,105.4693,18.86336,-0.9123728,-0.5456263,0.02037698,39.22382,13.71137,15.53107,1007.85
9.440044880,-34.84715,112.394,16.71832,-1.037308,-0.4645914,-0.2520469,38.12467,13.76158,18.21456,1007.85
9.472217083,-28.8884,108.7837,16.53446,-0.9342122,-0.5558595,-0.2508693,38.12467,13.76158,18.21456,1007.85
9.506863594,-39.393,121.8044,24.56306,-0.8859782,-0.6204473,-0.2870378,36.6628,11.92774,22.18437,1007.85
9.539036274,-45.90462,106.1203,26.21781,-0.9477891,-0.5651971,-0.5265232,34.37185,10.85724,25.32585,1007.854
9.573682785,-33.98713,86.1158,42.70401,-0.8559025,-0.3350092,-0.3885952,34.37185,10.85724,25.32585,1007.854
9.605854511,-41.6045,63.38876,53.12281,-0.8599841,-0.3567625,-0.6316642,32.15411,9.034136,29.29952,1007.854
9.640501499,-44.18457,49.30273,61.94814,-0.8504974,-0.369707,-0.5417255,29.89565,6.790103,30.1511,1007.854
9.672673702,-23.8511,35.9861,70.52832,-0.8277622,-0.4580128,-0.5229036,29.89565,6.790103,30.1511,1007.852
9.704845428,41.94086,3.079233,65.99308,-0.8599716,-0.4695348,-0.4012342,27.65536,4.563937,32.40527,1007.852
9.739492416,65.71445,-17.99063,53.24538,-0.9020624,-0.3347096,-0.1905422,26.53048,1.922666,33.2529,1007.852
9.771664619,-25.07971,-50.06891,55.20657,-0.8389809,-0.1922136,-0.3022619,26.53048,1.922666,33.2529,1007.852
9.806311607,-82.70143,-45.15655,53.85825,-0.9010559,-0.1271983,-0.3454906,26.90894,1.473454,33.31689,1007.851
9.838483810,-55.05775,-42.1973,51.22291,-1.040252,0.171897,-0.7364836,27.65878,1.075899,32.86861,1007.851
9.873130321,-140.9989,-87.76977,12.79595,-1.257534,0.3003751,-0.5806031,27.65878,1.075899,32.86861,1007.851
9.905302525,-234.926,-94.63523,11.26377,-1.012336,0.03972388,-0.48623,28.02208,-3.514441,31.99644,1007.851
9.939949036,-216.804,-59.59769,-25.87616,-1.187996,0.2828435,-0.5433186,29.12,-6.612912,29.39159,1007.849
9.972121239,-161.2095,-90.37391,-53.82305,-1.097282,-0.2608888,-0.7515694,29.12,-6.612912,29.39159,1007.851
10.006768227,-56.28637,-48.70765,-57.86799,-0.907763,0.0488936,-0.2996324,30.9478,-12.79474,24.94889,1007.849
10.038940429,-96.46185,-28.64393,-65.03857,-0.9510364,0.2141875,-0.4188478,33.94068,-16.67664,22.78438,1007.848
10.073587417,-97.69045,-32.3134,-64.73214,-0.9093204,0.20207,-0.3267931,33.94068,-16.67664,22.78438,1007.848
10.105759144,-100.2705,-22.31114,-62.03551,-0.7659988,0.1522696,-0.1463451,35.03983,-16.72685,20.10089,1007.848
10.140405655,-123.4912,-21.12744,-61.23878,-0.7659384,0.1136016,-0.06231458,35.83063,-16.76609,17.92905,1007.846
10.172578335,-162.2538,-10.77006,-62.28066,-0.7393685,0.0232791,-0.05077514,37.70377,-15.66659,16.57496,1007.844
10.207224846,-149.722,-1.004532,-88.0825,-0.8737333,0.004972551,-0.1195622,37.70377,-15.66659,16.57496,1007.844
10.239397049,-180.9287,-18.76003,-111.1877,-0.8739509,-0.07017854,-0.1090938,38.42554,-16.09176,13.95903,1007.844
10.271569252,-175.3385,-21.42336,-126.5707,-0.7199095,-0.1856629,-0.1312452,39.90867,-15.76052,11.71803,1007.842
10.306215763,-98.24333,-24.56017,-122.8935,-0.6333929,-0.2579401,-0.1957902,39.90867,-15.76052,11.71803,1007.842
10.338388443,-40.92876,-1.714752,-117.1938,-0.5901977,-0.3740184,-0.05158642,41.39417,-13.14167,9.529617,1007.841
10.373034954,-1.613294,22.90621,-96.5401,-0.8523348,-0.3626011,-0.1247202,42.89669,-9.744316,8.612574,1007.837
10.405206680,21.6074,20.00615,-80.78934,-1.017282,-0.2829643,-0.1634945,42.89669,-9.744316,8.612574,1007.837
10.439854145,-22.74536,-22.31114,-75.64123,-0.9302403,-0.1245857,-0.2772349,43.28297,-5.932665,9.038313,1007.835
10.472025871,-50.6962,-3.963783,-60.44205,-0.6797493,-0.2626174,-0.07682437,43.66849,-3.264414,9.469635,1007.838
10.506672382,-55.91778,20.95311,-23.11825,-0.8876879,-0.3423145,-0.160373,43.66849,-3.264414,9.469635,1007.836
10.538845062,-26.36975,9.352845,8.996151,-0.9989133,-0.3996815,-0.244158,44.03642,-0.9943516,8.563974,1007.836
10.573491573,24.74035,-26.69083,33.14324,-0.7811911,-0.4229369,-0.2242093,44.41462,-0.6185865,8.560181,1007.836
10.605664253,89.11943,-3.431118,59.19022,-0.7336133,-0.505121,-0.2137628,44.41462,-0.6185865,8.560181,1007.836
10.640310764,139.9838,4.618044,71.99921,-0.899188,-0.4260927,-0.2689243,43.66375,-1.745565,9.015909,1007.834
10.672482490,150.3041,3.079233,75.67643,-0.9269168,-0.3721994,-0.2846092,44.03513,-2.900019,8.573278,1007.832
10.707129955,128.0663,21.30822,76.41187,-1.037917,-0.3453696,-0.1498384,44.03513,-2.900019,8.573278,1007.831
10.739301681,79.65915,6.09767,48.09727,-1.119928,-0.370134,-0.1410834,43.27822,-4.413816,8.584589,1007.829
10.771473408,39.97509,-13.72931,12.85723,-0.9834422,-0.5734921,-0.1772914,43.30005,-6.296744,10.37901,1007.829
10.806120872,121.1247,6.630334,17.39247,-0.8605989,-0.3427421,-0.07242342,43.30005,-6.296744,10.37901,1007.827
10.838292599,94.46387,11.18758,13.16367,-0.9431542,-0.05431401,-0.0475853,42.92186,-6.67251,10.38281,1007.825
10.872940063,16.69297,-5.147483,1.39656,-0.9264834,-0.006005001,-0.003480642,42.92707,-6.286503,10.76348,1007.825
10.905111790,-36.81292,4.381304,-3.199967,-0.9211342,-0.2206413,-0.07615396,42.92707,-6.286503,10.76348,1007.825
10.939758301,-58.06785,4.677229,1.886856,-0.9908326,-0.288847,-0.09100787,42.5549,-6.27545,11.21169,1007.825
10.971930981,-61.56938,-5.325038,3.786754,-0.9449576,-0.3847809,-0.1023488,42.93367,-6.280006,11.27351,1007.825
11.006577492,-32.94281,-5.325038,9.057438,-0.9157045,-0.350617,-0.1221021,42.93367,-6.280006,11.27351,1007.828
11.038749218,-4.377663,-3.253563,8.444568,-0.893068,-0.3345617,-0.1655609,42.92738,-7.047958,10.83095,1007.826
11.073396206,2.932556,4.558859,6.789818,-0.8976506,-0.3009009,-0.1464427,42.92712,-7.429092,10.83281,1007.826
11.105568886,4.222595,3.907824,7.218827,-0.9465969,-0.2901535,-0.1690333,42.92712,-7.429092,10.83281,1007.824
11.140215397,-5.851993,3.138418,1.39656,-0.9186499,-0.2805009,-0.1581285,42.92109,-7.81591,10.38839,1007.824
11.172387600,-2.166168,11.42432,-0.5033376,-0.9153053,-0.3212026,-0.1469273,42.53736,-7.816226,9.944044,1007.824
11.207034588,10.18135,13.61417,-1.606504,-0.9426271,-0.3133243,-0.1499814,42.1652,-7.805172,10.39226,1007.822
11.239206314,15.71008,13.25906,1.764282,-0.950963,-0.2814413,-0.1120448,42.1652,-7.805172,10.39226,1007.821
11.273852825,7.846989,8.050775,1.39656,-0.9717108,-0.2849537,-0.1403181,42.55939,-8.17543,11.66727,1007.821
11.306025505,6.004077,2.487383,2.683588,-0.9363773,-0.2776948,-0.120344,42.18145,-8.170063,11.66921,1007.825
11.338197231,-0.4461164,2.724123,4.706059,-0.9324848,-0.2588654,-0.1308291,42.18145,-8.170063,11.66921,1007.825
11.372844219,-6.712018,-0.8269772,5.441504,-0.9302023,-0.282232,-0.138273,42.56543,-7.788613,12.11169,1007.825
11.405016422,-4.746245,0.415908,7.831697,-0.9258171,-0.2759736,-0.1421183,42.18723,-8.164377,12.11549,1007.825
11.439662933,-0.1389643,3.434344,6.360809,-0.9528385,-0.2547284,-0.173985,42.18723,-8.164377,12.11549,1007.825
11.471835136,6.618381,6.867074,7.709124,-0.9278205,-0.107766,-0.1715609,42.19275,-8.539827,12.56363,1007.825
11.506482124,-14.26796,21.42659,-0.1969024,-0.9078413,-0.2746105,-0.2685587,42.56491,-8.55088,12.11541,1007.825
11.538653850,14.5429,28.82471,6.299522,-0.9452675,-0.3535934,-0.2124667,42.56491,-8.55088,12.11541,1007.825
11.573301315,45.25811,24.50421,17.69891,-0.9662352,-0.283878,-0.1861503,41.43713,-8.147955,12.56564,1007.823
11.605473041,42.92375,15.74483,20.5794,-0.9117845,-0.1910441,-0.1974611,41.46576,-8.500666,14.7989,1007.827
11.640120506,26.39898,12.72639,22.78573,-0.8703405,-0.1289393,-0.1737178,41.46576,-8.500666,14.7989,1007.821
11.672292232,6.679811,21.07148,28.05642,-0.8985611,-0.1180847,-0.169027,41.08782,-8.495296,14.80083,1007.825
11.706938744,-37.9801,14.08765,26.46295,-0.8584709,-0.09258642,-0.1725648,40.72093,-9.240826,15.69905,1007.825
11.739111423,-73.5483,15.38972,22.4793,-0.8519281,-0.1218601,-0.2509512,40.72093,-9.240826,15.69905,1007.823
11.773757935,-48.73042,9.826325,14.75713,-0.8022622,-0.1725355,-0.1814605,40.34742,-9.992853,16.08723,1007.823
11.805929661,-57.63783,19.05919,5.31893,-0.7306042,-0.09123876,-0.2301408,39.96877,-12.27347,16.16409,1007.823
11.838102341,-68.32672,13.67335,-1.545217,-0.6841548,-0.1208102,-0.3214339,39.96877,-12.27347,16.16409,1007.823
11.872748852,-47.44038,35.27588,0.2321067,-0.7329307,-0.1770866,-0.3493987,39.2066,-13.03069,15.7254,1007.823
11.904921532,-11.9336,49.65784,-1.912939,-0.8848334,-0.1952787,-0.4146472,39.20056,-13.41751,15.28097,1007.823
11.939568043,-1.674725,47.94147,-2.219374,-0.9985853,-0.1198056,-0.4568255,39.20056,-13.41751,15.28097,1007.823
11.971739769,8.584155,34.97995,-0.1969024,-0.8547103,-0.04229555,-0.4464431,38.84465,-13.77134,17.00613,1007.825
12.006387234,-1.121851,48.88843,-1.48393,-1.135688,-0.3100379,-0.4778405,38.10007,-14.13037,17.90443,1007.823
12.038558960,100.3612,25.51035,-2.035513,-1.248777,-0.555944,-0.4016926,38.10007,-14.13037,17.90443,1007.823
12.073205948,193.3668,-21.77847,-61.91294,-1.094435,-0.3585101,-0.1908714,37.36781,-13.33463,19.68969,1007.825
12.105378151,80.39631,-1.359642,-78.03143,-0.8090593,-0.2566483,-0.07846057,37.38535,-11.79385,20.95734,1007.825
12.140024662,72.59465,-16.86612,-89.18566,-1.126436,-0.4870886,-0.3945545,37.38535,-11.79385,20.95734,1007.827
12.172196865,107.2414,-16.39264,-52.22959,-1.005683,-0.4131309,-0.2302278,38.15036,-6.844166,21.37556,1007.827
12.206843376,73.27039,-26.57246,-63.81284,-1.0329,-0.3026411,-0.2705148,38.91541,-3.037072,21.86312,1007.827
12.239015579,-17.33948,-35.15429,-69.26738,-1.091858,-0.5735484,-0.1285623,38.91541,-3.037072,21.86312,1007.827
12.273662567,-70.29249,-59.71606,-89.73724,-0.9541569,-0.5726652,-0.1770758,38.90561,0.7620815,20.8882,1007.829
12.305834770,-59.54218,-62.14265,-115.7229,-0.607086,-0.5343791,0.1651129,40.02476,3.46119,19.59398,1007.829
12.340481758,-42.09594,-44.50552,-99.35931,-0.8796639,-0.3692366,-0.1216279,39.63102,5.736305,18.2459,1007.829
12.372653484,-30.36273,-53.79757,-98.31743,-0.7042689,-0.2504788,-0.1550614,39.63102,5.736305,18.2459,1007.829
12.404825687,-71.33681,-45.27492,-86.30517,-0.6686456,-0.3201777,-0.2957483,39.61549,8.387184,16.89404,1007.829
12.439472675,-92.59173,-51.54853,-64.54828,-0.6922299,-0.5024382,-0.3428207,39.97764,10.65156,15.5421,1007.829
12.471644401,-18.26093,-56.0466,-42.36238,-0.7920154,-0.56796,-0.2807339,39.97764,10.65156,15.5421,1007.829
12.506291866,37.33358,-77.94505,-20.0539,-0.902213,-0.6810446,-0.09892409,39.20577,11.40833,14.26715,1007.829
12.538463592,67.61879,-88.00651,10.52833,-0.9056754,-0.6404501,-0.1241031,39.16609,12.51193,11.13761,1007.831
12.573110104,55.14841,-86.88199,33.51096,-0.9123923,-0.6166166,-0.1219159,39.16609,12.51193,11.13761,1007.829
12.605282783,60.67714,-81.49615,45.15549,-0.9287273,-0.596437,-0.1591931,40.639,13.59488,8.064079,1007.829
12.639929295,69.33884,-69.30404,42.70401,-0.9410871,-0.6376625,-0.1001317,41.33767,13.14697,3.663021,1007.829
12.672101974,99.43974,-50.06891,39.02679,-0.8568524,-0.4174116,0.003081953,41.33767,13.14697,3.663021,1007.829
12.706748485,75.78903,-29.59089,42.09114,-0.9604501,-0.3174124,-0.0621249,41.67574,12.72148,0.6027393,1007.829
12.738920212,72.84037,-32.01748,35.28828,-0.9632705,-0.3976099,0.04761814,42.01797,11.15747,-2.069437,1007.831
12.773567676,91.26949,-22.54788,35.90115,-0.9034901,-0.4329459,0.03568303,42.01797,11.15747,-2.069437,1007.831
12.805739403,132.5507,-14.26198,34.43026,-0.8317215,-0.4061919,0.02655793,42.36733,10.36222,-4.235297,1007.831
12.840386391,123.8276,-12.30887,-32.43388,-0.8423942,-0.5289825,0.209769,41.97758,9.97509,-5.124063,1007.835
12.872558594,-1.613294,9.05692,14.51198,-0.9515935,-0.5177369,0.2759506,41.97758,9.97509,-5.124063,1007.837
12.907205105,1.826809,-0.05757209,33.57225,-0.5258092,-0.4108919,0.3697403,42.32663,9.941298,-7.357401,1007.835
12.939377785,35.98212,27.99612,54.96142,-0.5438713,-0.4144897,0.08019752,43.08277,10.31169,-7.36313,1007.837
12.971549511,-14.63654,7.75485,59.3128,-0.5547879,0.1496099,0.7154052,43.08277,10.31169,-7.36313,1007.837
13.006196499,-289.1076,-27.04594,29.71117,-0.4060311,-1.589482,0.5594181,43.84417,9.925508,-6.918856,1007.839
13.038368702,-211.3367,-69.59997,-46.46861,-0.5276733,-2.437288,0.3732959,45.3662,8.009736,-6.024726,1007.84
13.073015213,486.2671,-22.96217,-42.05594,-0.7459497,-0.3635362,-0.2404365,45.3662,8.009736,-6.024726,1007.84
13.105187416,-1.244712,-94.16175,2.377152,-0.9252763,0.5213608,1.163438,46.10577,9.506479,-7.374879,1007.846
13.139834404,-197.7606,-67.70605,23.82761,-0.9307261,-0.9235867,0.3422999,45.67113,9.836943,-11.77386,1007.846
13.172006130,40.65083,-58.05889,13.22496,-0.8193816,-0.723608,0.6036714,45.67113,9.836943,-11.77386,1007.846
13.206653118,-5.48341,33.08603,39.88481,-0.6209924,-0.2814406,0.4786996,44.89926,10.59371,-13.0488,1007.846
13.238825321,-79.32276,31.01456,61.15141,-0.9661882,-0.332379,0.1334971,44.50347,9.819752,-14.38198,1007.848
13.273472309,-15.12799,5.328264,68.99615,-0.8044589,-0.5455426,-0.08811515,44.50347,9.819752,-14.38198,1007.848
13.305644035,36.41213,14.6795,78.6795,-1.004822,-0.1640919,0.2167028,44.9087,8.698595,-12.21069,1007.848
13.340291500,-64.08802,-4.437263,84.56305,-1.118402,0.01628462,0.4347034,45.66907,6.787876,-11.75897,1007.849
13.372463226,-80.12136,-15.97834,85.23721,-1.17343,-0.3274508,0.3244153,45.66907,6.787876,-11.75897,1007.848
13.407109737,105.0913,-39.11968,89.34344,-1.115843,-0.3058608,0.1399321,46.80083,3.722703,-11.74989,1007.849
13.439282417,200.9842,-41.60545,107.4844,-1.008697,-0.0006001985,0.1409669,47.18275,1.055084,-11.29251,1007.849
13.471454143,113.323,-17.75389,126.4221,-1.01102,0.4388211,0.348979,47.18275,1.055084,-11.29251,1007.854
13.506101608,3.301139,-20.35803,129.609,-1.11063,0.1163872,0.2657923,46.40145,-3.593231,-12.98738,1007.854
13.538273334,12.08569,-25.44794,129.6703,-1.094793,0.04118611,0.1541647,45.64564,-10.81916,-12.56563,1007.854
13.572919845,10.05849,-31.12971,124.706,-1.028663,0.1851155,0.2304082,44.88642,-15.76316,-12.53757,1007.852
13.605092525,-25.32543,-43.97285,114.4098,-0.9212338,0.2663694,0.1992276,44.88642,-15.76316,-12.53757,1007.852
13.639739036,-91.97742,-43.97285,98.16877,-0.8821654,0.3305912,0.05527469,43.37106,-21.07755,-12.50378,1007.85
13.671911716,-178.4715,-45.09737,82.47929,-0.7830815,0.3248364,0.002246748,39.57207,-25.61371,-13.7372,1007.85
13.706558227,-224.4828,-52.90979,84.50176,-0.744372,0.2149436,0.1904054,39.57207,-25.61371,-13.7372,1007.848
13.738729954,-8.984943,-121.8603,103.562,-0.69227,0.07334172,0.3034678,37.99685,-27.93995,-18.49988,1007.845
13.773377418,90.4709,-88.53917,142.6632,-0.3301105,0.8998442,0.8404756,34.16577,-28.69888,-22.42959,1007.843
13.805549145,-413.1971,-29.35415,135.2474,-0.4715007,0.09969101,0.02302924,34.16577,-28.69888,-22.42959,1007.841
13.840196133,-440.5336,-14.14361,95.1657,-0.6345066,-0.2544908,0.2510621,28.40775,-32.83266,-24.16492,1007.84
13.872368336,-457.1198,0.179168,34.98185,-0.5513395,-0.8697387,0.4572937,22.24334,-29.43433,-33.3951,1007.84
13.907014847,-232.5916,3.611899,4.399624,-0.4104392,-1.041183,0.4082936,22.24334,-29.43433,-33.3951,1007.838
13.939187050,-262.0168,-5.265853,-41.07535,-0.3367588,-0.8037134,0.4085998,18.7929,-17.62691,-37.83443,1007.838
13.973833561,-291.872,7.695665,-31.20814,-0.08808646,-1.031334,0.319571,18.04974,-7.319881,-37.43453,1007.84
14.006006241,-281.4903,21.24903,-58.60344,-0.007383509,-1.347968,-0.02842202,18.04974,-7.319881,-37.43453,1007.838
14.038178444,-586.1237,39.59639,-27.34705,-1.290345,-3.117204,-0.7993436,17.3284,2.310327,-35.30984,1007.838
14.072824955,365.8634,24.44502,-171.0651,0.04131905,-1.366041,-0.2637592,17.04852,11.93418,-28.27769,1007.84
14.104997158,282.9324,78.00745,-114.6198,-0.5456771,-0.2779829,0.786987,17.04852,11.93418,-28.27769,1007.842
14.139643669,-60.09505,-5.620963,-85.81487,-0.4847026,-0.5451263,0.7389077,14.74006,19.92471,-31.87541,1007.84
14.171816349,-79.9985,43.32504,-81.52478,-0.3285783,-1.017076,0.4400224,15.10238,12.66725,-32.67079,1007.84
14.206462860,-6.712018,26.98998,-85.14072,-0.6053308,-0.8638782,0.3011959,15.10238,12.66725,-32.67079,1007.84
14.238634586,69.89171,11.54269,-82.32152,-0.4809473,-0.6774799,0.32037,14.35331,14.20821,-32.22809,1007.84
14.273282051,40.09795,10.59573,-77.23469,-0.3990206,-0.7181493,0.4494101,15.10469,16.09745,-32.68754,1007.84
14.305453777,9.874193,-2.424973,-67.73521,-0.4497792,-0.8455286,0.4522076,15.10469,16.09745,-32.68754,1007.84
14.340101242,39.23793,-2.898453,-59.15502,-0.3085632,-0.9450798,0.3478853,14.34278,15.72137,-33.12809,1007.844
14.372272968,68.47881,1.717978,-53.63919,-0.2630131,-0.7818941,0.5792014,13.95932,16.10219,-33.5743,1007.846
14.406920433,31.74342,8.642625,-51.00385,-0.06563963,-0.6619271,0.7798244,13.95932,16.10219,-33.5743,1007.846
14.439092159,-0.4461164,16.92853,-34.2112,-0.08413018,-0.4480864,0.7407899,13.18533,14.95247,-34.90369,1007.842
14.473738670,-119.4983,23.26132,-22.01508,-0.03425281,-0.7749468,0.620504,13.1906,14.19589,-34.45369,1007.846
14.505911350,-115.1981,34.32892,-13.31233,0.03947571,-1.036253,0.5193339,13.20215,14.20726,-33.56113,1007.848
14.540557861,-96.27756,26.10221,-34.33377,0.06770357,-1.092482,0.4212431,13.20215,14.20726,-33.56113,1007.846
14.572730064,-37.91867,29.65331,-50.81998,0.04516005,-0.8981,0.373892,13.23883,18.43302,-30.96767,1007.846
14.604902267,-61.63081,22.07762,-57.80671,-0.414934,-0.8787378,0.2592909,14.38549,20.33396,-30.09021,1007.846
14.639548778,-82.64001,0.238353,-87.53091,-0.09617205,-0.999186,0.3290695,14.38549,20.33396,-30.09021,1007.848
14.671721458,-119.0682,14.14683,-80.91191,0.2256211,-1.16341,0.1998751,13.27055,22.65392,-28.75673,1007.848
14.706367969,-149.2306,26.69406,-67.79649,-0.003115664,-0.8493212,0.1221769,12.93454,26.12847,-25.71133,1007.848
14.773186684,-105.2464,29.17982,-49.41038,0.2397928,-1.229412,-0.2307448,11.85447,30.00626,-21.77137,1007.848
14.805358887,-12.7322,30.36352,-40.52377,0.04744537,-1.044363,-0.2129645,11.15317,33.8795,-17.76958,1007.848
14.840005875,-1.797585,22.49192,-17.6637,-0.1419842,-0.8656239,-0.1933354,11.15317,33.8795,-17.76958,1007.846
14.872177601,-27.53693,33.97381,-4.241846,0.08467683,-0.9231527,-0.08024476,10.03606,35.43557,-16.55989,1007.85
14.906825066,-17.46234,32.37581,2.315866,-0.1485692,-1.139958,-0.1473356,9.664414,36.20889,-16.1154,1007.848
14.938996792,53.79694,22.90621,-5.345012,0.01648416,-1.055642,-0.05901074,9.664414,36.20889,-16.1154,1007.848
14.973644257,36.71928,14.97542,6.54467,0.1288453,-0.9222894,0.123236,10.80504,37.723,-15.68236,1007.848
15.005815983,12.20855,11.18758,13.40882,0.03109078,-0.8987349,0.09349437,11.15523,36.92857,-17.78447,1007.844
15.040462494,-77.47985,9.05692,6.422096,0.08701658,-1.105524,-0.06200811,11.15523,36.92857,-17.78447,1007.85
15.072635174,-2.350459,-9.586359,5.686652,0.09047077,-1.158587,-0.2061136,11.91555,36.16043,-17.40209,1007.848
15.104806900,28.36475,0.8893881,21.55999,0.128234,-0.9561743,0.008728472,11.54885,36.93863,-16.57507,1007.848
15.139454365,61.47574,-3.194378,37.06561,0.1639982,-1.33415,-0.1402851,11.54885,36.93863,-16.57507,1007.848
15.171626091,165.4774,-7.396513,60.53854,0.2861232,-1.312137,0.2125444,12.29374,36.5362,-17.40589,1007.848
15.206272602,136.4208,-20.8907,60.10953,0.09981255,-1.593001,0.3030653,13.00371,35.71853,-20.91252,1007.848
15.238445282,155.7714,-30.24193,54.96142,-0.001893086,-1.012177,0.4047205,13.00371,35.71853,-20.91252,1007.846
15.273091793,74.37613,-32.78688,28.48543,-0.04562587,-0.774653,0.02148722,14.08481,33.36527,-24.85993,1007.85
15.305264473,110.8044,-22.13358,8.138133,0.02551024,-0.7580708,-0.1742496,14.04287,29.89609,-27.90339,1007.85
15.339910984,185.688,-11.89457,-13.61876,0.04568363,-0.4618161,0.05068823,14.04287,29.89609,-27.90339,1007.85
15.372082710,66.32875,-11.83539,-31.08556,-0.1473635,-0.2705605,0.6213797,12.85107,28.33162,-32.2892,1007.85
15.406729698,-23.8511,-13.90687,-38.99159,0.06300925,-0.6209958,0.5056677,13.18573,24.09399,-35.39463,1007.849
15.438901901,-69.3096,5.505819,-22.26023,-0.08319664,-0.9072216,0.4931044,13.18573,24.09399,-35.39463,1007.845
15.473548889,5.512634,-3.490303,-18.95073,0.1396837,-0.7059095,0.4955763,11.67294,22.59093,-35.37945,1007.845
15.505720615,-42.03451,7.51811,8.015559,0.08070246,-0.4726627,0.6812094,10.93594,24.90552,-34.0479,1007.845
15.540368080,-150.9506,-7.396513,15.98287,0.1226973,-0.8053924,0.6130045,11.70338,24.90615,-33.15921,1007.847
15.572539806,-178.2257,-1.359642,16.41188,0.1058838,-1.377051,0.04981124,11.70338,24.90615,-33.15921,1007.847
15.607186317,4.836899,6.21604,21.19227,-0.02934559,-1.329411,-0.1538659,11.75032,27.23762,-29.66389,1007.847
15.639358997,33.03345,13.25906,11.50892,0.01999522,-1.150911,0.1146549,13.29303,30.29364,-27.4551,1007.847
15.671530723,78.79913,10.24062,16.47317,0.005469647,-1.06518,0.1448992,13.29303,30.29364,-27.4551,1007.847
15.706178188,51.83116,-0.5310522,5.747939,0.0004461412,-1.040848,0.4647123,14.41503,29.88503,-28.35161,1007.846
15.738349914,68.41738,-2.720898,13.89911,-0.03062438,-1.034223,0.4226409,14.39063,27.95663,-30.12743,1007.846
15.772996426,11.47138,-8.521029,-0.6259116,0.06274761,-0.7406379,0.4743179,14.39063,27.95663,-30.12743,1007.846
15.805169105,-17.27805,2.664938,7.218827,-0.02576668,-0.9240136,0.3666282,15.12872,26.02398,-31.39708,1007.846
15.839815617,-0.3232556,-0.1167571,-0.4420505,-0.1093137,-1.018953,0.400847,15.13315,25.26658,-31.01083,1007.85
15.871988296,-2.719042,-5.739333,-13.74133,-0.006367655,-0.9063657,0.4017786,15.13315,25.26658,-31.01083,1007.85
15.906634808,-8.43207,-0.4126822,-6.938475,-0.05656463,-0.8929992,0.4033212,14.75547,25.65309,-31.01076,1007.85
15.938806534,-26.49261,-6.982219,-5.222438,-0.03334076,-0.9155415,0.3903867,14.75599,26.41535,-31.01448,1007.846
15.973453999,-35.27716,-6.567924,-0.07432837,0.0001542806,-0.965156,0.3351992,14.75599,26.41535,-31.01448,1007.846
16.005625725,-36.50577,-11.59865,0.1095327,0.05675341,-1.006994,0.2962482,14.76754,26.42672,-30.12192,1007.846
16.040272712,-8.677792,-5.798518,6.054374,0.03085416,-1.016532,0.2385713,14.3959,27.20004,-29.67743,1007.846
16.072444916,11.65568,-9.231249,2.990023,0.03259083,-0.8765773,0.2613989,14.3959,27.20004,-29.67743,1007.844
16.107091903,-9.353526,3.138418,3.602893,0.08440413,-0.9725028,0.3179645,14.40219,27.968,-29.23487,1007.842
16.139263630,14.5429,0.6526481,1.702995,-0.05110209,-0.9793866,0.2820582,13.64028,27.59191,-29.67542,1007.84
16.171435833,8.092711,0.8893881,-0.8097727,-0.004882686,-0.91357,0.3496495,13.64028,27.59191,-29.67542,1007.842
16.206082821,-6.159145,0.475093,-1.851652,-0.00996413,-0.9379075,0.3374462,14.39038,27.57549,-30.12556,1007.84
16.238255024,-9.599248,1.185313,0.1708197,-0.02210825,-0.9672565,0.3002036,14.01821,27.58654,-29.67735,1007.84
16.272902012,-0.9989902,-2.720898,0.04824567,-0.009352329,-0.9682248,0.3087526,14.01821,27.58654,-29.67735,1007.84
16.305073738,3.301139,-0.6494222,0.3546808,0.04122424,-1.007805,0.3069904,14.01847,27.96768,-29.67921,1007.84
16.339721203,6.986964,-1.122902,0.5998289,0.03377134,-0.9455465,0.3191412,14.02399,27.59223,-29.23107,1007.842
16.371892929,-6.650588,0.179168,0.967551,0.04892513,-0.9214196,0.3105227,14.02399,27.59223,-29.23107,1007.84
16.406539440,2.809695,0.415908,2.622301,0.003463219,-0.9749043,0.269054,14.01821,27.58654,-29.67735,1007.84
16.438712120,5.266912,-0.05757209,1.641708,-0.009324529,-0.9556267,0.3059642,14.02399,27.59223,-29.23107,1007.84
16.473358631,3.239708,-0.4718672,-0.2581894,-0.005771213,-0.9458475,0.3175797,14.02399,27.59223,-29.23107,1007.84
16.505531311,4.714038,-0.1759421,0.1708197,-0.007779465,-0.9545931,0.3151163,13.2563,27.21047,-30.1179,1007.839
16.540177822,7.662698,0.119983,0.1095327,0.004456199,-0.9594568,0.3217101,14.01821,27.58654,-29.67735,1007.84
16.572349548,7.969851,0.238353,0.3546808,-0.003203791,-0.9394573,0.3296584,14.01821,27.58654,-29.67735,1007.84
16.606997013,1.273935,0.179168,0.7224029,0.009153748,-0.9442101,0.3507119,14.01821,27.58654,-29.67735,1007.84
16.639168739,-5.360549,-0.05757209,0.04824567,0.008536136,-0.9510956,0.3386109,14.38986,26.81323,-30.12185,1007.839
16.673815727,-3.763359,-0.4718672,-0.3194765,0.01022619,-0.9566627,0.3101113,13.63976,26.82965,-29.6717,1007.839
16.705987930,2.809695,-0.2351271,0.2321067,0.006778401,-0.9644118,0.3100795,13.63976,26.82965,-29.6717,1007.839
16.738159656,5.635495,-0.1759421,-0.07432837,0.0002400812,-0.9346132,0.3306302,13.63976,26.82965,-29.6717,1007.841
16.772806644,2.0111,0.356723,0.1708197,-0.002223575,-0.9442939,0.3325014,13.63976,26.82965,-29.6717,1007.841
16.804978847,-0.5689772,0.297538,0.1708197,-0.005139358,-0.9394327,0.3316047,13.63976,26.82965,-29.6717,1007.839
16.839625835,-1.859016,-0.5310522,0.2321067,0.001684023,-0.9423758,0.3319987,14.01218,27.19973,-30.12177,1007.843
16.871798038,-1.859016,-0.1759421,0.1095327,-0.002879806,-0.9507309,0.3155845,13.64002,27.21078,-29.67356,1007.841
16.906445026,0.4139094,-0.2943121,0.04824567,-0.001863272,-0.9506989,0.3203952,13.64002,27.21078,-29.67356,1007.841
16.938616753,1.089644,-0.5902371,-0.1969024,0.004083266,-0.9443591,0.328104,14.01218,27.19973,-30.12177,1007.841
16.973264217,-0.2618251,-0.1759421,0.2933938,0.00263957,-0.9414321,0.3291056,13.64002,27.21078,-29.67356,1007.841
17.005435944,-0.384686,-0.1167571,0.4772548,0.003083032,-0.9453435,0.3256952,13.64002,27.21078,-29.67356,1007.841
17.040082454,0.1067573,-0.1167571,0.2321067,0.00203204,-0.9468576,0.3174985,13.63398,26.82396,-30.11798,1007.843
17.072255134,-0.3232556,-0.05757209,0.2321067,-0.004183664,-0.9413902,0.3301336,14.0177,26.82428,-29.67363,1007.841
17.106901645,-3.087624,-0.2351271,-0.2581894,0.0005740514,-0.9424927,0.3161021,14.0177,26.82428,-29.67363,1007.841
17.139074325,0.04532692,-0.1167571,0.2321067,0.00246361,-0.9565827,0.3154864,14.01192,26.81859,-30.11991,1007.841
17.173720836,0.5982007,-0.4718672,-0.1969024,-0.0008389563,-0.9438898,0.3228518,14.39038,27.57549,-30.12556,1007.843
17.205892563,-2.350459,-0.05757209,-0.01304135,0.005038765,-0.9424484,0.3247368,14.39038,27.57549,-30.12556,1007.843
17.240540027,-2.350459,-0.05757209,-0.2581894,0.004409161,-0.9532132,0.3130859,14.01796,27.20541,-29.67549,1007.843
17.272711754,-1.244712,0.001612922,0.04824567,0.004370837,-0.9585673,0.3111142,14.0177,26.82428,-29.67363,1007.843
17.304884434,0.2296182,-0.05757209,0.2933938,0.002959493,-0.9527094,0.3145497,14.0177,26.82428,-29.67363,1007.843
17.339530945,1.089644,-0.1167571,0.2321067,0.00207898,-0.951167,0.3251746,13.64028,27.59191,-29.67542,1007.843
17.371703148,-0.4461164,0.06079794,0.04824567,0.0005538857,-0.9454125,0.3151142,14.01796,27.20541,-29.67549,1007.843
17.406349659,-1.429003,-0.05757209,0.1708197,0.0001391552,-0.9472777,0.3247427,14.01796,27.20541,-29.67549,1007.841
17.438521862,-1.674725,-0.3534971,0.1095327,0.000448799,-0.9561465,0.3077967,14.00614,26.81291,-30.56619,1007.841
17.473168850,0.1681878,-0.1759421,-0.01304135,0.000525987,-0.9560763,0.3169546,14.01218,27.19973,-30.12177,1007.841
17.505341053,-0.3232556,-0.2351271,-0.1356154,0.003471871,-0.9536567,0.317911,14.01218,27.19973,-30.12177,1007.841
17.539988041,-1.367573,-0.1167571,-0.01304135,0.003943526,-0.9527069,0.3155045,14.01192,26.81859,-30.11991,1007.84
17.572159767,-1.367573,-0.1759421,-0.01304135,0.002491606,-0.947853,0.3145941,13.63976,26.82965,-29.6717,1007.84
17.606807232,-0.9375597,-0.1759421,0.2321067,0.003451461,-0.951741,0.3145531,13.63976,26.82965,-29.6717,1007.84
17.638978958,-0.7532685,-0.05757209,0.1095327,0.0005297556,-0.9502701,0.3145925,13.63976,26.82965,-29.6717,1007.844
17.673625469,-0.8761293,-0.1759421,0.1095327,0.004860504,-0.9522818,0.3082694,13.63976,26.82965,-29.6717,1007.844
17.705798149,-1.736155,-0.1759421,0.04824567,0.001453145,-0.9561256,0.3111615,13.63976,26.82965,-29.6717,1007.844
17.740444660,-0.8761293,-0.1167571,0.1708197,0.004921637,-0.9560948,0.3173954,14.01744,26.44314,-29.67177,1007.842
17.772617340,-1.613294,-0.1167571,0.1095327,0.0005581933,-0.9502442,0.3179664,13.64605,27.5976,-29.22914,1007.844
17.804789066,-3.271915,-0.3534971,-0.2581894,0.001959111,-0.9507925,0.3107188,13.64605,27.5976,-29.22914,1007.844
17.839436054,-8.677792,-1.300457,-0.6871986,-2.017803E-05,-0.898136,0.3400913,14.02399,27.59223,-29.23107,1007.844
17.871608257,-43.07883,-0.2943121,-1.790365,-0.004269394,-0.8699747,0.4015771,13.64605,27.5976,-29.22914,1007.844
17.906254768,-107.8265,-6.390368,-10.92213,-0.07052495,-0.8410129,0.4009881,13.65735,27.22784,-28.33471,1007.842
17.938427448,-197.8835,-15.68242,-22.32152,0.02435683,-0.8504044,0.3142294,13.65735,27.22784,-28.33471,1007.842
17.973073959,-303.6052,-21.06825,-45.73316,-0.06202515,-0.9222929,-0.0003028847,13.70455,29.94044,-24.84125,1007.842
18.005246162,-325.413,-12.84153,-56.27453,0.1302428,-1.323308,-0.3297886,12.67458,33.48663,-17.01041,1007.842
18.039892673,-273.75,-9.290434,-82.3828,0.1076203,-1.269121,-0.4930106,12.67458,33.48663,-17.01041,1007.842
18.072065353,-227.0015,7.222185,-85.44715,0.0591362,-1.007019,-0.5241374,10.54127,38.22157,-6.884188,1007.842
18.106711864,-172.7584,-2.365788,-92.00487,0.1264168,-0.8512548,-0.549027,8.011401,41.03917,1.914429,1007.84
18.138884067,-161.701,-2.010678,-100.2173,0.1854608,-0.7930019,-0.6358576,8.011401,41.03917,1.914429,1007.838
18.173531055,-144.9305,-2.188233,-98.31743,0.2599261,-0.6668949,-0.6625048,4.695535,40.79081,8.56415,1007.837
18.205702781,-173.6185,-12.24968,-103.9558,0.2955897,-0.5857584,-0.7551945,0.9841375,40.14964,13.87882,1007.837
18.240350246,-181.4201,-4.378078,-100.0947,0.3393051,-0.5077867,-0.8754595,0.9841375,40.14964,13.87882,1007.837
18.272521972,-155.3122,12.25291,-83.91498,0.3304371,-0.4135984,-0.8148323,-3.106747,37.22702,19.20659,1007.835
18.307169437,-88.90591,4.973154,-79.5636,0.3141789,-0.3474098,-0.8652269,-6.814168,33.9236,24.98057,1007.833
18.339341163,-18.50666,6.09767,-72.27044,0.3925056,-0.2532017,-0.9977311,-6.814168,33.9236,24.98057,1007.831
18.371512890,13.3143,22.66947,-64.79343,0.4930675,-0.2027822,-1.1925,-9.428475,30.18314,27.62665,1007.83
18.406160354,-28.45838,53.09057,-53.33275,0.4888022,-0.1291428,-1.213061,-12.83173,27.56352,27.65708,1007.83
18.438332081,-75.57551,68.24193,-44.44613,0.5002799,-0.24056,-1.303256,-12.83173,27.56352,27.65708,1007.835
18.472979069,-43.26311,109.2571,-38.56258,0.5988877,-0.3372873,-1.194596,-14.71565,27.59605,28.11303,1007.834
18.505151272,-0.1389643,110.2041,-46.9589,0.641033,-0.35478,-1.106927,-18.93778,24.98806,28.14764,1007.834
18.539798260,12.63856,121.3901,-57.62284,0.8478655,-0.3394738,-1.065833,-18.93778,24.98806,28.14764,1007.832
18.571970463,4.099734,140.5069,-63.93541,0.6299328,-0.3072967,-0.9989464,-22.75205,23.48392,25.5605,1007.832
18.606617451,46.54815,147.2539,-72.51559,0.6638284,-0.3010112,-0.917271,-27.712,22.74596,22.01912,1007.832
18.638789177,105.9514,130.2678,-73.4349,0.5805249,-0.1230337,-0.9280403,-27.712,22.74596,22.01912,1007.83
18.673435688,117.5003,115.7675,-79.68617,0.8695181,0.0926706,-0.9048587,-32.68924,20.84836,17.20823,1007.827
18.705608368,64.11726,137.1925,-63.56769,0.6568484,0.3576937,-0.7888656,-36.17045,20.05645,11.10893,1007.825
18.740254879,-7.694905,139.9742,-32.25002,0.5566192,0.3709992,-0.7015427,-36.17045,20.05645,11.10893,1007.821
18.772427559,6.43409,151.9887,-8.654511,0.6312389,0.408716,-0.6089021,-39.26928,18.50177,5.393955,1007.821
18.807074070,20.74738,161.044,16.3506,0.5823143,0.4962958,-0.5498837,-40.08944,16.16399,0.5636539,1007.82
18.839245796,30.39195,182.5874,38.47521,0.4301309,0.4773275,-0.590072,-40.08944,16.16399,0.5636539,1007.822
18.873893261,-5.790562,177.971,46.93282,0.5137256,0.6429488,-0.7109505,-40.17554,15.69839,-6.064939,1007.82
18.906064987,-57.76069,239.8785,95.28828,0.5687265,0.7189493,-0.7648211,-39.49839,16.37196,-12.19295,1007.817
18.938237667,-197.6992,350.0218,151.3659,0.5318329,0.8160984,-0.9049017,-39.49839,16.37196,-12.19295,1007.817
18.972884178,-240.0247,470.4041,220.4977,-0.0709817,0.106556,-1.158176,-35.78019,18.54335,-17.06878,1007.813
19.005056858,337.974,-70.42856,-703.0977,-1.125811,-1.028781,-14.81852,-28.64139,23.35142,-20.63621,1007.81
19.039703369,-231.0559,-0.5902371,38.23006,0.6228511,-1.993497,-4.280256,-20.38255,37.26728,3.4191,1007.806
19.071875095,196.5612,-3.016823,8.138133,-0.5217064,-1.273936,0.1138753,-20.38255,37.26728,3.4191,1007.804
19.106522083,320.2821,-101.5007,-15.3348,0.153684,0.1716701,0.6337843,-23.80283,33.86916,2.178165,1007.804
19.138694286,13.56002,-191.9946,-17.6637,2.694994,-0.0196122,0.06238899,-23.54464,34.88862,-7.137489,1007.804
19.173341274,-80.05993,63.56631,62.25457,0.807494,-0.3348047,0.4586644,-23.54464,34.88862,-7.137489,1007.803
19.205513477,-47.31752,-73.92047,16.28931,0.6033494,-1.196587,0.04328313,-25.802,33.02653,-6.224021,1007.803
19.240160465,147.9083,-69.30404,14.26684,0.6131929,-0.8446336,0.05717881,-23.49893,34.17183,-3.563523,1007.807
19.272332191,118.6675,-72.26329,2.990023,0.808849,-0.7569174,0.4175759,-23.49893,34.17183,-3.563523,1007.807
19.306979656,69.09312,-94.39849,-12.0253,0.5559629,-0.8934625,0.297346,-23.14911,35.28144,-5.802442,1007.807
19.339151382,165.1088,-122.393,-28.57279,0.4661379,-0.7396814,0.1027962,-23.52756,34.52454,-5.796786,1007.807
19.373797893,228.8736,-160.9224,-38.25615,0.7513476,-0.2995094,0.0897857,-23.52756,34.52454,-5.796786,1007.807
19.405970573,185.8109,-147.2507,3.357745,0.8665312,-0.06895738,0.03807365,-24.70151,33.7394,-8.847473,1007.805
19.438142300,158.7201,-159.4428,21.80514,0.8866049,-0.005983366,-0.2170542,-27.36545,32.23539,-10.16533,1007.805
19.472789764,108.9,-111.3846,55.02271,0.8169011,-0.02446112,-0.1404002,-27.36545,32.23539,-10.16533,1007.805
19.504961491,54.10409,-118.1909,70.95733,0.7996385,-0.1240083,-0.3463916,-27.76201,30.31803,-11.49294,1007.805
19.539608478,101.5898,-104.9926,87.87255,0.9550263,-0.2081748,-0.3976993,-28.51764,30.7099,-11.49093,1007.811
19.571780682,69.33884,-68.83056,116.2484,0.6978199,-0.1577159,-0.2512475,-28.51764,30.7099,-11.49093,1007.809
19.606427193,5.451203,-54.68534,127.8317,0.7387917,-0.3474591,-0.2199361,-27.37727,31.84288,-11.05604,1007.807
19.638599873,12.94571,-50.12809,132.8572,0.5718653,-0.3689411,-0.1549317,-25.09679,33.72771,-10.18438,1007.807
19.673246384,-90.25738,-50.60157,162.8879,0.4230784,-0.4678077,-0.04253455,-25.09679,33.72771,-10.18438,1007.807
19.705418587,-177.55,-80.37164,135.8603,0.5759687,-1.059425,-0.3780442,-20.92584,36.72909,-9.327978,1007.809
19.740065098,-55.97921,-102.8028,122.9287,0.4978144,-1.481521,-0.5311785,-15.56989,39.76472,-4.524607,1007.809
19.772237778,111.9101,-120.3215,118.0871,0.4644046,-1.524562,-0.5953275,-15.56989,39.76472,-4.524607,1007.809
19.806884289,148.7684,-105.7028,97.73976,0.3367971,-1.214852,-0.4831337,-9.407661,41.25282,-0.6105423,1007.809
19.839056969,122.1076,-73.38781,80.57939,0.1753234,-0.9370661,-0.378599,-4.533296,42.28745,-3.701476,1007.809
19.873703480,37.88646,-56.63845,69.42516,0.176919,-0.5900127,-0.124149,-4.533296,42.28745,-3.701476,1007.813
19.905875206,-59.1736,-45.45248,94.49155,0.2818176,-0.7152756,-0.1242325,-0.438693,42.16667,-8.568081,1007.815
19.940522671,-78.52417,-47.52395,82.78573,0.03133946,-1.056858,-0.2071332,1.828172,40.99106,-8.574101,1007.815
19.972694397,10.91851,-63.9182,94.92056,0.09239407,-1.355248,-0.4048907,6.019607,41.34644,-5.983305,1007.815
20.004867077,60.73857,-72.08574,82.72444,0.03736274,-0.9213355,-0.2528261,6.019607,41.34644,-5.983305,1007.816
20.039513588,-124.0441,10.77329,33.63353,-0.5420699,-2.131704,-2.999975,9.396924,39.75085,-7.77839,1007.816
20.071686268,49.80396,-13.01909,-19.37974,0.1133922,-0.8162722,-0.4898131,13.58764,37.82023,-5.112675,1007.816
20.106332779,50.54112,46.6394,-19.07331,-0.02919628,-1.075252,-0.4915817,13.58764,37.82023,-5.112675,1007.82
20.138504982,144.6525,18.76326,-1.422643,-0.0005733131,-0.6667479,-0.2445893,12.06985,37.45489,-5.549359,1007.82
20.173151493,106.6271,8.82018,36.94303,0.3055884,-0.8751752,0.0525673,12.031,38.55931,-8.615151,1007.82
20.205323696,154.5428,17.0469,50.42618,-0.3140229,-1.21106,-0.3478537,12.031,38.55931,-8.615151,1007.82
20.239970684,30.45338,-14.91301,-11.65758,0.1866679,-0.9415885,-0.01338651,11.97905,37.36556,-12.56234,1007.824
20.272142887,-21.63961,24.9185,-4.609568,0.2768377,-0.8372763,0.03917001,13.44933,35.77975,-15.6866,1007.826
20.306789875,-28.0898,32.435,13.10238,-0.1811712,-1.162401,-0.1833664,13.44933,35.77975,-15.6866,1007.827
20.338961601,72.77894,5.920115,3.05131,-0.08119232,-1.080337,-0.1142148,13.08321,36.17763,-14.79396,1007.827
20.373609066,7.294116,18.11223,-12.33173,0.1071246,-0.8643809,0.06559414,14.20547,36.15015,-15.69233,1007.827
20.405780792,-65.43949,26.75324,-8.960947,-0.03952123,-1.008354,-0.0682203,14.20547,36.15015,-15.69233,1007.827
20.440428257,-59.05073,18.40815,-23.66983,0.01057164,-0.9715238,-0.106462,14.21073,35.39357,-15.24232,1007.829
20.472599983,-91.1174,24.50421,-24.16013,0.1043552,-0.9414064,-0.1687848,14.22858,36.17289,-13.9072,1007.829
20.504771709,-96.52328,30.95537,-16.37667,0.05139017,-0.9664534,-0.3039389,14.22858,36.17289,-13.9072,1007.831
20.539419174,-66.05379,35.21669,-11.28985,0.1022036,-1.044392,-0.4332674,13.51887,37.3717,-10.40243,1007.833
20.571590900,1.519657,33.55951,-4.854716,0.07725765,-1.066119,-0.3715178,13.17503,37.79149,-7.788424,1007.833
20.606238365,43.47663,33.79625,-8.225502,0.06746554,-0.9525357,-0.3140961,13.17503,37.79149,-7.788424,1007.835
20.638410091,-4.623384,45.10059,-9.267382,0.08796252,-0.7946215,-0.2161037,13.56556,39.32203,-6.905241,1007.835
20.673057079,-136.023,61.84995,0.7224029,0.1527171,-0.7645768,-0.3065941,13.9435,39.31666,-6.907175,1007.836
20.705229282,-173.0042,73.56858,12.48951,0.1136592,-0.9696922,-0.5580783,13.9435,39.31666,-6.907175,1007.836
20.739875793,-46.21178,48.47414,27.68869,0.05637126,-1.109447,-0.3389042,14.37318,38.98132,-2.890722,1007.838
20.772047996,68.78596,6.985445,12.36694,-0.03352016,-1.035814,-0.03765471,15.18024,39.02094,1.058182,1007.838
20.806694508,-30.05557,-10.77006,-14.53807,0.1230061,-0.6967899,-0.1582662,15.18024,39.02094,1.058182,1007.836
20.838867187,-89.39735,-1.241272,51.46806,0.3395072,-1.646034,-0.8814712,15.54059,38.61738,-0.280735,1007.836
20.873513699,-36.13719,-5.976073,-66.57075,-0.005180265,-0.4971515,-0.4104019,15.95263,39.02644,2.329401,1007.835
20.905686378,-295.5578,20.83474,-11.96401,0.2711506,-0.7051895,-0.5858054,15.95263,39.02644,2.329401,1007.836
20.940332890,-270.7399,33.79625,-6.938475,0.2036828,-0.7410491,-0.8737071,16.35316,38.28155,4.11631,1007.836
20.972504616,-172.8199,16.33668,13.71525,0.2099705,-0.6541266,-0.8643731,15.33325,38.40973,12.92022,1007.832
21.007152081,-98.55048,8.524255,22.72445,0.1975968,-0.7152659,-0.6811199,15.41653,34.68285,19.56928,1007.832
21.039323807,-56.77781,-14.14361,-9.635104,0.09169977,-0.8912073,-0.6541083,15.41653,34.68285,19.56928,1007.834
21.071496486,-14.08367,-22.01521,-19.93132,0.216755,-0.7084381,-0.7275143,16.19264,31.64497,21.30166,1007.836
21.106142998,-16.04944,-18.16818,-10.98342,0.2311756,-0.5022636,-0.7953571,16.57744,32.02723,21.8079,1007.837
21.138315677,-51.86337,-23.19891,7.034966,0.1303314,-0.4812221,-0.9012465,16.57744,32.02723,21.8079,1007.837
21.172962189,-29.80985,-24.61935,4.889921,0.1724665,-0.5537388,-0.9624874,16.20997,31.66203,22.64051,1007.841
21.205134392,-11.13501,-21.77847,2.990023,0.1675307,-0.4841314,-1.002838,18.11071,30.88429,23.52712,1007.841
21.239781380,27.01328,-32.55014,-7.796494,0.2758349,-0.5305989,-1.042309,18.11071,30.88429,23.52712,1007.839
21.271953106,28.11903,0.8893881,-1.790365,0.3417935,-0.6087459,-0.937047,17.35483,30.89503,23.53099,1007.839
21.306600094,17.24584,8.642625,-4.97729,0.08817083,-0.6034948,-0.9230692,18.4771,30.86755,22.63263,1007.839
21.338772297,23.08173,-21.30499,-11.35114,0.2567654,-0.4785001,-0.781422,18.4771,30.86755,22.63263,1007.841
21.405591011,-14.1451,5.328264,21.43742,0.1949875,-0.6080181,-0.8113153,17.72854,33.17077,23.07161,1007.844
21.440238476,38.74649,-7.692439,19.35366,0.1365661,-0.6220715,-0.846072,17.72854,33.17077,23.07161,1007.844
21.472410202,97.10538,5.387449,31.61106,0.1213221,-0.5979609,-0.813437,17.74035,33.56327,23.96231,1007.844
21.507057667,8.952737,15.80401,41.23312,-0.0431254,-0.6770018,-0.6578323,18.48545,34.68457,23.0603,1007.846
21.539229393,-31.65277,1.362868,9.241299,0.01320643,-0.6068576,-0.8409395,18.48545,34.68457,23.0603,1007.844
21.571401119,-44.86031,5.801744,-2.832244,0.1034276,-0.6474574,-0.88646,19.2308,36.187,22.15643,1007.844
21.606048584,20.31737,21.3674,21.00841,-0.02304315,-0.3438917,-0.7521554,19.64944,36.60256,25.2766,1007.844
21.638220310,-91.67027,0.475093,3.970615,-0.1247363,-0.4398283,-0.6700575,19.64944,36.60256,25.2766,1007.844
21.672867775,-45.41318,17.57956,10.28318,0.08342853,-0.6260731,-0.8957371,19.66518,35.4754,26.55727,1007.844
21.705039501,-16.04944,5.9793,5.686652,-0.07439904,-0.3669545,-0.7547583,19.32056,34.7518,29.17685,1007.843
21.739686489,-47.80897,-5.088298,3.357745,-0.05461718,-0.3425599,-0.8516237,19.32056,34.7518,29.17685,1007.843
21.771858692,-51.06478,-15.20893,-2.893532,-0.07216141,-0.5531752,-0.9211583,19.71615,34.00203,30.58123,1007.843
21.806505680,-13.46936,-14.91301,-4.854716,-0.209971,-0.4786457,-1.038312,20.48802,33.24527,31.85617,1007.843
21.838677406,42.67803,-25.86224,-15.08965,-0.1856108,-0.4594601,-1.052359,20.48802,33.24527,31.85617,1007.843
21.873323917,62.95007,-36.04206,-18.88944,-0.1843641,-0.2562319,-0.9441733,19.74319,32.50511,32.75632,1007.843
21.905496597,-5.237689,-45.80759,-16.31539,-0.03883822,-0.1568733,-0.8058962,20.47704,32.85358,31.02923,1007.843
21.940143108,-67.09811,-44.26878,-5.774022,0.008739099,-0.363223,-0.9097432,20.47704,32.85358,31.02923,1007.844
21.972315788,-64.4566,-42.13812,13.83783,0.05651201,-0.5491223,-0.9420874,20.84497,35.12364,30.12357,1007.844
22.006962299,-59.48075,-36.10125,24.37919,0.08538495,-0.5883231,-0.9716001,21.22657,33.21748,30.51347,1007.846
22.039134979,-19.6124,-28.64393,12.85723,0.02799512,-0.7830361,-1.144744,21.22657,33.21748,30.51347,1007.846
22.073781490,106.2585,-27.28268,4.215763,0.1291097,-0.4160468,-1.136396,23.88268,31.66673,31.39993,1007.846
22.105954170,99.93118,-12.78235,10.77347,0.09928361,-0.1617069,-1.092087,24.24256,29.35832,30.13408,1007.848
22.138125896,34.63065,-11.12517,19.59881,-0.05510828,-0.4154671,-0.991036,24.24256,29.35832,30.13408,1007.848
22.172772407,68.8474,-5.798518,30.81433,-0.1499525,-0.7053707,-0.7549153,24.96583,32.36254,27.43764,1007.852
22.204945087,61.78289,-6.153628,22.23415,-0.2234322,-0.5104214,-0.8244404,25.3288,34.62773,26.14945,1007.852
22.239591598,44.88953,-7.633254,21.31484,-0.2578709,-0.6009327,-0.8137793,26.07339,34.98676,25.25116,1007.852
22.271763801,35.18352,-4.733188,15.18614,-0.1848523,-0.5313805,-0.8109952,26.07339,34.98676,25.25116,1007.85
22.306410789,22.22171,12.66721,10.52833,-0.06877103,-0.6151122,-0.8942266,26.04501,35.7206,23.01604,1007.847
22.338582992,59.44854,33.08603,13.59268,-0.09097955,-0.6661163,-0.724776,25.66155,36.10142,22.56983,1007.847
22.373229503,56.13129,42.96993,1.028838,-0.05183691,-0.599484,-0.7448359,25.66155,36.10142,22.56983,1007.845
22.405401707,81.44063,30.65945,0.7836899,-0.09388816,-0.5791164,-0.6483577,25.66206,36.86369,22.56611,1007.845
22.440048694,51.76973,-6.331183,14.26684,-0.1473372,-0.6454475,-0.472476,23.75111,38.39313,20.84697,1007.845
22.472220421,104.8456,-1.359642,16.47317,0.00391798,-0.7944888,-0.6939438,23.75111,38.39313,20.84697,1007.845
22.506867885,178.0092,3.197603,15.73772,-0.01818476,-0.7597675,-0.6115115,24.09438,38.35366,18.16735,1007.843
22.539039612,131.3221,23.08377,31.05948,-0.2341586,-0.6343025,-0.5308599,24.03319,40.57874,13.31085,1007.843
22.573687076,74.49899,23.61643,15.24743,-0.3849312,-0.6484907,-0.579698,24.03319,40.57874,13.31085,1007.843
22.605858803,7.662698,24.32665,9.302587,-0.3453004,-0.6105034,-0.4115368,24.36047,41.28528,9.352427,1007.843
22.640505791,-111.0209,35.39425,27.87255,-0.06646071,-0.790668,-0.2435501,24.73314,42.0365,8.90049,1007.841
22.672677994,-159.6123,56.04982,53.85825,-0.02992168,-1.088076,-0.4555306,24.73314,42.0365,8.90049,1007.84
22.704849720,-0.9989902,36.10447,38.5365,-0.1521621,-1.277991,-0.7408174,25.16201,41.70034,12.85319,1007.84
22.739497185,171.3747,17.28364,28.85315,-0.0200871,-0.9007654,-0.7697878,25.9623,39.06715,16.43259,1007.84
22.771668911,162.4059,13.67335,24.37919,0.03853429,-0.6681437,-0.5264534,25.9623,39.06715,16.43259,1007.84
22.806315899,45.93384,24.80013,21.62128,-0.06000643,-0.6284914,-0.4832731,26.27668,38.99925,11.52157,1007.838
22.838488102,-37.12008,37.22898,22.05029,-0.07792982,-0.7413244,-0.587184,26.99397,40.47407,8.45005,1007.838
22.873135090,-47.13323,58.1213,32.46908,-0.05224947,-0.8847185,-0.5977637,26.99397,40.47407,8.45005,1007.836
22.905306816,-11.44216,70.96444,45.09421,-0.1028583,-0.9302759,-0.5586251,26.25517,40.12072,9.794621,1007.836
22.939954281,44.70523,69.30726,52.63251,-0.1793564,-0.9191877,-0.4917859,27.42784,39.0002,12.85461,1007.836
22.972126007,77.57051,61.43566,62.19329,-0.1428914,-0.8639563,-0.4184069,27.42784,39.0002,12.85461,1007.836
23.006773472,105.3371,52.02524,70.52832,-0.1278128,-0.8486393,-0.3735954,27.43888,38.2493,13.75089,1007.835
23.038945198,119.5275,39.9515,78.86336,-0.2051203,-0.7943572,-0.3078386,28.16066,37.82413,11.13496,1007.835
23.073591709,111.3572,22.9654,89.15958,-0.1362587,-0.7854992,-0.2476762,28.16066,37.82413,11.13496,1007.835
23.105764389,92.06809,27.04917,95.71729,-0.2390971,-0.858336,-0.2550291,29.27136,37.78529,9.344034,1007.835
23.140410900,90.77805,17.8163,91.85621,-0.2656433,-0.9057718,-0.2551724,31.49835,36.18956,6.279663,1007.838
23.172583580,130.8307,23.32051,95.656,-0.1818676,-0.922366,-0.1500511,31.49835,36.18956,6.279663,1007.838
23.204755306,176.9649,32.79011,94.67541,-0.2613303,-0.791409,-0.08749805,33.79303,34.21668,3.599358,1007.838
23.239402294,171.6819,37.76165,102.3363,-0.2630649,-0.6138439,0.02676987,35.2581,32.24487,0.09443474,1007.838
23.271574497,167.4432,55.75389,114.655,-0.5223125,-0.62818,0.07775268,35.2581,32.24487,0.09443474,1007.84
23.306221485,114.8588,68.83378,107.7908,-0.5842161,-0.3223035,0.1126639,37.48431,29.50574,-2.964354,1007.84
23.338393211,16.26296,43.32504,112.0196,-1.06167,-0.8204556,0.09903429,38.95934,26.40109,-5.634886,1007.84
23.373040199,-15.80372,47.46799,-3.628976,-1.208511,-1.389588,0.03160656,41.23545,21.80665,-4.731599,1007.84
23.405212402,104.8456,51.07828,8.996151,-1.152229,-1.236724,-0.313734,41.23545,21.80665,-4.731599,1007.84
23.439858913,193.6126,63.56631,21.13098,-0.7808655,-0.2994428,-0.07088246,41.60685,20.65219,-5.174231,1007.838
23.472031593,63.56438,55.87226,32.46908,-0.7933655,0.05067087,0.1307043,42.35617,19.49237,-5.618797,1007.838
23.506678104,-41.78879,65.81535,54.04211,-0.8598818,-0.2262201,0.2471322,42.35617,19.49237,-5.618797,1007.84
23.538850784,-53.46056,47.0537,42.82659,-1.114606,-0.7623389,-0.01470853,42.37248,17.98489,-4.272512,1007.842
23.573497295,60.06284,43.26586,26.46295,-0.8654212,-0.5994778,0.1168588,42.78349,16.86942,-1.654934,1007.842
23.605669975,15.28007,39.30046,40.43639,-0.8891689,-0.6552292,0.04721287,42.78349,16.86942,-1.654934,1007.838
23.640316486,18.59731,36.16365,45.89094,-0.7456038,-0.5209772,0.05131803,43.16618,15.34521,-1.203146,1007.844
23.672488213,10.36564,17.87549,32.16264,-0.7789471,-0.5958734,0.01052376,43.93284,14.20244,-0.3088703,1007.844
23.707135200,11.96283,11.36514,45.52322,-0.7987892,-0.513454,0.04850233,43.93284,14.20244,-0.3088703,1007.846
23.739307404,13.86717,6.156855,32.04007,-0.8815964,-0.5104113,-0.0509558,44.69899,12.2974,0.5891285,1007.842
23.771480083,23.75747,6.334409,40.19125,-0.8939226,-0.5709491,0.02144206,45.07616,11.14863,0.5927773,1007.846
23.806126594,37.1493,7.103815,63.72546,-0.8669372,-0.460771,0.1016285,45.07616,11.14863,0.5927773,1007.846
23.838298798,-42.09594,-15.3273,41.23312,-0.8326443,-0.4705281,0.180276,44.70875,9.640839,1.494715,1007.846
23.872945309,-30.36273,6.867074,67.8317,-0.9495077,-0.2739062,0.1738294,45.45153,7.33193,0.6094513,1007.846
23.905117989,-18.93667,11.83862,97.86234,-0.9081993,-0.4094804,-0.07156546,45.45153,7.33193,0.6094513,1007.848
23.939764500,-37.18151,15.68564,98.29134,-0.846171,-0.3886124,0.1569775,45.83395,5.426579,1.063101,1007.848
23.971936226,-33.31139,42.43727,109.0779,-0.9564402,-0.3381663,0.0186425,45.45396,2.382879,1.07992,1007.846
24.006583691,-23.78967,48.53332,140.2117,-0.9936464,-0.2587848,-0.03385784,45.45396,2.382879,1.07992,1007.846
24.038755417,-39.33157,43.68015,136.8409,-0.9367524,-0.2375281,-0.01011351,46.213,-1.49703,1.541252,1007.846
24.073402881,-34.17142,37.05143,146.463,-1.165722,0.003926069,-0.2546981,44.71993,-6.789498,3.296404,1007.846
24.105574608,35.92068,18.88163,117.5355,-0.9956076,-0.1069054,-0.1665833,44.71993,-6.789498,3.296404,1007.846
24.140222072,101.0984,10.47736,95.10442,-1.08842,-0.02037976,-0.3356318,43.60036,-11.32994,4.663378,1007.844
24.172393799,68.97025,11.54269,93.20452,-1.052852,0.2833336,-0.14066,41.71862,-16.6276,5.591658,1007.844
24.207040787,6.618381,3.671084,93.81739,-1.049264,0.08777691,-0.2579855,41.71862,-16.6276,5.591658,1007.844
24.239212990,23.14316,-3.431118,90.38531,-1.174288,0.2877981,-0.01754421,39.83841,-19.63845,6.508774,1007.844
24.273859978,27.13614,-13.7885,80.33424,-1.044715,0.04285165,-0.1012665,37.5797,-22.26362,7.362211,1007.844
24.306031704,56.19272,-31.24808,60.7224,-0.9569727,0.1313038,-0.155822,34.93811,-24.88829,7.835052,1007.844
24.338203907,42.24802,-15.7416,37.67848,-0.8720871,0.2339338,-0.3249498,34.93811,-24.88829,7.835052,1007.844
24.372850895,1.94967,0.5342781,19.41495,-0.86044,0.3290798,-0.37874,33.43032,-27.52906,8.302095,1007.844
24.405023098,-80.30565,13.67335,-2.893532,-0.8631714,0.3258134,-0.2375156,32.23326,-27.8932,8.31008,1007.844
24.439670086,-84.72864,23.49806,-13.80262,-0.994276,0.2883022,-0.02500375,32.23326,-27.8932,8.31008,1007.844
24.471841812,-20.16528,2.073088,-26.30517,-1.019781,0.2181562,0.05177586,31.4601,-29.0421,7.044441,1007.844
24.506489277,19.27305,9.17529,-17.05083,-1.076208,0.4918173,-0.0591934,31.82623,-29.43998,6.151808,1007.846
24.538661003,-76.61983,-5.798518,-38.80773,-1.138755,0.6690005,-0.09667303,31.82623,-29.43998,6.151808,1007.846
24.573308468,-213.1182,-17.87226,-57.56156,-1.036558,0.4897983,-0.04367404,31.83144,-29.05397,6.532475,1007.846
24.605480194,-243.8949,-6.035258,-73.80262,-1.029007,0.4102209,-0.03572456,32.22176,-29.49091,2.643061,1007.844
24.640127182,-292.4863,-6.686294,-104.5687,-1.00063,0.0552821,0.02856444,32.22176,-29.49091,2.643061,1007.846
24.672299385,-252.3108,39.77394,-73.86391,-0.8607408,-0.2467155,-0.01957451,34.0319,-28.83426,-3.554504,1007.846
24.706945896,-198.6821,47.34962,-96.90783,-0.8951256,-0.06924339,-0.1903464,35.48324,-25.48725,-8.424318,1007.846
24.739118099,-144.9919,68.59704,-100.7689,-0.7555342,-0.1947121,-0.06880941,35.48324,-25.48725,-8.424318,1007.846
24.773765087,-58.86644,79.84219,-102.7301,-0.8036949,-0.1976826,-0.1074265,37.71878,-21.74223,-11.13221,1007.846
24.805937290,-7.756336,90.61386,-100.3399,-0.8322501,-0.12624,-0.113801,39.62813,-18.32182,-9.819788,1007.846
24.838109493,-11.13501,86.05662,-99.78831,-0.85628,-0.1126514,-0.1925127,39.62813,-18.32182,-9.819788,1007.844
24.872756481,26.89042,84.51781,-94.51763,-0.8900285,-0.1661555,-0.2919308,41.54955,-14.12777,-7.618523,1007.844
24.904928207,39.29936,85.16884,-102.7914,-1.003,-0.05221682,-0.3178933,42.73108,-10.66901,-4.13458,1007.844
24.939575672,-26.98405,73.27265,-104.6913,-1.043987,-0.1007747,-0.4099731,42.73108,-10.66901,-4.13458,1007.844
24.971747398,-50.32761,68.24193,-102.3011,-0.9588867,-0.1831566,-0.4639842,43.90029,-8.365015,-1.537617,1007.842
25.006393909,-36.38291,62.02751,-96.0498,-0.9038916,-0.2676688,-0.4989341,44.30995,-4.149491,0.6713848,1007.841
25.038566589,-21.88533,57.82537,-89.43081,-0.8047245,-0.2801554,-0.4806823,44.30995,-4.149491,0.6713848,1007.841
25.073213100,-22.68392,54.21508,-80.29904,-0.738105,-0.3150726,-0.4338739,45.10198,-0.6967299,3.264698,1007.841
25.105385780,-16.35659,48.17821,-69.57381,-0.703738,-0.3976692,-0.4854855,44.75504,2.449653,5.48284,1007.841
25.140032291,4.038304,36.63713,-63.75155,-0.647094,-0.4535274,-0.4541806,44.75504,2.449653,5.48284,1007.841
25.172204494,17.92158,32.435,-61.85165,-0.570502,-0.5041455,-0.5488204,44.02273,4.387985,7.198772,1007.839
25.206851482,8.399863,42.25971,-60.25819,-0.4409601,-0.403556,-0.5130499,44.4198,7.067606,8.522655,1007.837
25.239023685,-89.45878,58.23967,-61.17749,-0.3653923,-0.4896256,-0.4219207,44.4198,7.067606,8.522655,1007.835
25.273670196,-147.5105,85.76069,-54.9875,-0.4914552,-0.7743023,-0.5353972,43.30486,9.387568,9.856133,1007.835
25.305842876,-81.96427,82.68307,-47.26534,-0.4302852,-1.032489,-0.6807684,42.97913,10.96782,13.8034,1007.835
25.340489387,19.02733,97.9528,-51.31028,-0.2777924,-0.8744925,-0.6129268,41.51881,11.42078,17.76204,1007.834
25.372661114,43.84521,107.0081,-70.1254,-0.06328371,-0.6969404,-0.5498407,41.51881,11.42078,17.76204,1007.832
25.404833794,11.71711,133.0495,-75.15093,0.01323863,-0.8182227,-0.6185526,39.28609,11.86823,20.44947,1007.83
25.439480305,72.59465,152.8173,-92.37259,0.09860244,-0.8213935,-0.9119489,36.31607,15.39174,24.40096,1007.83
25.471652984,103.2484,172.5851,-112.8425,0.06801604,-0.7310792,-1.053109,36.31607,15.39174,24.40096,1007.83
25.506299496,132.2436,175.6036,-118.6647,-0.07677526,-0.6629759,-1.12687,32.50406,18.90413,26.57153,1007.83
25.538472175,178.3778,156.6052,-129.5125,-0.03326245,-0.3446699,-0.9226943,26.11659,23.22197,29.26162,1007.828
25.573118687,162.8359,128.9066,-122.7097,-0.012853,-0.09704081,-0.6461036,26.11659,23.22197,29.26162,1007.827
25.605291366,151.2256,82.80145,-123.9967,0.285693,-0.04706595,-0.3930176,18.90652,30.15108,26.65094,1007.825
25.639937878,89.36515,55.93145,-101.0753,0.588801,0.06549682,-0.266224,12.0615,36.30037,23.08573,1007.823
25.706756592,51.83116,40.18824,-81.52478,0.8377418,0.294348,-0.1374844,7.115676,39.38512,20.4183,1007.821
25.738928795,128.8035,77.77071,-35.31437,0.6059662,0.4883136,0.004129215,3.308988,40.5546,18.26441,1007.82
25.773575783,104.9685,15.21216,24.25662,0.3233843,0.6486315,0.1555795,3.308988,40.5546,18.26441,1007.818
25.805747509,30.63767,-18.34574,147.4435,0.1672646,0.5914513,0.1300549,0.2353201,42.07172,14.31967,1007.813
25.840394974,-107.6422,-42.1973,235.084,-0.08180865,0.67412,0.2415104,1.330548,43.54117,11.24621,1007.813
25.872566700,-308.5811,-59.47932,266.7081,0.1250887,0.1151173,0.3940312,1.330548,43.54117,11.24621,1007.811
25.904739380,-265.3341,-70.96122,320.1503,-1.04985,-0.583279,-0.2933963,8.945523,42.34644,15.61217,1007.807
25.939385891,220.5805,-147.4874,176.371,-1.550698,-1.393001,-1.198665,18.4744,35.43547,22.16402,1007.806
25.971558571,839.0619,128.9066,-92.86288,-14.68077,-10.57973,-11.43824,18.4744,35.43547,22.16402,1007.806
26.006205082,600.2819,-259.9982,-174.0682,-9.950057,10.36206,6.900208,27.88313,26.50189,19.54454,1007.814
26.038376808,-301.578,30.0676,-109.1652,1.840902,-2.601185,2.929023,15.71248,37.64753,-16.15378,1007.814
26.073024273,-388.0106,112.5715,41.11055,0.2353779,0.561539,-0.05446908,15.71248,37.64753,-16.15378,1007.821
26.105195999,-238.5504,-28.82149,1.641708,1.28239,-0.9810904,-0.9055134,7.483909,38.23123,-9.482645,1007.825
26.139842987,116.6403,-27.51942,71.5702,0.05187269,-0.4416828,1.533427,7.640014,42.19362,2.357059,1007.832
26.172015190,-205.8694,-32.49096,29.71117,0.07818986,-1.163884,0.4841805,7.640014,42.19362,2.357059,1007.836
26.206662178,-334.1975,-18.81922,58.45478,0.4321688,-0.9614438,-0.2900987,8.779096,41.42093,2.801262,1007.836
26.238834381,-309.5025,-22.37032,78.37306,0.2206206,-0.8598143,0.03854477,10.39873,41.12471,11.14721,1007.834
26.273481369,-524.3861,9.234475,82.9083,0.2667893,-0.7234801,0.1240698,10.39873,41.12471,11.14721,1007.835
26.305653095,-665.5532,4.203749,92.77551,0.02826509,-0.3194963,-0.6396452,12.41684,37.03453,21.29495,1007.839
26.340300560,-270.3099,-28.22964,232.8777,0.3575487,-1.952533,-1.025392,15.2332,27.26208,35.03698,1007.841
26.372472286,379.2553,21.30822,141.8051,0.3027737,-1.291257,-1.475883,15.2332,27.26208,35.03698,1007.841
26.407119751,654.3406,46.93533,91.48848,0.7170163,0.3587932,-1.237195,17.52682,7.068779,38.18421,1007.845
26.439291477,-98.42762,138.6721,58.94507,-0.3200153,-0.232708,-1.128284,17.48772,7.792064,35.12028,1007.847
26.471463203,222.7306,102.4509,40.31382,-0.5654308,-0.6264112,-1.106103,17.48772,7.792064,35.12028,1007.848
26.506110668,-7.633475,-1.300457,-28.51151,-0.1264704,-1.466569,-1.134959,17.09041,21.87095,32.82196,1007.85
26.538282394,105.7671,-47.3464,7.954272,-0.09166209,-0.6874952,-0.09834654,14.80017,22.64268,31.04472,1007.854
26.572929382,-29.62556,-19.58862,-0.9323467,-0.1515948,-0.9160649,-0.3835693,15.15788,25.66446,29.30653,1007.854
26.605101585,21.66883,-53.38327,-28.69537,-0.1907378,-0.9574773,-0.4919954,15.15788,25.66446,29.30653,1007.855
26.639748573,23.08173,-44.91981,-28.0825,-0.009008469,-0.966534,-0.290362,15.15236,26.03991,28.85839,1007.855
26.671920776,-1.613294,-34.02977,-25.32458,0.08166933,-0.8152999,-0.2581494,16.64782,27.52591,27.50438,1007.857
26.706567764,-23.97396,-16.62938,-8.102928,0.1330648,-0.9385731,-0.412439,16.64782,27.52591,27.50438,1007.859
26.738739490,-20.28814,-7.514884,2.377152,0.1418091,-0.7718215,-0.4979059,16.65359,27.5316,27.95065,1007.859
26.773386955,-6.834879,-3.431118,2.43844,-0.01187377,-0.8986881,-0.4319658,16.65334,27.15046,27.95251,1007.861
26.805558681,-2.53475,-3.076008,2.806162,-0.03646737,-0.9214709,-0.4439741,16.65334,27.15046,27.95251,1007.861
26.840205193,4.591177,-3.016823,0.906264,-0.0658215,-0.9189379,-0.5121232,16.65308,26.76933,27.95437,1007.864
26.872377872,0.5367702,-0.5902371,1.519134,-0.03221137,-0.8998931,-0.412506,17.0368,26.76964,28.39872,1007.866
26.907024384,3.792582,-3.135193,-1.667791,-0.1147812,-0.9869498,-0.614411,17.0368,26.76964,28.39872,1007.868
26.939197063,-3.026194,0.8302032,-1.300069,-0.01773671,-0.9112381,-0.4267125,17.02473,25.99601,27.50988,1007.868
26.973843575,-3.88622,0.238353,-0.4420505,-0.009016235,-0.9166587,-0.4316586,17.40896,26.75859,27.9505,1007.869
27.006015778,-7.510614,-0.4718672,0.1095327,-0.008431515,-0.9020661,-0.4272057,17.40896,26.75859,27.9505,1007.869
27.038187980,-8.616361,-0.7086072,-0.1969024,0.02431379,-0.893479,-0.4255125,17.41448,26.38314,28.39865,1007.871
27.072834968,-4.500524,-0.7677922,0.844977,-0.02037824,-0.8983529,-0.4569477,17.03654,26.38851,28.40058,1007.873
27.105007171,-0.7532685,-0.7086072,0.4159678,-0.03166741,-0.9143143,-0.4569739,17.03654,26.38851,28.40058,1007.873
27.139653683,-1.674725,-0.1167571,0.2321067,-0.02427732,-0.9080005,-0.4516888,17.41422,26.00201,28.40051,1007.875
27.171825886,-1.613294,-0.1167571,0.1095327,-0.01974785,-0.9030616,-0.4377124,17.03628,26.00738,28.40244,1007.876
27.206472397,-3.94765,0.06079794,-0.2581894,-0.02276275,-0.9065111,-0.4463887,17.03628,26.00738,28.40244,1007.878
27.238645077,-0.0775339,-0.1759421,0.1095327,-0.02043908,-0.9003425,-0.4632294,17.79242,26.37778,28.39671,1007.88
27.273291588,5.328342,-0.2351271,0.7224029,-0.01921335,-0.8996367,-0.4338331,17.42578,26.01338,29.29307,1007.88
27.305464268,-2.227598,-0.1759421,0.2933938,-0.01775742,-0.9035198,-0.4329147,17.42578,26.01338,29.29307,1007.88
27.340110779,-2.841902,-0.2351271,0.2933938,-0.01948094,-0.9105185,-0.4604303,17.03025,25.62056,27.95802,1007.88
27.372283459,0.4753398,-0.2351271,0.2933938,-0.02085787,-0.9022115,-0.454083,17.79216,25.99664,28.39857,1007.882
27.406929970,1.028214,-0.05757209,0.1708197,-0.01583218,-0.9001688,-0.4377251,17.79216,25.99664,28.39857,1007.882
27.439102650,-1.121851,-0.1167571,-0.01304135,-0.02026865,-0.896319,-0.4448819,17.03628,26.00738,28.40244,1007.882
27.473749161,0.5982007,0.001612922,-0.01304135,-0.01985543,-0.9046101,-0.4497741,17.41448,26.38314,28.39865,1007.882
27.505920887,1.028214,-0.1759421,0.2321067,-0.0159355,-0.9055821,-0.4474087,17.41448,26.38314,28.39865,1007.882
27.538093567,1.273935,-0.2351271,0.2933938,-0.02035352,-0.9051004,-0.4507375,17.41974,25.62656,28.84865,1007.882
27.572740078,7.478407,-1.182087,1.519134,-0.01264591,-0.9028125,-0.4638045,17.78638,25.99096,27.95229,1007.882
27.604912281,38.74649,-4.614818,7.463975,0.001202659,-0.9225388,-0.4322844,17.78638,25.99096,27.95229,1007.878
27.639558792,94.09529,-0.4126822,11.07991,-0.09044211,-0.9780504,-0.4516489,17.40844,25.99633,27.95423,1007.878
27.671731472,197.7898,0.6526481,35.53343,-0.3118784,-1.04503,-0.4053089,18.14776,27.11193,26.60594,1007.878
27.706377983,189.3124,-48.76684,43.62332,-0.3132517,-0.9744517,-0.2543304,17.33621,28.9723,22.20145,1007.876
27.738550663,88.32084,-83.80437,69.18001,-0.4470957,-0.9305746,-0.000634054,17.33621,28.9723,22.20145,1007.876
27.773197174,-21.14816,-109.2539,61.21269,-0.4540043,-0.8946769,-0.2595894,19.53925,33.4471,16.93966,1007.876
27.805368900,2.318252,-134.3484,76.22801,-0.4000175,-0.9381104,-0.3182912,22.5394,33.00028,15.14093,1007.878
27.840016365,3.116848,-144.8241,94.98184,-0.3980374,-0.8157516,-0.3741768,22.5394,33.00028,15.14093,1007.878
27.872188091,-40.25303,-136.0055,128.6897,-0.3741668,-1.045603,-0.2678446,26.27154,31.37658,11.55879,1007.879
27.906835556,-60.83221,-89.07184,182.4997,-0.5525587,-0.7365252,-0.3335218,30.01003,29.37824,8.488541,1007.879
27.939007282,11.96283,-101.3823,175.942,-1.010961,-0.5112241,-0.1138613,30.01003,29.37824,8.488541,1007.879
27.973654270,-49.34473,-112.805,237.4129,-0.865162,-0.4159321,0.0007616894,35.33797,24.70585,6.698351,1007.881
28.005826473,-76.80412,-74.68988,215.1657,-0.8142582,-0.2425564,0.1092019,39.08018,19.66413,4.089272,1007.881
28.040473461,-210.4153,1.362868,313.2862,-0.1712201,-0.8430845,0.3821486,39.08018,19.66413,4.089272,1007.881
28.072645187,-398.0852,-23.96832,177.9032,-0.1710698,-1.00963,0.2482243,42.07075,12.35204,1.941505,1007.881
28.104817867,-91.54742,-15.56404,45.5845,0.4555728,-2.278706,-0.5845923,43.94901,3.934572,1.526493,1007.881
28.139464378,211.796,115.6491,71.20248,-0.1714209,-0.7414188,-0.1558868,43.94901,3.934572,1.526493,1007.881
28.171636581,21.05453,49.53947,8.873577,-1.165804,0.3766833,-0.4449061,43.5732,-1.453765,2.001068,1007.881
28.238455295,-17.03233,60.19277,24.07276,-1.443818,-0.506066,-0.2905296,42.85617,-2.547447,5.070728,1007.883
28.273102760,-27.41407,37.93921,30.81433,-1.146582,-0.5045606,-0.3443827,43.26744,-3.281785,7.686445,1007.886
28.305274486,-14.57511,36.22284,0.4159678,-0.6794838,-0.2471986,-0.3432454,42.91762,-4.391393,9.925364,1007.892
28.339921951,13.00714,28.4696,-23.24082,-0.5360155,-0.2654336,-0.1606107,42.91762,-4.391393,9.925364,1007.892
28.372093677,24.74035,12.84476,-29.18566,-0.8431349,-0.3808267,-0.5312819,41.79459,-5.507318,10.82931,1007.892
28.406740665,21.97599,-12.24968,-13.49619,-1.029435,-0.5771681,-0.3060684,42.18402,-4.358728,11.6506,1007.892
28.438912868,9.382751,-13.3742,-8.041641,-0.9144926,-0.4343616,-0.3440416,42.18402,-4.358728,11.6506,1007.892
28.473559856,5.512634,-23.08054,-2.403235,-0.8123381,-0.4647005,-0.3100589,41.80114,-4.358233,11.27001,1007.892
28.505732059,-1.920446,-28.99904,8.444568,-0.7860685,-0.4572064,-0.2654163,41.7953,-3.22133,10.75439,1007.892
28.540379047,-4.561954,-30.12356,12.79595,-0.9442505,-0.4506088,-0.3930618,41.7953,-3.22133,10.75439,1007.892
28.572550774,-17.76949,-42.01975,29.34344,-0.8056167,-0.5156844,-0.1823301,41.77854,-3.618705,9.481165,1007.892
28.604722977,-20.10385,-41.54627,31.54978,-0.7579533,-0.4987338,-0.09346519,42.51682,-4.02763,8.140316,1007.894
28.639369965,-12.36362,-50.4832,45.64579,-0.9841918,-0.4788357,-0.4285897,42.51682,-4.02763,8.140316,1007.894
28.671541691,0.7210615,-65.45702,58.14834,-0.9689043,-0.400577,-0.2150435,42.49872,-5.188086,6.807055,1007.894
28.706189156,31.62056,-66.28561,33.87868,-0.7596699,-0.3847592,-0.2949494,42.09194,-6.353729,4.646923,1007.892
28.738360882,24.61749,-72.55922,28.24028,-1.008311,-0.1156355,-0.04796486,42.09194,-6.353729,4.646923,1007.892
28.773008347,52.69119,-83.03497,11.75407,-1.011965,-0.1454818,0.1706509,42.06177,-8.287821,2.424824,1007.896
28.805180073,42.55517,-56.16497,-6.877188,-1.094649,-0.2755681,-0.1983796,42.3988,-10.23784,-0.6280155,1007.898
28.839827061,48.45249,-64.68761,-6.325605,-0.8986332,-0.1807175,0.143275,42.36991,-10.26626,-2.85942,1007.898
28.871999264,22.59029,-44.50552,-24.95686,-0.9599459,-0.4760108,0.01657481,42.36991,-10.26626,-2.85942,1007.896
28.906646252,42.18659,-58.47318,-24.09884,-0.7932455,-0.3190009,0.09150565,41.97572,-9.896004,-4.134434,1007.901
28.938818455,32.23486,-33.4971,-30.9017,-0.8715523,-0.285045,0.1643342,42.33132,-8.780712,-5.927072,1007.901
28.973465443,18.96589,-13.43338,-34.57892,-0.8732039,-0.2935411,0.3204474,42.33132,-8.780712,-5.927072,1007.901
29.005637169,4.468317,10.7141,-43.28168,-1.096385,-0.2669569,0.2880451,41.93656,-8.03013,-7.267702,1007.903
29.040284633,12.45427,16.27749,-61.72908,-1.082059,-0.395795,0.08055349,42.3213,-6.505281,-6.830798,1007.905
29.072456360,37.08786,8.70181,-83.85369,-1.083045,-0.3237472,0.04452469,42.3213,-6.505281,-6.830798,1007.905
29.107102871,36.10498,-4.496448,-84.71171,-0.8124886,-0.6000146,0.1443164,42.70605,-4.98043,-6.393894,1007.905
29.139275551,44.33665,-19.17433,-77.54113,-0.9873964,-0.5408224,0.09148857,43.08605,-1.936731,-6.410714,1007.903
29.171447277,34.99923,-59.47932,-71.10599,-0.9228009,-0.7401341,0.09309868,43.08605,-1.936731,-6.410714,1007.905
29.206094742,56.49987,-51.07505,-71.65757,-1.021451,-0.8436431,0.07629587,42.69836,0.7252023,-7.314366,1007.901
29.238266468,119.2203,-52.96898,-86.85675,-1.203865,-0.5890366,0.3717067,42.29419,3.434415,-9.493417,1007.901
29.272913456,74.68328,2.724123,-130.248,-1.221183,0.5540238,0.4873316,42.29419,3.434415,-9.493417,1007.901
29.305085659,-775.7593,189.4529,-147.4083,-1.120802,1.088964,-0.1960442,41.89468,5.703845,-11.28777,1007.901
29.339732647,-981.3055,247.4542,-184.3644,-1.358911,-0.2990757,-1.088771,40.84299,8.847795,-5.112679,1007.903
29.371904850,-549.2654,283.0244,-63.07739,-0.8534391,-1.713875,-0.8805391,40.84299,8.847795,-5.112679,1007.903
29.406551838,-186.2731,208.3329,-103.0365,-1.843968,-1.508519,-0.4430339,39.59861,16.36906,15.13359,1007.903
29.438723564,25.53895,143.6436,-77.35726,-0.891963,-1.718681,-0.5842716,34.09151,12.03841,27.9358,1007.901
29.473370075,215.3589,36.28202,-114.0682,-1.03067,-0.6830034,0.004924285,34.09151,12.03841,27.9358,1007.901
29.505542755,76.40334,-96.17404,-107.8782,-0.8893231,-0.9134831,-0.02046669,29.17072,9.878332,32.37148,1007.901
29.540189266,159.4572,-226.0851,-65.34501,-0.4376412,-1.001761,-0.3512408,26.13058,18.28429,30.62465,1007.899
29.572361946,225.1878,-310.483,-22.81181,-0.6055266,-0.8639047,-0.7100373,26.13058,18.28429,30.62465,1007.897
29.607008457,124.7491,-348.4797,35.71729,-1.059923,-0.6742379,-1.332761,28.67054,23.09425,22.17134,1007.897
29.639181137,-58.80501,-373.5742,-5.774022,-1.236175,-0.7626773,-1.648519,34.21751,27.40126,7.583687,1007.897
29.673827648,-96.769,-335.2815,-97.15298,-0.7532539,-1.072466,-2.045517,34.21751,27.40126,7.583687,1007.897
29.706000328,-321.1129,-276.5699,-274.9467,-0.8153809,0.3437412,-2.226061,36.34369,27.99163,-3.397389,1007.896
29.738172054,-937.5056,-221.4095,-398.5013,0.03888392,-0.3286923,-1.637077,33.25795,28.73512,-8.230971,1007.892
29.772819042,-294.5135,103.5754,-312.0866,-0.5438818,-1.930075,-0.5820323,23.24192,38.26937,10.71196,1007.885
29.804991245,443.9415,10.24062,-289.4104,-1.189168,-0.9268085,-0.620278,23.24192,38.26937,10.71196,1007.88
29.839637756,508.0134,-130.5605,-211.8823,-1.065271,0.7466784,-0.7397056,11.58249,38.1107,15.17282,1007.88
29.871809959,67.43449,-195.1906,-178.9099,-0.5922231,0.6781706,-0.5697185,1.537053,43.74801,-2.018493,1007.876
29.906457424,-109.6694,-208.448,-171.0651,-0.3529382,0.3083591,-0.66176,1.537053,43.74801,-2.018493,1007.873
29.938629150,-113.4166,-197.6171,-145.9987,-0.171927,0.05790676,-0.545014,-6.422223,43.45769,-3.697389,1007.871
29.973275661,-72.44256,-188.2067,-117.0713,0.014261,-0.08524428,-0.7354292,-13.13485,42.88139,3.354124,1007.869
30.005448341,-21.63961,-172.5227,-86.48903,-0.009666146,-0.03101718,-0.7053569,-13.13485,42.88139,3.354124,1007.869
30.040094852,-59.23502,-160.4489,-61.30006,0.0884581,-0.1014758,-0.8413312,-17.684,39.94799,7.34531,1007.866
30.072267532,-78.09415,-127.187,-21.03449,0.07387716,0.02835908,-1.071485,-19.14587,38.11415,11.31512,1007.864
30.106914043,-164.3425,-93.51071,2.928736,0.03061859,-0.2414709,-1.094514,-19.14587,38.11415,11.31512,1007.864
30.139086723,-136.8831,-75.04499,25.42107,0.1319916,-0.76948,-1.14512,-19.8453,37.41866,15.72176,1007.862
30.173733234,16.44725,-10.65169,45.40064,0.001343433,-0.801591,-1.113318,-18.63322,34.81339,21.91316,1007.861
30.205904960,111.8487,-1.537197,44.72649,-0.01361798,-0.7105284,-1.02133,-18.63322,34.81339,21.91316,1007.861
30.238077640,112.2173,18.17141,47.91341,-0.08417085,-0.8183088,-0.9444399,-16.37683,34.00835,21.07647,1007.859
30.272724151,116.3945,-1.596382,24.8082,-0.01988798,-0.8130209,-0.8466682,-15.28743,36.6147,17.4874,1007.857
30.304896355,102.2041,-4.614818,25.05335,0.1220644,-0.7336524,-0.6593587,-15.28743,36.6147,17.4874,1007.855
30.339543342,-5.42198,0.5934631,34.30769,-0.1302894,-0.8891308,-0.5908059,-14.51845,38.45839,13.52113,1007.855
30.371715546,33.64776,-27.16431,13.34753,-0.07776998,-1.047091,-0.710688,-13.03322,40.69611,11.33459,1007.855
30.406362057,95.13961,-29.41334,6.728531,-0.03990258,-0.9029464,-0.6876811,-13.03322,40.69611,11.33459,1007.851
30.438534737,99.68546,-45.68922,15.67644,0.1320769,-0.836434,-0.6376455,-12.66683,40.67937,10.44009,1007.851
30.473181248,104.1699,-36.57473,26.52424,0.3711974,-0.8312575,-0.756478,-12.32882,41.39647,7.310471,1007.853
30.505352974,25.41609,-16.09671,27.25969,0.4515051,-0.9923572,-0.7619294,-12.32882,41.39647,7.310471,1007.849
30.540000439,62.09004,6.334409,29.64988,0.391311,-1.049089,-1.045251,-10.86169,42.47373,3.790663,1007.851
30.572172165,145.3282,47.70473,36.02373,0.488009,-0.952415,-0.9089507,-9.377743,42.80577,1.613417,1007.851
30.606819630,97.10538,76.76457,49.32301,0.3094756,-1.184914,-0.9617394,-9.377743,42.80577,1.613417,1007.851
30.638991356,257.2545,112.0388,37.37204,0.4491228,-0.9389879,-0.955231,-7.934237,43.09803,-3.687792,1007.849
30.673638344,177.7635,165.4237,23.09217,-0.1442741,-0.5583343,-0.4404564,-4.240687,42.95988,-10.33759,1007.851
30.705810547,10.54993,170.8096,14.94099,-0.566747,-0.8262077,-0.6430905,-4.240687,42.95988,-10.33759,1007.849
30.740457535,90.34804,165.7788,-1.361356,-0.7803869,-0.8792135,-0.604902,0.9635935,41.27573,-16.98767,1007.849
30.772629738,118.606,113.6368,-16.43796,-1.221787,-0.4642123,-0.1958564,5.516974,42.37177,-15.67762,1007.845
30.804801464,25.60038,114.5246,-30.96299,-0.6136174,-0.6789557,-0.01965985,5.516974,42.37177,-15.67762,1007.845
30.839448452,64.67013,103.6346,36.1463,-0.8086506,-0.3365117,-0.04923882,7.757628,42.69389,-17.79498,1007.845
30.871620655,-16.47945,56.16819,17.14733,-1.025497,-0.2884678,0.3137163,7.762582,42.69876,-17.41245,1007.845
30.906267643,-31.03846,75.34413,49.3843,-0.9901774,-0.6396562,-0.0755901,10.04596,41.53939,-16.14338,1007.845
30.938439369,-84.79007,48.29658,39.70095,-1.043292,-0.4571663,0.07775781,10.04596,41.53939,-16.14338,1007.845
30.973086834,-299.4894,32.13907,-43.15911,-1.39709,-1.786897,-0.4403407,11.97084,42.30892,-13.47909,1007.845
31.005258560,90.10232,60.19277,-8.041641,0.001120759,-1.388587,-0.5069796,13.21356,43.5426,-5.138652,1007.841
31.039906025,204.67,62.32343,44.05233,-0.7568267,-0.3231408,-0.04431016,13.21356,43.5426,-5.138652,1007.839
31.072077751,-66.79095,4.736414,-13.06718,-0.4980526,-0.9295797,0.03262559,12.02908,44.27063,-9.089343,1007.841
31.106724739,9.628471,54.1559,52.6938,-0.1244121,-1.224849,-0.2514088,13.91197,42.71357,-9.53785,1007.841
31.138896942,67.25021,54.57019,63.84803,-0.5162601,-0.8304964,-0.03338559,13.91197,42.71357,-9.53785,1007.839
31.173543930,-26.98405,26.22058,60.04824,-0.2915318,-0.8183267,-0.009836234,14.67363,42.70852,-9.095438,1007.839
31.205716133,-20.53386,35.86773,69.24129,-0.3814824,-1.10984,-0.2943338,17.31844,41.52753,-9.103392,1007.839
31.240362644,47.83818,39.47802,86.89196,-0.165142,-0.9991021,-0.2713396,17.31844,41.52753,-9.103392,1007.839
31.272534847,105.9514,70.84607,99.94609,-0.2064236,-0.9890448,-0.2525555,19.21365,41.12524,-8.664921,1007.839
31.307181358,111.9715,81.73611,62.07071,-0.08884062,-0.89011,-0.1872851,22.98046,39.53566,-9.569377,1007.839
31.339354038,114.1216,120.5023,49.81331,-0.3237544,-0.8826797,-0.4453116,22.98046,39.53566,-9.569377,1007.839
31.371525764,80.5806,127.2494,9.302587,-0.4698711,-0.8634704,-0.1883301,25.97855,36.03976,-11.35322,1007.837
31.406173229,35.12209,164.3584,-7.551345,-0.6676634,-0.8042295,-0.06067627,28.2562,33.73212,-10.4611,1007.836
31.438344955,145.7583,126.1249,-43.83326,-0.8261199,-0.5859311,0.1995077,28.2562,33.73212,-10.4611,1007.836
31.472992420,47.03959,68.89297,-55.96809,-1.220338,0.03384094,0.3167455,29.0289,32.97617,-9.122406,1007.836
31.505164146,-239.0418,63.50713,-106.1622,-1.029552,-0.7558212,-0.8146036,27.89534,33.37341,-9.118465,1007.834
31.539810657,-19.24382,34.32892,-60.13561,-0.4894556,-0.9461951,-0.7951847,27.89534,33.37341,-9.118465,1007.834
31.571983337,177.6407,2.132273,-34.08863,-0.373181,-0.9918854,-0.3507968,26.46545,36.1416,-2.939581,1007.832
31.606629848,152.3927,-45.45248,-11.65758,-0.4379046,-1.080451,-0.1701732,24.55944,37.67592,-4.276196,1007.832
31.638802528,109.2072,-110.9111,9.241299,-0.5164858,-0.6358606,-0.09636682,24.55944,37.67592,-4.276196,1007.832
31.673449039,55.14841,-103.9865,59.3128,-0.4570397,-0.9693791,-0.003753169,23.72376,37.98901,-10.45836,1007.832
31.705621242,-39.76158,-124.8788,95.656,-0.4377725,-0.8050703,0.2933693,22.52669,37.18113,-15.29417,1007.834
31.740267754,-132.5215,-100.4945,103.7459,-0.4686627,-0.964033,0.1785952,22.52669,37.18113,-15.29417,1007.832
31.772440433,-234.6803,-80.1349,120.2321,-0.4365635,-0.8594318,0.2312139,23.63585,34.85548,-17.07393,1007.834
31.807086945,-281.9203,-51.43016,139.5988,-0.431169,-0.797388,-0.02812264,25.18176,34.10585,-14.40026,1007.834
31.839259148,-257.8395,-24.50098,165.6458,-0.8077038,-0.4998772,-0.1479583,25.18176,34.10585,-14.40026,1007.834
31.871431351,-293.6535,-59.47932,105.7071,-0.7730826,-1.022884,-0.5372287,28.6685,34.52232,-7.852828,1007.832
31.906077862,34.50779,-52.90979,83.15345,-0.4204902,-1.219647,-0.5860028,32.53246,32.64743,-1.232409,1007.834
31.938250542,153.007,-54.56697,100.4977,-0.5385125,-0.2742523,-0.04690822,32.53246,32.64743,-1.232409,1007.834
31.972897053,-44.06171,-51.60772,89.037,-0.5769867,-0.4763444,-0.3465729,36.36675,29.15696,-1.681602,1007.836
32.005069733,44.39808,-33.08281,85.66621,-0.6844035,-0.6511006,-0.7335749,38.20899,26.03638,-5.182877,1007.836
32.039716244,60.73857,-58.59155,74.08297,-0.753852,-0.003326433,0.3294383,39.69584,23.32423,-6.962709,1007.834
32.071888923,-57.14639,-48.41173,62.74487,-0.9308913,-0.3693053,-0.3525102,39.69584,23.32423,-6.962709,1007.834
32.106535435,26.95185,-37.8768,42.52015,-1.021973,-0.618179,-0.2693622,41.1717,20.2204,-9.569489,1007.834
32.138707161,60.67714,-34.26651,22.84702,-1.055157,-0.06187481,0.1587292,42.29267,18.28725,-10.45855,1007.834
32.173354149,-70.96822,-20.23966,9.854169,-0.9046625,-0.345519,-0.1462631,42.29267,18.28725,-10.45855,1007.836
32.205526352,6.249799,-19.05596,5.073781,-0.935677,-0.4912042,-0.04981083,41.89033,16.36421,-12.23243,1007.836
32.240173340,0.659631,-15.80078,3.786754,-0.8451525,-0.2100668,-0.0406258,41.88481,16.73966,-12.68057,1007.834
32.272345543,-23.35966,-23.79076,6.360809,-0.960714,-0.359723,-0.07307523,41.88481,16.73966,-12.68057,1007.834
32.306992531,-2.964763,-22.13358,8.628428,-0.9898339,-0.5130951,-0.1540799,41.8796,16.35366,-13.06124,1007.836
32.339164257,19.5802,-19.2927,2.867449,-0.9723809,-0.3205296,0.02954063,41.49588,16.35334,-13.50559,1007.838
32.373811722,1.519657,-12.30887,-3.016105,-0.9837725,-0.4240354,-0.05652029,41.49588,16.35334,-13.50559,1007.838
32.405983448,25.60038,-9.645544,-3.13868,-0.898394,-0.3993326,-0.07109129,41.48407,15.96084,-14.39629,1007.838
32.438155651,52.75262,-26.33572,0.04824567,-0.8839282,-0.4136618,0.03132148,40.71637,15.57907,-15.28312,1007.836
32.472802639,63.44151,-30.00519,8.19942,-0.9322299,-0.4297796,-0.07584657,40.71637,15.57907,-15.28312,1007.836
32.504974365,70.75174,-24.97446,18.49564,-0.9301903,-0.4471554,0.001111063,40.69878,15.18088,-16.6201,1007.835
32.539621830,105.0299,-26.75001,14.26684,-0.8217917,-0.3360058,0.07090584,40.67681,14.3975,-18.27399,1007.836
32.571793556,126.2234,-26.92757,8.996151,-0.8004106,-0.1008462,0.1786849,40.67681,14.3975,-18.27399,1007.836
32.606441021,72.96323,-31.9583,-1.729078,-0.9189188,-0.1634998,0.1599942,40.26292,12.46309,-20.94044,1007.835
32.638612747,104.7842,-33.43792,-9.635104,-0.7811488,-0.02045907,0.1671179,39.10501,9.789335,-22.64298,1007.835
32.673259735,-6.097714,-24.4418,-18.46043,-0.8538498,0.008888101,0.2123822,39.10501,9.789335,-22.64298,1007.835
32.705431938,-41.17448,-25.2112,-27.34705,-0.8847156,-0.2889114,0.283961,38.32524,8.633932,-24.41865,1007.833
32.740078926,-19.24382,-27.51942,-33.16932,-0.8471152,-0.316639,0.3002515,37.56359,8.638985,-24.86106,1007.833
32.772250652,-16.54088,-23.61321,-32.92418,-0.8288265,-0.3971981,0.2507348,37.56359,8.638985,-24.86106,1007.835
32.806897163,-6.773449,-22.25195,-36.66268,-0.8134075,-0.2675614,0.4550635,36.80848,9.793121,-24.86278,1007.835
32.839069843,-53.27628,-8.165918,-47.69435,-0.8965929,-0.5060142,0.1950401,36.04233,11.69816,-25.76078,1007.835
32.873716354,3.608291,-5.088298,-57.74542,-0.8625711,-0.5044496,0.2940275,36.04233,11.69816,-25.76078,1007.833
32.905889034,-46.88751,1.362868,-43.34297,-0.7875752,-0.6001897,0.2636184,36.04939,13.60951,-25.3238,1007.833
32.938060760,4.222595,2.191458,-51.678,-0.789913,-0.7445598,0.1713521,34.9116,16.28786,-25.7773,1007.833
32.972708225,39.05364,7.39974,-42.85267,-0.826873,-0.5186196,0.3678055,34.9116,16.28786,-25.7773,1007.833
33.004879951,-13.53079,21.90007,-35.74338,-0.8909564,-0.6827829,0.3125841,34.5465,18.21027,-24.89211,1007.833
33.039526462,37.70217,27.81857,-58.05185,-0.7573718,-0.8063131,0.2409113,33.77933,18.59077,-25.78267,1007.833
33.071699142,71.12032,43.97608,-55.96809,-0.7361509,-0.4953789,0.2929226,33.77933,18.59077,-25.78267,1007.829
33.106345653,2.871126,63.50713,-60.62591,-0.7504414,-0.3968614,0.3449601,33.42001,20.51886,-24.45119,1007.829
33.138518333,-35.52288,83.21574,-54.74236,-0.9359385,-0.5438544,0.2351013,34.18718,20.13836,-23.56064,1007.835
33.173164844,-48.11612,95.70377,-47.81692,-0.9555209,-0.5057244,0.3835722,34.2218,21.31506,-20.95229,1007.835
33.239984035,-66.42238,0.7118331,-66.69332,-0.9757925,-0.5901555,0.625511,35.7805,23.62505,-17.4647,1007.835
33.272156238,40.34368,-46.10351,-66.20303,-0.9646251,-0.06466041,0.4224792,35.055,27.0936,-15.30993,1007.835
33.306802749,-231.7931,-51.48935,-82.32152,-0.8160473,-0.02698832,0.4310434,35.055,27.0936,-15.30993,1007.835
33.338974953,-393.9079,-21.60092,-76.74439,-0.7260032,-0.8466646,-0.1882116,33.53901,29.39619,-15.75964,1007.832
33.373621940,-191.8633,0.415908,-50.51355,-0.6560271,-1.235438,-0.2677435,32.44712,33.32523,-7.866584,1007.83
33.405793667,-13.16221,-3.490303,-48.24593,-0.7547775,-0.7750871,0.01171277,32.44712,33.32523,-7.866584,1007.829
33.440441131,-27.10691,-53.32409,-36.04981,-0.8527692,-0.7300249,0.001430644,30.99515,37.59521,-3.480266,1007.829
33.472612858,51.27829,-86.70444,-30.84041,-0.775201,-0.9859776,-0.2843369,30.97338,38.33555,-5.205355,1007.829
33.504785538,133.9022,-99.19247,-31.02427,-0.7397951,-0.8590993,-0.4879891,30.97338,38.33555,-5.205355,1007.827
33.539432049,58.95709,-89.6045,-17.90885,-0.517826,-0.5232539,-0.6010435,29.38232,39.42165,-11.38738,1007.827
33.571603775,-99.10336,-43.44019,-20.91191,-0.4374786,-0.6515468,-0.443309,27.41261,38.22713,-17.49254,1007.827
33.606251240,-83.62289,-13.72931,-30.28883,-0.4822172,-0.9315764,-0.4051941,27.41261,38.22713,-17.49254,1007.827
33.638422966,37.02643,6.689519,-43.77198,-0.3523514,-0.782894,-0.2379264,24.77802,38.6564,-16.65206,1007.827
33.673070431,50.17254,20.47963,-42.05594,-0.4802698,-0.4382027,-0.1215852,24.03421,39.44077,-15.75935,1007.827
33.705242157,-23.66681,11.95699,-37.82714,-0.4442194,-0.3587609,0.006945178,24.03421,39.44077,-15.75935,1007.827
33.739889145,-65.31663,23.02458,-44.1397,-0.3551732,-0.4942042,-0.1906941,21.36088,38.68929,-17.84599,1007.825
33.772061348,-50.81906,37.22898,-41.87208,-0.3554527,-0.4605713,-0.2983821,19.49868,39.12406,-15.73429,1007.823
33.806708336,-129.6957,50.95991,-46.40732,-0.3891635,-0.5464776,-0.3195018,19.49868,39.12406,-15.73429,1007.822
33.838880062,-132.4601,61.2581,-50.02325,-0.3399268,-0.7849812,-0.5007492,17.64391,39.56615,-13.04879,1007.822
33.873527527,-77.29556,66.82149,-50.88127,-0.1762972,-0.8184633,-0.583046,15.82793,40.0464,-7.366846,1007.823
33.905699253,-32.69709,83.3933,-41.44307,-0.2068994,-0.7359005,-0.7223416,15.82793,40.0464,-7.366846,1007.822
33.940345764,-37.67295,66.82149,-49.47167,-0.184695,-0.821825,-0.7097612,14.74586,39.73254,-3.342658,1007.822
33.972518444,57.78991,64.45409,-40.21733,-0.1567592,-0.6811726,-0.7054883,12.50025,39.40554,-1.607825,1007.822
34.004690170,167.0132,52.20279,42.39758,-0.338906,-0.06732891,-0.842846,12.50025,39.40554,-1.607825,1007.822
34.039337635,79.9663,70.01748,-70.18668,0.02224601,-0.6812505,-0.6001554,10.60952,37.90785,-1.590714,1007.823
34.071509361,150.3655,75.0482,29.22087,-0.3500317,-1.246831,-0.6668962,10.19697,36.73652,-4.197126,1007.823
34.106156826,104.1085,47.0537,-39.60446,0.1170605,-0.4353809,-0.06302973,10.19697,36.73652,-4.197126,1007.823
34.172975063,-59.1736,11.8978,-19.25717,0.9010552,-0.9836687,-0.2893551,6.312337,33.63962,-12.1322,1007.825
34.205147743,-102.9735,134.2924,18.74079,-0.178836,-0.9193475,-0.1972904,5.957507,33.66773,-10.34514,1007.825
34.239794254,-127.6071,30.0676,-32.55645,-0.5429086,-0.9015332,-0.3248502,5.957507,33.66773,-10.34514,1007.823
34.271966457,-89.88879,27.10835,-21.21835,0.06309118,-0.9317045,-0.3220776,7.526992,34.8457,-5.959408,1007.823
34.306613445,-23.8511,25.80628,-13.86391,-0.03752168,-0.8891008,-0.5270833,7.566613,34.88468,-2.899199,1007.819
34.338785648,-24.89542,7.163,-20.0539,0.2048288,-0.9649412,-0.5126179,7.566613,34.88468,-2.899199,1007.819
34.373432159,-4.500524,21.24903,-22.13766,0.2879199,-0.8994678,-0.5287595,7.206523,35.66936,-1.562143,1007.819
34.405604362,18.96589,18.52652,-15.15094,0.2925736,-0.8450171,-0.6401779,6.834363,35.68042,-1.113931,1007.819
34.440251350,0.5982007,21.54496,-14.41549,0.235179,-0.8132395,-0.4586306,6.834363,35.68042,-1.113931,1007.819
34.472423077,2.625404,10.35899,8.505855,0.1520005,-0.9483891,-0.4772846,6.462716,36.45374,-0.6694374,1007.819
34.507070541,22.406,37.5841,23.33731,0.2521573,-0.8733419,-0.4997724,6.829356,36.81814,-1.565792,1007.819
34.539242268,-7.756336,60.96218,16.84089,-0.008919294,-0.8801907,-0.6121086,6.829356,36.81814,-1.565792,1007.819
34.571414947,-18.9981,40.89846,19.59881,-0.1509947,-1.004458,-0.3274277,7.568158,37.17148,-2.910363,1007.821
34.606061458,16.81583,23.32051,32.22393,-0.03840427,-0.9921233,-0.2917446,9.469668,37.53714,-2.029332,1007.821
34.638233185,25.29323,29.23901,38.9655,-0.1617814,-0.9537141,-0.2999167,9.469668,37.53714,-2.029332,1007.825
34.672880649,1.581087,4.381304,4.154476,-0.2750076,-0.9434908,-0.306006,9.847608,37.53177,-2.031266,1007.825
34.705052376,-73.67117,-4.496448,-20.0539,-0.1234467,-0.8656096,-0.3684741,11.73178,37.88037,-2.489077,1007.825
34.739699840,-95.23324,2.901679,-23.85369,-0.04746088,-0.8621355,-0.5614722,11.73178,37.88037,-2.489077,1007.825
34.771871567,-89.27449,18.46734,-22.32152,0.07678056,-0.8227966,-0.6042412,12.1331,38.27888,-0.7077484,1007.827
34.806518555,-112.5566,21.48577,-21.52479,0.04415206,-0.8829819,-0.6251589,11.79452,37.94209,2.356255,1007.827
34.838690758,-77.60271,29.29819,-17.60242,0.1526996,-1.015191,-0.7684875,11.79452,37.94209,2.356255,1007.827
34.873337746,-26.24689,33.91462,-5.222438,0.1163378,-0.8635484,-0.6391682,10.7014,38.37913,5.484161,1007.827
34.905509472,-52.84626,37.1698,-2.158087,0.143768,-0.7824261,-0.5500675,9.967296,37.64953,7.21312,1007.827
34.940156460,-122.3855,33.38196,8.873577,0.1519993,-0.6926194,-0.5431379,9.967296,37.64953,7.21312,1007.827
34.972328663,-144.6847,28.05531,11.44763,0.2032803,-0.8909873,-0.6165878,8.856336,37.30724,9.005903,1007.829
35.006975174,-73.85545,13.55498,3.480319,0.2059083,-0.9561104,-0.5626831,8.907254,36.97646,12.96054,1007.829
35.039147854,26.33755,-1.241272,-2.70967,0.2275312,-0.7448345,-0.5307772,8.907254,36.97646,12.96054,1007.83
35.073794365,16.26296,-18.16818,-5.345012,0.1383603,-0.4957912,-0.519216,8.184497,34.7345,15.65325,1007.829
35.105967045,4.406886,-41.60545,-10.98342,0.1224405,-0.5162626,-0.6035862,7.422841,34.73956,15.21084,1007.829
35.138138771,16.50868,-50.95668,-8.838372,0.2467759,-0.4565656,-0.5869021,7.422841,34.73956,15.21084,1007.83
35.172785282,7.724129,-49.77298,5.625365,0.168598,-0.5669303,-0.6613104,7.417321,35.115,14.7627,1007.83
35.239604473,53.48978,-48.88521,26.58553,0.04275213,-0.5497748,-0.7207267,8.899932,34.68397,12.52542,1007.832
35.271777153,-25.38686,-29.1766,9.976744,0.1703736,-0.681148,-0.7432446,8.899932,34.68397,12.52542,1007.832
35.306423664,-141.7975,-8.165918,7.402689,0.1161542,-1.776318,-1.555743,9.62749,34.26449,10.35576,1007.832
35.338596344,44.09093,2.073088,-5.835309,0.04829855,-0.654312,-1.055666,10.7773,33.50236,11.62877,1007.832
35.373242855,98.39542,9.826325,7.034966,0.03452413,-0.6734654,-0.6527437,10.7773,33.50236,11.62877,1007.832
35.405414581,25.2318,-0.1759421,-0.1969024,0.04266667,-0.724012,-0.5303265,11.13714,32.33653,10.29358,1007.832
35.440061569,-14.63654,-5.798518,-1.300069,0.02722558,-0.7541283,-0.6692466,11.12114,33.08256,9.014769,1007.832
35.472233772,-1.244712,-14.79464,-14.72193,0.02953732,-0.7445483,-0.7472731,11.12114,33.08256,9.014769,1007.832
35.506880760,83.59069,-19.82537,-26.55032,0.210684,-0.7356471,-0.7980539,11.49882,32.69606,9.014694,1007.834
35.539052486,149.3827,-9.704729,2.622301,-0.1672745,-0.7495109,-0.7623476,10.72587,33.07087,7.67786,1007.834
35.573699951,182.9851,5.269079,9.547734,0.1279023,-0.9802807,-0.6002325,10.72587,33.07087,7.67786,1007.834
35.605871677,147.6626,20.89392,19.53752,-0.04743255,-0.8221604,-0.2868852,10.66416,34.53368,2.825085,1007.836
35.638043880,35.67496,22.90621,-1.238782,0.03513977,-0.8070784,-0.1660675,10.9854,34.85342,-1.577761,1007.836
35.672690868,-47.62468,16.15912,-2.280661,0.0315954,-0.879564,-0.3787118,10.9854,34.85342,-1.577761,1007.836
35.704862595,-56.83924,5.328264,-1.422643,0.06321687,-0.9328914,-0.5389883,11.34627,35.21212,-2.920398,1007.836
35.739510059,-24.40398,5.801744,1.457847,0.01588854,-0.9563448,-0.52669,11.74706,34.84836,-1.135349,1007.837
35.771681786,10.4885,6.09767,5.809226,0.01558575,-0.9223241,-0.5211048,11.74706,34.84836,-1.135349,1007.837
35.806329250,38.62362,2.309828,8.505855,0.08570778,-0.9078554,-0.4878998,11.3862,34.48965,0.2072868,1007.837
35.838500977,36.47356,-1.833122,9.363873,0.04377582,-0.9081356,-0.425333,10.99093,34.47797,-1.129621,1007.837
35.873147488,8.891307,-0.7086072,2.00943,0.01807688,-0.8788805,-0.36171,10.99093,34.47797,-1.129621,1007.837
35.905320168,-13.10078,1.185313,-0.8097727,0.01657955,-0.891439,-0.4177115,11.74706,34.84836,-1.135349,1007.837
35.939966679,-7.817766,1.777163,-1.48393,0.02288425,-0.9209664,-0.4662137,11.74154,35.22381,-1.583489,1007.837
35.972139359,9.689902,4.203749,3.480319,0.03376124,-0.9571592,-0.4319097,11.74154,35.22381,-1.583489,1007.836
36.006785870,31.62056,4.440489,7.831697,-0.0005896427,-0.9035246,-0.4224709,11.74154,35.22381,-1.583489,1007.836
36.038958072,24.67892,1.303683,4.583486,0.03290886,-0.9179102,-0.3780762,11.36334,34.84805,-1.579695,1007.836
36.073604584,6.618381,1.362868,0.7224029,0.07740667,-0.9286872,-0.3621922,11.36334,34.84805,-1.579695,1007.832
36.105776787,-8.923513,0.9485732,-0.8710597,0.02652688,-0.9183968,-0.3823586,11.72395,34.82562,-2.920471,1007.832
36.140423775,-5.667702,1.066943,-1.238782,0.02918687,-0.9263922,-0.4104053,12.10215,35.20139,-2.924266,1007.832
36.172595501,-0.2003947,0.7710181,0.5385419,0.02623418,-0.9147946,-0.4189582,12.10215,35.20139,-2.924266,1007.832
36.204768181,4.406886,-0.2943121,0.7224029,0.0238273,-0.9224894,-0.4112872,12.48561,34.82057,-2.478059,1007.833
36.239414692,2.932556,1.007758,-0.1356154,0.033244,-0.9088638,-0.4006587,11.72973,34.83131,-2.474191,1007.832
36.271587372,-1.183281,0.179168,-0.5033376,0.0282372,-0.9229784,-0.4089223,11.72973,34.83131,-2.474191,1007.833
36.306233883,-0.6304076,0.06079794,-0.07432837,0.02535837,-0.9258206,-0.4016889,12.10741,34.44481,-2.474264,1007.833
36.338405609,0.2910486,-0.05757209,0.1708197,0.02875799,-0.9297209,-0.4017528,11.72947,34.45017,-2.47233,1007.835
36.373053074,0.7824919,0.001612922,0.3546808,0.02191244,-0.9301831,-0.4031387,11.72369,34.44449,-2.918611,1007.835
36.405224800,0.2296182,0.06079794,0.2321067,0.02776369,-0.9273149,-0.4050977,11.72369,34.44449,-2.918611,1007.835
36.439872265,0.7210615,0.06079794,-0.07432837,0.02727749,-0.9219916,-0.4074593,11.72503,35.20757,-2.858578,1007.835
36.472043991,3.362569,1.007758,-0.1356154,0.04684446,-0.9230128,-0.4013842,11.72947,34.45017,-2.47233,1007.835
36.506690979,2.256822,0.001612922,0.4159678,0.02985578,-0.9296151,-0.3873022,11.72947,34.45017,-2.47233,1007.835
36.538863182,0.1681878,-0.1167571,0.2321067,0.02834287,-0.9238494,-0.3959165,12.10767,34.82594,-2.476125,1007.835
36.573509693,-1.121851,-0.1167571,-0.07432837,0.02388868,-0.9311378,-0.399791,12.10767,34.82594,-2.476125,1007.837
36.605681896,-1.121851,-0.05757209,0.04824567,0.02633213,-0.9234096,-0.4031241,12.10767,34.82594,-2.476125,1007.837
36.640328884,0.4753398,0.001612922,0.04824567,0.02781234,-0.9253364,-0.4002618,12.47983,34.81489,-2.924339,1007.837
36.672501087,0.1681878,-0.05757209,0.04824567,0.02489279,-0.9262813,-0.3987963,12.10767,34.82594,-2.476125,1007.837
