Time (s),Gyroscope X (deg/s),Gyroscope Y (deg/s),Gyroscope Z (deg/s),Accelerometer X (g),Accelerometer Y (g),Accelerometer Z (g),Magnetometer X (uT),Magnetometer Y (uT),Magnetometer Z (uT),Barometer (hPa)
0.015031338,-0.2447076,-0.2792663,-0.0584202,0.02118603,-0.8261355,0.5641348,-1.780501,54.22979,-25.32578,1008.457
0.049678326,0.1238749,-0.1017113,0.002866823,0.01970817,-0.830493,0.5645946,-1.780501,54.22979,-25.32578,1008.458
0.081851006,0.6153182,-0.04252628,0.1254409,0.01628857,-0.8333808,0.5655668,-2.146886,54.24653,-24.43128,1008.462
0.116494179,0.06244451,-0.5751914,-0.1197072,0.02313603,-0.8304991,0.5660086,-1.391006,54.23579,-24.43515,1008.462
0.148666382,0.3081662,-0.2792663,-0.1197072,0.01829687,-0.8256022,0.5685042,-1.391006,54.23579,-24.43515,1008.461
0.183313846,-0.7975813,0.1350287,-0.0584202,0.01480459,-0.8372602,0.5650666,-1.40282,53.84329,-25.32585,1008.461
0.215486049,0.1853053,-0.04252628,0.002866823,0.01919192,-0.8334177,0.5626474,-1.774723,54.23548,-24.8795,1008.461
0.250133037,-0.06041632,-0.3384513,-0.1197072,0.01977302,-0.8275326,0.5708844,-1.774723,54.23548,-24.8795,1008.457
0.282305717,-0.2447076,-0.4568214,-0.1809942,0.01676596,-0.8251722,0.5603279,-1.396784,54.23011,-24.88143,1008.457
0.316948891,0.1238749,-0.3976364,0.002866823,0.02112734,-0.830541,0.559279,-1.774723,54.23548,-24.8795,1008.461
0.349121570,0.1238749,0.07584374,0.1867279,0.02315018,-0.8290356,0.5669846,-1.774723,54.23548,-24.8795,1008.461
0.381293774,1.045331,0.1350287,0.06415385,0.02066181,-0.8319688,0.5626456,-2.152407,54.62198,-24.87943,1008.461
0.415941238,1.598205,0.4309538,0.1867279,0.01975843,-0.8202924,0.5656423,-1.774981,53.85435,-24.87764,1008.455
0.448113918,0.6767486,0.01665873,0.1867279,0.0168268,-0.8231826,0.5666098,-1.774981,53.85435,-24.87764,1008.459
0.482760906,-0.06041632,0.3125838,0.3093019,0.02024262,-0.8261011,0.5679998,-2.152921,53.85971,-24.8757,1008.459
0.514929294,0.1238749,0.3125838,0.2480149,0.01873838,-0.8309661,0.5655638,-2.158442,54.23516,-25.32384,1008.457
0.549576759,0.06244451,0.2533988,0.002866823,0.02217603,-0.8237098,0.5646275,-2.158442,54.23516,-25.32384,1008.457
0.581749439,0.1238749,0.1350287,0.002866823,0.01680467,-0.8275548,0.566092,-1.774981,53.85435,-24.87764,1008.457
0.616396427,0.06244451,0.1350287,0.06415385,0.01876261,-0.8280426,0.5670337,-1.024879,53.83792,-25.32779,1008.457
0.648569107,-0.4904292,0.1942138,0.06415385,0.02079147,-0.825081,0.5747511,-1.024879,53.83792,-25.32779,1008.457
0.683216095,0.06244451,0.4901389,0.1254409,0.02021247,-0.8324149,0.5674661,-2.158442,54.23516,-25.32384,1008.457
0.715384960,0.9224703,0.2533988,0.370589,0.01485882,-0.8251217,0.5656482,-2.152921,53.85971,-24.8757,1008.457
0.750031948,0.9839007,0.6085089,0.370589,0.01437498,-0.8260826,0.5666088,-1.780501,54.22979,-25.32578,1008.457
0.782204628,0.3695966,0.3125838,0.06415385,0.01635117,-0.8260703,0.5694824,-1.780501,54.22979,-25.32578,1008.457
0.816851616,0.6153182,0.3125838,0.1254409,0.02023464,-0.8290098,0.568458,-1.780501,54.22979,-25.32578,1008.457
0.849024296,-0.06041632,0.1350287,0.1254409,0.0124334,-0.8275142,0.5685431,-1.781016,53.46753,-25.32206,1008.457
0.883671284,-0.3061379,0.2533988,-0.2422813,0.01726022,-0.829521,0.5631796,-1.781016,53.46753,-25.32206,1008.457
0.915840149,-0.6747205,0.2533988,-0.1197072,0.01342732,-0.8221835,0.5680957,-1.402306,54.60556,-25.32957,1008.457
0.948011875,-0.4904292,0.3717688,-0.1809942,0.01530454,-0.8333832,0.5646119,-1.402306,54.60556,-25.32957,1008.459
0.982659340,0.06244451,-0.1608963,-0.1197072,0.01977102,-0.828018,0.5708804,-1.402306,54.60556,-25.32957,1008.459
1.014831543,0.7996094,-0.04252628,0.2480149,0.01433431,-0.8251525,0.5613148,-1.019101,53.84361,-24.8815,1008.459
1.049479008,-0.7975813,0.4309538,0.1254409,0.01380196,-0.8309932,0.5588617,-1.780759,53.84866,-25.32392,1008.459
1.081651211,1.106762,0.6085089,0.1867279,0.01628236,-0.8309686,0.5636587,-1.780759,53.84866,-25.32392,1008.459
1.116294861,0.4924574,0.4309538,0.1867279,0.0114594,-0.8250897,0.5676082,-1.780759,53.84866,-25.32392,1008.457
1.148467064,-0.3675684,0.07584374,0.2480149,0.01531433,-0.8261208,0.5622616,-1.396784,54.23011,-24.88143,1008.457
1.183114528,-0.2447076,0.2533988,-0.0584202,0.01575574,-0.8295506,0.5583733,-1.396784,54.23011,-24.88143,1008.455
1.215286732,0.8610399,0.1350287,0.1867279,0.01432623,-0.8261269,0.5608249,-1.780245,54.61093,-25.32764,1008.455
1.249934196,0.7996094,0.1350287,0.06415385,0.01101799,-0.8216599,0.5714965,-1.024622,54.21906,-25.32965,1008.455
1.282106876,0.3695966,0.07584374,0.1867279,0.01487698,-0.8226873,0.5666321,-1.024622,54.21906,-25.32965,1008.455
1.316750049,0.3695966,-0.04252628,0.002866823,0.01041071,-0.8319209,0.5622596,-2.158699,53.85403,-25.32198,1008.455
1.348922253,0.7996094,-0.04252628,0.06415385,0.01628833,-0.8285453,0.5631967,-1.396784,54.23011,-24.88143,1008.455
1.383569717,0.6153182,-0.1608963,0.06415385,0.01390127,-0.8265508,0.5685374,-1.396784,54.23011,-24.88143,1008.46
1.415742397,0.1853053,0.2533988,-0.1197072,0.01586919,-0.8236445,0.569025,-1.397299,53.46784,-24.87771,1008.46
1.450389385,-0.1832771,-0.1017113,-0.1809942,0.01772806,-0.8334103,0.5626611,-1.018844,54.22474,-24.88337,1008.46
1.482562065,1.106762,0.2533988,0.002866823,0.01631471,-0.8280377,0.5660926,-1.018844,54.22474,-24.88337,1008.46
1.514730453,0.1853053,0.1942138,0.002866823,0.01590149,-0.8197466,0.5709847,-1.408598,53.83761,-25.77213,1008.458
1.549377918,-0.3061379,-0.04252628,-0.3648553,0.01486093,-0.8265705,0.5666002,-1.40282,53.84329,-25.32585,1008.46
1.581550121,-1.780468,-0.1017113,-0.1197072,0.01539734,-0.820726,0.5695354,-1.40282,53.84329,-25.32585,1008.458
1.616197586,-0.6132901,-0.04252628,-0.2422813,0.01540777,-0.8260358,0.5733475,-1.774981,53.85435,-24.87764,1008.458
1.648369789,-0.4904292,-0.04252628,-0.1197072,0.015776,-0.828565,0.5603092,-1.397041,53.84898,-24.87957,1008.458
1.683017254,-0.1218467,-0.1017113,0.002866823,0.01969388,-0.8290554,0.5621966,-1.397041,53.84898,-24.87957,1008.456
1.715185642,0.6153182,0.01665873,-0.0584202,0.01580845,-0.8275684,0.5636911,-1.774981,53.85435,-24.87764,1008.456
1.749833107,0.06244451,0.1350287,0.06415385,0.01148788,-0.8260309,0.5714561,-1.781016,53.46753,-25.32206,1008.456
1.782004833,-0.5518596,-0.2200813,0.1254409,0.01779096,-0.8319023,0.5694209,-1.781016,53.46753,-25.32206,1008.458
1.816652775,-0.2447076,-0.1017113,0.002866823,0.01527405,-0.8329273,0.56076,-1.780759,53.84866,-25.32392,1008.458
1.848824501,0.431027,-0.3976364,-0.0584202,0.01586141,-0.8304215,0.5713791,-1.774981,53.85435,-24.87764,1008.458
1.883472443,-0.3061379,-0.2200813,-0.1197072,0.01685313,-0.8217079,0.5690317,-1.780759,53.84866,-25.32392,1008.458
1.915640354,-0.6132901,-0.3384513,-0.1197072,0.01394596,-0.8265101,0.5738393,-1.780759,53.84866,-25.32392,1008.462
1.950287342,0.431027,-0.4568214,-0.0584202,0.01679855,-0.8270768,0.565132,-2.152663,54.24084,-24.87756,1008.46
1.982460022,0.2467357,-0.1608963,-0.0584202,0.01974674,-0.8299744,0.5689366,-1.774467,54.61661,-24.88136,1008.46
2.014632702,-0.1832771,-0.2792663,0.1254409,0.01385458,-0.8270768,0.5632315,-1.774467,54.61661,-24.88136,1008.464
2.049279690,0.001014095,-0.04252628,-0.1809942,0.01340916,-0.8246178,0.5671119,-1.402562,54.22442,-25.32771,1008.464
2.081452370,0.1238749,-0.1017113,-0.2422813,0.01386089,-0.8314231,0.5660875,-1.780501,54.22979,-25.32578,1008.464
2.116095543,0.2467357,-0.04252628,0.06415385,0.01828087,-0.8304523,0.5689464,-1.780501,54.22979,-25.32578,1008.462
2.148268223,-0.06041632,0.1350287,-0.1197072,0.01682298,-0.8280217,0.568498,-1.397041,53.84898,-24.87957,1008.462
2.182915211,-0.3675684,-0.1017113,-0.2422813,0.01971629,-0.8304856,0.5655586,-2.158442,54.23516,-25.32384,1008.464
2.215087890,-0.6132901,-0.2792663,-0.1197072,0.02021629,-0.8275757,0.565578,-2.158442,54.23516,-25.32384,1008.464
2.249735355,-0.6132901,-0.2200813,-0.1809942,0.02067375,-0.8271223,0.5617214,-1.780759,53.84866,-25.32392,1008.464
2.281907558,-0.3675684,-0.4568214,-0.3035683,0.01722983,-0.8309993,0.5602756,-1.780759,53.84866,-25.32392,1008.464
2.316550731,-0.1832771,-0.2200813,-0.2422813,0.01923446,-0.8309611,0.5665232,-1.780759,53.84866,-25.32392,1008.464
2.348723411,0.6153182,-0.1608963,0.002866823,0.01238895,-0.8323902,0.5656113,-2.147143,53.8654,-24.42942,1008.464
2.383370876,0.4924574,-0.04252628,0.06415385,0.01386476,-0.8275511,0.5646734,-1.774723,54.23548,-24.8795,1008.465
2.415543079,-0.3061379,-0.1608963,-0.0584202,0.01442388,-0.8289396,0.5738148,-1.774723,54.23548,-24.8795,1008.465
2.450190544,0.3081662,-0.1608963,0.002866823,0.01677628,-0.8285478,0.5631921,-1.780759,53.84866,-25.32392,1008.464
2.482362747,-0.06041632,-0.2200813,-0.1197072,0.01580845,-0.8275684,0.5636911,-1.786795,53.46185,-25.76834,1008.464
2.517006397,0.1853053,-0.1017113,-0.0584202,0.01910891,-0.8388124,0.5553737,-1.786795,53.46185,-25.76834,1008.464
2.549178600,0.4924574,-0.2200813,-0.3035683,0.01481835,-0.8280599,0.5622503,-1.397041,53.84898,-24.87957,1008.464
2.581351280,0.001014095,-0.4568214,-0.1197072,0.02071026,-0.826122,0.5655853,-1.40282,53.84329,-25.32585,1008.462
2.615998268,0.6767486,-0.04252628,-0.0584202,0.02109709,-0.8349206,0.5577972,-1.40282,53.84329,-25.32585,1008.462
2.648170948,2.888244,0.5493239,0.2480149,0.01724402,-0.8305028,0.5617256,-2.152663,54.24084,-24.87756,1008.462
2.682818413,1.843927,0.01665873,0.370589,0.01104804,-0.8134119,0.5710822,-1.786023,54.60524,-25.77392,1008.462
2.714986801,-0.6132901,-0.6935614,0.002866823,0.01689209,-0.828926,0.5771658,-1.786023,54.60524,-25.77392,1008.462
2.749633789,0.001014095,-0.8711165,-0.1197072,0.0168918,-0.8231235,0.5743217,-1.780759,53.84866,-25.32392,1008.462
2.781806469,-1.043303,-1.167041,-0.4261424,0.0227005,-0.8227119,0.5684869,-2.158699,53.85403,-25.32198,1008.462
2.816453934,-0.9818726,-0.3384513,0.002866823,0.0143508,-0.8299732,0.5656129,-1.792315,53.8373,-26.21648,1008.462
2.848625660,-0.8590117,0.2533988,-0.0584202,0.02013954,-0.8363497,0.5606864,-1.792315,53.8373,-26.21648,1008.462
2.883273602,-0.5518596,-0.1017113,-0.1197072,0.01535892,-0.824146,0.5666156,-1.786537,53.84298,-25.7702,1008.462
2.915441513,-0.1218467,-0.3976364,-0.2422813,0.01778063,-0.8285268,0.5665569,-1.774723,54.23548,-24.8795,1008.464
2.950088501,-0.6132901,-0.4568214,-0.1809942,0.01730476,-0.8265791,0.5670594,-1.774723,54.23548,-24.8795,1008.466
2.982261181,-0.1218467,-0.2792663,-0.1197072,0.01820368,-0.8305225,0.5597885,-2.158699,53.85403,-25.32198,1008.466
3.016908169,0.1853053,0.01665873,-0.0584202,0.02460381,-0.8276016,0.5650548,-1.780501,54.22979,-25.32578,1008.464
3.049080849,0.5538878,-0.04252628,0.06415385,0.01778675,-0.8290048,0.5675169,-1.780501,54.22979,-25.32578,1008.462
3.081253529,0.431027,-0.1608963,0.1867279,0.02069397,-0.8251697,0.5631834,-1.769718,53.09777,-24.42764,1008.462
3.115896702,0.7996094,-0.2200813,0.002866823,0.01930102,-0.8217128,0.5699729,-2.152663,54.24084,-24.87756,1008.462
3.148069382,0.06244451,-0.1017113,-0.1197072,0.01827059,-0.8280439,0.5665563,-2.152663,54.24084,-24.87756,1008.461
3.182716369,-0.4904292,-0.3976364,-0.1197072,0.01871611,-0.832437,0.5636239,-1.774981,53.85435,-24.87764,1008.462
3.214889049,0.9839007,-0.1608963,0.1867279,0.01826858,-0.8285293,0.5665523,-1.774981,53.85435,-24.87764,1008.461
3.249536037,1.106762,-0.04252628,0.1867279,0.01829682,-0.824635,0.5680301,-1.774981,53.85435,-24.87764,1008.461
3.281708717,0.4924574,-0.2792663,-0.1809942,0.01729669,-0.8275536,0.5665694,-1.402562,54.22442,-25.32771,1008.461
3.316351890,0.3695966,-0.1608963,0.002866823,0.0202204,-0.8285391,0.566534,-1.786023,54.60524,-25.77392,1008.461
3.348524570,0.4924574,-0.1608963,0.2480149,0.02319266,-0.8256119,0.5703864,-1.786023,54.60524,-25.77392,1008.461
3.383171558,0.4924574,0.1942138,-0.0584202,0.02122665,-0.8260986,0.5689548,-1.397041,53.84898,-24.87957,1008.459
3.415344238,0.4924574,0.2533988,0.06415385,0.01681671,-0.8246424,0.5661159,-2.158442,54.23516,-25.32384,1008.459
3.449991226,-0.1832771,0.2533988,0.06415385,0.01779047,-0.8222315,0.5646806,-2.158442,54.23516,-25.32384,1008.459
3.482163906,-0.1832771,0.1942138,0.1867279,0.01924425,-0.8236987,0.564173,-1.780501,54.22979,-25.32578,1008.459
3.516807079,-1.227594,0.4309538,0.1254409,0.02217829,-0.8280599,0.5670017,-2.152663,54.24084,-24.87756,1008.459
3.548979759,-0.1218467,0.3125838,0.002866823,0.01975075,-0.8290036,0.5689446,-2.152663,54.24084,-24.87756,1008.459
3.583626747,-1.043303,0.2533988,0.1867279,0.0202669,-0.8241447,0.5699438,-2.158442,54.23516,-25.32384,1008.459
3.615799427,-0.7975813,-0.04252628,-0.1197072,0.01828077,-0.8285182,0.5679982,-1.781274,53.0864,-25.3202,1008.459
3.647972107,0.1238749,0.1942138,-0.1197072,0.02069612,-0.8275856,0.5646094,-1.781274,53.0864,-25.3202,1008.459
3.682619095,0.3695966,0.4901389,0.1254409,0.01724412,-0.832437,0.5626737,-1.396527,54.61124,-24.88329,1008.459
3.714787960,1.045331,0.3125838,0.2480149,0.01924845,-0.8265963,0.5660771,-1.780501,54.22979,-25.32578,1008.463
3.749434948,0.1238749,0.2533988,0.1254409,0.01734314,-0.8221921,0.5695052,-1.780501,54.22979,-25.32578,1008.459
3.781607628,-0.6747205,-0.1017113,-0.0584202,0.01630056,-0.8295013,0.5651166,-1.780501,54.22979,-25.32578,1008.459
3.816254616,-1.227594,-0.1017113,-0.0584202,0.01341121,-0.8250995,0.5675899,-1.780759,53.84866,-25.32392,1008.463
3.848567963,-1.534746,-0.2792663,-0.3035683,0.01924659,-0.829983,0.5674952,-1.780759,53.84866,-25.32392,1008.463
3.883214951,-1.534746,-0.2200813,-0.2422813,0.01777897,-0.8357818,0.5698711,-1.774723,54.23548,-24.8795,1008.463
3.915383816,0.6767486,0.07584374,-0.0584202,0.01921845,-0.8358114,0.5669654,-2.164477,53.84835,-25.76826,1008.463
3.950030804,2.273939,0.6085089,0.1867279,0.01831909,-0.8231641,0.5699701,-2.152663,54.24084,-24.87756,1008.463
3.982203484,0.738179,0.6085089,0.1867279,0.02074638,-0.8173849,0.565657,-2.152663,54.24084,-24.87756,1008.463
4.016850472,0.001014095,0.4901389,0.1254409,0.01972427,-0.827577,0.5651006,-1.780501,54.22979,-25.32578,1008.463
4.049023151,-0.1218467,0.1942138,0.3093019,0.01680066,-0.8285256,0.566084,-1.40282,53.84329,-25.32585,1008.463
4.083670616,0.8610399,0.3125838,0.2480149,0.01529426,-0.8309747,0.5622218,-1.40282,53.84329,-25.32585,1008.463
4.115839005,2.089648,0.8452489,0.3093019,0.01529612,-0.8275881,0.5608038,-2.152921,53.85971,-24.8757,1008.465
4.150485992,1.905357,0.3717688,0.3093019,0.01877078,-0.8290024,0.5684717,-2.16422,54.22948,-25.77013,1008.465
4.182658672,1.721066,0.6676939,0.370589,0.01442559,-0.8226516,0.5709745,-2.16422,54.22948,-25.77013,1008.465
4.214831352,0.6153182,0.6676939,0.1867279,0.01443567,-0.8211917,0.5714685,-1.402562,54.22442,-25.32771,1008.465
4.249478340,0.06244451,0.01665873,0.002866823,0.01590365,-0.8221625,0.5724108,-1.786537,53.84298,-25.7702,1008.465
4.281651020,-0.06041632,0.07584374,0.06415385,0.01394576,-0.8226417,0.5719432,-1.786537,53.84298,-25.7702,1008.463
4.316294193,0.2467357,0.2533988,-0.0584202,0.01291298,-0.8226886,0.5652044,-1.408598,53.83761,-25.77213,1008.463
4.348466873,0.5538878,0.07584374,0.06415385,0.01336858,-0.8256219,0.562766,-1.40282,53.84329,-25.32585,1008.463
4.383113861,0.6153182,0.1350287,0.1867279,0.0168289,-0.8246313,0.5675619,-1.40282,53.84329,-25.32585,1008.463
4.415286541,0.6767486,0.4309538,0.1867279,0.01446225,-0.8245525,0.5762606,-1.414376,53.83192,-26.21841,1008.461
4.449933529,0.1853053,0.4309538,-0.0584202,0.009558387,-0.8255172,0.5738884,-1.786537,53.84298,-25.7702,1008.461
4.482106209,-0.4904292,0.3125838,0.06415385,0.01490973,-0.8274933,0.5728582,-1.786537,53.84298,-25.7702,1008.461
4.516749382,-0.7975813,0.2533988,0.002866823,0.01386902,-0.8314157,0.5670515,-1.024879,53.83792,-25.32779,1008.461
4.548922062,-0.5518596,0.1942138,-0.1809942,0.01531452,-0.8299892,0.5641578,-1.786537,53.84298,-25.7702,1008.461
4.583569050,0.2467357,0.01665873,-0.0584202,0.0148832,-0.8250995,0.5685402,-1.786537,53.84298,-25.7702,1008.463
4.615741730,-0.3061379,-0.2200813,-0.2422813,0.01643233,-0.8240622,0.5781742,-1.402562,54.22442,-25.32771,1008.463
4.650389194,-1.166164,-0.2792663,-0.1197072,0.01430832,-0.8333967,0.562211,-1.781016,53.46753,-25.32206,1008.465
4.682561397,-0.4289988,-0.04252628,0.002866823,0.01973034,-0.8270879,0.5655865,-1.781016,53.46753,-25.32206,1008.465
4.714730263,0.2467357,-0.04252628,0.1867279,0.01337901,-0.8309316,0.5665781,-1.402562,54.22442,-25.32771,1008.465
4.749377251,1.045331,0.3125838,0.06415385,0.01396172,-0.8168244,0.5710269,-1.780501,54.22979,-25.32578,1008.463
4.781549931,-0.9818726,-0.1017113,-0.1197072,0.01635299,-0.8217165,0.5675903,-1.780501,54.22979,-25.32578,1008.462
4.816196918,-0.2447076,0.07584374,0.002866823,0.01379599,-0.8334165,0.5593237,-1.402306,54.60556,-25.32957,1008.462
4.848369598,0.738179,0.4309538,0.1254409,0.01286457,-0.8295026,0.5627387,-1.024622,54.21906,-25.32965,1008.462
4.883016586,-2.947646,0.8452489,-0.0584202,0.01385673,-0.8294927,0.5646575,-1.024622,54.21906,-25.32965,1008.462
4.915185451,-1.964759,1.377914,0.1867279,0.02561423,-0.8270915,0.5689056,-1.774981,53.85435,-24.87764,1008.462
4.949832439,4.608295,-1.522152,2.270487,0.01621395,-0.8754817,0.5189484,-1.786023,54.60524,-25.77392,1008.462
4.982005119,8.785563,6.64538,1.902765,-0.1852732,-0.7419332,0.4611976,-1.786023,54.60524,-25.77392,1008.462
5.016652107,10.44418,0.1942138,1.78019,0.09298182,-0.856418,0.5858692,-1.408855,53.45647,-25.77027,1008.46
5.048824787,12.22567,2.620799,1.718904,0.1159251,-0.8415344,0.5795118,-2.176291,53.45584,-26.65897,1008.46
5.083472252,17.26296,3.094279,2.699496,0.03164172,-0.8148754,0.58341,-1.803871,53.82592,-27.10904,1008.46
5.115640640,27.27612,7.23723,3.067218,-0.02580198,-0.8309037,0.6079139,-1.803871,53.82592,-27.10904,1008.458
5.150287628,17.81584,7.947451,2.270487,-0.1088969,-0.7078261,0.5904239,-2.182069,53.45016,-27.10525,1008.458
5.182460308,13.02426,3.153464,-2.203466,-0.08320341,-0.6956112,0.6804188,-2.5776,53.05733,-28.44029,1008.456
5.214632988,0.9224703,4.455534,-1.651883,-0.05026117,-0.7883199,0.6383771,-2.5776,53.05733,-28.44029,1008.456
5.249279976,-6.633471,4.9882,-0.9777255,-0.0801418,-0.7553921,0.6090434,-2.571822,53.06302,-27.99401,1008.456
5.281452179,-13.20652,-2.054817,-2.203466,-0.04857969,-0.7851906,0.6046473,-3.327958,52.69263,-27.98829,1008.456
5.316095829,-7.370636,-1.936447,-0.4261424,0.03121604,-0.8728071,0.5607644,-3.327958,52.69263,-27.98829,1008.457
5.348267555,12.71711,1.555469,1.044746,0.01193663,-0.854116,0.5803784,-3.327702,53.07376,-27.99014,1008.457
5.382915497,10.75134,1.318729,0.7383111,0.004638047,-0.7588719,0.6530496,-3.327702,53.07376,-27.99014,1008.455
5.415087700,-3.316228,2.384059,0.7995982,-0.04063543,-0.730983,0.652738,-3.327702,53.07376,-27.99014,1008.455
5.449735641,-6.44918,0.07584374,-0.4874294,-0.0058146,-0.8218338,0.6010541,-3.339257,53.06239,-28.88271,1008.455
5.481907368,4.792586,1.022804,-0.6712904,-0.006070208,-0.796958,0.6166856,-3.339771,52.30012,-28.87898,1008.453
5.516551018,2.826813,-0.7527465,-1.284161,0.0005523344,-0.7735249,0.638507,-3.339771,52.30012,-28.87898,1008.452
5.548723221,-0.9818726,-1.048671,-1.651883,0.001032605,-0.7822385,0.6418046,-3.327958,52.69263,-27.98829,1008.45
5.583370685,-2.517633,-2.705852,-2.877623,0.002908897,-0.7750636,0.6293142,-2.955281,53.44384,-28.44022,1008.45
5.615542889,-7.247775,-5.842658,-3.613068,-0.00514605,-0.7462727,0.6440868,-2.955281,53.44384,-28.44022,1008.45
5.650189876,-13.14509,-7.085543,-3.245345,0.01286192,-0.7855375,0.5992511,-3.711932,52.31117,-28.43077,1008.448
5.682362556,-11.36361,-6.197768,-2.019605,0.007791684,-0.8306583,0.5984445,-3.333735,52.68694,-28.43456,1008.448
5.717006206,-15.1723,-12.29382,0.7995982,-0.06710888,-0.7706155,0.6574783,-3.333735,52.68694,-28.43456,1008.446
5.749178410,-20.27102,-17.38374,-0.5487164,-0.09888711,-0.9087372,0.6012061,-3.699862,53.08481,-27.54193,1008.45
5.781351089,1.413914,-40.22915,-11.58038,-0.1880717,-1.054707,0.6861489,-4.444185,53.10692,-26.6455,1008.45
5.815998077,68.25021,-48.04157,-27.45372,-0.003532503,-1.235738,0.4920627,-4.444185,53.10692,-26.6455,1008.45
5.848170757,117.026,-43.89862,-23.04105,0.02077999,-0.8159783,0.6852042,-4.43263,53.11829,-25.75294,1008.45
5.882817745,103.757,-28.5697,-13.72543,0.200345,-0.2320287,0.8069147,-5.601373,52.71915,-28.42296,1008.449
5.914986610,-2.763355,-16.96944,3.863949,0.2707675,-0.2616258,0.6647877,-5.601373,52.71915,-28.42296,1008.449
5.949633598,-33.97001,2.916724,24.14995,0.2009318,-0.4328071,0.4509843,-6.004173,48.89125,-30.12379,1008.449
5.981806278,-33.72429,22.62533,39.83943,0.06986478,-0.3763223,0.3900131,-5.627776,46.59909,-30.11456,1008.447
6.016453266,-217.0326,26.05807,49.03248,-0.07523479,-0.7258962,1.353448,-5.627776,46.59909,-30.11456,1008.447
6.048625946,-124.7027,-7.322283,-3.306633,0.1236484,-1.520095,0.1424561,-3.731271,48.10247,-29.68539,1008.445
6.083272934,-76.11126,-1.699707,3.618801,0.2086491,-0.7310661,0.2358917,-1.377584,49.67844,-23.13774,1008.445
6.115441799,-43.73744,13.33329,6.867013,0.1041091,-1.48918,0.2995431,-0.5862656,50.84521,-20.4695,1008.445
6.150088787,73.47179,9.071965,3.986523,0.07960837,-0.7438607,0.507874,-0.5862656,50.84521,-20.4695,1008.445
6.182261467,8.969854,6.1719,3.128505,0.07530139,-0.7066015,0.6161892,-1.347408,51.61253,-20.91564,1008.445
6.216908455,-2.701924,3.68613,2.638209,0.01656577,-0.8432462,0.5452389,-0.9749889,51.98261,-21.36571,1008.445
6.249081135,-6.44918,4.455534,4.354246,-0.009182156,-0.8009419,0.5385978,-0.9749889,51.98261,-21.36571,1008.447
6.283728123,-11.17932,4.100425,1.412468,-0.03585188,-0.8557436,0.5273089,-0.602828,51.97155,-21.81392,1008.447
6.315896988,-18.05953,2.088134,0.8608851,-0.02773611,-0.8105305,0.542066,-0.5904999,53.12633,-20.92695,1008.447
6.348069668,-35.44434,-0.7527465,-1.222874,0.02816032,-0.832289,0.5259411,-0.5904999,53.12633,-20.92695,1008.445
6.382716656,-26.72121,-1.640522,-1.958318,0.04680701,-0.9120017,0.4605219,-0.9629183,52.75624,-20.47687,1008.451
6.414889335,-7.432066,0.3125838,-1.406735,0.04417367,-0.9720905,0.4084772,-0.5729084,53.52452,-19.58997,1008.449
6.449536323,8.048399,3.331019,-0.3648553,0.03342995,-0.9285606,0.4446043,-0.5729084,53.52452,-19.58997,1008.449
6.481709003,11.73422,1.733024,0.002866823,0.03690719,-0.8690802,0.4812121,-0.9395494,53.16012,-18.69361,1008.449
6.516352177,-1.350455,1.496284,0.493163,0.03439164,-0.8251694,0.5090716,-0.5731659,53.14338,-19.5881,1008.449
6.548524856,-13.88226,-1.581337,-1.1003,0.06005836,-0.8685147,0.5065468,-0.5731659,53.14338,-19.5881,1008.447
6.583171844,-15.72517,-2.409927,0.370589,0.07100387,-0.8137341,0.5049683,-1.329302,52.77298,-19.58238,1008.447
6.615344524,-15.1723,-1.344597,2.270487,0.04607714,-0.8450779,0.5155464,-0.5618668,52.77362,-18.69368,1008.447
6.649991512,-12.89937,0.9044339,1.964052,0.02705305,-0.8372018,0.4545749,-0.5618668,52.77362,-18.69368,1008.449
6.682164192,-23.4654,1.081989,1.78019,0.03780235,-0.9107081,0.4336247,-0.9395494,53.16012,-18.69361,1008.449
6.716807365,-25.79976,3.212649,2.82207,0.02649952,-0.8976678,0.4179316,-0.9232969,52.79523,-17.41666,1008.449
6.748980045,-31.81994,2.975909,2.944644,0.02057521,-0.9015695,0.4116888,-0.9232969,52.79523,-17.41666,1008.449
6.783627033,-31.51279,1.200359,1.718904,0.008909399,-0.9410847,0.3782139,-0.5398912,53.557,-17.03979,1008.449
6.815799713,-32.37282,-1.285411,0.7383111,0.03084572,-0.9871168,0.3395517,-1.278951,52.82252,-15.69336,1008.451
6.850447178,-10.44216,-1.462967,0.431876,0.03105243,-1.009136,0.3167143,-1.278951,52.82252,-15.69336,1008.451
6.882619381,7.741246,-0.6343764,-0.7325774,0.01956751,-0.9788898,0.3291208,-0.5054798,53.20998,-14.36025,1008.451
6.914788246,13.45428,0.5493239,-0.7325774,0.03800619,-0.9476829,0.359572,-0.8831615,53.59648,-14.36017,1008.451
6.949435234,13.33141,1.437099,0.493163,0.03533489,-0.91697,0.3752741,-0.8831615,53.59648,-14.36017,1008.455
6.981607914,9.399868,1.496284,0.9834592,0.02964771,-0.9105011,0.3922505,-0.5110006,53.58543,-14.80839,1008.457
7.016254902,1.291053,0.3717688,0.3093019,0.02336931,-0.91041,0.4000218,-0.1506529,53.18187,-16.1473,1008.457
7.048427582,-2.394772,-0.1017113,0.431876,0.02801998,-0.923699,0.3791429,-0.1506529,53.18187,-16.1473,1008.457
7.083074570,-0.6132901,0.4901389,0.55445,0.03076014,-0.9504808,0.3697385,-0.5167789,53.57974,-15.25467,1008.455
7.115243435,7.249803,1.318729,-0.4874294,0.04558379,-0.9537712,0.3931911,-0.5167789,53.57974,-15.25467,1008.455
7.149890423,7.679816,1.437099,0.3093019,0.04037277,-0.9149163,0.393078,-0.5170364,53.1986,-15.25281,1008.457
7.182063103,7.188372,2.384059,2.147913,0.007643227,-0.9138177,0.3885725,-0.5170364,53.1986,-15.25281,1008.455
7.216710090,10.75134,-0.3384513,-0.5487164,0.01425115,-0.9541915,0.38143,-0.8947182,53.58511,-15.25273,1008.455
7.248882770,20.88736,-0.8711165,-0.6100034,0.01924777,-0.9396026,0.3882516,-0.1503954,53.563,-16.14916,1008.455
7.283530235,23.52886,-1.462967,-0.3648553,0.002137887,-0.8878406,0.417758,-0.1503954,53.563,-16.14916,1008.453
7.315698623,13.94572,-1.226226,-0.4874294,0.01066594,-0.87268,0.4380473,-0.5398912,53.557,-17.03979,1008.453
7.350345611,-0.7975813,-1.936447,-2.142179,0.0361772,-0.8630114,0.449457,-0.1674185,52.78449,-17.42053,1008.453
7.382518291,-9.397839,-0.8119314,-0.6100034,0.04572039,-0.8917875,0.4375627,-0.1674185,52.78449,-17.42053,1008.455
7.414690971,-11.85506,1.081989,1.841478,0.03323412,-0.9122973,0.4134102,-0.5448437,53.55213,-17.42232,1008.455
7.449337959,-10.31929,-0.4568214,0.493163,0.04739171,-0.9601983,0.3791432,-0.534627,52.80042,-16.58979,1008.455
7.481510639,-6.264888,0.7268789,0.6770241,0.03013694,-0.935648,0.4045706,-0.534627,52.80042,-16.58979,1008.459
7.516153812,-2.14905,1.259544,0.3093019,0.01808228,-0.8948356,0.4021276,-0.1506529,53.18187,-16.1473,1008.457
7.548326492,-3.377659,0.7268789,0.8608851,0.03993661,-0.9346931,0.4088251,-0.1506529,53.18187,-16.1473,1008.457
7.582973480,-5.159141,0.4901389,0.6770241,0.01658318,-0.9209729,0.4106021,-0.1506529,53.18187,-16.1473,1008.457
7.615146160,-3.930532,-0.3384513,0.370589,0.0208546,-0.9148179,0.393261,-0.5396338,53.93813,-17.04165,1008.457
7.649793148,-4.360546,-0.3384513,0.3093019,0.01161651,-0.9253797,0.4024181,-1.284986,52.4357,-16.13778,1008.457
7.681965828,-3.62338,-1.462967,-1.345448,0.02368385,-0.9357158,0.3916163,-1.284986,52.4357,-16.13778,1008.457
7.716609001,2.273939,-1.285411,-0.7938645,0.03139837,-0.9493794,0.3870937,-0.9123096,53.18692,-16.58971,1008.457
7.748781681,6.205486,-0.2792663,-0.2422813,0.02567565,-0.9231164,0.3902555,-0.9067879,52.81147,-16.14157,1008.457
7.783428669,3.8097,0.2533988,-0.1197072,0.02967238,-0.9162815,0.3979866,-0.9067879,52.81147,-16.14157,1008.457
7.815601349,1.413914,-0.1608963,0.370589,0.03171974,-0.9176551,0.4100062,-0.9060163,53.95487,-16.14716,1008.459
7.850248814,0.001014095,-0.04252628,0.370589,0.02728538,-0.9152541,0.4038014,-0.9125662,52.80579,-16.58785,1008.461
7.882421017,1.598205,0.07584374,0.370589,0.02617859,-0.9380959,0.3992854,-0.9125662,52.80579,-16.58785,1008.459
7.914589882,2.3968,0.6085089,0.06415385,0.02921703,-0.9181836,0.4027952,-1.284472,53.19797,-16.1415,1008.457
7.949236870,2.3968,0.3717688,0.1867279,0.02198679,-0.9122629,0.4106234,-0.5283346,53.56837,-16.14723,1008.457
7.981409550,-0.7975813,0.3125838,0.002866823,0.02741068,-0.9025674,0.4125808,-0.5283346,53.56837,-16.14723,1008.461
8.016056538,-4.483406,0.1942138,0.1867279,0.0229605,-0.9088848,0.4087142,-0.5448437,53.55213,-17.42232,1008.461
8.048229218,-3.193367,0.1350287,0.2480149,0.02628724,-0.9176871,0.4023446,-0.1566877,52.79505,-16.59172,1008.461
8.082876205,0.2467357,-0.5160064,-0.3035683,0.02742463,-0.8972353,0.4116606,-0.1566877,52.79505,-16.59172,1008.461
8.115045071,-0.8590117,-1.048671,-0.3035683,0.0286418,-0.9197113,0.3931479,-0.9120522,53.56805,-16.59158,1008.461
8.149692058,5.468321,-0.1608963,-0.3648553,0.03046137,-0.9556255,0.3947629,-0.9065313,53.1926,-16.14343,1008.461
8.181864738,-15.1723,-0.4568214,-1.774457,0.04277235,-1.058473,0.2834223,-0.9065313,53.1926,-16.14343,1008.461
8.216511726,-6.264888,1.910579,0.493163,0.03100533,-1.010183,0.3697261,-0.9120522,53.56805,-16.59158,1008.461
8.248684406,-5.097711,0.3125838,0.55445,0.05006807,-0.8671876,0.420373,-0.9125662,52.80579,-16.58785,1008.461
8.283331871,-5.896306,1.022804,1.596329,0.03232096,-0.9078833,0.4187571,-0.9123096,53.18692,-16.58971,1008.459
8.315500259,-1.350455,0.2533988,0.493163,0.0215426,-0.893845,0.4069234,-0.9123096,53.18692,-16.58971,1008.459
8.350147247,-6.44918,-0.2200813,0.55445,0.0197394,-0.9318647,0.3849368,-0.1503954,53.563,-16.14916,1008.459
8.382319927,-2.02619,-0.2792663,-0.6100034,0.02271998,-0.9327984,0.3916493,-0.9062738,53.57374,-16.14529,1008.461
8.416967392,-0.7975813,0.3125838,-0.3035683,0.02375859,-0.9274271,0.3965039,-0.9062738,53.57374,-16.14529,1008.461
8.449139595,0.7996094,-0.3976364,-0.7325774,0.02522235,-0.9255003,0.3955421,-0.901268,52.43602,-15.69343,1008.461
8.481312275,1.475344,-0.2200813,-0.7938645,0.02813192,-0.9279494,0.3945308,-0.9062738,53.57374,-16.14529,1008.461
8.515955448,2.151079,-0.4568214,-0.3648553,0.02670643,-0.923555,0.3969904,-0.9062738,53.57374,-16.14529,1008.459
8.548128128,0.7996094,-0.6935614,-0.7325774,0.02776124,-0.9172018,0.4032988,-1.278694,53.20366,-15.69522,1008.459
8.582775116,0.8610399,-0.1017113,-0.2422813,0.02816422,-0.9240515,0.3964906,-1.284472,53.19797,-16.1415,1008.463
8.614947796,1.168192,-0.3976364,-0.2422813,0.02717804,-0.9216381,0.3941097,-1.284472,53.19797,-16.1415,1008.463
8.649594784,1.106762,-0.2200813,0.1867279,0.0321264,-0.9167644,0.3998877,-1.284728,52.81684,-16.13964,1008.463
8.681767464,0.2467357,-0.2792663,-0.1197072,0.02573087,-0.9303197,0.4003177,-1.29025,53.19229,-16.58778,1008.463
8.716411591,2.826813,-0.6343764,0.493163,0.0246139,-0.9526873,0.3943597,-1.29025,53.19229,-16.58778,1008.463
8.748583317,9.399868,0.2533988,0.6157371,0.02917092,-0.9303148,0.4031776,-0.9117947,53.94919,-16.59344,1008.463
8.783231258,6.451207,1.377914,0.431876,0.03145792,-0.8903672,0.4237295,-0.9123096,53.18692,-16.58971,1008.462
8.815402985,2.581091,0.5493239,0.6157371,0.01538587,-0.8897747,0.4272584,-0.9123096,53.18692,-16.58971,1008.462
8.850070953,-2.08762,-0.3976364,-0.3035683,0.0191763,-0.9005359,0.4189403,-0.9123096,53.18692,-16.58971,1008.462
8.882243633,-3.316228,-0.7527465,-0.5487164,0.02636047,-0.9195549,0.4119685,-0.9178305,53.56237,-17.03786,1008.46
8.916887283,-0.2447076,-0.4568214,-0.3035683,0.02430929,-0.9230204,0.4018371,-0.9178305,53.56237,-17.03786,1008.46
8.949059010,0.5538878,-0.9894865,-0.7325774,0.02583189,-0.9195893,0.4071532,-0.5401487,53.17587,-17.03793,1008.458
8.983706951,1.045331,-1.285411,-1.1003,0.03413916,-0.9167188,0.4070993,-0.1622095,53.17049,-17.03986,1008.458
9.015879631,2.151079,-0.7527465,-0.6100034,0.03072563,-0.9191175,0.4085574,-0.1622095,53.17049,-17.03986,1008.458
9.048051357,2.3968,-0.5751914,-0.3648553,0.02684221,-0.9171451,0.4100559,-0.5401487,53.17587,-17.03793,1008.456
9.082699299,2.581091,-0.04252628,-0.1197072,0.03076806,-0.9147267,0.4114852,-0.9230404,53.17636,-17.41852,1008.456
9.114867210,3.011104,0.7860639,0.370589,0.03265723,-0.9210799,0.4070772,-0.9230404,53.17636,-17.41852,1008.458
9.149515152,5.775473,0.7860639,0.3093019,0.02691935,-0.9161078,0.4187397,-0.9230404,53.17636,-17.41852,1008.456
9.181686878,5.959764,0.1350287,0.002866823,0.02900063,-0.9053615,0.4289309,-0.5343704,53.18155,-16.59165,1008.456
9.216334820,5.775473,-0.04252628,-0.4874294,0.03205165,-0.8931748,0.4376788,-0.5343704,53.18155,-16.59165,1008.456
9.248507500,1.782496,-0.1608963,-0.3648553,0.03102899,-0.8927289,0.4319081,-0.1671619,53.16562,-17.42239,1008.456
9.283154487,-0.7361509,0.1350287,0.3093019,0.02999445,-0.8980966,0.4275355,-0.9178305,53.56237,-17.03786,1008.46
9.315323353,-1.104733,0.7268789,0.06415385,0.03189806,-0.9087887,0.4269476,-0.9232969,52.79523,-17.41666,1008.46
9.350008964,-0.9204421,-0.1608963,-0.1197072,0.02987938,-0.9122247,0.4206721,-0.9232969,52.79523,-17.41666,1008.459
9.382181644,0.5538878,-0.3976364,-0.1809942,0.02297714,-0.9166068,0.4144344,-1.295771,53.56773,-17.03592,1008.459
9.416828632,2.33537,-0.2200813,-0.3035683,0.02896,-0.9053984,0.424111,-0.9225254,53.93863,-17.42224,1008.459
9.449001312,1.536775,-0.2792663,-0.3035683,0.03183526,-0.9122308,0.4211358,-0.9225254,53.93863,-17.42224,1008.459
9.483648777,1.659635,-0.1608963,-0.1809942,0.02986533,-0.9156224,0.4206442,-0.9227829,53.5575,-17.42038,1008.459
9.515817165,1.475344,0.01665873,0.06415385,0.02897635,-0.9073178,0.426987,-0.5492811,54.30952,-17.80856,1008.459
9.547989845,1.045331,0.1350287,-0.0584202,0.03252785,-0.9018923,0.4404945,-0.5492811,54.30952,-17.80856,1008.459
9.582636833,-0.1832771,-0.3384513,-0.1197072,0.02997061,-0.9087567,0.4298578,-0.9232969,52.79523,-17.41666,1008.459
9.614809513,-0.7975813,-0.2792663,-0.0584202,0.02856759,-0.9067597,0.4361534,-0.9277353,53.55262,-17.80291,1008.463
9.649456501,0.1853053,0.1942138,0.1254409,0.0328557,-0.9092939,0.4250065,-0.9277353,53.55262,-17.80291,1008.463
9.681629181,-0.1832771,0.3125838,0.3093019,0.03243662,-0.9053602,0.4313088,-0.5451012,53.17099,-17.42046,1008.463
9.716272354,-2.02619,0.3125838,0.431876,0.03052543,-0.9053134,0.436147,-0.9279928,53.17149,-17.80105,1008.463
9.748445034,-2.763355,0.7860639,0.55445,0.02163662,-0.9053652,0.4236976,-0.9279928,53.17149,-17.80105,1008.463
9.783092022,-2.271911,0.4901389,0.2480149,0.02544932,-0.9146554,0.4173194,-0.9227829,53.5575,-17.42038,1008.463
9.815264702,-1.411885,0.3717688,0.3093019,0.02847229,-0.9102314,0.4264857,-1.296028,53.1866,-17.03406,1008.463
9.849912167,-0.9818726,0.2533988,0.2480149,0.02988349,-0.913188,0.4216281,-1.296028,53.1866,-17.03406,1008.461
9.882084370,-0.3675684,0.4309538,0.1254409,0.0288812,-0.9136907,0.4187413,-0.5451012,53.17099,-17.42046,1008.461
9.916727543,-0.7975813,0.3125838,-0.0584202,0.01953474,-0.9103275,0.4082523,-0.5451012,53.17099,-17.42046,1008.461
9.948900223,-0.9818726,0.2533988,0.1254409,0.02113487,-0.9135959,0.4260444,-0.5451012,53.17099,-17.42046,1008.461
9.983547688,-0.4289988,-0.04252628,0.06415385,0.02837479,-0.9103201,0.4149179,-0.5398912,53.557,-17.03979,1008.461
10.015719891,-0.3061379,0.01665873,0.1867279,0.02838713,-0.9132102,0.4177859,-0.5401487,53.17587,-17.03793,1008.461
10.050367355,-0.1832771,0.5493239,0.3093019,0.02505274,-0.9140862,0.4279318,-0.5401487,53.17587,-17.03793,1008.459
10.082539558,-0.9204421,0.3125838,0.3093019,0.02206163,-0.9059085,0.4164591,-0.1671619,53.16562,-17.42239,1008.463
10.114708424,-3.009076,-0.04252628,0.1254409,0.02848198,-0.9010348,0.4231874,-0.5398912,53.557,-17.03979,1008.463
10.149355411,-3.684811,-0.3384513,-0.5487164,0.01801263,-0.9234294,0.4076765,-0.5398912,53.557,-17.03979,1008.463
10.181528091,-1.289025,0.01665873,-0.0584202,0.02390645,-0.9190719,0.4100674,-0.5398912,53.557,-17.03979,1008.463
10.216175079,0.8610399,0.1942138,0.1254409,0.03033679,-0.9108042,0.4163415,-0.1622095,53.17049,-17.03986,1008.463
10.248347759,0.4924574,0.4901389,0.2480149,0.02839099,-0.9093382,0.4163718,-0.1622095,53.17049,-17.03986,1008.461
10.282995224,-0.6747205,0.4309538,0.6770241,0.02449573,-0.9141465,0.4197425,-0.5401487,53.17587,-17.03793,1008.461
10.315163612,-0.9818726,0.2533988,0.370589,0.02350949,-0.9107661,0.4168876,-0.5453577,52.78986,-17.41859,1008.461
10.349890232,-0.7975813,-0.04252628,0.002866823,0.02585215,-0.9186038,0.4090891,-0.5283346,53.56837,-16.14723,1008.46
10.382062435,-0.8590117,0.01665873,0.2480149,0.02396318,-0.916119,0.4153932,-0.5283346,53.56837,-16.14723,1008.458
10.416709900,-1.043303,0.4309538,0.370589,0.02784631,-0.9122887,0.4110506,-0.5401487,53.17587,-17.03793,1008.464
10.448882580,-1.657607,0.1350287,0.1254409,0.02542108,-0.9185497,0.4158416,-1.296028,53.1866,-17.03406,1008.464
10.483529568,-1.411885,0.4309538,0.431876,0.02246878,-0.9146886,0.411081,-1.296028,53.1866,-17.03406,1008.464
10.515697956,-1.289025,0.4309538,0.370589,0.02542484,-0.9127434,0.4134794,-0.9227829,53.5575,-17.42038,1008.462
10.550345421,-3.009076,-0.1017113,0.06415385,0.02390832,-0.9156852,0.4086493,-0.9120522,53.56805,-16.59158,1008.462
10.582518101,-2.14905,0.01665873,0.1867279,0.02673076,-0.9225657,0.3994083,-0.9120522,53.56805,-16.59158,1008.462
10.614690304,-1.227594,0.3125838,-0.0584202,0.01994208,-0.9229761,0.4047702,-0.5401487,53.17587,-17.03793,1008.466
10.649337768,-0.6132901,-0.1608963,-0.3035683,0.02385795,-0.9239517,0.4066536,-1.296028,53.1866,-17.03406,1008.466
10.716153622,-2.02619,-0.5751914,-0.2422813,0.02038119,-0.9210886,0.3980337,-0.1564312,53.17618,-16.59358,1008.464
10.748325825,-0.7361509,-0.1608963,-0.3035683,0.0237303,-0.9303542,0.394552,-0.9125662,52.80579,-16.58785,1008.462
10.782973289,0.8610399,-0.3384513,0.1254409,0.02100286,-0.9141995,0.4106166,-0.9125662,52.80579,-16.58785,1008.461
10.815145969,0.738179,-1.048671,0.493163,0.02611671,-0.8878984,0.4257278,-0.5341129,53.56269,-16.59351,1008.461
10.849792957,-1.596177,-0.1017113,0.431876,0.02378908,-0.9278829,0.4003559,-0.9117947,53.94919,-16.59344,1008.461
10.881965637,-0.4904292,-0.3384513,0.370589,0.02241602,-0.9157037,0.4052891,-0.9117947,53.94919,-16.59344,1008.459
10.916608810,-2.271911,-0.3384513,0.431876,0.0209013,-0.9142919,0.3985668,-1.289992,53.57342,-16.58964,1008.459
10.948781013,-2.824785,-0.04252628,-0.0584202,0.0203086,-0.9317932,0.3945721,-0.5343704,53.18155,-16.59165,1008.463
10.983428478,1.843927,-0.5751914,-0.4874294,0.02179463,-0.9283955,0.3955503,-0.5343704,53.18155,-16.59165,1008.465
11.015601158,0.7996094,-0.3976364,-0.1197072,0.02779154,-0.9137892,0.4052547,-0.1564312,53.17618,-16.59358,1008.465
11.050248146,-1.104733,-0.1608963,-0.1809942,0.02385183,-0.9234737,0.4056937,-1.29025,53.19229,-16.58778,1008.465
11.082420826,-0.1218467,-0.2792663,-0.3035683,0.02820275,-0.9225657,0.4003585,-1.29025,53.19229,-16.58778,1008.466
11.117063999,1.168192,-0.4568214,-0.1809942,0.02389407,-0.9152147,0.4067253,-0.5341129,53.56269,-16.59351,1008.465
11.149236679,0.2467357,0.1942138,-0.0584202,0.02581354,-0.9181553,0.4042732,-0.5288486,52.8061,-16.14351,1008.465
11.181408882,-0.1832771,-0.1017113,-0.2422813,0.02526298,-0.9254634,0.4003621,-0.5288486,52.8061,-16.14351,1008.465
11.216056347,0.1238749,0.07584374,0.002866823,0.02583581,-0.9166843,0.4062131,-0.9123096,53.18692,-16.58971,1008.465
11.248229027,0.3695966,-0.1017113,-0.1197072,0.02188969,-0.9200883,0.4028479,-0.1506529,53.18187,-16.1473,1008.465
11.282876491,0.06244451,-0.2200813,-0.2422813,0.02184319,-0.9244827,0.3994381,-0.1506529,53.18187,-16.1473,1008.463
11.315044403,0.6767486,-0.1017113,0.002866823,0.02582347,-0.9137942,0.403345,-0.9123096,53.18692,-16.58971,1008.463
11.349692345,0.1238749,-0.1608963,-0.1809942,0.02232723,-0.9273902,0.4003736,-0.1506529,53.18187,-16.1473,1008.467
11.381865024,1.659635,-0.5751914,-0.3648553,0.02582161,-0.9171808,0.4047631,-0.1506529,53.18187,-16.1473,1008.467
11.416512012,1.352483,-0.1017113,-0.3648553,0.01754469,-0.9176059,0.4072468,-0.5343704,53.18155,-16.59165,1008.465
11.448684692,0.3081662,-0.3976364,-0.1197072,0.02482755,-0.9196103,0.4037884,-0.5285921,53.18724,-16.14537,1008.465
11.483332157,0.1853053,-0.5751914,-0.2422813,0.0209036,-0.9196091,0.401415,-0.900754,53.19829,-15.69715,1008.467
11.515500545,2.089648,-0.3384513,-0.1197072,0.0311103,-0.9255003,0.3993432,-0.900754,53.19829,-15.69715,1008.467
11.550147533,3.011104,-0.1017113,-0.3648553,0.02627917,-0.9186617,0.4018547,-0.1503954,53.563,-16.14916,1008.467
11.582320213,1.413914,-0.04252628,-0.0584202,0.0254247,-0.9098421,0.4120573,-1.295771,53.56773,-17.03592,1008.465
11.616967678,-0.1832771,-0.3976364,-0.1809942,0.02780784,-0.9147415,0.4076567,-1.295771,53.56773,-17.03592,1008.465
11.649139881,0.3081662,-0.5160064,-0.2422813,0.0257874,-0.9234983,0.4037474,-1.289992,53.57342,-16.58964,1008.465
11.681312561,1.843927,-0.1608963,-0.2422813,0.02732815,-0.9176329,0.4100474,-0.5451012,53.17099,-17.42046,1008.465
11.715955734,2.33537,-0.2200813,-0.6100034,0.03174211,-0.9181184,0.4128941,-0.5451012,53.17099,-17.42046,1008.465
11.748128414,1.106762,-0.1608963,-0.2422813,0.02593282,-0.9069248,0.4130406,-0.5343704,53.18155,-16.59165,1008.465
11.782775402,1.106762,0.01665873,-0.3035683,0.03025397,-0.9200673,0.410964,-0.918088,53.18123,-17.036,1008.467
11.814948082,0.8610399,-0.2200813,-0.2422813,0.02836069,-0.9127507,0.414416,-0.918088,53.18123,-17.036,1008.467
11.849595070,0.431027,0.1942138,-0.1197072,0.02497135,-0.9112588,0.4168699,-1.29025,53.19229,-16.58778,1008.467
11.881767750,0.3695966,0.1942138,0.002866823,0.02686032,-0.9137436,0.4105658,-0.9123096,53.18692,-16.58971,1008.467
11.916410923,0.3081662,-0.2200813,-0.1809942,0.02679581,-0.9234737,0.4075941,-0.9123096,53.18692,-16.58971,1008.467
11.948583603,0.5538878,0.1942138,-0.0584202,0.02593502,-0.9103078,0.4149407,-0.918088,53.18123,-17.036,1008.466
11.983230591,-0.4904292,-0.6343764,-0.4261424,0.02391233,-0.9147145,0.4086573,-0.1564312,53.17618,-16.59358,1008.466
12.015403271,1.291053,0.01665873,-0.1197072,0.02489827,-0.9122924,0.408668,-0.1564312,53.17618,-16.59358,1008.466
12.050051212,-0.1832771,0.3125838,0.002866823,0.02539058,-0.9180938,0.4119896,-0.5401487,53.17587,-17.03793,1008.464
12.082222939,0.001014095,-0.1608963,-0.0584202,0.0283931,-0.910787,0.4173238,-0.5341129,53.56269,-16.59351,1008.464
12.116867065,-0.6132901,0.1942138,0.06415385,0.02536023,-0.9205392,0.4095597,-0.5341129,53.56269,-16.59351,1008.464
12.149039745,0.8610399,-0.1608963,-0.0584202,0.02735038,-0.9151949,0.4115132,-0.9120522,53.56805,-16.59158,1008.464
12.183686733,0.1853053,-0.3384513,-0.1197072,0.02985897,-0.910309,0.4173141,-0.5401487,53.17587,-17.03793,1008.462
12.215859413,0.3695966,0.3125838,0.06415385,0.02931624,-0.911807,0.4115228,-0.5401487,53.17587,-17.03793,1008.462
12.248031616,0.001014095,0.07584374,0.2480149,0.02978212,-0.9171488,0.4114744,-1.290506,52.81115,-16.58592,1008.46
12.282679081,0.7996094,0.8452489,0.1867279,0.03224412,-0.9147231,0.4129174,-1.284214,53.57911,-16.14336,1008.46
12.314847469,0.9224703,-0.04252628,0.370589,0.02649189,-0.9073461,0.4217079,-1.284214,53.57911,-16.14336,1008.463
12.349494934,-2.333342,0.3125838,0.2480149,0.02591476,-0.9112933,0.4130048,-0.9178305,53.56237,-17.03786,1008.463
12.381667137,-1.657607,0.2533988,0.3093019,0.02479735,-0.924957,0.4027806,-0.9123096,53.18692,-16.58971,1008.463
12.416314602,-0.3061379,0.3125838,0.431876,0.03023782,-0.9220163,0.4099841,-0.9123096,53.18692,-16.58971,1008.461
12.448487282,0.001014095,0.2533988,0.1254409,0.0283509,-0.9200131,0.4167662,-0.5341129,53.56269,-16.59351,1008.461
12.483134270,-0.6747205,0.1942138,0.1254409,0.02147652,-0.9127643,0.4082141,-0.9230404,53.17636,-17.41852,1008.461
12.515302658,-1.104733,-0.1608963,0.1254409,0.02684025,-0.9185976,0.4105259,-0.1503954,53.563,-16.14916,1008.461
12.549950123,-1.104733,0.07584374,0.1867279,0.02439651,-0.9205232,0.4110149,-0.1503954,53.563,-16.14916,1008.463
12.582122803,-0.8590117,0.1942138,0.3093019,0.02836681,-0.9132287,0.4153759,-0.9117947,53.94919,-16.59344,1008.463
12.616769791,-1.227594,0.2533988,0.1867279,0.03025965,-0.9118415,0.4076577,-0.9120522,53.56805,-16.59158,1008.463
12.648942470,-1.104733,0.3125838,0.431876,0.02682997,-0.9161891,0.4081359,-0.9120522,53.56805,-16.59158,1008.463
12.683590412,-2.271911,0.2533988,0.1867279,0.02384978,-0.9229921,0.4052156,-0.1509094,52.80073,-16.14544,1008.469
12.715758324,-1.104733,0.3125838,0.493163,0.02339824,-0.920055,0.408136,-0.5225573,53.57405,-15.70095,1008.469
12.750405788,-1.227594,0.1350287,0.1867279,0.02245042,-0.9132546,0.4082009,-0.5225573,53.57405,-15.70095,1008.469
12.782578468,-1.841898,-0.4568214,-0.2422813,0.03311087,-0.9254658,0.4051088,-0.9067879,52.81147,-16.14157,1008.47
12.814751148,-2.02619,0.07584374,0.1867279,0.02927567,-0.912811,0.4071769,-0.1564312,53.17618,-16.59358,1008.47
12.849398136,-2.08762,0.9636189,0.6770241,0.02963842,-0.9274344,0.399341,-0.1564312,53.17618,-16.59358,1008.469
12.881570816,0.2467357,0.3125838,0.55445,0.02630766,-0.9196029,0.4057026,-0.9123096,53.18692,-16.58971,1008.469
12.916213989,-0.6132901,-0.3384513,-0.0584202,0.01602802,-0.9176465,0.4009947,-0.5283346,53.56837,-16.14723,1008.469
12.948386669,-0.7361509,-0.8711165,-0.7325774,0.01268532,-0.9146615,0.4082805,-0.5283346,53.56837,-16.14723,1008.469
12.983033657,-3.807672,-1.048671,-0.7938645,0.03306178,-0.9187405,0.3960067,-0.9120522,53.56805,-16.59158,1008.472
13.015206337,-1.841898,-0.2200813,-0.1809942,0.03788508,-0.931389,0.3953754,-0.5338554,53.94382,-16.59537,1008.472
13.049853325,0.9839007,1.200359,1.228607,0.02960014,-0.9337556,0.3978432,-0.5338554,53.94382,-16.59537,1008.474
13.082026005,1.475344,1.022804,1.106033,0.02041966,-0.9186358,0.4014275,-0.9120522,53.56805,-16.59158,1008.472
13.116669178,-0.4904292,-0.8711165,0.2480149,0.02542249,-0.9064591,0.4101573,-0.9065313,53.1926,-16.14343,1008.474
13.148841858,-0.7361509,-1.107857,-0.3648553,0.008178513,-0.9258663,0.4000362,-0.9065313,53.1926,-16.14343,1008.474
13.183488846,1.536775,-1.167041,-1.161587,0.02187368,-0.9249386,0.40329,-0.9065313,53.1926,-16.14343,1008.474
13.215661526,1.106762,-0.5160064,-0.7938645,0.03322413,-0.9156914,0.4138643,-0.5285921,53.18724,-16.14537,1008.472
13.250308990,-0.9204421,0.07584374,-0.0584202,0.02428085,-0.9230462,0.3984632,-0.5285921,53.18724,-16.14537,1008.478
13.282481193,-0.06041632,-0.2200813,-0.0584202,0.02822707,-0.9215764,0.4027764,-0.5285921,53.18724,-16.14537,1008.478
13.314650059,1.106762,0.07584374,-0.1197072,0.02872134,-0.9259253,0.405628,-1.284214,53.57911,-16.14336,1008.48
13.349298000,1.168192,-0.2792663,0.1867279,0.02392833,-0.9098642,0.4082151,-1.284214,53.57911,-16.14336,1008.48
13.381470203,-1.104733,-0.2200813,0.06415385,0.025269,-0.9240072,0.400374,-0.5228148,53.19292,-15.69909,1008.48
13.416117668,0.7996094,0.1350287,0.2480149,0.02280275,-0.9225682,0.3965529,-0.9120522,53.56805,-16.59158,1008.48
13.448289871,0.738179,-0.04252628,-0.0584202,0.02139992,-0.9244395,0.4047445,-0.9120522,53.56805,-16.59158,1008.484
13.482937336,2.519661,-0.1608963,-0.4261424,0.02584613,-0.9200599,0.4090772,-1.29025,53.19229,-16.58778,1008.484
13.515105724,0.2467357,-0.5160064,-0.5487164,0.02833211,-0.9098753,0.4096199,-1.284728,52.81684,-16.13964,1008.484
13.549753189,-0.9818726,-0.6935614,-0.3648553,0.02976166,-0.9142659,0.4076424,-0.9120522,53.56805,-16.59158,1008.484
13.581925392,-1.411885,-0.2792663,-0.4261424,0.03163458,-0.920634,0.4013064,-0.9120522,53.56805,-16.59158,1008.486
13.616572857,0.6153182,0.2533988,0.1867279,0.02964414,-0.9201757,0.3965088,-0.9065313,53.1926,-16.14343,1008.484
13.648745537,1.413914,0.3717688,0.3093019,0.02777128,-0.9147748,0.4033187,-0.9062738,53.57374,-16.14529,1008.484
13.683392525,-0.9204421,-0.2200813,0.1867279,0.02390244,-0.9200427,0.4100595,-0.9062738,53.57374,-16.14529,1008.482
13.715560913,-2.14905,-0.2792663,0.002866823,0.02718636,-0.9254991,0.3969699,-0.5343704,53.18155,-16.59165,1008.482
13.750208378,0.8610399,0.2533988,0.06415385,0.02274034,-0.9337471,0.3945333,-0.9125662,52.80579,-16.58785,1008.481
13.782381058,2.642522,0.2533988,-0.1197072,0.02581163,-0.9205749,0.4052172,-0.9125662,52.80579,-16.58785,1008.481
13.817028522,2.33537,0.1350287,-0.3035683,0.02292413,-0.9127864,0.4062724,-0.5283346,53.56837,-16.14723,1008.479
13.849200726,0.5538878,0.01665873,-0.1809942,0.02923528,-0.9176834,0.4047271,-0.5341129,53.56269,-16.59351,1008.477
13.881372929,-0.1218467,0.07584374,-0.0584202,0.022914,-0.9132792,0.4053044,-0.5341129,53.56269,-16.59351,1008.477
13.916017055,-0.9204421,-0.1017113,0.002866823,0.02833637,-0.91374,0.411998,-0.9123096,53.18692,-16.58971,1008.477
13.948189735,-0.3675684,0.7860639,0.370589,0.02629361,-0.9230006,0.4056748,-0.9123096,53.18692,-16.58971,1008.476
13.982836723,2.028218,0.4901389,0.1867279,0.02631148,-0.9147637,0.4038145,-0.9123096,53.18692,-16.58971,1008.476
14.015009403,1.905357,0.01665873,0.06415385,0.02394052,-0.9098532,0.4096611,-0.5396338,53.93813,-17.04165,1008.476
14.049656391,0.2467357,-0.3384513,-0.1809942,0.02783216,-0.9137523,0.4100747,-0.534627,52.80042,-16.58979,1008.476
14.081829071,-1.473316,-0.6935614,-0.6100034,0.02483161,-0.9196066,0.4042704,-0.534627,52.80042,-16.58979,1008.476
14.116472244,0.7996094,-0.6343764,-0.5487164,0.03355237,-0.9308297,0.4021685,-0.5285921,53.18724,-16.14537,1008.476
14.148644924,0.1238749,-0.1608963,-0.0584202,0.02589444,-0.9113117,0.4105948,-0.9067879,52.81147,-16.14157,1008.476
14.183291912,-0.9818726,-0.04252628,0.06415385,0.02676526,-0.9220508,0.4032682,-0.9067879,52.81147,-16.14157,1008.476
14.215464592,0.738179,-0.2200813,-0.1809942,0.03112856,-0.9250001,0.4012752,-0.5341129,53.56269,-16.59351,1008.474
14.250111580,1.966787,-0.2200813,-0.1809942,0.02829584,-0.915711,0.4081262,-1.289992,53.57342,-16.58964,1008.472
14.282284260,1.413914,-0.1608963,-0.3648553,0.02399926,-0.9064148,0.4149909,-1.289992,53.57342,-16.58964,1008.472
14.316928387,-0.4904292,-0.3384513,-0.2422813,0.03029249,-0.9185816,0.4148318,-0.9123096,53.18692,-16.58971,1008.472
14.349100113,0.3695966,-0.1017113,-0.1197072,0.0258177,-0.9200858,0.4057032,-0.9123096,53.18692,-16.58971,1008.472
14.381272793,1.352483,-0.1608963,-0.1197072,0.03074785,-0.9166794,0.4100233,-0.9123096,53.18692,-16.58971,1008.474
14.415920734,0.8610399,0.07584374,-0.1809942,0.03227216,-0.9069605,0.4124992,-0.5401487,53.17587,-17.03793,1008.474
14.448092937,0.4924574,0.1350287,0.002866823,0.02683996,-0.912795,0.4076818,-0.5343704,53.18155,-16.59165,1008.474
14.482740402,0.738179,-0.2200813,-0.1809942,0.02876383,-0.9225017,0.4090298,-0.5343704,53.18155,-16.59165,1008.472
14.514908790,0.9839007,-0.2792663,-0.3035683,0.02687055,-0.9151851,0.4124818,-1.296285,52.80547,-17.0322,1008.472
14.549556255,1.168192,-0.04252628,-0.0584202,0.03560913,-0.9172041,0.4080456,-0.161952,53.55163,-17.04172,1008.471
14.581728458,1.413914,0.07584374,-0.0584202,0.02678347,-0.9205835,0.4047261,-0.161952,53.55163,-17.04172,1008.469
14.616375923,1.352483,-0.2200813,-0.1809942,0.02196076,-0.9195401,0.4110457,-0.918088,53.18123,-17.036,1008.469
14.648548126,0.3695966,-0.1608963,-0.2422813,0.02932045,-0.9147046,0.4134269,-0.9178305,53.56237,-17.03786,1008.469
14.683195591,0.1238749,0.3125838,0.1254409,0.02981863,-0.9161485,0.4153383,-0.9123096,53.18692,-16.58971,1008.469
14.715363979,-0.4289988,0.4309538,0.3093019,0.02836275,-0.9132324,0.414894,-0.9123096,53.18692,-16.58971,1008.471
14.750011444,-1.780468,0.3125838,0.431876,0.02739095,-0.9141909,0.4158591,-0.918088,53.18123,-17.036,1008.469
14.782183647,-2.456203,0.3125838,0.55445,0.02832663,-0.9219695,0.4148223,-0.9120522,53.56805,-16.59158,1008.468
14.816831589,-1.350455,0.4309538,0.6157371,0.02776775,-0.9254165,0.4080511,-0.9120522,53.56805,-16.59158,1008.468
14.849004269,0.06244451,0.2533988,0.1867279,0.02293838,-0.913257,0.4081964,-0.5398912,53.557,-17.03979,1008.468
14.883651257,-0.1832771,0.4309538,0.1867279,0.02339613,-0.9186063,0.407184,-0.5396338,53.93813,-17.04165,1008.468
14.915820122,-0.9818726,0.5493239,0.370589,0.02541868,-0.9112983,0.4120454,-0.5396338,53.93813,-17.04165,1008.472
14.947992802,-1.964759,0.1942138,0.3093019,0.02198263,-0.9103324,0.4091934,-0.1564312,53.17618,-16.59358,1008.472
14.982639790,-1.657607,0.1350287,0.2480149,0.0268239,-0.9166781,0.4076499,-0.1509094,52.80073,-16.14544,1008.472
15.014812469,-0.4904292,0.3717688,0.3093019,0.02578735,-0.9225312,0.4032733,-0.1509094,52.80073,-16.14544,1008.47
15.049459457,0.9224703,0.07584374,0.06415385,0.02534198,-0.9210393,0.4076278,-0.5343704,53.18155,-16.59165,1008.468
15.081632137,-0.5518596,0.3717688,0.3093019,0.02883019,-0.909385,0.4105833,-0.9120522,53.56805,-16.59158,1008.468
15.116275311,-1.227594,0.1350287,0.370589,0.02535206,-0.9195795,0.4081217,-0.9120522,53.56805,-16.59158,1008.468
15.148447990,-1.166164,0.3125838,0.2480149,0.02728156,-0.9200932,0.4056895,-0.5285921,53.18724,-16.14537,1008.468
15.183094978,-0.4289988,0.6085089,0.493163,0.02386177,-0.9191126,0.4047655,-0.9125662,52.80579,-16.58785,1008.468
15.215267658,-1.411885,0.9044339,-0.1197072,0.01416117,-0.9107895,0.4078166,-0.9125662,52.80579,-16.58785,1008.468
15.249915600,0.738179,-0.9303015,-6.064548,0.007770147,-0.9330451,0.4129948,-0.9062738,53.57374,-16.14529,1008.468
15.282087803,-0.5518596,1.259544,-13.11256,0.001406315,-0.8590829,0.4329439,-0.5341129,53.56269,-16.59351,1008.474
15.316731453,-31.20564,17.29868,-29.53748,0.0275704,-1.045855,0.2104042,-0.5341129,53.56269,-16.59351,1008.474
15.348903656,-150.4421,74.47141,-61.71317,0.2362457,-1.201468,-0.2598833,-1.278179,53.96592,-15.69894,1008.474
15.383551121,-321.9558,107.2599,-143.4088,0.6604354,-1.170692,-0.08669391,-2.383107,54.01045,-13.46174,1008.472
15.415723324,-396.6552,115.9601,-151.0084,0.4975996,-2.533962,-0.04724944,-2.383107,54.01045,-13.46174,1008.472
15.450370788,-65.29951,116.3744,-162.4077,0.2369964,-1.150344,-0.4276867,-5.593481,57.29381,1.140533,1008.472
15.482543468,-141.0432,160.2897,-126.4935,0.2314714,-1.168836,-0.4374276,-15.27711,58.01764,17.06411,1008.476
15.514711857,-2.394772,158.7509,-102.469,0.6260442,-0.8409762,-0.2157227,-15.27711,58.01764,17.06411,1008.476
15.549358845,-35.87435,153.661,-85.1861,0.3473168,-0.729451,-0.2208784,-23.93173,45.99033,20.73838,1008.474
15.581531525,-27.0898,156.2651,-69.00632,0.3317856,-0.6412496,-0.3115863,-28.89661,37.94732,17.23266,1008.473
15.616178989,-75.92697,171.9491,-51.53952,0.3495183,-0.4519993,-0.5579393,-28.89661,37.94732,17.23266,1008.473
15.648351192,-125.8699,215.9828,-19.11868,0.3066457,-0.5361593,-0.7992328,-33.11477,32.23333,12.8828,1008.471
15.682999134,-114.8739,275.7596,29.1142,0.1465909,-0.3265679,-0.7251575,-35.05878,28.7788,8.892687,1008.467
15.715167999,-530.3277,274.5168,-89.10847,-0.7931926,-4.92968,-7.607405,-37.0012,26.46849,4.960751,1008.467
15.749814987,-10.99503,73.34689,-27.26986,1.88209,-0.682215,-0.5336497,-37.0012,26.46849,4.960751,1008.467
15.781987667,178.2721,23.09881,-9.680483,0.5304638,-0.9822385,0.03512635,-37.35705,24.97206,6.755249,1008.47
15.816634655,23.52886,14.69454,14.34403,-0.02857638,-0.1116077,0.1617542,-38.16571,23.78824,2.748173,1008.468
15.848807335,6.082625,9.13115,29.35935,0.8169864,-0.6408219,-0.006184495,-38.16571,23.78824,2.748173,1008.466
15.883454323,27.58327,-2.469112,51.85169,0.391592,-0.8000962,0.08805171,-37.8035,24.91003,1.46557,1008.466
15.915623188,69.72454,-6.730433,64.23167,0.417805,-0.8086486,0.1918485,-37.04686,26.04269,1.45612,1008.466
15.950270176,107.5042,-17.56129,89.72707,0.2236585,-0.8406103,0.3910164,-37.04686,26.04269,1.45612,1008.465
15.982442856,128.9435,-21.94098,109.0325,0.1737982,-0.7041486,0.4311666,-35.92908,27.9152,0.1021729,1008.465
16.014615536,147.3726,-39.81486,123.8027,0.03211404,-0.9303902,0.5212394,-34.43863,30.53892,-1.703711,1008.465
16.049263000,248.6099,-57.09688,135.2633,-0.01130095,-1.408818,0.6386821,-34.43863,30.53892,-1.703711,1008.463
16.081435680,324.1693,-68.10529,132.0151,0.1427221,-1.300501,0.622232,-31.06953,33.8867,-4.415545,1008.463
16.116078854,265.2575,-54.84785,150.4625,0.1500063,-0.3538542,0.3340206,-27.77415,36.78106,-12.79966,1008.465
16.148251534,21.25594,-74.20135,144.0274,0.08425684,-0.5408118,0.8469042,-27.77415,36.78106,-12.79966,1008.465
16.182898521,95.15673,-84.55872,168.4809,0.03816214,-0.8056707,0.7742969,-24.45116,37.79818,-18.94307,1008.465
16.215071201,14.56002,-77.27897,156.9589,0.02691776,-0.8131465,0.4268185,-21.07046,41.22084,-20.76265,1008.463
16.249718666,-12.40793,-37.62501,124.5994,0.1306307,-1.143516,0.3267273,-21.07046,41.22084,-20.76265,1008.463
16.281890869,-14.74228,2.443244,102.107,0.06905592,-0.9765339,0.3518144,-15.3665,42.2544,-23.02897,1008.466
16.316534042,-81.08713,44.58297,76.73421,0.1239251,-0.9697289,0.1995287,-9.312397,44.07986,-22.62293,1008.466
16.348706722,-83.42149,73.16933,63.31236,0.01238381,-0.9839367,0.1734604,-9.312397,44.07986,-22.62293,1008.464
16.383354664,-21.37677,92.87794,59.51257,-0.0295133,-1.159274,0.3830397,-4.759015,45.17589,-21.31288,1008.464
16.415527344,45.95096,95.24535,53.2,-0.02691558,-1.063062,0.5876943,0.1780834,46.27224,-19.55848,1008.464
16.450174332,116.4731,49.90962,49.15506,-0.01225157,-1.357273,0.9654295,0.1780834,46.27224,-19.55848,1008.464
16.482347011,198.3598,44.8789,36.89765,-0.05117323,-0.2846044,1.506281,5.829843,46.17466,-20.92633,1008.462
16.514515400,-62.228,39.25632,22.25006,0.01830727,-0.1785795,1.011976,10.29006,44.89374,-26.68185,1008.464
16.549162865,-148.722,53.99339,33.09786,-0.1888334,-0.4413796,0.4728666,10.29006,44.89374,-26.68185,1008.464
16.581335068,-112.3552,49.90962,28.01104,-0.481106,-1.426152,0.6058091,12.93383,42.18823,-26.68236,1008.468
16.682802677,109.1629,108.3844,43.2715,-0.3067988,-0.8338171,0.6784737,16.42319,45.27344,-20.08419,1008.468
16.749618530,-4.606267,132.7686,60.7383,-0.5286454,-0.8270348,0.407788,22.18314,43.69591,-17.87468,1008.466
16.781791210,-49.02046,145.0199,67.97018,-0.7305441,-0.5421695,0.4602204,22.18314,43.69591,-17.87468,1008.466
16.816438198,-30.03846,157.8039,86.35628,-0.6065678,-0.6175653,0.2670882,25.25675,43.32137,-13.99927,1008.466
16.848610878,-90.97742,135.9646,78.87926,-0.4722483,-0.9477663,0.2086467,29.48183,42.18632,-8.72335,1008.466
16.883258343,-39.74446,110.8702,69.87007,-0.9635912,-0.4891466,-0.1787093,29.48183,42.18632,-8.72335,1008.464
16.915426731,-19.65672,108.7987,65.9477,-0.8875024,-0.272848,0.3511174,33.7069,41.05127,-3.447428,1008.462
16.950073719,-47.60756,90.45136,49.82922,-0.7874945,-0.7467477,-0.236942,37.53098,38.75627,0.1146431,1008.462
16.982246399,-24.50972,88.49825,28.37876,-0.881112,-0.4079378,-0.04288553,37.53098,38.75627,0.1146431,1008.462
17.016894341,-1.411885,66.65899,34.38488,-0.8735415,-0.6430949,-0.1316547,38.32545,37.25998,3.178429,1008.467
17.049067020,2.273939,48.0157,31.56568,-0.9098349,-0.3925548,-0.3326544,39.48709,35.68424,5.411783,1008.461
17.081239223,1.966787,23.98659,33.71073,-0.861622,-0.4200016,-0.2730806,39.48709,35.68424,5.411783,1008.461
17.115882397,16.15721,14.8721,33.52687,-0.9230127,-0.4095654,-0.09215391,40.25978,34.92829,6.750479,1008.461
17.148055077,-10.07357,-6.612063,32.36241,-0.9219894,-0.3887713,-0.03849009,41.39861,33.77447,7.196539,1008.461
17.182702541,10.44418,2.028949,27.09173,-0.9155501,-0.3721626,-0.2095231,41.39861,33.77447,7.196539,1008.467
17.214874744,15.23576,-3.771182,25.06926,-0.8652264,-0.5522077,-0.173399,41.77026,33.00115,6.752048,1008.467
17.249522209,28.259,-0.2792663,29.78836,-0.931397,-0.4071494,-0.1619457,42.53115,31.85269,7.200043,1008.467
17.281694889,27.21469,-0.1017113,42.04576,-0.8315402,-0.614742,-0.1414529,42.53115,31.85269,7.200043,1008.468
17.316338062,31.76054,-0.2200813,48.17447,-1.023777,-0.2424511,-0.2011779,43.65341,31.82522,6.30168,1008.468
17.348510265,3.87113,-10.63664,58.22554,-0.9038213,-0.3887588,-0.02516353,44.78068,30.66003,5.855179,1008.468
17.383158207,-6.879192,-7.559023,71.89254,-0.9198415,-0.419105,0.05763968,44.78068,30.66003,5.855179,1008.468
17.415330887,-19.34957,1.141174,86.72401,-0.950128,-0.3314941,0.06973055,45.91398,29.88166,5.853098,1008.468
17.449977875,-2.333342,32.15412,103.3941,-0.9546396,-0.1943595,0.1634471,47.80239,27.94915,5.852734,1008.47
17.482150555,-36.55008,54.76279,110.5034,-0.9517262,-0.1735192,0.03537986,47.80239,27.94915,5.852734,1008.47
17.516793728,-16.70806,62.87114,132.6893,-1.078808,0.1107436,-0.06809473,50.09082,24.50947,7.643,1008.47
17.548966408,38.27216,67.72432,174.4257,-1.13326,0.2529604,-0.228848,51.99446,20.68754,8.927025,1008.47
17.583613396,100.1326,93.4698,226.3358,-1.454792,0.04336395,-0.2362517,51.99446,20.68754,8.927025,1008.472
17.615786076,19.78161,71.74889,141.6985,-1.603948,-0.411967,-0.4020115,53.53176,15.73975,11.17488,1008.47
17.647958755,-70.39823,-34.13309,-26.96342,-1.518263,0.1029778,0.719191,53.54948,7.758689,12.99908,1008.47
17.682606697,-14.31227,-91.89767,-60.97772,-0.914809,0.8778273,0.3777284,53.54948,7.758689,12.99908,1008.47
17.714775085,-58.48074,-95.98143,-12.98998,-1.105722,1.013259,0.06732666,50.9021,5.128334,13.02564,1008.47
17.749422073,53.01546,-35.96783,25.98857,-0.8462811,-0.005127982,-0.9715948,47.8226,7.782369,8.565283,1008.468
17.781594753,-25.55404,-48.69261,13.057,-1.275143,0.3016887,-0.2955663,47.8226,7.782369,8.565283,1008.468
17.816242218,26.2318,-55.26215,-0.3648553,-0.9415242,0.2356744,-0.4587654,45.91113,8.54955,6.849863,1008.467
17.848414421,3.87113,-45.25988,-5.941974,-0.943471,0.4314221,-0.3785675,45.13214,8.537548,5.068607,1008.471
17.883061886,-29.23986,-41.64959,-10.84494,-0.941601,0.1865772,-0.1535818,45.1148,8.520493,3.729767,1008.471
17.915230274,26.17037,-32.94939,-10.10949,-0.9250831,0.2222491,-0.2377917,45.1148,8.520493,3.729767,1008.469
17.949878216,-22.97396,-33.83717,-8.883751,-0.920464,0.3345845,-0.2070247,44.72583,9.27676,2.835417,1008.465
17.982050896,-46.74753,-30.52281,-8.148307,-0.8751926,0.2998864,-0.1455553,44.70957,9.641649,1.558468,1008.469
18.016697884,-128.8186,-33.77798,-14.46087,-0.8541436,0.3538892,0.01037933,44.70957,9.641649,1.558468,1008.467
18.048870564,-195.1634,-38.69034,-32.84698,-0.8649347,0.06765679,0.08427623,45.45993,10.00636,1.106461,1008.467
18.083517551,-218.0155,-47.74565,-60.97772,-0.810946,-0.06285475,0.1260765,45.09324,10.78456,1.933477,1008.463
18.115686417,-224.7729,-49.93549,-84.32808,-0.785372,-0.04780987,0.1423498,45.09324,10.78456,1.933477,1008.467
18.147858620,-220.227,-30.04933,-115.0329,-0.6195591,-0.314952,-0.08986745,44.72763,11.94469,2.822392,1008.465
18.182506084,-68.37103,-4.067107,-123.2453,-0.7442688,-0.4703645,0.06955681,43.99088,14.64042,4.152075,1008.464
18.214678764,8.846993,-9.038649,-130.6611,-1.051453,-0.3082497,0.3123494,43.99088,14.64042,4.152075,1008.464
18.249326706,-8.16923,-27.62274,-130.5998,-1.128128,-0.3789339,0.2233122,42.49325,18.4846,5.033764,1008.464
18.281498909,29.8562,-38.51279,-124.2872,-1.109179,-0.4834421,0.08972397,39.47231,22.33888,5.030628,1008.462
18.316142082,73.04178,-45.9701,-114.0523,-1.086276,-0.2442942,0.08617982,39.47231,22.33888,5.030628,1008.46
18.348314762,44.23091,-51.23756,-106.2688,-0.9897787,-0.05826799,0.03909506,37.56232,26.53545,3.234707,1008.458
18.382961750,4.608295,-45.79254,-102.3465,-0.902491,-0.1134027,0.05807003,34.11805,30.35044,-0.2729855,1008.458
18.415134430,3.072535,-23.89409,-93.33727,-0.9772277,-0.1523052,0.1264086,34.11805,30.35044,-0.2729855,1008.458
18.449781895,-16.09375,-17.20618,-78.5671,-0.929561,-0.1517555,0.1654923,31.07925,33.4254,-1.611242,1008.457
18.481954098,-39.49874,-3.060962,-61.5293,-0.8966528,-0.1434665,0.1286216,28.05727,35.75515,-1.606936,1008.455
18.516598225,-34.52288,5.402495,-36.76935,-0.8919747,-0.2176604,0.1404983,28.05727,35.75515,-1.606936,1008.453
18.548770904,-15.72517,11.38018,-6.125835,-0.8013315,-0.1742564,0.1626643,25.80252,37.76792,-0.7123852,1008.453
18.583417892,33.23486,27.1234,29.78836,-0.7901887,-0.1791468,0.03912815,25.43691,38.92806,0.1765289,1008.453
18.615590572,38.33359,43.81357,57.9191,-0.8566619,-0.08324155,0.09645101,25.43691,38.92806,0.1765289,1008.451
18.650237560,17.87727,58.07716,82.74035,-0.9561487,-0.1098062,0.1752442,24.30283,38.56303,0.1841908,1008.45
18.682410240,1.659635,58.43227,100.6974,-1.062445,-0.1633964,0.2697842,26.18046,37.76255,-0.7143192,1008.452
18.714578628,-14.92658,49.67288,114.487,-1.097054,-0.2415268,0.312361,26.18046,37.76255,-0.7143192,1008.446
18.749226093,-21.19248,37.24403,125.5187,-1.080048,-0.2783931,0.2632164,29.22602,36.15429,1.063086,1008.448
18.781398296,-27.76553,26.05807,133.5473,-1.089322,-0.2521989,0.192183,32.26977,33.08419,2.783867,1008.448
18.816046238,-38.27014,16.11498,137.2858,-1.084184,-0.2891861,0.1826721,32.26977,33.08419,2.783867,1008.447
18.848218918,-49.20475,6.88212,134.5279,-1.081625,-0.3142357,0.2089517,34.93011,29.25234,4.127781,1008.445
18.882866383,-64.93093,1.673839,122.9446,-1.070394,-0.355834,0.171872,38.72401,25.02324,5.467752,1008.443
18.915034771,-70.70538,-0.5160064,104.1295,-1.051323,-0.4361655,0.2153757,41.38357,20.04798,6.817247,1008.443
18.949681759,-66.83527,-5.250807,76.61164,-1.024901,-0.4710867,0.2987092,41.38357,20.04798,6.817247,1008.443
18.981854439,-72.5483,-10.51827,45.1714,-1.021558,-0.4503761,0.2800508,42.89199,15.07177,6.833702,1008.443
19.016501427,-79.36707,-10.34072,7.602458,-0.9515529,-0.4654373,0.1973335,44.02927,11.63115,7.290926,1008.441
19.048674107,-57.74358,-7.203913,-25.43125,-0.9493904,-0.4575183,0.2185866,44.02927,11.63115,7.290926,1008.44
19.083322048,-38.70015,-5.487547,-56.99407,-0.984687,-0.396598,0.2280941,45.16809,10.47733,7.736988,1008.44
19.115490437,-31.3285,-5.369177,-81.87659,-1.018618,-0.3913475,0.1947141,44.4232,10.87975,8.567801,1008.44
19.150137901,-16.83092,-3.475257,-102.04,-1.041866,-0.3760428,0.1502312,44.4232,10.87975,8.567801,1008.444
19.182310581,-10.74931,-0.3976364,-115.4619,-1.046771,-0.3093469,0.1729988,43.28489,12.79584,8.118019,1008.441
19.214482784,-33.04855,3.212649,-125.1452,-1.068242,-0.2589857,0.2068723,42.53736,16.6236,8.549559,1008.444
19.249130249,-39.56017,4.15961,-129.9256,-1.072654,-0.3097562,0.2291489,42.53736,16.6236,8.549559,1008.444
19.281302929,-33.47857,5.34331,-128.3934,-1.058273,-0.3115153,0.1991162,39.90014,20.4782,8.99077,1008.442
19.315946102,-16.03232,4.75146,-119.6907,-1.009297,-0.3294522,0.1705554,37.27472,24.7253,10.32268,1008.442
19.348118305,8.846993,3.271834,-104.7367,-0.9719352,-0.3090394,0.1351891,37.27472,24.7253,10.32268,1008.442
19.382766247,32.98914,1.200359,-82.85719,-0.9133939,-0.2880697,0.1227657,34.64302,28.20445,11.21203,1008.44
19.414938927,45.52095,-2.054817,-59.56812,-0.8769564,-0.2429808,0.1396674,31.62156,31.29646,11.21262,1008.44
19.449585914,43.98519,-4.895698,-33.76628,-0.8346569,-0.2090375,0.1626885,31.62156,31.29646,11.21262,1008.438
19.481758594,32.68199,-5.369177,-10.72236,-0.8207895,-0.1997324,0.1823978,29.33287,34.35501,9.424212,1008.438
19.516401768,18.06156,-5.132437,12.19899,-0.8105214,-0.2152391,0.1922961,28.94388,35.11127,8.529863,1008.438
19.548574448,8.171259,-3.475257,31.07539,-0.8448194,-0.2326038,0.1842791,28.94388,35.11127,8.529863,1008.437
19.583221435,5.775473,-3.948737,48.29704,-0.8735046,-0.2836223,0.2217221,28.17702,34.73032,7.706785,1008.435
19.615394115,13.26998,-5.961028,61.47375,-0.9650056,-0.2989044,0.2581179,28.92686,34.33276,7.258497,1008.435
19.650042057,16.09578,-15.37144,69.37978,-0.9145061,-0.3178359,0.3534085,28.92686,34.33276,7.258497,1008.435
19.682214737,36.49068,-9.689684,77.7761,-0.922593,-0.3233327,0.2647507,30.42655,33.53765,6.361921,1008.435
19.716857910,30.22478,-5.428362,86.35628,-0.9448982,-0.252007,0.2472308,33.06532,31.96985,5.909546,1008.435
19.749030113,5.591181,-3.593627,90.46251,-0.9772098,-0.2737021,0.2454255,33.06532,31.96985,5.909546,1008.439
19.781202793,-5.159141,-1.758892,91.19795,-0.9798655,-0.3024167,0.2336456,34.93589,29.25802,4.574062,1008.435
19.815850258,-11.11789,-2.883407,91.07538,-0.9967333,-0.2885992,0.2522329,37.19645,27.31446,4.125481,1008.437
19.848022461,-20.70103,-8.091688,83.65965,-0.9920347,-0.374901,0.3305255,37.19645,27.31446,4.125481,1008.437
19.882670402,-8.967826,-6.197768,74.03759,-0.9758096,-0.3728617,0.227725,39.46782,24.23886,4.575045,1008.433
19.914839268,-14.06655,-6.020213,59.26742,-0.9511476,-0.4065569,0.2170951,40.22138,20.79792,4.587923,1008.435
19.949486256,-7.124914,-3.001777,39.77814,-0.9418526,-0.3969105,0.2151599,42.09746,17.71064,3.700579,1008.433
19.981658936,-3.991963,1.141174,21.94362,-0.9398272,-0.3673557,0.2096006,42.09746,17.71064,3.700579,1008.435
20.016305923,-12.46936,2.975909,2.393061,-0.9387109,-0.3324159,0.2093963,42.47489,16.94301,3.702368,1008.435
20.048478603,-17.26093,5.34331,-13.97057,-0.946156,-0.3344277,0.1954712,43.61949,15.79487,4.594709,1008.435
20.083125591,-21.56106,5.875975,-29.66005,-0.9526661,-0.339904,0.2364567,43.61949,15.79487,4.594709,1008.435
20.115294457,-18.98098,8.65767,-42.16261,-0.9448671,-0.3380166,0.2344715,43.24733,15.80593,5.042923,1008.439
20.149942398,-16.09375,11.55774,-53.19427,-0.9580338,-0.3369757,0.235085,42.87016,16.95469,5.039274,1008.439
20.182114601,-10.62645,10.96589,-62.44861,-0.9966471,-0.3470326,0.2907923,42.87016,16.95469,5.039274,1008.439
20.216762066,-1.903329,12.03122,-71.88681,-0.9931551,-0.3286049,0.2909116,42.13264,18.50702,6.37454,1008.439
20.248934269,1.229622,11.61692,-77.03492,-0.9918111,-0.2890686,0.2574851,41.38383,20.42911,6.815386,1008.439
20.281106949,1.659635,12.97818,-78.26067,-0.9679695,-0.2665234,0.2381685,41.38383,20.42911,6.815386,1008.438
20.315750122,1.106762,13.92514,-73.848,-0.9658967,-0.2499818,0.2445515,38.73954,22.37236,6.81962,1008.436
20.347922802,1.721066,13.51084,-65.94197,-0.9404014,-0.2451634,0.2564033,37.61382,25.82435,7.254953,1008.434
20.382569790,1.475344,11.73529,-54.54259,-0.9243878,-0.2549968,0.2503888,37.61382,25.82435,7.254953,1008.434
20.414742470,6.082625,7.888266,-41.97874,-0.9034427,-0.2875353,0.2614931,35.35793,27.39165,8.087923,1008.436
20.449390411,25.55607,1.022804,-21.20244,-1.020377,-0.296457,0.2880566,34.98154,29.68382,8.078691,1008.436
20.481563091,33.05058,-3.652812,-13.29642,-0.7663092,-0.2268714,0.3489196,34.98154,29.68382,8.078691,1008.436
20.516206264,5.836903,-0.1017113,2.331774,-0.8987944,-0.2780241,0.1130723,33.46534,30.46269,7.70018,1008.436
20.548378944,12.10281,1.081989,15.75363,-0.8779993,-0.2855908,0.1523399,32.32022,30.84856,6.81156,1008.438
20.583025932,28.07471,2.739169,27.03045,-0.8905728,-0.3158887,0.1806454,32.32022,30.84856,6.81156,1008.438
20.615198612,38.02644,1.022804,35.12033,-0.8883103,-0.273062,0.1968833,33.44275,31.20222,5.911333,1008.438
20.649846554,25.74036,0.6676939,41.24903,-0.9311674,-0.2664836,0.2040854,34.19811,30.42921,5.911188,1008.436
20.682018757,14.68288,1.081989,45.29398,-0.9560034,-0.2827544,0.218161,34.19811,30.42921,5.911188,1008.436
20.716661930,-0.4904292,1.673839,47.5616,-0.9608209,-0.2657484,0.2173822,34.94217,30.02597,5.016621,1008.436
20.748834610,-11.17932,-1.403782,47.80674,-0.9898496,-0.3025348,0.1489059,35.31882,28.11494,5.023989,1008.436
20.783482075,33.35773,-13.1816,53.01614,-0.9580798,-0.3191628,0.2790942,35.31882,28.11494,5.023989,1008.436
20.815654278,32.92771,-1.995632,43.2715,-0.8617938,-0.3712448,0.3221103,37.20801,27.32583,5.018042,1008.436
20.847826958,12.83997,-3.416072,40.75874,-0.9167365,-0.3025679,0.2547452,38.70089,25.0005,3.682631,1008.44
20.882473946,30.40907,4.75146,36.95894,-0.8929825,-0.3404736,0.1380492,38.70089,25.0005,3.682631,1008.439
20.914642811,44.29234,12.14959,35.67191,-0.9108968,-0.1938086,0.2001574,39.06625,23.45922,2.795576,1008.437
20.949290752,59.03564,14.39862,37.81696,-0.8487964,-0.1896132,0.1547866,39.81609,23.06167,2.34729,1008.437
20.981462955,60.69426,19.84364,44.00695,-0.8231141,0.004896942,0.1551865,39.81609,23.06167,2.34729,1008.435
21.016110420,61.9843,25.70296,47.74546,-0.8472276,-0.02273124,0.1445798,40.93866,22.27274,1.516401,1008.433
21.048283100,71.19887,30.37857,49.8905,-0.7679023,0.04675584,0.1429664,41.31532,20.36171,1.523771,1008.433
21.082930088,67.94305,35.64603,55.59019,-0.7516359,0.1082743,0.0743959,42.06465,19.20188,1.079206,1008.432
21.115098476,68.25021,49.67288,62.45434,-0.8064147,0.2181664,0.06472701,42.06465,19.20188,1.079206,1008.432
21.149746418,27.0304,59.67515,64.29295,-0.8389741,0.1261657,0.009324417,42.44759,18.0588,1.529135,1008.434
21.181919098,51.29541,61.21396,74.16016,-0.9010777,0.1157182,-0.0007862095,43.59561,14.62873,2.815166,1008.434
21.216566086,43.8009,67.42839,76.91808,-1.020647,0.2632325,0.04299757,43.59561,14.62873,2.815166,1008.434
21.248738766,14.62145,70.86112,82.55649,-1.074773,0.2630931,-0.01000047,43.99511,12.3593,4.609522,1008.436
21.283386230,21.50166,68.1978,84.94668,-1.02512,0.1351468,-0.07899851,44.7723,9.703371,6.403801,1008.434
21.315554619,41.28225,70.80193,85.62083,-1.130183,0.5177787,0.1256481,44.7723,9.703371,6.403801,1008.434
21.350202560,-43.55315,59.20167,71.58611,-1.073942,0.1667634,-0.03875834,45.17625,6.676547,8.584402,1008.434
21.382374763,-0.6747205,60.44456,65.9477,-1.071065,0.1754441,-0.1071576,45.57499,3.263717,10.38434,1008.436
21.414547443,-2.763355,61.33233,56.38692,-1.084868,0.629307,-0.1109991,45.57499,3.263717,10.38434,1008.437
21.449194908,-74.32978,54.40768,44.31338,-1.040339,0.1980029,-0.1202723,44.85194,0.5771062,13.07922,1008.437
21.481367111,-20.45531,48.96266,35.36548,-1.08429,0.2682353,-0.04168124,44.48953,-2.068405,14.43303,1008.437
21.516010284,-68.86247,36.65218,26.84658,-0.8785546,0.5953757,-0.2240638,44.48953,-2.068405,14.43303,1008.441
21.548182964,-26.90551,38.90121,37.1428,-0.9856197,0.5874717,-0.185052,43.75414,-4.703675,16.17129,1008.441
21.582830906,-24.264,27.8928,25.25312,-0.9515139,0.3982151,-0.1580105,43.75888,-6.222525,16.62501,1008.443
21.615003586,3.256826,13.2741,16.61165,-0.8938589,0.2373746,0.04449333,43.75888,-6.222525,16.62501,1008.443
21.649650574,68.68022,12.80062,4.109097,-0.9699317,0.5395865,-0.1532992,44.14709,-8.12219,17.52494,1008.443
21.681823254,85.81931,8.30256,4.844542,-0.6672547,0.6852357,-0.2681926,44.5416,-9.253906,18.86743,1008.443
21.716466427,43.55518,9.190335,4.844542,-0.7542114,0.6433994,-0.08456628,44.5416,-9.253906,18.86743,1008.443
21.748639107,56.02555,5.284125,-5.022669,-0.8099014,0.3319071,-0.2312144,44.55944,-8.474583,20.20255,1008.441
21.783286095,101.6684,13.86595,-22.73462,-0.8058625,0.3625502,-0.3461974,44.57043,-8.082891,21.0295,1008.441
21.815458775,91.83949,5.639235,-32.96955,-0.7127614,0.7273448,-0.1869269,44.57043,-8.082891,21.0295,1008.443
21.850217819,27.27612,-12.94486,-38.73053,-0.8214754,0.7628012,-0.1909222,45.33889,-6.557725,21.91075,1008.443
21.882390499,-21.92964,-21.52669,-49.14933,-1.028626,0.4358995,-0.2933861,46.85798,-4.286714,22.33813,1008.441
21.914558887,-40.97308,-23.42061,-66.67741,-0.8770977,0.05462198,-0.544245,46.85798,-4.286714,22.33813,1008.447
21.949206829,-17.07664,-27.386,-78.26067,-0.9266785,0.3827191,-0.3892477,47.98705,-2.78397,21.8786,1008.447
21.981379509,-22.8511,-39.22301,-85.1861,-0.9412811,0.2730555,-0.3316936,49.86653,-2.059103,21.0364,1008.447
22.016026497,-22.66681,-33.24532,-97.4435,-1.010208,0.1524334,-0.3455409,49.86653,-2.059103,21.0364,1008.447
22.048199177,-5.957736,-32.35754,-88.55688,-1.01616,0.1667334,-0.1313597,50.99034,0.2002226,20.12688,1008.449
22.082846642,31.51482,-32.35754,-73.3577,-0.9739609,0.3412661,-0.1303145,52.10315,3.273968,18.32076,1008.449
22.115015030,20.39591,-26.79415,-80.71214,-1.051214,-0.021423,-0.3210455,53.22092,5.146475,16.96681,1008.447
22.149662971,21.01022,-29.87177,-70.35464,-0.9043823,0.04687304,-0.2447327,53.22092,5.146475,16.96681,1008.447
22.181835174,17.63154,-27.32682,-51.90724,-1.038924,0.07173992,-0.06493245,53.21745,8.570992,16.50378,1008.447
22.216482639,9.76845,-22.71039,-65.57425,-0.9920378,-0.004191092,-0.3142256,52.81846,11.60269,14.70571,1008.445
22.248655319,-2.08762,-25.49208,-71.39651,-0.9676031,-0.3248493,-0.2129853,52.81846,11.60269,14.70571,1008.449
22.283302307,-11.05646,-31.7657,-64.28722,-0.9848111,0.2859018,0.1734719,52.42529,13.49748,13.42325,1008.449
22.315470695,4.055421,-36.20457,-50.37507,-0.9489914,-0.2348612,-0.3647289,51.6594,15.78365,12.52339,1008.449
22.350118637,-25.6769,-39.69649,-58.95525,-0.9827173,-0.1310374,-0.01459069,51.6594,15.78365,12.52339,1008.449
22.382291317,15.35862,-58.63569,-32.23411,-0.9714029,-0.2077116,-0.2572921,51.27094,17.30218,11.62532,1008.449
22.416938305,7.864107,-68.22366,-47.06557,-0.9813209,-0.01802582,0.0388659,50.49927,19.58266,10.27918,1008.451
22.449110985,25.12605,-61.12146,-39.09826,-0.9872993,-0.0955538,0.1780624,50.49927,19.58266,10.27918,1008.451
22.481283665,-13.26795,-54.6703,-52.76526,-0.9501205,-0.245933,0.08730584,50.08825,20.69814,7.661608,1008.451
22.515926838,-10.25786,-37.32909,-48.84289,-0.9310731,-0.4084177,0.0515666,50.06643,22.58107,5.86718,1008.455
22.548099518,33.17344,-41.64959,-63.36792,-1.017085,-0.06012144,0.1588704,50.06643,22.58107,5.86718,1008.455
22.582747459,49.02248,-39.04545,-53.92971,-0.8986455,-0.518482,-0.1014732,48.90475,24.09328,3.634136,1008.455
22.614919662,-10.19643,-52.24371,-78.01552,-0.8455094,-0.5914811,0.1596369,47.37168,26.75995,1.843723,1008.455
22.649567127,66.22301,-54.37437,-74.21572,-0.9248415,-0.265006,0.08498472,47.37168,26.75995,1.843723,1008.455
22.681739330,7.249803,-72.78091,-95.60489,-0.8956949,-0.3803993,0.1830533,45.82158,28.64811,-1.218054,1008.455
22.716382980,1.843927,-96.33654,-103.7561,-0.8164996,-0.6127028,0.1958232,44.283,31.69023,-3.456608,1008.455
22.748555183,2.765383,-126.5801,-97.68865,-0.7323391,-0.6118728,0.1058749,44.283,31.69023,-3.456608,1008.455
22.783202648,18.79872,-125.6331,-77.46393,-0.7771413,-0.5299913,0.3098897,39.70464,35.14018,-6.956638,1008.455
22.815375805,4.731156,-118.8268,-67.53543,-0.6550587,-0.5576755,0.4492662,36.26483,38.2613,-10.07839,1008.455
22.850022793,0.2467357,-106.3388,-64.59366,-0.569124,-0.4805778,0.9985792,36.26483,38.2613,-10.07839,1008.453
22.882195473,-8.967826,-100.006,-60.97772,-0.4728656,-0.68471,0.6470307,33.19142,40.15956,-14.025,1008.453
22.916838646,31.57625,-96.33654,-69.61919,-0.5025118,-0.6767519,0.7158168,29.76211,41.70399,-16.24644,1008.453
22.949011326,24.8189,-88.9976,-66.37098,-0.4998576,-0.4473203,0.5721196,29.76211,41.70399,-16.24644,1008.457
22.981184006,2.028218,-84.44035,-61.46802,-0.4411225,-0.740382,0.5604796,26.70031,42.47104,-19.23114,1008.457
23.015830994,21.19451,-75.5626,-48.10745,-0.3388461,-0.6976286,0.6316956,22.52089,44.03188,-21.00244,1008.457
23.048004150,17.69297,-79.05452,-45.47211,-0.2519538,-0.6807369,0.8011699,22.52089,44.03188,-21.00244,1008.457
23.082651615,-3.930532,-72.78091,-44.18508,-0.1363227,-0.7576993,0.7772845,20.2191,44.79225,-23.67224,1008.457
23.114820004,-24.44829,-72.18906,-45.65597,-0.1348572,-0.7988459,0.8554975,15.99382,44.84733,-24.03317,1008.457
23.149466991,7.495524,-75.85853,-47.31072,-0.003524414,-0.7583379,0.843038,12.58132,45.64654,-24.91205,1008.456
23.181639671,36.49068,-68.93388,-36.34034,0.09307785,-0.6523766,0.6728644,12.58132,45.64654,-24.91205,1008.46
23.216287136,5.714042,-56.20911,-21.44759,0.1179462,-0.4079066,0.6683818,8.790627,46.06999,-25.78713,1008.46
23.248459339,-27.27409,-43.78025,-15.07374,0.07016092,-0.6884385,0.576381,5.749516,45.71475,-27.10864,1008.46
23.283107281,-2.640494,-35.25761,-0.2422813,0.01934476,-0.731283,0.5895159,5.749516,45.71475,-27.10864,1008.46
23.315275669,0.06244451,-29.87177,1.289894,-0.02864037,-0.7897044,0.59864,3.109719,45.75801,-26.64882,1008.46
23.350057602,10.0756,-11.11012,4.292959,-0.06889471,-0.7824692,0.5667813,1.953044,46.13251,-28.43001,1008.46
23.382230282,-13.94369,-8.032503,15.38591,-0.2080178,-0.8560668,1.004164,1.953044,46.13251,-28.43001,1008.46
23.416878223,14.92861,-29.63503,7.418597,-0.2175739,-0.809707,0.715436,0.7969408,46.12669,-30.14557,1008.461
23.449050903,28.50473,-37.32909,16.67294,-0.3642778,-0.5487635,0.785472,0.02475548,47.64491,-31.48799,1008.461
23.483697891,-25.86119,-48.92935,5.150977,0.1571421,-0.7019309,0.7711499,0.02475548,47.64491,-31.48799,1008.461
23.515866279,46.74956,-16.02248,5.763847,-0.3662896,-0.774002,0.6549401,-1.114841,47.65533,-31.92847,1008.461
23.548038959,7.925538,-16.31841,7.908893,-0.09549463,-0.5018348,0.7500929,-2.259188,49.1846,-32.82267,1008.461
23.582686424,-45.21177,-11.46523,5.212264,-0.02237358,-0.6429878,0.8089788,-2.259188,49.1846,-32.82267,1008.463
23.614858627,-57.49786,-12.05708,2.331774,0.008465381,-0.6014295,0.7420357,-3.015581,48.43307,-32.81508,1008.461
23.649506569,-76.97129,-15.66737,-0.6712904,0.08542183,-0.7107115,0.7192088,-2.24134,49.96392,-31.48755,1008.461
23.681679249,-83.11433,-17.97558,-1.222874,0.07852119,-0.7696608,0.6233513,-2.24134,49.96392,-31.48755,1008.463
23.716322422,-62.228,-16.91026,3.067218,0.1821177,-0.9121403,0.5927721,-1.061606,50.75475,-27.99058,1008.463
23.748495102,-38.51586,-11.11012,4.905829,0.1020119,-0.8305712,0.5445461,-1.793344,52.31276,-26.20904,1008.463
23.783142090,-50.00335,-6.197768,4.721968,0.0359974,-0.8593811,0.5425145,-1.793344,52.31276,-26.20904,1008.461
23.815314770,-29.42415,-5.665102,2.576922,0.02435362,-0.89259,0.5086095,-1.007803,53.47385,-23.98708,1008.461
23.849962711,-17.9981,-3.120147,1.228607,0.0270487,-0.9116754,0.490111,-1.362942,54.2634,-22.2675,1008.461
23.882135391,-6.203458,-3.948737,0.1254409,0.02926042,-0.8693784,0.500561,-1.362942,54.2634,-22.2675,1008.46
23.916778564,-8.967826,-4.895698,-0.0584202,0.02586897,-0.8664378,0.5020629,-1.357163,54.26909,-21.82122,1008.46
23.948950768,2.703952,-4.067107,-1.161587,0.08832951,-0.8740041,0.5052737,-1.735103,54.27446,-21.81929,1008.46
23.983598232,6.574068,-2.528297,-0.8551515,0.1046251,-0.8763275,0.5292025,-1.735103,54.27446,-21.81929,1008.46
24.015770435,12.9014,1.733024,2.270487,0.07759817,-0.8343312,0.5447429,-1.72881,55.04242,-21.37673,1008.46
24.050418377,2.519661,2.206504,1.657616,0.06092716,-0.8478608,0.5418949,-0.9852591,53.87691,-22.26757,1008.46
24.082591057,2.089648,1.733024,0.6770241,0.03498003,-0.8429726,0.5296453,-0.9852591,53.87691,-22.26757,1008.46
24.114759445,0.7996094,0.4309538,0.06415385,0.03996706,-0.8395144,0.5407133,-1.351129,54.65591,-21.3768,1008.464
24.149406910,-9.090687,-0.5160064,0.002866823,0.04461953,-0.8165717,0.560621,-0.984745,54.63917,-22.2713,1008.465
24.181579590,-16.33947,-0.8711165,-0.4261424,0.05140489,-0.8625495,0.5192087,-0.984745,54.63917,-22.2713,1008.465
24.216226578,-9.029257,-0.6343764,-0.0584202,0.0490851,-0.8967242,0.4919566,-1.356649,55.03136,-21.82494,1008.465
24.248399257,0.7996094,-0.5751914,0.3093019,0.05993154,-0.8913577,0.5025036,-1.350871,55.03704,-21.37866,1008.465
24.283047199,5.34546,0.4901389,-0.6100034,0.05720151,-0.8640833,0.512876,-1.357163,54.26909,-21.82122,1008.465
24.315215587,3.441117,0.8452489,-0.1809942,0.05252833,-0.8474297,0.5294448,-1.357163,54.26909,-21.82122,1008.465
24.349862575,-0.8590117,0.1350287,-0.3648553,0.05405268,-0.8386778,0.5323948,-0.5952492,54.64518,-21.38067,1008.464
24.382035255,-4.114824,-0.6343764,-0.0584202,0.05101997,-0.8513313,0.5260527,-0.9734449,54.26941,-21.37687,1008.464
24.416682720,-3.193367,-0.4568214,-0.0584202,0.05563467,-0.8762587,0.5065242,-0.9734449,54.26941,-21.37687,1008.464
24.448854923,-0.4289988,-0.1017113,0.002866823,0.04882112,-0.8670204,0.5042539,-1.72881,55.04242,-21.37673,1008.464
24.515671730,2.458231,-0.4568214,-0.1197072,0.0480134,-0.8586418,0.5202365,-1.356907,54.65022,-21.82308,1008.464
24.550318718,0.738179,-0.3976364,-0.1197072,0.04894682,-0.8620703,0.5168256,-1.356907,54.65022,-21.82308,1008.464
24.582491398,-0.5518596,-0.5751914,-0.3648553,0.04454872,-0.8538334,0.5121145,-1.339315,55.04841,-20.4861,1008.462
24.614663601,0.7996094,-0.9894865,-0.3035683,0.05333865,-0.866928,0.5191545,-1.339315,55.04841,-20.4861,1008.464
24.649311066,1.966787,-0.5160064,-0.2422813,0.05769734,-0.8592429,0.5114652,-1.34535,54.66159,-20.93052,1008.464
24.681484222,2.151079,-0.1017113,0.55445,0.05189642,-0.8528774,0.5149459,-1.729068,54.66128,-21.37487,1008.464
24.716127396,1.475344,-0.04252628,0.6770241,0.05388691,-0.8543028,0.5202175,-1.729068,54.66128,-21.37487,1008.464
24.748300075,0.7996094,-0.6343764,0.493163,0.04606143,-0.8557307,0.5188327,-1.345093,55.04273,-20.93238,1008.462
24.782947063,1.168192,-0.8711165,0.2480149,0.04692031,-0.8713162,0.5124303,-1.723289,54.66697,-20.92859,1008.462
24.815119743,2.703952,-0.2792663,0.1867279,0.04165956,-0.8533,0.5164838,-1.723289,54.66697,-20.92859,1008.464
24.849766731,3.993991,-0.3384513,-0.4874294,0.05471343,-0.8728191,0.5113811,-1.351129,54.65591,-21.3768,1008.464
24.881940365,7.311233,-0.5751914,0.2480149,0.05722349,-0.8568098,0.5119717,-1.356907,54.65022,-21.82308,1008.464
24.916583538,5.898334,0.07584374,0.1867279,0.05161893,-0.8372093,0.5324296,-1.356907,54.65022,-21.82308,1008.464
24.948755741,0.9839007,0.3125838,0.3093019,0.05317212,-0.8361683,0.5425456,-1.740624,54.64991,-22.26743,1008.462
24.983403206,-0.1218467,-0.1608963,-0.0584202,0.04770575,-0.8492876,0.5371865,-1.734589,55.03673,-21.82301,1008.464
25.015575886,0.1238749,0.1350287,-0.0584202,0.05105438,-0.8488821,0.5289646,-1.734589,55.03673,-21.82301,1008.466
25.050223351,-0.6747205,0.1942138,-0.0584202,0.04866904,-0.8405997,0.5314651,-1.362428,55.02567,-22.27122,1008.464
25.082396030,-2.579063,0.1350287,-0.0584202,0.05063931,-0.8439777,0.5352749,-1.356907,54.65022,-21.82308,1008.464
25.114564419,-4.421976,-0.04252628,0.06415385,0.04996525,-0.8596187,0.5206922,-1.356907,54.65022,-21.82308,1008.468
25.149211883,-2.579063,-0.04252628,-0.2422813,0.04797913,-0.8639922,0.5187467,-1.729324,54.28015,-21.37301,1008.466
25.181384563,0.1238749,0.6676939,0.2480149,0.05138223,-0.8562838,0.5134765,-1.356907,54.65022,-21.82308,1008.466
25.216031551,1.659635,0.4309538,0.002866823,0.05538743,-0.8562111,0.5254898,-1.356907,54.65022,-21.82308,1008.466
25.248204231,0.1853053,0.4901389,0.06415385,0.05398034,-0.8542178,0.5313033,-1.734846,54.65559,-21.82115,1008.466
25.282852173,-0.7361509,0.07584374,0.2480149,0.04664664,-0.850809,0.5280259,-1.356649,55.03136,-21.82494,1008.466
25.315020561,-0.9204421,0.1350287,0.1867279,0.05004631,-0.8556765,0.5284359,-1.735103,54.27446,-21.81929,1008.466
25.349667549,0.2467357,-0.04252628,0.1254409,0.05532042,-0.8567556,0.5177739,-1.735103,54.27446,-21.81929,1008.465
25.381840229,0.9839007,0.1350287,0.1254409,0.05341114,-0.8542892,0.5216681,-1.734846,54.65559,-21.82115,1008.469
25.416487694,1.229622,0.1350287,-0.1809942,0.04861877,-0.8508004,0.5304175,-1.734589,55.03673,-21.82301,1008.469
25.448659897,-0.1218467,0.3125838,0.06415385,0.0490683,-0.8542228,0.5274931,-1.734589,55.03673,-21.82301,1008.469
25.483307838,0.3695966,0.1942138,-0.0584202,0.05296396,-0.8571512,0.5279146,-1.735103,54.27446,-21.81929,1008.47
25.515476704,1.045331,0.3717688,0.2480149,0.0534292,-0.8499207,0.5217039,-1.362685,54.64454,-22.26936,1008.469
25.550123691,0.4924574,0.4901389,0.3093019,0.04567861,-0.8459612,0.5266288,-1.362685,54.64454,-22.26936,1008.469
25.582296371,0.001014095,0.4901389,-0.0584202,0.05059296,-0.8512734,0.5332872,-1.734589,55.03673,-21.82301,1008.467
25.616943359,-0.6747205,0.2533988,0.002866823,0.04719313,-0.8435047,0.5314549,-1.357163,54.26909,-21.82122,1008.467
25.649116039,-0.7361509,0.1350287,-0.0584202,0.05147151,-0.8542684,0.5231323,-1.357163,54.26909,-21.82122,1008.467
25.681289196,-0.3675684,0.07584374,-0.0584202,0.04513236,-0.858101,0.5255699,-1.350871,55.03704,-21.37866,1008.465
25.715932369,-0.4289988,0.1350287,0.06415385,0.05493193,-0.855212,0.5288762,-0.9787092,55.02599,-21.82688,1008.463
25.748105049,-1.166164,0.1942138,0.1867279,0.04856997,-0.8498777,0.5241596,-0.9787092,55.02599,-21.82688,1008.465
25.782752037,-1.289025,0.07584374,-0.1197072,0.05499663,-0.8493503,0.5337439,-1.734846,54.65559,-21.82115,1008.463
25.814924717,-1.166164,0.01665873,-0.0584202,0.05342137,-0.8557307,0.5235841,-1.735103,54.27446,-21.81929,1008.463
25.849572659,-0.2447076,0.07584374,0.1254409,0.04704796,-0.8649138,0.5245318,-1.735103,54.27446,-21.81929,1008.462
25.881745338,0.1238749,-0.1017113,-0.0584202,0.05154875,-0.8551652,0.5327642,-1.362685,54.64454,-22.26936,1008.462
25.916388512,-0.6132901,-0.3976364,0.002866823,0.04713048,-0.8498481,0.5270653,-1.362685,54.64454,-22.26936,1008.46
25.948560715,-2.14905,-1.226226,-0.3648553,0.05197591,-0.8581244,0.5269518,-1.362685,54.64454,-22.26936,1008.464
25.983208179,-3.746241,-1.285411,-0.1809942,0.05525567,-0.8616502,0.5124322,-1.356907,54.65022,-21.82308,1008.464
26.015380859,-2.08762,-0.6343764,0.06415385,0.04503491,-0.8591567,0.5144761,-1.350871,55.03704,-21.37866,1008.462
26.050028324,0.5538878,-0.1608963,-0.0584202,0.04411964,-0.8532939,0.5188709,-1.350871,55.03704,-21.37866,1008.462
26.082201004,-0.4904292,-0.4568214,0.06415385,0.05633304,-0.8596286,0.5235248,-1.729324,54.28015,-21.37301,1008.46
26.116844177,-0.7975813,0.1350287,0.002866823,0.04601082,-0.8591617,0.5144669,-0.9787092,55.02599,-21.82688,1008.46
26.149016857,1.536775,0.07584374,0.1254409,0.05144929,-0.8567064,0.5216665,-0.9787092,55.02599,-21.82688,1008.459
26.183663845,0.6767486,0.6676939,-0.0584202,0.04759611,-0.8503544,0.5246467,-1.356907,54.65022,-21.82308,1008.459
26.215836525,0.1238749,0.9044339,0.55445,0.05141287,-0.8596409,0.5187505,-1.350871,55.03704,-21.37866,1008.457
26.248009205,-0.3675684,0.9636189,0.1254409,0.05092316,-0.8649592,0.5211213,-1.350871,55.03704,-21.37866,1008.461
26.282657146,-0.2447076,0.4901389,0.6770241,0.04605742,-0.8567015,0.5188248,-0.9729309,55.03168,-21.3806,1008.461
26.314825535,-3.131937,0.4901389,-0.1809942,0.0485987,-0.8556543,0.5303777,-1.734589,55.03673,-21.82301,1008.463
26.349472999,-5.220571,-1.699707,0.1254409,0.04891432,-0.8620999,0.5129696,-1.729068,54.66128,-21.37487,1008.463
26.381645202,-4.667697,-1.640522,0.1867279,0.05083608,-0.8703578,0.5133656,-1.729068,54.66128,-21.37487,1008.463
26.416292667,-0.1218467,-0.6343764,0.2480149,0.04014127,-0.8615628,0.5140199,-0.9671526,55.03736,-20.93432,1008.463
26.448464870,-2.14905,0.2533988,0.370589,0.04745226,-0.8577388,0.5110912,-1.72881,55.04242,-21.37673,1008.463
26.483112812,-2.886215,-0.1017113,0.55445,0.05576354,-0.8538974,0.5110453,-1.72881,55.04242,-21.37673,1008.463
26.515281677,-3.684811,0.4309538,0.2480149,0.04790796,-0.8626062,0.5096008,-1.345093,55.04273,-20.93238,1008.463
26.549928665,-3.684811,0.2533988,0.2480149,0.05815133,-0.8703984,0.512815,-1.34535,54.66159,-20.93052,1008.463
26.582101345,-3.62338,0.3125838,0.370589,0.04640734,-0.8587638,0.5033805,-1.34535,54.66159,-20.93052,1008.463
26.616749287,-5.097711,-0.6343764,0.370589,0.03668262,-0.8552983,0.5059098,-0.9671526,55.03736,-20.93432,1008.463
26.648921490,-11.91649,-1.167041,0.6770241,0.05389503,-0.8542954,0.5211815,-1.717255,55.05378,-20.48417,1008.465
26.683568954,-12.65365,-0.1017113,1.657616,0.04467418,-0.8759261,0.4796372,-1.717255,55.05378,-20.48417,1008.465
26.715737343,-12.22364,1.318729,2.944644,0.02659599,-0.8855282,0.4816547,-1.333537,55.0541,-20.03982,1008.465
26.747910023,-10.99503,1.022804,2.576922,0.05549821,-0.8691294,0.4868222,-0.5718794,55.04905,-19.59741,1008.469
26.782557011,-13.20652,3.212649,2.393061,0.0468309,-0.9023086,0.4586736,-0.5718794,55.04905,-19.59741,1008.47
26.814729691,-7.554927,3.8045,0.6157371,0.03702272,-0.8955341,0.449663,-0.9440403,55.0601,-19.14919,1008.47
26.849377632,-5.957736,3.449389,0.493163,0.05206627,-0.8691269,0.4849263,-0.5598087,55.82269,-18.70857,1008.469
26.881550312,-12.16221,3.271834,1.473755,0.01899479,-0.8949355,0.4527282,-0.5598087,55.82269,-18.70857,1008.469
26.916193485,-5.896306,2.620799,1.16732,0.0307238,-0.891593,0.4531283,-0.9264488,55.45829,-17.81221,1008.467
26.948365688,-1.719037,2.147319,0.002866823,0.02679555,-0.8867601,0.4479028,-0.9264488,55.45829,-17.81221,1008.467
26.983013153,0.6767486,0.8452489,-1.284161,0.03800093,-0.9008562,0.452502,-0.9264488,55.45829,-17.81221,1008.465
27.015186310,4.239712,0.4309538,-1.406735,0.03642376,-0.9096561,0.4432862,-0.5542879,55.44724,-18.26043,1008.463
27.049833775,10.81277,0.3125838,-0.7325774,0.03898868,-0.8940803,0.4506206,-1.304132,55.84479,-17.81214,1008.462
27.082005978,12.10281,0.1942138,-1.1003,0.04449773,-0.8814058,0.4612777,-1.304132,55.84479,-17.81214,1008.462
27.116649151,9.645589,1.437099,-0.8551515,0.04900968,-0.8914735,0.4804326,-0.5485096,55.45292,-17.81415,1008.462
27.148821831,8.662703,-0.5751914,-0.2422813,0.04412724,-0.8745266,0.4719419,-0.9380054,55.44692,-18.70477,1008.46
27.183469772,2.028218,-1.107857,-0.2422813,0.03503854,-0.8665769,0.4899262,-0.9380054,55.44692,-18.70477,1008.466
27.215642452,-2.02619,-0.6935614,-0.7325774,0.03546619,-0.879207,0.4888541,-0.9495611,55.43555,-19.59734,1008.464
27.247814655,-2.456203,-1.995632,-0.6100034,0.04370038,-0.8773701,0.4805984,-0.9437828,55.44123,-19.15105,1008.464
27.282462120,2.826813,-1.877262,0.06415385,0.03297341,-0.8753743,0.480715,-0.9437828,55.44123,-19.15105,1008.466
27.314630508,2.212509,-1.048671,-0.1809942,0.0319044,-0.882224,0.4729565,-0.9432688,56.2035,-19.15478,1008.464
27.349277973,0.738179,-0.9303015,-0.6712904,0.03877081,-0.8923815,0.4819667,-1.32198,55.06547,-19.14726,1008.464
27.381450176,-6.51061,-0.9894865,-0.2422813,0.03438079,-0.8831701,0.4777456,-1.32198,55.06547,-19.14726,1008.464
27.416098118,0.3081662,-0.6935614,-0.3648553,0.03963282,-0.8895886,0.4670397,-0.9440403,55.0601,-19.14919,1008.462
27.448270798,-3.193367,-0.9303015,-0.6100034,0.04475734,-0.8734326,0.488333,-0.9498186,55.05442,-19.59547,1008.462
27.482917786,-0.6132901,-1.403782,-0.1197072,0.0474098,-0.8930405,0.4650106,-1.315946,55.45229,-18.70284,1008.462
27.515086651,0.3081662,-0.5751914,-0.4261424,0.04503664,-0.884747,0.4689571,-1.315946,55.45229,-18.70284,1008.464
27.549734592,0.06244451,0.07584374,-0.0584202,0.04564823,-0.8793178,0.4810462,-0.5603237,55.06042,-18.70485,1008.462
27.581906795,-2.579063,-0.4568214,0.1254409,0.04559923,-0.8745266,0.4728922,-0.937748,55.82805,-18.70663,1008.464
27.616554260,-2.824785,-0.2792663,-0.0584202,0.04260107,-0.8876323,0.4708841,-0.937748,55.82805,-18.70663,1008.464
27.648726463,-1.473316,-0.1017113,0.06415385,0.04353029,-0.8881632,0.465569,-1.322238,54.68433,-19.1454,1008.464
27.683373928,0.1853053,0.01665873,-0.0584202,0.04204611,-0.8881743,0.4631728,-0.9440403,55.0601,-19.14919,1008.462
27.715542316,-0.8590117,-0.2200813,-0.1197072,0.03576962,-0.8856636,0.4700001,-0.9440403,55.0601,-19.14919,1008.464
27.750190258,-2.333342,-0.1608963,0.1867279,0.04457947,-0.891003,0.4756578,-0.5600662,55.44155,-18.70671,1008.464
27.782362938,-1.350455,-0.5160064,0.002866823,0.04547613,-0.8905963,0.4660128,-0.9437828,55.44123,-19.15105,1008.464
27.814535618,0.7996094,-0.6935614,0.1254409,0.0415402,-0.8944746,0.4640896,-0.9437828,55.44123,-19.15105,1008.464
27.849182606,1.168192,-0.2200813,0.002866823,0.04408696,-0.8813332,0.4704401,-0.9322271,55.4526,-18.25849,1008.464
27.881355286,1.045331,-0.1608963,0.002866823,0.04850307,-0.8842345,0.4747131,-1.321723,55.4466,-19.14912,1008.468
27.915998459,0.3695966,-0.2200813,0.002866823,0.04313347,-0.8827586,0.4738113,-1.321723,55.4466,-19.14912,1008.466
27.948171616,0.3081662,0.01665873,-0.6100034,0.05239242,-0.8828165,0.4722784,-1.315946,55.45229,-18.70284,1008.469
27.982818604,0.1238749,0.4901389,-0.1809942,0.04216794,-0.8870964,0.4771585,-0.5603237,55.06042,-18.70485,1008.469
28.014991283,-1.289025,-0.04252628,-0.0584202,0.03730029,-0.8812581,0.4758061,-0.5603237,55.06042,-18.70485,1008.469
28.049638748,-3.254798,0.1942138,-0.1809942,0.04390914,-0.8998706,0.458239,-1.699148,56.21424,-19.15091,1008.468
28.081810951,-0.9818726,0.1942138,0.3093019,0.04153809,-0.8930258,0.4631375,-0.5661011,55.05473,-19.15113,1008.469
28.116455078,-1.166164,-0.2792663,0.1254409,0.03822334,-0.880344,0.469057,-0.5661011,55.05473,-19.15113,1008.468
28.148627281,-1.350455,-0.3384513,0.002866823,0.04744195,-0.8862413,0.4655484,-0.9437828,55.44123,-19.15105,1008.468
28.183274746,-2.14905,-0.9303015,0.3093019,0.03369264,-0.9012418,0.462661,-1.315946,55.45229,-18.70284,1008.466
28.215447426,0.6767486,-0.1608963,-0.0584202,0.03405441,-0.8965234,0.4453446,-1.315946,55.45229,-18.70284,1008.468
28.250094414,4.608295,-0.7527465,0.002866823,0.05283979,-0.883823,0.467928,-0.9322271,55.4526,-18.25849,1008.468
28.282267093,0.8610399,-0.2200813,0.3093019,0.03968749,-0.8861539,0.4718874,-0.9380054,55.44692,-18.70477,1008.468
28.316910744,1.475344,-0.5160064,-0.4261424,0.04409289,-0.8779429,0.4695041,-0.9380054,55.44692,-18.70477,1008.468
28.349083423,-1.104733,-0.5751914,-0.4874294,0.0503685,-0.9031821,0.4735754,-1.316203,55.07115,-18.70098,1008.468
28.381256103,3.441117,-1.344597,-0.3648553,0.04977262,-0.8979585,0.4582001,-1.69992,55.07084,-19.14533,1008.468
28.415903091,3.256826,-0.4568214,0.002866823,0.03434579,-0.8740142,0.4691454,-1.69992,55.07084,-19.14533,1008.468
28.448075771,1.229622,-0.1017113,-0.1197072,0.03434814,-0.8802984,0.4724675,-1.699662,55.45197,-19.14719,1008.468
28.482723713,-1.104733,-0.2200813,-0.3648553,0.03877198,-0.8754556,0.4739122,-0.9324846,55.07147,-18.25663,1008.468
28.514892101,-0.7361509,-0.5751914,-0.4261424,0.04834929,-0.8959799,0.4620856,-1.315946,55.45229,-18.70284,1008.468
28.549539566,0.6767486,0.07584374,0.06415385,0.0500035,-0.8842086,0.4790372,-1.315946,55.45229,-18.70284,1008.468
28.581711769,-0.2447076,0.1942138,0.1254409,0.0446316,-0.8774156,0.4752873,-0.9440403,55.0601,-19.14919,1008.469
28.616359234,-0.4904292,0.3125838,0.370589,0.04988187,-0.8891549,0.4669476,-1.316203,55.07115,-18.70098,1008.469
28.648532391,0.7996094,-0.04252628,-0.1197072,0.05088641,-0.8930024,0.4722085,-1.316203,55.07115,-18.70098,1008.474
28.683179378,1.905357,0.1942138,0.3093019,0.04211698,-0.8837578,0.4694746,-1.32198,55.06547,-19.14726,1008.474
28.715348244,1.045331,-0.04252628,-0.1809942,0.04409729,-0.8847088,0.4733042,-0.9437828,55.44123,-19.15105,1008.474
28.749995232,-1.104733,-0.3384513,-0.3035683,0.03678796,-0.8812779,0.4729187,-0.9437828,55.44123,-19.15105,1008.474
28.782167911,0.4924574,-0.3976364,-0.2422813,0.04358085,-0.8837652,0.4694608,-1.315946,55.45229,-18.70284,1008.475
28.816815853,-0.3675684,-0.5160064,-0.4874294,0.04709383,-0.8798253,0.4791005,-0.9553394,55.42986,-20.04362,1008.474
28.848988056,-0.7361509,-0.2200813,-0.3035683,0.04066971,-0.8905053,0.4747345,-0.9553394,55.42986,-20.04362,1008.474
28.881160736,-0.4289988,-0.3384513,-0.1197072,0.04503287,-0.8905532,0.4713193,-1.694142,55.07652,-18.69905,1008.474
28.915803909,-0.7361509,-0.3384513,-0.3035683,0.0470232,-0.8890774,0.4751689,-1.32198,55.06547,-19.14726,1008.472
28.947976589,-0.06041632,-0.2200813,-0.1809942,0.04995906,-0.8890847,0.4761054,-1.32198,55.06547,-19.14726,1008.472
28.982623577,-0.5518596,0.1942138,-0.1197072,0.04704317,-0.8822892,0.4742607,-0.9437828,55.44123,-19.15105,1008.474
29.014797211,-0.9818726,0.07584374,0.002866823,0.04702913,-0.885687,0.4742328,-0.9267063,55.07716,-17.81035,1008.478
29.049444199,1.659635,0.3717688,0.1254409,0.04350415,-0.8935062,0.4650432,-0.9267063,55.07716,-17.81035,1008.478
29.081616879,1.413914,0.7268789,-0.3035683,0.04409117,-0.8842309,0.4723442,-1.315946,55.45229,-18.70284,1008.478
29.116260052,0.1853053,0.07584374,0.06415385,0.04665639,-0.8744576,0.4825228,-1.315946,55.45229,-18.70284,1008.478
29.148432732,-0.3061379,0.1350287,-0.0584202,0.04076863,-0.8783261,0.4806179,-1.315946,55.45229,-18.70284,1008.476
29.183080196,-3.50052,0.07584374,0.06415385,0.04998891,-0.8769683,0.4737951,-1.694142,55.07652,-18.69905,1008.478
29.215252876,-3.131937,0.1350287,0.55445,0.05620902,-0.8892016,0.4649602,-0.9322271,55.4526,-18.25849,1008.478
29.249900341,0.738179,0.4901389,0.8608851,0.05072435,-0.901854,0.4571951,-0.9322271,55.4526,-18.25849,1008.478
29.282072544,3.563978,0.6085089,0.002866823,0.03812236,-0.8920415,0.4626955,-0.9442978,54.67897,-19.14733,1008.476
29.316715717,1.966787,0.3717688,0.1254409,0.04514588,-0.8759434,0.4777047,-0.9380054,55.44692,-18.70477,1008.476
29.348888874,0.9224703,-0.2792663,-0.1197072,0.03580985,-0.8778899,0.4710278,-0.9380054,55.44692,-18.70477,1008.474
29.383536339,1.168192,-0.9303015,-0.9777255,0.04315379,-0.8827401,0.4762212,-1.310167,55.45797,-18.25656,1008.474
29.415709019,2.581091,-1.936447,-2.877623,0.03448281,-0.9236599,0.4513828,-0.9440403,55.0601,-19.14919,1008.474
29.447881222,10.50562,2.561614,-0.9777255,0.05859265,-0.9037721,0.4652998,-0.9440403,55.0601,-19.14919,1008.472
29.482528686,7.741246,2.088134,-1.039013,0.04476297,-0.8642398,0.4845528,-1.69992,55.07084,-19.14533,1008.474
29.514697075,5.836903,0.3125838,-2.019605,0.05548093,-0.8889713,0.4943708,-0.9555969,55.04873,-20.04176,1008.471
29.549345016,8.785563,-0.2200813,-8.577316,0.01598598,-1.010046,0.4407213,-1.705441,55.44629,-19.59347,1008.469
29.581517696,12.59425,12.80062,-37.9338,0.06975466,-0.9924145,0.5589368,-1.705441,55.44629,-19.59347,1008.469
29.616164684,-126.9142,59.02412,-56.8102,0.5125989,-0.5631319,0.4942377,-2.089417,55.06483,-20.03595,1008.469
29.648337364,-318.6385,77.07555,-131.4578,0.4251795,-1.215317,0.3952049,-3.544787,55.52267,-15.69478,1008.467
29.682985306,-304.6938,67.0141,-145.7377,0.3285257,-2.153211,0.4389846,-3.544787,55.52267,-15.69478,1008.467
29.715153694,-118.6825,50.91577,-137.7091,0.5946409,-1.28601,0.211809,-8.615711,59.24243,1.146702,1008.471
29.749801159,-143.9305,60.79967,-136.9123,0.5365261,-1.011391,-0.2167743,-15.71355,55.68017,12.67816,1008.469
29.781973362,-94.84754,90.98402,-120.0584,0.5352143,-0.9811518,-0.3876226,-15.71355,55.68017,12.67816,1008.469
29.816620827,-75.1898,105.6027,-101.611,0.3989301,-0.8225449,-0.3638354,-22.46594,46.30451,17.15854,1008.467
29.848793507,-90.24026,121.2276,-87.76015,0.3879071,-0.7202733,-0.3893993,-27.75119,38.0061,18.11911,1008.466
29.883440971,-57.62072,139.3974,-67.84187,0.3609357,-0.6830249,-0.4230626,-27.75119,38.0061,18.11911,1008.466
29.915609837,-27.27409,149.8731,-46.57527,0.3638733,-0.4543773,-0.416385,-31.54631,31.88675,17.27597,1008.464
29.950256824,-32.55711,170.4103,-19.91541,0.3910343,-0.3892708,-0.6421595,-34.24589,27.68151,13.35721,1008.464
29.982429504,-80.71854,220.3033,14.58918,0.4021572,-0.2751839,-0.8837684,-34.24589,27.68151,13.35721,1008.462
30.014602184,-126.9142,274.3984,45.84556,0.1936746,-0.4875768,-0.6772783,-37.33972,24.98912,8.094091,1008.461
30.049249649,104.3713,196.1558,-48.23002,0.003539011,-4.464159,-10.23645,-38.5423,24.55668,2.810141,1008.459
30.081422329,-18.55097,100.9863,-13.72543,1.078993,1.177019,-0.1367967,-38.5423,24.55668,2.810141,1008.459
30.116065502,-140.7975,17.06194,30.15608,0.8319804,-1.856597,-0.363387,-38.90477,23.05376,4.094604,1008.461
30.148238182,35.13921,-0.8711165,36.28478,0.1764233,-0.4157105,0.1973403,-38.91973,25.32432,2.808353,1008.461
30.182886123,-61.98228,-13.77345,51.05495,0.6545749,-1.047432,-0.03067512,-38.91973,25.32432,2.808353,1008.461
30.215058803,14.00715,-12.29382,51.17753,0.4403424,-0.9047967,0.07468367,-38.16334,26.07585,2.800764,1008.461
30.249705791,1.905357,-16.14085,40.4523,0.5457081,-1.043063,-0.03781726,-37.01802,27.2137,3.618187,1008.461
30.281878471,41.83512,-10.10398,42.10705,0.4197815,-0.9018154,0.007420172,-37.01802,27.2137,3.618187,1008.461
30.316521644,55.84126,-13.77345,41.55547,0.288564,-0.9403216,0.09074903,-35.11548,29.1039,4.491774,1008.461
30.348694324,83.1778,-30.87792,43.70051,0.1433273,-1.056045,0.285396,-34.74858,29.84943,3.593557,1008.459
30.383341789,128.6363,-43.24759,46.15199,0.2284626,-0.9208266,0.1883525,-34.74858,29.84943,3.593557,1008.459
30.415514469,143.5639,-51.29675,55.71277,0.1904506,-0.771726,0.2386183,-33.25782,31.71169,1.85515,1008.459
30.450161934,116.5959,-76.15445,59.51257,0.08790223,-1.044051,0.4204899,-32.14005,33.5842,0.5012035,1008.457
30.482334137,228.4607,-91.72011,77.83739,0.1271172,-1.146043,0.3744572,-32.14005,33.5842,0.5012035,1008.457
30.514503002,315.6305,-84.02605,105.2327,0.3134121,-0.8327949,0.2663695,-30.27821,35.05347,-1.747312,1008.457
30.549150944,232.1465,-69.70329,118.0417,0.2289301,-0.5043101,0.4491696,-28.83338,37.31491,-7.058136,1008.457
30.581323147,147.4954,-49.93549,127.6637,0.1793614,-0.6948846,0.5661509,-28.83338,37.31491,-7.058136,1008.46
30.615970611,126.3634,-36.67805,135.631,0.2085222,-0.8199736,0.7287274,-25.90598,39.0818,-14.60593,1008.46
30.648142815,118.0088,-14.72041,135.9375,0.1675201,-0.7273432,0.5664758,-21.79771,40.87887,-18.52552,1008.46
30.682790756,79.06196,9.782186,121.4737,0.0333262,-0.8306025,0.5591647,-16.95229,43.02767,-23.91719,1008.46
30.714959621,94.29671,30.91123,100.4523,0.02432628,-0.9396331,0.7024676,-16.95229,43.02767,-23.91719,1008.46
30.749606609,69.17166,40.38084,76.61164,0.03940134,-0.6870365,0.8644333,-10.91026,43.63573,-29.24379,1008.462
30.781779289,17.38582,38.42773,61.78019,0.03499212,-0.6280723,0.8919524,-5.28682,43.12941,-32.77743,1008.466
30.816426277,-49.08189,36.29707,52.09684,0.02823991,-0.3713028,0.9514903,-5.28682,43.12941,-32.77743,1008.467
30.848599434,-61.55226,7.47397,17.3471,0.1430633,-1.565783,0.9656354,0.7360735,41.49624,-34.58605,1008.467
30.883246899,93.37524,13.80677,45.1714,-0.05360698,-0.4857118,0.7908049,6.044818,41.81927,-33.27614,1008.467
30.915415287,-143.439,-20.99402,-5.329104,0.5638787,-0.643809,0.8285657,6.044818,41.81927,-33.27614,1008.467
30.950062752,70.83028,-8.210058,14.52789,0.0629634,-0.8386434,0.6055758,6.799411,39.90286,-33.27071,1008.467
30.982234955,1.782496,-8.446798,19.92115,-0.1228538,-0.1739425,0.7038874,7.189937,41.4334,-32.38752,1008.467
31.014407635,-0.1832771,-28.15541,23.10807,-0.2121863,-0.7997103,0.9453819,7.189937,41.4334,-32.38752,1008.467
31.049055576,-23.03539,-43.1884,28.74648,-0.1838879,-0.3496903,0.7849479,7.189422,40.67113,-32.3838,1008.467
31.081228256,-54.67206,-56.86014,16.79551,-0.08438183,-0.6446069,0.7478482,7.562352,41.80348,-32.8376,1008.469
31.115871429,-24.20257,-62.30516,11.34097,-0.04039126,-0.715845,0.7907124,7.562352,41.80348,-32.8376,1008.469
31.148043633,9.76845,-44.07618,2.147913,0.146869,-0.6135219,0.8997045,7.197,43.34475,-31.95054,1008.467
31.182691574,0.7996094,1.910579,-14.39958,0.1033999,-0.4988093,0.9560037,6.441636,44.11776,-31.9504,1008.467
31.214864254,-48.95903,21.26408,-13.54156,-0.07832627,-0.3467628,0.9179829,6.441636,44.11776,-31.9504,1008.467
31.249511242,-71.81113,24.51925,-5.880687,-0.003651277,-0.6916834,0.7375488,6.063182,43.36086,-31.94474,1008.469
31.281683922,-70.58253,19.07423,8.215328,-0.03257562,-0.6723182,0.7124324,6.086497,44.90732,-30.23082,1008.469
31.316327095,-79.55137,18.4232,17.7761,0.001498473,-0.7557021,0.684435,6.086497,44.90732,-30.23082,1008.467
31.348500252,-84.28151,15.34558,22.9855,0.05013583,-0.7803451,0.7931919,6.127715,46.09051,-27.11244,1008.473
31.383147716,-77.21701,24.75599,37.26538,-0.1076615,-0.739027,0.6364271,7.674914,47.24655,-24.44807,1008.473
31.415320396,-78.26133,33.8113,42.96507,-0.1644583,-0.8984212,0.5749111,7.674914,47.24655,-24.44807,1008.473
31.449967384,-51.35481,51.50762,47.0713,-0.1569024,-0.964826,0.4027013,8.848866,48.0317,-21.39738,1008.473
31.482140064,-22.97396,66.5998,55.77406,-0.1362042,-0.9111049,0.458863,11.16324,48.80723,-17.84246,1008.475
31.516783714,18.49157,82.99405,70.91195,-0.1951729,-0.8614908,0.5605602,11.16324,48.80723,-17.84246,1008.473
31.548956394,17.26296,95.24535,78.38897,-0.2174542,-0.8225424,0.5615712,13.45812,48.80182,-15.75017,1008.473
31.581129074,8.29412,110.2783,87.58202,-0.281089,-0.6754376,0.5252997,16.8651,48.37805,-15.31944,1008.473
31.615776062,-17.8138,118.801,94.63003,-0.3845583,-0.8852148,0.5091118,16.8651,48.37805,-15.31944,1008.473
31.647948742,16.64866,135.136,109.1551,-0.4502517,-0.6241869,0.5793567,20.35163,46.82704,-13.5446,1008.473
31.682596683,-67.63387,136.4973,118.1642,-0.4859541,-0.7317307,0.3315375,25.29322,46.02341,-11.33461,1008.473
31.714765072,-16.76949,146.322,142.8016,-0.6006037,-0.8451074,0.1576708,29.88917,42.97164,-6.497602,1008.473
31.749412537,-28.01125,153.1283,140.534,-0.6487586,-0.5199164,0.2514169,29.88917,42.97164,-6.497602,1008.473
31.781584740,18.73729,146.4996,116.8159,-0.6593364,-0.8803869,0.3285558,34.85202,40.6654,-2.558806,1008.473
31.816232681,29.0576,130.4604,88.01103,-1.097126,0.1458953,-0.116316,39.43095,36.83512,1.00684,1008.471
31.848405361,-34.52288,123.595,48.05189,-0.7733367,-0.7050037,0.1503156,39.43095,36.83512,1.00684,1008.471
31.883052349,68.4345,101.4006,61.41246,-0.990399,-0.2806035,-0.2177098,42.5038,34.11107,4.957474,1008.471
31.915221214,-5.834876,67.25084,47.74546,-0.9491888,-0.3111478,-0.06073233,43.66471,31.45545,7.1961,1008.473
31.949868679,3.993991,31.38471,54.6096,-0.8978483,-0.4464481,-0.3900865,43.66471,31.45545,7.1961,1008.473
31.982041359,31.8834,20.90897,49.70664,-0.9798165,-0.3350308,-0.09341941,44.82004,30.31788,8.91725,1008.473
32.016688824,2.273939,7.710711,52.34198,-0.9474244,-0.4210982,-0.02984327,46.33603,28.01529,9.366959,1008.471
32.048861027,25.98608,11.20263,60.67702,-0.9273126,-0.3819339,-0.03645606,46.33603,28.01529,9.366959,1008.471
32.083508492,23.16028,12.03122,69.19592,-0.9261586,-0.3373259,0.02125886,47.09692,26.86683,9.814955,1008.471
32.115676880,37.71928,24.63762,82.25005,-0.9452735,-0.3097435,-0.001953356,48.24152,25.7187,10.7073,1008.471
32.147850037,15.7272,37.24403,95.30418,-0.9126553,-0.2143044,0.05877902,48.24152,25.7187,10.7073,1008.474
32.182497501,12.96283,56.95264,116.3869,-1.018669,-0.1084682,-0.006357169,50.12993,23.78619,10.70693,1008.474
32.214669704,-23.03539,62.75277,144.4564,-0.9940698,0.05779,0.1692678,52.04647,20.7387,12.94355,1008.474
32.249317169,54.24407,88.43907,187.4186,-1.410102,0.4408566,-0.3370216,52.04647,20.7387,12.94355,1008.472
32.281489849,83.11637,78.43681,206.0498,-1.569547,0.1149118,-0.2215771,53.9617,15.78555,15.18948,1008.472
32.316133499,145.4068,80.4491,146.6014,-1.679595,-0.1351838,-0.24623,54.4321,9.333314,17.83278,1008.472
32.348306179,124.0905,13.51084,27.27559,-1.539353,0.3961428,-0.3651042,54.4321,9.333314,17.83278,1008.47
32.382953167,-98.04192,-64.02152,-49.2719,-0.6061721,0.7884526,0.5052155,51.72572,4.041604,18.31897,1008.47
32.415125847,-100.2534,-81.42192,-47.8623,-0.7901093,0.3527392,-0.0345716,47.9182,5.210264,16.10133,1008.47
32.449773788,26.29323,-86.57101,-2.203466,-1.078989,0.4213276,0.0506293,47.9182,5.210264,16.10133,1008.468
32.481946468,10.38275,-100.3019,12.99572,-0.8582704,-0.133879,-0.303047,45.99569,6.728343,13.48962,1008.468
32.516589641,35.01635,-85.62405,6.008996,-1.191297,0.1731576,-0.4183902,45.19462,8.218136,9.9158,1008.47
32.548761845,-76.04984,-87.3996,-17.52522,-0.8397644,0.2832398,-0.3932889,45.19462,8.218136,9.9158,1008.47
32.583409786,-13.26795,-76.33201,-28.4956,-0.843955,0.2190181,-0.1638654,45.14344,8.167784,5.963028,1008.468
32.615582466,-54.97921,-71.12373,-32.29539,-0.8693683,0.3026927,-0.09256655,45.11532,9.282761,3.726046,1008.468
32.647755146,-92.88177,-64.31745,-36.34034,-0.9062717,0.04251272,-0.1189491,45.11532,9.282761,3.726046,1008.468
32.682402134,-54.85635,-53.36823,-54.60387,-0.809146,-0.18222,-0.1829221,45.09303,9.260834,2.004677,1008.467
32.714570999,-45.51892,-46.56195,-61.77446,-0.8552729,0.2067123,0.1214824,45.08302,11.53626,1.10095,1008.465
32.749218464,-91.34601,-46.56195,-78.32195,-0.8720564,0.09882172,0.0927936,43.9329,13.05985,-0.2395325,1008.463
32.781391144,-170.0384,-32.71265,-91.80509,-0.8521448,0.1199119,0.0710917,43.9329,13.05985,-0.2395325,1008.461
32.816038609,-224.5886,-17.79803,-103.1432,-0.8999873,0.03755395,-0.0655467,42.80114,16.12502,-0.2486172,1008.46
32.848210812,-241.7891,-8.624353,-96.70805,-0.7872573,-0.003585306,-0.1035697,41.70379,18.84317,2.421844,1008.46
32.882858753,-205.5452,21.32326,-80.77343,-0.8246589,-0.2725136,-0.06880581,41.70379,18.84317,2.421844,1008.458
32.915027142,-138.4631,33.69293,-63.98079,-0.9075239,-0.3900069,-0.0005572997,40.25708,22.35657,7.258163,1008.454
32.949674606,-34.27716,29.31324,-38.11766,-0.8745726,-0.3324669,0.1181815,38.04716,23.58822,11.66324,1008.452
32.981847286,22.23882,27.18258,-15.93176,-0.8616903,-0.2627192,0.1075503,38.04716,23.58822,11.66324,1008.451
33.048667431,55.65697,27.06421,23.23065,-0.7919956,-0.1528925,0.04369944,36.17583,25.15665,13.0043,1008.449
33.083314896,33.72631,30.73368,37.08151,-0.8943677,-0.09671333,0.08753379,36.17583,25.15665,13.0043,1008.449
33.115483284,6.81979,26.41318,43.14893,-0.8919681,-0.1465697,0.1068624,36.17583,25.15665,13.0043,1008.449
33.150130272,0.6767486,22.09267,48.84862,-0.8886595,-0.1989098,0.119414,36.56507,24.78152,13.89679,1008.447
33.182302952,-6.142027,16.58846,53.44515,-0.9304902,-0.1831028,0.1281286,36.56507,24.78152,13.89679,1008.447
33.214476108,-19.34957,6.586195,55.71277,-0.9039378,-0.2110607,0.1074064,36.94198,23.25161,13.9023,1008.447
33.249123573,-25.12402,-0.2200813,56.57079,-0.8557258,-0.2500767,0.1143468,38.4703,22.10379,15.23899,1008.445
33.281296253,-30.22275,-5.487547,54.54832,-0.8156924,-0.2676676,0.1249143,38.4703,22.10379,15.23899,1008.445
33.315939426,-31.26707,-11.52442,48.9712,-0.7815262,-0.332146,0.1568398,39.60258,19.80089,15.24435,1008.445
33.348111629,-11.67076,-17.44292,37.08151,-0.7214056,-0.4590133,0.171621,39.97897,17.50872,15.25359,1008.444
33.382759571,24.94176,-26.43904,22.86293,-0.6518994,-0.421522,0.2946733,39.97897,17.50872,15.25359,1008.444
33.414932251,49.94394,-36.38213,2.270487,-0.6094263,-0.444482,0.3659056,40.34959,15.21086,14.81653,1008.444
33.449579239,54.48979,-59.10917,-30.51807,-0.517994,-0.4955861,0.4697071,41.09391,15.18876,13.9201,1008.442
33.481751919,61.92287,-72.72172,-52.88784,-0.6782153,-0.3673856,0.5633569,41.09391,15.18876,13.9201,1008.442
33.516396046,-22.60538,-92.48952,-80.896,-0.632288,-0.2448483,0.6849204,41.4377,15.91155,11.23677,1008.44
33.548568249,-86.86159,-114.7431,-107.372,-0.4913318,-0.7859475,0.4728485,41.40463,17.02165,8.617254,1008.44
33.583215713,-60.32365,-97.87535,-139.0574,0.2241679,-1.387657,0.13538,41.40463,17.02165,8.617254,1008.442
33.615387916,29.61047,-64.85011,-147.944,0.9835311,-1.607544,0.2455355,40.99356,19.27971,5.93034,1008.442
33.650035858,111.4358,-78.75859,-147.4537,0.4840142,-1.468635,0.3761795,39.08358,23.47628,4.134418,1008.442
33.682208538,57.19273,-77.63408,-134.277,0.2076521,-1.177637,0.04279363,39.08358,23.47628,4.134418,1008.444
33.714376926,297.6314,-49.46201,-92.05025,-0.1459152,-0.86444,0.2096626,36.38388,27.65029,-0.2715645,1008.444
33.749024391,152.4713,-82.42806,-2.571188,-1.25552,-0.3346907,0.02483587,32.54432,31.45359,-5.116165,1008.444
33.781197071,39.5622,-21.40832,-14.88988,-2.697049,-0.2350847,-1.646926,32.54432,31.45359,-5.116165,1008.447
33.815844536,300.3343,212.0174,57.9191,1.102641,-2.535599,-7.552821,29.43047,33.31206,-12.18673,1008.451
33.848017216,396.5343,61.33233,83.23064,-8.055346,6.907976,-12.43075,25.66789,32.62053,-10.82483,1008.452
33.882664680,-1130.933,-60.9439,-108.8429,-7.010907,-3.775657,0.890779,12.67186,20.91491,-16.50272,1008.463
33.914833069,507.8463,-113.3818,-345.7785,-1.000502,1.060287,1.010005,12.67186,20.91491,-16.50272,1008.463
33.949480057,-572.6533,10.78833,-28.80203,2.329861,-1.412919,-0.9029414,-6.492041,24.34498,-8.003403,1008.473
33.981652737,321.7121,120.3398,118.5933,-2.025328,-0.04838712,0.1495772,-2.665905,25.09904,-4.456218,1008.474
34.016300678,-409.3098,-117.5248,42.16834,-2.260956,-1.667811,0.5360747,-2.665905,25.09904,-4.456218,1008.48
34.048473358,290.444,-28.80644,77.34709,-0.7878366,0.2900056,1.021915,-6.068905,22.86055,-4.427649,1008.484
34.083120346,-30.28418,-33.60043,118.2868,-0.7297444,-0.2097137,0.3945098,-5.336395,22.44594,-6.214778,1008.49
34.115288734,33.48059,-10.75501,75.26333,-0.616358,0.5540268,1.381581,-5.336395,22.44594,-6.214778,1008.49
34.149936676,85.94217,7.23723,90.46251,-0.857687,-0.07997333,0.9607126,0.7043467,21.59209,-6.688278,1008.491
34.182109356,-88.15163,11.49855,74.34402,-0.776202,-0.3078493,0.604768,4.868489,23.06326,-6.270714,1008.494
34.216756820,-41.0345,-0.5751914,55.83534,-0.4724753,-0.1272836,0.4236367,4.868489,23.06326,-6.270714,1008.494
34.248929024,-40.23591,-4.954883,28.1949,-0.4329475,-0.09206705,0.2322044,9.769889,22.60097,-7.186555,1008.496
34.281101703,-22.54395,-14.60204,-2.080892,-0.4991378,-0.110139,0.5527207,14.6894,23.29913,-6.769135,1008.496
34.315745354,11.24278,-32.71265,-17.64779,-0.7010303,-0.04179475,0.53637,14.6894,23.29913,-6.769135,1008.495
34.347918033,-14.12798,-42.18226,-30.88579,-0.9012234,-0.1637325,0.5820587,15.44553,23.66952,-6.774864,1008.5
34.382565498,-32.37282,-58.9908,-41.7336,-0.8942698,-0.2280452,0.7438974,13.92748,22.92305,-7.209689,1008.504
34.414737701,-25.18545,-69.46655,-41.79488,-0.6899981,-0.2867107,0.6320938,13.92748,22.92305,-7.209689,1008.503
34.449385166,-0.8590117,-66.27055,-29.72134,-0.5892999,-0.3219458,0.7855856,12.03856,24.09329,-7.205602,1008.507
34.481557846,-12.59222,-58.10303,-21.69274,-0.5618108,-0.1692391,0.9051599,11.27164,24.85492,-8.098017,1008.507
34.516201496,-12.71508,-49.99468,-16.05433,-0.4720328,-0.2754864,0.7805364,11.27164,24.85492,-8.098017,1008.509
34.548374176,-13.82083,-40.76182,-13.05127,-0.470603,-0.3557598,0.7572073,9.749091,26.00843,-8.988424,1008.508
34.583021164,-16.40091,-27.97785,-8.332168,-0.5206034,-0.3750972,0.7980024,9.743056,25.62161,-9.432844,1008.51
34.615193844,-9.152117,-21.28995,-0.5487164,-0.5302942,-0.3276335,0.8413821,9.743056,25.62161,-9.432844,1008.513
34.649841785,-7.739218,-6.848803,6.008996,-0.4932054,-0.3635634,0.8007338,8.993985,27.16257,-8.990139,1008.513
34.682013988,-4.790558,4.573905,11.03453,-0.4984053,-0.3425905,0.8105952,8.237849,26.79217,-8.98441,1008.515
34.716657638,-4.360546,12.26796,12.50542,-0.4992579,-0.2912151,0.8004227,8.237849,26.79217,-8.98441,1008.517
34.748829842,0.3695966,12.97818,12.68928,-0.5074875,-0.2944613,0.7517908,8.988208,27.15688,-9.436419,1008.52
34.783477783,0.1853053,10.37404,10.42166,-0.5619373,-0.3253974,0.7332458,9.743571,26.38388,-9.436565,1008.52
34.815650463,4.362573,6.112715,6.989588,-0.6247293,-0.287259,0.7919862,9.743571,26.38388,-9.436565,1008.52
34.847855091,-6.326319,-0.5751914,1.718904,-0.5869981,-0.2848488,0.751166,10.13281,26.00875,-8.544078,1008.52
34.882503033,1.659635,-1.995632,-0.3648553,-0.5353577,-0.2953398,0.7457776,10.13255,25.62761,-8.542216,1008.522
34.914671421,0.4924574,-1.462967,-1.71317,-0.5569016,-0.2900168,0.7927765,10.13255,25.62761,-8.542216,1008.523
34.949318409,-4.667697,-2.469112,-3.919503,-0.5652966,-0.2828123,0.7774903,10.13281,26.00875,-8.544078,1008.523
34.981491089,-3.070507,-0.9303015,-3.613068,-0.5304828,-0.3248663,0.7594668,10.50497,25.99769,-8.992291,1008.525
35.016139030,-1.964759,2.679984,-1.284161,-0.5407672,-0.3176325,0.8097503,10.13307,26.38988,-8.545938,1008.525
35.048311710,-3.746241,4.573905,-0.2422813,-0.5483429,-0.3081573,0.7747132,10.13307,26.38988,-8.545938,1008.527
35.082958698,-1.473316,4.75146,0.6770241,-0.5601505,-0.3246275,0.7713135,9.75487,26.01411,-8.542144,1008.529
35.115127087,-2.210481,3.508574,1.044746,-0.5523051,-0.3144774,0.770842,10.13281,26.00875,-8.544078,1008.529
35.149774551,0.3081662,4.04124,1.657616,-0.5519245,-0.3208638,0.7611458,10.13281,26.00875,-8.544078,1008.529
35.181947708,0.738179,2.916724,1.289894,-0.5596148,-0.3042767,0.7671383,10.51704,26.77133,-8.103453,1008.529
35.216594696,-2.517633,4.75146,0.9221722,-0.5496929,-0.3408917,0.7460179,10.9005,26.39051,-7.657245,1008.529
35.248767376,-2.579063,9.60463,0.8608851,-0.6408858,-0.3031847,0.7934515,10.9005,26.39051,-7.657245,1008.529
35.283414841,-11.24075,7.829081,-2.387327,-0.633361,-0.2392409,0.8450005,10.13859,26.01443,-8.097797,1008.527
35.315583229,-31.9428,6.112715,-7.780585,-0.5389686,-0.1906402,0.7881264,10.89447,26.00369,-8.101665,1008.527
35.347756386,-15.29516,1.437099,1.473755,-0.5576107,-0.3110837,0.8928653,10.89447,26.00369,-8.101665,1008.527
35.382403850,-20.82389,-6.256953,12.07641,-0.5591599,-0.3656851,0.7348158,11.27844,26.38514,-7.659179,1008.527
35.414576053,-0.9818726,-13.53671,19.49214,-0.5619143,-0.4114144,0.7195225,11.66267,27.14773,-7.218554,1008.529
35.449223518,59.03564,-17.44292,28.13361,-0.5888572,-0.3607123,0.8570797,11.66267,27.14773,-7.218554,1008.529
35.481395721,83.7921,-20.75728,39.28785,-0.5820225,-0.1518793,0.8143937,12.40726,27.50675,-8.116843,1008.529
35.516039848,78.26337,-25.66964,42.78121,-0.5983951,-0.1534945,0.7832032,12.76812,27.86546,-9.459479,1008.527
35.548212528,40.36079,-20.75728,32.66885,-0.5195157,-0.174803,0.7143295,12.76812,27.86546,-9.459479,1008.527
35.582859516,28.56616,-16.67352,31.74954,-0.4741381,-0.2528884,0.7513403,15.37908,26.65118,-12.08136,1008.526
35.615032196,26.17037,-16.43678,18.08254,-0.5459958,-0.3782594,0.6232474,16.49506,25.85576,-13.42229,1008.53
35.649680138,21.19451,-8.920279,14.65047,-0.547344,-0.05772732,0.7724304,16.49506,25.85576,-13.42229,1008.53
35.681852341,21.01022,-10.28153,4.844542,-0.5133943,-0.2750983,0.6782597,16.86143,25.83902,-14.31678,1008.528
35.716495991,14.00715,-7.026358,3.986523,-0.5161218,0.1011284,0.8105626,17.98293,24.66815,-15.20956,1008.528
35.748668194,-18.6124,-1.995632,-0.2422813,-0.4898235,-0.1769537,0.7063228,17.98293,24.66815,-15.20956,1008.528
35.783316135,-49.32761,5.639235,-3.061484,-0.5083512,-0.1748754,0.6491549,17.59972,25.4301,-15.65763,1008.526
35.815488815,-17.93666,6.29027,3.680088,-0.5062,-0.02401713,0.8904142,17.60498,24.67352,-15.20763,1008.524
35.850135803,-9.274978,9.663815,-1.958318,-0.5438252,-0.3685856,0.9351606,17.60498,24.67352,-15.20763,1008.528
35.882308483,13.26998,18.36401,1.964052,-0.532708,-0.0457143,0.7661268,17.2449,25.4582,-13.87057,1008.527
35.914476871,-13.88226,16.58846,1.535042,-0.5260161,-0.1885658,0.8767106,17.25119,26.22615,-13.42801,1008.527
35.949124813,12.77854,19.42934,2.944644,-0.5705351,-0.009079875,0.8347438,17.62861,25.45852,-13.42623,1008.528
35.981297493,6.144055,15.46395,3.802662,-0.5560622,-0.1461544,0.8811966,17.62861,25.45852,-13.42623,1008.528
