Time (s),Gyroscope X (deg/s),Gyroscope Y (deg/s),Gyroscope Z (deg/s),Accelerometer X (g),Accelerometer Y (g),Accelerometer Z (g),Magnetometer X (uT),Magnetometer Y (uT),Magnetometer Z (uT),Barometer (hPa)
0.015920162,0.01617524,0.2849058,0.7429644,-0.06110633,0.9539672,0.2222391,5.502604,-40.40977,-1.85905,1007.028
0.048199177,-0.9754033,0.2849058,-0.04926475,-0.06498381,0.9583164,0.2237225,5.490619,-40.4154,-2.294777,1007.028
0.080478668,-1.099351,0.226203,-0.414909,-0.06255817,0.9583561,0.2333863,5.490619,-40.4154,-2.294777,1007.024
0.115241051,0.1401226,-0.3608247,-0.3539683,-0.06399206,0.9554894,0.2454591,5.501282,-39.68074,-1.868282,1007.024
0.147520065,1.441569,-0.4195275,-0.414909,-0.07223537,0.958791,0.2271249,5.514589,-40.40413,-1.423324,1007.024
0.182281971,0.7598592,-0.3608247,-0.5367904,-0.06742179,0.966533,0.2228076,5.501944,-40.04525,-1.863666,1007.024
0.214560986,-0.2317194,-0.008608066,-0.04926475,-0.0674089,0.9646317,0.232949,5.501944,-40.04525,-1.863666,1007.024
0.246840477,-0.3556667,0.4610142,0.1335574,-0.06741005,0.9651156,0.2329518,5.889352,-40.40249,-0.9931121,1007.024
0.281602860,-0.3556667,0.226203,0.3163795,-0.0678931,0.9616956,0.223748,5.501944,-40.04525,-1.863666,1007.026
0.313881874,-0.479614,0.3436086,0.3773202,-0.06788775,0.9641612,0.2372983,5.501944,-40.04525,-1.863666,1007.028
0.348643780,-0.6035614,-0.008608066,0.2554387,-0.05869645,0.959317,0.2280656,5.502604,-40.40977,-1.85905,1007.029
0.380923271,-0.04579842,0.05009471,-0.1711462,-0.07028508,0.9529993,0.2299884,5.501944,-40.04525,-1.863666,1007.029
0.415685654,0.3880172,0.4610142,0.01167595,-0.07174318,0.9583396,0.2363066,5.501944,-40.04525,-1.863666,1007.031
0.447964668,-0.4176404,0.1087975,-0.2930276,-0.06545562,0.9568977,0.2338677,5.87869,-41.13716,-1.419607,1007.033
0.480243683,0.5119646,-0.1847164,-0.1711462,-0.06788945,0.962688,0.2310052,5.489958,-40.05089,-2.299393,1007.035
0.515005589,0.5119646,-0.1260136,-0.1711462,-0.06402619,0.9631667,0.2261652,5.489958,-40.05089,-2.299393,1007.035
0.547285080,0.3260435,-0.008608066,0.01167595,-0.06596195,0.9631546,0.2242356,5.86472,-40.04924,-1.869182,1007.035
0.582047463,-0.6035614,0.2849058,0.01167595,-0.06306142,0.9636484,0.2247156,5.514589,-40.40413,-1.423324,1007.035
0.614326477,-0.2936931,0.1675003,-0.1102055,-0.06449997,0.9617397,0.2338932,5.514589,-40.40413,-1.423324,1007.036
0.649088383,0.2640699,-0.1847164,-0.1711462,-0.06642535,0.9583499,0.2348449,5.514589,-40.40413,-1.423324,1007.035
0.681367397,0.2640699,-0.06731085,-0.2320869,-0.06352028,0.9564193,0.2338608,5.491281,-40.77992,-2.290161,1007.036
0.713646889,0.6359118,-0.2434192,-0.2320869,-0.06546719,0.9602705,0.229536,5.491281,-40.77992,-2.290161,1007.035
0.748409271,0.4499909,-0.008608066,0.1335574,-0.06982932,0.965591,0.2324762,5.501944,-40.04525,-1.863666,1007.035
0.780688286,-0.4176404,0.1675003,-0.04926475,-0.06644273,0.9631647,0.2276208,5.151813,-40.40015,-1.417808,1007.036
0.815450192,-0.851456,0.1087975,0.01167595,-0.065951,0.9617339,0.2334128,5.151813,-40.40015,-1.417808,1007.032
0.847729206,-0.3556667,0.1087975,0.07261666,-0.06450701,0.9626878,0.2280973,6.227497,-40.05323,-1.874697,1007.032
0.882492066,0.2640699,0.05009471,-0.414909,-0.0669099,0.9559011,0.2266136,5.152474,-40.76466,-1.413192,1007.031
0.914771080,0.3880172,-0.008608066,-0.1711462,-0.06692275,0.9626892,0.2305197,5.152474,-40.76466,-1.413192,1007.031
0.947050095,-0.1697457,-0.1260136,0.01167595,-0.06499492,0.9670665,0.2353748,5.514589,-40.40413,-1.423324,1007.031
0.981812000,0.1401226,0.1087975,0.07261666,-0.06595052,0.9627132,0.2368025,5.877366,-40.40812,-1.428839,1007.029
1.014091492,0.2640699,-0.4195275,0.07261666,-0.06498381,0.9583164,0.2237225,5.877366,-40.40812,-1.428839,1007.029
1.048853874,0.1401226,-0.2434192,-0.1711462,-0.06545179,0.9554476,0.2343429,5.86472,-40.04924,-1.869182,1007.029
1.081132889,0.2640699,-0.3608247,-0.2930276,-0.06255878,0.9559103,0.2256374,5.140489,-40.7703,-1.848919,1007.029
1.115894794,0.2020962,-0.1260136,-0.3539683,-0.06741088,0.9646235,0.2305318,5.140489,-40.7703,-1.848919,1007.029
1.148173809,0.3260435,-0.1260136,0.01167595,-0.06935193,0.9675215,0.2305524,5.140489,-40.7703,-1.848919,1007.031
1.180453301,0.2020962,-0.06731085,0.01167595,-0.07223221,0.9588041,0.2309925,5.876705,-40.04361,-1.433455,1007.031
1.215215683,-0.04579842,-0.06731085,0.01167595,-0.06884711,0.957349,0.2271094,5.878028,-40.77264,-1.424223,1007.032
1.247494698,-0.3556667,0.2849058,0.2554387,-0.06788227,0.9588084,0.228566,5.878028,-40.77264,-1.424223,1007.032
1.282256603,-0.479614,0.2849058,-0.1102055,-0.0683719,0.9617139,0.2295504,5.866043,-40.77827,-1.85995,1007.031
1.314535618,-0.3556667,-0.008608066,-0.04926475,-0.0707813,0.9573435,0.2271136,5.526575,-40.3985,-0.9875968,1007.031
1.346815109,0.1401226,0.1087975,-0.04926475,-0.06739644,0.9578419,0.2285594,5.526575,-40.3985,-0.9875968,1007.032
1.381577492,0.4499909,-0.2434192,-0.5367904,-0.06352886,0.9578497,0.2275843,5.865381,-40.41376,-1.864566,1007.032
1.413856506,0.5119646,0.05009471,-0.1711462,-0.06595191,0.9602641,0.2280867,5.152474,-40.76466,-1.413192,1007.028
1.448618412,0.0781489,0.05009471,0.2554387,-0.0727103,0.957848,0.2348556,5.152474,-40.76466,-1.413192,1007.028
1.480897427,-1.037377,0.3436086,0.3773202,-0.06643174,0.9622328,0.2382511,5.151813,-40.40015,-1.417808,1007.028
1.515660286,0.2640699,0.1087975,0.4992016,-0.06449892,0.9602781,0.2309842,5.86472,-40.04924,-1.869182,1007.026
1.547939301,0.01617524,-0.06731085,0.3773202,-0.06400858,0.9563982,0.2280605,5.86472,-40.04924,-1.869182,1007.026
1.580218315,-0.2317194,0.05009471,0.07261666,-0.06450441,0.960744,0.2256691,6.239482,-40.0476,-1.438971,1007.026
1.614981175,-0.3556667,0.1675003,-0.04926475,-0.06545763,0.9564006,0.2299974,5.877366,-40.40812,-1.428839,1007.026
1.647259712,-0.1077721,-0.06731085,-0.04926475,-0.06982786,0.9641311,0.2300507,5.877366,-40.40812,-1.428839,1007.026
1.682022095,1.069728,-0.1847164,-0.2320869,-0.06789276,0.9656064,0.2353728,5.140489,-40.7703,-1.848919,1007.032
1.714301109,0.4499909,-0.06731085,-0.2930276,-0.06837332,0.9636627,0.233429,5.514589,-40.40413,-1.423324,1007.032
1.749063492,0.1401226,-0.1260136,0.07261666,-0.06691352,0.9597955,0.2334039,5.514589,-40.40413,-1.423324,1007.031
1.781342983,-0.5415877,0.226203,0.2554387,-0.0698294,0.9646133,0.22957,5.86472,-40.04924,-1.869182,1007.031
1.813621998,-0.6035614,0.3436086,0.3163795,-0.06497978,0.9593105,0.2314632,5.512605,-39.31059,-1.437171,1007.031
1.848383904,-0.479614,-0.008608066,0.3773202,-0.06934638,0.9631465,0.2247263,5.512605,-39.31059,-1.437171,1007.029
1.880662918,-0.3556667,0.05009471,0.3163795,-0.06498637,0.9607492,0.2276039,5.876705,-40.04361,-1.433455,1007.031
1.915425301,-0.7275087,0.3436086,0.3773202,-0.06692556,0.9621888,0.2256825,5.877366,-40.40812,-1.428839,1007.029
1.947704792,-0.9134296,0.1087975,0.9867272,-0.06595144,0.9612435,0.2314763,5.877366,-40.40812,-1.428839,1007.029
1.982466698,-0.9754033,-0.5956359,0.3773202,-0.06157404,0.9496334,0.2289836,5.501944,-40.04525,-1.863666,1007.031
2.014745712,-1.037377,-0.4782303,-0.1102055,-0.06352561,0.9588405,0.234358,5.502604,-40.40977,-1.85905,1007.031
2.047024727,-0.4176404,-0.1847164,0.01167595,-0.06209693,0.9655951,0.2271418,5.502604,-40.40977,-1.85905,1007.031
2.081787109,-1.409219,-0.1847164,-0.1711462,-0.06742237,0.9689739,0.2291062,5.501944,-40.04525,-1.863666,1007.031
2.114066601,-0.7894824,-0.2434192,-0.1102055,-0.06933886,0.9631776,0.2339118,6.228158,-40.41774,-1.870081,1007.031
2.148828507,-3.020534,0.8132309,0.7429644,-0.06401568,0.9612556,0.2334059,5.501944,-40.04525,-1.863666,1007.031
2.181107521,-5.003691,1.811178,2.022719,-0.06591968,0.9535563,0.2478694,5.501944,-40.04525,-1.863666,1007.032
2.215869904,-4.383955,0.8132309,2.022719,-0.05817309,0.9487326,0.2458916,5.852735,-40.05488,-2.304909,1007.032
2.248149395,1.131701,0.6958252,1.718016,-0.06061007,0.9593966,0.253209,4.77705,-40.40179,-1.848019,1007.032
2.280428410,4.788147,0.4610142,0.7429644,-0.05823541,0.9733965,0.2411975,4.77705,-40.40179,-1.848019,1007.032
2.315190315,5.469857,-0.302122,-0.2930276,-0.05338048,0.9607857,0.228546,5.491281,-40.77992,-2.290161,1007.032
2.382231712,-0.04579842,0.3436086,-0.7196125,-0.06837691,0.9631591,0.2276249,5.501944,-40.04525,-1.863666,1007.034
2.414511204,-1.966982,0.1087975,0.01167595,-0.07275202,0.9738013,0.230112,4.788374,-40.03164,-1.416909,1007.034
2.446790218,-0.7894824,-0.302122,0.1944981,-0.06837204,0.9646453,0.2377856,5.876705,-40.04361,-1.433455,1007.034
2.481552124,-0.4176404,-0.5956359,-0.04926475,-0.06208368,0.9588086,0.2237191,5.876705,-40.04361,-1.433455,1007.034
2.513831139,-2.27685,-0.008608066,-0.3539683,-0.05819502,0.951085,0.226084,5.490619,-40.4154,-2.294777,1007.034
2.548593521,-3.888165,0.8719336,0.621083,-0.06258741,0.9724063,0.2383007,5.853395,-40.41939,-2.300293,1007.036
2.580873013,-4.693823,1.106745,2.875889,-0.07609999,0.9656369,0.2513441,5.853395,-40.41939,-2.300293,1007.037
2.615634918,-6.367112,-0.5956359,2.875889,-0.04999326,0.9656919,0.2454869,5.140489,-40.7703,-1.848919,1007.037
2.647913933,-2.400798,-1.065258,-2.913478,-0.03098741,0.9072282,0.2562326,5.503266,-40.77428,-1.854434,1007.037
2.814275742,-9.589743,2.515611,3.119652,-0.06109292,0.9535341,0.2372233,5.878028,-40.77264,-1.424223,1007.03
2.849038124,-3.392376,0.9306364,1.657075,-0.05518578,0.9148904,0.2529443,5.502604,-40.40977,-1.85905,1007.03
2.881317616,3.300779,-0.3608247,-0.04926475,-0.05135495,0.9289174,0.247698,5.502604,-40.40977,-1.85905,1007.03
2.913596630,4.354331,-1.065258,-0.6586718,-0.05964772,0.9593797,0.2474056,5.490619,-40.4154,-2.294777,1007.028
2.948358536,3.424726,-0.8891498,-1.024316,-0.06551478,0.9815747,0.2330413,5.503266,-40.77428,-1.854434,1007.03
2.980637550,2.866964,-1.006555,-1.207138,-0.07276513,0.9776564,0.2252996,5.503266,-40.77428,-1.854434,1007.03
3.015399933,-0.5415877,-0.008608066,-0.1711462,-0.07131352,0.9752213,0.2194813,5.840088,-39.696,-2.745251,1007.03
3.047679424,-5.623428,1.165447,0.2554387,-0.06209021,0.965623,0.2353604,5.152474,-40.76466,-1.413192,1007.03
3.082440853,-5.127639,0.4610142,0.01167595,-0.06540754,0.9458574,0.2603939,5.127842,-40.41142,-2.289262,1007.03
3.114720345,-0.1697457,-0.9478525,-0.3539683,-0.06493913,0.9492168,0.2517101,5.127842,-40.41142,-2.289262,1007.03
3.146999359,2.743016,-1.593583,-1.38996,-0.06301887,0.9481873,0.2318792,4.75308,-40.41306,-2.719473,1007.03
3.181761742,2.80499,-1.53488,-1.207138,-0.06257585,0.9641469,0.2285849,5.490619,-40.4154,-2.294777,1007.03
3.214041233,1.751438,-0.5956359,-1.268079,-0.06692746,0.9631583,0.2261714,5.490619,-40.4154,-2.294777,1007.03
3.248803139,1.503543,-0.7130414,-1.024316,-0.07028951,0.9612883,0.2484062,5.139166,-40.04127,-1.858151,1007.03
3.281082153,1.875385,-0.5956359,-1.816545,-0.06835078,0.9544713,0.2343436,5.866043,-40.77827,-1.85995,1007.034
3.315844536,0.9457802,0.05009471,-1.268079,-0.07126974,0.9602539,0.2295484,5.866043,-40.77827,-1.85995,1007.034
3.415164948,-4.81777,2.104692,6.227628,-0.04316448,0.9454321,0.2588933,5.877366,-40.40812,-1.428839,1007.03
3.447443962,-1.533166,-0.4195275,5.069755,-0.0415848,0.8922172,0.2624548,5.501944,-40.04525,-1.863666,1007.03
3.482206345,16.00538,-4.998344,-1.755605,-0.101894,1.061632,0.3259117,5.127842,-40.41142,-2.289262,1007.03
3.514485836,14.64196,1.752475,-3.522885,-0.05903015,0.904228,0.2514416,5.127842,-40.41142,-2.289262,1007.03
3.546764851,18.60827,-2.474125,1.718016,-0.05875635,0.9844797,0.2277254,5.139828,-40.40578,-1.853535,1007.03
3.581526756,27.16064,-0.5369331,1.108609,-0.07984579,0.9104253,0.2413695,5.176445,-40.7534,-0.5417385,1007.03
3.613805771,42.71603,-6.81813,-4.010411,-0.09205388,0.9465461,0.2005089,5.176445,-40.7534,-0.5417385,1007.03
3.648568154,41.04274,-7.111644,-3.218181,-0.04479413,0.9784046,0.1367743,5.525914,-40.03399,-0.9922125,1007.031
3.680847645,36.45669,-6.759428,-4.376055,-0.07044927,0.9928788,0.1456138,5.584789,-40.37113,1.12879,1007.033
3.715609074,39.55537,-6.935536,-7.849675,-0.05841359,0.9975806,0.0948535,5.584789,-40.37113,1.12879,1007.033
3.747888565,33.48195,-0.1260136,-4.376055,-0.07463719,1.087812,0.03110417,5.608099,-39.99535,1.995628,1007.031
3.780167580,3.114858,1.165447,0.2554387,-0.05982517,0.9689067,0.05988592,5.65604,-39.97281,3.738536,1007.031
3.814929962,-6.305138,0.5784197,1.352371,-0.0665748,0.9719023,0.09279133,5.65604,-39.97281,3.738536,1007.027
3.847209454,-4.569876,0.6958252,2.08366,-0.08161344,0.9936478,0.09633145,6.028428,-39.60745,4.101884,1007.031
3.881971359,-1.781061,0.9893391,0.4992016,-0.0724061,0.9869153,0.1011077,5.995507,-40.35258,2.866182,1007.031
3.914250374,-1.657114,0.8132309,0.4992016,-0.07149269,1.006243,0.09154687,5.995507,-40.35258,2.866182,1007.027
3.949012757,0.1401226,0.9306364,0.8039051,-0.05979207,0.9631798,0.08354178,6.018817,-39.9768,3.73302,1007.026
3.981291771,1.255648,-0.008608066,-0.2930276,-0.06367799,0.9704261,0.08310792,5.666313,-39.96798,4.112016,1007.027
4.013571262,-0.851456,-0.4782303,-1.207138,-0.05983534,0.9840133,0.09091192,5.643393,-39.61393,3.298193,1007.031
4.048333168,0.5119646,-0.830447,-2.182189,-0.06805392,0.9854629,0.09722257,5.643393,-39.61393,3.298193,1007.031
4.080612183,3.114858,-0.7130414,-2.304071,-0.08012807,0.9791356,0.09672918,5.644054,-39.97844,3.302809,1007.031
4.115374565,3.424726,-0.4782303,-1.207138,-0.07631075,0.9970161,0.08618697,5.666974,-40.33249,4.116632,1007.031
4.147654057,4.354331,-0.302122,-0.7805532,-0.07577713,0.9771895,0.0899406,5.666974,-40.33249,4.116632,1007.031
4.182415485,1.813411,0.1087975,0.3163795,-0.07295069,1.003276,0.07412936,6.006169,-39.61792,3.292677,1007.033
4.214694977,-3.082508,0.1087975,-0.4758497,-0.07431868,0.9713618,0.08265273,5.665651,-39.60346,4.1074,1007.033
4.246973991,2.12328,-1.476178,-2.730656,-0.06558789,0.9631911,0.0917728,5.665651,-39.60346,4.1074,1007.033
4.281736374,6.833278,-2.474125,-7.42309,-0.06461029,0.9612827,0.09901142,5.292602,-39.60431,3.739436,1007.033
4.314015865,17.92656,-2.767639,-7.544971,-0.07041951,0.9666139,0.1063058,6.380932,-39.61627,3.722889,1007.035
4.348777294,19.22801,4.511506,-5.472988,-0.01192485,1.001906,0.1895319,6.380932,-39.61627,3.722889,1007.035
4.381056786,29.51564,-0.8891498,-6.204276,-0.08545609,0.9800604,0.08852746,6.027766,-39.24294,4.097269,1007.035
4.415819168,16.25327,3.983181,-3.766648,-0.08363906,1.015254,0.04763136,5.690284,-39.95671,4.983469,1007.035
4.448098183,11.04749,4.628911,-1.999367,-0.09329215,0.997219,0.01757643,5.690284,-39.95671,4.983469,1007.035
4.480377674,3.672621,5.039831,-0.9024346,-0.08648778,0.9920069,0.04460469,6.439146,-39.5889,5.839276,1007.035
4.515139580,5.036042,7.270536,1.169549,-0.1000949,1.007813,0.007982553,6.077031,-39.94943,5.849408,1007.035
4.547418594,-7.110796,7.270536,-0.2930276,-0.09285761,1.011189,-0.001682625,6.077031,-39.94943,5.849408,1007.037
4.582180977,-1.905008,4.805019,-2.121249,-0.1237047,0.9719316,0.006862539,6.45047,-39.21875,6.270387,1007.037
4.614459992,12.34893,3.454856,-2.304071,-0.1187872,0.9331918,-0.00497086,6.824571,-38.85259,6.695982,1007.033
4.649221897,-5.623428,9.383837,1.413312,-0.1204206,1.000844,-0.03213868,6.824571,-38.85259,6.695982,1007.034
4.681501389,-9.03198,3.74837,-1.38996,-0.127638,0.9848456,-0.03463128,6.087693,-39.21476,6.275902,1007.036
4.713780403,-6.367112,2.398206,-1.207138,-0.07491268,1.010974,0.06257483,6.801261,-39.22838,5.829145,1007.036
4.748542786,-2.834613,1.22415,-2.730656,-0.09806995,0.9827839,0.04602753,6.801261,-39.22838,5.829145,1007.036
4.780822277,-0.2936931,0.9306364,-1.146197,-0.1305059,0.9869304,0.01179687,6.063062,-38.86152,5.399833,1007.036
4.815583706,-13.43211,6.448697,5.922925,-0.03092461,1.053065,0.1652083,6.801261,-39.22838,5.829145,1007.034
4.847863198,3.920516,0.226203,0.3773202,-0.1034003,0.9836989,0.03492513,6.801261,-39.22838,5.829145,1007.038
4.880142212,2.80499,0.6371225,2.08366,-0.09567067,0.9841804,0.02765963,6.449809,-38.85424,6.265771,1007.038
4.914904595,9.993934,0.3436086,2.388363,-0.08595954,0.9692259,0.03335493,6.437823,-38.85987,5.830045,1007.038
4.947184086,7.824856,6.742211,4.947873,-0.1521963,0.9309576,-0.06485796,6.439146,-39.5889,5.839276,1007.039
4.981945515,-4.941718,14.60838,6.288568,-0.1415833,0.9347938,-0.08419657,6.439146,-39.5889,5.839276,1007.039
5.014225006,17.67867,1.458961,1.596134,-0.09133179,0.9890255,0.02574407,5.71227,-38.85189,5.841076,1007.038
5.048987389,-0.2936931,5.744264,2.205541,-0.08217355,0.9996819,0.02095054,6.075707,-39.2204,5.840176,1007.038
5.081266403,19.22801,-0.302122,-1.633723,-0.07585356,0.9846915,0.01891793,6.075707,-39.2204,5.840176,1007.036
5.113545895,4.850121,0.2849058,-0.9024346,-0.02700676,0.9985498,0.06868564,6.111664,-39.20349,7.147356,1007.036
5.148307800,-9.093953,0.2849058,1.108609,-0.02796469,1.00396,0.0953076,6.461794,-38.8486,6.701498,1007.034
5.180586815,1.813411,-0.1847164,3.302474,-0.1953198,0.975428,-0.04324086,6.461794,-38.8486,6.701498,1007.033
5.215349197,31.12695,1.693772,10.73724,-0.1126618,1.004867,0.006059132,5.736901,-39.20514,6.717145,1007.033
5.247628212,17.98854,3.220045,14.2718,-0.1054822,1.017777,-0.04609431,6.110341,-38.47446,7.138124,1007.034
5.282390118,3.176832,5.626858,10.55442,-0.07942809,1.04498,-0.03777734,6.110341,-38.47446,7.138124,1007.034
5.314669609,-8.784085,4.570209,6.776094,-0.07804851,1.078408,-0.02792147,5.035318,-39.1859,7.59963,1007.034
5.346948624,-0.3556667,1.693772,10.85912,-0.1285675,0.9898853,0.02534577,4.660556,-39.18754,7.169418,1007.033
5.381711006,9.808013,1.517664,12.3217,-0.05653739,0.9851292,-0.01109441,4.660556,-39.18754,7.169418,1007.031
5.413990498,-11.26303,0.1087975,7.812086,-0.01312276,1.02538,-0.02256164,4.682154,-38.81256,7.97401,1007.031
5.448751927,-27.00434,-2.239314,0.6820237,0.01722359,0.8926003,0.03994844,3.583549,-38.80543,7.617076,1007.031
5.481031418,1.379596,-1.828394,1.108609,-0.0215975,0.9446967,0.02340797,3.583549,-38.80543,7.617076,1007.031
5.515793800,6.771304,-2.121908,-3.522885,-0.03580983,1.007399,-0.02599906,4.297118,-38.81904,7.170318,1007.031
5.548072815,10.86157,-2.650233,-8.580963,-0.04165738,1.021856,-0.0389571,4.286456,-39.5537,6.743823,1007.031
5.580352307,-2.338824,-1.9458,-11.44518,-0.0591499,1.060059,-0.03193404,4.286456,-39.5537,6.743823,1007.027
5.615113735,-19.19566,-0.6543386,-12.17647,-0.08075664,1.007365,0.002137062,4.297118,-38.81904,7.170318,1007.027
5.647393227,-12.93632,-0.008608066,-7.666853,-0.08445597,0.9503912,0.04339682,3.934341,-38.81505,7.175834,1007.027
5.682155609,13.27854,0.519717,1.108609,-0.09022164,0.937822,0.05203967,3.934341,-38.81505,7.175834,1007.027
5.714434147,30.25932,1.282853,7.385501,-0.08307333,0.9686831,0.01352464,4.649894,-39.92221,6.742923,1007.025
5.749196530,43.76958,1.400259,10.6763,-0.07205487,1.002006,-0.0157994,5.023333,-39.19153,7.163903,1007.025
5.781476021,56.6601,1.165447,14.2718,-0.08703936,0.9868369,-0.05259469,5.023333,-39.19153,7.163903,1007.025
5.813755036,115.5351,-9.811972,20.24399,-0.08882806,0.9361237,-0.02193911,4.331362,-38.80294,8.415252,1007.025
5.848516941,187.6104,-22.72658,23.77855,-0.1060038,1.168082,-0.2463491,4.415259,-38.7635,11.46534,1007.027
5.880795956,194.9853,-42.2159,42.73111,-0.2370847,1.189042,-0.233378,3.452035,-36.86858,16.12731,1007.027
5.915558338,99.97969,-51.25613,32.55401,-0.0726046,1.463429,0.05692402,3.452035,-36.86858,16.12731,1007.027
5.947837830,99.79377,-68.98437,19.02518,0.2756197,1.752499,0.3836548,2.841314,-34.98249,20.41028,1007.027
5.980116844,37.51024,-15.38874,44.55933,-0.1651653,1.445707,-0.2393252,3.993892,-31.68081,22.90431,1007.027
6.014878750,-9.217901,-55.60014,57.90535,-0.04508334,1.338775,0.2350282,3.993892,-31.68081,22.90431,1007.025
6.047157764,-73.42262,-69.39529,58.39287,-0.2240503,1.121602,0.132657,3.992568,-30.95177,22.89507,1007.025
6.081920147,-87.8005,-95.22451,53.45667,-0.3097298,0.9538985,0.1265703,3.60621,-30.22922,22.08215,1007.023
6.114199638,-105.2151,-101.7405,33.71188,-0.2400772,0.6957299,-0.002675573,3.60621,-30.22922,22.08215,1007.022
6.148961544,-83.21445,-119.8797,4.886932,-0.5065513,0.4925389,-0.04628263,2.798743,-31.35423,19.05694,1007.022
6.181240559,-57.55735,-143.5369,-18.33148,-0.3963057,0.6472146,-0.1926061,2.742514,-32.47515,16.9544,1007.022
6.213519573,-39.89486,-139.5451,-27.71635,-0.2962523,0.6585722,-0.210161,2.742514,-32.47515,16.9544,1007.02
6.248281956,-44.35696,-138.2536,-40.27013,-0.3048144,0.7705039,-0.3028098,4.535736,-34.32893,16.07845,1007.022
6.280561447,-51.66986,-119.1752,-42.28117,-0.2000944,0.6483047,-0.3225844,7.049879,-33.63909,15.15916,1007.02
6.315323353,-27.68605,-113.2463,-49.10653,-0.3697777,0.5746896,-0.482172,7.049879,-33.63909,15.15916,1007.02
6.347602367,-7.668559,-97.57262,-61.84314,-0.1836899,0.5553554,-0.6330324,10.28063,-33.69109,13.86458,1007.02
6.382364750,47.79787,-71.15637,-55.99283,-0.208515,0.6357235,-0.6010984,14.23455,-33.38735,12.49212,1007.022
6.414644241,54.24313,-47.44045,-66.53557,-0.5026281,0.4658529,-0.6420392,14.23455,-33.38735,12.49212,1007.022
6.446923256,110.5772,-47.61656,-72.08118,-0.283856,0.7682717,-0.6939695,17.13412,-31.96119,12.42953,1007.022
6.481685162,79.15654,-34.58454,-69.15602,-0.3675169,0.855962,-0.4506044,20.00853,-30.15296,13.67043,1007.018
6.513964176,49.78102,-19.43923,-98.28568,-0.6715619,0.3459403,-0.6123838,20.00853,-30.15296,13.67043,1007.018
6.548726559,465.0665,-50.08208,-118.8836,-0.1966732,0.934684,-1.213391,21.52333,-26.5515,16.15509,1007.018
6.581006050,148.753,-14.03857,-88.59611,-0.6929601,1.477827,-1.025527,23.78887,-23.61504,19.50863,1007.018
6.615767479,-12.56448,58.69417,-72.14211,-0.4522227,1.351225,-0.8885019,23.78887,-23.61504,19.50863,1007.018
6.648046971,-108.8096,95.91174,-41.67177,-0.6993701,1.315104,-1.056895,24.94218,-14.11095,22.35992,1007.02
6.680325985,-250.6053,73.19376,-0.2930276,-0.5562725,0.924587,-0.4609265,24.24597,-10.44092,23.63197,1007.02
6.715088368,-179.4595,50.828,11.65135,-0.6022835,0.5724003,-0.3898306,24.24597,-10.44092,23.63197,1007.026
6.747367859,-153.1207,46.7188,-6.874624,-0.5562049,0.5721419,-0.2192775,22.79751,-11.88303,23.6725,1007.022
6.782129765,-105.7729,32.10181,-17.05172,-0.4913327,0.5618953,-0.1561451,22.3838,-15.91608,21.6124,1007.022
6.814408779,-80.17774,18.95239,-24.36461,-0.4632674,0.7765357,-0.1022903,22.01432,-18.83385,21.21911,1007.023
6.849171162,-49.62473,-0.3608247,-23.63332,-0.427125,0.7878557,-0.2197795,22.01432,-18.83385,21.21911,1007.023
6.881450176,-49.81065,19.30461,-17.1736,-0.4058833,0.8302886,-0.1398166,21.60625,-20.31046,19.50019,1007.022
6.913729668,-39.27512,5.215939,-10.10448,-0.3406222,0.8103672,-0.218871,21.95704,-20.32009,19.05894,1007.022
6.948491574,-31.15658,21.94623,1.596134,-0.5011774,0.8303577,-0.18167,21.95704,-20.32009,19.05894,1007.02
6.980770588,-35.43276,24.29434,9.396544,-0.5221293,0.8936535,-0.1928675,22.32114,-21.0531,19.06266,1007.02
7.015532970,-19.31961,18.18925,8.482434,-0.6652206,0.8968235,-0.1359787,21.59493,-20.68061,19.06907,1007.02
7.047812462,-1.099351,21.59401,-1.450901,-0.6251578,0.9142336,-0.1731909,21.59493,-20.68061,19.06907,1007.018
7.080091476,-3.020534,26.64245,-6.935565,-0.5732623,0.8598089,-0.1407383,20.54388,-21.38078,20.40203,1007.022
7.114853382,2.433148,24.58785,-10.40918,-0.501488,0.8149469,-0.01642092,19.78369,-22.11873,19.11512,1007.021
7.147132397,32.24248,24.11823,-11.68894,-0.5004965,0.7764457,-0.09737623,19.78369,-22.11873,19.11512,1007.019
7.181894779,25.67327,27.05337,-12.54211,-0.471292,0.8818513,-0.1485678,20.18044,-21.01227,20.40293,1007.019
7.214174271,51.39234,29.04927,-7.605912,-0.4237492,0.7839186,-0.2420473,19.82766,-19.9091,20.83033,1007.021
7.248935700,51.51629,34.50863,-6.326158,-0.4926221,0.8683721,-0.2525378,19.82766,-19.9091,20.83033,1007.022
7.281215191,26.04511,32.68884,-5.71675,-0.5278705,1.007704,-0.3768802,19.23211,-19.50427,23.38794,1007.024
7.313494206,22.14077,33.62809,-6.265217,-0.558507,0.9038376,-0.2986042,18.16643,-18.75201,24.26671,1007.024
7.348256588,7.88683,27.52299,-10.89671,-0.631116,0.9575527,-0.237229,18.16643,-18.75201,24.26671,1007.024
7.380536079,-19.87737,9.853458,-13.09058,-0.5161411,0.7952394,-0.2504857,17.82564,-17.6432,25.12983,1007.024
7.415297985,-15.84908,1.63507,-14.43127,-0.4702908,0.6303775,-0.2433035,16.74863,-17.26109,25.57749,1007.024
7.447577000,-3.888165,-1.358772,-10.53107,-0.4298156,0.6675301,-0.309894,16.74863,-17.26109,25.57749,1007.028
7.482339382,12.41091,1.811178,-5.594869,-0.4626124,0.8016338,-0.4081658,17.46286,-17.63921,25.13534,1007.028
7.514618397,12.9067,7.505347,0.9257866,-0.5033134,0.8363573,-0.4088475,17.47485,-17.63358,25.57107,1007.028
7.546897888,-8.412243,2.456909,2.875889,-0.5324661,0.9339174,-0.2980059,17.47485,-17.63358,25.57107,1007.028
7.581659794,-2.400798,-2.650233,5.008814,-0.6299239,0.682925,-0.1672442,17.84591,-16.53919,25.92519,1007.028
7.613938809,11.10946,-13.33414,1.718016,-0.480558,0.6885215,-0.2129775,16.76957,-16.52159,26.37746,1007.03
7.648701191,16.93498,-11.80787,2.144601,-0.3553993,0.856605,-0.4138855,16.76957,-16.52159,26.37746,1007.03
7.680980683,0.0781489,0.5784197,2.144601,-0.5132651,0.785858,-0.3080744,17.49512,-16.52956,26.36643,1007.031
7.715742111,13.96025,1.811178,6.288568,-0.4939956,0.8080922,-0.3321615,17.85658,-15.80452,26.35168,1007.031
7.748021603,11.7292,0.9306364,6.593272,-0.6033753,0.6544665,-0.3052433,17.49446,-16.16505,26.36181,1007.033
7.780300617,34.28761,3.513559,6.166687,-0.603756,0.8058427,-0.3319377,17.49446,-16.16505,26.36181,1007.035
7.815063000,-6.243165,5.509453,5.130695,-0.5781135,0.8010898,-0.3281525,17.50446,-15.06587,26.78369,1007.035
7.847342491,3.920516,0.519717,5.313517,-0.5746187,0.7688138,-0.2877347,16.42811,-15.04827,27.23597,1007.035
7.882103920,-0.665535,-4.704831,7.933968,-0.4869315,0.8894261,-0.3278468,16.42811,-15.04827,27.23597,1007.035
7.914383412,-14.42369,-7.639969,8.848078,-0.4581597,0.7698118,-0.3774162,16.80221,-14.68211,27.66156,1007.033
7.949145794,-0.1077721,-3.882992,10.3716,-0.4821687,0.7313462,-0.2837961,16.06467,-14.67976,27.23687,1007.033
7.981424808,22.63656,-3.472072,9.274663,-0.4835859,0.6918982,-0.3565331,16.06467,-14.67976,27.23687,1007.029
8.013704300,33.66787,-3.824289,8.11679,-0.4863989,0.6932328,-0.245812,16.41679,-15.41842,26.80486,1007.033
8.048466206,68.37312,-14.6843,6.41045,-0.4856516,0.7768651,-0.2719272,16.42811,-15.04827,27.23597,1007.029
8.080745220,76.18181,-25.60302,10.55442,-0.3723783,0.6780118,-0.4071293,16.42811,-15.04827,27.23597,1007.029
8.115507603,144.9106,-33.35178,33.71188,-0.2092129,0.763354,-0.4944982,16.44811,-12.8499,28.07972,1007.027
8.147786617,116.7746,-21.37642,52.84727,-0.1331409,0.9102798,-0.4711051,16.84315,-11.74425,29.30529,1007.026
8.180066109,122.848,-21.14161,89.59451,-0.1584841,0.9836618,-0.5010899,16.84315,-11.74425,29.30529,1007.03
8.214828014,55.66853,-5.996292,115.7381,-0.6029302,1.193658,-0.5613016,17.25736,-7.042109,31.41918,1007.03
8.247107029,-37.91171,-7.463861,110.4972,-0.6870245,0.9214524,-0.7043155,17.98961,-4.128326,31.80695,1007.03
8.281869412,-17.89421,2.515611,90.44769,-0.6990557,0.8395593,-0.8696079,17.98961,-4.128326,31.80695,1007.028
8.314148903,-25.76487,10.02957,64.79165,-0.5573845,0.6728545,-0.7732065,19.09257,-5.59272,32.24459,1007.028
8.348910332,-17.77027,14.60838,30.54297,-0.4066953,0.5968558,-0.6216801,19.46053,-8.452082,32.27523,1007.024
8.381189823,-20.37316,16.83909,2.814948,-0.2927456,0.5071104,-0.4972254,19.46053,-8.452082,32.27523,1007.024
8.413468838,-24.95921,14.25617,-18.63618,-0.2257463,0.4106857,-0.4476405,18.71564,-11.00698,31.44712,1007.024
8.448231220,9.436172,16.48687,-34.60265,-0.2369504,0.4352344,-0.4769665,17.99075,-11.36352,31.46276,1007.022
8.480510712,54.73892,8.914214,-43.80469,-0.2797548,0.7497004,-0.4654175,17.99075,-11.36352,31.46276,1007.022
8.515272141,49.96695,4.041883,-43.74375,-0.3001153,0.9531565,-0.5294809,18.0034,-11.7224,31.90311,1007.022
8.547551632,52.56984,5.098533,-32.04314,-0.3085527,1.021625,-0.5957879,17.30784,-8.416882,33.17978,1007.022
8.582314015,23.81406,7.446644,-17.23454,-0.3092996,0.8969461,-0.6868983,17.30784,-8.416882,33.17978,1007.022
8.614593029,28.46209,6.5074,-0.3539683,-0.2855648,0.8590676,-0.7461444,16.57578,-4.8245,33.14542,1007.022
8.646872521,-3.144482,12.96471,5.191636,-0.3002529,0.7610756,-0.6615847,16.94724,-3.000275,33.55255,1007.024
8.681634426,-33.51157,21.82882,-1.024316,-0.2707362,0.5472539,-0.6652812,16.58142,-2.26806,33.48659,1007.024
8.713913441,10.67564,14.72579,-10.59201,-0.3848245,0.5299426,-0.6791535,16.58142,-2.26806,33.48659,1007.024
8.748675823,16.87301,18.42406,-24.97401,-0.3125604,0.689813,-0.5454546,15.86786,-2.254448,33.93335,1007.026
8.780954838,31.37485,13.08211,-31.18997,-0.3023223,0.6369234,-0.596055,15.15363,-1.876321,34.37549,1007.026
8.815716744,49.16129,8.738106,-29.72739,-0.3194631,0.7376207,-0.5693398,15.15363,-1.876321,34.37549,1007.026
8.847996235,40.36103,6.742211,-26.31471,-0.3006464,0.7506964,-0.582359,14.06199,-0.04177666,34.36896,1007.026
8.880275250,54.49102,3.161342,-21.01287,-0.318749,0.5724295,-0.7641396,13.68061,3.601735,33.89259,1007.026
8.915037155,52.81774,5.157236,-21.8051,-0.3137041,0.6993404,-0.7320054,13.68061,3.601735,33.89259,1007.026
8.947316170,29.57761,11.61454,-24.42555,-0.3258353,0.4807415,-0.8250754,12.58897,5.436278,33.88605,1007.026
8.982078552,49.53313,13.90395,-27.53352,-0.3733248,0.5500634,-0.7491626,12.21958,9.085424,33.84541,1007.024
9.014358044,50.71063,12.43638,-28.93516,-0.4221179,0.5305632,-0.7501351,12.21958,9.085424,33.84541,1007.022
9.049119949,66.82378,3.572261,-25.46154,-0.3307963,0.5701227,-0.7206172,11.10436,11.63854,33.02044,1007.024
9.081398964,53.06563,3.689667,-23.20673,-0.3286878,0.4413531,-0.878955,9.62278,15.22763,32.12566,1007.024
9.113677979,65.46037,4.3941,-19.42841,-0.3457306,0.4769746,-0.9202914,9.62278,15.22763,32.12566,1007.024
9.148440361,25.85919,1.458961,-19.00183,-0.30793,0.4705892,-0.8372577,8.492539,18.50333,30.79348,1007.022
9.180719852,34.22564,7.446644,-16.25949,-0.3863229,0.2683494,-0.9020526,6.624761,21.78138,29.03661,1007.024
9.215481758,39.55537,11.73195,-15.16256,-0.4305987,0.4068516,-0.8349386,6.624761,21.78138,29.03661,1007.024
9.247760773,30.01143,7.740159,-13.09058,-0.3687588,0.3999636,-0.9206797,5.498878,23.59982,27.78514,1007.024
9.282523155,16.25327,9.912162,-8.093438,-0.3608797,0.3639253,-0.8517699,4.358638,25.77634,26.03108,1007.024
9.314802647,69.24075,-4.352614,-0.2930276,-0.3917071,0.3144876,-0.8486004,4.358638,25.77634,26.03108,1007.024
9.347081661,61.67997,3.689667,-1.511842,-0.3699499,0.2871746,-0.9300203,2.506541,27.96728,24.78603,1007.024
9.381843567,73.45496,4.041883,1.961779,-0.3967774,0.1860053,-0.9160346,2.058933,29.3907,21.78524,1007.026
9.414122582,84.30035,-1.9458,0.9257866,-0.3847572,0.2321801,-0.8664873,2.058933,29.3907,21.78524,1007.026
9.448884964,70.72813,-2.59153,-0.5367904,-0.3538606,0.202251,-1.01369,1.60829,31.54234,18.71298,1007.026
9.481164456,68.37312,1.693772,0.2554387,-0.343071,0.1589293,-0.9544959,-0.6771733,32.97443,14.86831,1007.026
9.513443470,35.09327,1.22415,0.8648458,-0.3384478,0.05891107,-0.9130155,-0.6771733,32.97443,14.86831,1007.026
9.548205376,63.10536,-3.589478,2.022719,-0.3337897,0.1349115,-0.9096927,-1.475573,34.40747,12.30876,1007.027
9.580484390,30.75511,-1.300069,-1.268079,-0.4018393,0.05853504,-0.9704102,-1.519817,33.29218,10.64195,1007.029
9.615246773,59.44892,1.869881,0.8039051,-0.3908916,-0.06280724,-0.9435677,-1.544449,33.64543,9.765882,1007.033
9.647526264,87.0272,-4.587425,3.911881,-0.3489819,0.02217252,-0.8924138,-1.544449,33.64543,9.765882,1007.033
9.682288170,93.28654,-16.15187,10.92006,-0.3459874,0.00204255,-0.8374227,-1.591729,33.25838,8.027591,1007.034
9.714567185,81.75944,-21.55253,15.42967,-0.2811643,-0.03577253,-0.9127104,-2.036691,33.22372,5.045266,1007.034
9.746846199,76.80154,-20.02626,22.86444,-0.2482462,-0.02770634,-0.8450541,-2.036691,33.22372,5.045266,1007.034
9.781608582,57.65168,-14.97782,26.82558,-0.3129707,-0.04372527,-0.8048803,-1.747421,35.00932,2.464557,1007.036
9.813888073,44.69918,-2.826341,26.94747,-0.3225963,-0.0592026,-0.7943119,1.074393,39.62155,-0.2531655,1007.036
9.848649979,48.72747,1.63507,24.38796,-0.4332945,-0.07648288,-0.8019065,1.074393,39.62155,-0.2531655,1007.036
9.880928993,1.999333,-5.350561,29.6898,-0.4568052,0.07515955,-0.7304116,6.946182,48.71007,2.593277,1007.036
9.915691376,-41.07236,-0.008608066,22.49879,-0.5274153,-0.1654719,-0.8495867,15.20986,55.32206,13.09528,1007.032
9.947970867,-34.44118,-10.98603,25.97242,-0.3650588,-0.1674378,-0.9959463,15.20986,55.32206,13.09528,1007.032
9.980249882,-22.54224,0.05009471,25.48489,-0.5294752,-0.1054031,-0.8294197,20.54534,49.57871,24.23499,1007.032
10.015011787,-63.13498,-7.463861,28.53193,-0.5211479,-0.1391433,-0.7967556,23.57959,41.94752,28.58282,1007.032
10.047290802,-74.66209,-20.20236,25.36301,-0.5332441,-0.2222827,-1.04424,23.57959,41.94752,28.58282,1007.032
10.082053185,-24.71132,-6.1724,17.80636,-0.5137212,-0.2913571,-1.023403,23.30013,34.75495,31.232,1007.03
10.114332676,2.247227,-24.78118,15.55156,-0.4840846,-0.09918031,-0.8879781,25.87479,28.54153,32.14332,1007.032
10.149094105,-56.37986,-14.50819,7.446442,-0.4777745,-0.1186096,-0.9146914,25.87479,28.54153,32.14332,1007.032
10.181373596,-43.92315,-30.29924,5.435399,-0.4422617,-0.209981,-0.9181882,25.50466,25.98827,31.74541,1007.032
10.213652611,-21.11684,-22.13956,7.324561,-0.4233734,-0.1643566,-0.751183,26.2355,23.06417,31.77131,1007.032
10.248414993,-13.30816,-26.24875,5.983865,-0.4456423,-0.1518217,-0.7462294,26.2355,23.06417,31.77131,1007.032
10.280694485,19.28998,-29.00778,7.385501,-0.4262831,-0.1472963,-0.7124047,26.97635,21.23925,32.21909,1007.034
10.315456390,4.788147,-28.30335,6.471391,-0.4812981,0.02398591,-0.673604,28.02071,19.01765,30.48733,1007.032
10.347735405,-3.888165,-22.55048,-3.644766,-0.6498877,-0.1585636,-0.9923813,28.02071,19.01765,30.48733,1007.032
10.382497788,39.05958,-31.94292,-6.082395,-0.7284728,-0.03521548,-0.9412329,28.04534,18.6644,31.3634,1007.034
10.414776325,12.16301,-38.22412,-15.34538,-0.7422428,0.04051129,-1.003136,29.10036,17.17747,30.05814,1007.034
10.447055340,17.18288,-26.42486,-22.17074,-0.7197944,-0.07878768,-1.097167,29.10036,17.17747,30.05814,1007.039
10.481818199,17.49275,-23.84194,-26.31471,-0.7565221,-0.01283183,-0.8810988,29.42757,17.88641,28.79845,1007.043
10.514097214,-26.57053,-16.38668,-28.44763,-0.6755158,-0.1190554,-0.8789768,29.03016,17.14447,27.50602,1007.043
10.548859120,-12.68843,1.22415,-31.98219,-0.5288448,-0.2504167,-1.067614,29.77836,17.87679,28.35722,1007.043
10.581138134,42.09629,5.744264,-34.35888,-0.5457355,-0.2258936,-0.9567307,29.77836,17.87679,28.35722,1007.043
10.613417626,24.06195,20.30255,-42.58588,-0.5316736,-0.2447497,-0.9636363,28.72494,17.54034,29.62331,1007.045
10.648180008,36.76656,23.4725,-46.18138,-0.6332551,-0.2100087,-0.9076244,28.02137,18.65313,30.49195,1007.048
10.680459023,50.46274,22.00493,-55.93189,-0.6504248,-0.1001464,-0.889559,28.02137,18.65313,30.49195,1007.048
10.715220928,21.21117,22.70937,-64.46358,-0.5489415,-0.05417511,-0.8329539,26.25013,21.61174,32.22551,1007.05
10.747499943,26.60287,-15.91706,-42.82964,-0.5135507,0.2287104,-0.4959153,24.81731,23.82525,33.02908,1007.053
10.782262325,-22.10842,-2.885044,-26.61941,-0.6313865,0.1547144,-0.5260553,24.81731,23.82525,33.02908,1007.055
10.814541817,-23.71974,-9.166242,-17.90489,-0.5167142,-0.1901022,-0.8439485,23.40819,27.14439,34.7525,1007.057
10.846820831,-1.099351,-2.767639,-3.888529,-0.6032449,-0.1790113,-0.7823022,23.41018,26.05084,34.76635,1007.057
10.881582737,-2.214877,-12.4536,-0.2320869,-0.5468438,-0.07841422,-0.7045016,23.41018,26.05084,34.76635,1007.058
10.913861752,7.762883,-9.694567,-1.146197,-0.6519868,-0.1767975,-0.6589077,22.65999,26.41206,33.90131,1007.06
10.948624611,13.15459,-37.46098,1.474253,-0.7590238,-0.0004344516,-0.3618098,23.00145,24.93874,33.0428,1007.062
10.980903625,-67.22524,-52.19538,-7.544971,-0.6909806,0.03389007,-0.4294427,23.00145,24.93874,33.0428,1007.063
11.015665531,-95.36129,-65.75571,-5.412047,-0.6602511,-0.1149427,-0.5347779,23.68077,24.90903,31.35112,1007.065
11.047944546,-85.50748,-64.40555,-6.813683,-0.5957834,-0.2841685,-0.8317435,24.35367,20.86321,29.21222,1007.065
11.080223560,-1.657114,-75.50037,-3.644766,-0.6280419,-0.2949246,-0.6939551,24.35367,20.86321,29.21222,1007.067
11.114986420,20.34354,-68.45604,0.1944981,-0.6994246,-0.1551512,-0.6572321,25.35379,17.52633,25.81365,1007.067
11.147265434,-16.84066,-84.12968,-4.86358,-0.8414404,-0.1798728,-0.5492597,26.33795,16.37091,21.95166,1007.069
11.182027340,-37.91171,-79.02254,-12.29835,-0.8633175,-0.2219584,-0.8119591,26.33795,16.37091,21.95166,1007.069
11.214306355,-30.84671,-72.91745,-19.48935,-0.9141784,-0.1760468,-0.7869331,28.04634,15.93654,18.0694,1007.069
11.249068737,-29.79316,-61.70522,-16.92984,-0.908353,-0.1871753,-0.7913598,27.97614,15.90354,15.51729,1007.07
11.281348229,-1.409219,-75.03075,-16.32043,-0.8942006,-0.1836665,-0.6245841,27.97614,15.90354,15.51729,1007.07
11.313627243,-42.12591,-52.665,-10.53107,-0.8669229,0.0619651,-0.8499789,28.63215,15.49805,12.95876,1007.07
11.348389149,-97.90221,-18.8522,3.180593,-0.8482131,0.0218216,-1.145145,29.67122,16.19258,11.19007,1007.07
11.380668163,9.869987,-5.409264,11.04194,-0.973268,-0.1287282,-0.768166,29.67122,16.19258,11.19007,1007.07
11.415430546,31.00301,-6.58332,10.73724,-1.074742,-0.07106148,-0.5157479,29.28618,16.1861,10.38638,1007.072
11.447710037,-6.800928,-9.107538,8.604316,-0.9676576,-0.1006292,-0.3348573,29.65924,16.18694,10.75435,1007.072
11.482471943,-19.87737,-19.73274,2.693067,-0.8791309,-0.09582104,-0.2760412,30.73558,16.16934,10.30208,1007.072
11.514750958,-26.38461,-24.95729,2.144601,-0.7941566,-0.05555579,-0.318538,30.73558,16.16934,10.30208,1007.072
11.547029972,-25.64092,-29.4774,2.510245,-0.7960101,-0.129505,-0.433046,30.74822,15.81046,10.74242,1007.072
11.581791878,-20.62105,-27.83372,2.266482,-0.812472,-0.1203558,-0.4324751,30.71464,15.42984,9.5021,1007.074
11.614071369,-26.81842,-24.60507,0.01167595,-0.8777063,-0.1506557,-0.4648972,30.71464,15.42984,9.5021,1007.074
11.648833752,-14.54764,-23.48972,-3.766648,-0.89708,-0.1542639,-0.5137032,31.41557,15.77511,8.615,1007.074
11.681112766,-4.012113,-22.78529,-4.193233,-0.8899577,-0.07562074,-0.4465569,31.41623,15.4106,8.619616,1007.072
11.715874672,-5.933296,-15.97577,-0.9024346,-0.8900235,-0.05048267,-0.4541489,31.41623,15.4106,8.619616,1007.074
11.748153687,-14.11382,-8.109591,-1.146197,-0.932098,-0.04622956,-0.4487162,32.11649,16.12039,7.727899,1007.074
11.780433178,-16.09698,-9.048836,0.3773202,-0.9948448,-0.09431492,-0.4478875,31.37961,15.75821,7.307819,1007.074
11.815195561,8.692488,-13.62765,-2.121249,-1.019225,0.004461866,-0.4105319,31.37961,15.75821,7.307819,1007.074
11.847474575,6.957225,-10.51641,-0.8414939,-0.9520121,0.01638461,-0.3762848,32.10516,15.75023,7.296789,1007.07
11.882236481,-9.651716,-5.702778,-1.572782,-0.9329904,-0.02833095,-0.3069649,31.7304,15.74859,6.866577,1007.068
11.914515496,-10.89119,-2.121908,1.291431,-0.9386495,-0.09763286,-0.3320021,31.7304,15.74859,6.866577,1007.068
11.946794987,-1.843035,-2.59153,4.886932,-0.9348866,-0.04186191,-0.2997862,31.71947,16.10827,6.488482,1007.07
11.981557369,3.362753,-9.283647,6.288568,-0.9582281,0.02154336,-0.2766537,32.09318,15.7446,6.861061,1007.068
12.013836384,-4.693823,-15.33003,2.93683,-0.9436913,0.01682417,-0.2535068,32.09318,15.7446,6.861061,1007.07
12.048598290,-14.05185,-18.8522,4.155644,-0.9668622,-0.01288796,-0.2908506,32.44634,15.37127,6.486682,1007.07
12.080877304,-15.47724,-22.31566,6.593272,-0.9431638,-0.008891459,-0.2739586,32.0829,15.73977,6.487581,1007.07
12.115640163,-13.9279,-20.26107,4.033762,-0.9226996,-0.08930968,-0.3170026,32.0829,15.73977,6.487581,1007.068
12.147919178,-5.189612,-21.14161,5.679162,-0.9613966,-0.0836115,-0.3164034,31.68418,15.72685,5.185916,1007.07
12.180198193,0.6359118,-25.42691,10.85912,-1.002092,-0.03958037,-0.2836749,32.03497,15.71723,4.744675,1007.07
12.214960098,1.751438,-32.94086,7.26362,-1.008384,-0.007372405,-0.1988764,32.03497,15.71723,4.744675,1007.068
12.247239590,0.5739383,-31.64941,5.861984,-0.9958623,0.003695613,-0.2278468,32.36244,15.33182,3.436594,1007.068
12.282001972,-5.003691,-30.12313,4.399407,-1.051481,-0.001881586,-0.2557981,32.70296,15.31737,2.621872,1007.07
12.314280987,0.3880172,-27.01189,2.449304,-1.093869,-0.05898887,-0.2212238,32.70296,15.31737,2.621872,1007.07
12.349042893,2.866964,-28.42075,-1.268079,-1.123305,-0.06664079,-0.169476,33.04177,15.30211,1.744903,1007.071
12.381321907,4.912095,-35.8173,-2.913478,-1.074423,-0.06925239,-0.1246364,33.38124,14.92234,0.8725491,1007.071
12.413601399,2.866964,-44.85753,-4.680758,-1.119859,-0.06198091,-0.08243793,33.38124,14.92234,0.8725491,1007.071
12.448362827,2.743016,-56.71549,-4.558877,-1.049711,-0.07190036,-0.07007612,32.25695,14.9174,-0.4180849,1007.071
12.480642319,1.627491,-58.82879,-10.53107,-1.020362,-0.2272879,-0.1092145,32.92363,15.24657,-2.550119,1007.073
12.515404701,49.71905,-77.84849,0.4382609,-0.9876787,-0.1596011,-0.1553102,32.15079,14.8675,-4.27738,1007.073
12.547683716,90.80759,-81.07714,0.4382609,-0.8807918,0.09779397,0.02479525,32.15079,14.8675,-4.27738,1007.073
12.582445622,100.4135,-57.59603,-3.94947,-0.9254658,0.148688,-0.05603679,31.69556,14.82802,-7.633185,1007.069
12.614725113,61.24615,-51.84316,-4.924521,-0.7781487,0.2339462,-0.0118766,31.23928,14.42322,-11.04662,1007.069
12.647004128,6.399462,-26.24875,-16.19855,-0.8439622,0.0420343,-0.0384482,31.23928,14.42322,-11.04662,1007.071
12.681766510,-29.73118,4.922425,-17.53925,-0.9119864,-0.134414,-0.3554738,30.45738,13.37103,-13.1389,1007.072
12.714045525,19.53788,7.387942,3.668118,-1.158829,0.2372061,-0.1560692,29.3685,13.68676,-13.1262,1007.072
12.748807430,9.93196,-1.123961,-4.741699,-1.310402,-0.2130966,0.03990693,29.3685,13.68676,-13.1262,1007.074
12.781086922,19.4759,1.869881,3.972822,-1.085504,-0.02709139,0.04531423,29.35652,13.68113,-13.56193,1007.074
12.815849304,15.0138,4.217992,4.825992,-0.9207565,0.03387764,0.04723958,29.00506,14.05527,-13.1253,1007.074
12.848128319,-10.02356,5.509453,6.715154,-0.8769723,-0.06556601,0.08235426,29.00506,14.05527,-13.1253,1007.076
12.880407810,-13.49408,4.805019,5.861984,-0.9555259,-0.17709,0.08333975,29.00628,13.38699,-13.11684,1007.076
12.915169239,0.0781489,-2.826341,4.033762,-0.9876119,-0.09482002,0.1114327,29.38104,13.38864,-12.68663,1007.076
12.947448731,5.221963,-2.004503,2.022719,-0.9830124,0.001950034,0.1032711,29.38104,13.38864,-12.68663,1007.076
12.982211113,-1.223298,-0.8891498,-1.32902,-1.033134,-0.05418858,0.1446356,29.7558,13.39028,-12.25642,1007.076
13.014490128,0.4499909,-8.2857,-2.365011,-1.044906,-0.1516196,0.2494967,30.09394,13.73954,-13.138,1007.076
13.046769619,6.213542,-24.13545,-8.459082,-0.9365053,0.03811552,0.3117386,30.09394,13.73954,-13.138,1007.076
13.081531048,-33.13973,-26.01394,-12.11552,-0.8957285,0.0823342,0.04504397,29.73128,13.68277,-13.13171,1007.076
13.113810539,-55.01643,-6.700725,-23.51144,-0.9322186,-0.08235501,-0.1129314,28.98296,13.0112,-13.98368,1007.076
13.148572922,-27.00434,-3.765586,-24.91307,-0.9500811,-0.2806397,-0.06132549,28.98296,13.0112,-13.98368,1007.076
13.180851936,-8.536191,-2.356719,-19.91594,-0.9491451,-0.2397183,0.01818911,28.26752,14.05761,-13.55,1007.076
13.215613842,7.948803,0.8719336,-19.79405,-0.9518417,-0.1123603,0.04599164,27.52734,15.51801,-13.99316,1007.076
13.247893333,-4.879744,10.6753,-14.30939,-0.9042465,-0.2574764,-0.1193052,27.52734,15.51801,-13.99316,1007.078
13.280172348,33.72985,0.4023114,-7.910616,-0.9369218,-0.08915109,0.02772078,27.52601,16.24705,-14.00239,1007.078
13.314934254,55.11076,2.69172,-7.910616,-0.9311824,-0.01951667,0.1508978,27.15191,15.88088,-14.42798,1007.078
13.347213268,70.97602,9.149026,-8.580963,-0.8780922,-0.008050073,0.06237927,27.15191,15.88088,-14.42798,1007.078
13.381975651,57.89957,-4.176506,1.108609,-1.058242,-0.02234482,0.2807171,25.68948,15.52669,-14.83703,1007.076
13.414255142,29.57761,-0.830447,0.8648458,-1.25534,0.1122118,0.3123636,26.02961,14.7824,-15.70477,1007.078
13.449016571,4.974068,1.693772,4.094703,-1.774629,0.4039969,0.03136335,25.2718,13.68073,-16.92482,1007.078
13.481296063,-30.59881,-5.350561,-5.655809,-0.6186696,-0.1382466,-0.02062127,25.2718,13.68073,-16.92482,1007.078
13.513575077,-20.68303,14.66709,7.019857,-0.8555822,-0.3186045,0.07990251,25.62127,14.40014,-17.3753,1007.079
13.548337460,2.743016,0.4610142,5.191636,-1.151008,-0.306659,0.1420038,25.28312,14.05088,-16.49371,1007.079
13.580616951,24.4338,-7.287753,9.640307,-0.967709,0.1029332,0.1869638,25.28312,14.05088,-16.49371,1007.078
13.615378857,-33.69749,1.106745,7.324561,-1.00786,-0.1532656,0.01784034,26.37013,14.76795,-16.51949,1007.078
13.647657871,-6.615006,-3.295964,8.604316,-0.9837508,-0.08653139,0.1264581,25.63458,13.67674,-16.93034,1007.078
13.682420254,-20.62105,-1.182664,7.385501,-1.000531,-0.170035,0.06123868,25.63458,13.67674,-16.93034,1007.076
13.714699269,8.320645,-2.356719,7.751145,-0.990171,-0.03384047,0.115169,26.02132,13.68402,-16.0644,1007.075
13.746978760,8.878408,8.209781,6.288568,-0.9966615,0.05863089,0.1331126,25.63391,14.04126,-16.93496,1007.075
13.781740666,-6.553033,7.094428,0.4992016,-0.9705792,-0.1690879,0.029756,25.63391,14.04126,-16.93496,1007.075
13.814019680,13.52643,3.161342,4.825992,-1.045206,-0.06294696,0.1407444,26.03265,14.05417,-15.63329,1007.075
13.848782063,1.503543,4.628911,1.657075,-1.002221,-0.07085507,0.05552155,26.3841,13.68003,-16.06992,1007.075
13.881061554,14.76591,-4.000397,1.169549,-1.001318,-0.002704269,0.1733827,26.3841,13.68003,-16.06992,1007.075
13.915822983,-13.98987,3.630964,-0.7196125,-1.003916,-0.1534306,0.1087174,26.75704,13.74163,-15.70272,1007.075
13.948102474,17.80262,-6.231103,2.022719,-1.011969,-0.01500161,0.1235416,26.03148,13.74961,-15.69169,1007.077
13.980381489,-2.152903,-4.822236,-0.414909,-0.9440959,0.1173271,0.1304324,26.03148,13.74961,-15.69169,1007.077
14.015143394,-17.89421,-4.352614,7.019857,-1.039613,-0.2196371,0.02284922,26.37212,13.6744,-16.50564,1007.079
14.047422409,-25.20711,11.84935,-1.024316,-0.9178441,0.03490949,0.06367609,26.3841,13.68003,-16.06992,1007.079
14.082184792,5.903673,-7.698672,14.21086,-1.025193,-0.1735323,0.04966942,26.3841,13.68003,-16.06992,1007.079
14.114464283,-21.30276,10.96881,8.543375,-1.051996,-0.1187582,-0.04374849,26.7577,13.37711,-15.69811,1007.08
14.146743298,10.42775,-5.996292,14.51556,-0.9635478,-0.04195518,0.1257011,26.03027,14.41788,-15.70015,1007.08
14.181505203,-32.89184,9.383837,10.79818,-1.054404,-0.05324387,0.155806,26.03027,14.41788,-15.70015,1007.08
14.213784218,-11.26303,-6.700725,8.543375,-0.9592487,-0.03385355,0.08512907,27.12219,13.37393,-15.64137,1007.08
14.248547077,-44.91473,7.505347,4.277525,-1.020339,0.02490999,0.05562167,27.14324,14.05267,-14.84063,1007.08
14.280826092,-12.56448,-6.465914,6.532331,-0.9844633,-0.02346574,0.03013048,27.14324,14.05267,-14.84063,1007.084
14.315587998,-27.56211,4.746317,3.363415,-1.008505,-0.07477395,0.04681091,27.13125,14.04704,-15.27636,1007.084
14.347867012,5.779726,2.456909,5.252577,-0.996869,-0.07216716,0.09224389,26.78046,14.05666,-14.83511,1007.084
14.380146027,1.689464,6.331292,2.93683,-1.014276,-0.08149838,0.0666061,26.78046,14.05666,-14.83511,1007.084
14.414908886,27.16064,-1.417475,6.41045,-0.9790876,-0.01148735,0.1331594,26.79366,13.39401,-14.39092,1007.086
14.447187901,5.965647,3.807072,8.299612,-1.008692,0.02218539,0.09860712,26.78112,13.69214,-14.8305,1007.086
14.481949806,-14.73356,8.444592,9.091841,-1.017415,0.0103562,0.04247977,26.78112,13.69214,-14.8305,1007.086
14.514228821,-2.586719,4.922425,9.88407,-1.004242,-0.02479402,0.0833438,26.78112,13.69214,-14.8305,1007.086
14.548991203,4.292358,5.86167,10.6763,-1.000474,0.02317838,0.09907849,27.50723,13.3804,-14.83768,1007.086
14.581270695,-7.420664,9.266431,9.274663,-1.014021,0.02261807,0.08798541,27.51987,13.02152,-14.39734,1007.086
14.613549233,2.247227,6.5074,10.12783,-1.012047,-0.0114152,0.03944378,27.51987,13.02152,-14.39734,1007.084
14.648311615,-1.781061,12.02546,7.26362,-1.001021,0.03268849,0.049823,27.88331,12.65302,-14.39824,1007.086
14.680590630,8.816435,10.02957,6.41045,-0.9691372,0.02923334,0.002841084,27.53384,11.93361,-13.94777,1007.086
14.715352535,11.04749,11.14492,5.922925,-1.013008,-0.00161982,0.07479256,27.53384,11.93361,-13.94777,1007.086
14.747631550,15.63354,12.8473,5.130695,-1.023246,0.02537088,0.05127961,27.89596,12.29414,-13.9579,1007.086
14.782394409,11.35736,14.66709,1.657075,-0.9812483,0.07552908,0.1085201,27.5345,11.56909,-13.94315,1007.082
14.814673424,20.83932,10.32308,-0.7805532,-1.007679,-0.02013477,0.03310008,27.5345,11.56909,-13.94315,1007.086
14.846952439,29.08182,9.090322,-2.182189,-0.9852453,0.0920886,0.0003325588,28.27271,11.20223,-13.51384,1007.086
14.881714344,10.24183,16.07595,-3.401004,-1.022752,0.02199296,0.05367653,27.88463,11.92399,-14.38901,1007.082
14.913993359,29.94945,9.970864,-0.1711462,-1.005815,-0.0150419,-0.03649015,27.88463,11.92399,-14.38901,1007.082
14.948756218,16.50117,9.970864,-2.304071,-1.028154,0.04802308,0.02821393,27.90927,11.57074,-13.51294,1007.082
14.981035233,8.134725,9.03162,-2.791596,-1.008262,0.01219206,0.005245705,27.8986,10.83607,-13.93943,1007.082
15.015797138,19.4759,11.67325,-3.401004,-1.000623,0.03282326,-0.05363297,27.8986,10.83607,-13.93943,1007.082
15.048076153,28.95787,9.442539,-3.340063,-1.0348,-0.01501182,-0.003070238,28.62416,10.8281,-13.95047,1007.082
15.080355644,36.08485,8.327187,-2.365011,-0.9885683,0.06106,-0.01385643,28.97429,11.18299,-14.39632,1007.082
15.115118027,22.45064,8.972918,-2.24313,-1.03722,-0.02626867,-0.03842005,28.97429,11.18299,-14.39632,1007.082
15.147397041,27.28459,6.331292,-0.9633753,-1.029635,0.01515017,-0.1034651,28.62482,10.46358,-13.94585,1007.082
15.182158947,22.0788,7.387942,-3.644766,-1.000682,0.06287761,-0.03847536,28.62416,10.8281,-13.95047,1007.082
15.214437962,22.26472,6.566103,-5.107343,-1.004921,0.00860129,-0.05762895,28.62416,10.8281,-13.95047,1007.082
15.246717453,18.98012,6.800914,-6.813683,-1.007383,0.0260027,-0.0613922,28.25072,10.09742,-14.37144,1007.08
15.281478882,19.78577,5.098533,-9.251311,-0.9949137,0.06128516,-0.08490697,28.25006,10.46194,-14.37606,1007.082
15.313758373,5.841699,6.155183,-11.87176,-1.002492,-0.003560447,-0.0784912,28.25006,10.46194,-14.37606,1007.082
15.348520756,13.65038,7.97497,-10.40918,-0.9827641,0.02443304,-0.1170496,28.26204,10.46757,-13.94033,1007.082
15.380799770,23.62814,22.65066,-4.254173,-0.849249,0.2273111,-0.05333681,28.23873,10.09179,-14.80717,1007.082
15.415561676,-42.6217,24.41175,-12.35929,-1.333556,-0.2842768,-0.09629416,28.63614,10.83373,-13.51474,1007.08
15.447841168,35.58906,0.6958252,-12.54211,-0.8335005,0.1009517,-0.08309555,28.63614,10.83373,-13.51474,1007.08
15.480120182,-23.16197,13.96265,-14.49221,-1.07359,-0.01409816,-0.1291589,28.99958,10.46523,-13.51564,1007.076
15.514882565,-6.924875,4.805019,-10.65295,-1.049791,-0.2422413,-0.07007761,29.00958,11.56441,-13.09376,1007.074
15.547161579,22.38867,3.983181,-6.143335,-0.9746636,-0.1167291,-0.08161184,29.00958,11.56441,-13.09376,1007.074
15.581923485,9.064329,6.037778,-4.010411,-1.01114,-0.0253441,-0.0732786,28.67011,11.94418,-12.22141,1007.074
15.614202976,-9.465796,10.55789,3.180593,-0.980479,-0.1197312,-0.1057883,29.02091,11.93456,-12.66265,1007.074
15.648965359,6.709331,8.444592,9.0309,-1.025577,-0.06321718,-0.09860163,29.02091,11.93456,-12.66265,1007.072
15.681244373,0.5739383,10.14697,10.55442,-1.001907,-0.06129234,-0.1218468,29.7458,12.2911,-12.67829,1007.072
15.713523865,-3.578297,10.08827,10.31066,-1.006837,-0.02993435,-0.1463132,29.02091,11.93456,-12.66265,1007.068
15.748285294,-10.02356,8.385889,9.396544,-1.009256,-0.03092223,-0.1501811,29.02091,11.93456,-12.66265,1007.068
15.780564785,-3.45435,7.857564,8.238671,-0.9977178,0.004016051,-0.1316367,29.39699,11.20717,-12.2232,1007.068
15.815327168,-6.119217,4.863722,5.435399,-1.006895,-0.008185416,-0.1544079,29.39699,11.20717,-12.2232,1007.068
15.847605705,0.3880172,1.752475,1.23049,-1.005482,0.01609542,-0.1305844,29.39699,11.20717,-12.2232,1007.068
15.882368088,-1.161324,0.05009471,-1.877486,-0.9977038,0.001630807,-0.121498,29.75977,11.20318,-12.22872,1007.07
15.914647103,-3.020534,0.519717,-3.0963,-1.000566,-0.02166994,-0.1404785,29.7707,10.8435,-11.85062,1007.07
15.946926594,-6.057244,1.811178,-1.877486,-1.01406,-0.04400212,-0.1502451,29.7707,10.8435,-11.85062,1007.07
15.981688499,3.858542,0.1675003,-1.755605,-0.9826434,-0.03370718,-0.1376849,30.13282,11.20403,-11.86075,1007.07
16.013967514,0.9457802,-0.302122,-1.207138,-0.9923038,-0.03564597,-0.1304235,29.78203,11.21365,-11.41951,1007.07
16.048729897,0.6359118,-0.302122,-0.2320869,-0.9889331,-0.0288531,-0.127975,29.78203,11.21365,-11.41951,1007.068
16.081009388,0.6359118,0.05009471,0.01167595,-0.9972041,-0.01638128,-0.1535085,29.76938,11.57253,-11.85986,1007.068
16.115770817,-5.375534,0.9306364,-0.7196125,-1.01798,-0.01930498,-0.1418778,29.76938,11.57253,-11.85986,1007.068
16.148050308,-2.834613,-0.008608066,-2.486893,-0.9943136,-0.008599004,-0.1442851,29.76938,11.57253,-11.85986,1007.068
16.180329323,-6.243165,1.576367,-2.547834,-1.016499,-0.03432227,-0.1477676,29.39699,11.20717,-12.2232,1007.068
16.215091705,7.267094,1.048042,-5.290165,-0.9972091,0.004122267,-0.1006971,29.41859,11.58216,-11.41861,1007.07
16.247371197,-1.843035,3.102639,-6.752742,-0.9962613,0.01772745,-0.08515173,29.41859,11.58216,-11.41861,1007.07
16.282132626,-9.155927,5.333344,-7.849675,-1.01845,-0.02218045,-0.1331912,29.41859,11.58216,-11.41861,1007.07
16.314412117,-9.961585,5.333344,-7.849675,-0.9986064,-0.03377737,-0.1449025,29.4066,11.57652,-11.85434,1007.07
16.346691132,-5.437507,5.215939,-8.337201,-1.003409,-0.06297433,-0.1885676,29.78005,12.3072,-11.43336,1007.07
16.381453514,0.4499909,3.865775,-8.398141,-1.007284,-0.03760488,-0.1246011,29.78005,12.3072,-11.43336,1007.068
16.413732052,-9.217901,6.977022,-7.666853,-1.003458,0.0154951,-0.02375219,29.77938,12.67171,-11.43798,1007.068
16.448494911,-30.90868,8.209781,-5.899572,-1.024245,-0.001155511,-0.06441092,29.06647,12.32081,-10.9866,1007.068
16.480773926,-25.20711,4.276694,-7.179327,-1.012664,-0.009527663,-0.1171783,29.06647,12.32081,-10.9866,1007.068
16.515535832,-18.57592,3.74837,-10.83577,-0.9947378,-0.04500478,-0.1768816,29.7895,13.71014,-11.01533,1007.068
16.547814846,-25.455,0.6371225,-12.29835,-1.008841,0.002512813,-0.1374225,29.80148,13.71577,-10.5796,1007.068
16.580093861,-30.22697,0.754528,-14.9188,-1.046866,-0.06430646,-0.1164492,29.80148,13.71577,-10.5796,1007.068
16.614856720,-17.83224,-6.407211,-20.4644,-1.028864,-0.0843215,-0.04021846,30.17491,14.44645,-10.15862,1007.068
16.647135735,-3.516324,-17.38463,-16.68608,-1.089626,0.07300197,0.02558781,29.46002,15.1891,-9.721096,1007.067
16.681897640,-49.37683,-27.77502,-7.849675,-1.039855,0.3490531,0.189969,29.46002,15.1891,-9.721096,1007.065
16.714176655,-138.8048,-29.12519,-1.694664,-1.133907,0.001887984,0.06975526,29.80949,15.9085,-10.17157,1007.061
16.748939037,-97.53036,-41.86369,-1.085257,-0.9829896,-0.04046953,0.009242754,29.09394,17.01566,-9.738659,1007.061
16.781218529,-108.5617,-41.51147,1.839897,-1.022326,-0.4169767,-0.104971,29.09394,17.01566,-9.738659,1007.061
16.813497544,44.76116,-64.40555,10.06689,-0.951217,-0.2036438,-0.04493178,29.46539,18.83989,-9.331528,1007.061
16.848259449,14.76591,-50.08208,15.79532,-0.8690296,-0.04763409,-0.2023063,29.08931,19.56727,-9.77097,1007.063
16.880538464,-16.65474,-12.68841,8.055849,-0.7910138,-0.2544129,-0.5966858,29.08931,19.56727,-9.77097,1007.061
16.915300369,-22.66619,90.8046,24.08325,-1.293283,-0.9360061,-2.383368,28.30251,20.27611,-11.94781,1007.061
16.947579384,436.4967,-70.62804,13.78428,-0.7653698,0.7239019,0.4728701,29.06269,21.01407,-10.66089,1007.061
16.982342243,-164.7098,30.51684,6.471391,-1.133495,0.01136646,0.0103453,29.06269,21.01407,-10.66089,1007.063
17.014621258,-77.76077,7.035725,3.729059,-1.066689,0.08126937,0.3040461,28.57442,18.40527,-15.35381,1007.063
17.046900272,-26.07474,10.91011,4.643169,-0.9178281,0.004189386,-0.005146916,28.97448,17.68916,-14.04291,1007.063
17.081662178,-3.268429,0.3436086,6.776094,-1.082389,-0.2553822,-0.3504765,28.97448,17.68916,-14.04291,1007.059
17.113941193,23.87603,-7.698672,9.0309,-0.9831588,0.005741909,-0.06300993,28.62368,17.69878,-13.60167,1007.059
17.148704052,-1.843035,0.226203,8.482434,-0.9821201,0.02070152,0.06663446,29.71136,18.05133,-13.62283,1007.059
17.180983067,-7.17277,4.452803,6.593272,-1.013153,0.01439476,-0.05467763,29.71136,18.05133,-13.62283,1007.06
17.215744972,-7.668559,-0.4195275,10.981,-1.011477,-0.09608423,-0.09881891,29.7107,18.41584,-13.62745,1007.06
17.248023987,15.75748,-6.231103,11.77323,-0.9836197,0.02049426,0.006690117,30.07545,17.31831,-13.61912,1007.06
17.280303478,-16.15895,0.4023114,9.701248,-1.002642,0.0881756,0.002764997,29.71202,17.68681,-13.61822,1007.06
17.315065861,-10.89119,-1.300069,8.421494,-1.008113,-0.09030017,-0.108462,29.71202,17.68681,-13.61822,1007.06
17.347344875,8.692488,-5.702778,11.10288,-0.9947665,0.01644853,-0.03536803,30.0881,16.95942,-13.17877,1007.062
17.382106781,-5.375534,-4.939641,10.73724,-1.030639,0.03600711,-0.08835777,29.35056,16.96177,-13.60347,1007.062
17.414385796,-8.722112,-11.27954,9.152781,-1.00204,0.005592988,-0.09100953,29.35056,16.96177,-13.60347,1007.06
17.449147701,-5.065665,-15.38874,12.19982,-1.031021,0.04082629,0.04896705,30.07611,16.95379,-13.6145,1007.062
17.481426716,18.60827,-12.04268,7.690205,-1.011766,0.0688659,0.02442961,30.41558,16.57402,-14.48685,1007.062
17.513706207,2.247227,-8.93143,1.108609,-1.008933,0.0788516,-0.03014829,30.41558,16.57402,-14.48685,1007.062
17.548468590,3.982489,-9.870674,-1.085257,-1.00351,0.04900083,0.01027914,30.41558,16.57402,-14.48685,1007.062
17.580747605,-0.9134296,-6.81813,-2.425952,-0.9928874,0.06020583,0.0233728,29.31593,16.21584,-14.90142,1007.064
17.615509510,1.813411,-5.350561,-6.021454,-1.024771,0.02847577,-0.03088403,29.31593,16.21584,-14.90142,1007.062
17.647789002,5.098015,-8.226996,-9.434134,-1.00437,0.007414609,0.02019675,29.66738,15.8417,-15.33805,1007.062
17.680068016,13.27854,-3.295964,-8.27626,-1.01897,0.0514565,0.03401492,29.67738,16.94088,-14.91617,1007.064
17.714830399,0.2640699,1.165447,-5.107343,-0.9578319,-0.02372785,0.07309762,29.67738,16.94088,-14.91617,1007.064
17.747109413,3.114858,-0.302122,6.227628,-1.015869,-0.06840954,-0.06819545,30.04082,16.57237,-14.91706,1007.064
17.781871319,-2.462771,-0.6543386,9.091841,-1.025832,0.08135062,0.007610557,30.04082,16.57237,-14.91706,1007.062
17.814150810,1.937359,1.400259,6.471391,-0.9734727,0.02684548,0.0158897,30.04082,16.57237,-14.91706,1007.062
17.848913193,-16.09698,1.165447,4.70411,-1.022244,-0.005269462,0.005176554,30.4036,16.56838,-14.92258,1007.059
17.881191731,-1.223298,-1.123961,6.349509,-0.9967914,0.04343325,-0.06760063,29.31593,16.21584,-14.90142,1007.059
17.913470745,-2.896587,0.9306364,4.765051,-1.003065,0.06985536,0.02344961,29.31593,16.21584,-14.90142,1007.055
17.948233128,0.01617524,2.398206,2.875889,-1.01268,0.05148921,0.0383525,29.66672,16.20621,-15.34266,1007.055
17.980512619,-1.037377,3.161342,-2.060308,-1.008436,0.08281778,-0.002570805,29.66738,15.8417,-15.33805,1007.055
18.015274525,3.238806,-0.4195275,-6.021454,-1.039871,0.05387965,-0.09017001,29.66738,15.8417,-15.33805,1007.055
18.047553539,24.37182,-2.532828,-14.18751,-1.092745,-0.06859986,-0.05932894,29.68003,15.48281,-14.8977,1007.055
18.082315922,44.01748,-7.698672,-22.04886,-1.081806,-0.01899043,-0.137871,29.68003,15.48281,-14.8977,1007.055
18.114594936,28.70998,-1.769691,-10.77483,-1.082315,0.008268716,-0.09033787,29.68003,15.48281,-14.8977,1007.055
18.146874428,54.98681,20.24385,-26.37565,-0.9139303,-0.5858958,-0.4914658,28.92984,15.84404,-15.76274,1007.055
18.181636334,180.3595,20.65477,-20.89099,-0.7996948,-0.2811727,-0.06020233,28.56706,15.84803,-15.75723,1007.055
18.213915348,197.6502,15.43022,-5.594869,-0.819727,0.09463072,0.1822467,28.52414,14.00371,-17.41481,1007.055
18.248677731,165.2999,16.25206,15.00309,-0.8760526,0.4868315,0.4388868,28.52414,14.00371,-17.41481,1007.055
18.280957222,134.8708,-18.08906,15.24685,-1.154749,1.441451,0.6276553,28.49205,11.86047,-18.69506,1007.055
18.315718651,-354.6591,15.95855,5.313517,-1.153855,-0.006980257,-0.1028398,28.47706,7.840331,-19.45349,1007.055
18.347998142,-89.96958,8.503295,-15.77197,-1.112691,-0.5401835,-0.971799,28.47706,7.840331,-19.45349,1007.055
18.380277157,-50.30643,-13.21673,-5.168284,-0.8377808,0.8721679,-0.1255948,28.53065,10.41931,-17.36942,1007.055
18.415039063,-326.647,31.04516,36.5761,-1.674338,-0.9541471,-0.7012497,28.91277,12.9782,-16.53579,1007.056
18.447318077,172.9847,2.2808,-3.705707,-0.7134675,-0.1698405,0.447372,28.91277,12.9782,-16.53579,1007.058
18.482080937,20.96327,8.503295,-1.694664,-0.817533,0.1821599,0.1624352,29.68003,15.48281,-14.8977,1007.058
18.514359951,33.54393,-9.166242,0.4382609,-0.9822317,-0.008103447,-0.1510765,29.32056,13.66422,-14.86911,1007.058
18.549121857,-17.02658,-0.3608247,4.825992,-0.9867265,0.09049179,-0.04124906,29.32056,13.66422,-14.86911,1007.06
18.581400871,-41.19631,-0.7130414,6.288568,-1.036337,-0.004623436,-0.07794086,28.9458,13.66258,-15.29932,1007.06
18.613679886,-11.32501,-5.878886,2.997771,-1.019847,0.003935369,0.006190604,28.59556,13.36844,-14.85423,1007.06
18.648442745,-23.47184,-4.000397,4.277525,-0.9803694,0.09862282,0.06804062,28.59556,13.36844,-14.85423,1007.06
18.680721760,0.01617524,-3.941694,2.144601,-1.056618,-0.01727183,-0.08038627,29.67069,14.01912,-15.31497,1007.061
18.715483666,-10.58132,-0.2434192,3.302474,-0.8997118,-0.05835404,0.0877621,29.68201,14.38927,-14.88385,1007.061
18.747762680,8.196698,2.985234,8.969959,-1.045035,0.003684938,-0.04645135,29.68201,14.38927,-14.88385,1007.065
18.780041695,-10.76724,1.048042,5.008814,-1.059602,0.03759545,-0.02350552,28.94315,15.12064,-15.31778,1007.065
18.814803601,-1.161324,-3.061152,-5.472988,-1.017796,0.1284994,-0.08060797,29.694,14.3949,-14.44813,1007.065
18.847083092,-23.28592,10.32308,-7.301208,-1.109144,-0.06358808,0.005515687,29.694,14.3949,-14.44813,1007.065
18.881845474,30.38327,0.6958252,0.8648458,-0.978847,0.03637453,-0.02368651,29.68267,14.02475,-14.87924,1007.065
18.914124489,8.816435,-1.53488,0.7429644,-1.054408,0.06348399,-0.09975284,29.30593,15.11665,-15.3233,1007.065
18.948886395,4.974068,-2.239314,-2.24313,-1.046219,0.1112667,-0.0008773003,29.30593,15.11665,-15.3233,1007.065
18.981165409,-25.33105,-1.241366,-4.86358,-0.9805553,-0.07802159,-0.07847842,29.33122,14.39889,-14.44261,1007.065
19.013444901,33.23406,-1.53488,-2.24313,-1.047093,0.06571399,-0.01902166,28.94447,14.39161,-15.30855,1007.061
19.048207283,9.993934,-0.1847164,-3.827589,-1.051137,-0.09916995,-0.1190554,28.94447,14.39161,-15.30855,1007.061
19.080486298,22.26472,-4.587425,-3.218181,-1.007289,-0.008302172,-0.04563398,29.33188,14.03437,-14.438,1007.061
19.115248203,6.585383,-0.1260136,-2.852537,-1.010379,-0.1825254,-0.1892324,28.96911,14.03836,-14.43248,1007.063
19.147527218,23.50419,-6.642022,3.79,-0.8893058,0.06092755,0.1488477,28.58291,13.72732,-15.29457,1007.061
19.182290077,31.93261,-4.939641,12.56546,-1.002882,0.2611487,0.208727,28.58291,13.72732,-15.29457,1007.061
19.214568615,-39.27512,6.742211,6.532331,-1.103287,0.1110626,-0.01284143,28.22079,13.36679,-15.28444,1007.061
19.246847630,-35.74263,5.509453,2.814948,-1.035395,-0.2592759,-0.2539122,28.21184,12.63293,-15.64869,1007.065
19.281610012,19.84775,2.926531,2.693067,-1.110774,-0.05798094,-0.195076,28.21184,12.63293,-15.64869,1007.065
19.313889504,26.23103,1.576367,-0.5977311,-1.090269,0.105567,-0.0747809,28.9458,13.66258,-15.29932,1007.065
19.348650932,10.92354,0.6371225,-0.5977311,-1.075542,0.249656,0.0202772,29.29846,12.62016,-15.72748,1007.065
19.380930424,-34.19328,-1.828394,2.266482,-0.9547386,0.1187436,0.1290131,29.29846,12.62016,-15.72748,1007.065
19.415692806,-51.35999,-1.182664,8.299612,-0.9734131,0.01145478,0.0438415,28.22344,11.90873,-15.26598,1007.067
19.447971821,-26.50855,-4.235209,8.299612,-1.040765,0.04342702,-0.03221487,29.33574,11.90803,-14.41107,1007.067
19.480251312,-21.67461,-2.532828,6.715154,-1.084887,0.083369,-0.06089899,29.33574,11.90803,-14.41107,1007.068
19.515012741,-5.561454,-0.2434192,1.778956,-0.9886324,0.1018427,0.02553413,28.62085,12.65067,-13.97354,1007.068
19.547292233,-17.2125,6.448697,-1.268079,-1.011227,0.03000394,-0.01978544,28.98495,11.91766,-13.96983,1007.068
19.582054615,-1.781061,10.734,2.997771,-1.095949,0.0752726,-0.01306075,28.98495,11.91766,-13.96983,1007.068
19.614333630,11.29538,4.628911,0.8648458,-0.9656354,0.1889867,0.01727817,29.3717,11.92494,-13.10389,1007.068
19.649095535,-23.78171,16.07595,2.205541,-1.100643,-0.02286499,-0.1228658,29.02091,11.93456,-12.66265,1007.07
19.681375027,13.15459,15.13671,5.435399,-0.9086784,0.003571197,-0.05254714,29.02091,11.93456,-12.66265,1007.07
19.713654041,32.30445,10.38178,14.33274,-1.096468,0.06877375,-0.07400987,29.76872,11.93705,-11.86447,1007.07
19.748415947,6.709331,11.61454,14.63745,-0.9470063,0.08893809,0.03794045,30.14414,11.57418,-11.42964,1007.07
19.780694962,-1.59514,-5.937589,17.31884,-0.9891215,0.1159899,0.05945634,30.14414,11.57418,-11.42964,1007.07
19.815457344,-29.66921,-0.5369331,16.34378,-0.996077,-0.04552468,-0.0434526,30.50824,10.84116,-11.42593,1007.07
19.847736836,-14.36171,1.869881,18.84235,-1.182701,0.1758526,0.03797574,30.89631,10.11941,-10.55076,1007.068
19.882498265,-19.44356,2.398206,15.24685,-1.113078,0.3733943,0.008975694,30.89631,10.11941,-10.55076,1007.07
19.914777756,-92.32458,15.54763,10.31066,-0.9687292,0.1505529,-0.3261752,31.62319,9.382397,-10.55256,1007.07
19.947056771,-45.53447,27.28818,8.543375,-0.9268249,-0.1802532,-0.3034911,31.64716,9.393665,-9.681104,1007.07
19.981819153,41.97234,7.857564,11.89511,-0.9666951,-0.1460439,0.1149639,31.64716,9.393665,-9.681104,1007.068
20.014098644,68.93089,20.41996,12.44358,-0.8397433,0.002937457,0.2736218,32.40735,10.13163,-8.394186,1007.07
20.048860550,10.98551,1.458961,1.535194,-1.210685,-0.2382717,0.09514432,32.06881,9.05253,-7.565616,1007.068
20.081139565,5.098015,26.52505,-29.48363,-1.031847,-0.1218062,-0.24637,32.43225,8.684027,-7.566516,1007.068
20.113418579,-9.341848,0.9306364,7.873027,-1.06716,0.4115188,-0.4898152,32.43225,8.684027,-7.566516,1007.07
20.148180485,57.71365,30.86905,-10.95765,-0.8431807,0.4433491,-0.2827218,32.83099,8.69694,-6.264851,1007.068
20.180459499,59.20102,19.48071,13.35769,-0.9405235,-0.08370674,-0.2192777,32.81966,8.32679,-6.695961,1007.067
20.215222359,55.66853,11.96676,21.95033,-0.828229,0.1432849,-0.0190523,32.81966,8.32679,-6.695961,1007.067
20.247501373,10.36578,-2.59153,26.7037,-0.8076114,0.2237387,-0.0002686069,32.49416,7.618651,-5.374034,1007.067
20.282263279,-10.20948,-13.45154,19.69552,-0.8102394,0.2883423,-0.06951079,32.84694,6.515481,-5.801429,1007.067
20.314542294,-21.42671,-14.15598,5.861984,-0.895205,0.2070651,-0.1340872,32.84694,6.515481,-5.801429,1007.067
20.346821308,-33.01579,-13.97987,-1.207138,-0.9654269,0.03445366,-0.1735924,33.57381,5.778472,-5.803228,1007.067
20.381584168,-17.4604,-9.811972,-2.121249,-1.075684,0.02628259,-0.2067585,33.18707,5.771193,-6.669166,1007.067
20.413863182,-1.59514,-13.62765,-2.486893,-1.044798,0.07058711,-0.1538783,33.18707,5.771193,-6.669166,1007.067
20.448625088,6.957225,-2.415422,-4.80264,-1.095731,0.1323291,-0.1698544,33.18773,5.406676,-6.66455,1007.067
20.480904102,8.940382,-0.4195275,-7.727794,-1.036219,0.1218953,-0.1574726,32.44887,6.138049,-7.098477,1007.067
20.515666008,10.3038,2.926531,-7.605912,-0.9545243,0.1449948,-0.1217428,32.44887,6.138049,-7.098477,1007.068
20.547945023,2.495122,6.272589,-5.290165,-0.9293476,0.1388477,-0.1005607,33.16244,6.124438,-7.545236,1007.068
20.580224514,-4.198034,4.628911,-1.450901,-0.9259639,0.1266363,-0.1368954,32.08675,5.777523,-7.088346,1007.07
20.614986897,-3.578297,3.689667,0.8039051,-0.9863116,0.08776559,-0.1321519,32.08675,5.777523,-7.088346,1007.07
20.647265911,0.8218329,-0.008608066,0.6820237,-0.9708703,0.0998933,-0.1364672,32.44755,6.867081,-7.107709,1007.07
20.682027817,-0.1697457,-1.9458,-1.694664,-0.9960392,0.1134025,-0.1271508,33.1864,6.135708,-6.673782,1007.068
20.714306832,-1.905008,-3.472072,-5.472988,-1.041467,0.102139,-0.1280838,33.1864,6.135708,-6.673782,1007.064
20.749069691,-2.27685,-2.121908,-7.605912,-1.042006,0.1302513,-0.1143865,32.82297,6.504212,-6.672882,1007.064
20.781348705,-2.152903,-2.532828,-7.179327,-1.005686,0.1080992,-0.1131404,32.81231,5.769546,-7.099378,1007.064
20.813627720,3.052885,-2.180611,-5.655809,-0.9592967,0.1242294,-0.1049303,32.81231,5.769546,-7.099378,1007.064
20.848389626,5.717752,-2.415422,-4.619818,-0.9549224,0.1179819,-0.09578987,32.81098,6.498577,-7.108609,1007.063
20.880669117,8.56854,-4.822236,-2.791596,-0.9442722,0.1126874,-0.09632637,32.4482,6.502565,-7.103094,1007.068
20.915430546,5.036042,-7.87478,1.900838,-0.9577816,0.1069087,-0.07650912,32.4482,6.502565,-7.103094,1007.068
20.947710037,8.072751,-13.45154,0.01167595,-0.979043,0.1059308,-0.06148225,32.08609,6.142038,-7.092962,1007.064
20.982472420,7.638936,-12.04268,-4.436996,-1.007025,0.0689738,-0.09063841,32.78569,7.21634,-7.989295,1007.064
21.014751434,14.64196,-12.74711,-2.365011,-1.018689,0.08042715,-0.1282564,32.40198,6.480832,-8.783754,1007.063
21.047030926,27.53248,-11.45565,-1.511842,-1.022738,0.1622508,-0.1127958,32.40198,6.480832,-8.783754,1007.063
21.081792355,16.06735,-13.39284,-4.497936,-1.120658,0.08135885,-0.05261486,31.66311,7.212207,-9.217682,1007.063
21.114071846,2.371174,-12.10138,-3.705707,-1.103106,0.009195146,-0.08496998,32.00191,7.19695,-10.09465,1007.063
21.148834229,11.85314,-8.403105,-2.974419,-1.09694,0.04829503,-0.1190851,32.00191,7.19695,-10.09465,1007.063
21.181113243,13.71235,-6.289805,-1.32902,-1.01051,0.08907618,-0.1533636,30.88962,7.197645,-10.94956,1007.064
21.213392735,7.081172,-1.828394,-1.450901,-1.0187,0.08037964,-0.1422763,30.52684,7.201633,-10.94404,1007.063
21.248154640,1.441569,-1.9458,0.5601423,-0.9626538,0.1013669,-0.13696,30.52684,7.201633,-10.94404,1007.063
21.280433655,-1.966982,-4.293911,2.144601,-0.9694761,0.1426666,-0.08208186,30.16473,6.841106,-10.93391,1007.058
21.315195561,-2.27685,-8.93143,5.374458,-0.9878381,0.148531,-0.04961855,30.8783,6.827495,-11.38067,1007.058
21.347474575,3.858542,-12.10138,5.374458,-0.9661202,0.1738312,-0.02776676,30.8783,6.827495,-11.38067,1007.058
21.382236958,14.64196,-11.86657,9.82313,-1.030034,0.2255814,0.01762503,30.14076,6.829838,-11.80536,1007.058
21.414516449,11.7292,-10.04678,8.360553,-1.07463,0.2758188,0.02864245,30.84537,6.082364,-12.61637,1007.058
21.446795464,-28.42974,9.266431,7.141738,-1.035735,0.3578809,-0.06476189,30.84537,6.082364,-12.61637,1007.058
21.481557369,-86.31313,19.83293,19.26894,-1.103265,0.2249688,-0.2442444,30.49524,5.727471,-12.17051,1007.058
21.513836384,-77.32695,13.55173,34.626,-1.109405,0.1356409,-0.3235396,30.1534,6.470957,-11.36502,1007.057
21.548598766,-31.65237,10.26438,54.91925,-1.134562,0.3636777,-0.2699774,30.1534,6.470957,-11.36502,1007.057
21.580878258,-110.235,6.331292,58.69757,-1.213578,0.5180297,-0.0658852,31.62782,6.830787,-10.52025,1007.057
21.615640164,-110.7927,26.40764,60.8305,-1.130635,0.322396,-0.3171141,32.39131,5.746166,-9.210249,1007.055
21.647919178,-147.2952,32.16051,59.36792,-1.194527,0.1113772,-0.4143806,32.39131,5.746166,-9.210249,1007.055
21.680198193,-7.606585,32.74754,66.37611,-1.055095,0.02794266,-0.4485127,33.55183,4.673656,-6.660834,1007.055
21.714960098,-3.330403,35.44787,68.32621,-1.00582,0.3557425,-0.1499237,35.05352,3.222178,-4.921525,1007.053
21.747239113,1.069728,42.3748,71.0076,-0.9629238,0.3494229,-0.3376263,35.05352,3.222178,-4.921525,1007.053
21.782001972,-25.95079,45.60345,76.37038,-0.9659564,0.4368314,-0.2457529,36.18902,1.773077,-3.301194,1007.051
21.814280987,-23.47184,59.69212,86.24277,-0.9456123,0.5596439,-0.4365402,37.37549,-0.3817115,0.133522,1007.051
21.849042893,-26.19868,57.81363,93.12907,-1.012072,0.7110316,-0.2610148,37.37549,-0.3817115,0.133522,1007.051
21.881321907,-87.18076,78.18349,87.15689,-0.9457426,0.5796282,-0.5369815,37.4407,-3.269665,2.349083,1007.051
21.913600922,-65.9238,82.35139,84.65832,-0.8408953,0.182394,-0.6061806,37.87766,-5.427746,4.923378,1007.051
21.948363781,63.53918,86.04967,94.6526,-0.7555209,0.2863305,-0.5670986,37.97899,-9.332395,8.396951,1007.05
21.980642796,70.35629,96.20525,88.92417,-0.7323846,0.6178502,-0.2911537,37.97899,-9.332395,8.396951,1007.05
22.015404701,-18.94777,115.225,67.1074,-0.8286063,0.4065333,-0.3061676,36.27258,-9.991577,12.29305,1007.05
22.047683716,9.746039,108.3567,55.10207,-0.7998512,0.288804,-0.3707129,35.31769,-11.74102,17.06343,1007.046
22.082446098,29.01985,94.85509,41.57323,-0.7679507,0.5497416,-0.2242663,35.31769,-11.74102,17.06343,1007.046
22.114724636,-4.81777,81.52956,25.24113,-0.6245458,0.6304089,-0.2463549,32.51295,-13.48742,20.5542,1007.044
22.147004128,-8.474216,78.4183,23.90043,-0.5766205,0.5814152,-0.3216698,29.69159,-12.68784,23.57693,1007.044
22.181766510,2.990911,63.5078,24.26608,-0.4689309,0.6510186,-0.2939501,29.69159,-12.68784,23.57693,1007.044
22.214045525,-2.95856,69.14327,25.11925,-0.4367971,0.7790273,-0.246398,27.17612,-12.64865,24.48699,1007.041
22.248807430,-26.69447,65.6798,17.50166,-0.5665513,0.6294695,-0.2870941,23.23313,-13.31207,26.23756,1007.039
22.281086922,3.238806,47.07102,16.46567,-0.3660483,0.7432048,-0.1669867,23.23313,-13.31207,26.23756,1007.038
22.313365936,-21.11684,52.00206,10.12783,-0.4184618,0.7886896,-0.266687,21.05713,-13.65266,26.27527,1007.036
22.348128319,-54.08683,45.83826,0.1944981,-0.3851698,1.038147,-0.2247315,18.9416,-13.99391,26.31206,1007.034
22.380407333,-135.3963,24.29434,4.825992,-0.2987259,1.050641,-0.3239517,18.9416,-13.99391,26.31206,1007.034
22.415169239,-101.3727,8.033673,25.54583,-0.129372,0.8019297,-0.3170289,17.10744,-15.07798,25.54428,1007.033
22.447448731,40.98077,37.73728,42.79205,-0.1728788,0.7099864,-0.5654619,15.98844,-17.99904,24.29057,1007.033
22.482210159,49.47116,38.61782,43.27958,-0.278572,0.8389988,-0.5335605,15.98844,-17.99904,24.29057,1007.033
22.514489651,48.35563,35.33047,35.11352,-0.1486194,0.9019071,-0.5010925,15.27884,-20.17252,24.76502,1007.031
22.546768665,-18.26606,39.38096,27.55687,-0.2363712,0.8103471,-0.4559808,13.12615,-20.13733,25.66957,1007.031
22.581531048,-10.76724,40.2615,21.76751,-0.02067317,0.5712259,-0.5143676,13.12615,-20.13733,25.66957,1007.031
22.613810539,1.317622,40.67242,16.16096,-0.4176477,0.5911719,-0.4331478,12.0581,-19.02135,26.48147,1007.031
22.648572445,34.90735,9.618648,0.9867272,-0.2095395,0.7542293,-0.3306637,10.59699,-20.10458,26.08166,1007.029
22.680851460,-25.76487,19.48071,1.047668,-0.1104505,0.9854496,-0.2995893,10.59699,-20.10458,26.08166,1007.025
22.715613842,-72.18314,14.08006,6.715154,-0.2983258,1.132882,-0.189089,8.433635,-20.80404,26.55971,1007.025
22.747892857,-138.371,4.452803,8.299612,-0.0624444,1.130256,-0.3066044,6.960268,-20.79855,25.77256,1007.023
22.780172348,-96.78668,17.42612,19.14706,-0.1554679,0.9689975,-0.4040086,6.960268,-20.79855,25.77256,1007.023
22.814934254,-61.83354,3.102639,24.50984,-0.0993892,0.8552927,-0.1606394,6.154787,-23.01711,22.7612,1007.023
22.847213268,-7.85448,8.503295,33.04154,-0.06830478,1.033291,-0.06929129,6.09988,-24.86706,20.66789,1007.023
22.881975174,0.3880172,25.5858,40.90289,-0.1028455,0.8877276,-0.1541628,4.639433,-26.3148,20.27269,1007.023
22.914254189,56.35023,17.54352,38.40432,-0.01969921,1.031978,-0.3551158,4.639433,-26.3148,20.27269,1007.023
22.949016571,55.79247,9.442539,26.15524,-0.01891262,0.9056923,-0.3505177,3.563749,-26.66172,20.72958,1007.025
22.981296062,52.75576,7.798862,25.36301,-0.02017736,1.002679,-0.4326315,1.759866,-25.54259,21.17904,1007.021
23.013575077,89.50614,7.681456,30.54297,-0.01469555,0.9559677,-0.3695785,1.759866,-25.54259,21.17904,1007.019
23.048336983,79.9622,-6.700725,30.60391,-0.09152497,0.9579278,-0.2973694,2.167549,-24.79582,22.84495,1007.019
23.080615997,-32.21013,-11.63176,26.45994,-0.126406,1.039652,-0.1421291,1.497291,-22.20806,25.0023,1007.019
23.115378380,-164.9577,-23.37231,-6.204276,0.03603252,0.9520203,-0.4349745,1.497291,-22.20806,25.0023,1007.019
23.147656918,-111.7843,-8.696619,-10.10448,-0.06162835,0.9371446,-0.4580536,1.086573,-22.2266,23.26491,1007.019
23.182419777,-73.05077,4.981128,1.535194,0.04867404,1.123331,-0.4451468,1.746558,-24.8192,20.73408,1007.019
23.214698792,-78.81432,-8.990133,6.288568,0.1061226,1.003431,-0.3173576,1.746558,-24.8192,20.73408,1007.021
23.246977806,-23.40987,-12.98192,-0.4758497,0.01039098,0.8219517,-0.2388992,2.405219,-26.68275,18.19401,1007.021
23.281739712,-21.98447,1.165447,-2.669715,0.2605369,0.7695457,-0.2068625,2.385108,-28.82037,17.34949,1007.021
23.314018726,-15.22935,9.67735,8.360553,-0.007431204,1.007834,-0.2073473,2.385108,-28.82037,17.34949,1007.021
23.348781586,-9.837638,2.926531,5.191636,0.09948402,0.9971137,-0.1766986,2.011668,-29.55104,16.9285,1007.023
23.381060600,-8.970006,2.456909,-2.547834,0.1814708,0.8865506,-0.1707358,1.999022,-29.19216,16.48816,1007.023
23.413339615,23.07038,0.1675003,-9.921659,0.05805296,0.9751534,-0.05297383,1.999022,-29.19216,16.48816,1007.023
23.448101521,-59.41656,17.0152,-16.8689,0.03815276,0.9967769,-0.08133087,2.011668,-29.55104,16.9285,1007.025
23.480381012,-73.60854,16.19336,-16.07667,0.03242016,0.9042029,-0.2621675,2.338489,-29.57193,15.61581,1007.025
23.515142441,-2.710666,7.329239,-6.265217,0.01456232,1.084562,-0.2896264,2.338489,-29.57193,15.61581,1007.025
23.547421932,15.75748,3.689667,3.546237,-0.02058921,1.07823,-0.129085,1.94213,-29.94856,14.38101,1007.023
23.582184315,17.86459,4.276694,6.288568,-0.07477377,1.094576,-0.1148556,1.96505,-30.30261,15.19483,1007.023
23.614463329,23.07038,0.1087975,9.579367,0.01554968,0.9302761,-0.1222691,1.96505,-30.30261,15.19483,1007.025
23.646742821,24.30985,1.048042,7.873027,0.07380407,0.8478279,-0.08225463,2.327827,-30.3066,15.18932,1007.025
23.681504250,26.29301,0.8719336,4.70411,0.0784732,0.8950422,-0.1482273,1.989021,-30.29134,16.06628,1007.023
23.713783741,17.6167,2.809125,-0.5367904,0.07425273,1.039196,-0.1609349,1.989021,-30.29134,16.06628,1007.023
23.748546124,6.02762,1.282853,-1.633723,0.02128673,1.119578,-0.2439986,2.36246,-29.56067,16.48726,1007.023
23.780825138,17.80262,-3.882992,-0.7805532,-0.007571158,1.062962,-0.2186361,2.010345,-28.82201,16.91927,1007.023
23.815587044,13.15459,-1.9458,1.961779,0.006817532,0.9179171,-0.1919358,1.296777,-28.8084,17.36603,1007.025
23.847866535,1.069728,1.869881,1.23049,0.01655641,0.8991682,-0.1635405,1.296777,-28.8084,17.36603,1007.023
23.880145550,-13.24619,3.33745,1.900838,0.08501434,0.9639947,-0.2271333,1.659002,-28.50863,17.35667,1007.023
23.914907456,-25.02118,3.33745,3.302474,0.05262805,0.97079,-0.1936676,1.6722,-29.17127,17.80086,1007.021
23.947186470,-66.8534,-5.291858,-1.694664,0.2322454,0.7977674,-0.4232216,1.6722,-29.17127,17.80086,1007.021
23.981948853,-42.18789,7.270536,-5.655809,0.03367404,1.020673,-0.1662706,2.349152,-28.83727,16.0423,1007.021
24.014228344,-28.86355,2.809125,-4.315114,0.01887467,0.9701088,-0.08047409,1.963727,-29.57358,15.1856,1007.021
24.048989773,-14.29974,0.8132309,-3.401004,0.04681696,1.004945,-0.1059585,1.963727,-29.57358,15.1856,1007.021
24.081269264,-14.91948,0.4023114,-3.644766,0.02800065,0.9918709,-0.09245599,1.580014,-30.30909,14.39114,1007.021
24.113548279,-13.06027,0.1675003,-0.8414939,0.04358527,0.9513274,-0.07434943,1.943453,-30.67759,14.39024,1007.021
24.148310661,-25.39303,1.341556,-0.7805532,-0.0001044245,1.017933,-0.08934659,1.943453,-30.67759,14.39024,1007.023
24.180589199,-33.07776,-0.1260136,0.8039051,0.0304291,0.992411,-0.07795499,1.943453,-30.67759,14.39024,1007.023
24.215352058,-51.48394,-4.176506,-4.254173,-0.002091223,1.054359,-0.04852634,1.90882,-31.42353,13.09229,1007.023
24.247631073,-47.76551,-20.20236,-12.48117,-0.02777536,1.039393,-0.1592636,1.90882,-31.42353,13.09229,1007.025
24.282392979,56.59813,-11.63176,-7.057446,0.03702359,1.079665,-0.03976486,2.223655,-31.45005,11.34387,1007.025
24.314671993,-119.1592,-1.182664,-14.00469,0.107839,1.23954,0.0963544,1.874187,-32.16946,11.79434,1007.025
24.346951008,-156.2814,4.805019,-12.54211,-0.1133342,0.583922,-0.2593235,1.874187,-32.16946,11.79434,1007.025
24.381713867,-94.36971,-2.415422,-7.118387,-0.02799694,1.276946,0.2539774,2.517556,-32.21608,8.79547,1007.025
24.413992882,-154.5461,14.13876,-2.121249,-0.01619884,1.336861,0.07397001,2.812779,-33.71113,6.256304,1007.025
24.448754788,-210.6323,22.00493,0.07261666,-0.05056649,1.040085,0.3503339,2.812779,-33.71113,6.256304,1007.025
24.481033802,-167.8705,7.622753,-10.89671,-0.0894502,0.5496407,0.4578531,3.420853,-34.13916,1.954867,1007.025
24.515795708,-61.95749,3.983181,-17.78301,-0.05972878,0.2579916,0.4788524,3.610311,-34.95428,-4.390578,1007.021
24.548074722,65.08852,-14.21468,-3.827589,0.001331172,0.5923846,0.4279273,3.610311,-34.95428,-4.390578,1007.023
24.615116596,23.99998,0.1087975,5.435399,-0.03924736,1.0209,0.5343906,3.93647,-34.61066,-5.707891,1007.023
24.647395611,18.23643,-4.176506,-1.024316,-0.07902171,0.861993,0.5147187,3.93647,-34.61066,-5.707891,1007.023
24.682157517,71.16194,-14.86041,0.3163795,-0.08275513,0.9040309,0.2133,3.961102,-34.96391,-4.831821,1007.022
24.714436531,129.1693,-21.08291,-3.340063,-0.2286391,0.7898729,0.06503305,3.996668,-35.67684,-3.577655,1007.022
24.746716023,237.4992,-60.23765,-14.79692,-0.1194531,1.431761,0.03363987,3.996668,-35.67684,-3.577655,1007.02
24.781478405,73.64088,0.4023114,-15.5282,-0.02913453,1.444781,-0.05640036,3.726078,-34.53503,-0.1624196,1007.018
24.813756943,75.99589,21.82882,-2.182189,0.3044623,1.308701,-0.5103917,4.604677,-34.83589,5.37112,1007.018
24.848519325,95.64153,76.65723,21.58468,-0.02657659,0.9000605,-0.8639451,4.653941,-35.54238,7.12326,1007.017
24.880798340,154.1447,68.96716,32.06649,-0.1344373,0.9880772,-0.6466317,4.653941,-35.54238,7.12326,1007.015
24.915560246,144.3528,75.65928,20.06117,-0.1837679,0.8657786,-0.4224217,4.734804,-34.77471,10.10187,1007.013
24.947839737,86.84128,108.0632,-7.118387,-0.2040898,0.4582107,-0.4362979,3.014428,-34.34599,13.5484,1007.013
24.980118752,146.5219,78.3596,-20.76911,-0.2911157,0.2987538,-0.2924688,3.014428,-34.34599,13.5484,1007.013
25.014881134,184.5737,56.93309,-32.46972,-0.1122775,0.6693241,0.09407002,2.370398,-33.93485,16.54265,1007.013
25.047160625,72.46339,48.89081,-42.95152,-0.1151175,0.7482455,0.3947403,2.473246,-32.06237,20.37887,1007.013
25.081922054,-9.837638,31.867,-58.1867,-0.09510058,0.4847727,0.4560461,2.473246,-32.06237,20.37887,1007.015
25.114201546,-174.5017,39.79188,-105.8423,-0.182078,0.5707813,0.7772425,2.518541,-30.58177,22.10331,1007.015
25.148963451,-1316.428,78.59441,-153.6808,1.616873,0.1710885,0.9775211,3.149263,-30.2695,18.6641,1007.015
25.181242466,100.1656,-2.59153,26.45994,-0.0829439,2.723655,0.5214449,3.149263,-30.2695,18.6641,1007.017
25.213521481,217.6057,-7.698672,53.09103,-0.04200316,0.6022634,0.09498758,4.207267,-35.57784,4.078687,1007.018
25.248283863,171.4353,-14.5669,-6.691802,-0.132167,0.8194649,-0.1380509,4.338717,-36.24569,8.818667,1007.012
25.280563355,64.40681,-5.878886,-14.67503,-0.1013667,1.036357,-0.279015,4.338717,-36.24569,8.818667,1007.014
25.315325260,54.80089,-1.53488,0.9867272,-0.01254322,0.9138741,-0.2262412,3.377866,-34.71449,13.5475,1007.014
25.347604275,21.02525,5.568156,7.26362,-0.03802498,0.8479473,-0.2381636,3.399852,-33.60967,14.4051,1007.014
25.382366657,9.064329,8.796809,15.00309,-0.09999967,1.088791,-0.2298925,3.399852,-33.60967,14.4051,1007.014
25.414646149,-4.631849,7.035725,16.2219,-0.1308186,1.018376,-0.2766366,3.80952,-33.95644,16.08487,1007.014
25.446924687,-9.527769,7.270536,12.26076,-0.0734072,1.05465,-0.3311827,4.170312,-32.86688,16.0655,1007.014
25.481687069,-3.764218,5.039831,3.972822,-0.0220455,1.021517,-0.2986079,4.170312,-32.86688,16.0655,1007.016
25.513966084,-5.561454,1.693772,-3.157241,-0.009678717,0.91373,-0.271208,2.332457,-32.85821,15.22163,1007.016
25.548727989,-18.45198,1.869881,-5.655809,-0.02081321,0.9195087,-0.2701842,2.345766,-33.58161,15.66658,1007.016
25.581007004,-28.42974,1.869881,-3.705707,-0.02236384,0.9796852,-0.2185942,2.345766,-33.58161,15.66658,1007.014
25.615769386,-32.64394,-0.1847164,-3.340063,-0.04405655,0.9662173,-0.1760814,2.345766,-33.58161,15.66658,1007.016
25.648048878,-27.25224,-1.769691,-2.425952,-0.06053279,0.9880126,-0.1565845,2.311522,-33.59771,14.42165,1007.018
25.680327892,-1.966982,-1.476178,2.08366,-0.07942042,1.005429,-0.1419416,2.311522,-33.59771,14.42165,1007.018
25.715089798,5.903673,-2.532828,1.291431,-0.05429267,0.9912609,-0.2029896,2.301521,-34.69689,13.99977,1007.018
25.747368813,1.007754,-1.358772,1.778956,-0.04539591,0.9085224,-0.2068632,3.027075,-34.70486,13.98874,1007.019
25.782130718,5.717752,1.048042,5.435399,-0.03479,0.9216139,-0.208262,2.651651,-34.342,13.55392,1007.018
25.814410210,-3.888165,1.458961,5.435399,-0.05136682,0.9874616,-0.1841634,2.651651,-34.342,13.55392,1007.018
25.846689224,-16.035,3.983181,11.04194,-0.02579938,1.024423,-0.1516179,3.013766,-33.98147,13.54378,1007.018
25.881451607,-33.57355,-0.8891498,20.18305,-0.2010678,1.139294,-0.09257436,2.288874,-34.33801,13.55943,1007.021
25.913730622,-47.39367,2.809125,37.24644,-0.1908924,1.112534,-0.143993,2.288874,-34.33801,13.55943,1007.021
25.948492527,-114.0154,4.981128,52.23786,-0.3641555,1.199851,-0.07785884,2.265565,-34.71379,12.69259,1007.021
25.980772018,-152.501,1.106745,32.67589,0.0190398,1.032318,-0.2875159,1.119682,-35.09371,10.59737,1007.019
26.015534401,8.258672,-25.83783,4.460348,0.4276722,0.7478122,-0.4785554,1.119682,-35.09371,10.59737,1007.019
26.047812939,41.8484,9.266431,-0.1102055,0.1956764,0.9616253,0.2657222,-0.8096979,-36.58737,6.348386,1007.015
26.080091953,13.03064,-5.761481,-5.899572,0.1804849,0.8571967,0.3077038,-0.7730803,-36.93498,7.660183,1007.019
26.114854336,124.5213,-16.62149,-7.301208,0.0009582548,0.6504575,0.1430295,-0.7730803,-36.93498,7.660183,1007.019
26.147133827,177.7566,-23.72453,-18.87994,0.09637998,1.259122,-0.2559364,-0.7508219,-36.92452,8.46939,1007.019
26.181895733,63.04339,-6.289805,-8.824726,0.00646551,1.021523,-0.3209075,0.1035352,-36.14229,13.17987,1007.019
26.214174748,35.58906,2.104692,-6.630861,-0.02809325,0.9428328,-0.2357118,0.1035352,-36.14229,13.17987,1007.019
26.248937130,31.93261,-1.241366,1.047668,0.006067161,1.010146,-0.2503892,0.8757071,-35.3987,14.90252,1007.021
26.281216145,21.58301,-5.233156,-7.240268,0.04229312,0.9866282,-0.3666264,0.5684986,-33.90928,17.00596,1007.023
26.313494682,-47.45565,-1.53488,-13.8828,0.04004786,0.9511743,-0.2594997,0.5684986,-33.90928,17.00596,1007.023
26.348257542,-67.78301,-1.065258,-12.90775,-0.01454597,0.9209145,-0.2890439,1.3167,-33.17695,17.85715,1007.025
26.380536556,-80.17774,8.092376,-12.96869,-0.004438925,0.953488,-0.253106,1.585968,-33.58973,14.43268,1007.025
26.415298462,-49.81065,-3.530775,-11.01859,0.1458398,1.114748,0.08202665,1.585968,-33.58973,14.43268,1007.025
26.447577477,-43.55131,-1.182664,-16.68608,-0.01978219,0.9598472,-0.07706505,1.540673,-35.07033,12.70824,1007.025
26.482339859,-27.12829,-1.182664,-12.48117,-0.05315661,0.9518926,-0.1113625,1.505378,-35.45175,11.40567,1007.025
26.514619351,-30.10303,-0.7717441,-11.38424,-0.06095842,0.976523,-0.1194241,1.505378,-35.45175,11.40567,1007.02
26.546898365,-30.47487,-3.824289,-11.50612,-0.05035902,1.014998,-0.05589769,2.560127,-35.84433,10.14881,1007.02
26.581660271,-46.64999,-5.233156,-13.21246,-0.09538804,1.033682,-0.07358164,2.526155,-36.95478,8.855476,1007.02
26.613939285,-52.66143,-7.581266,-9.434134,-0.07741115,1.01894,-0.0123075,2.526155,-36.95478,8.855476,1007.02
26.648701191,-18.14211,3.689667,-5.533928,-0.06001024,1.000392,-0.07384717,3.215092,-36.61515,7.532649,1007.019
26.680980206,-64.06459,11.37973,-10.95765,-0.003195229,0.9477953,0.0654451,3.556933,-37.35863,6.727159,1007.02
26.715743065,-41.32026,8.620701,-12.66399,-0.1007216,0.7189981,0.1769956,3.871769,-37.38515,4.978735,1007.02
26.748022080,77.91707,6.389995,-0.9633753,-0.03715672,0.8353709,0.19154,3.871769,-37.38515,4.978735,1007.02
26.780301094,72.64931,29.10797,30.42109,-0.01109091,1.09958,0.3085279,4.223222,-37.7593,4.542109,1007.019
26.815063000,95.14574,24.82267,28.89757,-0.08634386,1.023342,-0.2767042,3.206141,-37.34901,7.168401,1007.019
26.847342015,43.14985,5.685561,11.83417,-0.03844751,1.253211,-0.1725279,3.206141,-37.34901,7.168401,1007.019
26.882103920,-20.06329,1.517664,1.23049,-0.0194486,1.022754,-0.07815839,2.524832,-36.22575,8.846245,1007.019
26.914383412,-31.65237,3.33745,-2.182189,0.007747065,0.9778706,-0.06541937,2.162717,-36.58628,8.856376,1007.019
26.946662426,-31.40447,2.104692,-3.888529,-0.01302223,0.9852372,-0.01602197,2.162717,-36.58628,8.856376,1007.019
26.981424808,-39.46104,0.1087975,-5.168284,-0.04588958,1.002792,0.05134666,1.763984,-36.59919,7.554711,1007.019
27.013704300,-45.28657,-4.0591,-5.960513,-0.0647805,1.023127,0.07035711,2.466618,-36.25312,6.729857,1007.019
27.048465729,-37.78776,-9.577161,-6.935565,-0.07197937,0.9974321,0.06249151,2.466618,-36.25312,6.729857,1007.02
27.080745220,-14.48566,-14.09727,-4.558877,-0.0466768,0.9336549,0.07077624,2.081855,-37.35394,5.877768,1007.02
27.115507603,-1.781061,-10.51641,-0.9024346,-0.03668598,0.989203,0.03191201,2.770791,-37.01431,4.55494,1007.02
27.147786140,-6.862901,-12.39489,-0.1711462,-0.06474301,0.9900531,0.02085822,2.770791,-37.01431,4.55494,1007.02
27.180065155,-3.206455,-6.642022,0.9867272,-0.02983717,0.9905277,0.1314932,3.50833,-37.01665,4.979635,1007.02
27.214827538,-4.755797,-0.3608247,3.058711,-0.03797546,0.9600577,0.1434234,2.771453,-37.37883,4.559556,1007.02
27.247107029,10.79959,-0.1260136,4.886932,-0.04378826,0.9512026,0.1056774,2.771453,-37.37883,4.559556,1007.02
27.281868935,23.62814,-0.7130414,4.825992,-0.03180915,0.9830355,0.06425682,3.47541,-37.76178,3.743934,1007.022
27.314147949,15.57156,0.1675003,2.632126,-0.02753615,1.003245,0.02665431,2.782115,-36.64416,4.98605,1007.022
27.348910332,1.503543,0.4023114,0.2554387,-0.03479714,1.009056,0.03395458,2.782115,-36.64416,4.98605,1007.022
27.381189823,-4.074087,0.519717,-0.6586718,-0.03426759,0.9970315,0.05515637,3.520315,-37.01102,5.415362,1007.018
27.413468838,-4.13606,0.5784197,-0.5977311,-0.03953752,0.9791387,0.06328445,2.794762,-37.00304,5.426394,1007.018
27.448230744,-1.781061,-0.06731085,-0.2320869,-0.03664097,0.9840142,0.07152437,2.794762,-37.00304,5.426394,1007.02
27.480509758,-0.1697457,-0.302122,-0.1102055,-0.0405238,0.9858978,0.0594575,2.420661,-37.3692,5.000797,1007.018
27.515271664,-0.5415877,-0.1847164,0.7429644,-0.04055874,0.9979699,0.05179119,2.795424,-37.36756,5.431009,1007.02
27.547550678,-2.090929,-0.008608066,0.6820237,-0.0444271,0.9979588,0.05179947,2.795424,-37.36756,5.431009,1007.022
27.582313061,-5.561454,0.226203,0.9257866,-0.03231474,0.9888069,0.05413852,3.144892,-36.64815,4.980535,1007.022
27.614592552,-4.260007,-0.008608066,-0.04926475,-0.02792385,0.9777414,0.06953617,2.796085,-37.73207,5.435625,1007.022
27.646871567,-2.462771,0.05009471,-0.8414939,-0.03951583,0.9738532,0.07437344,2.796085,-37.73207,5.435625,1007.022
27.681633473,1.007754,-0.1260136,-0.5977311,-0.04730486,0.9956046,0.07354702,2.419338,-36.64017,4.991566,1007.02
27.713912487,2.309201,-0.008608066,0.4382609,-0.04440107,0.9926913,0.06820637,2.045237,-37.00633,4.56597,1007.022
27.748674393,3.610647,0.1087975,0.9867272,-0.03666376,0.9902725,0.06189124,3.133568,-37.0183,4.549424,1007.018
27.780953407,1.689464,0.1087975,0.9257866,-0.0342289,0.9825316,0.06039166,3.133568,-37.0183,4.549424,1007.018
27.815716267,-1.533166,0.519717,1.839897,-0.03857989,0.983989,0.06572716,2.057222,-37.0007,5.001697,1007.018
27.847995281,-2.27685,1.048042,2.93683,-0.03811083,0.9902831,0.06624537,2.419999,-37.00469,4.996181,1007.019
27.880274296,-2.400798,1.341556,3.058711,-0.03278821,0.9864039,0.0594437,2.419999,-37.00469,4.996181,1007.019
27.915036202,-1.905008,0.2849058,1.108609,-0.03185025,0.9970367,0.05466775,2.420661,-37.3692,5.000797,1007.019
27.947315693,-1.533166,0.1675003,-0.4758497,-0.02791813,0.9753217,0.0695224,2.77013,-36.6498,4.550323,1007.019
27.982077122,-0.1697457,-0.302122,-1.207138,-0.02598667,0.9758046,0.06758723,2.77013,-36.6498,4.550323,1007.021
28.014356613,0.4499909,-0.1847164,-1.32902,-0.03133029,0.9883929,0.07395503,1.694446,-36.99671,5.007213,1007.021
28.046635628,0.6978855,-0.1260136,-1.085257,-0.0366474,0.9874082,0.07347745,2.420661,-37.3692,5.000797,1007.019
28.081398010,4.16841,-0.3608247,-1.024316,-0.03955412,0.9883546,0.06962159,2.420661,-37.3692,5.000797,1007.019
28.113677502,4.16841,-0.1847164,-0.6586718,-0.04294562,0.988806,0.06286332,2.409337,-37.73936,4.569687,1007.019
28.148439407,-0.9134296,0.1675003,0.1335574,-0.03619631,0.9960713,0.05902258,2.409337,-37.73936,4.569687,1007.021
28.180718422,-4.260007,0.4023114,0.2554387,-0.03327467,0.9893224,0.06429573,2.409337,-37.73936,4.569687,1007.021
28.215480328,-1.533166,0.226203,-0.1102055,-0.03132149,0.9850087,0.07490265,2.796746,-38.09659,5.440241,1007.021
28.247759342,1.689464,-0.008608066,0.07261666,-0.03421981,0.9825693,0.07151094,2.408676,-37.37484,4.565071,1007.023
28.280038357,2.371174,-0.008608066,0.1335574,-0.02890626,0.9835392,0.0676375,2.408676,-37.37484,4.565071,1007.023
28.314801216,3.052885,-0.06731085,-0.5977311,-0.0274707,0.9873902,0.06040473,2.408676,-37.37484,4.565071,1007.023
28.347080231,2.061306,-0.1260136,-0.5367904,-0.04053383,0.9887883,0.05560644,2.7841,-37.73771,4.999898,1007.023
28.381842136,-0.5415877,0.05009471,0.2554387,-0.03620318,0.9989748,0.0590391,2.7841,-37.73771,4.999898,1007.021
28.414121151,-1.905008,0.05009471,0.07261666,-0.03861492,0.9950834,0.05515466,2.058546,-37.72973,5.010929,1007.023
28.448883534,-2.338824,-0.1260136,0.3773202,-0.03569077,0.9898109,0.06768778,2.420661,-37.3692,5.000797,1007.023
28.513441563,-2.338824,0.1675003,0.6820237,-0.03616916,0.9854329,0.06137922,2.783438,-37.37319,4.995282,1007.021
28.548203945,-2.648692,0.1087975,0.621083,-0.03182162,0.9898252,0.06864641,2.419999,-37.00469,4.996181,1007.021
28.580482960,0.0781489,-0.008608066,-0.1102055,-0.03325315,0.9820815,0.06957234,2.419999,-37.00469,4.996181,1007.021
28.615244866,1.441569,-0.3608247,-0.1102055,-0.03422984,0.9854597,0.06765989,2.408676,-37.37484,4.565071,1007.023
28.647523880,0.0781489,0.1675003,-0.04926475,-0.0352038,0.9883605,0.06767849,2.795424,-37.36756,5.431009,1007.023
28.682286740,1.131701,0.1675003,-0.414909,-0.03230283,0.9893448,0.07009503,2.770791,-37.01431,4.55494,1007.024
28.714565277,1.813411,0.1087975,-0.04926475,-0.03616824,0.9869028,0.06670541,2.770791,-37.01431,4.55494,1007.026
28.746844292,1.193675,0.05009471,0.01167595,-0.03421852,0.9791539,0.06327307,2.396029,-37.01596,4.124728,1007.022
28.781606674,1.999333,-0.008608066,-0.1711462,-0.03376213,0.9897935,0.06091539,2.057222,-37.0007,5.001697,1007.024
28.813885689,1.317622,-0.06731085,-0.3539683,-0.03086543,0.9917377,0.0609202,2.057222,-37.0007,5.001697,1007.024
28.848647595,0.6359118,-0.1260136,-0.3539683,-0.03522385,0.9941415,0.05997638,2.759468,-37.38446,4.123828,1007.024
28.880927086,-0.479614,0.1675003,0.1944981,-0.04005983,0.9926596,0.05514399,2.770791,-37.01431,4.55494,1007.024
28.915689469,-2.152903,-0.008608066,0.5601423,-0.03715795,0.9951137,0.06288671,2.770791,-37.01431,4.55494,1007.02
28.947968006,-2.152903,-0.2434192,0.5601423,-0.03279499,0.9902852,0.06236642,2.057222,-37.0007,5.001697,1007.02
28.980247021,-3.516324,0.226203,1.108609,-0.03133847,0.989825,0.06816192,2.057222,-37.0007,5.001697,1007.02
29.015009403,-4.13606,0.4610142,1.900838,-0.03522624,0.9985296,0.06967011,2.057222,-37.0007,5.001697,1007.02
29.047288895,14.39406,-4.704831,3.607177,-0.05787726,0.9445356,0.006564895,2.420661,-37.3692,5.000797,1007.02
29.082050800,-2.152903,-0.4195275,2.449304,-0.02643766,0.9544368,0.04571197,2.760129,-37.74898,4.128445,1007.02
29.114329815,1.317622,0.05009471,-3.461944,-0.01189145,0.9487792,0.0775554,2.760129,-37.74898,4.128445,1007.02
29.149092197,19.7238,-1.828394,-6.021454,-0.03562693,0.959778,0.05881499,2.407352,-36.64581,4.55584,1007.016
29.181370735,15.44762,-1.241366,-3.94947,-0.05559023,1.010949,0.03884454,2.782776,-37.00867,4.990666,1007.016
29.213649750,-0.3556667,0.1087975,1.718016,-0.05952264,1.038527,0.04046014,2.782776,-37.00867,4.990666,1007.017
29.248412609,-15.22935,1.165447,3.911881,-0.03480571,1.019771,0.05431995,2.807409,-37.36192,5.866736,1007.017
29.280691624,-13.12224,1.22415,4.155644,-0.02743365,0.972395,0.06225314,3.146215,-37.37718,4.989766,1007.017
29.315453529,-0.7275087,-0.1847164,2.144601,-0.02258005,0.9627106,0.05638635,3.146215,-37.37718,4.989766,1007.016
29.347732544,1.689464,0.519717,1.352371,-0.02013575,0.9545202,0.06503641,2.407352,-36.64581,4.55584,1007.016
29.380011559,1.007754,-0.06731085,0.01167595,-0.01731801,0.9898552,0.06523125,2.408014,-37.01032,4.560455,1007.016
29.414773464,-0.2936931,-0.4195275,-2.304071,-0.02262909,0.9854749,0.06231716,2.408014,-37.01032,4.560455,1007.016
29.447052956,4.106437,-0.7717441,-3.888529,-0.03035327,0.9796407,0.06085031,2.431984,-36.99905,5.431909,1007.016
29.481815338,9.002356,-1.358772,-4.86358,-0.03328258,0.9892896,0.05462679,2.408014,-37.01032,4.560455,1007.016
29.514094353,3.548674,-0.6543386,-2.791596,-0.03911827,1.003796,0.05617216,2.408014,-37.01032,4.560455,1007.016
29.548856259,-0.4176404,-0.2434192,-1.511842,-0.04151509,0.9941023,0.05370502,3.507668,-36.65214,4.975019,1007.017
29.581135273,1.751438,-0.008608066,-0.3539683,-0.04877104,0.9940701,0.0503364,2.783438,-37.37319,4.995282,1007.017
29.613414765,2.309201,-0.06731085,0.9257866,-0.04683532,0.9935933,0.05081296,3.157538,-37.00703,5.420877,1007.017
29.648176670,-0.7894824,0.2849058,1.900838,-0.03816481,1.006186,0.04651492,3.157538,-37.00703,5.420877,1007.013
29.680455685,-4.445929,0.4023114,1.900838,-0.03571609,0.9941041,0.04934158,2.07987,-36.2604,5.863919,1007.013
29.715218067,-3.268429,0.226203,0.4382609,-0.02744447,0.9752821,0.05743519,2.408014,-37.01032,4.560455,1007.015
29.747497082,0.3880172,-0.2434192,-0.7805532,-0.02791511,0.9689816,0.05498319,2.408014,-37.01032,4.560455,1007.015
29.782258988,1.379596,-0.4782303,-1.755605,-0.03716622,0.9955682,0.05418742,2.433308,-37.72808,5.44114,1007.015
29.814538479,0.3260435,-0.4782303,-2.669715,-0.06582565,1.048701,0.04923347,3.144892,-36.64815,4.980535,1007.015
29.846817494,3.300779,0.4023114,0.1335574,-0.0505929,0.9485949,0.05588302,3.144892,-36.64815,4.980535,1007.015
29.881579399,-0.1077721,-0.5369331,-0.2930276,-0.04926661,1.001349,0.05666356,2.057222,-37.0007,5.001697,1007.015
29.913858414,-10.02356,-0.4195275,-0.5367904,-0.02901319,1.013394,0.02381456,2.433308,-37.72808,5.44114,1007.015
29.948620796,3.858542,-4.235209,-0.414909,-0.02900949,1.001192,-0.006711459,2.433308,-37.72808,5.44114,1007.015
29.980900288,22.69853,-3.354666,4.155644,-0.02172926,0.9939951,0.005317895,2.793439,-36.27401,5.417161,1007.017
30.015662193,-14.42369,-3.237261,8.055849,-0.02713995,1.04491,0.04042665,2.431984,-36.99905,5.431909,1007.017
30.047941208,-23.16197,0.226203,5.679162,-0.02865331,0.8907626,0.1077183,2.431984,-36.99905,5.431909,1007.017
30.080220222,3.672621,-3.589478,-0.3539683,-0.01755217,0.9063473,0.127604,2.419999,-37.00469,4.996181,1007.019
30.114982128,17.43077,-3.178558,-4.010411,-0.02985853,0.9904392,0.105387,2.420661,-37.3692,5.000797,1007.019
30.147261143,23.44222,-0.2434192,-3.340063,-0.03040661,0.9891931,0.02367996,2.420661,-37.3692,5.000797,1007.016
30.182024002,6.151567,2.985234,-1.146197,-0.02625834,1.071436,0.01301956,2.419999,-37.00469,4.996181,1007.016
30.214302540,-7.544611,6.91832,1.778956,-0.03949349,0.9485349,0.02878619,2.806747,-36.99741,5.862121,1007.016
30.249064922,17.24485,1.517664,3.546237,-0.0307424,0.9375163,0.05432694,2.806747,-36.99741,5.862121,1007.016
30.281343937,31.18893,-0.008608066,2.93683,-0.03965586,1.014321,0.02094214,2.432646,-37.36357,5.436524,1007.018
30.313623428,18.05051,-0.008608066,2.022719,-0.02616096,1.026882,0.003097244,1.367625,-36.97582,6.319908,1007.018
30.348384857,3.610647,-0.008608066,0.01167595,-0.02273819,1.008479,-0.00378291,1.367625,-36.97582,6.319908,1007.02
30.380664349,-0.1077721,-0.06731085,0.07261666,-0.02893881,0.9726537,-0.003006371,2.479926,-36.97652,7.174816,1007.02
30.415426254,2.495122,-0.2434192,-0.4758497,-0.01833913,0.9866967,-0.009234071,2.830718,-36.98614,6.733574,1007.02
30.447705269,-4.260007,-0.008608066,-1.085257,-0.02176557,1.008505,0.002983281,2.830718,-36.98614,6.733574,1007.02
30.479984284,-6.119217,0.226203,-1.146197,-0.02846383,0.9833702,0.01735796,2.127422,-36.9677,7.553811,1007.02
30.514746666,-0.3556667,-0.1260136,-0.5367904,-0.02943827,0.9852917,0.01398692,2.480587,-37.34103,7.179432,1007.017
30.547026158,5.036042,-0.1847164,-0.8414939,-0.02315149,0.9794485,-0.002013331,2.480587,-37.34103,7.179432,1007.017
30.581788063,4.726173,0.1087975,1.047668,-0.03048373,1.011841,-0.004713978,2.480587,-37.34103,7.179432,1007.019
30.614067078,-9.71369,0.2849058,-0.6586718,-0.01888075,1.014798,0.001079089,2.480587,-37.34103,7.179432,1007.02
30.648828983,-9.217901,0.2849058,-0.414909,-0.03566571,0.9640153,0.02403158,2.479926,-36.97652,7.174816,1007.02
30.681107998,-2.710666,-0.1260136,-0.9024346,-0.02506732,0.9814737,0.02604176,2.479926,-36.97652,7.174816,1007.022
30.713387013,-0.3556667,-0.4782303,-0.8414939,-0.02359371,0.9634923,0.002247844,2.830718,-36.98614,6.733574,1007.022
30.748149872,-0.04579842,0.4610142,-0.1711462,-0.02849062,0.9891233,0.001437257,2.468602,-37.34666,6.743705,1007.02
30.780428410,-2.586719,3.454856,-0.414909,-0.03526452,0.9900637,-0.0009599905,2.468602,-37.34666,6.743705,1007.02
30.815190792,-7.296717,1.928584,-0.7805532,-0.02275261,1.020147,0.01223694,2.844026,-37.70953,7.178533,1007.022
30.847469807,-16.71671,1.048042,-4.315114,-0.01687671,0.9950571,0.02900197,2.455955,-36.98779,6.303362,1007.022
30.882231713,-21.67461,0.8132309,-5.960513,-0.0211772,0.981575,0.05262308,2.455955,-36.98779,6.303362,1007.022
30.914510727,-1.843035,1.928584,-4.132292,-0.04711788,0.9172147,0.07503466,2.794762,-37.00304,5.426394,1007.022
30.946790219,9.374198,2.750422,-2.24313,-0.05070347,0.9960265,0.05808671,2.057222,-37.0007,5.001697,1007.022
30.981552124,8.816435,1.752475,-1.146197,-0.04013047,1.021687,0.052892,2.057222,-37.0007,5.001697,1007.022
31.013831139,1.565517,0.2849058,-1.999367,-0.01547805,1.025144,0.05237508,2.44397,-36.99342,5.867636,1007.022
31.048593521,-2.648692,2.867828,-1.816545,-0.03082598,0.9723542,0.05307489,3.169524,-37.0014,5.856605,1007.018
31.080872536,8.630513,3.807072,0.3163795,-0.05404038,0.9600537,0.01292956,3.169524,-37.0014,5.856605,1007.018
31.115634441,-11.38698,10.55789,-0.6586718,-0.06863323,0.9704047,-0.06191313,2.806086,-36.63289,5.857504,1007.018
31.147913933,-17.08856,6.331292,2.510245,0.0004969137,1.05947,0.1724286,3.180186,-36.26673,6.283099,1007.019
31.180192947,13.34051,0.4610142,0.5601423,-0.0347844,1.000802,0.02568916,3.180186,-36.26673,6.283099,1007.019
31.214954853,-34.6271,10.49919,-1.572782,-0.02755048,1.015891,0.04558035,2.080532,-36.62492,5.868535,1007.019
31.247233868,0.9457802,0.2849058,-2.365011,-0.04538476,0.9926198,0.04790366,3.168862,-36.63688,5.851989,1007.019
31.281996250,5.159989,-0.302122,-1.511842,-0.04200875,0.9960137,0.04694881,3.168862,-36.63688,5.851989,1007.019
31.314274788,-38.84131,17.66093,-3.035359,-0.08549035,0.9354496,-0.08092967,2.093178,-36.9838,6.308877,1007.019
31.349037647,4.912095,-0.6543386,-1.816545,-0.04050747,0.9781469,0.0569962,2.806086,-36.63289,5.857504,1007.015
31.381316662,6.461436,-0.830447,-1.146197,-0.04295653,0.9907155,0.05513918,2.806086,-36.63289,5.857504,1007.015
31.413595677,5.036042,-0.4195275,-0.8414939,-0.05222625,1.016736,0.0301683,3.519654,-36.6465,5.410747,1007.015
31.448357582,-3.020534,-0.5956359,-3.218181,-0.04199641,0.9877573,0.03819994,2.782776,-37.00867,4.990666,1007.015
31.480636597,1.627491,-0.4195275,-1.877486,-0.04294065,0.9775872,0.03669383,2.431984,-36.99905,5.431909,1007.017
31.515398502,-2.27685,-0.4195275,-2.121249,-0.04540026,1.000863,0.05278495,2.431984,-36.99905,5.431909,1007.017
31.547677994,-7.978427,0.1675003,-1.877486,-0.04393866,0.9950485,0.04936467,2.7941,-36.63853,5.421778,1007.017
31.579957008,-6.738954,-0.008608066,-1.755605,-0.06036086,0.9970322,0.07745078,3.170186,-37.36591,5.86122,1007.017
31.614719391,-1.533166,-0.1847164,-1.572782,-0.05407092,0.9912021,0.06531812,3.170186,-37.36591,5.86122,1007.017
31.646998406,-2.27685,-1.006555,-4.315114,-0.03664501,0.9830201,0.06378372,2.77013,-36.6498,4.550323,1007.017
31.681760311,8.630513,-0.5369331,-2.182189,-0.05301902,0.9568606,0.06947153,3.520977,-37.37553,5.419978,1007.015
31.714039803,1.007754,4.687614,-0.9633753,-0.1275112,0.9286854,-0.04220246,3.520977,-37.37553,5.419978,1007.011
31.748801232,-8.908032,5.45075,7.019857,0.1156946,1.096921,0.4165298,3.50833,-37.01665,4.979635,1007.011
31.781080723,16.12933,0.754528,0.621083,-0.06281103,1.001289,0.0504077,3.169524,-37.0014,5.856605,1007.011
31.813359738,6.833278,1.752475,0.7429644,-0.06523509,1.001256,0.04267772,3.169524,-37.0014,5.856605,1007.013
31.848121643,-3.764218,1.341556,-0.1711462,-0.05116571,0.9770552,0.02945695,2.7941,-36.63853,5.421778,1007.013
31.880400658,-3.144482,0.9893391,-1.694664,-0.04153708,1.000364,0.04503877,3.157538,-37.00703,5.420877,1007.013
31.915163517,0.3880172,0.1675003,-1.999367,-0.04535255,0.9810251,0.05363893,3.157538,-37.00703,5.420877,1007.015
31.947442532,4.540252,0.2849058,-1.877486,-0.05160866,0.975756,0.07489376,2.7941,-36.63853,5.421778,1007.015
31.982204437,-18.01816,11.61454,-0.3539683,-0.2116287,0.8317687,-0.2958941,2.7941,-36.63853,5.421778,1007.012
32.014483452,6.337489,-0.1260136,-2.304071,-0.04442895,0.9994172,0.05374152,2.7941,-36.63853,5.421778,1007.012
32.046762466,15.26169,-0.3608247,-1.999367,-0.0371313,0.9786093,0.04780621,3.168862,-36.63688,5.851989,1007.014
32.081524372,35.09327,-0.1260136,-1.207138,-0.08505145,1.000259,0.05093322,3.168201,-36.27236,5.847373,1007.016
32.113803864,45.44287,0.1675003,0.9257866,-0.04779985,0.9911578,0.04693368,3.168201,-36.27236,5.847373,1007.016
32.148565292,60.81234,-1.300069,3.607177,-0.08463589,1.01415,0.008468706,3.20548,-36.98449,7.163785,1007.017
32.180844784,54.67694,-3.882992,5.069755,-0.03257481,1.0537,-0.07457008,3.21443,-36.25063,7.528033,1007.017
32.215607166,16.31525,-6.81813,2.08366,-0.04081667,1.055542,-0.09532972,3.21443,-36.25063,7.528033,1007.015
32.247886181,-3.516324,-12.10138,1.352371,-0.04738434,0.9767058,-0.07690971,3.624487,-35.86757,9.260809,1007.019
32.280165672,28.77195,-13.04062,7.690205,-0.1065488,0.8727631,0.002877629,2.922904,-35.84832,10.14329,1007.015
32.314927578,62.85747,-20.67199,15.12497,0.02732926,1.078563,-0.07117375,3.284358,-35.12328,10.12855,1007.015
32.347206593,65.83221,-57.53733,23.83949,-0.009918087,1.058851,-0.1446882,3.284358,-35.12328,10.12855,1007.015
32.381968498,379.5429,-84.71671,41.51229,0.2367404,1.370952,-0.3619595,1.88014,-35.4501,11.83589,1007.015
32.414247513,-260.9549,8.092376,59.85545,0.04860627,2.453461,0.3615406,3.145216,-34.64932,18.28376,1007.015
32.449009895,-167.2507,-9.870674,87.64441,-0.4105939,1.555348,0.3351855,3.145216,-34.64932,18.28376,1007.017
32.481288433,-212.3676,0.5784197,57.11312,-0.04926004,0.9627712,-0.04604481,1.967696,-31.76067,15.21329,1007.017
32.513567925,-136.3879,-48.96672,32.85872,-0.1693227,0.7356746,0.3009986,0.3701572,-35.097,9.736944,1007.011
32.548330307,-99.76142,-70.33453,-13.63904,-0.3104334,0.534337,0.4127991,0.3701572,-35.097,9.736944,1007.013
32.580609322,-56.56578,-110.1937,-38.01532,-0.293952,0.7338835,0.4491892,-0.0834825,-36.95987,6.34197,1007.013
32.615371227,-56.25591,-134.5554,-45.87667,-0.1612306,0.8138433,0.3700739,0.2104177,-37.72589,3.793573,1007.011
32.647650242,-65.6759,-130.4462,-55.99283,-0.09595297,0.7182463,0.09382957,0.2104177,-37.72589,3.793573,1007.011
32.682412148,-18.88579,-114.7725,-63.00101,0.01337258,0.6395774,-0.07944097,1.652186,-39.20554,3.354248,1007.009
32.714691162,37.44827,-101.3883,-58.61329,0.3563011,0.7283742,-0.2991563,4.529107,-38.51968,2.429439,1007.009
32.746970654,31.99459,-51.49094,-40.69672,0.08447638,0.7776319,-0.2422115,4.529107,-38.51968,2.429439,1007.011
32.781732559,27.09867,-40.39612,-43.92657,-0.269715,0.7742237,0.05149631,6.705768,-38.54362,2.396346,1007.011
32.814011574,2.371174,-72.44783,-67.44968,-0.4143105,0.7414944,-0.05956906,9.30276,-38.17965,4.469508,1007.011
32.848773956,8.134725,-66.92977,-76.28609,-0.1558445,0.82484,-0.1026783,9.30276,-38.17965,4.469508,1007.007
32.881053448,29.94945,-59.53322,-63.79324,-0.01815241,1.056326,-0.1688568,11.45518,-37.1205,3.613361,1007.007
32.913331509,-38.1596,-49.96467,-58.7961,-0.2143415,1.065101,0.01628953,14.00423,-36.77908,3.943616,1007.01
32.948094368,-20.745,-46.03159,-55.62719,-0.1018524,0.8463015,-0.2414195,14.00423,-36.77908,3.943616,1007.008
32.980373383,28.09024,-34.87806,-40.45295,-0.1488549,0.9684148,-0.01002361,17.24432,-35.36737,3.066306,1007.008
33.015135288,-23.71974,-29.59481,-42.34211,-0.3283932,1.113911,0.236294,18.33132,-34.65031,3.040528,1007.008
33.047414303,-69.14643,-27.71632,-58.12576,-0.3513409,0.6761537,-0.1161552,18.33132,-34.65031,3.040528,1007.009
33.082176209,64.22089,21.47661,-85.7319,-0.322292,0.537163,0.1140756,19.67204,-33.59458,1.26263,1007.009
33.114455223,273.0721,2.222097,-96.15276,-0.1976046,1.621804,-0.3697493,21.11984,-31.78796,1.217489,1007.011
33.146734715,2.928937,6.037778,-59.16175,-0.4029063,1.914686,-0.4498261,21.11984,-31.78796,1.217489,1007.011
33.181496620,-209.083,40.2028,-21.50039,-0.6105679,1.834062,-0.3604009,22.70975,-29.91453,6.338822,1007.011
33.213775635,-361.786,53.23481,-4.376055,-0.5298353,1.079895,-0.2067785,24.49581,-27.8194,5.412866,1007.007
33.248538017,-407.0268,51.70854,5.252577,-0.620322,0.1623751,0.01203168,23.96866,-27.89268,-0.5573008,1007.009
33.280817032,-96.60076,23.3551,0.5601423,-0.5290354,0.1642091,0.4764299,23.96866,-27.89268,-0.5573008,1007.007
33.315578938,-27.50013,40.08539,-3.705707,-0.4337309,0.4241086,0.6913823,25.24341,-27.99154,-6.990771,1007.01
33.347858429,17.24485,32.98235,-6.752742,-0.4424042,0.6259832,0.7220385,24.88998,-26.52386,-6.567993,1007.01
33.380137444,46.74432,29.92981,-6.996505,-0.4503971,0.6356509,0.4397825,24.88998,-26.52386,-6.567993,1007.01
33.414899349,38.68774,36.91544,-7.544971,-0.4504167,1.036184,0.3941996,24.55183,-26.87312,-5.686408,1007.006
33.447178364,-12.37856,26.75986,-2.669715,-0.4446706,0.867912,0.4285214,24.60833,-26.84655,-3.632267,1007.01
33.481940270,-38.1596,29.40148,5.922925,-0.4871202,0.6063349,0.3879671,24.60833,-26.84655,-3.632267,1007.011
33.514219284,2.371174,27.28818,3.85094,-0.5050011,0.644443,0.5100489,25.35852,-27.20778,-2.767229,1007.011
33.548982144,8.940382,24.99878,-1.633723,-0.5426154,0.7893578,0.4645437,25.00773,-27.19815,-2.325986,1007.013
33.581261158,-6.119217,23.94213,-3.705707,-0.5658707,0.7739555,0.3658848,25.00773,-27.19815,-2.325986,1007.015
33.613539696,3.548674,32.45403,-5.351106,-0.564908,0.7744291,0.3620179,24.29416,-27.18454,-1.879228,1007.015
33.648302078,10.73762,23.06158,-5.71675,-0.5498505,0.7688876,0.4277016,25.0317,-27.18688,-1.454532,1007.016
33.680581093,6.523409,25.40969,-4.86358,-0.4870009,0.7563148,0.377217,25.0317,-27.18688,-1.454532,1007.016
33.715342999,7.329067,25.40969,-1.938427,-0.4829608,0.6754296,0.3530599,25.06462,-26.44176,-0.2188306,1007.016
33.747622490,11.54328,37.38506,2.022719,-0.4719945,0.7363905,0.3398466,25.0766,-26.43612,0.2168961,1007.018
33.782383919,14.45604,43.66626,4.216585,-0.5795308,0.624908,0.3776362,25.0766,-26.43612,0.2168961,1007.018
33.814663410,46.12458,44.31199,4.460348,-0.5762572,0.659641,0.3425356,25.10058,-26.42485,1.08835,1007.018
33.846942425,46.18655,48.42118,2.875889,-0.5945368,0.8006725,0.2771457,24.43561,-26.75322,3.282631,1007.02
33.881704331,42.15827,44.19458,-0.04926475,-0.5722016,0.76349,0.2817206,24.43561,-26.75322,3.282631,1007.02
33.913983345,48.47958,49.12562,0.01167595,-0.5552213,0.7095292,0.1948417,24.87991,-26.35405,6.260341,1007.022
33.948746205,66.26602,58.98769,4.643169,-0.4910669,0.7520645,0.1258135,24.20058,-26.32434,7.952032,1007.018
33.981025219,92.29496,59.80952,7.751145,-0.5770324,0.730266,0.1921059,24.20058,-26.32434,7.952032,1007.019
34.013303757,119.6873,59.98563,8.421494,-0.4971082,0.8209384,0.03436478,24.28078,-25.19216,10.92603,1007.021
34.048066139,133.5074,73.36987,9.88407,-0.4868164,0.7355307,-0.0444601,22.93583,-25.1263,14.80738,1007.021
34.080345154,152.2235,61.57061,15.24685,-0.5587681,0.8378099,-0.2187283,22.93583,-25.1263,14.80738,1007.023
34.115107060,142.9894,50.53448,15.49061,-0.6392947,0.7329603,-0.24574,21.57493,-22.87898,18.22532,1007.023
34.147386551,161.2716,41.14204,12.6264,-0.6568419,0.9306855,-0.4326356,19.87455,-20.25188,22.51561,1007.024
34.182147980,86.90325,27.22948,8.238671,-0.6783392,0.8310438,-0.4007654,18.92292,-16.9213,25.47753,1007.026
34.214427471,79.77628,18.13055,6.837035,-0.601702,0.9201574,-0.4444169,18.92292,-16.9213,25.47753,1007.026
34.246706486,25.3634,13.55173,5.679162,-0.5290163,0.8208252,-0.5437598,17.53909,-14.31993,28.08164,1007.028
34.281468391,-5.437507,11.61454,4.094703,-0.5508025,0.8323805,-0.5426802,16.45878,-12.11524,28.50622,1007.029
34.313747406,-35.43276,-3.472072,6.288568,-0.5221089,0.8082207,-0.4133179,16.45878,-12.11524,28.50622,1007.029
34.348509789,-42.8696,-1.065258,7.019857,-0.4833448,0.741717,-0.5070832,16.08335,-11.75237,28.07139,1007.029
34.380789280,-43.92315,2.339503,6.288568,-0.542066,0.6933169,-0.3167571,16.44811,-12.8499,28.07972,1007.025
34.415551186,-20.18724,-4.998344,3.119652,-0.5237393,0.8641574,-0.4705255,16.44811,-12.8499,28.07972,1007.025
34.447830200,-71.12959,-12.10138,3.485296,-0.6361027,0.9593557,-0.4151135,16.08865,-14.66849,28.10832,1007.025
34.480109215,-87.92445,-26.89448,4.825992,-0.6703708,0.9365538,-0.4030833,16.41679,-15.41842,26.80486,1007.027
34.514871121,-112.0322,-36.93266,10.3716,-0.5683112,0.7141895,-0.4185874,16.41679,-15.41842,26.80486,1007.027
34.547150612,-13.68,-40.33741,9.518426,-0.567222,0.7464617,-0.1781372,16.34923,-16.90948,24.2712,1007.027
34.581912041,-18.57592,-13.56895,-0.2320869,-0.4995884,0.7747379,-0.1737712,18.14444,-19.85682,23.4091,1007.027
34.614191532,-7.17277,-17.26723,-0.9024346,-0.594623,0.6698403,-0.2026857,18.14444,-19.85682,23.4091,1007.025
34.648953438,36.45669,-34.40844,2.93683,-0.5358291,0.9300888,-0.2825504,18.82338,-20.61637,21.66439,1007.025
34.681232453,-3.206455,-9.401052,3.972822,-0.5717663,0.991895,-0.2922737,19.85124,-20.62767,21.64877,1007.025
34.713511467,43.9555,-21.14161,9.274663,-0.5316406,0.799485,-0.2697657,19.85124,-20.62767,21.64877,1007.023
34.748273850,101.9009,-10.69251,17.44072,-0.4822665,0.7886037,-0.2380271,20.56652,-20.64047,21.26426,1007.023
34.780552387,106.8588,19.48071,7.26362,-0.51767,0.7905129,-0.3587996,20.58878,-20.63001,22.07346,1007.023
34.815315247,89.56812,-7.22905,-2.24313,-0.5734319,0.6763912,-0.2868125,20.58878,-20.63001,22.07346,1007.023
34.847594261,66.14207,2.045989,-11.20141,-0.5267659,0.5529304,-0.3441773,20.99686,-19.1534,23.79239,1007.021
34.882356167,105.6813,-2.121908,-6.691802,-0.5920749,0.6014856,-0.2407881,21.01818,-17.68406,24.64538,1007.021
34.914635182,90.3118,2.867828,-2.425952,-0.3064319,1.206096,-0.4260236,21.01818,-17.68406,24.64538,1007.021
34.946914196,-38.28355,23.17899,1.535194,-0.5429649,0.8010571,-0.5104848,21.04978,-16.2099,25.87185,1007.021
34.981676102,5.098015,8.620701,7.080798,-0.3947949,0.5697696,-0.3419489,21.06978,-14.01154,26.71561,1007.021
35.013955593,28.58603,9.03162,6.776094,-0.3535279,0.5959369,-0.6522566,21.06978,-14.01154,26.71561,1007.015
35.048717022,-16.035,4.452803,2.388363,-0.5337757,0.5929648,-0.5199063,21.80798,-14.3784,27.14492,1007.015
35.080996513,29.32972,-2.180611,2.144601,-0.4954062,0.7227371,-0.5284364,21.43322,-14.38004,26.71471,1007.015
35.115758896,7.762883,5.392047,11.16383,-0.5943666,0.8838687,-0.4489899,21.8093,-15.10743,27.15415,1007.015
35.148037434,-14.60961,8.385889,6.958916,-0.4638039,0.6702737,-0.4712737,21.8093,-15.10743,27.15415,1007.013
35.180316448,24.24788,2.809125,6.776094,-0.2911043,0.6549467,-0.4277401,21.09375,-14.00027,27.58706,1007.011
35.215079308,8.382619,8.033673,1.23049,-0.4073595,0.5751404,-0.3172359,21.46851,-13.99862,28.01727,1007.009
35.247357369,-24.40145,-3.00245,-11.20141,-0.4712628,0.4080569,-0.3016112,21.46851,-13.99862,28.01727,1007.009
35.282120228,8.506566,-7.698672,-15.16256,-0.4593641,0.4195214,-0.4988147,20.36886,-14.35681,27.60271,1007.009
35.314399242,9.312223,-15.15393,-16.07667,-0.4586859,0.8248531,-0.271229,21.09507,-14.7293,27.59629,1007.009
35.346677780,30.87906,-11.04473,-30.03209,-0.5189992,0.6844817,-0.5160336,21.09507,-14.7293,27.59629,1007.011
35.381440163,14.76591,-10.3403,-14.37033,-0.6287581,0.6949437,-0.477546,20.71833,-13.6374,27.15224,1007.011
35.413719654,35.77498,-13.45154,-12.05458,-0.561874,0.6552157,-0.4049169,20.35357,-12.53987,27.1439,1007.009
35.448481083,62.17576,22.35715,-22.1098,-0.5362684,0.5628388,-0.6970108,20.35357,-12.53987,27.1439,1007.009
35.480760574,84.23838,16.01725,-17.29548,-0.547472,0.6602004,-0.5170773,20.35026,-10.71729,27.12082,1007.01
35.515522480,89.93996,26.46634,-10.89671,-0.6068311,0.5266198,-0.757978,19.65498,-8.506117,28.34909,1007.009
35.547801495,117.2703,13.37563,-9.251311,-0.5955904,0.6556179,-0.8293011,19.65498,-8.506117,28.34909,1007.01
35.580080509,29.1438,25.76191,-16.38137,-0.5239487,0.6092294,-0.8698446,18.65987,-6.716086,29.64959,1007.012
35.614842415,20.52946,11.20362,-8.154379,-0.6037844,0.4661469,-0.7554277,18.30313,-3.425821,30.04929,1007.012
35.647121430,21.39709,4.687614,-0.7196125,-0.5740575,0.5590093,-0.7955726,18.30313,-3.425821,30.04929,1007.012
35.681884289,7.700909,5.274642,0.4382609,-0.6208629,0.5236107,-0.7773023,17.55228,-2.700082,29.17963,1007.01
35.714162827,-7.17277,1.165447,6.288568,-0.561873,0.543315,-0.7246226,16.83805,-2.321955,29.62178,1007.01
35.748925209,-18.57592,0.519717,3.79,-0.5477051,0.4867813,-0.7114383,16.83805,-2.321955,29.62178,1007.01
35.781204224,-19.07171,-1.593583,7.324561,-0.5231071,0.5017406,-0.7447635,16.84805,-1.222773,30.04366,1007.01
35.813482762,-28.18184,-2.298017,5.861984,-0.5347909,0.5380315,-0.7358301,16.47461,-1.953451,29.62268,1007.012
35.848245144,-56.62775,-7.22905,6.105746,-0.52767,0.5907693,-0.7447309,16.47461,-1.953451,29.62268,1007.012
35.880524636,-55.26433,-8.990133,5.740102,-0.535444,0.6042759,-0.7509221,16.85069,-2.680836,30.06212,1007.008
35.915286541,-101.7446,-12.4536,5.252577,-0.4836437,0.5993005,-0.6920825,17.56559,-3.423479,29.62459,1007.009
35.947565556,-78.13261,-19.85015,13.11393,-0.5180013,0.6205968,-0.6619142,17.56559,-3.423479,29.62459,1007.009
35.982327461,-106.6405,-15.74095,14.45462,-0.4934271,0.6564698,-0.6641803,17.90836,-5.625831,28.77532,1007.009
36.014606476,-66.60551,-20.49588,16.77037,-0.4487935,0.6230004,-0.5822822,18.97829,-7.774602,27.97649,1007.011
36.046885490,-55.51222,-13.56895,20.18305,-0.4922034,0.6057363,-0.4991354,18.97829,-7.774602,27.97649,1007.011
36.081647396,-6.615006,0.2849058,18.172,-0.4893875,0.6806464,-0.3875247,19.98616,-9.984266,27.11711,1007.011
36.113926888,10.92354,6.09648,14.33274,-0.4824155,0.5920773,-0.3967452,19.9788,-12.54151,26.71369,1007.007
36.148688316,38.62577,12.14287,14.88121,-0.5216645,0.6341408,-0.3746667,19.61602,-12.53752,26.71921,1007.007
36.180967808,60.50247,19.48071,15.06403,-0.6330628,0.5221847,-0.3305868,19.61602,-12.53752,26.71921,1007.013
36.213246822,89.01035,5.333344,5.496339,-0.5974851,0.601092,-0.352453,19.27722,-12.52227,27.59618,1007.009
36.248009205,67.44352,8.679403,2.205541,-0.5874419,0.4159903,-0.4328111,18.99623,-11.04961,28.45377,1007.009
36.280287743,156.4377,8.503295,8.848078,-0.4899211,0.6130012,-0.6421969,18.99623,-11.04961,28.45377,1007.01
36.315050125,50.15287,13.19952,10.55442,-0.4678431,0.7106031,-0.5624055,18.30029,-8.473924,29.67741,1007.01
36.347329617,6.957225,8.385889,3.546237,-0.4642013,0.366724,-0.6523545,17.59485,-6.328336,30.53298,1007.012
36.382091522,64.59274,7.211833,-2.24313,-0.3686689,0.2420543,-0.679375,17.59485,-6.328336,30.53298,1007.014
36.414370537,95.9514,5.039831,-7.240268,-0.4639485,0.4234326,-0.7690247,17.59286,-5.234788,30.51913,1007.014
36.446649551,115.783,1.282853,-14.12657,-0.383828,0.6365501,-0.9231696,16.87665,-3.763114,30.94742,1007.016
36.481411457,87.46101,1.693772,-21.68322,-0.399705,0.6148456,-0.8884511,16.87665,-3.763114,30.94742,1007.016
