Time (s),Gyroscope X (deg/s),Gyroscope Y (deg/s),Gyroscope Z (deg/s),Accelerometer X (g),Accelerometer Y (g),Accelerometer Z (g),Magnetometer X (uT),Magnetometer Y (uT),Magnetometer Z (uT),Barometer (hPa)
-0.021665096,-0.07399875,0.02503949,0.02308695,-1.014655,0.02688102,-0.08167597,20.78002,-24.91561,-26.14454,1008.087
0.010616779,-0.07399875,0.08374227,-0.1597352,-1.012237,0.02786562,-0.07877494,20.78002,-24.91561,-26.14454,1008.087
0.042898655,0.04994857,-0.03366329,-0.09879446,-1.011754,0.02884142,-0.07683668,21.13214,-25.65427,-26.57655,1008.087
0.077663898,0.1119222,0.02503949,-0.09879446,-1.012727,0.02881572,-0.08360288,21.5069,-25.65262,-26.14634,1008.089
0.109945774,0.1738959,0.08374227,-0.09879446,-1.011264,0.02398549,-0.08218317,21.5069,-25.65262,-26.14634,1008.089
0.144710541,-0.01202509,-0.03366329,-0.03785376,-1.015629,0.03075952,-0.07875118,20.77002,-26.0148,-26.56642,1008.089
0.176993370,0.04994857,-0.1510688,0.02308695,-1.010789,0.0273711,-0.08313183,21.50624,-25.28811,-26.15096,1008.089
0.209275246,0.2358696,0.142445,-0.09879446,-1.009821,0.02884203,-0.07829116,21.50624,-25.28811,-26.15096,1008.089
0.244040489,-0.01202509,-0.2097716,-0.03785376,-1.012244,0.02930266,-0.08311771,21.14478,-26.01315,-26.13621,1008.089
0.276321888,0.1119222,-0.1510688,0.08402766,-1.0074,0.02690831,-0.0797577,21.13214,-25.65427,-26.57655,1008.087
0.311087131,0.04994857,0.142445,0.02308695,-1.012728,0.02881244,-0.08456977,21.13214,-25.65427,-26.57655,1008.087
0.343369007,-0.1359724,0.02503949,0.02308695,-1.014178,0.03076694,-0.07778739,21.14346,-25.28412,-26.14544,1008.087
0.378134250,0.1738959,-0.1510688,-0.1597352,-1.010798,0.03173137,-0.0816567,20.40526,-24.91726,-26.57475,1008.086
0.410416126,0.04994857,0.02503949,-0.03785376,-1.010794,0.02979401,-0.08215116,20.40526,-24.91726,-26.57475,1008.086
0.442698479,0.1119222,-0.03366329,-0.03785376,-1.01466,0.02881347,-0.08263184,21.14545,-26.37766,-26.1316,1008.086
0.477463722,-0.1979461,-0.09236607,-0.03785376,-1.014179,0.03124923,-0.07826809,21.14412,-25.64863,-26.14083,1008.086
0.509745598,-0.3218934,0.08374227,0.02308695,-1.009832,0.03417343,-0.07584363,21.14412,-25.64863,-26.14083,1008.084
0.544510841,-0.2599197,-0.09236607,0.1449684,-1.01223,0.02496369,-0.07830802,20.43056,-25.63502,-25.69407,1008.084
0.576792717,-0.5078144,-0.09236607,0.02308695,-1.011282,0.03124114,-0.08310877,21.13214,-25.65427,-26.57655,1008.086
0.611557960,0.04994857,-0.09236607,-0.03785376,-1.016106,0.02687524,-0.08215631,21.13214,-25.65427,-26.57655,1008.086
0.643839836,-0.01202509,0.08374227,0.1449684,-1.012239,0.02785743,-0.08119218,20.77002,-26.0148,-26.56642,1008.086
0.676122188,0.1119222,0.2011478,-0.1597352,-1.012246,0.03076101,-0.08117566,21.12015,-25.6599,-27.01228,1008.086
0.710887432,0.3598169,0.02503949,-0.403498,-1.011281,0.03222211,-0.07923567,21.12015,-25.6599,-27.01228,1008.084
0.743169308,0.4217906,0.2011478,-0.58632,-1.009328,0.02595131,-0.0749246,20.76936,-25.65028,-26.57104,1008.082
0.777934551,-0.2599197,-0.03366329,-0.4644387,-1.012249,0.03074954,-0.08455978,20.79267,-25.2745,-25.7042,1008.082
0.810215950,0.2978432,-0.03366329,-0.2206759,-1.011264,0.02398385,-0.08266662,21.5069,-25.65262,-26.14634,1008.08
0.844981194,-0.07399875,-0.03366329,0.1449684,-1.011762,0.03174171,-0.07778706,21.5069,-25.65262,-26.14634,1008.08
0.877263069,-0.1979461,-0.3271772,-0.03785376,-1.010787,0.02737765,-0.08119804,21.14412,-25.64863,-26.14083,1008.079
0.909544945,0.04994857,-0.2684744,-0.03785376,-1.012233,0.02690595,-0.07636323,20.40658,-25.64629,-26.56552,1008.079
0.944310188,0.1738959,-0.2684744,-0.03785376,-1.015623,0.02980476,-0.07488912,20.40658,-25.64629,-26.56552,1008.081
0.976592541,-0.1979461,-0.4445827,-0.1597352,-1.019003,0.02199654,-0.09136315,21.13214,-25.65427,-26.57655,1008.081
1.011357784,-0.1979461,-0.1510688,-0.09879446,-1.011262,0.02448252,-0.07831284,21.14346,-25.28412,-26.14544,1008.081
1.043639660,-0.5078144,0.2011478,-0.03785376,-1.010804,0.03610474,-0.076314,21.14346,-25.28412,-26.14544,1008.081
1.075921536,0.2358696,0.4946617,-0.1597352,-1.015632,0.03123525,-0.08116566,20.77936,-24.5511,-26.14916,1008.077
1.110686779,0.2978432,0.08374227,-0.2816166,-1.012735,0.03269206,-0.0821305,21.48425,-26.39292,-27.00856,1008.081
1.142968655,0.1119222,0.02503949,-0.1597352,-1.008849,0.02593303,-0.080727,21.48425,-26.39292,-27.00856,1008.081
1.177733898,0.7936325,0.2011478,-0.403498,-1.013208,0.03078117,-0.07440533,20.78068,-25.28013,-26.13993,1008.081
1.210016251,0.4837642,0.2011478,-0.4644387,-1.014169,0.02542571,-0.0831356,21.1328,-26.01878,-26.57194,1008.075
1.244781494,0.2358696,0.08374227,-0.03785376,-1.01127,0.02738118,-0.07974667,21.1328,-26.01878,-26.57194,1008.077
1.277063370,-0.569788,-0.09236607,0.3887312,-1.018028,0.0215465,-0.08218247,21.11949,-25.29539,-27.0169,1008.081
1.309345245,-0.94163,-0.2684744,0.4496719,-1.013221,0.03219037,-0.08696669,20.76936,-25.65028,-26.57104,1008.081
1.344110012,-0.3838671,-0.3271772,0.1449684,-1.015149,0.03318873,-0.07632121,20.76936,-25.65028,-26.57104,1008.081
1.376391888,0.4217906,-0.1510688,0.1449684,-1.009827,0.03028726,-0.08021669,20.05513,-25.27215,-26.1289,1008.081
1.411157131,-0.1979461,-0.1510688,0.02308695,-1.010292,0.0254728,-0.07250804,21.14412,-25.64863,-26.14083,1008.081
1.443439484,-0.6317617,0.08374227,0.2668498,-1.006925,0.0273625,-0.08894147,21.14412,-25.64863,-26.14083,1008.081
1.478204727,-0.2599197,-0.09236607,-0.1597352,-1.012227,0.02497679,-0.07444045,20.78068,-25.28013,-26.13993,1008.079
1.510486603,-0.01202509,0.142445,-0.5253794,-1.016116,0.03269876,-0.07728878,20.78002,-24.91561,-26.14454,1008.079
1.542768478,0.4217906,-0.03366329,-0.7691422,-1.0137,0.0312326,-0.08358704,20.78002,-24.91561,-26.14454,1008.077
1.577533722,0.5457379,0.142445,-0.7691422,-1.016111,0.03076305,-0.0772998,21.14346,-25.28412,-26.14544,1008.079
1.609815597,0.8556062,0.3772562,-0.8910236,-1.015603,0.02060685,-0.07590833,21.86968,-25.65661,-26.15186,1008.077
1.644580841,0.7316588,0.4359589,-0.3425573,-1.011266,0.02641824,-0.07830183,21.86968,-25.65661,-26.15186,1008.076
1.676862717,0.6077116,0.4359589,-0.09879446,-1.017063,0.0254469,-0.07442735,20.76936,-25.65028,-26.57104,1008.076
1.711627960,0.3598169,0.142445,0.1449684,-1.013194,0.02302029,-0.07976732,21.5069,-25.65262,-26.14634,1008.074
1.743910313,-0.3218934,-0.03366329,0.4496719,-1.012237,0.02591353,-0.08362044,21.14412,-25.64863,-26.14083,1008.076
1.776192188,-0.569788,-0.2684744,0.5106126,-1.010292,0.02254139,-0.08074317,21.14412,-25.64863,-26.14083,1008.078
1.810957432,-0.2599197,-0.2684744,0.632494,-1.017072,0.02736787,-0.07876736,20.76936,-25.65028,-26.57104,1008.08
1.843239307,-0.94163,-0.09236607,0.6934348,-1.006943,0.03950494,-0.07581954,21.51955,-26.0115,-25.706,1008.082
1.878004074,2.033106,-0.09236607,1.12002,-1.003461,0.005221213,-0.05668443,21.51955,-26.0115,-25.706,1008.082
1.910285950,-3.606497,0.5533645,0.1449684,-1.013753,0.04664951,-0.1038037,21.14346,-25.28412,-26.14544,1008.082
1.942568779,1.59929,-0.2097716,0.4496719,-1.016583,0.02934264,-0.06763809,20.78068,-25.28013,-26.13993,1008.082
1.977333546,-0.569788,-0.2097716,-0.58632,-1.014663,0.0292892,-0.08504633,20.78068,-25.28013,-26.13993,1008.082
2.009615421,0.2978432,-0.2684744,-0.2816166,-1.009818,0.02689976,-0.08023597,20.76936,-25.65028,-26.57104,1008.082
2.044380665,0.04994857,-0.09236607,-0.1597352,-1.012235,0.0268994,-0.07829701,21.50756,-26.01714,-26.14173,1008.082
2.076662540,0.6077116,0.3185534,-0.403498,-1.011755,0.02737325,-0.08167942,21.50756,-26.01714,-26.14173,1008.082
2.111427784,1.165474,0.2598506,-0.1597352,-1.012223,0.02059359,-0.08268383,21.13148,-25.28975,-26.58117,1008.087
2.143709660,-0.5078144,0.3185534,0.205909,-1.018049,0.02976345,-0.08503634,20.78002,-24.91561,-26.14454,1008.087
2.175992012,-0.07399875,-0.03366329,0.205909,-1.013691,0.02931326,-0.07876358,20.78002,-24.91561,-26.14454,1008.086
2.210757256,-0.07399875,0.2011478,0.1449684,-1.011748,0.02544572,-0.07927319,21.50624,-25.28811,-26.15096,1008.086
2.243039131,-0.2599197,-0.2097716,-0.03785376,-1.011768,0.0317155,-0.08552221,20.78135,-25.64465,-26.13531,1008.086
2.277804375,-0.2599197,-0.2097716,-0.03785376,-1.015626,0.02783792,-0.08408563,20.78135,-25.64465,-26.13531,1008.086
2.310086250,-0.569788,-0.3271772,0.08402766,-1.012247,0.02880236,-0.08795493,21.49624,-26.38729,-26.57284,1008.086
2.344851494,-0.7557091,-0.2097716,0.3277905,-1.010302,0.02885211,-0.074906,21.12015,-25.6599,-27.01228,1008.086
2.377132892,-0.8796563,-0.2097716,0.6934348,-1.010293,0.02351579,-0.07880387,21.12015,-25.6599,-27.01228,1008.086
2.409415722,-0.94163,-0.2684744,0.7543755,-1.010793,0.02930681,-0.08312082,21.87034,-26.02113,-26.14724,1008.087
2.444180965,-1.189525,-0.1510688,0.3887312,-1.013227,0.03705259,-0.0801709,21.14412,-25.64863,-26.14083,1008.087
2.476462841,0.3598169,-0.1510688,-0.03785376,-1.011278,0.03223357,-0.07585154,21.14412,-25.64863,-26.14083,1008.087
2.511227608,0.5457379,0.02503949,-0.5253794,-1.012255,0.03463243,-0.08115362,20.77002,-26.0148,-26.56642,1008.089
2.543509483,0.8556062,0.02503949,-0.58632,-1.013678,0.02252516,-0.08266971,21.49492,-25.65826,-26.58207,1008.089
2.578274727,0.6696852,0.2011478,-0.9519643,-1.008844,0.02351011,-0.08170766,21.5069,-25.65262,-26.14634,1008.089
2.610556602,0.8556062,0.02503949,-0.7082015,-1.013699,0.02976934,-0.08697943,21.5069,-25.65262,-26.14634,1008.089
2.642838478,0.4837642,0.02503949,-0.403498,-1.014173,0.02492212,-0.08893973,21.14412,-25.64863,-26.14083,1008.087
2.677604198,0.04994857,-0.1510688,-0.5253794,-1.01948,0.01665065,-0.09767722,21.49492,-25.65826,-26.58207,1008.091
2.709886074,-1.685314,-0.2097716,0.1449684,-1.01323,0.03655391,-0.08452467,21.49492,-25.65826,-26.58207,1008.091
2.744651318,1.041527,-0.6793938,-0.3425573,-1.044123,-0.007294522,-0.1456207,21.13148,-25.28975,-26.58117,1008.086
2.776933193,-2.862813,-0.6206911,0.3277905,-1.005035,0.04624452,-0.0878713,21.5069,-25.65262,-26.14634,1008.09
2.809215069,-1.375446,-0.5619883,0.632494,-1.016604,0.03414261,-0.07921328,21.5069,-25.65262,-26.14634,1008.09
2.843980312,-1.685314,-0.6793938,0.5715533,-1.020483,0.03799807,-0.08063332,20.78135,-25.64465,-26.13531,1008.088
2.876262665,-2.738866,-0.7380966,0.5715533,-1.015148,0.02977175,-0.08504254,21.11949,-25.29539,-27.0169,1008.088
2.911027908,-2.428998,-0.9729077,1.302842,-1.007394,0.02693288,-0.07250598,21.11949,-25.29539,-27.0169,1008.088
2.943309784,-3.668471,-0.914205,1.607545,-1.010796,0.03076351,-0.08166221,21.14478,-26.01315,-26.13621,1008.086
2.978075027,-2.924787,-0.4445827,2.338834,-1.000614,0.02162247,-0.07448455,20.79333,-25.63901,-25.69958,1008.086
3.010356903,-2.862813,0.2011478,2.216952,-1.005467,0.0293515,-0.07443015,20.79333,-25.63901,-25.69958,1008.088
3.042638302,-2.119129,1.199095,2.826359,-1.005945,0.02937305,-0.06766085,21.13214,-25.65427,-26.57655,1008.088
3.077403545,0.04994857,2.138339,2.460715,-1.013209,0.03224115,-0.07197983,21.13346,-26.3833,-26.56732,1008.088
3.109686375,-0.6937354,2.666664,1.912249,-1.009846,0.04046778,-0.07484094,21.13346,-26.3833,-26.56732,1008.088
3.144451141,1.413369,3.371098,0.632494,-1.012276,0.04431919,-0.07868131,21.1328,-26.01878,-26.57194,1008.09
3.176733017,2.281,4.016829,0.02308695,-1.011819,0.05056251,-0.09314995,20.79465,-26.36804,-25.69035,1008.088
3.211498261,2.219027,3.429801,0.1449684,-1.015625,0.02637959,-0.08602768,20.79465,-26.36804,-25.69035,1008.088
3.243780136,1.475343,4.075531,0.7543755,-1.012263,0.03313642,-0.09421496,21.13148,-25.28975,-26.58117,1008.088
3.276062012,0.7316588,2.842773,1.241901,-1.015681,0.04471646,-0.1013933,21.15677,-26.00751,-25.70049,1008.088
3.310827255,-0.4458407,2.666664,1.790367,-1.015659,0.03796439,-0.09466363,21.15677,-26.00751,-25.70049,1008.09
3.343109608,-0.1979461,2.490556,1.973189,-1.010353,0.04623259,-0.08689303,21.15677,-26.00751,-25.70049,1008.088
3.377874851,0.6077116,2.549259,2.338834,-1.010828,0.03796184,-0.09950844,21.5322,-26.37038,-25.26566,1008.088
3.410156727,1.165474,3.018881,2.582597,-1.006004,0.04525752,-0.09270921,21.5322,-26.37038,-25.26566,1008.088
3.444921970,1.661264,3.723314,2.399774,-1.010347,0.03746291,-0.1043467,22.23312,-26.02512,-26.15276,1008.088
3.477203846,1.289422,4.192937,2.277893,-1.014244,0.053948,-0.09167516,21.17008,-26.73091,-25.25552,1008.086
3.509485721,3.644421,3.605909,2.277893,-1.009399,0.04569246,-0.104302,21.17008,-26.73091,-25.25552,1008.084
3.544250488,1.661264,3.899423,2.095071,-1.013763,0.05002718,-0.1066851,21.18074,-25.99624,-24.82903,1008.083
3.576533317,2.157053,3.723314,1.485664,-1.00698,0.04375219,-0.1077023,20.80532,-25.63338,-25.26386,1008.083
3.611298561,2.219027,2.901475,1.485664,-1.006511,0.04613718,-0.1183254,21.17008,-26.73091,-25.25552,1008.083
3.643580437,2.77679,2.725367,0.8153161,-1.004107,0.05145911,-0.1207175,21.17008,-26.73091,-25.25552,1008.083
3.675862312,1.537316,2.490556,0.3277905,-1.012322,0.04901597,-0.1207137,20.81796,-25.99226,-24.82351,1008.083
3.710627079,1.475343,2.78407,0.8762569,-1.010881,0.05386595,-0.1187555,20.80664,-26.36241,-25.25463,1008.083
3.742908955,0.3598169,2.607961,1.241901,-1.011849,0.05337107,-0.1211734,20.80664,-26.36241,-25.25463,1008.083
3.777674198,0.1738959,2.197042,1.668486,-1.00361,0.04761036,-0.1144557,20.81862,-26.35677,-24.8189,1008.085
3.809956551,0.6696852,1.72742,1.912249,-1.005553,0.0485432,-0.1231482,20.80598,-25.99789,-25.25924,1008.085
3.844721794,0.4217906,1.257798,1.546605,-1.011861,0.05576451,-0.1288947,20.80598,-25.99789,-25.25924,1008.083
3.877003670,-0.4458407,1.081689,0.8762569,-1.004598,0.05631503,-0.115371,20.83061,-26.35114,-24.38317,1008.08
3.909285545,0.1738959,1.022987,-0.2816166,-0.9992386,0.04086091,-0.110636,21.18206,-26.72528,-24.8198,1008.08
3.944050789,1.59929,1.375203,-1.256668,-1.002226,0.07567745,-0.1157494,21.18206,-26.72528,-24.8198,1008.08
3.976332664,1.661264,0.02503949,-2.231719,-1.014243,0.03733883,-0.1376963,21.18206,-26.72528,-24.8198,1008.08
4.011097908,-0.8796563,-0.9729077,-2.475482,-1.014302,0.06445848,-0.1317407,20.81929,-26.72129,-24.81428,1008.08
4.043380260,-2.367024,-1.501233,-2.29266,-1.008935,0.04610406,-0.1260553,20.81929,-26.72129,-24.81428,1008.08
4.078145504,-2.80084,-2.146964,-1.683253,-1.00362,0.05001199,-0.1197599,20.45519,-25.98827,-24.818,1008.08
4.110427380,-2.862813,-1.794747,-0.5253794,-1.01133,0.04130209,-0.1130247,20.45651,-26.7173,-24.80877,1008.08
4.142709255,-1.003604,-0.914205,-0.03785376,-1.009416,0.05148813,-0.107653,20.45651,-26.7173,-24.80877,1008.078
4.177474499,0.2358696,-0.914205,0.08402766,-1.005542,0.04663534,-0.1149406,21.18074,-25.99624,-24.82903,1008.08
4.209755898,1.413369,-0.8555022,-0.4644387,-1.011334,0.04079686,-0.1193122,20.81862,-26.35677,-24.8189,1008.08
4.244521141,2.157053,-0.6793938,-0.7691422,-1.007946,0.03886755,-0.1202974,20.81862,-26.35677,-24.8189,1008.08
4.276803970,3.892316,-0.5032855,-1.622312,-1.007498,0.05484512,-0.1182737,20.8073,-26.72692,-25.25001,1008.08
4.311568737,1.785211,0.7881756,-2.597363,-1.014724,0.04858574,-0.1028237,20.81862,-26.35677,-24.8189,1008.08
4.343850612,7.548761,1.375203,-3.450533,-1.006425,0.02303473,-0.08123214,20.81862,-26.35677,-24.8189,1008.084
4.376132488,9.469945,2.549259,-4.303703,-1.007877,0.02058146,-0.08994485,20.79399,-26.00353,-25.69497,1008.084
4.443179607,17.46455,3.312395,-10.70248,-1.04262,0.00270106,-0.05323029,20.46585,-25.2536,-24.3915,1008.082
4.477945328,26.07889,-9.778324,-18.56383,-0.9244776,0.07205714,-0.2503335,20.46585,-25.2536,-24.3915,1008.08
4.510227203,19.94349,-7.254105,-9.239901,-1.003702,0.2020896,-0.3683494,21.55418,-25.26557,-24.40805,1008.08
4.544992447,-18.54215,-8.545566,-9.483664,-1.016178,0.03048458,-0.1594858,21.91563,-24.54052,-24.4228,1008.079
4.609556198,-6.643207,-8.604268,-7.289797,-1.031305,0.09095901,-0.1513744,21.56352,-23.80187,-23.99079,1008.077
4.644321442,-7.138997,-8.662971,-12.65258,-1.001635,0.03898872,-0.08985364,21.18876,-23.80352,-24.421,1008.079
4.676603794,-6.147418,-5.375616,-14.41986,-1.003742,-0.06088673,-0.0004973839,21.18876,-23.80352,-24.421,1008.079
4.711369038,-8.812285,-1.736044,-13.14011,-1.002495,-0.01090292,-0.1031883,21.1881,-23.439,-24.42562,1008.077
4.743650913,-5.031892,-3.379722,-13.68857,-1.022227,-0.04966732,-0.1014325,22.65185,-23.81384,-24.00733,1008.076
4.775932789,-5.961497,-6.138752,-11.25094,-1.004344,-0.0437861,-0.09466941,22.65185,-23.81384,-24.00733,1008.076
4.810698032,-6.705181,-7.254105,-8.630493,-1.021163,-0.08786707,-0.09343348,22.28775,-23.08081,-24.01105,1008.076
4.842979908,-4.412156,-8.017241,-5.82722,-1.005271,-0.05388421,-0.07490384,21.91166,-22.35343,-24.45049,1008.074
4.877744675,-2.986761,-7.547618,-6.985094,-1.016906,-0.03742614,-0.06366609,21.91166,-22.35343,-24.45049,1008.074
4.910027504,-1.995182,-5.727833,-9.605545,-0.9898776,-0.0160575,-0.06408629,22.29775,-21.98163,-23.58917,1008.072
4.944792271,0.2358696,-2.264369,-12.40882,-1.011542,-0.04748662,-0.0381126,22.63589,-21.63238,-24.47076,1008.072
4.977074146,0.7936325,2.549259,-13.68857,-1.008079,-0.0759845,-0.02522926,22.63589,-21.63238,-24.47076,1008.072
5.009356022,1.165474,5.543101,-12.77446,-1.002762,-0.09308206,-0.07706589,22.65987,-21.62111,-23.5993,1008.072
5.044121265,4.326131,6.893265,-10.76342,-0.9940264,-0.1031886,-0.06795683,22.6592,-21.25659,-23.60392,1008.071
5.076404095,4.016263,6.658453,-10.09307,-1.003769,-0.07712665,-0.08035706,22.6592,-21.25659,-23.60392,1008.071
5.111168861,1.475343,5.484398,-7.838264,-0.9988736,-0.1105809,-0.1032794,22.28312,-20.52921,-24.04336,1008.069
5.143450737,1.351395,5.601803,-4.486525,-1.022959,-0.1420349,-0.08261851,23.38476,-21.26457,-23.61495,1008.069
5.178215981,2.900737,4.956073,-0.8910236,-1.006126,-0.1076653,-0.09357846,23.38476,-21.26457,-23.61495,1008.069
5.210497856,0.7936325,5.895318,0.9981383,-1.006582,-0.1139086,-0.07910982,22.6692,-20.15741,-23.18204,1008.069
5.242779732,0.9175798,5.132181,2.460715,-0.9950583,-0.0839128,-0.09105007,23.03264,-20.52591,-23.18294,1008.071
5.277544975,0.6077116,1.903528,0.3277905,-0.990778,-0.071003,-0.1407801,23.04397,-20.15576,-22.75183,1008.069
5.309827328,-0.4458407,-1.44253,-4.85217,-0.9974943,-0.06738096,-0.065812,23.04397,-20.15576,-22.75183,1008.069
5.344592571,-1.871235,2.549259,0.8153161,-1.005555,-0.1405301,-0.0816806,23.04397,-20.15576,-22.75183,1008.075
5.376874447,-2.986761,6.188831,4.959284,-1.055477,-0.09962209,-0.1059958,23.04463,-20.52028,-22.74721,1008.075
5.411639690,-5.775576,7.656401,8.189141,-0.9896507,-0.1206696,-0.08933696,23.04463,-20.52028,-22.74721,1008.075
5.443921566,-4.969918,6.658453,8.432904,-1.000878,-0.08791057,-0.1234506,23.38277,-20.17102,-23.6288,1008.073
5.476203441,-3.854392,3.547206,6.726565,-1.005819,-0.04926744,-0.1401406,23.03264,-20.52591,-23.18294,1008.073
5.510968208,0.04994857,4.075531,3.923292,-0.9916323,-0.09839313,-0.08292132,23.03264,-20.52591,-23.18294,1008.073
5.543251037,-3.234655,9.241376,8.250082,-1.06671,-0.06444013,-0.1391288,23.03264,-20.52591,-23.18294,1008.073
5.578016281,-1.065577,9.358782,6.848446,-0.9772276,-0.06652049,-0.1146781,22.28312,-20.52921,-24.04336,1008.073
5.610297680,0.6696852,8.595646,4.837403,-0.994188,-0.05547946,-0.1266647,22.28312,-20.52921,-24.04336,1008.073
5.642579555,0.3598169,7.186779,5.263988,-0.9985135,-0.07492931,-0.1504545,23.06926,-20.87353,-21.87114,1008.073
5.677344799,-1.933209,6.188831,6.970327,-1.011081,-0.07543444,-0.1460793,22.66987,-20.52192,-23.17742,1008.073
5.709627628,-0.6937354,4.89737,7.031268,-1.014549,-0.04353759,-0.1555593,22.66987,-20.52192,-23.17742,1008.077
5.744392395,-4.164261,3.958125,7.823497,-1.012081,-0.06824379,-0.1653738,22.33238,-21.2357,-22.29122,1008.077
5.776674271,-3.172682,0.4946617,6.178098,-1.005921,-0.01694906,-0.1708967,23.39674,-21.25893,-23.17922,1008.077
5.811439514,-2.924787,-2.323072,4.045174,-1.008771,-0.03384735,-0.1569669,23.39674,-21.25893,-23.17922,1008.077
5.843721390,-1.685314,-3.321019,3.070122,-1.011663,-0.03675102,-0.15456,22.65854,-20.89207,-23.60853,1008.077
5.876003265,-4.66005,-4.084155,3.131063,-1.003449,-0.03479672,-0.1560169,23.01,-21.26621,-24.04516,1008.075
5.910768509,-5.217813,-4.260263,3.74047,-1.005824,-0.04342262,-0.1289883,23.01,-21.26621,-24.04516,1008.075
5.943050861,-1.995182,-2.851397,4.227996,-1.001467,-0.03948306,-0.1125384,21.93299,-20.8841,-23.5975,1008.075
5.977816105,-2.80084,-2.088261,5.934336,-1.008755,-0.03769093,-0.1487704,22.29709,-21.61712,-23.59379,1008.075
6.010097981,-5.155839,-2.557883,6.787506,-1.004431,-0.02264558,-0.1395088,22.29709,-21.61712,-23.59379,1008.073
6.044863224,-9.370049,-4.20156,8.006319,-1.010733,-0.01589019,-0.1399402,21.55955,-21.61478,-24.01848,1008.073
6.077145100,-10.11373,-4.025452,8.250082,-1.010743,-0.01202204,-0.1408851,21.911,-21.98891,-24.45511,1008.075
6.109427452,-9.679916,-4.553777,6.848446,-1.00934,0.007819902,-0.1417422,21.911,-21.98891,-24.45511,1008.073
6.144192696,-6.829128,-6.021347,4.471758,-1.012233,0.007849282,-0.1306167,22.27246,-21.26387,-24.46986,1008.072
6.176474571,-5.031892,-5.786536,1.363783,-1.003038,0.006438505,-0.1262936,21.89769,-21.26552,-24.90007,1008.072
6.211239815,-2.119129,-5.023399,-0.5253794,-1.006405,0.005036011,-0.1088905,21.89902,-21.99455,-24.89084,1008.072
6.243521214,-0.8796563,-3.673236,-0.403498,-1.017955,-0.01675593,-0.1036717,21.89902,-21.99455,-24.89084,1008.072
6.278286457,0.04994857,-2.616586,0.02308695,-1.001055,-0.008013215,-0.1084928,21.88703,-22.00018,-25.32656,1008.076
6.310568333,-1.003604,-1.736044,0.3277905,-1.00734,-0.008516753,-0.1089656,22.24981,-22.00417,-25.33208,1008.076
6.342851162,-0.4458407,-1.677341,0.8153161,-1.004441,-0.005096388,-0.1017008,22.24981,-22.00417,-25.33208,1008.076
6.377615929,-2.30505,-1.090313,0.9371976,-1.01023,-0.01482922,-0.1128627,22.24849,-21.27514,-25.34131,1008.076
6.409897804,-1.313472,-0.9729077,0.7543755,-1.00783,-0.00560965,-0.1074977,22.61193,-21.64364,-25.34221,1008.076
6.444663048,-0.4458407,-0.7380966,-0.403498,-1.012679,-0.000303536,-0.1084239,22.61193,-21.64364,-25.34221,1008.077
6.476944923,-0.6937354,0.2011478,-0.4644387,-1.017497,-0.009044454,-0.1132976,22.2365,-21.28078,-25.77704,1008.077
6.509227276,-0.3218934,1.316501,-0.6472608,-1.00736,0.003128655,-0.09971397,21.88505,-20.90664,-25.34041,1008.077
6.543992519,-2.243077,2.197042,0.1449684,-1.012156,-0.01675572,-0.1085186,21.88505,-20.90664,-25.34041,1008.076
6.576274395,-3.296629,3.312395,1.546605,-1.007822,-0.008021103,-0.1050942,21.86108,-20.91791,-26.21186,1008.08
6.611039638,-1.685314,3.782017,1.607545,-1.006401,0.002611455,-0.1103546,22.61126,-21.27913,-25.34682,1008.08
6.643321514,0.2358696,3.899423,1.059079,-1.003477,-0.00559557,-0.1070235,22.61126,-21.27913,-25.34682,1008.082
6.678086758,1.59929,3.194989,-0.5253794,-0.9981766,-0.00174661,-0.1181322,21.52227,-20.90265,-25.33489,1008.082
6.710369110,2.838763,3.136286,-2.170779,-1.004973,0.005452014,-0.1301626,21.89836,-21.63003,-24.89545,1008.082
6.742650986,5.069815,3.077584,-4.486525,-1.010284,0.005471205,-0.1199988,21.89836,-21.63003,-24.89545,1008.08
6.777416229,4.574026,3.605909,-5.095932,-0.9996359,-0.001297951,-0.1273118,21.5336,-20.5325,-24.90378,1008.082
6.809698105,0.9175798,4.369045,-7.167916,-1.000612,0.004527721,-0.1209919,22.24849,-21.27514,-25.34131,1008.082
6.844463348,5.441657,3.958125,-9.849308,-1.020503,0.01739297,-0.1634184,22.24849,-21.27514,-25.34131,1008.082
6.876745224,2.838763,3.84072,-9.300841,-1.025656,-0.03666499,-0.1173046,21.92034,-20.52522,-24.03785,1008.088
6.911509991,-1.809261,3.547206,-6.070983,-0.9966347,-0.05218569,-0.152263,22.63457,-20.90334,-24.47999,1008.088
6.943792820,0.5457379,2.901475,-3.877118,-1.007256,-0.05898783,-0.1513119,22.63457,-20.90334,-24.47999,1008.086
6.976074696,3.830342,2.37315,-1.012905,-1.012092,-0.05118673,-0.1299858,22.29643,-21.2526,-23.5984,1008.086
7.010839462,0.2978432,3.018881,0.5106126,-1.001498,-0.03521288,-0.1376528,21.92167,-21.25425,-24.02861,1008.086
7.043121338,0.9795535,2.607961,0.632494,-1.003909,-0.03812336,-0.1376642,21.92167,-21.25425,-24.02861,1008.086
7.077886581,-0.07399875,2.725367,0.8762569,-0.9952134,-0.03519982,-0.1391166,22.63523,-21.26786,-24.47537,1008.086
7.110169411,-1.127551,2.666664,0.9371976,-0.9927976,-0.0352011,-0.141539,22.64656,-20.89771,-24.04426,1008.084
7.144934177,-0.6937354,3.782017,1.607545,-1.006342,-0.03574994,-0.149248,22.6459,-20.53319,-24.04888,1008.084
7.177216053,-0.07399875,2.960178,1.18096,-1.009283,-0.02419637,-0.164646,22.6459,-20.53319,-24.04888,1008.084
7.209497929,-0.07399875,1.668717,0.02308695,-1.015593,-0.01453741,-0.1650609,21.93101,-19.79055,-23.61135,1008.084
7.244263172,2.900737,1.316501,-1.073846,-1.007825,-0.020252,-0.1443223,23.39608,-20.89442,-23.18384,1008.084
7.276545048,3.706395,2.607961,-1.805134,-1.002461,-0.03666251,-0.1362087,23.39608,-20.89442,-23.18384,1008.082
7.311310768,2.157053,2.960178,-1.073846,-1.011168,-0.04305218,-0.157981,22.30643,-20.15342,-23.17652,1008.084
7.343592644,-2.367024,3.488503,-0.7691422,-1.026769,-0.002577462,-0.1963923,22.67053,-20.88644,-23.17281,1008.084
7.375874519,-1.375446,-1.266422,-3.023948,-0.9947592,-0.03629734,-0.1777989,22.67053,-20.88644,-23.17281,1008.084
7.410639763,-4.845971,-5.727833,-3.877118,-1.004462,-0.02472872,-0.1830301,22.30709,-20.51794,-23.17191,1008.086
7.442921638,-4.164261,-10.48276,-4.486525,-1.023358,-0.01223161,-0.1921036,22.65854,-20.89207,-23.60853,1008.086
7.477686882,-2.676893,-16.41174,-5.278754,-1.020895,-0.02816486,-0.1834976,22.65854,-20.89207,-23.60853,1008.084
7.509969234,4.945868,-17.46839,-6.070983,-1.002791,-0.08489786,-0.08958869,22.6692,-20.15741,-23.18204,1008.086
7.544734478,5.193762,-13.5353,-3.511474,-1.031993,-0.03249795,-0.1675449,22.29577,-20.88809,-23.60302,1008.086
7.577016354,4.82192,-14.47455,-6.253806,-1.000549,-0.01182757,-0.09207868,22.29577,-20.88809,-23.60302,1008.084
7.609298229,2.77679,-13.06568,-5.522517,-0.9989396,-0.08300023,-0.1040894,21.91968,-20.1607,-24.04246,1008.084
7.644062996,-3.854392,-9.837027,-1.195727,-1.039983,-0.1082886,-0.1060784,22.63391,-20.53883,-24.4846,1008.084
7.676345825,-2.057156,-5.258211,6.787506,-0.9991882,-0.1514197,-0.01600856,22.63391,-20.53883,-24.4846,1008.084
7.711111069,-8.502417,-2.323072,9.103251,-0.9942654,-0.02354837,-0.1289002,22.64656,-20.89771,-24.04426,1008.084
7.743392944,2.652843,-13.65271,3.313885,-1.039014,0.07785771,-0.1552997,22.2718,-20.89935,-24.47447,1008.086
7.778157711,-12.09689,-7.606321,1.241901,-0.9997873,-0.1201361,-0.06610702,22.2718,-20.89935,-24.47447,1008.084
7.810439587,-3.172682,-9.308702,1.424723,-1.015046,-0.007430144,-0.06736705,23.01066,-21.63073,-24.04054,1008.082
7.842722416,4.574026,-3.027505,-2.902067,-0.9859739,-0.002705186,0.01719893,22.26113,-21.63402,-24.90097,1008.082
7.877487183,7.610735,1.492609,-6.131924,-1.016433,-0.02916193,-0.05298447,22.26113,-21.63402,-24.90097,1008.082
7.909769058,1.041527,-0.5619883,-4.91311,-1.019826,-0.04777712,-0.1168969,22.2851,-21.62275,-24.02951,1008.081
7.944534302,1.165474,-1.970855,-3.20677,-1.010513,-0.08094863,-0.06005982,22.98669,-21.642,-24.912,1008.081
7.976816177,-5.465708,-5.962644,1.973189,-1.019736,-0.08356654,-0.1108159,22.98669,-21.642,-24.912,1008.085
8.011581421,-6.271365,-7.665024,5.690573,-1.016893,-0.0505692,-0.08646247,22.63656,-21.99689,-24.46614,1008.083
8.043863773,-3.420576,-5.023399,5.873395,-1.00567,-0.06282142,0.001429526,22.62325,-21.27349,-24.9111,1008.083
8.076145649,0.4837642,2.431853,7.823497,-0.994523,-0.08467451,-0.03062571,22.27246,-21.26387,-24.46986,1008.085
8.110910893,2.466922,3.664612,6.787506,-1.0281,-0.002577405,-0.05232472,22.27246,-21.26387,-24.46986,1008.085
8.143192768,0.1738959,2.901475,8.676667,-0.9984574,-0.07518555,-0.08325809,22.27378,-21.9929,-24.46062,1008.081
8.177958012,-4.226234,0.9055812,12.69875,-1.016401,-0.05150783,-0.07825041,22.62391,-21.63801,-24.90648,1008.081
8.210239887,-6.333339,-3.96675,15.62391,-1.01216,-0.01237416,-0.1007587,22.62391,-21.63801,-24.90648,1008.081
8.242522240,-7.386891,-3.908047,17.39119,-1.018298,-0.05527176,-0.04491044,22.25047,-22.36869,-25.32746,1008.081
8.277287483,-8.192549,-5.845238,20.19446,-1.019478,0.01909977,-0.0889614,21.87571,-22.37033,-25.75767,1008.081
8.309569359,-5.775576,-3.673236,17.81777,-1.000575,0.02569374,-0.01548196,21.87571,-22.37033,-25.75767,1008.081
8.344334602,-2.30505,1.257798,13.55192,-1.007852,0.03534503,-0.01734515,22.57994,-23.84764,-26.62169,1008.085
8.376616478,2.714816,6.130128,8.493845,-1.00548,0.05519792,-0.01578707,21.14082,-23.82606,-26.16391,1008.085
8.411382198,10.21363,10.76765,2.277893,-0.9991992,0.04346729,-0.05550928,21.14082,-23.82606,-26.16391,1008.085
8.443664074,15.60534,15.22906,-0.7082015,-0.9996321,0.02950405,-0.03431644,21.85505,-24.20418,-26.60605,1008.085
8.475945949,19.38573,17.10755,-1.805134,-1.003552,0.03367636,-0.08504533,22.21848,-24.57269,-26.60695,1008.084
8.510711193,20.12941,15.34646,-5.705339,-1.018701,0.08672968,-0.1248364,22.21848,-24.57269,-26.60695,1008.082
8.542992592,18.95192,12.99835,-7.838264,-1.015215,0.04562181,-0.1202433,21.86703,-24.19855,-26.17032,1008.082
8.577757835,14.30389,8.947863,-9.544604,-1.006964,0.03013503,-0.1276007,21.91497,-24.17601,-24.42741,1008.082
8.610040665,9.90376,6.482345,-8.386731,-1.031608,0.02182792,-0.1304955,21.91497,-24.17601,-24.42741,1008.082
8.644805431,2.033106,3.077584,-4.730288,-1.016069,-0.01499651,-0.1573275,21.9263,-23.80586,-23.9963,1008.082
8.677087307,-5.589655,0.08374227,0.3277905,-1.018901,-0.04208187,-0.1507072,21.92696,-24.17037,-23.99169,1008.084
8.709369183,-11.22926,-0.4445827,5.934336,-1.00682,-0.02791019,-0.1201961,21.92696,-24.17037,-23.99169,1008.084
8.744134426,-14.32794,-1.970855,10.74865,-0.9996291,-0.001270104,-0.1190932,21.91365,-23.44698,-24.43665,1008.084
8.776416779,-18.29426,0.67077,15.80673,-1.01894,-0.01097121,-0.109438,21.91365,-23.44698,-24.43665,1008.087
8.811182022,-23.50004,4.192937,19.40223,-0.9938565,0.01865799,-0.09820446,21.91365,-23.44698,-24.43665,1008.087
8.843463898,-14.63781,10.06322,22.32738,-0.9756513,0.07518274,-0.1414318,21.891,-24.18728,-25.29887,1008.087
8.878229141,-4.845971,14.75944,21.9008,-1.003718,0.09016494,-0.1233989,21.89034,-23.82276,-25.30348,1008.087
8.910511017,-7.262944,15.75738,17.26931,-0.995589,0.1171754,-0.1566201,21.16743,-25.27285,-25.27399,1008.087
8.942793369,-5.093866,13.9376,13.24722,-0.9660403,0.1057487,-0.1262921,21.16743,-25.27285,-25.27399,1008.087
8.977558613,1.413369,7.773807,9.83454,-1.021139,0.09005784,-0.1402823,21.53087,-25.64135,-25.27489,1008.087
9.009840488,5.255736,4.662559,1.790367,-1.066509,0.06095607,-0.1214959,20.82929,-25.62211,-24.3924,1008.086
9.044605732,12.69258,2.255745,-2.902067,-0.9863333,0.08816434,-0.1572884,20.82929,-25.62211,-24.3924,1008.086
9.076887608,15.17152,-3.144911,-6.924153,-0.9916073,0.07318666,-0.1457597,21.19206,-25.62609,-24.39792,1008.086
9.111652851,12.19679,-6.784483,-7.899205,-1.03419,0.07000747,-0.1911292,20.85392,-25.97535,-23.51633,1008.084
9.143935204,6.68113,-7.136699,-5.888161,-1.013412,0.08026545,-0.18048,20.85392,-25.97535,-23.51633,1008.084
9.176217079,-5.34176,-7.958538,-3.328652,-1.010493,0.07350857,-0.1776241,21.19206,-25.62609,-24.39792,1008.084
9.210982323,-11.10531,-7.488915,0.1449684,-1.004617,0.05574593,-0.140513,20.84127,-25.61647,-23.95668,1008.088
9.243264198,-9.493996,-7.430213,1.790367,-0.9993075,0.06207678,-0.1332369,20.84127,-25.61647,-23.95668,1008.088
9.278028965,-6.953075,-6.549672,2.765419,-1.004172,0.07415789,-0.1341246,21.17942,-25.26721,-24.83826,1008.086
9.310311794,-4.783998,-5.727833,3.252944,-1.002731,0.07852231,-0.1326525,20.80532,-25.63338,-25.26386,1008.086
9.342593670,-5.031892,-3.144911,2.8873,-1.001748,0.08103153,-0.1070181,20.80532,-25.63338,-25.26386,1008.088
9.377358913,-4.66005,-0.2097716,1.912249,-0.9930438,0.07715058,-0.1172112,20.79333,-25.63901,-25.69958,1008.086
9.409640789,-3.48255,-0.09236607,0.7543755,-1.002247,0.08731958,-0.1074647,20.44386,-26.35842,-25.24911,1008.086
9.444405556,3.768368,-1.149016,-0.09879446,-1.002215,0.08158942,-0.08477578,20.44386,-26.35842,-25.24911,1008.088
9.476688385,-2.862813,-0.914205,-1.195727,-0.9935265,0.06004954,-0.1651678,20.08043,-25.98992,-25.24821,1008.086
9.511453152,-0.1359724,-1.44253,-1.012905,-1.005621,0.07758383,-0.1215326,21.17008,-26.73091,-25.25552,1008.088
9.543735027,1.59929,-2.616586,-0.7082015,-1.005139,0.07855307,-0.1215281,21.17008,-26.73091,-25.25552,1008.086
9.576016903,1.909158,-2.088261,-1.683253,-1.005145,0.08488181,-0.110373,20.44386,-26.35842,-25.24911,1008.085
9.610782146,2.528895,-1.383827,-2.658304,-0.9998268,0.08684912,-0.1055389,20.79465,-26.36804,-25.69035,1008.085
9.643064499,7.238893,-1.559935,-3.694296,-1.004141,0.07184472,-0.1027143,20.79465,-26.36804,-25.69035,1008.085
9.677829742,6.061393,-1.207719,-4.486525,-1.005113,0.05960287,-0.1443575,21.52087,-26.74054,-25.69677,1008.085
9.710111618,10.58547,-2.440477,-3.328652,-1.006042,0.06269205,-0.08874249,20.80532,-25.63338,-25.26386,1008.085
9.744876862,3.768368,-0.9729077,-2.658304,-0.9973529,0.05092738,-0.1405561,20.80664,-26.36241,-25.25463,1008.085
9.777158737,3.148632,-1.383827,-1.195727,-1.011861,0.06358436,-0.1061287,20.80664,-26.36241,-25.25463,1008.085
9.809441090,-0.8796563,-0.6793938,0.8153161,-1.003647,0.06260396,-0.1167876,21.5322,-26.37038,-25.26566,1008.089
9.844206333,0.2358696,0.4359589,1.729427,-1.007981,0.05778008,-0.1085872,21.17008,-26.73091,-25.25552,1008.089
9.876488209,0.9795535,2.37315,2.8873,-1.00993,0.06406726,-0.1080638,21.17008,-26.73091,-25.25552,1008.089
9.911253452,3.582447,3.782017,4.167055,-1.001225,0.05725489,-0.126492,19.73162,-27.07384,-24.79312,1008.089
9.943535328,1.723237,3.605909,5.568691,-1.009036,0.08771045,-0.1292026,20.80862,-27.45596,-25.24078,1008.089
9.978300571,-3.668471,3.077584,5.385869,-1.009513,0.08284848,-0.1355139,20.80862,-27.45596,-25.24078,1008.089
10.010582924,-8.812285,3.605909,5.081166,-1.00465,0.06880381,-0.1428559,20.45717,-27.08182,-24.80415,1008.089
10.042864800,-11.04334,3.547206,3.801411,-0.9955153,0.0857168,-0.157766,20.80664,-26.36241,-25.25463,1008.087
10.077630043,-3.792418,2.37315,0.205909,-1.003206,0.0717148,-0.1418756,20.80664,-26.36241,-25.25463,1008.083
10.109911919,6.309288,1.610015,-3.999,-1.003716,0.08870662,-0.1253409,20.8073,-26.72692,-25.25001,1008.083
10.144677162,11.51508,1.140392,-6.010043,-1.009048,0.1003663,-0.1073759,20.4332,-27.09309,-25.67561,1008.089
10.176959515,9.965734,1.962231,-7.838264,-1.005641,0.08287429,-0.1311712,20.4332,-27.09309,-25.67561,1008.089
10.209241390,12.38271,0.8468784,-7.838264,-0.9998354,0.08290397,-0.127316,21.16008,-27.83009,-25.6774,1008.087
10.244006634,11.51508,0.142445,-6.253806,-1.000771,0.06641816,-0.1361097,20.45717,-27.08182,-24.80415,1008.089
10.276288509,9.469945,-2.381775,-3.084889,-1.005081,0.04947641,-0.1337795,20.45717,-27.08182,-24.80415,1008.089
10.311053276,0.7316588,-3.614533,-0.4644387,-1.013336,0.06006002,-0.1453041,21.19471,-27.08416,-24.37946,1008.087
10.343336105,-2.986761,-5.551724,2.399774,-1.002174,0.04071175,-0.1522063,20.10506,-26.34316,-24.37214,1008.087
10.378101349,-7.386891,-6.608375,5.568691,-0.9997218,0.0428149,-0.1048226,20.10506,-26.34316,-24.37214,1008.087
10.410382748,-6.02347,-7.136699,5.324928,-1.011419,0.07123358,-0.1341256,20.46783,-26.34715,-24.37766,1008.087
10.442664623,3.086658,-5.66913,1.851308,-1.007587,0.09552461,-0.1093403,20.8073,-26.72692,-25.25001,1008.087
10.477429867,0.9175798,-4.318966,0.2668498,-1.00266,0.05926836,-0.1023055,20.8073,-26.72692,-25.25001,1008.089
10.509712696,3.706395,-2.675288,-1.43949,-1.004166,0.0810279,-0.1060461,20.43188,-26.36405,-25.68484,1008.087
10.544477463,3.954289,-1.970855,-2.719245,-1.00074,0.06459055,-0.1042132,20.44386,-26.35842,-25.24911,1008.087
10.576759338,4.883894,-1.501233,-3.694296,-1.009482,0.0785783,-0.1103995,20.44386,-26.35842,-25.24911,1008.087
10.611524582,5.565604,-1.090313,-4.242762,-1.009462,0.06595685,-0.1220738,20.78399,-27.10271,-26.11685,1008.085
10.643806457,4.388104,-0.5032855,-4.669347,-1.006049,0.0607072,-0.1032569,20.08109,-26.35443,-25.24359,1008.085
10.676088810,4.82192,0.6120673,-5.278754,-1.010398,0.06022065,-0.1003497,20.08109,-26.35443,-25.24359,1008.085
10.710854053,4.14021,1.316501,-5.76628,-1.009418,0.04805641,-0.1207254,20.43254,-26.72857,-25.68022,1008.085
10.743135929,4.202184,1.610015,-5.339695,-1.010863,0.04807847,-0.1129871,20.8073,-26.72692,-25.25001,1008.084
10.777901173,3.644421,2.138339,-4.974051,-1.00746,0.04669697,-0.09511508,21.16942,-26.3664,-25.26014,1008.084
10.810183048,1.971132,2.37315,-4.181821,-1.012298,0.0408072,-0.1154426,21.16942,-26.3664,-25.26014,1008.084
10.844948769,-0.3838671,2.020934,-3.023948,-1.008895,0.03307402,-0.1154939,20.81862,-26.35677,-24.8189,1008.082
10.877230644,-1.809261,1.081689,-1.195727,-1.010844,0.03544882,-0.1270787,21.18074,-25.99624,-24.82903,1008.082
10.909512520,-1.499393,0.02503949,-0.3425573,-1.006021,0.04225566,-0.1217326,21.18074,-25.99624,-24.82903,1008.082
10.944277763,-1.995182,-0.914205,0.7543755,-1.005517,0.03305421,-0.1242032,20.82995,-25.98662,-24.38779,1008.08
10.976559639,-3.296629,-1.736044,1.363783,-1.012792,0.03929671,-0.1323704,21.20471,-25.98498,-23.95758,1008.08
11.011325359,-3.854392,-3.027505,2.399774,-1.009405,0.04322531,-0.1183357,21.20471,-25.98498,-23.95758,1008.082
11.043607235,-5.651628,-4.142858,3.252944,-1.013273,0.04077332,-0.124626,21.90629,-26.00422,-24.84006,1008.082
11.075889111,-6.085444,-5.023399,4.471758,-1.015197,0.03983105,-0.1154419,21.90696,-26.36874,-24.83545,1008.082
11.110654354,-7.077023,-5.375616,5.568691,-1.012295,0.03935378,-0.1159343,21.90696,-26.36874,-24.83545,1008.082
11.142936707,-6.643207,-5.66913,5.995276,-1.0065,0.04715746,-0.1028496,21.15677,-26.00751,-25.70049,1008.082
11.177701950,-5.651628,-5.493021,6.117157,-1.006514,0.05834022,-0.0873159,20.79399,-26.00353,-25.69497,1008.082
11.209983826,-5.093866,-4.61248,5.020225,-1.008937,0.05733433,-0.09650174,20.79399,-26.00353,-25.69497,1008.082
11.244749069,-2.057156,-3.203614,4.349877,-1.013788,0.05871988,-0.1119534,20.41923,-26.00517,-26.12518,1008.082
11.277030468,2.281,-3.086208,2.8873,-1.008929,0.05003446,-0.1086292,20.78267,-26.37368,-26.12608,1008.086
11.309313297,3.086658,-0.6793938,1.668486,-1.017139,0.04712376,-0.1037937,20.78267,-26.37368,-26.12608,1008.086
11.344078541,9.22205,-0.1510688,-0.7691422,-1.030693,0.04751493,-0.1197157,21.1228,-27.11797,-26.99382,1008.086
11.376360416,16.28705,3.077584,-5.156873,-1.030653,0.02422411,-0.1382189,20.77135,-26.74383,-26.55719,1008.086
11.411125183,24.34362,6.012723,-8.386731,-1.002076,0.002023668,-0.1446915,20.77135,-26.74383,-26.55719,1008.086
11.443407059,30.60296,5.660506,-7.655442,-0.9992698,0.04561829,-0.1347809,20.78465,-27.46722,-26.11223,1008.086
11.478172302,31.59454,5.484398,-6.61945,-0.9819065,0.08066816,-0.08820886,20.77201,-27.10834,-26.55257,1008.086
11.510454655,24.77744,4.721262,-4.05994,-0.9756249,0.1016802,-0.03347434,20.77201,-27.10834,-26.55257,1008.086
11.542736530,14.42784,4.662559,-2.658304,-1.002204,0.09482749,-0.03393947,21.14611,-26.74218,-26.12698,1008.086
11.577501774,7.796656,1.140392,-1.317608,-1.035103,0.09514862,-0.05417116,20.44519,-27.08745,-25.23988,1008.085
11.609783649,12.25876,-0.7380966,-0.5253794,-1.020408,0.002635247,-0.0914702,20.44519,-27.08745,-25.23988,1008.089
11.644548893,13.93205,-0.5032855,-0.03785376,-1.031558,0.01665867,-0.08508173,20.43254,-26.72857,-25.68022,1008.089
11.676831245,12.25876,-1.618638,-3.023948,-1.018557,0.03064147,-0.1111359,21.53352,-27.09942,-25.25642,1008.089
11.711596489,9.655866,-0.03366329,-7.350738,-0.9832359,0.02399196,-0.1039983,20.82061,-27.45032,-24.80505,1008.089
11.743878365,8.912182,0.3185534,-3.999,-0.947141,0.07225426,-0.1729334,20.82061,-27.45032,-24.80505,1008.089
11.776160240,7.052972,1.316501,-5.339695,-1.016179,0.04172305,-0.127515,21.18272,-27.08979,-24.81518,1008.089
11.810925960,2.590869,2.138339,-3.572415,-1.000617,0.01036926,-0.1108064,20.83127,-26.71565,-24.37856,1008.089
11.843207836,-2.057156,3.371098,-1.500431,-0.9566857,0.04489494,-0.09861883,20.83127,-26.71565,-24.37856,1008.089
11.877973080,-6.705181,2.079637,2.643537,-0.9982344,0.02977754,-0.09764837,21.55683,-26.72363,-24.38959,1008.089
11.910254955,-3.358603,-1.44253,3.070122,-1.091521,-0.001606477,-0.1406518,21.19471,-27.08416,-24.37946,1008.09
11.942536831,0.2978432,-1.383827,1.851308,-1.04852,-0.002118068,-0.1852238,21.19471,-27.08416,-24.37946,1008.089
11.977302551,-8.812285,-1.970855,1.363783,-1.002614,0.03453559,-0.1179163,21.18339,-27.45431,-24.81057,1008.089
12.009584427,-8.812285,-3.438425,4.106114,-1.008849,0.01909251,-0.1001034,21.54484,-26.72927,-24.82531,1008.089
12.044349670,-4.288208,-3.55583,4.654581,-1.008888,0.03163534,-0.1116346,21.54484,-26.72927,-24.82531,1008.089
12.076631546,-6.767155,-3.673236,5.081166,-1.006483,0.03598942,-0.1140322,21.56881,-26.718,-23.95386,1008.089
12.111396790,-6.581234,-3.321019,4.532699,-1.007438,0.03359486,-0.1058253,21.18272,-27.08979,-24.81518,1008.089
12.143679142,-5.279787,-3.203614,3.557648,-1.010858,0.04712208,-0.1096085,21.18272,-27.08979,-24.81518,1008.091
12.175961018,-3.668471,-2.49918,2.704478,-1.006004,0.04281494,-0.09949125,20.45651,-26.7173,-24.80877,1008.091
12.210726261,-2.428998,-1.383827,1.18096,-1.007456,0.04133772,-0.1057812,20.81929,-26.72129,-24.81428,1008.089
12.243008137,-1.127551,-0.3271772,0.3277905,-1.005983,0.03557239,-0.09469809,20.81929,-26.72129,-24.81428,1008.087
12.277772903,1.165474,0.2598506,-0.6472608,-1.010349,0.03989893,-0.09949847,21.18272,-27.08979,-24.81518,1008.087
12.310055733,0.9175798,1.081689,-1.073846,-1.005041,0.04572947,-0.09705955,20.80796,-27.09144,-25.24539,1008.087
12.344820976,0.8556062,1.433906,-1.622312,-1.01569,0.04516599,-0.111543,20.80796,-27.09144,-25.24539,1008.087
12.377102852,1.413369,1.316501,-1.256668,-1.012756,0.03162756,-0.1106594,21.18272,-27.08979,-24.81518,1008.087
12.409384251,0.04994857,0.7294729,-0.7082015,-1.012785,0.04421134,-0.1101043,20.4685,-26.71167,-24.37304,1008.087
12.444150448,0.04994857,-0.03366329,-0.03785376,-1.009871,0.03889805,-0.1096574,20.4685,-26.71167,-24.37304,1008.087
12.476432323,-0.5078144,-0.38588,0.2668498,-1.008427,0.04180741,-0.1091605,21.89629,-27.1034,-25.26194,1008.087
12.511197090,-1.189525,-0.6206911,0.5715533,-1.011325,0.03936965,-0.1120688,20.8073,-26.72692,-25.25001,1008.087
12.543478966,-1.747288,-0.914205,1.059079,-1.01036,0.04131632,-0.1096426,21.18272,-27.08979,-24.81518,1008.087
12.578244209,-1.189525,-0.7380966,0.5715533,-1.010361,0.04424446,-0.1023744,21.18272,-27.08979,-24.81518,1008.087
12.610527038,-1.437419,-0.914205,0.7543755,-1.00745,0.04038296,-0.1019192,21.54484,-26.72927,-24.82531,1008.087
12.642808437,-0.8796563,-0.3271772,0.3277905,-1.012299,0.04569071,-0.102362,20.81929,-26.72129,-24.81428,1008.092
12.677573681,-0.4458407,-0.1510688,0.08402766,-1.007934,0.04037994,-0.1024016,20.81929,-26.72129,-24.81428,1008.09
12.709855556,0.04994857,-0.1510688,-0.2206759,-1.007941,0.04230747,-0.1048078,20.82061,-27.45032,-24.80505,1008.09
12.744620800,0.2358696,-0.03366329,-0.403498,-1.007934,0.04282416,-0.09513608,20.46982,-27.4407,-24.36381,1008.09
12.776903152,0.4217906,0.142445,-0.4644387,-1.010359,0.04376544,-0.1009268,20.46982,-27.4407,-24.36381,1008.088
12.809185028,0.2978432,0.2011478,-0.2816166,-1.014228,0.04228621,-0.1057612,21.18272,-27.08979,-24.81518,1008.088
12.843950272,-0.01202509,-0.09236607,-0.09879446,-1.009388,0.04036269,-0.106266,20.81995,-27.0858,-24.80967,1008.088
12.876232147,-0.1979461,0.02503949,0.02308695,-1.009386,0.04037088,-0.1038488,20.81995,-27.0858,-24.80967,1008.088
12.910997391,-0.569788,0.02503949,0.2668498,-1.008414,0.03697468,-0.1072543,20.79598,-27.09707,-25.68112,1008.088
12.943279743,-0.5078144,-0.03366329,0.3887312,-1.012291,0.04327926,-0.09995849,20.45651,-26.7173,-24.80877,1008.088
12.978044987,-0.94163,-0.38588,0.4496719,-1.006979,0.04326826,-0.107705,20.45651,-26.7173,-24.80877,1008.088
13.010326862,-0.8796563,-0.38588,0.3277905,-1.006002,0.03989171,-0.1053091,21.18339,-27.45431,-24.81057,1008.087
13.042609215,-0.8796563,-0.4445827,0.205909,-1.005046,0.04571145,-0.1023775,20.80796,-27.09144,-25.24539,1008.087
13.077374458,-0.569788,-0.5619883,0.1449684,-1.01277,0.04036448,-0.1028747,20.80796,-27.09144,-25.24539,1008.087
13.109656334,-0.6317617,-0.4445827,0.08402766,-1.010843,0.04474011,-0.09850299,20.80796,-27.09144,-25.24539,1008.087
13.144421577,-0.1359724,-0.4445827,0.1449684,-1.005026,0.0369991,-0.1029105,21.18272,-27.08979,-24.81518,1008.089
13.176703453,0.04994857,0.08374227,0.08402766,-1.015196,0.04472439,-0.09946058,21.18272,-27.08979,-24.81518,1008.091
13.211469173,0.6077116,0.2011478,-0.09879446,-1.009392,0.04376821,-0.1009288,21.1714,-27.45994,-25.24629,1008.091
13.243751049,0.4837642,0.6120673,-0.3425573,-1.011318,0.04135287,-0.09803779,20.09505,-27.44234,-24.79402,1008.091
13.276032924,0.6696852,0.67077,0.02308695,-1.004058,0.03895887,-0.09661674,20.09505,-27.44234,-24.79402,1008.091
13.310798168,1.537316,0.9642839,0.205909,-1.004556,0.05062583,-0.08059584,21.18405,-27.81882,-24.80595,1008.089
13.343080044,0.4217906,0.08374227,-0.1597352,-1.008404,0.03310816,-0.105826,21.1714,-27.45994,-25.24629,1008.091
13.377845764,-0.3218934,-0.4445827,-0.03785376,-1.006956,0.03554342,-0.1024312,21.19537,-27.44867,-24.37484,1008.091
13.410127640,-0.6937354,-0.9729077,-0.2816166,-1.011813,0.04472424,-0.1023685,21.19537,-27.44867,-24.37484,1008.092
13.444892883,0.04994857,-0.914205,-0.1597352,-1.008919,0.04763447,-0.1028416,21.52219,-27.46957,-25.68754,1008.092
13.477174759,-0.3838671,-0.5032855,-0.2816166,-1.011796,0.03941904,-0.09708087,21.18206,-26.72528,-24.8198,1008.091
13.509457111,-0.01202509,-0.3271772,-0.1597352,-1.011321,0.0418286,-0.1004523,21.18206,-26.72528,-24.8198,1008.096
13.544222355,-0.8176826,-0.4445827,0.1449684,-1.00987,0.04330092,-0.09561265,21.52219,-27.46957,-25.68754,1008.096
13.576504230,-0.07399875,-1.03161,-0.2206759,-1.011806,0.03840204,-0.1115898,20.80796,-27.09144,-25.24539,1008.096
13.611268997,-1.313472,-0.5032855,-0.403498,-1.00791,0.02924303,-0.1043987,20.80796,-27.09144,-25.24539,1008.096
13.643550873,-0.94163,-0.09236607,0.08402766,-1.009893,0.05493158,-0.09071207,20.44585,-27.45197,-25.23526,1008.096
13.678317070,0.2978432,0.2598506,0.205909,-1.004552,0.04428889,-0.09416817,20.4332,-27.09309,-25.67561,1008.098
13.710598946,-0.5078144,0.08374227,0.1449684,-1.008416,0.04038511,-0.1004667,20.4332,-27.09309,-25.67561,1008.098
13.742880344,-0.8176826,0.142445,0.3887312,-1.008419,0.04135134,-0.1009447,21.17074,-27.09543,-25.25091,1008.098
13.777645588,-1.747288,-0.4445827,0.8153161,-1.008425,0.04279493,-0.1033536,20.43386,-27.4576,-25.67099,1008.098
13.809928417,-2.986761,-1.501233,1.059079,-1.010838,0.04329324,-0.0970609,20.43386,-27.4576,-25.67099,1008.096
13.844693184,-0.8796563,-0.6206911,-0.09879446,-1.008902,0.04281975,-0.09561747,21.18272,-27.08979,-24.81518,1008.1
13.876975059,-0.6317617,-0.4445827,0.1449684,-1.004553,0.04281745,-0.0999778,21.18272,-27.08979,-24.81518,1008.102
13.909256935,0.8556062,0.2011478,-0.5253794,-1.014707,0.04328218,-0.09705263,21.18272,-27.08979,-24.81518,1008.102
13.944022179,1.103501,0.3185534,-0.5253794,-1.00841,0.04040968,-0.09321503,21.53352,-27.09942,-25.25642,1008.102
13.976304531,1.661264,0.3772562,-0.2816166,-1.01375,0.04519773,-0.1038119,20.82061,-27.45032,-24.80505,1008.102
14.011069775,-1.065577,-0.1510688,0.7543755,-1.006954,0.03457556,-0.1024367,20.82061,-27.45032,-24.80505,1008.102
14.043351650,-1.809261,-0.6793938,1.424723,-1.01231,0.05150769,-0.09942823,20.45849,-27.81085,-24.79492,1008.1
14.078116894,-2.676893,-0.7380966,1.546605,-1.010353,0.04183628,-0.099004,21.18272,-27.08979,-24.81518,1008.1
14.110399246,-2.057156,-0.7967994,0.9371976,-1.004545,0.0418758,-0.09224815,21.18272,-27.08979,-24.81518,1008.1
14.142681122,-0.2599197,-0.3271772,0.08402766,-1.015673,0.04670459,-0.08591201,20.80929,-27.82047,-25.23616,1008.099
14.177446365,0.4217906,0.02503949,-0.4644387,-1.006978,0.04571411,-0.0999561,21.17074,-27.09543,-25.25091,1008.097
14.209728241,0.7316588,0.08374227,-0.7691422,-1.01036,0.0457159,-0.09656473,21.17074,-27.09543,-25.25091,1008.097
14.244493485,1.227448,0.3772562,-0.7691422,-1.007454,0.04427733,-0.09512886,20.44519,-27.08745,-25.23988,1008.097
14.276775837,1.413369,1.081689,-0.8910236,-1.015666,0.04135517,-0.09367746,20.46916,-27.07618,-24.36843,1008.097
14.311541080,1.351395,0.5533645,-0.4644387,-1.006485,0.04331059,-0.09561989,20.83259,-27.44468,-24.36933,1008.095
14.343822956,0.2358696,0.142445,-0.09879446,-1.011777,0.03167783,-0.0966415,20.83259,-27.44468,-24.36933,1008.095
14.376104832,0.04994857,-0.1510688,0.6934348,-1.011796,0.04039837,-0.09369124,21.1714,-27.45994,-25.24629,1008.094
14.410870552,-1.62334,-0.38588,0.8153161,-1.016148,0.03647354,-0.1057901,20.43254,-26.72857,-25.68022,1008.094
14.443152428,-1.375446,-1.03161,1.241901,-1.009903,0.05782532,-0.09359623,20.43254,-26.72857,-25.68022,1008.092
14.477917671,-1.499393,-0.2684744,0.5715533,-1.010356,0.04622276,-0.08979371,20.79598,-27.09707,-25.68112,1008.092
14.510199547,1.103501,-1.559935,0.7543755,-1.008853,0.02738482,-0.08071873,21.17074,-27.09543,-25.25091,1008.094
14.542481899,-2.862813,0.08374227,-0.403498,-1.012359,0.06352236,-0.1240152,21.17074,-27.09543,-25.25091,1008.095
14.577247143,1.785211,0.2598506,-0.4644387,-1.006974,0.04964123,-0.08349687,21.15942,-27.46558,-25.68202,1008.095
14.609529018,1.289422,0.4359589,-0.6472608,-1.011819,0.04909597,-0.09750924,20.07175,-27.81813,-25.66086,1008.099
14.644294262,0.4837642,0.7294729,-0.403498,-1.00648,0.04284304,-0.09078816,20.07175,-27.81813,-25.66086,1008.099
14.676576137,0.4217906,0.4946617,-0.2816166,-1.010831,0.03892478,-0.1009533,20.44519,-27.08745,-25.23988,1008.099
14.711341858,0.1738959,0.2011478,-0.2816166,-1.009861,0.04089274,-0.09224228,20.79598,-27.09707,-25.68112,1008.098
14.743623733,-0.3838671,0.02503949,-0.09879446,-1.010369,0.0481208,-0.100902,20.79598,-27.09707,-25.68112,1008.098
14.775905609,-0.6317617,-0.38588,0.4496719,-1.013253,0.03987753,-0.1033598,20.09505,-27.44234,-24.79402,1008.098
14.810670853,-2.057156,-0.5619883,1.059079,-1.007467,0.04764517,-0.1009109,20.44519,-27.08745,-25.23988,1008.099
14.842953205,-2.614919,-1.149016,1.485664,-1.014227,0.04375439,-0.1009185,20.44519,-27.08745,-25.23988,1008.099
14.877718449,-3.668471,-1.677341,1.973189,-1.010361,0.04571262,-0.09753162,20.81995,-27.0858,-24.80967,1008.099
14.910000324,-3.606497,-1.618638,2.03413,-1.008914,0.04765413,-0.09704026,21.17206,-27.82446,-25.24168,1008.099
14.944765568,-3.978339,-1.618638,2.460715,-1.012296,0.05107945,-0.08299378,21.17206,-27.82446,-25.24168,1008.099
14.977046967,-4.102287,-1.090313,2.216952,-1.009877,0.04864542,-0.08929753,21.15942,-27.46558,-25.68202,1008.102
15.009329796,-4.226234,-0.5619883,2.460715,-1.003599,0.05205254,-0.08880825,20.80929,-27.82047,-25.23616,1008.102
15.044095039,-4.722023,0.4946617,2.521656,-1.008444,0.05737339,-0.08538349,20.80929,-27.82047,-25.23616,1008.102
15.076376915,-5.031892,0.9642839,2.277893,-1.019109,0.06798449,-0.08675049,20.80796,-27.09144,-25.24539,1008.102
15.111141682,-5.465708,1.081689,1.18096,-1.004561,0.05206943,-0.08300482,21.1714,-27.45994,-25.24629,1008.102
15.143424511,-3.606497,1.610015,1.059079,-1.007964,0.05394141,-0.09894032,21.1714,-27.45994,-25.24629,1008.102
15.178189755,-1.933209,2.666664,0.6934348,-1.015197,0.04716369,-0.09364545,21.16008,-27.83009,-25.6774,1008.102
15.210471153,-1.685314,3.371098,1.424723,-1.010369,0.05252039,-0.08782412,20.78465,-27.46722,-26.11223,1008.103
15.242753029,0.04994857,4.545154,0.9981383,-1.003112,0.05011165,-0.09075409,20.80862,-27.45596,-25.24078,1008.107
15.277519226,2.838763,5.30829,0.9981383,-0.9987656,0.0501028,-0.09704821,20.80862,-27.45596,-25.24078,1008.107
15.309801102,2.590869,5.190884,1.18096,-1.007513,0.06651346,-0.1022539,20.83326,-27.8092,-24.36471,1008.107
15.344565868,2.528895,4.603856,0.5106126,-1.003649,0.06308625,-0.1172683,20.45849,-27.81085,-24.79492,1008.107
15.376847744,2.404948,4.427748,0.3277905,-1.006543,0.06457233,-0.1046842,20.45849,-27.81085,-24.79492,1008.107
15.411612987,2.528895,3.958125,0.1449684,-1.008505,0.07324638,-0.113816,20.84458,-27.43905,-23.9336,1008.107
15.443895340,2.219027,4.427748,-0.09879446,-1.014302,0.06592337,-0.1278649,20.47048,-27.80521,-24.35919,1008.107
15.476177215,1.475343,4.486451,-0.2816166,-1.011871,0.06354177,-0.1186983,20.47048,-27.80521,-24.35919,1008.106
15.510942459,-0.8796563,4.369045,-0.7082015,-1.01381,0.0605868,-0.1322472,20.45783,-27.44633,-24.79954,1008.106
15.543225288,-0.2599197,4.016829,-0.6472608,-1.010909,0.06156949,-0.1303141,20.82127,-27.81483,-24.80044,1008.106
15.577990055,1.847185,3.194989,-1.134786,-1.004623,0.05865605,-0.1385627,20.82127,-27.81483,-24.80044,1008.104
15.610271931,2.033106,2.431853,-1.987956,-1.006074,0.06304657,-0.1269321,20.83259,-27.44468,-24.36933,1008.104
15.642553806,1.289422,2.020934,-1.561371,-1.00848,0.05673549,-0.1308303,20.84458,-27.43905,-23.9336,1008.104
15.677319050,0.8556062,1.199095,-1.134786,-1.009928,0.05332091,-0.1376147,20.84458,-27.43905,-23.9336,1008.108
15.709601402,0.4837642,0.3772562,-0.9519643,-1.006056,0.0489504,-0.1453829,21.21868,-27.07289,-23.508,1008.108
15.811413765,0.4837642,0.5533645,0.2668498,-1.007002,0.04365882,-0.1352588,20.83259,-27.44468,-24.36933,1008.108
15.843696117,0.7936325,1.199095,0.7543755,-1.00897,0.0601298,-0.1283927,20.83259,-27.44468,-24.36933,1008.106
15.875977993,1.723237,1.375203,0.9371976,-1.007525,0.06010937,-0.1356475,20.83259,-27.44468,-24.36933,1008.106
15.910743237,0.6077116,1.668717,0.7543755,-1.001724,0.06403016,-0.125969,20.84326,-26.71002,-23.94283,1008.104
15.943025112,0.6077116,3.018881,-0.2206759,-1.004128,0.05528468,-0.134232,20.85524,-26.70439,-23.5071,1008.104
15.977790833,3.024684,3.429801,-0.2816166,-1.007493,0.04997963,-0.1260364,20.85524,-26.70439,-23.5071,1008.106
16.010072708,4.759946,4.427748,-0.2206759,-1.007507,0.0533442,-0.1327854,21.57014,-27.44703,-23.94463,1008.11
16.077119827,2.77679,4.838667,-1.317608,-1.016718,0.06348044,-0.1327079,20.8559,-27.0689,-23.50249,1008.109
16.109402180,4.883894,4.486451,-2.902067,-0.9993096,0.05571527,-0.1540609,20.8559,-27.0689,-23.50249,1008.109
16.144167423,7.548761,2.960178,-4.91311,-1.012877,0.06240242,-0.1684968,21.56947,-27.08251,-23.94924,1008.109
16.176449299,6.929025,1.72742,-5.76628,-1.006605,0.06920359,-0.1660544,21.22934,-26.33822,-23.08151,1008.107
16.211214542,6.061393,1.962231,-5.461576,-1.018144,0.04696375,-0.1502025,21.22934,-26.33822,-23.08151,1008.107
16.243496895,4.078236,0.4946617,-6.010043,-1.001216,0.03725657,-0.1730158,21.5808,-26.71236,-23.51813,1008.107
16.278262138,0.04994857,-1.207719,-3.755237,-1.011881,0.04493298,-0.1835849,21.24133,-26.33259,-22.64578,1008.107
16.310544014,-7.015049,-3.262316,-5.461576,-1.00124,0.04741744,-0.1734415,21.24133,-26.33259,-22.64578,1008.107
16.342825889,-11.04334,-5.023399,-6.131924,-1.013798,0.04255367,-0.170058,21.24133,-26.33259,-22.64578,1008.107
16.377591133,-13.21242,-6.667077,-8.386731,-1.004188,0.06871673,-0.1689631,21.22802,-25.60919,-23.09074,1008.103
16.409873485,-14.51386,-5.845238,-10.70248,-1.010992,0.08272804,-0.1698356,21.22802,-25.60919,-23.09074,1008.109
16.444638729,-14.38991,-7.78243,-16.4309,-0.9964063,0.05133381,-0.1642443,21.5908,-25.61318,-23.09625,1008.109
16.476920605,-14.14202,-7.195402,-17.22313,-1.000544,-0.02549059,-0.1255136,21.59014,-25.24866,-23.10087,1008.109
16.509202957,-4.845971,-8.017241,-16.73561,-1.006323,-0.02589774,-0.09794749,21.59014,-25.24866,-23.10087,1008.109
16.543968201,-3.668471,-8.545566,-17.34501,-1.012749,0.01601899,-0.147006,21.2267,-24.88016,-23.09997,1008.109
16.576250076,-5.651628,-9.015188,-18.38101,-1.006792,-0.03707698,-0.1120298,21.93762,-23.43571,-23.56519,1008.109
16.611015320,-1.437419,-9.015188,-18.25913,-1.006754,-0.0535371,-0.1140572,21.93762,-23.43571,-23.56519,1008.109
16.643297195,1.227448,-8.662971,-18.92947,-1.006824,-0.01913068,-0.0998417,22.68781,-23.79693,-22.70015,1008.109
16.678062916,-0.3218934,-7.312808,-22.28121,-1.014518,-0.03607883,-0.09653741,22.29974,-23.07518,-23.57532,1008.109
16.710344791,0.2358696,-6.490969,-22.95156,-1.01446,-0.05196493,-0.07197248,22.29974,-23.07518,-23.57532,1008.11
16.742626667,2.466922,-4.553777,-24.6579,-1.011535,-0.06651708,-0.08463094,22.67384,-22.70902,-23.14973,1008.11
16.777391434,2.652843,-2.205666,-23.37815,-1.017192,-0.1260356,-0.07867247,22.66987,-20.52192,-23.17742,1008.11
16.809674263,2.714816,-1.736044,-19.53888,-0.9983276,-0.1288901,-0.08017966,22.66987,-20.52192,-23.17742,1008.11
16.844439506,0.6696852,0.2598506,-14.90739,-0.9832335,-0.1772827,-0.09305676,23.39674,-21.25893,-23.17922,1008.109
16.876721382,3.830342,0.7294729,-9.118019,-0.97795,-0.157379,-0.07893526,23.41939,-20.51863,-22.317,1008.109
16.911486149,0.7936325,4.721262,-3.877118,-1.014167,-0.1763378,-0.07364716,23.41939,-20.51863,-22.317,1008.111
16.943768978,1.103501,5.777912,1.241901,-0.973133,-0.1525553,-0.08762011,23.40542,-19.43072,-22.76657,1008.111
16.976050854,-0.6317617,5.484398,2.704478,-1.003195,-0.1202408,-0.09413972,23.76952,-20.16374,-22.76286,1008.111
17.010815620,-2.614919,3.488503,-0.09879446,-0.9737861,-0.08728862,-0.1056183,23.79283,-19.78796,-21.89602,1008.109
17.043097496,-5.403734,5.95402,-0.09879446,-1.027335,-0.1323737,-0.08400447,23.79283,-19.78796,-21.89602,1008.109
17.077863693,-4.845971,8.654348,3.313885,-1.012339,-0.1552704,-0.1416962,23.42873,-19.05494,-21.89974,1008.105
17.110145569,-5.403734,6.541048,4.837403,-0.9945306,-0.1213557,-0.1449258,23.39343,-19.43636,-23.2023,1008.108
17.144910336,-4.412156,2.197042,1.424723,-0.9983968,-0.1057206,-0.09745158,23.39343,-19.43636,-23.2023,1008.108
17.177192211,-6.271365,3.371098,3.009181,-1.02015,-0.1111322,-0.1051705,23.79283,-19.78796,-21.89602,1008.108
17.209475040,-3.978339,4.89737,1.973189,-1.013377,-0.1233175,-0.1366779,23.06728,-19.77998,-21.88499,1008.109
17.244239807,-3.048734,6.717156,1.973189,-1.010997,-0.0970769,-0.1065606,23.06728,-19.77998,-21.88499,1008.108
17.276521683,-2.924787,9.300079,-0.2816166,-1.007613,-0.09902424,-0.1128637,23.06728,-19.77998,-21.88499,1008.109
17.311286926,-6.271365,12.76354,0.1449684,-1.017758,-0.1078115,-0.1269115,23.4427,-20.14285,-21.45016,1008.108
17.343569755,-9.865838,11.47208,0.7543755,-1.028391,-0.1283438,-0.1792167,23.4427,-20.14285,-21.45016,1008.108
17.375851154,-10.79544,9.417484,3.313885,-1.049252,-0.1013213,-0.1843359,23.06662,-19.41546,-21.88961,1008.108
17.410616398,-7.944654,6.071425,-1.500431,-1.091,-0.03712353,-0.1974172,23.4527,-19.04367,-21.02828,1008.108
17.442898273,-7.820707,1.551312,-13.07917,-1.193124,0.00910089,-0.1795305,23.4527,-19.04367,-21.02828,1008.113
17.477663994,-6.457286,-23.63218,-29.77692,-1.188422,0.05987152,-0.1956888,23.42939,-19.41945,-21.89512,1008.112
17.509945869,-18.97597,-38.8362,-30.99573,-1.078117,0.0526011,-0.1495578,23.81482,-18.68314,-21.03841,1008.112
17.544711113,-27.21846,-32.37889,-24.04849,-0.833909,0.01721006,-0.2324699,23.81482,-18.68314,-21.03841,1008.112
17.576992988,-20.95912,-20.40353,-7.350738,-0.6126378,-0.07428877,-0.1449978,24.15164,-17.60485,-21.92923,1008.112
17.609275341,-29.82136,-0.8555022,14.03945,-0.481613,-0.1873053,0.09531312,24.50243,-17.61447,-22.37047,1008.11
17.644040584,-60.74621,15.17036,24.15561,-0.8129243,-0.2828602,0.3101306,24.50243,-17.61447,-22.37047,1008.112
17.676322460,-93.40633,14.11371,-7.411679,-1.233398,-0.6638141,0.06280047,24.12502,-16.15805,-22.81915,1008.112
17.711087704,-18.97597,-5.140805,-6.497568,-1.497923,-0.7195023,-1.296376,24.13833,-16.88145,-22.37419,1008.11
17.743370056,59.17282,-32.26149,13.73475,-0.7125635,0.3081671,-0.01401313,24.13833,-16.88145,-22.37419,1008.112
17.778135300,-18.4182,-23.63218,-1.683253,-1.186094,-0.0288946,0.02666666,24.48647,-15.43301,-22.83389,1008.11
17.810417175,-7.015049,-22.75164,-21.00146,-1.02529,0.02295625,-0.08844351,24.1137,-16.52821,-23.25026,1008.109
17.842699051,0.8556062,-26.1564,-26.608,-1.044784,-0.09887351,-0.03688283,24.1137,-16.52821,-23.25026,1008.109
17.877464771,8.602313,-37.48604,-41.90412,-1.100818,-0.1613453,-0.145891,24.83859,-16.17167,-23.26591,1008.109
17.909746647,29.11559,-56.09482,-51.95934,-1.14206,-0.1263752,-0.2161853,23.36285,-15.80247,-24.11991,1008.107
17.944511890,48.57533,-76.34727,-75.23868,-1.234009,-0.07123902,-0.1475088,24.79933,-14.36599,-24.59617,1008.105
17.976793766,34.25941,-92.43183,-97.36016,-1.434055,-0.1083639,-0.08057418,24.79933,-14.36599,-24.59617,1008.104
18.011559486,14.36586,-106.227,-124.9054,-1.824252,-0.146028,-0.1548804,24.38662,-13.29099,-26.34741,1008.104
18.043841362,4.326131,-161.8772,-163.9074,-1.877944,-0.02609394,-0.4185237,25.0496,-11.86908,-28.55553,1008.104
18.076123238,-13.7082,-215.0619,-177.3144,-1.128834,-0.06557205,-0.4208461,25.0496,-11.86908,-28.55553,1008.105
18.110888481,-18.29426,-192.7549,-162.5058,-0.7095264,-0.1129367,-0.4722967,24.5718,-7.966883,-32.52157,1008.104
18.143170834,-1.003604,-149.3148,-157.3258,-0.08027961,-0.1100121,-0.2841283,21.90721,-5.079183,-36.87715,1008.102
18.177936077,38.34967,-98.53692,-177.3144,0.3198269,-0.6453766,0.1915365,21.90721,-5.079183,-36.87715,1008.102
18.210217953,142.8373,-120.9027,-168.8436,0.73044,-0.8929871,0.7480988,17.82814,-2.523141,-39.89888,1008.102
18.242500305,292.9995,-116.3239,-141.6031,0.6065956,-0.2252174,0.8401484,13.7384,-0.7017655,-43.34711,1008.098
18.277265549,166.3873,-161.2315,-100.4681,0.2230614,0.1989287,1.375653,13.7384,-0.7017655,-43.34711,1008.098
18.309547424,-38.37372,-170.3304,-113.4485,-0.03114008,0.01070544,1.597512,8.56092,-5.799858,-47.1268,1008.097
18.344312668,-77.60305,-181.5426,-100.651,-0.09236916,-0.1626856,1.320131,4.922299,-13.0008,-47.85156,1008.095
18.376595020,-186.8626,-166.867,-100.2853,0.1500914,-0.6013913,0.8916883,4.922299,-13.0008,-47.85156,1008.095
18.411360264,-299.2828,-83.91993,-0.8300829,0.9212777,-1.282002,0.6038281,-0.8710791,-11.47249,-47.2838,1008.095
18.443642139,-261.7888,-15.5899,34.028,1.114131,-1.552997,-0.2736359,-4.702834,-7.065935,-43.41937,1008.093
18.475924015,-24.61557,36.24465,56.88076,1.174136,-1.69724,-0.0483361,-4.702834,-7.065935,-43.41937,1008.092
18.510689735,61.09401,16.1096,-14.90739,-0.4396495,-0.9019135,-0.3260481,-5.292424,3.950764,-37.88237,1008.092
18.542971611,69.70834,31.78324,-70.11966,0.01892578,-1.072777,0.5605524,-3.860578,7.938848,-38.39093,1008.092
18.577736854,10.70942,-6.08005,-94.86159,-0.4003441,-0.8234835,0.6513427,-3.860578,7.938848,-38.39093,1008.09
18.610018730,-69.05069,-33.49425,-87.244,-0.1943178,-0.8251897,0.6876304,-3.879918,5.375969,-39.23008,1008.094
18.644784450,-177.2567,-22.16461,-71.5213,0.2301814,-0.8163805,0.6432561,-4.579517,4.301669,-38.33374,1008.092
18.677066326,-214.9987,1.903528,-95.71476,0.4357965,-1.102147,0.5377322,-4.579517,4.301669,-38.33374,1008.089
18.709348202,-198.3277,38.35795,-110.9499,0.4282688,-1.338796,0.1119436,-5.950035,6.179644,-35.28468,1008.089
18.744113445,-170.8114,59.13873,-113.7532,0.3206033,-1.472804,-0.07132611,-6.52904,11.36409,-29.67382,1008.086
18.776395798,-114.6013,63.48274,-97.78674,0.1678043,-1.484474,-0.1015198,-6.52904,11.36409,-29.67382,1008.082
18.811161041,-7.572812,58.72781,-96.20229,0.12427,-1.453876,-0.0316368,-7.857571,16.54525,-24.92338,1008.08
18.843442917,58.24322,64.71551,-88.70658,0.04968249,-1.193689,-0.0169438,-8.889282,18.40796,-22.75128,1008.083
18.878208160,74.10847,72.93389,-65.24441,0.1253784,-0.8465012,0.1255478,-9.685425,17.6531,-25.34538,1008.083
18.910490513,98.0303,64.01107,-16.73561,0.1369856,-0.6197638,0.1930431,-9.685425,17.6531,-25.34538,1008.081
18.942772388,149.5304,-2.146964,9.286074,0.144876,-0.2869042,0.1630118,-11.22712,14.70785,-28.7722,1008.079
18.977537632,186.5287,-46.46756,-10.09307,1.143331,-0.05225448,0.1597769,-10.24005,11.00002,-32.66413,1008.077
19.009819508,186.4667,-66.83742,4.167055,1.060594,0.1065583,-0.03058354,-10.24005,11.00002,-32.66413,1008.077
19.044585228,277.3201,-69.65515,1.485664,1.594459,0.4145137,-0.2862056,-10.65415,6.237128,-34.77724,1008.077
19.076867104,278.6835,52.56402,32.50448,0.8173152,0.4847464,-0.181159,-8.797031,2.224417,-33.44687,1008.076
19.109148979,39.09336,129.0538,83.02433,0.4659263,0.2933352,0.03895808,-8.797031,2.224417,-33.44687,1008.072
19.143914700,-13.77018,138.2701,99.84396,0.4209246,0.183659,0.2714489,-5.168602,1.820015,-33.49741,1008.076
19.176196575,-52.44174,122.89,89.72781,0.08953622,0.2489988,0.2691506,-3.451136,1.783834,-34.83125,1008.076
19.210961819,-42.71188,107.3924,91.43415,-0.0075877,0.1747281,0.1403429,-3.451136,1.783834,-34.83125,1008.075
19.243243694,-47.85569,111.8538,96.79693,0.2662739,0.08778515,0.09961634,-1.676515,3.569567,-36.18908,1008.075
19.278009415,-87.33292,169.0891,132.752,0.7213724,-0.2564579,0.3775561,-0.9309597,5.759953,-35.35635,1008.075
19.310291290,-136.664,239.6498,203.5041,0.09943391,-0.9352636,0.6588154,-0.9309597,5.759953,-35.35635,1008.075
19.342573166,-275.361,101.346,-171.2812,-4.413289,-6.252491,1.510915,1.288351,8.674686,-33.68347,1008.087
19.377338409,13.37429,-59.9105,-10.45871,-0.4950041,-2.567405,1.057388,3.845144,12.30319,-32.89678,1008.087
19.409620762,23.59994,-93.60589,-23.0125,0.5246348,-0.7081856,0.3338358,3.845144,12.30319,-32.89678,1008.087
19.444386005,-28.02412,-43.29761,-16.49185,0.2598794,0.1840748,0.2447258,3.509063,17.42731,-31.64871,1008.082
19.476667881,7.982576,3.547206,1.241901,0.1806377,0.09271463,0.05583602,1.70981,15.99482,-31.16694,1008.08
19.511432648,-28.33399,24.5628,16.72084,-0.07973787,-0.002751091,0.09404603,1.70981,15.99482,-31.16694,1008.08
19.543715477,-38.12582,19.22085,9.407955,-0.2063034,-0.1032678,-0.04354931,1.35571,17.82702,-30.74878,1008.082
19.575997353,-63.28713,14.17241,10.62677,-0.125553,-0.2510638,0.1149711,2.456026,17.82069,-30.3296,1008.082
19.610762596,-87.8287,24.03448,2.095071,-0.3670386,-1.051306,0.5112287,2.456026,17.82069,-30.3296,1008.082
19.643044948,-64.03082,-16.29433,-44.52457,0.638853,-2.900511,1.191314,2.865422,18.56827,-28.60144,1008.083
19.677810192,-71.21976,-16.70525,-4.547466,-0.04601017,-1.825908,0.5718802,1.804447,23.33585,-27.33772,1008.083
19.710092068,-82.12713,-15.29639,14.40509,0.1044412,-0.9331189,0.2875358,2.209874,26.27053,-25.63725,1008.082
19.744856834,-88.26252,1.433906,39.75642,0.07057826,-0.3802443,0.09979413,2.209874,26.27053,-25.63725,1008.082
19.777139664,-45.81056,-6.843185,28.42145,-0.01245839,-0.4405252,0.08899468,1.58888,28.15179,-21.72776,1008.086
19.809421539,-5.217813,-8.721674,-16.4309,0.1057174,-0.7144719,0.1181224,1.607559,31.07919,-20.89323,1008.084
19.844186783,8.106524,5.719209,-16.79655,0.002461324,-1.185806,0.2075184,1.607559,31.07919,-20.89323,1008.084
19.876468182,-3.110708,-5.434319,-5.217813,0.05011818,-1.459139,0.3344562,2.695228,31.43173,-20.91439,1008.084
19.911234379,-13.08847,-0.38588,1.363783,0.08965836,-1.214219,0.3173929,2.332451,31.43572,-20.90888,1008.084
19.943516254,-17.17873,1.492609,11.90652,0.07522241,-0.8793246,0.1926672,2.332451,31.43572,-20.90888,1008.082
19.975798130,0.4837642,3.312395,8.920429,8.293505E-05,-0.8075138,0.169549,1.606236,31.80822,-20.90246,1008.079
20.010562897,16.53494,1.668717,-1.500431,-0.03209829,-0.8892952,0.1971928,1.991661,32.54453,-20.04576,1008.083
20.042845726,18.39415,0.4946617,-6.314746,0.01516166,-1.010831,0.2790679,1.991661,32.54453,-20.04576,1008.083
20.077610970,6.990998,-0.7380966,-3.877118,0.03847332,-1.035266,0.3315736,1.98166,31.44535,-20.46764,1008.083
20.109892368,-7.88268,-1.383827,0.7543755,0.06256175,-1.001847,0.3196257,2.345098,31.07685,-20.46854,1008.083
20.144657612,-14.69978,-0.8555022,4.959284,0.04165893,-0.9749983,0.2632611,2.345098,31.07685,-20.46854,1008.083
20.176940441,-13.33636,-0.6206911,3.313885,0.01503632,-0.9742114,0.2323828,2.321789,30.70106,-21.33537,1008.081
20.209222317,-10.60952,-0.5032855,0.632494,0.02471883,-0.9726697,0.2507414,2.357083,31.08248,-20.03281,1008.083
20.243987083,-15.62939,0.2011478,0.205909,0.03245642,-0.9672686,0.2671924,2.357083,31.08248,-20.03281,1008.083
20.276269913,-19.03794,-0.3271772,1.607545,0.03828113,-0.980843,0.2550167,2.35576,31.81151,-20.04204,1008.083
20.311035156,-23.50004,-1.736044,2.460715,0.01746978,-0.9844013,0.2221675,2.378408,32.55181,-19.17982,1008.083
20.343316555,-24.98741,-4.025452,1.546605,0.01066458,-0.9796813,0.1927192,2.378408,32.55181,-19.17982,1008.083
20.378081798,-20.02952,-3.55583,-0.2816166,0.04980285,-0.9757798,0.1684851,2.026293,33.29046,-18.74781,1008.083
20.410364628,-16.43505,-2.381775,-1.195727,0.05125596,-0.9791861,0.1616945,2.050264,33.30173,-17.87636,1008.083
20.442646503,-13.08847,-1.912152,-3.14583,0.01498327,-0.9798065,0.1521003,2.050264,33.30173,-17.87636,1008.083
20.477411270,-8.192549,-1.266422,-1.378549,0.004852721,-0.9914646,0.1477049,1.709473,34.41054,-17.01323,1008.082
20.509693146,-4.226234,-1.266422,-0.1597352,0.02277211,-0.9991152,0.1597088,1.696826,34.76942,-17.45358,1008.083
20.544459343,-6.829128,-1.853449,-0.7691422,0.03100641,-1.001477,0.1698298,2.435027,34.40256,-17.02427,1008.083
20.576740742,-14.45189,-1.559935,-2.353601,0.02377141,-1.010707,0.165442,2.435027,34.40256,-17.02427,1008.087
20.611505985,-22.69439,-1.501233,-4.120881,0.02524198,-1.017951,0.1687817,2.082251,35.50573,-16.59687,1008.087
20.643788814,-24.49162,-2.616586,-4.669347,0.02908845,-1.015098,0.1504189,2.10556,35.88152,-15.73003,1008.087
20.676070690,-22.81833,-3.673236,-5.461576,0.04016666,-1.008893,0.1156228,2.10556,35.88152,-15.73003,1008.087
20.710835457,-20.46333,-3.908047,-5.217813,0.03817251,-0.9891116,0.09978607,1.402654,36.62979,-14.85678,1008.087
20.743117332,-17.73649,-3.790641,-4.669347,0.03375301,-0.965948,0.08445726,1.788078,37.36611,-14.00007,1008.087
20.777883530,-15.75333,-1.794747,-2.170779,0.02887793,-0.9578185,0.05985862,1.788078,37.36611,-14.00007,1008.087
20.810164928,-14.38991,-1.207719,0.5715533,0.03999197,-0.9578179,0.05064933,1.787416,37.73063,-14.00469,1008.086
20.844930172,-12.28281,-0.6206911,0.6934348,0.04727216,-0.9747887,0.03458367,1.447287,38.47491,-13.13695,1008.086
20.877212048,-10.79544,-0.38588,0.632494,0.04631054,-0.9801441,0.02585339,1.447287,38.47491,-13.13695,1008.086
20.909494877,-10.29965,0.2011478,0.9371976,0.03424907,-0.9952148,0.01564148,1.822049,38.47656,-12.70674,1008.087
20.944259644,-4.412156,0.2011478,2.156012,0.04975116,-1.011667,0.002945122,2.196812,38.4782,-12.27653,1008.087
20.976541519,4.264157,-1.03161,2.704478,0.0628267,-1.020343,0.00190073,2.196812,38.4782,-12.27653,1008.087
21.011306763,14.36586,0.2011478,1.851308,0.03916844,-1.035413,0.001866035,1.821388,38.84108,-12.71136,1008.087
21.043589115,21.61678,0.3772562,2.216952,0.023709,-1.037843,0.01203775,1.820726,39.20559,-12.71597,1008.087
21.075870991,28.12402,0.3772562,2.460715,0.04305678,-1.032876,0.03329559,1.820726,39.20559,-12.71597,1008.09
21.110636234,30.23112,1.786123,1.912249,0.04787766,-1.013864,0.07013464,1.810726,38.10641,-13.13785,1008.09
21.142919064,32.21428,2.666664,1.059079,0.05513915,-1.004524,0.1069134,1.763446,37.71935,-14.87614,1008.088
21.177683830,30.66494,3.782017,0.9981383,0.04403792,-0.9981193,0.1499998,1.763446,37.71935,-14.87614,1008.084
21.209965706,22.9802,4.662559,2.03413,0.02719086,-1.012509,0.2021657,2.104237,36.61055,-15.73926,1008.086
21.244730949,10.70942,2.431853,0.9981383,0.005954702,-1.013382,0.2481332,2.457675,35.14286,-16.16204,1008.086
21.277013302,-0.3218934,-0.7967994,-1.073846,-0.001369166,-0.9848638,0.2444436,2.457675,35.14286,-16.16204,1008.086
21.309295177,-9.865838,-2.557883,-2.170779,0.009664986,-0.9622266,0.2034563,2.058942,35.12994,-17.46371,1008.084
21.344060421,-16.49702,-3.55583,-0.2206759,0.03916143,-0.9787564,0.1559217,2.060926,34.0364,-17.44986,1008.084
21.376343250,-19.22386,-2.088261,-0.8910236,0.05855275,-1.014658,0.1126497,2.060926,34.0364,-17.44986,1008.084
21.411108017,-16.68294,0.9055812,-3.328652,0.05571159,-1.046669,0.09361973,2.093575,35.87588,-16.16576,1008.083
21.443389892,-9.06018,1.140392,-5.400636,0.05860525,-1.043272,0.09411626,1.730797,35.87987,-16.16024,1008.083
21.478155136,-2.614919,1.610015,-8.021087,0.0396782,-1.01087,0.1040101,2.467675,36.24204,-15.74016,1008.083
21.510437488,-3.48255,1.668717,-6.497568,0.02459829,-0.9677936,0.1187906,2.467675,36.24204,-15.74016,1008.081
21.542719364,-10.48557,-0.1510688,-3.694296,0.03906218,-0.9469154,0.1270966,2.490323,36.98235,-14.87794,1008.081
21.577484608,-11.10531,-1.501233,-4.364644,0.04918727,-0.9435873,0.100988,2.12953,35.89278,-14.85858,1008.081
21.609767437,-4.722023,-1.44253,-3.694296,0.03907505,-0.9673862,0.08395417,2.12953,35.89278,-14.85858,1008.079
21.644532204,4.635999,-1.736044,0.5106126,0.04635932,-0.9828741,0.07708226,1.752122,37.3492,-15.30725,1008.079
21.676814079,12.01087,-3.497127,2.03413,0.05796896,-0.9852655,0.07559332,1.413978,36.99994,-14.42567,1008.077
21.711579323,13.31231,-2.49918,1.12002,0.0855896,-1.003025,0.09525381,1.413978,36.99994,-14.42567,1008.077
21.743861675,10.08968,-0.8555022,-1.134786,0.06433546,-1.006416,0.1122007,1.403315,36.26527,-14.85216,1008.076
21.776143551,5.99942,-0.6206911,-2.719245,0.0619106,-1.006452,0.1035038,1.74146,36.61454,-15.73375,1008.076
21.810908794,5.813498,-0.5619883,-3.023948,0.07014539,-1.007835,0.1170145,1.74146,36.61454,-15.73375,1008.076
21.843191624,9.284023,-0.1510688,-3.267711,0.0619156,-1.003499,0.1180238,1.742783,35.88551,-15.72452,1008.078
21.877956390,13.37429,-1.501233,-3.877118,0.04788426,-0.9967335,0.1272778,2.106222,35.517,-15.72542,1008.078
21.910238266,16.78284,-2.146964,-4.425584,0.05078975,-0.9937757,0.1408246,2.106222,35.517,-15.72542,1008.078
21.942521095,17.0927,-1.853449,-4.608407,0.08366698,-0.9927204,0.138826,1.368021,35.88386,-16.15473,1008.078
21.977285862,15.60534,0.2011478,-3.450533,0.08224133,-1.000928,0.1455506,1.344712,35.50807,-17.02156,1008.078
22.009567738,20.12941,0.02503949,-6.192865,0.06200282,-1.023662,0.1657694,1.344712,35.50807,-17.02156,1008.078
22.044332981,18.20823,-2.088261,-15.45585,0.006140056,-1.092267,0.2462339,0.9712725,34.7774,-17.44255,1008.08
22.076615810,8.726261,-6.843185,-27.644,0.007517059,-1.052008,0.2725655,1.31074,34.39762,-18.3149,1008.078
22.111380577,-8.440443,-9.308702,-28.31434,0.1520696,-1.045845,0.2553687,1.31074,34.39762,-18.3149,1008.076
22.143662453,-23.25215,-7.195402,-26.66894,0.2123852,-1.004176,0.2197012,1.300078,33.66296,-18.74139,1008.076
22.175945282,-30.06925,-1.207719,-34.71312,0.140786,-0.9996359,0.1918419,0.5965102,34.77575,-17.87276,1008.076
22.210710049,-20.02952,-6.197455,-37.08981,0.1106799,-0.955776,0.1650836,0.5965102,34.77575,-17.87276,1008.075
22.242991924,-7.634786,-11.24589,-32.70207,0.1183625,-0.9330109,0.164713,0.6198194,35.15153,-17.00592,1008.073
22.277757168,4.078236,-13.06568,-25.93765,0.1608421,-0.9058237,0.1546238,-0.08308673,35.89981,-16.13267,1008.073
22.310039997,7.548761,-12.47865,-21.54992,0.1555152,-0.9058716,0.1449663,-0.08308673,35.89981,-16.13267,1008.073
22.344804764,-1.62334,-11.89162,-21.12334,0.1646654,-0.8923167,0.1387389,0.2683663,35.52567,-16.56929,1008.073
22.377086639,-14.14202,-10.07184,-17.71066,0.1962697,-0.9618748,0.1493944,-0.4698341,35.89253,-16.9986,1008.073
22.409369469,-23.25215,-9.719622,-16.79655,0.2229252,-0.9898913,0.1419261,-0.4698341,35.89253,-16.9986,1008.075
22.444134235,-23.19017,-13.594,-13.81045,0.2564096,-1.035723,0.1551296,-0.8079791,35.54327,-16.11702,1008.075
22.476416111,-12.96452,-15.41379,-13.38387,0.3221538,-1.043429,0.1104677,-1.510224,35.92704,-15.23915,1008.075
22.511181354,8.230472,-16.35304,-17.83254,0.3231166,-1.038557,0.1191952,-1.124799,36.66335,-14.38244,1008.075
22.543464184,19.81955,-18.58374,-22.28121,0.3495918,-0.987667,0.119911,-1.124799,36.66335,-14.38244,1008.073
22.578228950,18.33218,-19.11207,-22.46404,0.3760028,-0.9062566,0.1304692,-1.500223,37.02622,-14.81727,1008.072
22.610510826,20.06744,-21.16666,-24.53602,0.3584732,-0.8545244,0.1312845,-1.885647,36.2899,-15.67398,1008.072
22.642793655,8.664288,-23.22126,-27.09553,0.3472768,-0.8279892,0.1169564,-1.885647,36.2899,-15.67398,1008.072
22.677558422,-4.969918,-23.69088,-23.98755,0.3549537,-0.8111115,0.09286384,-2.247763,35.92938,-15.66385,1008.072
22.709840298,-13.08847,-24.27791,-18.25913,0.3617109,-0.8047913,0.09578585,-2.609217,35.20433,-15.6491,1008.072
22.744605541,-13.58426,-24.51272,-11.92129,0.3491927,-0.8285479,0.09326056,-2.609217,35.20433,-15.6491,1008.072
22.776888370,-8.936233,-24.63013,-3.694296,0.3245175,-0.8267236,0.08123814,-2.947361,34.85508,-14.76751,1008.076
22.809169769,-0.01202509,-26.44991,5.934336,0.3574175,-0.8588032,0.0118531,-2.948684,35.58411,-14.77675,1008.074
22.843935013,5.007841,-27.85878,10.87053,0.4126491,-0.8928964,0.04344717,-2.948684,35.58411,-14.77675,1008.074
22.876217842,6.805077,-24.0431,12.94252,0.4127069,-0.9200226,0.03555778,-3.263645,35.94631,-15.21249,1008.074
22.910982609,3.210605,-18.70115,14.77074,0.3740307,-0.9201021,0.04482602,-3.252321,36.31646,-14.78138,1008.072
22.943264484,-7.758733,-14.76806,15.0145,0.2981936,-0.9561511,0.03849979,-3.252321,36.31646,-14.78138,1008.072
22.978029728,-21.45491,-13.4766,11.90652,0.2619636,-0.9746752,0.02928722,-3.602451,35.96157,-14.33552,1008.071
23.010312557,-28.64386,-14.00492,9.712659,0.2711687,-0.9897244,0.007427068,-3.228351,36.32773,-13.90993,1008.071
23.042593956,-20.33939,-16.58785,11.78464,0.3635298,-1.003615,-0.02862544,-3.228351,36.32773,-13.90993,1008.069
23.077359200,-3.420576,-13.77011,9.83454,0.395946,-1.013219,-0.03406774,-3.217027,36.69788,-13.47882,1008.069
23.109642029,11.14323,-9.895729,9.164192,0.3770024,-0.9755106,-0.02897811,-2.891404,37.07035,-12.61658,1008.067
23.144406796,10.5235,-7.547618,8.189141,0.3454528,-0.9257607,-0.03007756,-2.891404,37.07035,-12.61658,1008.073
23.176688671,0.1119222,-1.912152,8.798548,0.3086768,-0.9122928,-0.02315358,-3.544509,37.08329,-12.17074,1008.073
23.211454868,-7.324917,3.605909,9.164192,0.2899166,-0.9495683,-0.01123912,-3.205703,37.06804,-13.04771,1008.073
23.243736744,0.5457379,2.607961,8.737608,0.304495,-0.9761052,-0.0003023394,-3.205703,37.06804,-13.04771,1008.073
23.310783386,0.04994857,4.016829,-0.7082015,0.2978691,-1.037101,-0.001118317,-3.195702,38.16721,-12.62583,1008.073
23.343066215,-0.569788,6.893265,-6.314746,0.2823931,-1.035201,0.001343032,-2.552598,37.05509,-13.49354,1008.073
23.377830982,7.734682,5.190884,-13.14011,0.2701955,-0.9873092,0.006959459,-2.552598,37.05509,-13.49354,1008.071
23.410112858,23.72389,-1.383827,-14.96833,0.3138055,-0.8363451,-0.03578564,-3.205703,37.06804,-13.04771,1008.071
23.444879055,52.54164,-1.090313,-2.353601,0.4275956,-0.7225348,-0.1059658,-2.541274,37.42524,-13.06243,1008.074
23.477160931,81.23544,12.29392,20.92575,0.4763415,-0.6919912,-0.1305526,-2.541274,37.42524,-13.06243,1008.076
23.509442329,108.8137,36.36206,50.29917,0.4403985,-0.7836039,-0.001917887,-3.638407,35.94467,-15.6427,1008.076
23.544208527,119.5971,40.82347,63.5233,0.2068644,-1.088542,0.3188218,-3.041921,34.08097,-18.2441,1008.076
23.576490402,127.9016,10.82635,44.44886,0.03811966,-1.238947,0.489951,-3.041921,34.08097,-18.2441,1008.076
23.611255169,56.75585,-1.736044,-9.727427,-0.1173448,-1.266263,0.7004266,-2.792382,30.37547,-22.56072,1008.076
23.643537044,2.219027,-7.077997,-25.9986,0.2851841,-0.8225902,0.4777662,-1.781334,26.67891,-25.5812,1008.076
23.675819874,-11.04334,-1.207719,-7.960145,0.3407867,-0.6807855,0.2923287,-1.781334,26.67891,-25.5812,1008.076
23.710585117,-0.1979461,1.433906,1.12002,0.247248,-0.8011286,0.2739588,-1.415911,25.21686,-25.56825,1008.074
23.742866516,11.94889,-0.38588,4.532699,0.2675235,-0.9687757,0.3377427,-2.492918,25.59898,-25.12059,1008.074
23.777632713,1.909158,0.08374227,2.521656,0.2077386,-1.022954,0.3946092,-2.492918,25.59898,-25.12059,1008.078
23.809914589,-7.386891,-2.323072,-3.023948,0.2176808,-0.9446397,0.3621593,-1.791334,25.57973,-26.00308,1008.078
23.844679356,-10.98136,-2.9101,-1.43949,0.2454343,-0.8255574,0.3497237,-1.416572,25.58138,-25.57286,1008.076
23.876962185,-13.58426,-2.381775,-0.4644387,0.2304385,-0.8290451,0.3328158,-1.416572,25.58138,-25.57286,1008.076
23.909244060,-9.432022,-0.5619883,-1.073846,0.2354915,-0.9336827,0.2959521,-2.129479,25.23047,-25.12149,1008.076
23.944009304,-1.375446,-1.853449,-1.378549,0.2438209,-0.9752327,0.3087507,-2.119478,26.32965,-24.69961,1008.076
23.976291656,1.165474,-0.7967994,-3.267711,0.2442814,-0.9723949,0.2889449,-2.119478,26.32965,-24.69961,1008.076
24.011056900,6.247314,-1.853449,-1.43949,0.2611048,-0.9155893,0.3298405,-2.108155,26.6998,-24.2685,1008.076
24.043338776,0.2358696,0.5533645,2.277893,0.2726889,-0.8980511,0.3545706,-2.108155,26.6998,-24.2685,1008.076
24.078103542,-11.29123,0.4359589,3.435766,0.2305373,-0.8711501,0.3316093,-2.108155,26.6998,-24.2685,1008.076
24.110386372,-6.51926,-1.383827,1.363783,0.2025225,-0.8803872,0.3427363,-2.131464,26.32402,-25.13534,1008.074
24.142668247,-22.32254,-2.146964,-2.475482,0.2476359,-0.9241323,0.3907342,-1.744716,26.3313,-24.2694,1008.073
24.177433491,-39.86108,-3.321019,2.582597,0.2532683,-0.8661802,0.3509261,-2.106832,25.97077,-24.25927,1008.074
24.209715843,-52.0699,-4.61248,-0.6472608,0.2223564,-0.8964214,0.3068279,-2.106832,25.97077,-24.25927,1008.074
24.244481087,-53.18542,-7.78243,0.1449684,0.2523047,-0.9130808,0.2206165,-2.050874,28.18604,-22.10833,1008.078
24.276762962,-43.88937,-5.140805,1.912249,0.2490187,-0.9962435,0.1017083,-2.391665,29.29485,-21.24521,1008.077
24.311528683,-19.09991,-1.794747,-0.3425573,0.2317522,-1.074873,0.04715328,-2.391665,29.29485,-21.24521,1008.077
24.343810558,13.8081,-0.7380966,-0.4644387,0.2558843,-1.048603,0.06755506,-2.359016,31.13433,-19.96111,1008.077
24.376092434,31.53257,-2.264369,2.095071,0.2387495,-0.9381078,0.129617,-2.02021,31.11907,-20.83808,1008.077
24.410857677,47.4598,-4.377669,5.324928,0.2517848,-0.8995502,0.2153768,-2.02021,31.11907,-20.83808,1008.078
24.443140030,36.11862,-1.266422,2.704478,0.2186159,-0.9579634,0.2852147,-2.031534,30.74892,-21.26919,1008.078
24.477905273,25.52112,-2.440477,-2.414541,0.2172557,-0.9913111,0.2990478,-2.064844,29.27395,-22.55791,1008.078
24.510187149,20.74915,-2.9101,-4.303703,0.2219714,-0.9546548,0.2591206,-2.064844,29.27395,-22.55791,1008.078
24.542469501,26.01691,-2.968802,-4.303703,0.253778,-0.9168923,0.2370286,-2.075506,28.53928,-22.9844,1008.078
24.577234745,37.66796,-0.4445827,-1.012905,0.2803449,-0.907648,0.2292889,-2.097492,27.43447,-23.84201,1008.078
24.609516621,47.33585,2.960178,1.241901,0.2426602,-0.9090896,0.2641695,-2.097492,27.43447,-23.84201,1008.078
24.644282341,55.76427,0.5533645,3.131063,0.2343913,-0.8633798,0.3364796,-1.757363,26.69018,-24.70974,1008.078
24.676564217,53.40928,-2.968802,3.984233,0.2779301,-0.8226143,0.4768148,-1.790673,25.21522,-25.99846,1008.078
24.711329460,19.13784,1.72742,5.751513,0.2643854,-0.7933552,0.5543606,-1.790673,25.21522,-25.99846,1008.08
24.743611813,-12.59268,-0.09236607,1.790367,0.1952358,-0.8052917,0.5177004,-2.548875,23.38371,-27.27153,1008.08
24.775893688,-25.85504,-4.20156,0.9981383,0.2610679,-0.8663865,0.4263246,-2.922314,22.65303,-27.69251,1008.08
24.810658932,-24.73952,-4.084155,3.557648,0.2234363,-0.9306465,0.3453061,-2.922314,22.65303,-27.69251,1008.084
24.842941284,-12.09689,-3.908047,0.08402766,0.1871439,-0.9357467,0.2989452,-2.52292,22.30143,-26.38623,1008.084
24.877706528,-1.065577,-0.5032855,-2.597363,0.2499413,-0.9021121,0.3178552,-2.889004,24.128,-26.40379,1008.084
24.909988403,4.512052,4.89737,-2.109838,0.2773934,-0.8438488,0.3514846,-2.889004,24.128,-26.40379,1008.084
24.944753647,0.2358696,5.660506,1.973189,0.285592,-0.8101967,0.4217568,-2.537551,23.75386,-26.84042,1008.088
24.977035999,-16.0632,4.838667,6.29998,0.2802273,-0.7854792,0.437379,-2.175436,24.11439,-26.85055,1008.086
25.009317875,-31.68057,5.190884,12.75969,0.2976732,-0.8189892,0.3873567,-2.175436,24.11439,-26.85055,1008.086
25.044083118,-39.92306,6.36494,18.91471,0.2678522,-0.9161505,0.3012998,-1.801335,24.48055,-26.42496,1008.086
25.076365471,-29.51149,5.132181,22.51021,0.2234733,-0.9749624,0.2628694,-1.790673,25.21522,-25.99846,1008.086
25.111130714,-22.32254,4.192937,22.75397,0.1818591,-0.9429504,0.3197035,-1.393925,26.32168,-24.71064,1008.086
25.143412590,-21.08307,2.490556,21.83986,0.1587526,-0.9963406,0.2923771,-1.393925,26.32168,-24.71064,1008.088
25.178178310,-19.65768,4.192937,19.52411,0.1258069,-0.9708028,0.287759,-1.748024,28.15388,-24.29248,1008.088
25.210460186,-26.53675,7.128076,15.56297,0.1595747,-0.9500266,0.2496126,-1.724053,28.16515,-23.42103,1008.088
25.242742062,-27.21846,8.771754,14.7098,0.1441625,-0.986467,0.2194655,-1.724053,28.16515,-23.42103,1008.088
25.277507782,-28.58188,10.53284,14.03945,0.1152488,-1.025233,0.2284927,-1.000484,29.25072,-23.44591,1008.086
25.309789657,-23.1282,13.9376,12.57687,0.16946,-1.058084,0.1991827,-0.9658509,29.99665,-22.14796,1008.086
25.344554901,-26.10294,16.81403,17.08648,0.1654925,-1.002309,0.2391504,-0.9658509,29.99665,-22.14796,1008.086
25.376837253,-26.28886,18.69252,22.87585,0.1730566,-0.9497365,0.1809369,-0.9551886,30.73132,-21.72146,1008.084
25.409119129,-24.24373,22.09728,28.72616,0.2060433,-1.008823,0.1389542,-0.5804262,30.73296,-21.29125,1008.084
25.443884373,-9.246101,23.03653,35.06399,0.155869,-1.048074,0.1654283,-0.5804262,30.73296,-21.29125,1008.084
25.476166725,-6.581234,24.44539,33.60141,0.1424177,-1.073648,0.1986691,-0.2076485,31.82816,-20.87489,1008.081
25.510931969,-8.130575,25.20853,30.67626,0.1626813,-1.049345,0.2132668,0.1651292,32.92336,-20.45852,1008.081
25.543213844,-12.71663,28.31978,22.38832,0.2390794,-1.045225,0.2218274,0.1651292,32.92336,-20.45852,1008.079
25.577979088,-19.03794,32.95729,12.45499,0.1920049,-0.9976881,0.1521006,0.8913443,32.55086,-20.46494,1008.079
25.610261440,-22.13662,50.97905,-3.877118,0.3013309,-1.039216,0.08588115,1.653515,32.19527,-19.16417,1008.079
25.642543316,-22.94228,82.61985,-10.33683,0.3594984,-1.078533,0.1445118,1.653515,32.19527,-19.16417,1008.077
25.677308559,29.11559,82.38504,10.01736,-0.06475556,-0.9251122,0.3657796,2.050925,32.93722,-17.87174,1008.077
25.709590912,71.75347,73.75574,12.82063,-0.129648,-1.049776,0.4764016,2.800449,32.94051,-17.01132,1008.08
25.744356155,57.49953,54.97084,15.80673,0.03455352,-0.7877823,0.3939025,2.800449,32.94051,-17.01132,1008.08
25.776638031,61.77572,10.53284,61.99978,0.2566396,-0.2853401,0.2444809,3.105285,31.8148,-19.18162,1008.08
25.811403751,68.09702,8.47824,105.8162,0.3783175,-0.7483479,0.45865,3.460707,29.25357,-19.59055,1008.08
25.843685627,-33.60175,36.53817,41.34089,-0.02705564,-1.278287,0.5029207,3.460707,29.25357,-19.59055,1008.08
25.875967503,-131.5201,54.2077,34.82023,-0.5944113,-1.26741,-0.2349726,3.77885,27.40446,-21.31589,1008.078
25.910733223,-99.16988,78.33455,58.76992,-0.8401532,-1.129794,-0.544995,4.581608,24.51416,-18.67564,1008.076
25.943015099,-24.42965,31.07881,86.01042,-0.5359784,-1.247523,-0.2707599,4.581608,24.51416,-18.67564,1008.076
25.977780342,46.09638,47.63299,93.26237,-0.2527254,-0.9486172,-0.1285067,6.498067,27.46106,-14.8186,1008.078
26.010062695,44.11322,33.1334,96.18752,-0.2000337,-0.8801137,0.0496747,6.860845,27.45707,-14.82412,1008.078
26.044827938,13.18836,19.57306,103.3785,-0.2152485,-0.7550115,0.1364709,7.941821,24.88786,-15.24408,1008.076
26.077109814,-1.127551,10.59154,106.6693,-0.4216722,-0.7593027,0.187169,7.941821,24.88786,-15.24408,1008.078
26.109392643,4.388104,-0.38588,109.6554,-0.4623153,-0.7365563,0.2221935,8.660681,21.95812,-15.65391,1008.078
26.144157410,20.50126,0.5533645,114.165,-0.5887371,-0.640079,0.2384846,9.028749,19.03801,-15.6225,1008.078
26.176439285,25.95494,0.7881756,115.201,-0.6899807,-0.5565844,0.2580317,9.028749,19.03801,-15.6225,1008.084
26.211205483,9.345998,14.87684,111.9712,-0.7893538,-0.4562451,0.2486641,9.373509,15.74211,-16.45792,1008.084
26.243486881,-8.440443,19.16215,100.6971,-0.9161131,-0.4285558,0.2442604,10.09435,11.71883,-16.8539,1008.084
26.278252125,-30.1932,22.15599,90.09345,-0.8866948,-0.4068044,0.2119303,10.09435,11.71883,-16.8539,1008.084
26.310534954,-43.08372,27.08702,84.24314,-0.9142076,-0.4452839,0.1614932,10.45176,8.064044,-17.24899,1008.084
26.342816830,-38.86951,25.56075,77.05214,-0.9252914,-0.492071,0.07326517,10.10428,6.251088,-16.78467,1008.084
26.409864426,-5.899523,28.49589,61.99978,-0.9693792,-0.5316433,-0.1429619,10.4697,4.789037,-16.77172,1008.082
26.444629669,11.88692,36.94909,53.22432,-1.090706,-0.5748135,-0.2130445,11.56332,1.860945,-16.75134,1008.082
26.476911068,28.37191,38.94498,45.42391,-1.17815,-0.5840273,-0.1447436,11.56332,1.860945,-16.75134,1008.082
26.509193897,45.47665,42.23233,35.42963,-1.084648,-0.4281626,-0.06864242,11.22915,-0.6754069,-15.84206,1008.08
26.543959141,53.71914,26.26518,30.92002,-0.9614769,-0.3452883,0.006496335,11.59325,-1.408427,-15.83834,1008.08
26.576241016,33.76362,23.74096,29.94497,-0.9398252,-0.2977831,0.01203761,11.59325,-1.408427,-15.83834,1008.084
26.611006737,-0.94163,22.21469,28.54333,-1.124185,-0.2538867,-0.01632179,11.97198,-3.593876,-15.38044,1008.084
26.643288612,-23.62399,22.68431,30.61532,-0.9605968,-0.3173029,-0.01848525,11.23709,-5.049596,-15.78667,1008.084
26.678053856,-23.06623,23.50615,29.57933,-0.9910538,-0.3354444,-0.06251569,11.23709,-5.049596,-15.78667,1008.084
26.710336208,-9.679916,21.74507,26.53229,-0.9369359,-0.3222579,-0.07270956,10.88894,-6.498036,-15.32696,1008.082
26.742618084,-3.854392,15.46387,28.11675,-0.9495448,-0.2985011,-0.0488588,11.62714,-6.864894,-14.89765,1008.084
26.777383327,-5.403734,15.40517,23.66808,-0.9680938,-0.2425899,-0.09926198,11.62714,-6.864894,-14.89765,1008.084
26.809665680,-7.944654,11.64819,19.88976,-1.015471,-0.2470824,-0.09966886,11.99245,-8.266193,-14.88547,1008.082
26.844430923,-9.865838,11.8243,17.87871,-1.008261,-0.2272058,-0.09522044,12.01642,-8.254924,-14.01402,1008.084
26.876712799,-7.324917,9.476188,16.29425,-0.9564921,-0.2547876,-0.1385149,12.01708,-8.61944,-14.0094,1008.081
26.911478519,-7.138997,3.488503,16.29425,-0.9129861,-0.2459214,-0.1293729,12.01708,-8.61944,-14.0094,1008.081
26.943760395,-8.564391,0.7881756,14.83168,-0.9342967,-0.2353751,-0.1408695,11.63232,-9.720268,-14.86149,1008.081
26.976042271,-11.53913,3.488503,17.93965,-0.9541731,-0.2156071,-0.1455487,12.02105,-10.80653,-13.98171,1008.081
27.010807991,-7.758733,3.194989,13.73475,-1.050916,-0.199407,-0.1384799,12.02105,-10.80653,-13.98171,1008.082
27.043089867,-5.527681,-0.5619883,12.69875,-1.004506,-0.1934557,-0.1351621,11.64695,-11.1727,-14.4073,1008.086
27.077855110,-7.015049,2.431853,6.543743,-1.00166,-0.183416,-0.1737862,11.28351,-10.80419,-14.4064,1008.084
27.110137463,-6.209392,3.429801,5.263988,-1.059153,-0.1843534,-0.1161384,11.28351,-10.80419,-14.4064,1008.084
27.144902706,-7.20097,-1.853449,3.923292,-1.017194,-0.1421723,-0.128075,11.63431,-10.81382,-14.84765,1008.084
27.177184582,-9.803864,-1.736044,4.349877,-0.9909289,-0.2118292,-0.1420639,11.97443,-11.5581,-15.71538,1008.084
27.209466934,-3.916366,-2.205666,2.582597,-0.9726561,-0.1706624,-0.1476705,11.97443,-11.5581,-15.71538,1008.09
27.244232178,-5.651628,3.664612,5.568691,-0.9856124,-0.2123127,-0.1464291,11.64828,-11.90173,-14.39807,1008.09
27.276514053,-1.499393,3.899423,3.435766,-0.986132,-0.200247,-0.1555447,11.99973,-12.27587,-14.8347,1008.092
27.311279774,8.726261,0.02503949,3.496707,-1.030159,-0.1804367,-0.1272977,11.99973,-12.27587,-14.8347,1008.092
27.343561649,2.281,1.844826,6.909387,-1.00982,-0.1914943,-0.1230535,11.99841,-11.54683,-14.84393,1008.092
27.375843525,-5.589655,1.786123,5.629632,-0.9954219,-0.1469445,-0.1266987,11.27285,-11.53886,-14.8329,1008.092
27.410609245,-10.73347,-0.3271772,5.873395,-1.001632,-0.1793889,-0.1278367,11.27285,-11.53886,-14.8329,1008.093
27.442891121,-14.57584,2.314448,5.934336,-0.9958671,-0.17513,-0.1611822,11.63629,-11.90736,-14.8338,1008.095
27.477656364,-6.705181,-0.38588,5.629632,-1.006017,-0.173184,-0.1495467,11.99973,-12.27587,-14.8347,1008.095
27.509938717,-3.110708,0.67077,4.59364,-0.9877818,-0.1165364,-0.1565155,11.99973,-12.27587,-14.8347,1008.095
27.544703960,-7.88268,-1.44253,2.826359,-1.003201,-0.1236872,-0.1115631,11.98774,-12.2815,-15.27042,1008.097
27.576985836,-9.679916,-1.501233,0.7543755,-1.005137,-0.1300526,-0.1318996,11.99841,-11.54683,-14.84393,1008.097
27.609268188,-2.243077,-0.6206911,1.241901,-0.9823803,-0.1562508,-0.1707726,11.99841,-11.54683,-14.84393,1008.098
27.644033432,-7.88268,-0.7380966,3.374826,-0.9988127,-0.1513766,-0.1465376,11.63695,-12.27188,-14.82918,1008.098
27.676315308,-9.865838,-0.914205,-0.403498,-0.9974741,-0.1083455,-0.1588652,11.63761,-12.63639,-14.82457,1008.102
27.711081028,1.537316,0.4359589,0.3277905,-0.9817638,-0.1938141,-0.1173259,11.97642,-12.65165,-15.70154,1008.102
27.743362904,2.095079,1.433906,2.765419,-0.9767184,-0.09915362,-0.1772283,11.97642,-12.65165,-15.70154,1008.102
27.778128147,2.033106,1.433906,1.973189,-0.9918901,-0.2030115,-0.1096213,11.98774,-12.2815,-15.27042,1008.101
27.810410976,-2.181103,6.36494,4.471758,-0.9960285,-0.1117829,-0.1748413,11.98973,-13.37505,-15.25658,1008.101
27.842692375,-1.747288,4.075531,2.399774,-1.036026,-0.158245,-0.1426289,11.98973,-13.37505,-15.25658,1008.101
27.877457619,5.875473,5.132181,2.826359,-0.9820125,-0.1024859,-0.156448,12.35251,-13.37904,-15.26209,1008.101
27.909740448,11.08126,7.83251,0.9981383,-0.9905659,-0.161017,-0.1422592,12.37515,-12.63874,-14.39987,1008.099
27.944505215,17.0927,8.184726,3.070122,-0.9925452,-0.1387307,-0.1329429,12.37515,-12.63874,-14.39987,1008.097
27.976787090,13.00244,11.06116,1.546605,-0.9994084,-0.1103064,-0.1646734,12.00237,-13.73393,-14.81623,1008.099
28.011553288,14.79968,9.417484,4.410818,-1.000694,-0.1834165,-0.1747552,12.38912,-13.72665,-13.9503,1008.099
28.043835163,16.03915,9.769701,3.192003,-0.982954,-0.1233959,-0.1855712,12.38912,-13.72665,-13.9503,1008.099
28.076117516,4.574026,11.00246,3.923292,-0.9969597,-0.1306949,-0.1855825,12.02568,-13.35814,-13.9494,1008.099
28.110882759,-4.722023,11.06116,5.934336,-0.988772,-0.1234763,-0.2044132,11.67555,-13.71304,-13.50354,1008.099
28.143164635,-3.110708,10.12192,6.909387,-0.9959986,-0.1263188,-0.1802419,11.67555,-13.71304,-13.50354,1008.105
28.177930355,2.095079,8.654348,6.29998,-1.013834,-0.1510617,-0.1837282,12.03833,-13.71703,-13.50905,1008.105
28.210212231,1.59929,4.721262,4.959284,-1.044896,-0.1091139,-0.2027603,12.0623,-13.70576,-12.6376,1008.105
28.242494106,0.8556062,4.486451,4.410818,-0.9824884,-0.1254236,-0.2131397,12.0623,-13.70576,-12.6376,1008.105
28.277259826,5.99942,4.545154,4.471758,-1.002824,-0.1187509,-0.2261108,12.06362,-14.43479,-12.62837,1008.105
28.309541702,-2.986761,8.184726,8.676667,-0.98731,-0.1244024,-0.1933026,12.0523,-14.80494,-13.05948,1008.105
28.344306946,-4.474129,10.70895,9.7736,-0.9796489,-0.1031922,-0.2241385,12.0523,-14.80494,-13.05948,1008.105
28.376589298,4.388104,8.008617,8.859488,-0.9812482,-0.04810388,-0.24606,12.42574,-14.07426,-12.6385,1008.105
28.411354542,6.123367,8.654348,10.20018,-1.007377,-0.05802254,-0.2948875,11.71349,-14.78968,-12.18251,1008.105
28.443636417,-2.614919,6.247534,6.178098,-0.9884247,-0.07614988,-0.2336347,11.71349,-14.78968,-12.18251,1008.105
28.475918770,-6.705181,-0.5032855,-0.03785376,-0.9994243,-0.1157475,-0.1995119,11.70217,-15.15983,-12.61362,1008.103
28.510684013,-4.907945,-5.258211,-5.644399,-1.004758,-0.1192436,-0.2270763,12.07759,-15.5227,-12.17879,1008.103
28.542965889,2.714816,-3.731939,-4.669347,-0.9767975,-0.0814006,-0.222087,12.07759,-15.5227,-12.17879,1008.103
28.577731609,7.85863,-1.618638,-3.877118,-0.9820212,-0.1220691,-0.2232739,12.07693,-15.15819,-12.18341,1008.103
28.610013485,16.411,1.257798,-4.120881,-0.9830289,-0.1022046,-0.2154237,11.70151,-14.79532,-12.61824,1008.103
28.644778728,19.07586,2.666664,-1.805134,-0.9873631,-0.1124057,-0.2232074,11.71416,-15.1542,-12.1779,1008.101
28.677061081,19.13784,4.310342,-0.8910236,-0.987386,-0.1027272,-0.2231524,11.71416,-15.1542,-12.1779,1008.101
28.709342956,14.92363,3.899423,1.424723,-0.9772806,-0.08921856,-0.2438852,11.71416,-15.1542,-12.1779,1008.101
28.744108677,12.75455,3.136286,-0.2206759,-0.999958,-0.1144904,-0.2565494,12.46434,-15.51542,-11.31286,1008.103
28.776390552,4.264157,1.72742,1.546605,-1.000026,-0.08642745,-0.25784,12.46434,-15.51542,-11.31286,1008.101
28.811155796,-4.226234,6.188831,11.419,-0.9752682,-0.1186983,-0.2339049,11.73879,-15.50744,-11.30182,1008.103
28.843438148,-1.313472,1.610015,14.46603,-1.128473,-0.1549718,-0.2410326,11.7268,-15.51308,-11.73755,1008.103
28.878203392,-3.606497,2.960178,12.02841,-0.968626,-0.05910001,-0.2171434,11.7268,-15.51308,-11.73755,1008.103
28.910485268,-12.71663,5.601803,14.03945,-1.018935,-0.06617112,-0.262035,11.72614,-15.14856,-11.74217,1008.101
28.942767620,-14.69978,6.423642,18.61,-0.9879639,-0.08357287,-0.2825052,12.10355,-16.60498,-11.29349,1008.103
29.009814739,-22.63241,17.75328,14.46603,-0.9005421,-0.02216419,-0.2281993,11.35469,-16.97279,-12.1493,1008.105
29.044580460,-19.65768,10.82635,19.21941,-0.9715339,-0.0674432,-0.2490916,12.08289,-18.43883,-12.14187,1008.105
29.076862335,-18.29426,11.53078,19.64599,-1.017133,-0.01491339,-0.2748003,12.08289,-18.43883,-12.14187,1008.105
29.109145165,-10.17571,17.22495,22.81491,-1.081538,0.006994746,-0.3243311,11.70812,-18.44047,-12.57208,1008.104
29.143910408,-11.6011,23.62356,27.32452,-1.05704,0.05916901,-0.3714643,11.71011,-19.53402,-12.55823,1008.104
29.176191807,-7.572812,30.19827,28.90898,-1.023228,0.07132959,-0.3816202,11.71011,-19.53402,-12.55823,1008.104
29.210957050,-10.60952,29.25902,25.37442,-1.044898,0.04916064,-0.3362563,11.34799,-19.89455,-12.5481,1008.104
29.243239880,-12.15886,22.74301,20.86481,-0.9959667,0.04089095,-0.2474561,11.71275,-20.99208,-12.53977,1008.104
29.278004646,-12.28281,7.83251,18.91471,-0.8943353,0.0122209,-0.2255999,11.71275,-20.99208,-12.53977,1008.104
29.310287475,-5.83755,-0.4445827,19.58505,-0.8262031,0.02687798,-0.2421003,11.7507,-22.06873,-11.21874,1008.104
29.342569351,9.036129,-13.00698,9.895481,-0.7855464,0.0007669593,-0.2703759,12.47625,-22.0767,-11.22977,1008.104
29.377334595,33.26783,-22.92775,-0.6472608,-0.8100826,-0.04472239,-0.2497938,12.47625,-22.0767,-11.22977,1008.104
29.409616947,47.27388,-21.63629,-8.874256,-0.8459817,0.005024862,-0.2479832,11.74069,-23.16791,-11.64062,1008.104
29.444382191,47.21191,-14.06363,-12.10411,-0.927791,0.01468018,-0.3284863,12.11546,-23.16626,-11.21041,1008.102
29.476664066,38.72152,-19.34688,-18.13725,-1.053596,0.0364537,-0.3657995,12.11546,-23.16626,-11.21041,1008.106
29.511429787,25.14928,-21.63629,-18.56383,-1.049208,0.03173168,-0.3348958,11.38924,-22.79377,-11.20399,1008.106
29.543711662,13.87007,-18.58374,-13.74951,-1.02261,0.03475224,-0.32285,11.00183,-22.43653,-12.07455,1008.106
29.575994015,0.9175798,-19.46428,-12.95728,-1.033211,0.03340764,-0.2822259,11.00183,-22.43653,-12.07455,1008.106
29.610759258,3.582447,-20.93185,-8.203909,-1.022076,0.02567692,-0.2880951,12.09016,-22.4485,-12.09109,1008.104
29.643041134,9.469945,-16.76396,-11.79941,-0.9885852,-0.01670857,-0.2574683,12.07685,-21.7251,-12.53605,1008.106
29.677806854,19.13784,-14.82676,-7.046035,-0.9891519,0.009822577,-0.2819715,11.70275,-22.09127,-12.96165,1008.104
29.710088730,4.635999,-10.48276,-11.19,-0.9745814,-0.006484686,-0.2511556,11.70275,-22.09127,-12.96165,1008.104
29.744853973,-9.493996,-9.48481,-7.106976,-0.9247094,-0.03049941,-0.2397971,11.68944,-21.36787,-13.40661,1008.104
29.777136326,-9.122153,-8.545566,-7.655442,-0.8632753,-0.03462351,-0.223516,12.06355,-21.00171,-12.98101,1008.104
29.809418201,-11.78702,-7.077997,-6.375687,-0.766634,-0.003841504,-0.2182315,12.06355,-21.00171,-12.98101,1008.104
29.844183445,-5.83755,-5.551724,-4.05994,-0.7741985,0.1126171,-0.2610624,12.77645,-20.6508,-13.43238,1008.104
29.876465797,-14.76176,15.9922,8.128201,-0.779825,0.03709785,-0.2643804,12.76579,-21.38547,-13.85888,1008.104
29.911231041,1.413369,61.83907,-18.74665,-0.5889207,-0.3003317,-0.1801749,12.76579,-21.38547,-13.85888,1008.104
29.943512917,52.1698,-14.82676,-3.816178,-0.9232312,0.0004050188,-0.117798,12.38971,-20.65808,-14.29832,1008.106
29.975795269,13.93205,-7.899835,-3.023948,-0.9819809,0.01585592,-0.3641373,12.77711,-21.01532,-13.42777,1008.106
30.010560513,0.6077116,-1.149016,-1.805134,-0.9898751,-0.09325697,-0.2825561,12.77711,-21.01532,-13.42777,1008.106
30.042842865,-26.84662,-0.2097716,-0.58632,-0.9899529,-0.04520062,-0.2387732,13.14055,-21.38382,-13.42867,1008.106
30.077608109,-25.97899,0.08374227,4.898344,-0.9856269,-0.04187439,-0.2605183,13.12724,-20.66043,-13.87363,1008.104
30.109889984,-11.41518,-1.207719,4.532699,-0.9798087,-0.04472533,-0.2499115,13.12724,-20.66043,-13.87363,1008.104
30.144655705,-3.730445,0.2598506,4.654581,-0.9696209,-0.06703728,-0.2737488,12.76513,-21.02095,-13.86349,1008.106
30.176937580,1.103501,2.138339,7.518794,-0.9734625,-0.06693695,-0.2408661,12.77711,-21.01532,-13.42777,1008.106
30.209219456,-6.705181,0.4946617,1.851308,-1.069011,0.03225394,-0.3068107,12.77711,-21.01532,-13.42777,1008.106
30.243985653,-11.66307,0.6120673,10.87053,-1.000663,-0.03380021,-0.2928304,12.76645,-21.74998,-13.85426,1008.11
30.276267052,-5.83755,1.492609,7.884438,-0.9924618,-0.0113784,-0.2521118,13.12857,-21.38946,-13.86439,1008.11
30.311032295,-8.006627,2.138339,7.15315,-0.9827991,-0.009918619,-0.2579255,13.12857,-21.38946,-13.86439,1008.109
30.343315124,-4.969918,1.433906,4.837403,-0.9793921,-0.02301105,-0.268643,12.76778,-22.47902,-13.84503,1008.107
30.378079891,2.590869,1.199095,1.485664,-0.9881153,-0.009922359,-0.25453,12.38037,-22.12178,-14.71559,1008.107
30.410362720,-0.5078144,5.073478,4.227996,-0.9925131,0.003069024,-0.2728174,12.38037,-22.12178,-14.71559,1008.107
30.442644596,-8.564391,-7.136699,1.059079,-1.372259,0.06679093,-0.2832392,12.76778,-22.47902,-13.84503,1008.107
30.477409840,-10.29965,-0.8555022,1.607545,-1.00214,-0.02267727,-0.2937309,12.38037,-22.12178,-14.71559,1008.105
30.509692192,-12.28281,-3.908047,0.3887312,-0.9929744,0.0007167961,-0.2525253,13.10658,-22.49427,-14.722,1008.105
30.544457436,-12.84057,-4.964696,-0.5253794,-0.965458,0.01673248,-0.2621623,13.10658,-22.49427,-14.722,1008.109
30.576739311,-9.246101,-5.962644,-1.43949,-1.161315,0.1704562,-0.4305531,13.47002,-22.86278,-14.7229,1008.109
30.611505031,-24.67754,-4.553777,2.460715,-0.9043662,-0.04544804,-0.2413763,12.71983,-22.50155,-15.58794,1008.109
30.643786907,-7.138997,1.551312,4.715521,-0.941927,-0.1094148,-0.2358577,12.71983,-22.50155,-15.58794,1008.107
30.676069260,4.759946,-11.24589,-1.683253,-0.9737539,0.05597762,-0.2411335,12.35706,-22.49757,-15.58242,1008.107
30.710834503,-14.76176,-10.24795,-5.888161,-0.9399369,0.05203589,-0.2905395,12.35838,-23.2266,-15.57319,1008.107
30.743116379,-2.614919,-8.956485,-3.572415,-0.9983442,0.02101512,-0.2557824,12.35838,-23.2266,-15.57319,1008.107
30.777882099,4.574026,-5.903941,-4.120881,-0.9992961,0.05186186,-0.148765,12.34573,-22.86771,-16.01353,1008.107
30.810163975,33.88757,-21.75369,7.092209,-0.865055,-0.01688563,0.0144405,12.70917,-23.23622,-16.01443,1008.107
30.842446327,37.29612,-34.5509,6.665624,-1.132279,0.05242498,-0.1557268,12.70917,-23.23622,-16.01443,1008.107
30.877211571,14.67573,-27.03694,9.468896,-0.8861044,0.04796103,-0.110356,13.04732,-22.88696,-16.89602,1008.103
30.909493446,-2.30505,-11.65681,5.081166,-0.9799283,0.01439749,-0.2249196,13.03864,-24.71517,-17.30867,1008.103
30.944259167,-20.7732,-8.545566,3.74047,-0.9390811,-0.07298572,-0.198432,13.03864,-24.71517,-17.30867,1008.107
30.976541042,-3.234655,-7.371511,2.704478,-0.9885194,-0.0374487,-0.2372819,13.37744,-24.73043,-18.18563,1008.107
31.011306286,4.078236,-3.790641,-2.475482,-1.010855,0.01732561,-0.1914791,13.37744,-24.73043,-18.18563,1008.105
31.043588638,-12.34478,1.786123,-1.744193,-0.9900559,0.02180921,-0.171194,13.37744,-24.73043,-18.18563,1008.109
31.075870514,-16.00123,2.431853,-3.816178,-0.9919905,0.02082436,-0.1745795,14.47842,-25.10128,-17.76184,1008.109
31.110635757,-8.502417,1.022987,-2.719245,-1.008422,0.02179107,-0.1610023,14.45379,-24.74803,-18.63791,1008.103
31.142918587,1.661264,-1.677341,-0.6472608,-0.9972612,0.004883732,-0.1616059,14.45379,-24.74803,-18.63791,1008.103
31.177683353,4.759946,-1.149016,-0.403498,-0.9672331,-0.01340019,-0.1559733,13.74022,-24.73442,-18.19115,1008.103
31.209966183,-11.72505,9.417484,-3.999,-0.9866059,-0.03019898,-0.2415958,14.103,-24.73841,-18.19667,1008.103
31.244731426,-30.00728,16.81403,-6.375687,-0.9663732,0.01303519,-0.20997,14.103,-24.73841,-18.19667,1008.103
31.277012825,-36.20464,19.86658,-2.902067,-1.048945,-0.02631096,-0.1839101,13.72691,-24.01103,-18.63611,1008.103
31.309295654,-17.55057,17.34236,-0.403498,-1.054373,0.01818051,-0.1879963,13.35215,-24.01267,-19.06632,1008.102
31.344060898,-6.02347,10.59154,0.3277905,-0.9901435,0.05125514,-0.1927811,13.72559,-23.28199,-18.64534,1008.1
31.376342773,-6.209392,5.190884,4.654581,-0.9825078,0.0958167,-0.1872264,13.72559,-23.28199,-18.64534,1008.1
31.411108494,-7.758733,1.492609,6.36092,-1.010493,0.06617756,-0.1989371,13.72625,-23.64651,-18.64072,1008.102
31.443390369,-7.138997,1.786123,3.435766,-0.9920328,0.02064909,-0.2263083,14.10102,-23.64486,-18.21051,1008.102
31.478156090,-5.155839,0.9642839,2.582597,-0.9823595,0.01824399,-0.2302104,14.10102,-23.64486,-18.21051,1008.102
31.510437965,2.652843,-1.794747,-0.8300829,-0.9886768,0.03617723,-0.2165585,14.08837,-23.28598,-18.65086,1008.102
31.542719841,8.726261,-5.140805,-2.475482,-0.9935846,0.06860464,-0.2110457,13.73824,-23.64087,-18.205,1008.106
31.577485561,23.29007,-14.59195,-4.364644,-0.9887578,0.08128743,-0.1853617,13.73824,-23.64087,-18.205,1008.104
31.609767437,41.75822,-16.70525,4.349877,-1.002135,0.02523422,-0.1498772,14.10168,-24.00938,-18.2059,1008.104
31.644532680,50.9923,-18.87726,6.848446,-0.9779325,0.02101023,-0.1315827,14.10102,-23.64486,-18.21051,1008.104
31.676815033,39.15533,-10.42405,9.712659,-1.13631,0.09376641,-0.2338001,14.10102,-23.64486,-18.21051,1008.103
31.709096909,13.87007,-5.316913,4.715521,-1.017169,0.02500791,-0.2039912,14.09101,-24.74405,-18.63239,1008.101
31.743862629,0.3598169,-4.964696,1.668486,-1.035367,-0.05005356,-0.2043788,13.75353,-25.45782,-17.74619,1008.101
31.776144504,5.441657,-2.323072,0.9371976,-1.053854,0.001713584,-0.192442,13.75353,-25.45782,-17.74619,1008.101
31.810909748,2.714816,-3.790641,1.546605,-1.096557,0.06596261,-0.1895675,14.11432,-24.36826,-17.76555,1008.101
31.843192100,-5.961497,-1.853449,-0.03785376,-0.9456211,0.04420202,-0.1697121,13.3781,-25.09495,-18.18102,1008.101
31.877957344,-6.643207,-4.729886,2.582597,-0.98185,0.0339899,-0.1537386,13.3781,-25.09495,-18.18102,1008.099
31.910239696,-4.102287,-8.075943,4.715521,-0.9707406,0.03592628,-0.1629369,14.103,-24.73841,-18.19667,1008.098
31.942521572,-1.499393,-8.545566,4.59364,-0.982341,0.03053713,-0.1726113,14.43048,-25.12382,-19.50475,1008.098
31.977286816,-1.065577,-6.960591,3.435766,-0.9900312,0.01360372,-0.164956,14.43048,-25.12382,-19.50475,1008.102
32.009569645,0.6077116,-3.321019,3.009181,-0.9953704,0.01546034,-0.183788,14.4418,-24.75367,-19.07364,1008.098
32.044334412,1.847185,-2.851397,0.5715533,-0.9822882,0.005833837,-0.17952,13.35413,-25.10622,-19.05247,1008.102
32.076616287,-2.986761,0.8468784,-1.927016,-0.9798761,0.01803397,-0.1514164,13.35413,-25.10622,-19.05247,1008.102
32.111382484,-2.924787,3.488503,-0.7691422,-1.03217,0.04788823,-0.151134,14.07903,-24.74968,-19.06812,1008.102
32.143663883,3.768368,-0.1510688,1.424723,-1.026323,0.02414482,-0.1653013,14.08035,-25.47871,-19.05889,1008.1
32.175946713,4.14021,0.02503949,1.668486,-0.9997478,0.03439974,-0.1604659,14.08035,-25.47871,-19.05889,1008.098
32.210711956,-1.747288,-1.736044,0.2668498,-0.9891019,0.03055381,-0.161961,14.09167,-25.10856,-18.62778,1008.098
32.242993832,-5.093866,-1.794747,-1.866075,-0.9876438,0.02619113,-0.165373,14.07837,-24.38516,-19.07273,1008.098
32.277759552,-9.122153,-0.6206911,-4.85217,-0.9673631,0.03834904,-0.1648641,13.35413,-25.10622,-19.05247,1008.098
32.310041427,-18.10833,4.779964,-8.752375,-0.9440848,0.003024736,-0.1839693,13.35413,-25.10622,-19.05247,1008.098
32.344807148,-27.65228,20.68842,-10.03213,-1.028747,0.02166749,-0.1802967,14.06638,-24.3908,-19.50846,1008.096
32.377089023,-13.02649,14.23111,-7.53356,-1.107087,0.03999171,-0.1331301,14.05374,-24.03192,-19.9488,1008.096
32.409370899,5.069815,1.786123,-3.328652,-1.008493,0.06303475,-0.1283772,14.05374,-24.03192,-19.9488,1008.102
32.444136619,17.46455,-2.792694,-1.927016,-0.9963136,0.007737651,-0.1770618,14.41651,-24.03591,-19.95432,1008.102
32.476418495,11.57705,2.490556,-2.780185,-0.9997225,0.01153716,-0.1954035,14.07704,-23.65613,-19.08197,1008.102
32.511183739,-5.031892,1.72742,-1.378549,-1.021506,0.02505771,-0.1856109,14.07704,-23.65613,-19.08197,1008.102
32.543466091,-6.02347,0.4359589,0.3277905,-0.9967951,0.008722144,-0.1717373,14.08903,-23.6505,-18.64624,1008.102
32.575747967,-1.437419,-0.7380966,0.9981383,-1.007931,0.01547354,-0.1692577,14.07771,-24.02065,-19.07735,1008.1
32.610513687,-2.862813,-0.8555022,1.485664,-1.001184,0.02077516,-0.1813281,14.07771,-24.02065,-19.07735,1008.104
32.642795563,-6.02347,-0.7967994,1.912249,-1.000692,0.01885557,-0.1769891,14.42783,-23.66575,-19.52321,1008.104
32.677560806,-5.031892,-0.7967994,1.790367,-0.9987614,0.02128893,-0.1745622,14.80326,-24.02863,-19.08838,1008.103
32.709843159,-2.676893,-0.4445827,0.9981383,-1.003604,0.02466424,-0.1740492,14.80326,-24.02863,-19.08838,1008.103
32.744608402,-0.1979461,0.08374227,0.08402766,-0.9992441,0.02226851,-0.1706881,14.44048,-24.02464,-19.08287,1008.103
32.776890755,0.6696852,0.3185534,-0.3425573,-0.9973188,0.02468058,-0.1745461,14.80392,-24.39314,-19.08377,1008.101
32.809172630,1.041527,0.4946617,-0.5253794,-0.9982865,0.02614106,-0.1711516,14.80392,-24.39314,-19.08377,1008.101
32.843937874,0.8556062,0.7881756,-0.8300829,-0.9973077,0.01983965,-0.1750571,14.42717,-23.30124,-19.52782,1008.103
32.876220703,1.661264,0.67077,-0.7082015,-0.9987562,0.01740112,-0.1794188,14.06506,-23.66177,-19.51769,1008.103
32.910985470,1.413369,0.3772562,-0.5253794,-0.9997204,0.01789867,-0.1745795,14.06506,-23.66177,-19.51769,1008.102
32.943268299,0.6077116,0.142445,-0.1597352,-1.002628,0.01933069,-0.1779491,14.06506,-23.66177,-19.51769,1008.098
32.978033543,0.2978432,0.142445,-0.2206759,-1.002152,0.02272121,-0.1774474,14.42717,-23.30124,-19.52782,1008.098
33.010314941,-0.1359724,-0.1510688,0.02308695,-1.003589,0.01788597,-0.1750546,14.42717,-23.30124,-19.52782,1008.102
33.042597771,-0.2599197,-0.3271772,-0.03785376,-0.9992408,0.01935019,-0.1750557,13.70294,-24.02229,-19.50756,1008.1
33.077363014,-1.003604,-0.2097716,0.1449684,-1.001662,0.01981738,-0.1779484,14.42783,-23.66575,-19.52321,1008.1
33.109645367,-0.94163,0.2011478,0.3277905,-0.994883,0.01889836,-0.1692664,14.42783,-23.66575,-19.52321,1008.104
33.144410610,0.6077116,0.4359589,0.2668498,-1.005024,0.009151449,-0.1809025,14.43982,-23.66012,-19.08748,1008.104
33.176692486,0.2978432,0.3772562,-0.4644387,-0.9997602,0.03386012,-0.1769058,14.81458,-23.65848,-18.65727,1008.104
33.211458206,0.6077116,0.08374227,-0.403498,-1.000202,0.01595174,-0.1774901,14.06506,-23.66177,-19.51769,1008.106
33.243740082,0.2358696,-0.2684744,-0.4644387,-1.006022,0.0231908,-0.1784033,14.06506,-23.66177,-19.51769,1008.106
33.276022434,-0.07399875,-0.38588,-0.7082015,-1.000681,0.01450185,-0.1765305,14.45114,-23.28997,-18.65637,1008.106
33.310787678,0.1119222,-0.1510688,-0.6472608,-1.001172,0.01837845,-0.1745736,14.41651,-24.03591,-19.95432,1008.106
33.343069553,-0.01202509,-0.6206911,-0.3425573,-1.003589,0.01495455,-0.1832898,14.41651,-24.03591,-19.95432,1008.107
33.377835274,-0.1359724,-0.2097716,-0.2206759,-1.002141,0.01788192,-0.177475,14.08903,-23.6505,-18.64624,1008.107
33.410117149,-1.251498,0.02503949,0.3887312,-1.001654,0.01740593,-0.175545,14.43982,-23.66012,-19.08748,1008.107
33.442399502,-0.6937354,0.08374227,0.4496719,-0.9929488,0.01841505,-0.1707236,14.43982,-23.66012,-19.08748,1008.107
33.477164745,-0.569788,-0.1510688,0.1449684,-0.9953681,0.01937927,-0.169746,14.42783,-23.66575,-19.52321,1008.113
33.509446621,-0.5078144,0.02503949,0.1449684,-0.9987572,0.01935158,-0.1750567,14.79061,-23.66974,-19.52872,1008.113
33.544212341,-0.2599197,0.08374227,-0.03785376,-1.001175,0.01836534,-0.1784412,14.79061,-23.66974,-19.52872,1008.113
33.576494217,-0.3218934,0.3772562,-0.1597352,-0.9982904,0.02710237,-0.1730799,14.07704,-23.65613,-19.08197,1008.111
33.611259460,0.1119222,0.4946617,0.08402766,-0.9987546,0.01789651,-0.1760319,14.80392,-24.39314,-19.08377,1008.111
33.643542290,0.7936325,0.2598506,-0.3425573,-1.009402,0.02075821,-0.1793767,14.80392,-24.39314,-19.08377,1008.111
33.675823688,1.227448,0.3185534,-0.7082015,-0.9963457,0.02030997,-0.1798909,14.07771,-24.02065,-19.07735,1008.111
33.710589886,2.528895,1.140392,-0.3425573,-1.001175,0.01836698,-0.1779577,15.15273,-23.30922,-19.53886,1008.111
33.742871761,1.661264,-0.2684744,-0.09879446,-1.004577,0.02317366,-0.1846912,15.15273,-23.30922,-19.53886,1008.111
33.777637482,-1.499393,-0.6793938,0.02308695,-1.003585,0.0130172,-0.1837842,14.07704,-23.65613,-19.08197,1008.111
33.809919357,-2.428998,-0.6793938,0.8153161,-1.000689,0.01837819,-0.1750581,14.06373,-22.93274,-19.52692,1008.111
33.844684601,-3.234655,-0.8555022,0.9981383,-1.00457,0.02222382,-0.1793788,14.06373,-22.93274,-19.52692,1008.111
33.876966953,-3.358603,-0.2684744,0.8762569,-0.9992458,0.02128427,-0.1755281,14.44048,-24.02464,-19.08287,1008.111
33.909248829,-0.569788,0.3185534,0.02308695,-1.00214,0.01984057,-0.1706957,14.0644,-23.29725,-19.52231,1008.111
33.944014549,1.351395,0.08374227,-0.5253794,-1.000689,0.01935587,-0.1721519,14.0644,-23.29725,-19.52231,1008.111
33.976296425,2.157053,0.02503949,-1.012905,-1.002621,0.01789364,-0.1736064,14.06506,-23.66177,-19.51769,1008.111
34.011061668,1.785211,0.2598506,-0.7082015,-1.005028,0.01304253,-0.1750791,14.07704,-23.65613,-19.08197,1008.111
34.043344021,1.723237,0.2011478,-0.5253794,-1.003584,0.01546305,-0.1760353,14.43982,-23.66012,-19.08748,1008.11
34.078109264,-0.01202509,-0.2097716,-0.2206759,-1.007466,0.01783887,-0.1856822,14.43982,-23.66012,-19.08748,1008.11
34.110391617,-0.1979461,-0.7380966,0.1449684,-0.9963322,0.01547887,-0.1775011,14.07704,-23.65613,-19.08197,1008.11
34.142673492,-1.313472,0.142445,0.205909,-1.004073,0.01788295,-0.175537,14.43982,-23.66012,-19.08748,1008.108
34.177438736,-0.1979461,-0.09236607,0.8762569,-1.00115,0.01065361,-0.1692998,14.43982,-23.66012,-19.08748,1008.108
34.209721088,-2.676893,0.5533645,0.5106126,-1.005059,0.02708793,-0.1716151,14.77797,-23.31086,-19.96907,1008.112
34.244486332,-0.1979461,0.142445,0.6934348,-0.9982553,0.01112126,-0.1765549,14.0644,-23.29725,-19.52231,1008.112
34.276769161,-0.8176826,0.5533645,0.205909,-1.006027,0.025617,-0.1764558,14.0644,-23.29725,-19.52231,1008.112
34.311533928,0.6696852,0.6120673,-0.03785376,-1.009393,0.0124872,-0.1924766,14.42717,-23.30124,-19.52782,1008.112
34.343815803,0.1738959,1.140392,-0.09879446,-1.004094,0.02561434,-0.1788771,14.43982,-23.66012,-19.08748,1008.112
34.376098633,0.5457379,0.3772562,-0.2816166,-1.001187,0.0183162,-0.1929446,14.43982,-23.66012,-19.08748,1008.112
34.410863399,-0.1359724,-0.03366329,-0.6472608,-0.9992444,0.01884661,-0.1808598,14.43982,-23.66012,-19.08748,1008.11
34.443146229,0.2358696,-0.5619883,-0.5253794,-1.000213,0.02128151,-0.175526,14.07704,-23.65613,-19.08197,1008.11
34.477911472,-1.189525,-0.38588,-0.2816166,-1.005997,0.01450138,-0.172168,14.07704,-23.65613,-19.08197,1008.109
34.510193348,-0.8796563,0.2011478,0.2668498,-1.003091,0.01257069,-0.1731522,14.08903,-23.6505,-18.64624,1008.113
34.542475700,-1.251498,0.3772562,0.5715533,-1.00118,0.0207899,-0.1769771,14.0644,-23.29725,-19.52231,1008.113
34.577240944,-1.375446,0.4359589,0.8762569,-1.000198,0.01499207,-0.1750784,14.0644,-23.29725,-19.52231,1008.111
34.609523296,-1.313472,0.3185534,0.5715533,-0.9987577,0.0188611,-0.1769933,14.0644,-23.29725,-19.52231,1008.111
34.644288540,-2.181103,0.3185534,0.9371976,-1.00407,0.01692,-0.1740922,14.06506,-23.66177,-19.51769,1008.113
34.676570892,-1.809261,0.142445,0.9371976,-1.000212,0.01981825,-0.1789184,14.06506,-23.66177,-19.51769,1008.113
34.711336136,-0.1979461,-3.027505,4.045174,-0.9407347,0.03123331,-0.145141,14.42783,-23.66575,-19.52321,1008.113
34.743618011,-0.2599197,0.4946617,0.9981383,-0.99778,0.01695272,-0.1697546,13.69096,-24.02793,-19.94329,1008.113
34.775900364,0.04994857,0.6120673,0.4496719,-1.005049,0.02273257,-0.1716399,13.69096,-24.02793,-19.94329,1008.111
34.810665607,0.7936325,0.67077,0.02308695,-1.001674,0.02123313,-0.188576,14.44048,-24.02464,-19.08287,1008.113
34.842947960,1.785211,0.8468784,0.08402766,-0.999737,0.02222781,-0.1822898,14.41585,-23.67139,-19.95893,1008.117
34.877713203,1.413369,1.199095,-0.03785376,-1.003141,0.02946887,-0.1846585,14.07771,-24.02065,-19.07735,1008.117
34.909995079,1.289422,1.140392,0.205909,-0.9992529,0.02076594,-0.1856833,14.07771,-24.02065,-19.07735,1008.117
34.944760799,1.723237,1.72742,0.8762569,-1.002633,0.02077428,-0.1803581,14.43982,-23.66012,-19.08748,1008.119
34.977042675,1.289422,1.257798,1.302842,-1.003125,0.02318272,-0.183244,14.08903,-23.6505,-18.64624,1008.117
35.009325504,1.413369,1.903528,1.790367,-0.9992436,0.0178722,-0.1827991,14.08903,-23.6505,-18.64624,1008.117
35.044090271,0.9175798,1.786123,1.790367,-1.001186,0.02076533,-0.1842288,14.08903,-23.6505,-18.64624,1008.117
35.076372147,1.475343,2.138339,2.156012,-0.9978151,0.02658051,-0.1846864,14.07771,-24.02065,-19.07735,1008.117
35.111138344,2.033106,2.607961,2.216952,-0.9992666,0.02657308,-0.1856502,14.07771,-24.02065,-19.07735,1008.121
35.143420219,1.847185,2.725367,2.399774,-0.9944215,0.02320596,-0.183746,14.44048,-24.02464,-19.08287,1008.121
35.178185940,2.404948,2.901475,2.948241,-0.9968448,0.0241538,-0.1876029,14.44048,-24.02464,-19.08287,1008.119
35.210467815,4.759946,2.842773,3.374826,-0.9988086,0.033799,-0.1957623,14.44048,-24.02464,-19.08287,1008.119
35.242750168,5.379683,2.37315,3.131063,-0.9978392,0.03625416,-0.1860817,14.80326,-24.02863,-19.08838,1008.119
35.277515411,4.697973,2.020934,3.070122,-1.003156,0.03038432,-0.2001233,14.07771,-24.02065,-19.07735,1008.119
35.309797287,2.281,2.37315,2.03413,-0.9978489,0.03279296,-0.2078561,14.07771,-24.02065,-19.07735,1008.117
35.344563007,0.4837642,2.960178,2.643537,-0.9867211,0.0333398,-0.1986916,14.4418,-24.75367,-19.07364,1008.119
35.376844883,2.095079,1.962231,1.485664,-1.006553,0.03618997,-0.1976658,14.07837,-24.38516,-19.07273,1008.119
35.409127235,2.219027,3.077584,2.582597,-0.98334,0.0406641,-0.1822203,14.07837,-24.38516,-19.07273,1008.117
35.443892479,3.582447,1.786123,1.607545,-1.004594,0.03043422,-0.1841665,14.82855,-24.74639,-18.2077,1008.117
35.476174354,3.954289,1.316501,1.912249,-0.9925117,0.02457646,-0.2093646,13.72758,-24.37554,-18.63149,1008.116
35.510940075,1.847185,2.78407,0.9981383,-1.008529,0.04920301,-0.2116073,13.72758,-24.37554,-18.63149,1008.116
35.543221950,0.3598169,1.492609,0.9371976,-1.003205,0.04581925,-0.2150221,14.10234,-24.37389,-18.20128,1008.116
35.577987671,0.9795535,1.199095,0.632494,-0.9944915,0.04637229,-0.2019848,14.07903,-24.74968,-19.06812,1008.116
35.610269546,1.351395,0.6120673,0.5106126,-0.9978391,0.0328339,-0.1957699,14.07903,-24.74968,-19.06812,1008.116
35.642552376,1.59929,0.8468784,-0.4644387,-1.002199,0.03376639,-0.2025233,14.46578,-24.7424,-18.20218,1008.118
35.677317619,1.785211,0.4946617,-0.7082015,-0.9935164,0.0385896,-0.2146006,14.4771,-24.37225,-17.77107,1008.116
35.709599018,4.016263,0.4946617,-1.622312,-0.9963987,0.03377315,-0.2054364,14.4771,-24.37225,-17.77107,1008.116
35.744365215,6.557183,-1.03161,-1.561371,-0.996891,0.03862252,-0.2020237,14.81657,-24.75202,-18.64342,1008.116
35.776647091,6.123367,-1.501233,-2.048897,-0.9891491,0.03377914,-0.209803,14.46644,-25.10691,-18.19757,1008.115
35.811412811,3.520474,-0.914205,-3.511474,-0.9997726,0.02647834,-0.2132057,14.10234,-24.37389,-18.20128,1008.115
35.843694687,3.706395,0.3185534,-4.669347,-0.9973424,0.02604882,-0.1991936,14.10234,-24.37389,-18.20128,1008.113
35.875977039,8.044551,-0.4445827,-4.547466,-1.006027,0.02317278,-0.1837212,14.46445,-24.01337,-18.21141,1008.107
35.910742283,11.57705,-2.088261,-4.669347,-0.913159,0.01328718,-0.1805935,14.8512,-24.00609,-17.34547,1008.107
35.943024158,9.531919,0.7881756,-4.608407,-0.9808553,0.01016222,-0.1886838,14.8512,-24.00609,-17.34547,1008.111
35.977789879,9.469945,-0.3271772,-7.167916,-0.9460245,-0.001890515,-0.2047809,14.47776,-24.73676,-17.76645,1008.109
