Time (s),Gyroscope X (deg/s),Gyroscope Y (deg/s),Gyroscope Z (deg/s),Accelerometer X (g),Accelerometer Y (g),Accelerometer Z (g),Magnetometer X (uT),Magnetometer Y (uT),Magnetometer Z (uT),Barometer (hPa)
0.023254871,0.08493605,0.108727,-0.07432936,-0.01506,0.2904976,-0.9636401,-3.056876,-4.393856,45.08813,1007.456
0.055537701,0.08470643,0.05026245,0.2304287,-0.01603246,0.2924272,-0.9645939,-3.056876,-4.393856,45.08813,1007.458
0.090303898,-0.1631516,0.05022578,0.04753152,-0.01795926,0.2909863,-0.9597636,-2.707407,-3.674448,44.63766,1007.458
0.122586727,-0.1621366,0.167316,0.04747156,-0.01651778,0.2948619,-0.9597447,-2.318948,-3.666362,45.56585,1007.458
0.157349110,-0.1610555,0.1084129,0.1693932,-0.01651509,0.2938957,-0.9592668,-2.67974,-4.755921,45.58521,1007.454
0.189631462,-0.09879456,-0.06747472,-0.1353701,-0.01313048,0.2914611,-0.9665394,-2.67974,-4.755921,45.58521,1007.454
0.221914768,0.2106988,0.1673538,-0.1959502,-0.01555187,0.2948597,-0.9611971,-1.968546,-4.405822,45.07159,1007.456
0.256680489,0.02455262,-0.06752932,-0.07383914,-0.01458561,0.2943704,-0.9636191,-3.417941,-4.389063,45.1559,1007.456
0.288963795,-0.1616045,-0.008643337,-0.01290315,-0.01360766,0.2919748,-0.9573501,-3.417941,-4.389063,45.1559,1007.456
0.323729515,0.02399581,-0.008384369,-0.01307567,-0.01941451,0.292429,-0.9612026,-2.681725,-3.662374,45.57136,1007.454
0.356008530,0.1475343,-0.008478951,-0.01294599,-0.01359238,0.2856854,-0.9569026,-2.682114,-4.39221,45.51834,1007.455
0.390775204,0.02307554,-0.1841449,0.04822353,-0.01409926,0.2948721,-0.9587829,-2.682114,-4.39221,45.51834,1007.455
0.423057556,0.08417776,0.2266779,0.1700612,-0.01698534,0.2875967,-0.9612353,-2.706085,-4.40348,44.64689,1007.455
0.455340862,-0.03950993,0.05005064,0.1087712,-0.01361003,0.291965,-0.9602509,-3.032516,-3.652751,46.0126,1007.455
0.490106583,-0.1012131,-0.3021647,-0.07397401,-0.01601711,0.2871155,-0.9612402,-3.032516,-3.652751,46.0126,1007.453
0.522389889,-0.1008974,0.04999473,0.1087865,-0.02039657,0.2977396,-0.9640709,-3.046214,-3.65919,45.51463,1007.453
0.557151794,-0.224499,0.2256628,0.04773151,-0.01166938,0.2890653,-0.9607549,-3.046214,-3.65919,45.51463,1007.454
0.589435100,-0.2238754,0.1666844,0.0475942,-0.01699947,0.2934022,-0.9616857,-3.046214,-3.65919,45.51463,1007.454
0.624200821,-0.1616382,-0.01000793,-0.07449617,-0.01602697,0.2919613,-0.9592788,-2.707407,-3.674448,44.63766,1007.454
0.656484127,-0.0375181,-0.06876195,0.04740231,-0.01456761,0.2876036,-0.9612405,-2.331984,-4.037317,45.07249,1007.452
0.688766479,-0.09947509,-0.01025741,0.1085127,-0.01651039,0.2934265,-0.9549185,-2.331984,-4.037317,45.07249,1007.452
0.723532677,-0.2850953,-0.1864312,-0.1351912,-0.01651214,0.2914646,-0.9626647,-2.684098,-3.298663,45.5045,1007.452
0.755811214,0.02506051,0.04832967,0.04778063,-0.01217669,0.2977615,-0.9645718,-2.694761,-4.033329,45.078,1007.454
0.790577888,0.2104631,-0.1281384,0.169567,-0.01698684,0.2885678,-0.9602629,-2.694761,-4.033329,45.078,1007.454
0.822860241,0.2095662,0.1065324,0.10847,-0.01699027,0.2900196,-0.9602546,-2.695422,-3.668813,45.07339,1007.454
0.855143547,-0.1006313,0.1064294,-0.01343292,-0.01699524,0.2919537,-0.960727,-2.694761,-4.033329,45.078,1007.452
0.889909267,-0.2859549,0.1649411,0.1695436,-0.01554919,0.2938935,-0.9607191,-2.694761,-4.033329,45.078,1007.453
0.922192574,-0.1615032,0.04758151,0.04763994,-0.01748838,0.2953332,-0.9626405,-3.057538,-4.029341,45.08352,1007.455
0.956954479,-0.09922918,0.04777758,-0.1353149,-0.01748333,0.2943769,-0.959262,-2.694099,-4.397845,45.08262,1007.455
0.989237785,-0.03757034,0.04800623,-0.01343591,-0.01650964,0.2929409,-0.9554046,-2.694099,-4.397845,45.08262,1007.455
1.024003506,0.1479908,0.1655324,0.108256,-0.01699568,0.2914632,-0.9626636,-2.319337,-4.396199,45.51283,1007.457
1.056286812,0.1477179,-0.01077214,-0.01358889,-0.01892864,0.2919514,-0.9597561,-3.4323,-4.030987,44.65331,1007.458
1.088569164,0.08523931,-0.06954136,0.04723533,-0.01601887,0.2895515,-0.9563919,-3.4323,-4.030987,44.65331,1007.456
1.123335362,0.1468001,-0.01097532,0.1083509,-0.01603238,0.2934049,-0.9616877,-3.056876,-4.393856,45.08813,1007.458
1.155613899,-0.1631612,0.2821595,0.2908841,-0.01602174,0.2929603,-0.9500878,-3.044502,-3.658385,45.57687,1007.458
1.190380573,-0.1622507,-0.07146087,0.04670455,-0.01699335,0.2909842,-0.9612161,-3.046214,-3.65919,45.51463,1007.458
1.222662926,-0.7797897,-0.2470013,-0.07490856,-0.01264215,0.291971,-0.959286,-3.046214,-3.65919,45.51463,1007.458
1.257429600,0.2743076,0.1056727,-0.01367729,-0.01796542,0.2929155,-0.9616863,-3.397006,-3.649567,45.95587,1007.46
1.289711952,0.2113714,0.04624476,-0.1357513,-0.01698663,0.291012,-0.9529974,-1.969207,-4.041306,45.06697,1007.456
1.321995258,0.2101797,-0.01238871,-0.07458207,-0.01553146,0.2885916,-0.9544646,-1.969207,-4.041306,45.06697,1007.456
1.356757164,0.08632063,0.1634059,0.1081089,-0.01697989,0.2866419,-0.9573731,-2.683437,-3.663179,45.50911,1007.457
1.389040470,-0.1610121,-0.07179508,0.2296834,-0.01505763,0.2905074,-0.9607394,-2.682114,-4.39221,45.51834,1007.459
1.423806190,-0.1601889,0.1629817,-0.01413207,-0.01359436,0.2856772,-0.9593198,-2.682114,-4.39221,45.51834,1007.459
1.456089496,0.211859,-0.1892,0.04694265,-0.01506075,0.2909831,-0.9631539,-3.057538,-4.029341,45.08352,1007.457
1.490855217,-0.0360912,-0.189069,0.04679406,-0.01699524,0.2919537,-0.960727,-2.319337,-4.396199,45.51283,1007.457
1.523138523,0.02548514,0.1047922,0.04673717,-0.01504906,0.2890769,-0.9544629,-2.319337,-4.396199,45.51283,1007.458
1.555416584,0.1487456,-0.1886148,-0.07523911,-0.01942894,0.2948126,-0.9718246,-2.331984,-4.037317,45.07249,1007.46
1.590183258,0.6434547,-0.07030773,0.04685798,-0.01552532,0.2817756,-0.9665894,-2.683437,-3.663179,45.50911,1007.462
1.622465610,0.02189271,0.1643661,-0.01414005,-0.01408434,0.2890698,-0.9573656,-2.683437,-3.663179,45.50911,1007.464
1.657232284,0.08375101,-0.1291143,-0.136055,-0.01408991,0.288558,-0.965587,-3.408991,-3.655202,45.52014,1007.464
1.689514637,-0.3494147,-0.06999587,0.0468249,-0.01553158,0.2871251,-0.9588239,-3.397006,-3.649567,45.95587,1007.463
1.721797943,-0.2244707,-0.1287634,-0.07494161,-0.02085375,0.2870967,-0.9626801,-3.397006,-3.649567,45.95587,1007.463
1.756559849,-0.1000241,0.04743201,0.1077698,-0.01699714,0.2929232,-0.9602381,-2.319337,-4.396199,45.51283,1007.463
1.788843155,0.2717009,-0.06985393,0.04684844,-0.01892793,0.290977,-0.9616953,-2.695422,-3.668813,45.07339,1007.463
1.823608875,0.3328122,0.165227,-0.0142215,-0.01988878,0.2900228,-0.9568644,-2.695422,-3.668813,45.07339,1007.463
1.855892181,0.2079746,-0.1281137,-0.01422125,-0.01506959,0.2938785,-0.9655547,-3.408991,-3.655202,45.52014,1007.459
1.890657902,-0.04036639,-0.01071644,-0.01425436,-0.016015,0.2885902,-0.9544635,-2.331984,-4.037317,45.07249,1007.461
1.922940254,-0.2883294,0.2825281,-0.01419625,-0.01892393,0.2914822,-0.9554077,-2.331984,-4.037317,45.07249,1007.461
1.955219269,-0.3493998,0.2817261,0.1683014,-0.01988816,0.2880707,-0.9617097,-2.694761,-4.033329,45.078,1007.463
1.989985466,-0.471444,0.1053204,-0.01438035,-0.01651114,0.2939121,-0.9544322,-2.695422,-3.668813,45.07339,1007.463
2.022268295,0.2728586,-0.07007584,-0.07543448,-0.01651341,0.290482,-0.9670212,-2.694761,-4.033329,45.078,1007.463
2.057034493,0.2713695,-0.01124951,-0.01465973,-0.0169894,0.2910005,-0.9563816,-2.694761,-4.033329,45.078,1007.46
2.089317322,-0.03921623,0.1644997,0.2288762,-0.01505873,0.2914802,-0.9592836,-2.682114,-4.39221,45.51834,1007.464
2.124083519,-0.1620973,-0.1880341,0.1068312,-0.01408552,0.2890649,-0.958816,-2.695422,-3.668813,45.07339,1007.465
2.156362534,-0.1613396,-0.1291168,-0.01514175,-0.01748108,0.2929201,-0.9607205,-2.695422,-3.668813,45.07339,1007.465
2.188644886,0.08629899,-0.1289404,-0.1979978,-0.01795543,0.2895361,-0.9592885,-2.331984,-4.037317,45.07249,1007.461
2.223411560,0.147408,-0.01166837,0.04571652,-0.01845165,0.2938803,-0.9621633,-2.670129,-4.386576,45.95407,1007.463
2.255693913,0.08508609,0.04713726,-0.07635136,-0.01794971,0.2871165,-0.9593022,-2.670129,-4.386576,45.95407,1007.463
2.290460587,0.2705754,0.1059272,0.04548293,-0.01843669,0.2885669,-0.9592929,-2.684098,-3.298663,45.5045,1007.467
2.322742939,0.02218034,0.1645113,-0.07652657,-0.016019,0.288085,-0.9607512,-2.682775,-4.027695,45.51373,1007.468
2.357505322,-0.2255003,-0.07037777,0.1064021,-0.01650369,0.2885675,-0.9607474,-2.682775,-4.027695,45.51373,1007.468
2.389788151,-0.1007116,-0.3634942,0.1065037,-0.0174677,0.2876002,-0.959784,-3.045552,-4.023706,45.51924,1007.466
2.422070980,0.0852502,0.04761792,-0.1374064,-0.01167687,0.2939209,-0.9558929,-3.056876,-4.393856,45.08813,1007.468
2.456837177,-0.1627465,-0.1871439,-0.0155334,-0.01940386,0.2875865,-0.962197,-3.056876,-4.393856,45.08813,1007.468
2.489120006,-0.03902978,-0.304247,-0.01556554,-0.01796384,0.292922,-0.9597526,-2.694761,-4.033329,45.078,1007.468
2.523886204,-0.0391111,0.1067932,0.04536694,-0.02182463,0.289033,-0.9617001,-3.056876,-4.393856,45.08813,1007.468
2.556165218,0.2084959,0.04778377,-0.01562503,-0.01892323,0.2905078,-0.957347,-3.056876,-4.393856,45.08813,1007.465
2.588447571,-0.03980177,0.1064761,0.1059951,-0.01892674,0.2909819,-0.960245,-2.332645,-3.672802,45.06787,1007.465
2.623214245,0.02236601,0.04747158,-0.07706305,-0.01650673,0.290021,-0.9602556,-2.694761,-4.033329,45.078,1007.467
2.655496597,0.02252732,0.1058889,-0.01615215,-0.01552669,0.2842133,-0.9612578,-2.694761,-4.033329,45.078,1007.463
2.690262318,-0.3486747,-0.1876294,-0.01604281,-0.01746233,0.2856678,-0.958828,-2.682775,-4.027695,45.51373,1007.463
2.722545624,-0.161449,-0.01140049,-0.01599653,-0.01796379,0.2934109,-0.9582995,-2.319999,-4.031683,45.50821,1007.465
2.757307529,0.2726668,-0.1870907,-0.1377886,-0.01554461,0.2919578,-0.9607301,-2.319999,-4.031683,45.50821,1007.466
2.789590836,0.209426,0.04815154,-0.07685961,-0.01505961,0.2904992,-0.9631566,-3.397667,-3.285051,45.95126,1007.464
2.821873188,0.08474189,0.2233818,0.105626,-0.01795381,0.2900316,-0.9559015,-2.682114,-4.39221,45.51834,1007.466
2.856639862,-0.3482597,0.2810489,0.04433678,-0.02036617,0.2880922,-0.9549405,-3.422299,-2.931805,45.07518,1007.466
2.888922214,-0.4703016,0.3395268,0.04442373,-0.01553712,0.2871021,-0.9655921,-3.422299,-2.931805,45.07518,1007.467
2.923688889,-0.1593603,-0.07141037,0.1054751,-0.008288739,0.2910123,-0.9602677,-2.693438,-4.762361,45.08723,1007.467
2.955967426,0.08846463,-0.1301166,-0.1381251,-0.01795626,0.289044,-0.9617084,-2.695422,-3.668813,45.07339,1007.469
2.990733624,0.08797941,-0.1888738,-0.07717022,-0.01554126,0.2895283,-0.9636446,-2.695422,-3.668813,45.07339,1007.469
3.023016453,0.2118402,-0.01278704,-0.01625877,-0.01989203,0.289032,-0.963638,-2.332645,-3.672802,45.06787,1007.469
3.055299282,0.2114818,0.1044681,-0.07717139,-0.01795811,0.2905024,-0.9597664,-3.058199,-3.664825,45.0789,1007.465
3.090065479,0.08715054,0.2805783,-0.01623583,-0.01699379,0.2904937,-0.9631525,-3.058199,-3.664825,45.0789,1007.464
3.122348309,-0.1605549,0.1040813,0.1054826,-0.01988878,0.2900228,-0.9568644,-3.057538,-4.029341,45.08352,1007.464
3.157110214,-0.4071617,0.1620328,-0.01661329,-0.01214747,0.2881092,-0.9568919,-2.694761,-4.033329,45.078,1007.465
3.189392567,-0.2201834,0.1029826,-0.01658371,-0.01989071,0.2905034,-0.9578285,-2.694761,-4.033329,45.078,1007.465
3.224159241,-0.2812689,-0.01472768,0.04421926,-0.0140905,0.290999,-0.9592885,-3.057538,-4.029341,45.08352,1007.467
3.256441593,0.02846295,0.1026642,-0.01672988,-0.02183197,0.2909572,-0.9650732,-1.969207,-4.041306,45.06697,1007.463
3.288724899,0.1520998,0.1613534,-0.2603862,-0.02086709,0.2929055,-0.9621636,-1.969207,-4.041306,45.06697,1007.465
3.323490620,0.2135029,-0.191056,0.1054453,-0.017952,0.2880844,-0.9592967,-2.695422,-3.668813,45.07339,1007.466
3.355770111,0.0271393,-0.0738472,-0.01642646,-0.01747808,0.2909779,-0.9626653,-2.682114,-4.39221,45.51834,1007.466
3.390535832,-0.09690764,-0.01546467,0.04450977,-0.01506102,0.292448,-0.9592781,-2.682114,-4.39221,45.51834,1007.466
3.422819137,-0.2204403,0.2186916,0.04455758,-0.01070809,0.29051,-0.9636494,-2.332645,-3.672802,45.06787,1007.466
3.455101490,-0.1576845,0.2181868,0.1051827,-0.01360976,0.2905001,-0.9641267,-3.044891,-4.388222,45.52386,1007.466
3.489868164,-0.09501896,-0.07571375,-0.01700771,-0.01409543,0.2934219,-0.9583078,-3.044891,-4.388222,45.52386,1007.467
3.522150516,-0.03273582,-0.01684951,-0.07791755,-0.01456872,0.2885763,-0.9597846,-2.694099,-4.397845,45.08262,1007.467
3.556912422,0.09084974,-0.07505509,-0.01695941,-0.01650902,0.2909888,-0.9602501,-2.683437,-3.663179,45.50911,1007.465
3.589195251,-0.1568708,0.2183597,0.04384006,-0.01699418,0.290492,-0.963636,-2.683437,-3.663179,45.50911,1007.465
3.623961449,-0.09448061,0.1593612,0.1654145,-0.01554303,0.2919644,-0.9587963,-3.058199,-3.664825,45.0789,1007.461
3.656244278,-0.03200522,0.04152712,0.04350854,-0.01650057,0.2880918,-0.9583329,-3.070184,-3.670459,44.64317,1007.461
3.688527107,-0.09396502,-0.01712412,-0.01747575,-0.01892185,0.2880702,-0.9626787,-3.070184,-3.670459,44.64317,1007.46
3.723293304,-0.09372724,-0.1932859,0.04344618,-0.01990382,0.2943585,-0.9626409,-2.706746,-4.038963,44.64228,1007.46
3.755571842,-0.1554938,0.1590374,0.1042097,-0.01699115,0.2890386,-0.9641277,-2.343969,-4.042952,44.63676,1007.46
3.790338516,0.03075997,-0.01727183,-0.01791885,-0.01699304,0.2900081,-0.9636387,-2.695422,-3.668813,45.07339,1007.461
3.822620869,0.1545431,-0.07606998,-0.01801786,-0.01650783,0.2909938,-0.9587998,-2.695422,-3.668813,45.07339,1007.457
3.857386589,0.03001448,0.1586149,-0.01809163,-0.01940351,0.2870992,-0.9631667,-3.046214,-3.65919,45.51463,1007.457
3.889669895,-0.03217879,-0.01773487,-0.2010884,-0.01554324,0.2895201,-0.9660618,-3.058199,-3.664825,45.0789,1007.457
3.921952724,0.02988729,0.2756488,0.0427871,-0.01263268,0.2871235,-0.9617307,-3.058199,-3.664825,45.0789,1007.457
3.956715107,-0.1554845,-0.1941155,-0.01824586,-0.01649872,0.2866335,-0.9602749,-3.046875,-3.294674,45.51001,1007.459
3.988997459,-0.1549673,-0.07671035,0.1036716,-0.01554272,0.2909883,-0.9612192,-1.969207,-4.041306,45.06697,1007.461
4.023764133,0.09283014,-0.2526474,0.1034077,-0.01699185,0.290013,-0.9621884,-1.969207,-4.041306,45.06697,1007.458
4.056046486,-0.1551514,-0.0763376,-0.1404134,-0.01553668,0.2875926,-0.9636556,-3.046214,-3.65919,45.51463,1007.458
4.090813160,-0.1546647,-0.2520925,0.1033543,-0.01699726,0.2914566,-0.9645973,-2.682775,-4.027695,45.51373,1007.458
4.123095512,-0.0925074,0.1587316,0.04235522,-0.01747919,0.2919506,-0.9612095,-2.682775,-4.027695,45.51373,1007.46
4.155374527,0.03138927,0.04123114,0.1031806,-0.01457787,0.2924478,-0.9597626,-2.331984,-4.037317,45.07249,1007.462
4.190140724,0.2168809,0.1584373,-0.01896268,-0.01602472,0.2905046,-0.9607374,-2.682775,-4.027695,45.51373,1007.46
4.222423077,-0.09323005,0.09953066,-0.01901915,-0.01554043,0.2900205,-0.9612247,-2.682775,-4.027695,45.51373,1007.46
4.257189751,-0.2785277,0.09925924,-0.07991427,-0.01796049,0.2904925,-0.962667,-2.682775,-4.027695,45.51373,1007.46
4.289472103,-0.2158462,-0.07666474,-0.01895342,-0.01553572,0.2895513,-0.9568764,-3.046214,-3.65919,45.51463,1007.458
4.321755409,0.09391049,-0.1351102,0.04210261,-0.013597,0.2871322,-0.9583446,-3.046214,-3.65919,45.51463,1007.461
4.356516838,-0.09273377,-0.193496,-0.07977245,-0.01939629,0.2837085,-0.9641529,-2.308675,-3.661533,45.93933,1007.459
4.388800144,0.2159575,0.1589016,-0.01902271,-0.01553862,0.2880733,-0.9646197,-3.408329,-4.019717,45.52476,1007.459
4.423565864,-0.4027638,0.04111177,0.04169591,-0.02036427,0.2871227,-0.9554294,-3.408329,-4.019717,45.52476,1007.459
4.455848694,-0.4632703,-0.01755604,0.04198453,-0.01699464,0.2943995,-0.9529781,-2.683437,-3.663179,45.50911,1007.459
4.490614891,-0.2753359,0.2757214,0.1026073,-0.01553926,0.2851386,-0.9738218,-2.694761,-4.033329,45.078,1007.461
4.522897720,-0.6453747,0.09876518,0.1632064,-0.01457677,0.291475,-0.9612185,-2.694761,-4.033329,45.078,1007.456
4.555176735,-0.02438827,0.2740475,-0.02030001,-0.0102095,0.2861757,-0.9578739,-2.694761,-4.033329,45.078,1007.456
4.589942455,-0.5814801,-0.19582,-0.02078376,-0.0198904,0.2895274,-0.9602512,-2.319999,-4.031683,45.50821,1007.458
4.622225761,-0.5173109,-0.1363745,0.04022238,-0.02038138,0.2904725,-0.9665294,-2.319999,-4.031683,45.50821,1007.458
4.656991482,-0.8242863,0.1567253,0.1618316,-0.01990678,0.2967896,-0.959243,-3.420976,-3.660836,45.08442,1007.458
4.689274788,-0.2023369,0.5077138,0.1612101,-0.01795179,0.2905286,-0.9520313,-2.682775,-4.027695,45.51373,1007.458
4.724040508,0.6020896,0.2122293,-0.08335575,-0.01361571,0.2948735,-0.9587839,-3.046214,-3.65919,45.51463,1007.456
4.756319046,0.8469272,0.1531405,0.09969176,-0.01312802,0.2924486,-0.9607326,-3.046214,-3.65919,45.51463,1007.456
4.788602352,1.585837,-0.3162958,-0.08296333,-0.01071531,0.2939008,-0.9626633,-2.694761,-4.033329,45.078,1007.456
4.823368072,1.950037,-0.4321285,-0.08261833,-0.01215864,0.2914836,-0.9607401,-2.696084,-3.304297,45.06877,1007.458
4.855651379,1.941874,-0.3721246,0.03961891,-0.01746171,0.2837157,-0.9636735,-2.696084,-3.304297,45.06877,1007.455
4.890417099,1.314878,-0.312194,-0.1428038,-0.01697949,0.2866435,-0.9568898,-2.319999,-4.031683,45.50821,1007.457
4.922700405,0.6909479,-0.0183649,-0.1425657,-0.01939352,0.28372,-0.9607687,-3.057538,-4.029341,45.08352,1007.457
4.957462311,-0.3017772,0.09856866,-0.02013488,-0.02036219,0.2837106,-0.9627004,-3.057538,-4.029341,45.08352,1007.46
4.989744663,-0.3625207,0.3909812,-0.08093598,-0.01552678,0.2832356,-0.9641639,-2.684098,-3.298663,45.5045,1007.464
5.022027969,-0.1758604,0.09649985,0.1017766,-0.01359696,0.2876211,-0.9568916,-2.32066,-3.667167,45.5036,1007.46
5.056793690,0.1958786,0.2715035,0.04052261,-0.01311579,0.2876126,-0.9597933,-2.32066,-3.667167,45.5036,1007.462
5.089076996,0.1334178,-0.3157283,0.04003261,-0.01554228,0.2914788,-0.9592826,-3.058861,-3.300309,45.07428,1007.462
5.123842716,0.2567596,-0.4901008,-0.1427358,-0.01262987,0.2876239,-0.9568936,-3.058199,-3.664825,45.0789,1007.463
5.156121731,0.3788634,-0.429824,-0.02092244,-0.01505622,0.2885586,-0.964618,-3.058199,-3.664825,45.0789,1007.465
5.188404083,-0.4888731,0.04013253,0.03975967,-0.02712449,0.281767,-0.9593129,-3.410314,-2.92617,45.51091,1007.467
5.223170281,-1.228856,0.1579882,-0.1426253,-0.02037099,0.2870948,-0.963648,-3.046875,-3.294674,45.51001,1007.465
5.255453110,-1.162768,0.4508575,-0.20287,-0.02086623,0.2889997,-0.972338,-3.046875,-3.294674,45.51001,1007.465
5.290219307,0.5127852,0.09741679,-0.1411918,-0.01601588,0.2876093,-0.9583367,-2.694761,-4.033329,45.078,1007.468
5.322502136,1.871626,0.03829876,-0.2017674,-0.0169915,0.2895258,-0.963158,-2.694761,-4.033329,45.078,1007.47
5.357264042,2.358344,-0.02016705,0.1032101,-0.01359792,0.2856624,-0.9636707,-2.694761,-4.033329,45.078,1007.47
5.389546394,1.791668,-0.3714176,0.1638445,-0.01504639,0.2832239,-0.9680324,-3.046214,-3.65919,45.51463,1007.471
5.421829700,0.73231,-0.3116796,0.1634826,-0.01987609,0.2812793,-0.9665828,-2.672113,-3.293028,45.94023,1007.471
5.456595421,-0.6932065,0.09977927,-0.01931146,-0.01939937,0.284673,-0.9651142,-2.672113,-3.293028,45.94023,1007.473
5.488878727,-2.236475,0.3340361,0.1025341,-0.01986835,0.2793567,-0.9627262,-2.695422,-3.668813,45.07339,1007.47
5.523644447,-2.288516,0.3325151,-0.2021607,-0.0184252,0.2842165,-0.9578673,-2.684098,-3.298663,45.5045,1007.474
5.555923939,-1.350963,-0.196079,0.04192948,-0.01505838,0.290993,-0.9602532,-3.070846,-3.305943,44.63856,1007.474
5.590689659,-0.1087482,-0.07819937,0.04208926,-0.01603207,0.2924289,-0.9641106,-3.070846,-3.305943,44.63856,1007.474
5.622972011,0.7575958,-0.3121211,0.1031069,-0.01747531,0.2909893,-0.9592812,-2.321321,-3.302651,45.49898,1007.474
5.655255318,0.7543713,-0.1931485,-0.1407511,-0.02086145,0.2895082,-0.9650835,-2.694761,-4.033329,45.078,1007.468
5.690021038,0.812956,-0.309154,-0.07959388,-0.01747386,0.2895294,-0.9617066,-2.694761,-4.033329,45.078,1007.47
5.722304344,0.871635,0.2196392,0.04266936,-0.0203607,0.2827395,-0.9636728,-2.319999,-4.031683,45.50821,1007.47
5.757066250,0.6207896,0.1605062,-0.07871151,-0.01697417,0.2842223,-0.957387,-3.070846,-3.305943,44.63856,1007.468
5.789348602,0.2474669,0.1599808,-0.01735437,-0.01794548,0.285668,-0.9583436,-3.070846,-3.305943,44.63856,1007.468
5.824115276,-0.2486697,-0.01684777,0.04329954,-0.02035986,0.2832316,-0.9612529,-2.331984,-4.037317,45.07249,1007.468
5.856397629,0.06162898,0.1002766,0.04319964,-0.01794885,0.2832107,-0.9694766,-3.058199,-3.664825,45.0789,1007.47
5.888680935,-0.06262771,0.2172364,0.04317629,-0.0189137,0.2817512,-0.9709331,-3.058199,-3.664825,45.0789,1007.466
5.923446655,0.4948845,0.9194451,0.3471545,-0.008736538,0.2745443,-0.964228,-2.708731,-2.945416,44.62843,1007.469
5.955725670,-0.1266938,-0.0806476,0.04128481,0.0004617154,0.277059,-0.943929,-2.321321,-3.302651,45.49898,1007.469
5.990491867,-2.227876,-0.9598771,-0.5063683,-0.02324659,0.2823063,-0.9462653,-2.321321,-3.302651,45.49898,1007.469
6.022796154,-3.335827,-0.6052814,-0.3830571,-0.03735117,0.3014742,-0.9901189,-3.057538,-4.029341,45.08352,1007.471
6.055078506,-1.042801,0.5100714,0.1654093,-0.02815041,0.2917826,-1.001796,-2.696084,-3.304297,45.06877,1007.471
6.089845181,3.54325,0.333963,0.5919943,-0.01887033,0.2711802,-0.9487552,-2.696084,-3.304297,45.06877,1007.471
6.122127533,3.481276,0.2752603,0.3482314,-0.004854394,0.2785218,-0.9361742,-2.696084,-3.304297,45.06877,1007.471
6.156889439,-1.600564,0.4513686,-0.01741281,-0.007794727,0.2886137,-0.9544811,-2.695422,-3.668813,45.07339,1007.469
6.189172745,-5.566879,0.1578547,-0.3830571,-0.009744122,0.2909885,-0.9660659,-2.695422,-3.668813,45.07339,1007.469
6.223938465,-2.220301,-0.2530647,-0.1392942,-0.01796686,0.2899775,-0.9718553,-3.058861,-3.300309,45.07428,1007.469
6.256221771,3.481276,0.04044916,0.1654093,-0.01892523,0.2856129,-0.9738117,-1.95656,-4.400187,45.50731,1007.471
6.288504124,5.030617,-0.0769564,0.2872907,-0.02178942,0.2754961,-0.9579097,-1.95656,-4.400187,45.50731,1007.471
6.323269844,2.241803,-0.2530647,0.04352789,-0.0184051,0.2789244,-0.9487122,-2.308675,-3.661533,45.93933,1007.467
6.355549336,-1.662538,0.04044916,-0.2002349,-0.0165065,0.2880673,-0.9655846,-2.682775,-4.027695,45.51373,1007.47
6.390315056,-3.273853,0.6861797,0.04352789,-0.01651607,0.2870502,-0.9800935,-2.694761,-4.033329,45.078,1007.468
6.422598362,-1.786485,0.5100714,0.22635,-0.01939668,0.2837068,-0.9646362,-2.694761,-4.033329,45.078,1007.47
6.457364082,-0.1131966,-0.01825362,0.1044686,-0.01647017,0.2784444,-0.9492025,-2.696084,-3.304297,45.06877,1007.47
6.489646435,0.1346981,-0.01825362,-0.07835352,-0.01745099,0.2842487,-0.9491674,-2.683437,-3.663179,45.50911,1007.47
6.521929741,-1.228722,0.1578547,-0.01741281,-0.01505877,0.2909913,-0.9607367,-2.683437,-3.663179,45.50911,1007.468
6.556691646,-2.592143,0.2752603,0.1044686,-0.01749384,0.296288,-0.9665026,-2.682114,-4.39221,45.51834,1007.468
6.588974953,-2.220301,0.04044916,0.04352789,-0.0189329,0.2929111,-0.9621677,-2.694761,-4.033329,45.078,1007.469
6.623740673,-0.7949069,-0.194362,-0.1392942,-0.01891723,0.2866233,-0.9612367,-2.694761,-4.033329,45.078,1007.469
6.656023025,0.4445664,-0.2530647,0.1654093,-0.01600747,0.2842234,-0.9578725,-2.319337,-4.396199,45.51283,1007.471
6.690789699,0.692461,-0.1356592,-0.07835352,-0.02037501,0.2909876,-0.9573411,-2.671452,-3.657544,45.94484,1007.471
6.723072052,-0.1131966,-0.01825362,-0.2611756,-0.01409626,0.2929298,-0.9607278,-2.671452,-3.657544,45.94484,1007.469
6.755351067,-0.2991176,0.2752603,-0.07835352,-0.01796735,0.2933961,-0.9626505,-2.694761,-4.033329,45.078,1007.47
6.790117264,0.0727244,0.1578547,-0.07835352,-0.01601438,0.2866381,-0.9593091,-2.331984,-4.037317,45.07249,1007.47
6.822399616,0.5685137,-0.0769564,-0.01741281,-0.0174666,0.2866274,-0.9612398,-2.331984,-4.037317,45.07249,1007.47
6.857166290,0.8164083,-0.194362,-0.1392942,-0.01649564,0.2856689,-0.9593136,-3.409652,-3.290686,45.51553,1007.468
6.889448643,0.320619,-0.01825362,-0.07835352,-0.02231504,0.2919352,-0.9616825,-3.069523,-4.034975,44.64779,1007.47
6.921731949,0.3825927,0.5100714,0.22635,-0.01409824,0.2929216,-0.963145,-3.069523,-4.034975,44.64779,1007.471
6.956493378,-0.6089858,0.1578547,0.04352789,-0.01214562,0.2866508,-0.9588339,-3.046875,-3.294674,45.51001,1007.471
6.988776207,-0.6089858,0.09915194,-0.01741281,-0.01649876,0.2861446,-0.961728,-2.32066,-3.667167,45.5036,1007.473
7.023542404,0.1346981,0.09915194,-0.01741281,-0.01844734,0.2934095,-0.9582985,-2.32066,-3.667167,45.5036,1007.471
7.055825233,0.01075075,0.04044916,0.04352789,-0.01553878,0.2861179,-0.9704322,-1.945898,-3.665521,45.93381,1007.471
7.090591431,0.5685137,-0.8987953,-0.1392942,-0.01843007,0.2827303,-0.9680279,-2.696084,-3.304297,45.06877,1007.471
7.122874260,1.993908,-0.8400925,-0.1392942,-0.01312045,0.2885706,-0.9626884,-2.696084,-3.304297,45.06877,1007.471
7.155152798,1.498119,-0.1356592,-0.01741281,-0.02037016,0.287587,-0.9612281,-2.695422,-3.668813,45.07339,1007.471
7.189918995,-0.6089858,-0.3117675,0.04352789,-0.01938397,0.2798502,-0.9603073,-2.684098,-3.298663,45.5045,1007.471
7.222201824,-1.476617,0.1578547,-0.07835352,-0.01649374,0.2846994,-0.9598026,-2.684098,-3.298663,45.5045,1007.471
7.256968021,-1.414643,0.5100714,0.1654093,-0.01890134,0.2783818,-0.9656345,-2.695422,-3.668813,45.07339,1007.469
7.289250374,-0.9808278,-0.194362,0.1654093,-0.003965085,0.3026358,-0.9611779,-2.670129,-4.386576,45.95407,1007.469
7.324016571,-0.4850385,-0.7226869,0.04352789,-0.01507236,0.2938671,-0.9689388,-1.957883,-3.671156,45.49808,1007.469
7.356295586,-0.3610912,-0.5465786,-0.01741281,-0.02133694,0.2866082,-0.9636487,-1.957883,-3.671156,45.49808,1007.47
7.388577938,0.5685137,-0.3704703,-0.07835352,-0.02518714,0.2817857,-0.9554493,-2.695422,-3.668813,45.07339,1007.472
7.423344135,1.622066,-0.2530647,-0.07835352,-0.01648875,0.2783674,-0.9719245,-3.046214,-3.65919,45.51463,1007.474
7.455626964,0.9403557,0.6274769,-0.01741281,-0.01939171,0.2817728,-0.9641639,-3.046214,-3.65919,45.51463,1007.474
7.490393162,-0.5470122,-0.1356592,-0.01741281,-0.01504317,0.2886126,-0.9486643,-3.046214,-3.65919,45.51463,1007.474
7.522675991,-0.9808278,-0.5465786,-0.2611756,-0.01748978,0.2928841,-0.9713563,-2.682775,-4.027695,45.51373,1007.471
7.557437897,0.1346981,-0.1356592,-0.07835352,-0.02231974,0.2924044,-0.9660308,-2.682775,-4.027695,45.51373,1007.471
7.589720249,1.622066,-0.4878758,-0.2611756,-0.02131605,0.2813194,-0.9535267,-2.321321,-3.302651,45.49898,1007.471
7.622003555,1.498119,-0.5465786,-0.1392942,-0.01650413,0.2880771,-0.9626839,-2.707407,-3.674448,44.63766,1007.471
7.656769276,-0.1751702,0.2165575,0.04352789,-0.02280148,0.2904558,-0.969425,-2.707407,-3.674448,44.63766,1007.471
7.689052582,-1.042801,0.2752603,0.04352789,-0.01601663,0.2880948,-0.9578505,-2.695422,-3.668813,45.07339,1007.473
7.723818302,-0.7949069,-0.01825362,-0.2002349,-0.01601631,0.2871188,-0.9602732,-3.421638,-3.29632,45.0798,1007.473
7.756096840,-0.1751702,-0.194362,0.04352789,-0.01891692,0.2856472,-0.9636593,-3.421638,-3.29632,45.0798,1007.471
7.788380146,-0.1751702,-0.1356592,0.1044686,-0.01843752,0.2880748,-0.9617128,-2.344631,-3.678436,44.63214,1007.471
7.823145866,-0.2991176,-0.2530647,-0.01741281,-0.02181641,0.2880897,-0.9544539,-2.696084,-3.304297,45.06877,1007.471
7.855428696,-0.05122291,-0.3117675,0.04352789,-0.01844139,0.2890361,-0.9636411,-2.696084,-3.304297,45.06877,1007.473
7.890194893,0.4445664,-0.194362,-0.01741281,-0.01891815,0.2851535,-0.9665629,-2.695422,-3.668813,45.07339,1007.476
7.922477722,0.6304874,-0.0769564,0.04352789,-0.0193981,0.2856557,-0.9607577,-1.969207,-4.041306,45.06697,1007.478
7.957240105,0.5685137,-0.3117675,-0.2611756,-0.01941139,0.2919533,-0.958788,-1.969207,-4.041306,45.06697,1007.478
7.989522457,0.8164083,-0.3117675,-0.1392942,-0.01600144,0.2808277,-0.960309,-2.684098,-3.298663,45.5045,1007.478
8.021804810,0.3825927,0.04044916,-0.07835352,-0.018434,0.2876007,-0.9588149,-2.682114,-4.39221,45.51834,1007.477
8.056571484,0.2586454,-0.194362,0.04352789,-0.02181125,0.283713,-0.9607635,-2.682114,-4.39221,45.51834,1007.477
8.088853836,0.1346981,-0.3704703,-0.2611756,-0.01746044,0.2846982,-0.959317,-3.058861,-3.300309,45.07428,1007.477
8.123620033,0.9403557,-0.3117675,-0.1392942,-0.01987948,0.2832199,-0.9651214,-2.683437,-3.663179,45.50911,1007.472
8.155899048,0.9403557,-0.3704703,0.1044686,-0.019882,0.2861415,-0.9597871,-2.683437,-3.663179,45.50911,1007.472
8.190664768,0.6304874,-0.5465786,-0.2002349,-0.02278568,0.2856345,-0.9641346,-2.321321,-3.302651,45.49898,1007.473
8.222948074,0.3825927,-0.2530647,-0.1392942,-0.01989109,0.2861038,-0.9709063,-2.331984,-4.037317,45.07249,1007.473
8.255230427,0.320619,-0.194362,-0.01741281,-0.02277397,0.2793304,-0.9680379,-2.697407,-2.575266,45.05954,1007.473
8.289996147,0.1346981,-0.2530647,0.1654093,-0.02180975,0.2827419,-0.9617359,-2.697407,-2.575266,45.05954,1007.475
8.322279453,0.320619,-0.1356592,-0.01741281,-0.01891372,0.2861492,-0.9583387,-2.333307,-3.308286,45.06326,1007.475
8.357041359,1.746013,-0.3117675,-0.2002349,-0.02132669,0.281764,-0.9651266,-2.707407,-3.674448,44.63766,1007.475
8.389323711,2.055882,-0.3704703,0.1044686,-0.02327021,0.2880725,-0.9583184,-2.707407,-3.674448,44.63766,1007.473
8.424090385,2.055882,-0.8987953,-0.01741281,-0.02277054,0.2778786,-0.9680462,-3.046214,-3.65919,45.51463,1007.469
8.456372738,1.498119,-0.7226869,-0.07835352,-0.02324075,0.2720684,-0.9685617,-2.695422,-3.668813,45.07339,1007.469
8.488656044,2.551671,-0.8987953,-0.2002349,-0.0222779,0.2779176,-0.956928,-2.695422,-3.668813,45.07339,1007.469
8.523421764,2.737592,-0.7226869,0.1044686,-0.02276966,0.2788596,-0.9641732,-2.695422,-3.668813,45.07339,1007.469
8.555700302,2.985487,-0.8987953,-0.01741281,-0.02613419,0.2711152,-0.9617926,-2.333968,-2.94377,45.05864,1007.471
8.590466976,2.613645,-0.7226869,0.1654093,-0.02274873,0.2740596,-0.9525979,-2.333968,-2.94377,45.05864,1007.473
8.622749329,3.977065,-0.7226869,0.04352789,-0.02325161,0.2744668,-0.9748328,-1.971192,-2.947759,45.05312,1007.473
8.655031681,4.782722,-0.957498,0.1044686,-0.02371247,0.2623426,-0.9821523,-1.971192,-2.947759,45.05312,1007.474
8.689798355,5.58838,-1.896743,-0.1392942,-0.01886239,0.262417,-0.9642751,-1.971192,-2.947759,45.05312,1007.474
8.722080707,6.456011,-2.014148,0.04352789,-0.02952251,0.2671817,-0.9772778,-1.97053,-3.312274,45.05774,1007.47
8.756843567,7.137722,-1.955446,0.04352789,-0.02611582,0.2594633,-0.9729781,-1.971853,-2.583243,45.04851,1007.472
8.789125919,7.881405,-2.072851,0.1654093,-0.02610754,0.2546108,-0.9768732,-1.971853,-2.583243,45.04851,1007.472
8.823891640,8.315221,-2.307662,-0.2002349,-0.02706034,0.2507579,-0.9706084,-1.971853,-2.583243,45.04851,1007.472
8.856174946,7.943379,-2.307662,-0.07835352,-0.03043063,0.2449444,-0.9696673,-2.347277,-2.220374,44.61368,1007.472
8.888457298,8.005352,-2.718582,-0.2002349,-0.03815234,0.2356998,-0.9779217,-2.347277,-2.220374,44.61368,1007.472
8.923223019,8.501142,-2.718582,-0.1392942,-0.0381387,0.228915,-0.9808609,-1.971853,-2.583243,45.04851,1007.472
8.955502510,9.058905,-2.659879,-0.1392942,-0.03862207,0.230869,-0.9750475,-1.985161,-1.859846,44.60355,1007.468
8.990268230,8.439168,-2.366365,-0.1392942,-0.03617794,0.2207232,-0.9722098,-1.985161,-1.859846,44.60355,1007.47
9.022550583,8.872984,-2.48377,0.1044686,-0.03522739,0.2260328,-0.977016,-1.635031,-1.504953,44.15769,1007.47
9.057317257,9.492721,-2.190257,-0.01741281,-0.04003172,0.2109992,-0.9824091,-1.611061,-1.493684,45.02914,1007.47
9.089599609,10.36035,-2.718582,0.04352789,-0.03761411,0.2095395,-0.9867734,-1.238945,-0.03397465,45.44089,1007.47
9.121882916,11.72377,-2.248959,0.2872907,-0.03421392,0.1998395,-0.9960214,-1.238945,-0.03397465,45.44089,1007.472
9.156644821,11.53785,-1.661932,0.3482314,-0.04144511,0.1935572,-0.9873396,-1.637677,-0.04689026,44.13923,1007.467
9.188927174,10.67022,-1.309715,0.5310535,-0.04287415,0.1872898,-0.9791536,-1.264238,0.6837873,44.56021,1007.467
9.255976200,7.44759,-1.42712,0.2872907,-0.04237365,0.1775881,-0.9864614,-1.266223,1.777335,44.54636,1007.469
9.290741921,5.154564,-1.251012,-0.1392942,-0.04622674,0.1712876,-0.9860055,-1.628338,1.416807,44.55649,1007.471
9.323025227,2.489697,-1.42712,-0.3830571,-0.05396451,0.1683291,-0.9956745,-1.628338,1.416807,44.55649,1007.471
9.355303764,1.064303,-1.896743,-0.4439978,-0.05735749,0.1746384,-0.9874128,-1.265561,1.412819,44.55098,1007.471
9.390069485,0.5685137,-1.603229,-0.3221164,-0.04717508,0.1640325,-0.984111,-0.8303361,1.4138,44.98027,1007.468
9.422352791,0.7544347,-2.014148,-0.3221164,-0.0481577,0.1673861,-0.9932752,-0.8303361,1.4138,44.98027,1007.468
9.457118511,1.931934,-2.425068,-0.4439978,-0.05346863,0.169359,-0.9777824,-1.628999,1.781323,44.55188,1007.47
9.489401340,3.171407,-2.072851,-0.07835352,-0.0602499,0.1673368,-0.9976004,-1.25556,2.512001,44.97285,1007.468
9.521684170,5.898248,-2.48377,-0.2002349,-0.0568547,0.1639688,-0.9947262,-1.25556,2.512001,44.97285,1007.468
9.556446075,8.563115,-2.190257,-0.2002349,-0.06021378,0.1552697,-0.9884836,-0.8323207,2.507348,44.96642,1007.466
9.588729381,8.191274,-1.133606,0.3482314,-0.06123123,0.167275,-1.015002,-1.278869,2.136215,44.10602,1007.466
9.623495102,14.63653,-2.014148,-0.4439978,-0.06364137,0.1589922,-1.029548,-1.278869,2.136215,44.10602,1007.466
9.655777454,18.85074,-2.777284,-0.809642,-0.07763529,0.1502758,-1.019415,-0.4941759,2.856605,44.08484,1007.466
9.690544128,25.04811,-2.425068,-0.7487012,-0.07664764,0.1317942,-1.047561,-1.256883,3.241033,44.96362,1007.464
9.722826481,27.34114,-0.194362,-1.053405,-0.09068192,0.1273087,-1.074146,-1.256883,3.241033,44.96362,1007.464
9.755105019,28.02284,-2.131554,-4.587966,-0.1437984,0.1186654,-1.0093,-0.8223199,3.606529,45.3883,1007.463
9.789871693,41.5331,-23.26455,-17.99492,-0.2991528,0.1372037,-1.119567,-0.1233826,5.045346,44.48735,1007.461
9.822154045,52.99823,-44.86718,-28.65955,-0.2931018,0.03856111,-1.10177,-0.1233826,5.045346,44.48735,1007.455
9.856919765,73.38757,-64.4739,-27.56261,-0.3002094,0.002493078,-1.02896,-0.1247058,5.774378,44.47812,1007.457
9.889203072,62.29428,-69.81585,-30.60965,-0.2743592,-0.1108613,-1.085256,1.697857,7.582648,44.86319,1007.457
9.923968792,53.18415,-72.34007,-27.9892,-0.2976588,-0.04679357,-1.009425,3.833931,10.09343,43.4906,1007.459
9.956247330,32.05114,-58.0166,-31.8894,-0.4670447,-0.159736,-0.9217165,3.833931,10.09343,43.4906,1007.457
9.988530636,36.26534,-63.82817,-37.00842,-0.2980095,-0.239222,-0.8152094,7.058337,12.59224,42.10147,1007.459
10.023493290,36.1414,-67.46774,-34.38797,-0.3360238,-0.3362955,-0.8683742,8.856267,14.75375,41.61047,1007.459
10.055776119,31.05956,-68.28958,-36.8256,-0.3423055,-0.3084413,-0.7831171,8.856267,14.75375,41.61047,1007.459
10.090542316,32.73285,-64.00427,-42.79779,-0.1793361,-0.2996078,-0.7418424,11.01631,17.2758,41.10934,1007.459
10.122824669,-0.9188542,-46.68696,-35.60678,-0.02355488,-0.1195385,-0.7160154,13.88993,19.78423,40.16146,1007.456
10.157586575,-71.75475,-25.49526,-27.92826,0.08928917,0.1462853,-0.9100564,13.88993,19.78423,40.16146,1007.456
10.189869881,-101.688,-3.657826,-4.161381,0.3304193,0.3915806,-0.9870151,15.72448,21.59813,40.98225,1007.456
10.222152233,-52.17107,-2.131554,-8.42723,-0.229854,-0.1336229,-1.128024,16.15049,19.79974,43.17845,1007.456
10.256918907,-1.848459,12.95506,1.810808,-0.4406373,-0.1301396,-1.06422,16.15049,19.79974,43.17845,1007.458
10.289201260,20.40009,7.847919,-4.405144,-0.6091164,-0.1993489,-0.9240527,16.20372,16.90615,44.95828,1007.456
10.323966980,10.11246,1.449316,-8.183468,-0.6595544,-0.1693246,-1.018044,15.10539,15.81894,44.55295,1007.456
10.356245995,-8.417667,7.906622,-10.68204,-0.5483564,-0.1514869,-0.9891758,15.10539,15.81894,44.55295,1007.451
10.423294544,-4.637274,5.852024,-15.13071,-0.3351348,-0.1084544,-0.8946366,14.39116,16.19706,44.99509,1007.447
10.455577850,0.5685137,2.38856,-12.69308,-0.3366254,-0.09982809,-0.9182729,14.39116,16.19706,44.99509,1007.444
10.490343571,12.40548,0.7448825,-11.77897,-0.3428552,-0.1118296,-0.884487,13.3168,15.12112,45.46122,1007.44
10.522625923,17.11548,3.386507,-10.98674,-0.3659818,-0.1511318,-0.8957797,13.31481,16.21466,45.44737,1007.44
10.557388306,8.563115,2.740777,-11.53521,-0.4564418,-0.1637605,-0.9759074,13.31481,16.21466,45.44737,1007.44
10.589671135,15.38022,4.208346,-14.09472,-0.3819281,-0.1833854,-0.9752128,12.96402,16.22429,45.88861,1007.442
10.621953487,20.64798,1.273207,-12.51026,-0.3354935,-0.1836825,-0.959361,11.8737,17.3298,45.89131,1007.436
10.656720161,22.38324,1.566721,-10.6211,-0.3387764,-0.1989077,-0.8796731,11.8737,17.3298,45.89131,1007.435
10.689002514,15.69009,0.8035853,-8.000646,-0.3828642,-0.1681112,-0.8939061,12.21119,18.04357,45.0051,1007.438
10.723768234,20.15219,0.6274769,-10.49921,-0.4006862,-0.23238,-0.9943051,11.47233,18.77495,44.57118,1007.44
10.756047726,26.16364,0.9796936,-9.341341,-0.4292223,-0.2300468,-0.9956806,11.47233,18.77495,44.57118,1007.44
10.790813446,31.36942,6.145538,-10.9258,-0.4392896,-0.2463296,-0.9367718,11.44769,19.12819,43.69511,1007.441
10.823095798,35.52166,7.319593,-13.30249,-0.406262,-0.2808131,-0.8587221,11.44637,19.85723,43.68588,1007.443
10.855379105,31.55534,7.202188,-19.82314,-0.4074115,-0.2268402,-0.9246438,11.44637,19.85723,43.68588,1007.441
10.890144825,40.54153,15.00966,-19.51844,-0.3026737,-0.3303962,-0.8693795,10.71751,21.68778,43.67383,1007.443
10.922427177,40.66547,16.41852,-10.74298,-0.2793612,-0.3548284,-0.8159069,10.69222,22.40554,42.79314,1007.443
10.957190037,22.75508,14.01171,-7.147476,-0.3176318,-0.3650028,-0.9299738,9.575284,24.95785,41.90593,1007.444
10.989472389,16.43377,12.13322,-8.610052,-0.3563423,-0.35594,-0.9361235,9.575284,24.95785,41.90593,1007.45
11.021754742,18.7268,12.13322,-11.53521,-0.3467031,-0.3477364,-0.9510843,8.110868,25.6972,41.48303,1007.455
11.056521416,27.34114,8.904569,-8.061586,-0.3141341,-0.4041078,-0.9055483,8.108883,26.79075,41.46918,1007.46
11.088803768,31.49337,7.847919,-5.258314,-0.3078036,-0.4249184,-0.9114816,8.108883,26.79075,41.46918,1007.46
11.123569965,28.39469,8.669758,-8.305349,-0.3503164,-0.4517544,-0.9405488,8.096898,26.78511,41.03345,1007.458
11.155848980,28.76653,7.26089,-11.29144,-0.3375111,-0.3071313,-0.8290467,7.345389,27.87537,40.15919,1007.459
11.190614700,37.00903,8.845866,-17.26363,-0.3107457,-0.4040834,-0.9012046,7.345389,27.87537,40.15919,1007.461
11.222897053,65.95073,8.845866,-16.77611,-0.3557446,-0.430232,-1.010997,8.03129,28.94323,38.76488,1007.464
11.255180359,104.7462,3.269102,-22.7483,-0.3093734,-0.4000056,-0.9843358,6.552244,31.13501,37.88779,1007.464
11.289946079,114.4141,-10.17383,-11.71803,-0.2373555,-0.5772652,-0.9448901,6.552244,31.13501,37.88779,1007.468
11.322228909,100.532,-4.655773,0.7138757,-0.3344528,-0.5307246,-0.6949617,6.451731,33.64154,34.36967,1007.471
11.356991291,61.98441,4.325752,2.481156,-0.307101,-0.3976219,-0.5680864,6.699363,37.59652,30.39183,1007.471
11.389273644,2.613645,7.436999,11.6832,-0.2640772,-0.606162,-0.5954705,6.699363,37.59652,30.39183,1007.474
11.424039841,-8.603589,-3.657826,8.148642,-0.3055273,-0.7361974,-0.8049661,7.700489,39.36769,27.30212,1007.474
11.456322670,5.030617,-8.530156,7.417353,-0.1678773,-0.8033687,-0.6079183,7.338374,39.00716,27.31225,1007.474
11.488605499,1.68404,-6.475559,3.151504,-0.1596963,-0.7776085,-0.5816838,7.338374,39.00716,27.31225,1007.472
11.523380279,-13.06569,-15.6919,5.223488,-0.09475674,-0.7895304,-0.4416943,8.050618,39.72258,26.85626,1007.469
11.555658817,-35.06634,-18.15741,-3.064448,-0.0932687,-0.8372608,-0.5333388,8.064589,38.63467,27.30584,1007.466
11.590425014,-83.46777,-15.6919,1.567046,-0.3328576,-0.541361,-0.5504775,8.064589,38.63467,27.30584,1007.466
11.622707844,-105.7783,-7.473506,-22.13889,-0.3954225,-0.4880739,-0.6240058,9.166228,37.89931,27.73425,1007.466
11.657473564,-101.2542,-13.10897,-43.28531,-0.3241779,-0.5111859,-1.078723,9.627533,36.48233,31.23301,1007.46
11.689756393,-49.19633,-11.40659,-34.99738,-0.0791183,-0.4732634,-1.091122,9.627533,36.48233,31.23301,1007.462
11.722039699,0.7544347,-29.31094,-6.111484,-0.07975474,-0.5862451,-1.014896,8.264292,34.35064,34.33286,1007.463
11.756801128,14.38864,-41.40371,25.02922,-0.1316596,-0.6012027,-0.672111,7.214562,32.92144,35.67505,1007.463
11.789083958,-19.82082,-20.91644,17.96009,-0.4000258,-0.5785071,-0.6022719,8.29157,32.53933,35.22739,1007.465
11.823849678,-30.04648,-3.246907,-6.233365,-0.3968193,-0.5836341,-0.8329082,8.29157,32.53933,35.22739,1007.465
11.856132984,-9.843062,1.860235,0.1654093,-0.3440801,-0.6488295,-0.9808414,9.732015,31.7887,34.77883,1007.458
11.888415337,-5.628852,10.72435,26.7965,-0.4540907,-0.421464,-0.6249509,9.75797,30.70642,35.66413,1007.454
11.923181057,-70.76317,20.93864,23.01817,-0.4848665,-0.3036101,-0.6648234,9.75797,30.70642,35.66413,1007.452
11.955460548,-107.6995,20.76253,21.49466,-0.4916327,-0.3559029,-0.8106211,9.794588,30.35881,36.97593,1007.452
11.990226269,-157.8362,22.99323,9.001811,-0.5619555,-0.4170264,-0.6522492,9.870469,28.20552,39.61799,1007.451
12.022508621,-54.83594,-23.08845,-43.10249,-1.212791,-0.08715341,-1.435526,9.870469,28.20552,39.61799,1007.451
12.057275295,23.1889,-77.38851,-61.87223,-0.6225545,-0.534637,-1.177802,9.286404,23.9021,44.53965,1007.451
12.089557648,59.25757,-109.2641,-53.70617,-0.5560533,-0.08293016,-0.7441494,9.619179,20.60057,43.2685,1007.451
12.121840000,64.64928,-82.31954,-53.03582,0.2933544,-0.01577439,-0.7808893,9.619179,20.60057,43.2685,1007.451
12.156602860,64.21546,-31.71775,-51.2076,1.034593,0.08045657,-1.143068,13.49419,23.78582,39.1825,1007.451
12.188885212,91.42191,8.08273,-20.85913,0.2072423,-0.8081817,-1.346482,15.591,28.10226,36.47965,1007.443
12.255934238,106.0477,93.08436,31.42799,-0.8393118,-0.735073,-0.7356445,14.78758,31.35708,33.83478,1007.446
12.290699959,-22.9195,50.05521,-32.01128,-0.9694201,-0.5538499,-0.841657,14.00946,33.89413,32.07059,1007.446
12.322982311,9.368773,23.69767,-21.46854,-0.7459325,-0.6857588,-1.114098,14.00946,33.89413,32.07059,1007.448
12.355261803,54.91941,8.611055,-18.66527,-0.3563473,-0.6158857,-1.102454,12.24087,35.39467,33.82261,1007.452
12.390027523,84.10901,-3.305609,-10.07263,-0.372201,-0.6052414,-0.9466922,10.40367,35.03883,32.98335,1007.452
12.422309875,93.34309,-19.09666,-22.44359,-0.3855619,-0.4296445,-0.8122359,10.40367,35.03883,32.98335,1007.453
12.457076073,96.87559,-27.08023,-28.65955,-0.4108717,-0.6570972,-1.079366,9.577607,37.55334,29.47626,1007.453
12.489358902,82.99348,21.34956,22.89629,-0.4549515,-0.6892592,-0.6791666,9.41783,39.66718,23.78411,1007.452
12.524212360,79.21309,46.23954,-0.2002349,-0.8281898,-0.8049194,-0.9357257,9.41783,39.66718,23.78411,1007.448
12.556490898,73.44954,58.03879,-12.14461,-0.356944,-0.8586416,-0.7649426,9.294668,41.43342,19.40376,1007.445
12.588773250,91.91769,51.64019,-11.77897,-0.1374163,-0.7856996,-0.5605065,8.118745,42.49868,16.29413,1007.443
12.623539925,124.8877,55.22106,-7.51312,0.05560616,-0.761817,-0.3877157,6.944531,43.56476,13.24674,1007.443
12.655822277,103.6927,63.20464,2.237393,-0.1634237,-0.7374533,-0.2957352,6.944531,43.56476,13.24674,1007.443
12.690587997,81.50612,58.62582,5.954776,-0.1400455,-0.5960014,-0.2722596,5.721717,44.9728,8.451828,1007.439
12.722871303,57.70823,46.35694,0.4701128,-0.2763622,-0.6133157,-0.2681968,5.27372,45.66639,5.398026,1007.439
12.757633209,26.53548,28.92221,2.603038,-0.2068056,-0.5396339,-0.1470681,5.27372,45.66639,5.398026,1007.437
12.789915562,96.56572,32.7379,18.75232,-0.2049058,-0.7317241,0.4309952,5.226439,45.27933,3.659734,1007.437
12.822197914,82.12585,5.441104,26.7965,-0.09880994,-0.2855587,0.1949681,5.155851,44.51649,1.054605,1007.442
12.856964588,-207.2912,20.0581,28.68566,-0.1982694,-0.985876,-0.4595079,5.155851,44.51649,1.054605,1007.444
12.889246941,-138.3145,26.5154,29.47789,-0.1921895,-1.399985,-0.1408724,5.156512,44.15197,1.05922,1007.444
12.924013138,-69.5237,-12.99157,-9.402282,-0.08795359,-1.34045,-0.2253603,6.776076,43.85039,7.141949,1007.446
12.956292152,-105.9022,-0.3704703,-15.13071,-0.1870163,-1.27601,-0.547234,6.776076,43.85039,7.141949,1007.446
12.988574505,-74.79146,0.8035853,-3.003507,-0.1059687,-1.059635,-0.7405207,7.224072,43.15681,10.19575,1007.444
13.023340225,-44.54831,7.495702,18.50856,-0.0707863,-1.057084,-0.8744946,6.60771,42.48647,14.13756,1007.445
13.055623055,-7.550036,-7.238696,17.35069,-0.3520127,-0.5411786,-0.9091467,6.60771,42.48647,14.13756,1007.447
13.090389252,-135.3397,-25.61267,6.990768,-0.4446401,-0.6441581,-0.945307,6.657636,41.41545,15.89431,1007.447
13.122672081,137.4064,26.22189,6.25948,-0.396327,-0.4468164,-1.015355,7.769937,41.41476,16.74922,1007.447
13.157433987,163.6832,52.10981,16.00999,-0.2533989,-0.424227,-0.6104125,7.769937,41.41476,16.74922,1007.447
13.189716816,74.13125,87.39019,17.65539,-0.4022998,-0.7640547,-0.375139,7.712656,39.92853,14.58905,1007.449
13.221999645,49.65165,86.86186,30.87952,-0.3414271,-0.8852471,-0.2033716,7.952934,41.32625,10.2078,1007.445
13.256765366,53.92784,56.21901,39.2284,-0.3593834,-1.067306,-0.2188713,7.952934,41.32625,10.2078,1007.45
13.289048672,21.63956,32.09217,15.58341,-0.4157395,-1.144749,-0.1756807,7.203409,41.32296,9.34738,1007.45
13.323814392,23.62271,7.26089,-1.053405,-0.2983373,-1.128699,-0.2512589,7.891024,42.39163,8.015321,1007.45
13.356092930,34.03429,-24.90823,-19.82314,-0.2111957,-0.7816489,-0.3021682,7.891024,42.39163,8.015321,1007.448
13.390858650,20.15219,-12.22843,-20.61537,-0.1525949,-0.8177517,-0.2952482,8.230492,42.01186,7.142966,1007.45
13.423141956,22.75508,-28.4891,-5.502077,-0.0481321,-0.8598973,-0.3967516,8.181889,42.35383,5.395444,1007.45
13.455424309,6.641932,-25.67137,-14.58224,-0.1490348,-0.9455361,-0.4497159,8.181889,42.35383,5.395444,1007.45
13.490190029,14.9464,-17.27687,-30.36588,-0.08361759,-1.039577,-0.5523972,8.157918,42.34256,4.52399,1007.45
13.522473335,22.0114,-25.49526,-24.51558,-0.07610583,-0.6813623,-0.3826234,8.506724,43.42649,4.068901,1007.45
13.557235241,-30.29437,-12.16973,-11.10862,-0.03784366,-0.635061,-0.1750474,7.030985,43.79569,3.214892,1007.45
13.589517593,-84.52132,-5.242801,-2.272219,0.03140807,-0.704798,-0.2490758,7.030985,43.79569,3.214892,1007.45
13.621800899,-101.6261,-5.947234,-0.3830571,0.04252617,-0.9515114,-0.3757132,6.354033,43.46169,4.973447,1007.448
13.656566620,-67.35461,1.801533,-28.41578,-0.3774937,-0.9270863,-0.6671495,6.463225,42.78337,8.90422,1007.448
13.688848972,-29.0549,-21.38606,-30.85341,-0.5558308,-0.842726,-0.898336,6.463225,42.78337,8.90422,1007.45
13.723615169,7.323643,-30.6611,-41.7618,-0.5205762,-0.8828789,-1.067361,6.162359,41.72198,11.10222,1007.452
13.755894184,97.99111,-34.8877,-36.45995,-0.1242075,-0.817816,-1.052858,4.347813,42.10644,11.12518,1007.453
13.790659904,131.5189,3.327805,-17.69022,-0.02014939,-0.7790056,-0.8266125,4.347813,42.10644,11.12518,1007.453
13.822942257,115.6536,38.13855,4.796903,0.06110808,-0.7689098,-0.7721016,3.11391,42.74791,8.084095,1007.453
13.855225563,87.02177,61.44356,21.5556,-0.1892762,-0.7843918,-0.7020348,2.218577,43.77055,1.981102,1007.456
13.889991283,63.78165,65.55276,16.68034,-0.2749518,-0.901746,-0.5589361,2.218577,43.77055,1.981102,1007.458
13.922274113,52.19257,66.25719,6.25948,-0.2983952,-1.007307,-0.5585189,2.207679,43.43231,-0.6303315,1007.458
13.957036018,81.13428,59.97599,-2.515982,-0.2528185,-1.079966,-0.6180098,2.851321,42.29134,-3.677602,1007.46
13.989318848,131.9527,49.7617,-10.86486,-0.2530608,-1.217261,-0.7198287,2.851321,42.29134,-3.677602,1007.46
14.024085045,274.1823,-25.31915,-20.49349,-0.4507283,-1.042947,-0.09332527,3.507608,40.7915,-6.284531,1007.46
14.056367397,301.3267,0.04044916,-39.26323,0.09121473,-0.2044685,-0.17046,3.218874,40.98886,-14.56627,1007.461
14.088650703,215.5551,23.52156,-30.54871,0.1707077,-0.3314798,-0.3038157,3.218874,40.98886,-14.56627,1007.456
14.123416424,237.6178,6.204241,-23.23582,-0.07048097,-0.6053606,-0.3797862,2.659387,37.28383,-24.10227,1007.457
14.155694962,257.1395,4.971482,-12.20555,-0.2083158,-0.2316285,-0.5064422,2.053365,31.30452,-31.05509,1007.457
14.190460682,277.5288,-3.892637,-20.00597,-0.07956606,-0.3367778,-0.6562167,2.053365,31.30452,-31.05509,1007.457
14.222743988,374.8894,-0.7813897,-35.7896,-0.1546617,-0.3571437,-0.8906384,2.345901,24.00269,-36.1987,1007.456
14.257509708,381.8925,-26.02358,-32.31599,-0.3924029,0.5168465,-1.110439,2.557656,14.41049,-40.00406,1007.456
14.289792061,407.6735,-39.34912,-57.42356,-0.1794162,0.9389965,-1.383574,2.557656,14.41049,-40.00406,1007.454
14.322075367,799.471,16.41852,-43.65096,-0.1012444,1.3958,-2.02702,2.643145,0.6189804,-39.83034,1007.454
14.356837273,524.0601,11.42879,-84.90781,0.2917624,3.024991,0.1607385,1.750502,-14.66059,-33.51898,1007.457
14.389119625,133.9358,-28.31299,-43.77284,0.3132035,1.231136,-1.273234,1.750502,-14.66059,-33.51898,1007.464
14.423885345,-143.0864,61.20875,149.592,1.514987,14.31918,15.39504,2.64674,-36.66821,-15.31588,1007.479
14.456168651,-760.468,12.72025,-39.93357,1.671516,4.911364,8.724389,4.943838,-43.56723,-11.33973,1007.533
14.488451004,94.39664,-238.5863,126.0689,-1.948994,-0.4472581,0.1685465,4.880126,-40.85311,-26.69486,1007.533
14.523217201,108.4647,-187.104,260.8698,-0.3800272,1.473231,-0.3610156,4.880126,-40.85311,-26.69486,1007.579
14.555496216,208.8,-32.48089,-18.66527,-0.8620844,-1.457929,-1.108569,-1.073342,-31.37386,-31.51962,1007.595
14.590261936,338.6968,75.00391,-96.05997,0.574095,0.07016186,-1.364033,-7.512221,-27.94671,-25.73427,1007.591
14.622544765,423.1669,140.8684,-46.27141,0.4610388,-0.6180276,0.2885588,-7.512221,-27.94671,-25.73427,1007.586
14.657310486,53.37008,124.1968,-21.46854,-0.1948007,2.654945,2.476321,-5.020051,-36.57816,-14.76341,1007.584
14.689593792,-59.54594,42.24775,8.331464,-0.4329203,0.8109308,1.026186,0.6397951,-44.50079,-7.338007,1007.584
14.721876144,90.36835,14.59874,21.25089,-0.05771465,0.5612093,0.2746272,0.6397951,-44.50079,-7.338007,1007.58
14.756638050,72.76783,1.214505,36.24231,-0.08085121,0.6963206,0.7516325,1.692831,-44.89418,-8.657118,1007.58
14.788920879,75.80454,-4.714476,9.7331,-0.1584476,0.5192765,0.5525832,0.7709568,-43.79937,-4.733027,1007.579
14.823687077,73.75941,-16.57244,-6.294306,-0.05754353,0.7255753,0.3678982,0.7709568,-43.79937,-4.733027,1007.575
14.855969429,58.88573,-16.39633,-11.47427,0.216453,1.048602,0.4958053,-0.2554626,-44.85278,-2.523999,1007.575
14.890735149,9.368773,-1.544526,-3.856677,0.1223611,1.20793,0.6100388,-0.2307055,-45.5417,0.5362391,1007.572
14.923018455,-30.60424,4.677969,-8.731934,-0.05013887,0.9700225,0.6670704,-0.2307055,-45.5417,0.5362391,1007.572
14.955296993,-43.80463,-3.657826,0.04352789,-0.08083519,0.81753,0.5333238,-0.5316966,-46.26741,0.5500669,1007.568
14.990062714,-43.06094,-11.46529,1.810808,0.0190355,0.7275118,0.5891591,-0.5569901,-45.54965,-0.3306181,1007.569
15.022346020,-32.52542,-9.23459,-7.208416,0.007687392,0.8653235,0.7103434,-0.5569901,-45.54965,-0.3306181,1007.569
15.057111740,-33.02121,-11.81751,-1.419049,-0.05978187,0.7341303,0.6096711,-0.3026173,-45.57551,-2.078122,1007.571
15.089394093,-31.10003,-9.117184,0.5919943,-0.04093219,0.76298,0.6818268,0.08466649,-45.59706,-3.391737,1007.571
15.124160290,-26.452,-15.04617,3.456208,-0.02455663,0.8072267,0.7299036,0.08466649,-45.59706,-3.391737,1007.571
15.156439304,-21.43214,-23.61677,8.392405,-0.005662558,0.7913027,0.7273551,-0.01307511,-44.88427,-4.70723,1007.567
15.188721657,-33.14516,-27.60856,16.9241,0.001643787,0.7612462,0.7054137,0.3250694,-44.53501,-5.588815,1007.567
15.223487377,-40.52002,-31.07202,17.89915,0.002272196,0.6572724,0.5825112,0.3250694,-44.53501,-5.588815,1007.567
15.255770207,-45.35397,-24.49731,15.15682,0.07975373,0.6389087,0.667325,-0.01386189,-44.18408,-6.896015,1007.567
15.290536404,-40.45805,-17.9813,7.234531,0.1092138,0.6549692,0.6692866,-1.210707,-44.13324,-8.622225,1007.564
15.322819233,-42.37923,-12.22843,3.395267,0.1028712,0.6967428,0.7207823,-2.688321,-42.73124,-9.489311,1007.556
15.355097771,-46.96528,-6.416857,2.481156,0.1042962,0.7205855,0.7581396,-2.688321,-42.73124,-9.489311,1007.556
15.389863491,-58.86423,-5.184098,6.076657,0.1309114,0.7344278,0.8219748,-2.313684,-42.39391,-11.24327,1007.549
15.422146797,-70.70119,-3.540421,10.09874,0.1189849,0.6710494,0.8366267,-1.721166,-42.07052,-13.87236,1007.542
15.456912517,-81.0508,0.6274769,12.29261,0.1038664,0.4858037,0.7350508,-1.721166,-42.07052,-13.87236,1007.536
15.489194870,-78.07606,3.151696,13.93801,0.1001957,0.411845,0.7621941,-2.146516,-40.63664,-16.06394,1007.532
15.523961544,-67.78844,4.912779,14.30365,0.1079435,0.440256,0.857093,-2.957951,-39.57455,-19.11684,1007.53
15.556240082,-59.8558,7.730514,12.17073,0.07377589,0.3763333,0.8727567,-2.957951,-39.57455,-19.11684,1007.53
15.588522434,-49.56818,1.977641,11.86602,0.05451183,0.3472799,0.883752,-3.008538,-38.13903,-20.87822,1007.529
15.623288155,-41.01581,0.3926658,9.245574,0.1189261,0.3053752,0.8872425,-3.435211,-35.97612,-23.07903,1007.529
15.655571461,-33.517,4.325752,6.868886,0.1349461,0.2744068,0.8744624,-3.435211,-35.97612,-23.07903,1007.523
15.690337181,-24.03503,8.963272,5.832895,0.1064393,0.2724632,0.8962676,-3.109713,-35.26798,-24.40096,1007.523
15.722620010,-24.097,8.434947,5.223488,0.09005052,0.263346,0.9329924,-2.699782,-34.54924,-24.85235,1007.523
15.757381439,-22.11385,5.734619,5.162547,0.08226256,0.2836358,0.929257,-2.699782,-34.54924,-24.85235,1007.521
15.789664745,-14.49109,5.441104,6.503242,0.1015718,0.2903973,0.9089494,-3.523077,-33.82847,-26.15681,1007.521
15.821947098,-12.26003,5.734619,6.381361,0.0682157,0.2937582,0.9293449,-3.885854,-33.82448,-26.1513,1007.521
15.856713295,-15.54464,4.09094,3.69997,0.01651493,0.2644501,0.8925483,-3.885854,-33.82448,-26.1513,1007.523
15.888995647,-18.27148,3.973535,5.771954,0.09375804,0.3330592,0.9382152,-3.1503,-32.73328,-25.74045,1007.523
15.923762321,-20.93635,4.208346,7.539235,0.1029994,0.3039891,0.9201428,-3.174932,-32.38003,-26.61652,1007.525
15.956040859,-25.83227,4.736671,10.52533,0.0943895,0.2740557,0.9480305,-3.174932,-32.38003,-26.61652,1007.52
15.990806580,-18.27148,5.382402,11.43944,0.1519024,0.3317628,1.077796,-3.564714,-31.65908,-27.55393,1007.522
16.023089886,-42.31726,11.42879,15.33964,0.1084512,0.2483575,0.921265,-3.961735,-31.6712,-28.79335,1007.524
16.055372238,-42.4412,10.25473,16.07093,0.04465547,0.2878909,1.074394,-3.961735,-31.6712,-28.79335,1007.524
16.090137959,-50.00199,5.55851,10.76909,0.0163874,0.1613483,1.027809,-3.612266,-30.95179,-29.24383,1007.525
16.122420311,-49.44423,7.495702,10.58627,0.08647589,0.16242,0.9991407,-3.653242,-29.14692,-30.63633,1007.527
16.157183170,-49.69212,10.84176,12.41449,0.09431793,0.09495325,0.9329926,-3.667212,-28.059,-31.08591,1007.527
16.189465523,-43.37081,8.434947,10.15969,0.03926006,0.06623895,0.9314977,-3.667212,-28.059,-31.08591,1007.523
16.256514072,-39.77634,10.95917,10.34251,0.09356625,0.02547444,0.9944793,-3.720445,-25.16541,-32.86574,1007.523
16.288796902,-35.6241,10.37214,11.86602,0.04667328,0.01952174,0.9911625,-3.720445,-25.16541,-32.86574,1007.523
16.323562622,-31.162,8.787164,10.46439,0.03756813,-0.01290481,0.9977659,-3.408255,-23.73388,-34.63263,1007.523
16.355841160,-30.54226,7.436999,10.09874,0.01097089,-0.006637356,1.013329,-3.398255,-22.6347,-34.21075,1007.521
16.390607357,-31.162,5.382402,8.636168,0.03424338,-0.03612176,1.003926,-3.398255,-22.6347,-34.21075,1007.521
16.422890186,-29.92253,5.264996,10.58627,0.02120872,-0.04389048,1.007294,-3.000309,-21.92159,-35.09787,1007.52
16.455173015,-31.65779,5.499807,11.56132,0.07009099,-0.05431866,1.030334,-2.652163,-20.47315,-35.55758,1007.52
16.489938736,-37.11147,8.024028,13.14578,0.0240676,-0.02206773,1.018531,-2.652163,-20.47315,-35.55758,1007.518
16.522222042,-47.70897,9.198083,11.43944,0.01739367,-0.0676255,1.003783,-3.463473,-19.74674,-36.42631,1007.518
16.556983471,-52.97673,9.315489,12.78014,0.01310249,-0.09230847,1.006552,-3.067512,-17.94009,-37.32728,1007.518
16.589266300,-60.47554,11.01787,13.08484,0.04132476,-0.1623537,1.019146,-3.067512,-17.94009,-37.32728,1007.516
16.624032020,-63.94607,11.95711,12.65825,-0.04765679,-0.1724193,0.9801221,-3.857497,-15.74435,-37.34303,1007.511
16.656315327,-68.22225,8.787164,10.0378,-0.0586974,-0.2151187,0.9557313,-2.747967,-13.95131,-38.69075,1007.509
16.688597679,-74.04778,5.499807,9.367455,-0.04704591,-0.2549642,0.897467,-2.747967,-13.95131,-38.69075,1007.509
16.723363399,-71.81672,6.673863,11.6832,0.000107706,-0.3671671,0.8773898,-3.187823,-11.40068,-39.15235,1007.509
16.755641937,-66.36304,6.204241,3.63903,-0.06116641,-0.4571823,0.7846733,-2.842433,-8.433422,-39.63129,1007.507
16.790408611,-38.53687,0.04044916,0.4091721,-0.00052247,-0.5548892,0.7467623,-2.842433,-8.433422,-39.63129,1007.507
16.822690964,-17.03201,-0.2530647,1.140461,0.01538333,-0.5389296,0.7303818,-2.133385,-5.956176,-40.10959,1007.505
16.857456684,3.481276,-3.129501,4.126555,-0.01310177,-0.5363852,0.7913709,-2.07634,-4.073509,-40.13436,1007.507
16.889739513,18.16903,-5.477612,-0.3221164,-0.01506179,-0.5149963,0.82147,-2.07634,-4.073509,-40.13436,1007.507
16.922022343,28.89048,-3.481718,3.273385,-0.01214898,-0.5002801,0.8776262,-2.416469,-3.32922,-39.26662,1007.507
16.956784248,34.90192,-5.829829,0.8357571,-0.05077892,-0.5055435,0.9279572,-2.488146,-3.759458,-39.69604,1007.509
16.989067078,40.04574,-9.528104,-1.845634,-0.0311836,-0.413104,0.9144208,-2.488146,-3.759458,-39.69604,1007.512
17.023832798,44.75573,-9.997725,-3.24727,-0.004307167,-0.3361655,0.8901451,-2.413162,-5.151799,-39.24354,1007.514
17.056116104,45.43745,-6.299451,-3.612914,-0.006277277,-0.3079771,0.9275343,-2.470868,-6.66995,-39.22339,1007.513
17.088398457,40.47955,-5.65372,-5.441136,-0.04987882,-0.255178,0.9796564,-2.470868,-6.66995,-39.22339,1007.513
17.123164177,31.49337,-6.475559,-6.842772,-0.005354866,-0.2573378,1.018707,-3.133313,-8.1207,-39.19481,1007.513
17.155442715,24.05653,-7.76702,-7.57406,-0.02770568,-0.1996959,1.05389,-3.529275,-9.927357,-38.29385,1007.515
17.190209389,10.67022,-8.41275,-7.391238,-0.01868343,-0.1382927,1.030048,-3.116036,-11.03119,-38.72216,1007.515
17.222491741,-6.186615,-10.76086,-8.000646,0.03457131,-0.1671927,1.024935,-3.116036,-11.03119,-38.72216,1007.515
17.257257462,-14.11924,-12.99157,-9.097578,0.02015854,-0.2328168,0.9501429,-3.90073,-11.75158,-38.70098,1007.515
17.289540291,-13.80938,-13.10897,-9.402282,0.01056455,-0.2623346,0.9586976,-4.252183,-11.37744,-38.26435,1007.517
17.321823120,-16.1024,-13.87211,-12.32744,0.04308427,-0.3174442,0.948162,-4.252183,-11.37744,-38.26435,1007.517
17.356585026,-9.347273,-12.99157,-14.09472,0.09439369,-0.3102344,1.033177,-4.252844,-11.01293,-38.26897,1007.511
17.388867855,-8.97543,-11.524,-15.31353,-0.001090618,-0.2655072,0.8890895,-4.24152,-10.64278,-37.83786,1007.509
17.423633575,-17.58977,-18.92055,-24.82028,-0.01109384,-0.30889,0.947844,-4.24152,-10.64278,-37.83786,1007.509
17.455916405,-14.80095,-23.26455,-25.79533,0.08517368,-0.3221239,0.9596472,-4.978398,-11.00495,-38.25793,1007.508
17.490682602,-9.47122,-18.39222,-25.12498,0.1326247,-0.365217,0.9124063,-5.716599,-10.63809,-38.68725,1007.503
17.522964954,-0.7329332,-17.62909,-30.36588,0.05852171,-0.3273226,0.8760402,-5.716599,-10.63809,-38.68725,1007.501
17.555243492,1.126277,-20.21201,-27.07509,0.1214073,-0.3255748,0.9102387,-5.717921,-9.90906,-38.69648,1007.499
17.590010166,3.605223,-16.27892,-27.56261,0.1914892,-0.3040062,0.9324485,-6.069375,-9.534922,-38.25985,1007.499
17.622292519,11.35193,-14.34173,-24.75934,0.1169668,-0.2751326,0.9477599,-6.069375,-9.534922,-38.25985,1007.501
17.657058239,6.76588,-17.27687,-19.88408,0.1589851,-0.2468773,0.967651,-6.418843,-10.25433,-37.80938,1007.506
17.689340591,7.323643,-16.33763,-18.78715,0.2007361,-0.3154615,0.971522,-7.155721,-10.6165,-38.22946,1007.511
17.724107265,16.68167,-18.50963,-18.60433,0.1992545,-0.3121731,0.9435043,-7.155721,-10.6165,-38.22946,1007.515
17.756385803,24.1185,-20.56423,-15.61823,0.1929258,-0.2972188,0.9349012,-7.141751,-11.70442,-37.77988,1007.515
17.788668156,37.071,-23.73418,-14.2166,0.2248933,-0.3188961,0.9371262,-7.479896,-12.05367,-36.8983,1007.52
17.823434353,46.98679,-27.08023,-11.16956,0.2667121,-0.2118146,0.9415125,-7.479896,-12.05367,-36.8983,1007.523
17.855717182,51.01508,-24.79083,-7.269357,0.3275678,-0.2055819,0.8727684,-8.192802,-12.40458,-36.44693,1007.525
17.890483379,55.78705,-22.2079,1.262342,0.3481266,-0.1038696,0.8815209,-9.204165,-14.8785,-35.96403,1007.523
17.922765732,44.81771,-14.16562,0.9576385,0.3479358,-0.03380319,0.8514631,-9.204165,-14.8785,-35.96403,1007.523
17.955044270,28.89048,-4.362259,-0.5658791,0.3966415,0.007813414,0.810019,-10.32557,-16.73793,-35.05126,1007.517
17.989810467,16.86759,4.267049,1.749868,0.3518277,-0.04933191,0.835413,-10.29829,-18.54924,-34.15673,1007.519
18.022093296,21.51561,5.030185,-2.272219,0.3451149,-0.05986664,0.8740426,-10.67239,-18.91541,-34.58232,1007.519
18.056859016,25.60587,5.323699,-0.6268198,0.3159733,0.01819223,0.9422306,-10.67239,-18.91541,-34.58232,1007.521
18.089141369,16.80561,0.2752603,-1.236227,0.2323283,0.02873873,0.9835632,-10.283,-20.36619,-33.69792,1007.524
18.123908043,4.90667,-5.771126,-1.601871,0.3160336,0.04434168,1.090311,-9.907576,-20.72906,-33.2631,1007.524
18.156186581,-13.37556,-4.303556,-5.380195,0.1858671,0.05531381,1.010887,-9.907576,-20.72906,-33.2631,1007.529
18.188468933,-27.69148,-7.356101,-1.47999,0.2594802,0.01299393,1.026925,-10.26837,-21.81861,-33.24373,1007.535
18.223234654,-31.22397,-12.22843,-3.491033,0.2391265,0.01128424,0.9679793,-9.918238,-21.46372,-33.68959,1007.54
18.255517960,-32.52542,-11.05438,-1.662812,0.2427642,-0.104939,0.9407215,-9.918238,-21.46372,-33.68959,1007.543
18.290283680,-38.41292,-8.295345,-1.053405,0.2938901,-0.03447379,0.9850048,-10.6471,-19.63317,-33.70164,1007.543
18.322566509,-47.83292,-2.718582,-3.856677,0.3057648,-0.219507,0.7803995,-10.66107,-18.54525,-34.15121,1007.541
18.357328415,-21.68003,-7.943129,-6.355247,0.3209539,-0.2973144,0.798295,-10.66107,-18.54525,-34.15121,1007.543
18.389611244,1.002329,-6.299451,-12.51026,0.3185687,-0.2737307,0.9052742,-11.0021,-17.04002,-35.47303,1007.544
18.421894073,-8.727536,-3.657826,-19.94502,0.3422039,-0.2133102,1.007572,-11.4139,-16.72597,-35.03471,1007.546
18.456659794,-29.48871,-3.423015,-28.90331,0.2907028,-0.3400141,0.9329968,-11.4139,-16.72597,-35.03471,1007.546
18.488942146,-19.51095,-12.52194,-26.03909,0.2766888,-0.3238913,0.9901644,-10.33755,-16.74357,-35.48699,1007.555
18.523708820,-5.876747,-9.351995,-29.45177,0.3031247,-0.2526401,1.001632,-11.43853,-16.37272,-35.91079,1007.562
18.555987358,0.9403557,-10.23254,-21.83419,0.2891781,-0.126335,0.8708846,-11.43853,-16.37272,-35.91079,1007.57
18.590753078,15.38022,-18.92055,-19.88408,0.352084,-0.1303665,0.9132687,-10.35086,-16.02017,-35.93195,1007.577
18.623035431,21.76351,-24.49731,-9.524163,0.4107852,-0.0121701,0.8988276,-11.06377,-16.37107,-35.48058,1007.577
18.655318737,20.95785,-27.90207,-5.380195,0.4378208,0.008742455,0.9066232,-11.06377,-16.37107,-35.48058,1007.584
18.690084457,20.77193,-30.30889,-2.820685,0.4504229,-0.01113311,0.8856953,-10.68835,-16.73394,-35.04575,1007.589
18.722367287,23.37482,-28.60651,3.943733,0.4403347,-0.04069652,0.8811979,-12.13681,-18.17605,-35.00522,1007.596
18.757128715,15.44219,-20.74034,14.85212,0.3965955,0.01544161,0.7762218,-12.13681,-18.17605,-35.00522,1007.601
18.789412022,5.898248,-15.57449,5.771954,0.5466614,-0.06211441,0.754186,-12.48826,-17.80191,-34.5686,1007.601
18.821694374,-1.724512,-3.657826,-2.455041,0.6019021,-0.1289109,0.7029262,-13.90209,-18.49809,-33.23012,1007.603
18.856460571,4.720749,8.552352,-4.587966,0.506707,-0.1694804,0.6642256,-14.26354,-19.22313,-33.21537,1007.608
18.888742924,16.74364,17.88609,0.7138757,0.5370755,-0.09062176,0.7753159,-14.26354,-19.22313,-33.21537,1007.612
18.923508644,13.14917,20.70383,-0.1392942,0.4866925,-0.01981058,0.8647799,-13.91341,-18.86824,-33.66123,1007.613
18.955788136,7.881405,20.93864,-3.491033,0.450231,-0.1232978,0.9169649,-14.27553,-19.22877,-33.6511,1007.613
18.990553856,16.68167,16.88815,-1.114345,0.3017797,-0.08708358,1.019013,-14.27553,-19.22877,-33.6511,1007.613
19.022981644,8.067326,12.25063,-2.455041,0.2585796,-0.0189858,1.015625,-12.46165,-19.24871,-33.67868,1007.615
19.055263996,5.154564,3.738724,-6.416187,0.3853065,-0.05022965,0.9706985,-12.44767,-20.33662,-33.2291,1007.617
19.090030670,4.410881,-0.3704703,-3.917618,0.4598939,0.08628867,0.9229701,-12.44767,-20.33662,-33.2291,1007.619
19.122313023,-9.657141,7.436999,-0.2002349,0.4751299,0.1855268,0.9201175,-12.44767,-20.33662,-33.2291,1007.619
19.157074928,-18.82924,9.667705,9.123693,0.4333889,0.05775422,0.950421,-12.0849,-20.34061,-33.23462,1007.619
19.189357281,-13.80938,3.386507,15.46153,0.3968939,-0.05857723,0.9251828,-12.0849,-20.34061,-33.23462,1007.615
19.224123478,-16.3503,3.092993,11.6832,0.3792869,0.05440681,1.008048,-11.38332,-20.35986,-34.1171,1007.607
19.256406307,-34.19871,4.149643,14.42553,0.3418962,-0.1139191,0.9201524,-11.74874,-18.8978,-34.13005,1007.6
19.288689137,-18.82924,0.4513686,15.09588,0.3709784,-0.12039,0.9853171,-11.74874,-18.8978,-34.13005,1007.6
19.323454857,-30.85213,-2.89469,16.00999,0.3954266,-0.03177366,0.9819008,-12.12482,-18.17042,-34.5695,1007.593
19.355733395,-31.03805,-7.179993,19.9102,0.3709028,-0.1211917,0.8915255,-12.15012,-17.45266,-35.45018,1007.589
19.390499592,-24.71674,-7.297398,25.82145,0.3483184,-0.210094,0.8088841,-12.15012,-17.45266,-35.45018,1007.584
19.422782421,-8.169773,-6.886479,25.69956,0.3132549,-0.3186818,0.78272,-12.14012,-16.35347,-35.0283,1007.581
19.457548141,4.658775,-8.882373,20.5196,0.3466049,-0.2863948,0.8572813,-12.50488,-15.25594,-35.03663,1007.57
19.489830494,17.98311,-12.63935,17.22881,0.3448513,-0.3750789,0.8214898,-12.50488,-15.25594,-35.03663,1007.57
19.522113800,25.79179,-10.46735,9.184633,0.3403714,-0.3233339,0.8150256,-13.944,-15.23435,-34.57884,1007.561
19.556875706,39.05416,-12.69805,5.528191,0.377614,-0.3217216,0.8309079,-13.94466,-14.86983,-34.58346,1007.554
19.589158058,39.92179,-11.28919,2.115512,0.4109968,-0.08459394,0.9472428,-13.94466,-14.86983,-34.58346,1007.549
19.623923778,20.46206,-8.177939,1.07952,0.4684177,-0.04779173,0.9057525,-14.28148,-15.94812,-33.69264,1007.546
19.656207085,9.802588,-1.720634,3.517148,0.5485289,-0.01449551,0.8100483,-14.64294,-16.67317,-33.67789,1007.546
19.688489437,-7.488062,16.59463,3.821852,0.548941,0.02283717,0.830564,-14.64294,-16.67317,-33.67789,1007.542
19.723255634,-40.27213,31.09422,1.384223,0.5035723,0.1969769,0.8476055,-14.9791,-18.11597,-32.78246,1007.539
19.755534172,-57.81067,43.4218,10.95191,0.3808712,-0.334946,0.6384171,-15.36651,-17.75874,-33.65302,1007.528
19.790300369,3.54325,37.49282,16.25375,0.2842346,-0.2914305,0.8520693,-13.59122,-16.33752,-35.00624,1007.518
19.822583199,-1.910433,32.97271,15.2787,0.3230802,-0.07763647,1.075583,-13.59122,-16.33752,-35.00624,1007.518
19.857348919,-34.01279,39.95834,11.3785,0.3516902,-0.1817954,0.874302,-13.26573,-15.62938,-36.32816,1007.513
19.889631271,-16.1024,48.23543,17.83821,0.4490672,-0.3097628,0.7292998,-11.81594,-14.9163,-36.35946,1007.506
19.921914577,8.501142,64.90703,19.23985,0.4253883,-0.3068368,0.7559566,-11.81594,-14.9163,-36.35946,1007.497
19.956676483,19.34653,85.21819,20.94619,0.4842649,-0.4097225,0.9051107,-11.10502,-13.47185,-36.82468,1007.492
19.988958836,32.54692,100.0113,18.8742,0.3880374,-0.3757983,1.001232,-8.95365,-12.77802,-37.73846,1007.492
20.023724556,34.65403,120.1463,7.478294,0.04916399,-0.1286775,1.239769,-8.95365,-12.77802,-37.73846,1007.487
20.056007385,49.71363,113.3955,-0.6877605,-0.4673522,-0.1656611,1.616304,-6.061437,-13.90911,-38.20446,1007.482
20.090773582,39.61192,63.79167,-11.77897,-0.8849426,0.2165251,2.365323,-2.383206,-15.04884,-38.68242,1007.478
20.123056412,-46.53147,23.63897,-19.94502,-0.9276496,0.3955449,2.106342,-2.383206,-15.04884,-38.68242,1007.474
20.155334473,-76.89856,-12.46324,-28.05014,-0.9229463,-0.2181748,1.356413,0.485163,-16.52688,-37.8357,1007.474
20.190100670,-5.876747,-44.57366,3.821852,-0.7714558,-0.4903254,0.7444399,2.344217,-14.73054,-38.32301,1007.469
20.222383499,66.88033,-55.78589,41.23944,-0.3031605,-0.04302628,0.536645,2.344217,-14.73054,-38.32301,1007.473
20.257149696,45.62337,-14.16562,92.73434,0.09553234,0.3895297,0.3211812,1.253241,-13.26051,-38.32492,1007.483
20.289432049,-2.220301,64.32,123.3875,0.3436375,0.3928265,-0.2014486,-1.635004,-14.31652,-37.83123,1007.5
20.324197769,-30.48029,177.2641,149.7748,0.598218,0.3817768,-0.5361162,-1.635004,-14.31652,-37.83123,1007.511
20.356477261,-60.72343,266.7272,148.3123,0.5493684,-0.5818777,-0.972234,-2.056921,-15.0409,-37.81556,1007.511
20.388759613,60.80692,278.1155,154.8939,0.4430161,-0.1770074,-0.3615369,0.8306625,-13.62038,-38.31387,1007.516
20.423525333,-58.43041,296.4895,96.20796,0.5399403,0.01176199,-0.1460257,0.8306625,-13.62038,-38.31387,1007.509
20.455807686,-73.92383,231.212,22.10406,-0.2743843,-2.268759,0.8898907,6.694358,-13.2915,-36.2281,1007.488
20.490573883,177.5653,92.79085,-17.93398,-1.65893,-1.671759,3.015181,13.67168,-13.69236,-33.27819,1007.472
20.522856712,150.1729,23.99118,-10.49921,-2.972434,1.285736,1.912283,13.67168,-13.69236,-33.27819,1007.472
20.555135250,-57.37686,23.63897,-15.55729,-2.339544,1.188933,0.3706167,19.58635,-14.06917,-29.37804,1007.465
20.589901447,-36.11989,21.05604,-29.26895,-0.7574553,-1.221774,0.3752545,19.99236,-18.06593,-28.0256,1007.46
20.622183800,55.35323,30.742,-28.96425,0.1295463,-0.2999883,0.8852279,19.99236,-18.06593,-28.0256,1007.446
20.656949997,3.419302,55.45587,-5.563017,-0.6449702,0.4677755,0.903832,20.36315,-15.87719,-27.62308,1007.439
20.689232826,-13.25161,49.99651,-2.150337,-1.227018,-0.1836296,0.3826528,21.114,-16.60293,-26.75343,1007.439
20.723998547,-0.2991176,35.32082,-1.419049,-1.082385,-0.173712,0.4737674,21.93531,-16.23015,-25.46281,1007.441
20.756277084,3.109434,27.57205,4.004673,-0.5332274,-0.06232493,0.6056795,21.93531,-16.23015,-25.46281,1007.434
20.788560390,4.348907,32.7379,11.74414,-0.5984146,-0.1114883,0.5760506,23.33728,-15.87529,-25.05285,1007.427
20.823326111,0.2586454,34.32287,19.72738,-0.9804878,-0.1231409,0.4593322,23.34926,-15.86966,-24.61712,1007.423
20.855608463,7.261669,31.32903,17.04598,-1.110733,-0.05238676,0.4566311,23.34926,-15.86966,-24.61712,1007.423
20.890374184,3.233381,34.49898,17.10692,-0.8110154,0.02583268,0.5797068,24.17322,-16.95494,-23.30804,1007.418
20.922657013,-6.000695,43.4805,25.7605,-0.7379706,0.02762916,0.619685,24.12408,-16.58413,-22.87601,1007.415
20.957419395,-16.97003,55.80809,31.54987,-0.7808996,-0.047796,0.5328132,24.12408,-16.58413,-22.87601,1007.411
20.989701748,-9.719114,68.89881,33.13433,-0.8941707,-0.007574325,0.5023459,24.96069,-18.02829,-21.12659,1007.408
21.021984577,-7.673984,81.57861,33.80468,-1.048216,0.06315703,0.3701344,25.36008,-18.3799,-19.82031,1007.408
21.056750298,-10.89661,91.8516,32.09834,-1.120404,0.1029353,0.3168544,25.36008,-18.3799,-19.82031,1007.404
21.089033604,-10.89661,98.48502,31.85457,-0.9180987,0.0255941,0.3140449,26.13424,-18.72985,-18.08382,1007.403
21.123799324,-1.538591,90.67754,30.08729,-1.109844,0.06794339,0.1208401,26.19681,-20.15974,-15.88672,1007.393
21.156077862,14.9464,69.77936,19.11797,-1.144838,0.08323034,-0.05110179,26.19681,-20.15974,-15.88672,1007.388
21.190843582,30.31587,46.53305,2.663978,-1.178863,0.07360713,-0.2918357,27.72115,-20.87092,-13.28519,1007.388
21.223126888,39.61192,34.79249,-4.222322,-1.064664,0.0938196,-0.1358161,28.4222,-20.86133,-11.98812,1007.386
21.255409241,19.47048,28.33519,1.871749,-0.9114014,0.2329516,0.2359256,28.4222,-20.86133,-11.98812,1007.383
21.290174961,-15.79253,33.20752,-2.759744,-0.8936175,0.2809362,0.2434116,28.8947,-21.57247,-10.24242,1007.385
21.322457790,-19.94477,26.63281,-2.759744,-0.9690492,-0.0002109504,0.02491166,29.25814,-21.94098,-10.24332,1007.385
21.357219219,-60.97133,37.84504,-64.12704,-0.8638274,-1.484414,0.2178397,29.25814,-21.94098,-10.24332,1007.385
21.389502525,-31.90568,16.24241,-7.208416,-1.179894,0.02891563,0.08741184,29.88793,-22.32971,-11.55599,1007.388
21.421785354,20.95785,-0.6052814,-3.673855,-0.9219127,0.3809768,0.2285714,30.61614,-23.79575,-11.54856,1007.385
21.456551075,-3.89359,0.04044916,-12.08367,-0.8448061,-0.2261793,-0.0733287,30.61614,-23.79575,-11.54856,1007.383
21.488833427,15.38022,-12.05232,-6.233365,-0.9905079,0.07618075,0.02297507,30.36586,-26.29266,-7.589191,1007.385
21.523600101,1.250224,-26.72802,-16.59329,-1.070475,0.1118509,-0.09364194,31.08348,-21.92645,-7.655613,1007.385
21.555878639,-5.380958,-33.65495,-21.65136,-1.001523,0.05997548,0.1055747,31.106,-20.85047,-8.97756,1007.388
21.590644359,-0.6709595,-71.81174,-34.02233,-1.124544,0.1301387,0.06514647,31.106,-20.85047,-8.97756,1007.393
21.622926712,-26.6999,-47.3914,-30.79247,-1.022335,0.1262938,0.2722995,30.65746,-20.12805,-9.85181,1007.398
21.655209541,-47.64699,-25.67137,-36.39901,-0.6960229,0.12596,0.7550331,31.74434,-19.07531,-12.06176,1007.405
21.689975738,1.560092,-31.01332,-37.31312,-1.328218,0.1833825,0.09827857,31.74434,-19.07531,-12.06176,1007.41
21.722258091,-4.637274,-57.84049,-53.27959,-1.371134,0.09774733,-0.002671099,31.28251,-17.6295,-13.38097,1007.41
21.757019997,-23.97306,-26.14099,-60.95812,-0.5715939,-0.4842623,0.3650277,31.58204,-15.83908,-15.5882,1007.418
21.789302826,18.7268,3.092993,-39.32417,-0.9217521,-0.007244545,0.480169,31.58204,-15.83908,-15.5882,1007.427
21.824069023,-38.10305,2.564668,-37.49594,-1.042138,0.1292636,0.308617,31.9049,-13.67288,-16.92859,1007.432
21.856351852,-73.36607,10.66565,-43.10249,-1.030371,-0.2316042,0.05370133,33.01521,-12.58003,-16.08753,1007.441
21.888634205,-36.36779,0.5100714,-43.7119,-1.102431,-0.2171957,0.08246144,33.01521,-12.58003,-16.08753,1007.441
21.923399925,-58.80225,-11.40659,-39.68981,-1.119953,-0.178139,0.05564871,32.96198,-9.686439,-17.86736,1007.446
21.955678940,-78.44791,-7.12129,-39.01946,-0.9687724,-0.2756044,0.155324,33.33344,-7.862214,-17.46023,1007.445
21.990445137,-67.85041,-19.39017,-29.20801,-0.9341748,-0.1488637,0.255075,33.33344,-7.862214,-17.46023,1007.449
22.022727489,-107.2657,-19.68369,-19.51844,-0.9245446,-0.1362998,0.2415894,33.65695,-6.060527,-18.79601,1007.457
22.057493210,-147.6725,-11.28919,-12.99778,-0.9755022,-0.2759472,0.2027135,33.33725,-3.085959,-19.26483,1007.457
22.089776039,-149.2838,-10.76086,-4.283262,-0.8158974,-0.3227482,0.1087997,33.33725,-3.085959,-19.26483,1007.464
22.122058868,-144.202,-6.886479,5.040666,-0.9175823,-0.3001637,0.004724552,33.27293,-0.9589524,-19.29084,1007.468
22.156820774,-141.4751,-6.06464,6.32042,-0.9559814,-0.2419682,-0.06882791,33.31534,2.376143,-19.7698,1007.473
22.189103127,-152.3205,8.963272,3.943733,-0.7521829,-0.3792331,-0.1913907,33.31534,2.376143,-19.7698,1007.478
22.223869324,-139.43,23.05194,2.968682,-0.843718,-0.5061244,-0.144538,32.55076,3.793364,-18.90409,1007.478
22.256152153,-117.4293,20.76253,-0.07835352,-0.9859546,-0.6563241,-0.0783709,32.58407,5.268331,-17.61537,1007.483
22.288434982,-94.74698,10.84176,0.7748164,-0.9768558,-0.6185482,-0.07720884,32.58407,5.268331,-17.61537,1007.49
22.323200703,-84.08751,7.436999,9.306515,-0.9667173,-0.4197443,-0.1118748,32.61738,6.743298,-16.32665,1007.497
22.355479241,-94.37514,11.13527,18.81326,-0.959635,-0.3647228,-0.1608879,33.00281,7.479609,-15.46995,1007.508
22.390244961,-98.77526,17.70998,25.94333,-1.072482,-0.4976869,-0.1744536,32.69906,8.272717,-15.47535,1007.508
22.422528267,-70.14343,24.22599,30.63576,-1.211157,-0.5216061,-0.1182118,32.69906,8.272717,-15.47535,1007.516
22.457293987,-52.41896,23.46286,29.29506,-1.271633,-0.472071,-0.01531083,32.31188,8.233521,-14.16097,1007.523
22.489576340,-53.41055,26.86762,26.73556,-1.323843,-0.3099744,-0.1191828,33.15904,7.584774,-11.98582,1007.53
22.521859169,-88.73553,32.38568,18.5695,-1.267931,-0.2665733,-0.2113933,33.15904,7.584774,-11.98582,1007.535
22.556621075,-194.2147,62.85242,13.0239,-1.262397,-0.2114733,-0.3788452,32.83156,7.970181,-10.67774,1007.535
22.588903904,-216.7731,82.22434,5.893836,-1.303379,-0.3660052,-0.6774337,33.64167,7.637131,-7.634069,1007.537
22.623670101,-161.4926,88.50554,3.882792,-1.245051,-0.5014147,-0.7005676,33.64167,7.637131,-7.634069,1007.537
22.655952454,-117.8632,89.44479,1.262342,-1.388147,-0.5334463,-0.749752,33.71117,8.732573,-2.853233,1007.533
22.690718174,-104.4149,104.8249,-2.3941,-1.205731,-0.3243071,-0.5932888,33.15473,8.0904,3.267205,1007.53
22.723001480,-97.34987,102.7703,-4.95361,-1.175507,-0.2362743,-0.631045,33.15473,8.0904,3.267205,1007.53
22.755280018,-323.4918,139.6944,-112.6358,-0.5276318,1.54262,-0.8949862,34.42195,8.923901,7.597007,1007.53
22.790045738,-168.5576,78.34996,6.990768,-1.280734,-1.544177,-0.6435727,35.21965,8.553298,12.38527,1007.524
22.822328091,-166.0787,145.5646,11.19568,-0.7818774,-0.1612617,-0.3911979,35.21965,8.553298,12.38527,1007.526
22.857094288,-55.64159,110.4017,-15.43541,-0.7215751,-0.3004077,-0.3761655,34.24051,7.886944,16.33259,1007.523
22.889377117,-19.82082,88.44684,-25.61251,-0.6600736,-0.2881264,-0.2311966,33.33005,3.636324,20.38663,1007.521
22.924142838,-24.22095,77.52812,-54.43746,-0.586467,-0.07934404,-0.08803719,33.33005,3.636324,20.38663,1007.521
22.956421375,-52.29502,53.57738,-76.98552,-0.5459542,-0.03714907,-0.09465272,31.58741,4.05459,23.02395,1007.52
22.988704205,-75.10133,22.52361,-95.57244,-0.5078943,0.01075768,-0.1273362,30.95708,4.472159,26.51618,1007.52
23.023469925,-73.86185,0.7448825,-118.608,-0.3716565,0.03018853,-0.220823,30.95708,4.472159,26.51618,1007.521
23.055753231,-55.57962,-19.15536,-125.9209,-0.358857,0.1259208,-0.2565642,30.24087,5.943833,26.94448,1007.523
23.090518951,-24.59279,-60.54081,-127.5663,-0.4236642,0.3303913,-0.2692816,30.56594,6.620058,27.80287,1007.523
23.122801304,-63.82212,-112.6102,-117.0845,-0.3951318,0.5928545,-0.09816377,30.56594,6.620058,27.80287,1007.526
23.155079842,-109.8066,-135.6217,-101.3618,-0.2679031,0.8445325,-0.4803738,31.63941,8.456951,25.1472,1007.528
23.189846516,-215.0379,-125.8183,-81.00761,-0.4224208,0.9250836,-0.5704693,33.66586,11.61413,22.02416,1007.531
23.222128868,-246.2726,-108.0314,-45.23542,-0.2471026,1.016101,-0.5640449,33.66586,11.61413,22.02416,1007.529
23.256894589,-193.7809,-124.1159,4.309377,-0.498561,0.8458007,-0.4822867,36.50687,11.58516,17.55883,1007.529
23.289177418,-71.32093,-119.948,57.26685,-0.5572655,0.8135016,-1.396526,38.17915,10.00763,14.50132,1007.529
23.323943138,75.6806,-19.62498,108.2133,-1.244589,1.111661,-1.367728,41.36662,6.683562,9.262815,1007.533
23.356222153,159.0971,-7.473506,63.23904,-2.240062,0.26231,-0.6877959,41.36662,6.683562,9.262815,1007.541
23.388504982,82.18783,-49.32859,75.12247,-1.573889,0.6569569,0.2513667,43.11256,4.442717,6.648572,1007.545
23.423270702,-41.01581,-2.072851,25.09016,-0.7751765,0.4277141,0.04433076,43.45599,1.875849,5.803913,1007.545
23.455553055,-61.90094,-23.08845,31.54987,-0.7572066,0.2897978,-0.2562242,43.45599,1.875849,5.803913,1007.536
23.490319729,42.9585,-70.46158,8.209582,-0.3494599,0.04618572,-0.2314155,43.45997,-0.311245,5.831608,1007.529
23.522602081,23.31285,-58.25141,17.22881,-0.4598879,0.5586239,-0.1484964,43.75282,-1.442588,3.22558,1007.528
23.557363987,-21.61806,-5.536315,12.71919,-0.8029445,0.5923939,-0.3177355,43.75282,-1.442588,3.22558,1007.529
23.589646339,-7.797931,-7.590912,15.15682,-1.162409,0.4274094,-0.4324738,44.7832,-2.576274,1.044247,1007.529
23.621929645,3.54325,-15.63319,22.65253,-1.08447,0.4201806,-0.3466308,44.34941,-3.367039,0.6249557,1007.529
23.656695366,7.633511,-22.73623,11.3785,-0.9712919,0.4411453,-0.2534519,44.34941,-3.367039,0.6249557,1007.526
23.688978195,2.799566,-17.21817,2.542097,-0.8973604,0.4421232,-0.3130686,45.84955,-3.693056,0.1700945,1007.524
23.723743915,14.69851,-22.85364,-4.587966,-0.7218555,0.4840702,-0.221355,44.72527,-3.697994,-1.12054,1007.521
23.756022453,1.126277,-11.46529,-4.283262,-0.7135745,0.4545363,-0.2326599,44.72527,-3.697994,-1.12054,1007.521
23.790788650,-0.7949069,-11.5827,-3.003507,-0.8248147,0.4609573,-0.2430193,44.71394,-4.068145,-1.551651,1007.517
23.823071480,0.1966717,-12.58065,0.1654093,-0.8533059,0.4292697,-0.2876144,44.99239,-4.14349,-2.426931,1007.512
23.855353832,-1.972406,-13.93081,1.201401,-0.9379439,0.4548546,-0.2345917,44.99239,-4.14349,-2.426931,1007.51
23.890119553,0.0727244,-15.8093,0.1044686,-0.9338693,0.3614068,-0.253019,44.67799,-4.085048,-2.858831,1007.509
23.922402382,8.253247,-17.15947,1.871749,-0.9089479,0.4543799,-0.2564116,44.64203,-4.101952,-4.166011,1007.509
23.957164764,5.402459,-15.10487,3.334326,-0.9060878,0.4752298,-0.2466305,44.64203,-4.101952,-4.166011,1007.507
23.989447117,3.605223,-9.351995,9.915922,-0.9593909,0.5210329,-0.251573,45.35625,-4.480079,-4.608153,1007.505
24.021791458,1.312198,-4.831882,13.57236,-0.929729,0.4656064,-0.2103763,45.69506,-4.495337,-5.485123,1007.503
24.056557655,1.993908,-4.244854,19.9102,-0.7660651,0.3805133,-0.1831734,45.69506,-4.495337,-5.485123,1007.5
24.088840008,-2.220301,-5.242801,25.63862,-0.797087,0.3957517,-0.2299135,44.97017,-4.851875,-5.469476,1007.5
24.123606682,-9.96701,1.155802,32.76869,-0.8621814,0.538973,-0.180615,45.26193,-5.650618,-5.899797,1007.5
24.155885220,-11.02056,6.967377,36.97359,-0.9439119,0.5406473,-0.1886478,45.26193,-5.650618,-5.899797,1007.494
24.190650940,-5.628852,4.032238,39.41122,-0.8322098,0.5297396,-0.2174734,45.3236,-6.319561,-5.892254,1007.493
24.222933292,-8.169773,6.967377,35.87666,-0.7611499,0.5533106,-0.1764003,45.32636,-7.838377,-5.873022,1007.493
24.255216599,-11.33043,11.42879,31.06235,-0.8579315,0.5659282,-0.226881,44.60477,-10.01749,-5.834295,1007.491
24.289982319,-14.61503,11.89841,23.32288,-0.889219,0.6782888,-0.3165777,44.60477,-10.01749,-5.834295,1007.491
24.322264671,-15.73056,14.54004,22.10406,-0.7593876,0.5916979,-0.2743239,44.5463,-11.11038,-5.819529,1007.493
24.357026577,-20.06872,16.0076,18.14292,-0.8160673,0.6590267,-0.2075878,44.63139,-11.46429,-4.944378,1007.491
24.389309406,-12.19806,10.84176,22.22594,-0.876518,0.6690852,-0.1870959,44.63139,-11.46429,-4.944378,1007.486
24.424075603,5.774301,7.613108,21.67748,-0.8919527,0.6545411,-0.1818275,43.92047,-12.90874,-4.479157,1007.483
24.456358433,26.7214,16.71204,20.03208,-0.8283724,0.5511239,-0.1936716,43.92312,-14.3668,-4.460693,1007.483
24.488640785,20.21416,17.35777,14.79118,-0.6669537,0.5541631,-0.2902066,43.92312,-14.3668,-4.460693,1007.481
24.523461342,10.17443,20.0581,11.6832,-0.6773543,0.6528031,-0.3050933,43.60762,-13.97576,-2.716887,1007.475
24.555739880,-1.724512,24.22599,9.489337,-0.7156261,0.6924677,-0.2777127,42.53326,-15.05171,-2.250766,1007.474
24.590505600,-7.240168,23.69767,5.101606,-0.7334676,0.6906677,-0.2225725,42.53326,-15.05171,-2.250766,1007.472
24.622788906,-6.496484,21.11475,6.807946,-0.7016932,0.7268308,-0.288183,42.86021,-15.40828,-1.379292,1007.472
24.657554626,-5.442932,23.63897,10.09874,-0.7210935,0.7275107,-0.3567856,42.5214,-15.39302,-0.5023234,1007.472
24.689836979,-3.459774,28.80481,10.83003,-0.7059105,0.6276874,-0.4095973,42.5214,-15.39302,-0.5023234,1007.47
24.722119331,15.56614,33.67714,10.70815,-0.6106547,0.5746841,-0.5657712,42.54736,-16.4753,0.382978,1007.47
24.756882191,59.1956,41.89553,10.70815,-0.6180267,0.5898083,-0.6662246,42.6684,-16.81231,2.565309,1007.468
24.789164543,91.73177,57.15825,6.015717,-0.5220496,0.6281474,-0.8581386,42.6684,-16.81231,2.565309,1007.468
24.823930263,92.53743,71.12952,1.688927,-0.4968797,0.855998,-0.7592427,41.94231,-16.77549,4.755893,1007.463
24.856213093,49.58968,92.14511,-19.51844,-0.362793,0.5975433,-0.7416637,41.43436,-17.42396,10.43968,1007.458
24.888495445,42.33876,106.5273,-24.63746,-0.4288952,0.5051012,-0.8324499,41.43436,-17.42396,10.43968,1007.447
24.923262119,48.22626,109.4037,-35.05832,-0.4287872,0.4698759,-0.8026772,41.13031,-16.99845,14.79877,1007.437
24.955540180,40.16969,110.6365,-37.37407,-0.4364567,0.4652455,-0.7345221,38.79567,-16.50942,22.30237,1007.437
24.990306377,36.69916,114.8044,-42.98061,-0.4585845,0.41777,-0.7308769,38.79567,-16.50942,22.30237,1007.43
25.022588730,52.50244,111.9867,-44.80883,-0.4488139,0.3727644,-0.7393723,36.07191,-15.66396,28.87317,1007.421
25.057354450,58.69981,108.8167,-43.77284,-0.4510227,0.2871284,-0.7321195,33.39531,-14.09577,34.99808,1007.413
25.089637756,81.3202,99.89388,-41.88368,-0.4567068,0.239713,-0.7246417,29.49482,-11.06186,40.68719,1007.408
25.121920109,101.3997,94.08231,-42.12744,-0.4358633,0.2121296,-0.7422473,29.49482,-11.06186,40.68719,1007.408
25.156682015,115.9635,87.09667,-41.45709,-0.4271032,0.1776923,-0.7729186,23.47905,-7.303679,44.28194,1007.401
25.188964367,121.2932,82.63526,-42.67591,-0.4730202,0.1595623,-0.8004788,18.74078,-2.855242,45.97983,1007.396
25.223731041,123.7102,74.41688,-43.65096,-0.444883,0.1165302,-0.8133535,18.74078,-2.855242,45.97983,1007.392
25.256013393,116.8931,70.83601,-37.25218,-0.4684539,0.09644707,-0.722047,14.45093,3.0914,46.46844,1007.389
25.290779591,94.9544,58.80193,-25.24687,-0.4608598,0.1388813,-0.7730666,11.52813,7.856379,46.01683,1007.385
25.323061943,71.77625,48.17673,-6.416187,-0.3506602,0.160007,-0.7727005,11.52813,7.856379,46.01683,1007.385
25.355340481,39.92179,42.89348,10.89097,-0.3569699,0.17504,-0.7580983,8.19247,12.57009,45.94591,1007.385
25.390107155,20.95785,34.67509,23.38382,-0.3178116,0.1448175,-0.8560091,6.06192,14.83637,45.57614,1007.387
25.422389507,112.9887,60.15209,-19.7622,-0.169804,-0.1027796,-0.9307352,6.06192,14.83637,45.57614,1007.388
25.457155228,63.84362,19.52977,-21.04196,-0.05424409,-0.154815,-1.675776,4.525438,14.41565,44.67081,1007.395
25.489437580,49.7756,13.24857,-13.60719,-0.02848241,-0.3178449,-1.396364,1.594622,16.9879,43.81116,1007.395
25.524203777,73.26362,41.13239,18.99609,-0.06049461,-0.167344,-1.083138,1.594622,16.9879,43.81116,1007.404
25.556482792,93.28111,27.74816,19.36173,-0.1043058,-0.1930647,-0.9246215,0.09226584,18.80389,42.06724,1007.41
25.588765144,79.27506,12.77895,15.52247,0.01098937,-0.278355,-0.9147194,-0.2500834,21.03816,40.73619,1007.416
25.623531341,57.39836,17.06425,15.70529,-0.00427087,-0.3410429,-0.8362424,-0.2500834,21.03816,40.73619,1007.419
25.655813694,25.35798,25.10653,7.965819,0.01479121,-0.3982964,-0.753941,-0.3656538,24.96521,38.94419,1007.419
25.690579414,1.374171,25.86967,1.445164,-0.05698367,-0.5337085,-0.8106351,-0.6953561,26.84059,38.05349,1007.424
25.722862720,-8.727536,15.65539,-4.344203,-0.08832014,-0.5808098,-0.8316233,-0.6953561,26.84059,38.05349,1007.429
25.755141258,-43.80463,8.552352,-10.86486,-0.03739692,-0.4720906,-0.9229682,-1.058794,27.2091,38.05439,1007.438
25.789906979,-74.91541,2.799479,-12.8759,-0.02260096,-0.424473,-1.021351,-0.6953561,26.84059,38.05349,1007.447
25.822189331,-82.97198,2.036344,-15.31353,0.01148373,-0.3227777,-1.029065,-0.6953561,26.84059,38.05349,1007.447
25.856955528,-80.18317,5.852024,-16.47141,0.04905199,-0.2358124,-0.9595193,-2.156229,25.36093,39.83862,1007.45
25.889238358,-72.74632,6.967377,-14.76506,0.06685631,-0.1931182,-0.9423946,-2.827888,22.11081,41.63409,1007.45
25.924004555,-57.06699,8.258839,-10.07263,0.08852645,-0.1709476,-0.9872749,-3.138755,19.95024,43.41021,1007.45
25.956282616,-44.61028,5.264996,-6.233365,0.08025113,-0.153607,-1.004079,-3.138755,19.95024,43.41021,1007.452
25.988565445,-33.39305,0.333963,-4.770788,0.08696532,-0.141112,-1.035446,-3.847414,18.20283,43.94153,1007.452
26.023405075,-19.20108,-1.896743,-2.576922,0.08495011,-0.1087123,-1.040575,-3.832121,16.38589,44.40033,1007.454
26.055687904,-3.149906,-1.309715,-0.3830571,0.07962707,-0.09115213,-0.9950207,-3.832121,16.38589,44.40033,1007.455
26.090453625,10.85614,-2.48377,1.201401,0.07578483,-0.09545304,-0.9756992,-3.480006,15.64723,43.96832,1007.455
26.122735977,17.67324,-4.479665,2.237393,0.06375835,-0.1265049,-0.9893861,-4.193575,15.66084,44.41508,1007.457
26.157498360,21.70153,-4.362259,3.090563,0.05123602,-0.1536998,-1.006918,-4.193575,15.66084,44.41508,1007.457
26.189781189,23.74666,-3.657826,3.334326,0.05124898,-0.1639082,-1.020512,-3.117229,15.64324,43.96281,1007.459
26.222063541,22.07337,-1.42712,2.907741,0.04016817,-0.1774539,-1.009929,-3.481991,16.74078,43.95448,1007.459
26.256829262,16.55772,0.09915194,2.603038,0.04840396,-0.1763888,-0.9881864,-3.481991,16.74078,43.95448,1007.462
26.289112091,9.492721,0.6861797,1.506105,0.05763428,-0.1825373,-0.953917,-3.483314,17.46981,43.94524,1007.466
26.323878288,1.560092,0.8622881,0.4091721,0.07407337,-0.1810304,-0.9515268,-3.531255,17.44727,42.20234,1007.466
26.356156826,-5.814774,0.333963,-0.5049385,0.07986452,-0.1849704,-0.9767004,-3.531255,17.44727,42.20234,1007.466
26.390922546,-9.657141,0.09915194,-1.297168,0.06677501,-0.1778176,-0.9969361,-3.146881,17.81826,43.00141,1007.464
26.423205376,-9.347273,-1.074904,-1.419049,0.06192319,-0.1749672,-1.008512,-3.507946,17.82306,43.06918,1007.464
26.455487728,-5.814774,-2.072851,-1.236227,0.04839861,-0.1788544,-1.001737,-3.507946,17.82306,43.06918,1007.466
26.490254402,0.6304874,-1.42712,-0.4439978,0.04258803,-0.1710855,-0.9891105,-3.120537,17.46582,43.93973,1007.466
26.522536754,7.323643,-0.194362,0.3482314,0.04355724,-0.174006,-0.9949306,-3.484637,18.19884,43.93601,1007.466
26.557298660,10.17443,0.6274769,0.7748164,0.0513147,-0.181228,-0.9906373,-3.484637,18.19884,43.93601,1007.464
26.589581013,9.306799,1.33191,0.7138757,0.05762376,-0.1899109,-0.9877996,-2.756437,16.7328,43.94344,1007.466
26.621864319,7.44759,0.8622881,0.652935,0.06392415,-0.1937431,-0.9815503,-3.14622,17.45375,43.00603,1007.466
26.656630039,4.720749,-0.0769564,0.5310535,0.06780563,-0.1975871,-0.9767461,-3.14622,17.45375,43.00603,1007.467
26.688912392,1.18825,-0.6639842,0.1654093,0.06587558,-0.2000188,-0.9786896,-3.148204,18.54729,42.99218,1007.467
26.723678589,-2.344248,-0.6639842,-0.07835352,0.05765171,-0.2005459,-0.9844761,-3.134896,17.8239,43.43714,1007.467
26.755957127,-4.5753,-0.3704703,-0.3221164,0.0557056,-0.1966915,-0.9878341,-3.134896,17.8239,43.43714,1007.467
26.790723324,-4.699248,-0.0769564,-0.4439978,0.05230586,-0.1908989,-0.9892441,-3.485298,18.56336,43.9314,1007.469
26.823005676,-3.89359,0.04044916,-0.3221164,0.05036534,-0.1865327,-0.9843807,-2.782392,17.81508,43.05814,1007.471
26.855288506,-2.096354,-0.194362,0.04352789,0.05565464,-0.1778445,-0.9954619,-3.498224,18.13165,43.43881,1007.471
26.890054226,-0.2991176,0.1578547,0.04352789,0.05421545,-0.1826879,-0.9954864,-3.498224,18.13165,43.43881,1007.475
26.922336578,0.9403557,0.3926658,-0.01741281,0.05954941,-0.1879861,-0.9926273,-2.772009,17.75916,43.43239,1007.477
26.957099438,1.436145,0.5100714,0.1044686,0.05906335,-0.1850659,-0.9872917,-2.783443,17.44976,43.00051,1007.477
26.989381790,1.622066,0.4513686,0.04352789,0.06584637,-0.1903664,-0.9863696,-2.783443,17.44976,43.00051,1007.478
27.024147511,1.250224,-0.3117675,-0.01741281,0.05908262,-0.1908501,-0.9805566,-3.510209,18.12601,43.00308,1007.478
27.056429863,0.6304874,-0.4291731,-0.01741281,0.06148629,-0.1889468,-0.9921536,-3.522194,18.12038,42.56736,1007.48
27.088712692,0.320619,-0.0769564,-0.1392942,0.05569068,-0.1908892,-0.9892513,-3.522194,18.12038,42.56736,1007.48
27.123478889,0.2586454,-0.01825362,-0.01741281,0.05714145,-0.1894186,-0.9848952,-3.497673,17.82789,43.44265,1007.478
27.155757427,0.01075075,-0.194362,0.2872907,0.05473847,-0.1971831,-0.9892851,-2.783994,17.75352,42.99667,1007.478
27.190523624,0.1346981,-0.3117675,0.1044686,0.05618501,-0.1942639,-0.9858875,-2.783994,17.75352,42.99667,1007.478
27.222805977,0.320619,0.1578547,0.04352789,0.05520001,-0.1865222,-0.985358,-3.146881,17.81826,43.00141,1007.477
27.257571697,-0.4230649,0.333963,-0.01741281,0.05665465,-0.1904107,-0.991668,-3.158477,18.54246,42.6187,1007.478
27.289855003,-0.8568805,0.2165575,-0.01741281,0.05811659,-0.1923144,-0.9834635,-3.158477,18.54246,42.6187,1007.48
27.322137356,-0.5470122,0.04044916,0.1044686,0.05859252,-0.1889239,-0.9829618,-3.158866,17.81263,42.56569,1007.48
27.356899262,-0.1131966,-0.1356592,-0.2002349,0.05665147,-0.1860259,-0.9829411,-3.508607,18.18757,43.06456,1007.48
27.389181614,0.6304874,0.04044916,-0.01741281,0.05907528,-0.1889258,-0.9839298,-3.508607,18.18757,43.06456,1007.482
27.423948288,1.126277,0.3926658,-0.01741281,0.05567241,-0.1826575,-0.9877542,-3.145169,17.81907,43.06366,1007.482
27.456230640,0.1966717,0.2165575,-0.2002349,0.05520706,-0.1918683,-0.9921566,-2.784766,18.17879,42.99128,1007.482
27.488513470,0.0727244,0.09915194,-0.07835352,0.05472139,-0.1889465,-0.9863376,-2.784766,18.17879,42.99128,1007.482
27.523279190,1.436145,0.09915194,0.1044686,0.05909363,-0.1961799,-0.9825207,-3.135447,18.12766,43.43329,1007.482
27.555557728,2.861539,-0.1356592,0.04352789,0.05715364,-0.1947434,-0.985409,-3.086308,17.75684,43.00126,1007.483
27.590323925,3.357328,0.1578547,0.4701128,0.05570256,-0.195238,-0.9873423,-3.086308,17.75684,43.00126,1007.482
27.622606754,2.985487,0.2752603,0.4701128,0.06054779,-0.1966498,-0.9796258,-3.148094,18.48654,42.99295,1007.482
27.657372475,1.622066,-0.01825362,0.2872907,0.06055611,-0.2010134,-0.9820678,-2.783994,17.75352,42.99667,1007.482
27.689654827,0.1966717,0.1578547,0.22635,0.05620265,-0.2005435,-0.9825393,-3.160079,18.48091,42.55722,1007.482
27.721937656,-0.8568805,0.09915194,-0.01741281,0.05282312,-0.2034633,-0.9844822,-3.160079,18.48091,42.55722,1007.482
27.756700039,-1.600564,-0.01825362,-0.2002349,0.0595774,-0.1981322,-0.9878506,-3.510871,18.49053,42.99846,1007.482
27.788982391,-0.8568805,0.1578547,-0.2002349,0.05956903,-0.1942575,-0.9868618,-3.148094,18.48654,42.99295,1007.482
27.823748112,0.4445664,-0.194362,-0.2611756,0.05957405,-0.1957027,-0.9849362,-3.148094,18.48654,42.99295,1007.482
27.856030941,2.303776,-0.194362,0.2872907,0.05908549,-0.1942589,-0.9868607,-3.498886,18.49616,43.43419,1007.482
27.890796661,3.481276,-0.4291731,0.4091721,0.05861031,-0.198135,-0.9878485,-3.147432,18.12202,42.99757,1007.482
27.923079967,4.410881,-0.01825362,0.5310535,0.05573161,-0.2068458,-0.9854747,-3.147432,18.12202,42.99757,1007.482
27.955358505,5.402459,-0.01825362,0.7138757,0.05669567,-0.2053896,-0.9849851,-3.510209,18.12601,43.00308,1007.48
27.990124226,5.340486,-0.01825362,0.5919943,0.05331744,-0.2068379,-0.9811185,-2.783715,18.54411,43.04891,1007.478
28.022432804,4.720749,-0.194362,0.5310535,0.05476386,-0.2053853,-0.9820802,-2.783715,18.54411,43.04891,1007.478
28.057198524,4.286933,0.1578547,0.1654093,0.05817575,-0.2169915,-0.982637,-3.160189,18.54166,42.55645,1007.478
28.089480877,3.791144,0.2165575,0.4701128,0.05479247,-0.2174835,-0.9821491,-3.161512,19.27069,42.54722,1007.48
28.124246597,4.472854,-0.1356592,0.652935,0.05722468,-0.2237693,-0.9826735,-3.161512,19.27069,42.54722,1007.478
28.156526089,3.729171,-0.0769564,0.3482314,0.05916479,-0.2237392,-0.9754259,-3.523628,18.91016,42.55735,1007.478
28.188808441,2.055882,-0.3117675,0.4701128,0.05336237,-0.2222893,-0.9710542,-2.78664,19.21158,42.9782,1007.478
28.223574162,0.5065401,-0.1356592,0.22635,0.05239503,-0.2252251,-0.9797707,-2.78664,19.21158,42.9782,1007.478
28.255856991,-0.9188542,0.09915194,0.1654093,0.05481448,-0.228143,-0.9860772,-2.800059,19.99573,42.53247,1007.478
28.290622711,-1.35267,0.04044916,-0.01741281,0.05432494,-0.2242599,-0.9821866,-3.162174,19.63521,42.54261,1007.477
28.322906017,-0.3610912,0.2165575,-0.01741281,0.05333765,-0.2155503,-0.9816515,-3.162174,19.63521,42.54261,1007.477
28.355184555,0.5685137,0.09915194,0.04352789,0.0581838,-0.2198902,-0.9812032,-2.787412,19.63685,42.97282,1007.475
28.389950276,1.312198,-0.194362,0.2872907,0.05867109,-0.2223167,-0.9836352,-3.162064,19.57445,42.54338,1007.475
28.422232628,2.613645,-0.01825362,0.22635,0.05527933,-0.2204004,-0.9865176,-3.162064,19.57445,42.54338,1007.475
28.456998348,3.233381,-0.01825362,0.4701128,0.05820638,-0.2285927,-0.9788355,-3.100278,18.84476,42.55169,1007.475
28.489281654,3.791144,-0.4291731,0.4701128,0.05337325,-0.2290856,-0.9773776,-2.435187,18.83744,42.54158,1007.475
28.524047375,4.224959,-0.2530647,0.5919943,0.0562737,-0.2295694,-0.9798037,-2.799948,19.93498,42.53325,1007.473
28.556325912,3.54325,-0.194362,0.4091721,0.05387105,-0.2334232,-0.9725689,-2.799948,19.93498,42.53325,1007.473
28.588608742,2.179829,0.09915194,0.2872907,0.05579327,-0.2300465,-0.9773883,-3.174821,19.99409,42.10226,1007.471
28.623374462,0.6304874,0.09915194,0.2872907,0.053374,-0.2295711,-0.9778638,-2.389356,20.28921,42.08647,1007.471
28.655657768,0.2586454,0.3926658,0.1654093,0.0480685,-0.2334398,-0.9725565,-2.389356,20.28921,42.08647,1007.473
28.690423489,-0.2991176,0.9209908,-0.2611756,0.08094627,-0.2353142,-0.9823068,-3.525502,19.94296,42.54427,1007.473
28.722705841,-1.662538,-1.251012,-0.2002349,0.06546885,-0.2216922,-0.9478719,-2.80072,20.36025,42.52786,1007.473
28.757467747,-2.963985,-1.896743,-0.01741281,0.03837114,-0.2238036,-0.9768318,-2.80072,20.36025,42.52786,1007.473
28.789750099,-2.840038,0.2165575,-0.07835352,0.03402774,-0.2399069,-1.012689,-2.07252,18.89421,42.53529,1007.473
28.822033405,-0.7329332,1.449316,-0.01741281,0.05000247,-0.2451632,-1.006468,-2.810611,19.20031,42.10675,1007.473
28.856799126,1.18825,0.5687742,0.1654093,0.05631282,-0.234294,-0.94599,-2.810611,19.20031,42.10675,1007.473
28.889081955,0.1966717,0.2752603,-0.01741281,0.05724308,-0.2212497,-0.9531694,-2.811382,19.62558,42.10136,1007.473
28.923847675,-3.521748,1.038396,-0.4439978,0.06590987,-0.2150255,-0.9802253,-3.162725,19.93897,42.53876,1007.471
28.956126213,-5.07109,0.8035853,-0.6877605,0.0635073,-0.2227884,-0.9841318,-3.162725,19.93897,42.53876,1007.471
28.990892410,-1.848459,-0.4291731,-0.2002349,0.05916935,-0.2305617,-0.9894844,-2.739486,19.93431,42.53233,1007.471
29.023175240,2.427724,-0.6052814,0.4701128,0.05385753,-0.2344565,-0.9919124,-3.113586,19.56815,42.10673,1007.471
29.055457592,4.720749,0.09915194,0.4091721,0.04467303,-0.2286069,-0.9715549,-3.113586,19.56815,42.10673,1007.471
29.090223312,3.791144,-0.2530647,0.3482314,0.05192954,-0.2266176,-0.9618904,-2.750148,19.19965,42.10583,1007.471
29.122506619,1.436145,0.09915194,0.3482314,0.05726744,-0.2367862,-0.9682444,-3.174049,19.56882,42.10765,1007.47
29.157268524,-1.414643,0.6274769,-0.07835352,0.05917894,-0.2339426,-0.9875699,-3.174049,19.56882,42.10765,1007.47
29.189550877,-2.840038,0.5687742,-0.3830571,0.05434294,-0.2310267,-0.9798079,-2.798625,19.20595,42.54248,1007.47
29.221833229,-3.459774,0.3926658,-0.4439978,0.06111161,-0.228568,-0.9740072,-2.364062,19.57145,42.96715,1007.47
29.256599426,-3.211879,-0.2530647,-0.2002349,0.05482609,-0.2310269,-0.9802924,-2.364062,19.57145,42.96715,1007.47
29.288882256,-2.282275,0.09915194,-0.2002349,0.05867677,-0.2252252,-0.9851021,-3.186034,19.56318,41.67192,1007.466
29.323648453,-0.8568805,-0.1356592,-0.07835352,0.05479097,-0.2165124,-0.9811767,-3.090939,20.30845,42.96895,1007.471
29.355926991,0.2586454,0.1578547,0.1044686,0.05817966,-0.217464,-0.9792556,-3.090939,20.30845,42.96895,1007.467
29.390692711,0.692461,-0.01825362,0.2872907,0.05627026,-0.2281176,-0.9797955,-2.811272,19.56483,42.10213,1007.467
29.422975063,0.320619,-0.194362,0.1654093,0.05626589,-0.2237377,-0.972519,-3.172836,18.90054,42.11611,1007.467
29.455258369,-0.05122291,-0.01825362,-0.01741281,0.05675125,-0.2256835,-0.9759153,-3.172836,18.90054,42.11611,1007.467
29.490024090,-0.6089858,0.2165575,-0.2002349,0.05771821,-0.2271472,-0.9802765,-2.738824,19.5698,42.53694,1007.471
29.522306442,-0.9188542,0.2165575,-0.2611756,0.0523764,-0.2165062,-0.9773039,-3.161512,19.27069,42.54722,1007.471
29.557068348,-0.6709595,0.3926658,-0.1392942,0.05288174,-0.2252106,-0.9759042,-3.52484,19.57844,42.54889,1007.47
29.589351177,0.2586454,0.333963,0.04352789,0.06399079,-0.2232759,-0.9855859,-3.52484,19.57844,42.54889,1007.47
29.624117374,0.1346981,0.2165575,0.1044686,0.06400852,-0.2285778,-0.9793314,-2.799287,19.57046,42.53786,1007.47
29.656400204,0.1966717,-0.4291731,0.2872907,0.05965572,-0.2251732,-0.9706008,-2.809949,18.8358,42.11137,1007.467
29.688682556,0.1966717,-0.957498,0.4091721,0.05191729,-0.2266684,-0.9768773,-2.809949,18.8358,42.11137,1007.467
29.723448276,0.3825927,-0.3117675,0.3482314,0.04513868,-0.2252589,-0.9836228,-3.452393,19.58341,42.9837,1007.467
29.755727291,-0.4850385,0.5687742,0.04352789,0.05335979,-0.2247433,-0.9812204,-3.162174,19.63521,42.54261,1007.467
29.790493488,-1.35267,0.5687742,-0.2002349,0.05432538,-0.2237694,-0.98025,-3.162174,19.63521,42.54261,1007.467
29.822775841,-1.972406,0.6274769,-0.3830571,0.05867825,-0.2217983,-0.9734802,-2.387371,19.19566,42.10032,1007.469
29.857541561,-0.9188542,-0.2530647,0.04352789,0.05047516,-0.2334787,-0.9860982,-2.726177,19.21092,42.97728,1007.469
29.889823914,0.4445664,-1.074904,0.4701128,0.05677264,-0.2343909,-0.9749979,-2.726177,19.21092,42.97728,1007.469
29.922107220,2.737592,-1.192309,0.4701128,0.05721386,-0.2208821,-0.9874914,-3.52484,19.57844,42.54889,1007.469
29.956869125,2.985487,-1.251012,0.5919943,0.04513508,-0.2257625,-0.9894269,-2.798625,19.20595,42.54248,1007.469
29.989151478,2.117855,-0.6052814,0.1044686,0.04513932,-0.2223242,-0.9744208,-2.798625,19.20595,42.54248,1007.469
30.023917675,2.055882,-0.0769564,0.1654093,0.04902861,-0.2319999,-0.9769014,-2.447283,18.89256,42.10508,1007.472
30.056200027,1.498119,0.2752603,0.04352789,0.05096732,-0.234419,-0.9783695,-2.798736,19.2667,42.54171,1007.472
30.088483334,-0.05122291,0.333963,-0.07835352,0.0596541,-0.2256686,-0.9739876,-2.798736,19.2667,42.54171,1007.472
30.123249054,-2.03438,0.04044916,-0.2611756,0.0567458,-0.2247287,-0.9797772,-2.798736,19.2667,42.54171,1007.472
30.155527592,-2.220301,-0.3704703,-0.2611756,0.05963932,-0.2227978,-0.9836401,-3.174049,19.56882,42.10765,1007.474
30.190293312,-0.7329332,-0.4878758,-0.01741281,0.05529891,-0.2271607,-0.9822052,-3.174049,19.56882,42.10765,1007.474
30.257342339,1.869961,-0.2530647,0.3482314,0.0504752,-0.2329899,-0.9846451,-3.173388,19.2043,42.11227,1007.476
30.289624691,0.7544347,-0.1356592,0.2872907,0.05048003,-0.2319925,-0.9759376,-3.173388,19.2043,42.11227,1007.476
30.321907520,-0.5470122,0.04044916,0.04352789,0.05482693,-0.2305348,-0.9778724,-2.811382,19.62558,42.10136,1007.476
30.356669426,-0.9808278,-0.194362,0.04352789,0.05046467,-0.2266808,-0.9792914,-2.43651,19.56647,42.53234,1007.476
30.388951779,-0.1131966,-0.194362,-0.01741281,0.05192293,-0.2300657,-0.9797972,-2.43662,19.62723,42.53157,1007.476
30.423717975,0.2586454,-0.3704703,0.22635,0.05674966,-0.22569,-0.9778491,-2.43662,19.62723,42.53157,1007.476
30.456000805,0.3825927,-0.5465786,0.22635,0.0596468,-0.2232555,-0.9759077,-3.186806,19.98845,41.66653,1007.476
30.490766525,0.692461,-0.4291731,0.22635,0.0533777,-0.2324878,-0.9817479,-2.750809,19.56417,42.10122,1007.476
30.523048878,1.064303,-0.3117675,0.22635,0.05096503,-0.2334511,-0.9783641,-2.750809,19.56417,42.10122,1007.476
30.555328369,1.312198,-0.4878758,0.22635,0.047584,-0.2353998,-0.9793348,-2.811272,19.56483,42.10213,1007.474
30.590094089,1.374171,-0.3704703,0.22635,0.04708971,-0.2315363,-0.9812455,-2.43651,19.56647,42.53234,1007.474
30.622376442,0.9403557,-0.3704703,0.1654093,0.04516296,-0.2324884,-0.9749621,-2.43651,19.56647,42.53234,1007.474
30.657142162,0.1966717,0.04044916,-0.01741281,0.052889,-0.2281125,-0.9754372,-2.448495,19.56084,42.09662,1007.472
30.689424992,-0.1131966,-0.1356592,-0.01741281,0.04999336,-0.2315182,-0.9783509,-3.186696,19.9277,41.6673,1007.472
30.724191189,0.2586454,-0.1356592,0.04352789,0.0557886,-0.2290885,-0.9802834,-3.186696,19.9277,41.6673,1007.472
30.756469727,0.4445664,-0.01825362,-0.07835352,0.0548407,-0.2358531,-0.9764524,-2.446893,19.6224,42.15809,1007.477
30.788752556,0.1966717,-0.4291731,0.22635,0.05434962,-0.2314877,-0.9730424,-2.811934,19.92934,42.09752,1007.477
30.823518276,-0.2991176,-0.3704703,0.04352789,0.05096168,-0.2310216,-0.9754496,-2.811934,19.92934,42.09752,1007.477
30.855800629,0.01075075,-0.4291731,0.1044686,0.05145201,-0.2349015,-0.9783733,-2.801271,20.66401,42.52401,1007.472
30.890567303,0.5065401,-0.3704703,0.1654093,0.04757934,-0.2344417,-0.9822299,-2.800059,19.99573,42.53247,1007.477
30.922849655,0.8164083,-0.3704703,0.4091721,0.04661695,-0.2349137,-0.9778796,-2.800059,19.99573,42.53247,1007.478
30.955128193,1.560092,-0.6639842,0.4701128,0.04710472,-0.2363608,-0.976922,-2.811934,19.92934,42.09752,1007.478
30.989893913,1.993908,-1.074904,0.4091721,0.0437019,-0.2296037,-0.9792935,-2.425186,19.93662,42.96346,1007.478
31.022176743,2.427724,-1.720634,0.5919943,0.04758791,-0.2358722,-0.9759534,-2.425186,19.93662,42.96346,1007.477
31.056942940,3.295355,-2.014148,0.8357571,0.04807331,-0.2373292,-0.9778965,-2.763456,19.92305,41.66087,1007.475
31.089225769,5.278512,-2.190257,1.07952,0.04904383,-0.2387782,-0.9779069,-3.187357,20.29222,41.66269,1007.477
31.123991489,7.385616,-1.720634,1.384223,0.04904564,-0.2407254,-0.981302,-3.187357,20.29222,41.66269,1007.477
31.156270027,7.819432,-1.603229,1.201401,0.04616562,-0.2465097,-0.9721434,-2.823919,19.92371,41.66179,1007.477
31.188552380,7.757458,-1.955446,1.323283,0.03700725,-0.2586325,-0.9717091,-1.73625,20.27626,41.64063,1007.477
31.223319054,7.323643,-1.779337,1.07952,0.03700994,-0.2595988,-0.9712311,-2.111784,20.69988,41.20503,1007.477
31.255601406,6.456011,-1.720634,1.018579,0.03798855,-0.2634576,-0.9683545,-2.111784,20.69988,41.20503,1007.477
31.290367127,5.340486,-2.307662,1.018579,0.03267417,-0.2649197,-0.9669011,-2.474451,20.64312,41.21132,1007.473
31.322649956,5.340486,-3.423015,1.384223,0.03894531,-0.2595883,-0.9697849,-2.825903,21.01726,41.64794,1007.473
31.357411385,6.579958,-4.362259,1.445164,0.03317542,-0.275107,-0.9746951,-2.825903,21.01726,41.64794,1007.467
31.389694691,6.579958,-6.06464,1.567046,0.03075012,-0.2712359,-0.9727341,-1.736632,21.43137,41.68826,1007.466
31.421977520,7.943379,-8.177939,1.810808,0.02689851,-0.2833943,-0.9872981,-1.751543,22.09321,41.18182,1007.464
31.456743240,13.58298,-10.46735,1.810808,0.01190254,-0.2756436,-0.9722351,-1.751543,22.09321,41.18182,1007.46
31.489025593,21.20574,-11.17178,1.506105,0.008048233,-0.2868358,-0.9872771,-1.412185,21.77419,40.3087,1007.46
31.523792267,31.61732,-11.23048,0.7748164,-0.004550175,-0.2791616,-0.9968751,-1.04996,22.07396,40.29934,1007.459
31.556070804,38.86824,-12.28713,-0.5049385,-0.0131201,-0.3265214,-0.9705367,-1.04996,22.07396,40.29934,1007.457
31.590836525,40.35561,-16.16152,-2.455041,-0.03201567,-0.3189111,-0.9936578,-1.063268,22.79736,39.85438,1007.454
31.623118877,40.6035,-18.68574,-4.283262,-0.01870463,-0.3886732,-0.884826,-0.7384315,23.87001,38.52783,1007.454
31.655401707,36.20337,-19.62498,-4.100441,-0.0497133,-0.3943928,-0.9756781,-0.7384315,23.87001,38.52783,1007.454
31.690167904,23.99456,-24.37991,-8.061586,-0.1008741,-0.4205339,-0.9351077,0.335268,25.31047,38.0571,1007.45
31.722450256,26.78337,-28.60651,-14.33848,-0.1691791,-0.4403048,-1.142468,1.045529,27.11944,37.58726,1007.448
31.757212162,31.61732,-37.76414,-13.1806,-0.1510338,-0.5291163,-1.089834,1.045529,27.11944,37.58726,1007.445
31.789494991,-0.9188542,-60.12989,17.47257,-0.1014109,-0.5741508,-0.8547623,1.433364,26.79412,36.27749,1007.443
31.821777344,-49.38226,-64.4739,24.66357,-0.3318265,-0.4458496,-0.7844044,2.785517,28.15924,34.93147,1007.443
31.856544018,-101.3162,-66.05887,3.456208,-0.1725124,-0.4972282,-0.6578955,2.785517,28.15924,34.93147,1007.441
31.888826370,-141.2272,-50.85486,-11.77897,-0.4449056,-0.485463,-0.8114585,5.699717,28.13297,35.32308,1007.44
31.923592091,-52.79081,-68.8179,-34.50985,-0.3937169,-0.4797305,-0.8768004,7.58816,26.68877,37.92832,1007.438
31.955870628,61.73652,-76.09705,-42.79779,-0.2387213,-0.3966463,-0.9095359,7.58816,26.68877,37.92832,1007.436
31.990636349,95.76006,-71.98785,-28.41578,-0.02532778,-0.2302926,-0.838468,9.069853,23.03893,38.82387,1007.436
32.022919655,81.13428,-52.49854,-16.28858,0.1189808,0.096846,-0.8156475,10.45706,25.18189,36.59549,1007.436
32.055202007,-21.92793,-23.20585,-8.670993,0.1231307,0.1473319,-0.9154413,10.45706,25.18189,36.59549,1007.44
32.089968205,17.11548,3.797427,-19.57938,-0.1363392,-0.286498,-1.336974,12.57785,29.50961,34.76409,1007.44
32.122250557,78.96519,9.256785,-21.59042,-0.2467831,-0.4658929,-0.9161971,13.02296,30.67053,35.61449,1007.441
32.157012463,104.1885,12.66155,-15.92294,-0.3231035,-0.4398816,-0.7442639,12.18911,30.59588,33.88431,1007.441
32.189295292,74.2552,0.8035853,-10.56015,-0.3681526,-0.6264747,-0.7897041,12.18911,30.59588,33.88431,1007.445
32.224061489,31.74127,-0.0769564,-5.623958,-0.426114,-0.6161128,-0.6817134,11.41075,33.52936,29.93518,1007.448
32.256343842,-7.921878,5.55851,-18.72621,-0.4495054,-0.5719723,-0.7742323,11.40612,36.08097,29.90287,1007.448
32.288626194,-19.07714,4.09094,-20.43255,-0.3068732,-0.5662462,-0.7759574,11.40612,36.08097,29.90287,1007.448
32.323392868,-18.14753,-1.016201,-12.81496,-0.2334052,-0.5539477,-0.7789465,10.69322,35.73006,30.35424,1007.448
32.355671406,-13.12767,-0.6639842,-7.086535,-0.2363989,-0.5299052,-0.8218293,9.917973,36.41262,30.79346,1007.447
32.390437126,-11.3924,0.04044916,-0.809642,-0.2208539,-0.5530208,-0.8016899,9.917973,36.41262,30.79346,1007.443
32.422719478,-16.59819,-1.309715,2.968682,-0.2585875,-0.544892,-0.7986617,9.181094,36.05045,30.37338,1007.441
32.457485676,-30.2324,0.2752603,4.187496,-0.3113177,-0.549539,-0.8401502,9.581812,34.96982,31.68889,1007.441
32.489768505,-29.30279,2.564668,0.7138757,-0.3259419,-0.5222144,-0.9042607,9.581812,34.96982,31.68889,1007.44
32.522051334,-25.15056,1.860235,-2.028456,-0.3066278,-0.5173869,-0.9240958,9.256313,34.26168,33.01082,1007.44
32.556813240,-13.31359,-2.48377,-0.1392942,-0.2641449,-0.4706394,-0.8741274,9.317989,33.59274,33.01836,1007.438
32.589095592,-13.68543,-0.8987953,0.652935,-0.3081827,-0.4152026,-0.7572086,9.317989,33.59274,33.01836,1007.436
32.623861313,-12.01214,-1.485823,-3.673855,-0.2883079,-0.4706496,-0.8566716,8.918831,33.5479,33.89702,1007.435
32.656144619,-4.017538,-2.542473,-4.587966,-0.3076732,-0.476666,-0.9021073,9.658355,32.45201,34.33556,1007.439
32.688426971,2.737592,-1.896743,-6.477128,-0.2975394,-0.4459365,-0.8391074,9.658355,32.45201,34.33556,1007.439
32.723192692,6.579958,-0.4878758,-8.36629,-0.2966152,-0.4294966,-0.8438503,9.683648,31.73425,35.21625,1007.439
32.755471229,7.013774,-1.251012,-8.305349,-0.2824924,-0.4852393,-0.8828728,9.295578,32.456,34.34108,1007.437
32.790237427,7.943379,-0.4291731,-9.158519,-0.3086522,-0.4591261,-0.866231,9.295578,32.456,34.34108,1007.437
32.822520256,14.14075,-1.83804,-9.767926,-0.2582438,-0.5024671,-0.8462816,9.296239,32.09148,34.3457,1007.437
32.857286453,14.0168,-3.364312,-8.731934,-0.2901508,-0.5079045,-0.853012,8.581347,32.83413,34.78322,1007.437
32.889568806,14.63653,-4.186151,-12.63214,-0.3007705,-0.510791,-0.8389857,8.581347,32.83413,34.78322,1007.439
32.921851158,20.02824,-6.651668,-13.85095,-0.2863506,-0.4822764,-0.8620598,8.569363,32.82849,34.34749,1007.44
32.956613064,26.41153,-6.886479,-13.1806,-0.2581998,-0.524275,-0.8555911,8.543407,33.91077,33.46219,1007.44
32.988896370,26.78337,-8.060534,-13.24155,-0.271223,-0.5134268,-0.7849193,8.543407,33.91077,33.46219,1007.443
33.023662090,28.02284,-10.64346,-12.8759,-0.2474207,-0.5554231,-0.7740902,8.14269,34.99141,32.14668,1007.443
33.055944443,23.74666,-9.704212,-10.74298,-0.2526265,-0.6053026,-0.7801639,8.119381,34.61562,31.27984,1007.445
33.090710640,18.10706,-6.299451,-11.83991,-0.2928317,-0.5700381,-0.7644067,7.801002,36.86115,30.82024,1007.447
33.122993469,18.23101,-4.010043,-11.65709,-0.2617856,-0.625247,-0.8029792,7.801002,36.86115,30.82024,1007.448
33.155272007,18.35495,-0.957498,-10.25545,-0.2646577,-0.6085199,-0.7197264,7.716017,37.15431,29.94587,1007.45
33.190037727,12.5914,-1.603229,-10.86486,-0.3009275,-0.6311185,-0.7889085,7.340593,37.51719,29.51104,1007.45
33.222320557,14.57456,-2.835987,-14.33848,-0.3401749,-0.6022424,-0.8026795,7.340593,37.51719,29.51104,1007.452
33.257086277,23.00298,-7.590912,-16.47141,-0.3000052,-0.6039356,-0.7650675,7.737767,38.65556,28.61853,1007.454
33.289369583,28.39469,-10.29124,-20.49349,-0.2995483,-0.6245688,-0.8565556,6.940537,38.2333,28.20014,1007.455
33.321651936,34.716,-17.9226,-21.71231,-0.2817514,-0.5247308,-0.6844056,6.940537,38.2333,28.20014,1007.457
33.356413841,48.90797,-19.15536,-22.56548,-0.3863778,-0.6615806,-0.7091302,6.539821,39.31393,26.88463,1007.457
33.388696194,28.14679,-27.96078,-21.71231,-0.2650269,-0.6398113,-0.6710763,5.426196,40.04366,26.02049,1007.457
33.423461914,8.067326,-32.7157,-15.13071,-0.2540881,-0.7822033,-0.7154189,5.426196,40.04366,26.02049,1007.457
33.455745220,4.844696,-28.13688,-7.147476,-0.3709235,-0.6171466,-0.6049715,6.512307,41.52167,23.80516,1007.459
33.490510940,-14.86293,-35.65084,-10.9258,-0.3417502,-0.7043592,-0.6611257,6.101825,41.10669,24.2527,1007.462
33.522793770,-32.58739,-33.47884,-1.662812,-0.3498867,-0.7509479,-0.69328,6.101825,41.10669,24.2527,1007.462
33.555072307,-50.31186,-38.58598,-0.01741281,-0.5223646,-0.5857055,-0.6238039,6.838702,41.46886,24.67278,1007.464
33.589838028,-83.03395,-51.7354,-7.452179,-0.5140413,-0.6194621,-0.5959744,7.589549,40.74313,25.54244,1007.467
33.622121334,-72.62238,-51.50059,-12.08367,-0.3542351,-0.8027449,-0.8376299,7.589549,40.74313,25.54244,1007.469
33.656887054,-45.16805,-45.3368,-5.441136,-0.3839525,-0.6796231,-0.7517806,7.676092,39.3245,28.61099,1007.472
33.689169407,-19.8828,-44.80848,4.370318,-0.2534603,-0.6589952,-0.7727324,9.587608,38.65252,29.89814,1007.472
33.723935127,16.80561,-30.95462,-6.599009,-0.24398,-0.5908549,-0.8081399,9.587608,38.65252,29.89814,1007.478
33.756213665,38.2485,-13.696,-4.770788,-0.1255267,-0.5123931,-0.602971,11.34379,37.11443,29.89071,1007.484
33.788496971,27.8989,-4.538368,-5.745839,-0.1287559,-0.6104693,-0.6958585,12.03206,37.81858,28.56327,1007.488
33.823262691,10.17443,0.6274769,-11.47427,-0.2133929,-0.6098022,-0.7130761,12.03206,37.81858,28.56327,1007.494
33.855545521,6.827853,6.61516,-14.09472,-0.2426892,-0.7019051,-0.7348079,12.01743,39.27101,28.10908,1007.491
33.890311241,13.14917,11.89841,-12.20555,-0.3120993,-0.6079022,-0.7829512,12.71901,39.25177,27.22659,1007.491
33.922593594,25.23403,12.66155,-13.91189,-0.4256024,-0.6814771,-0.8353362,11.7017,40.05848,27.66794,1007.497
33.957355976,52.06863,12.25063,-17.20269,-0.4840614,-0.7019613,-0.8329095,11.7017,40.05848,27.66794,1007.501
33.989638805,70.9706,4.50186,-13.79001,-0.4724418,-0.674991,-0.7380272,10.86719,40.34835,25.93314,1007.504
34.021921158,70.28889,3.562616,-12.20555,-0.4069792,-0.7527184,-0.7390938,10.43052,41.41208,23.31045,1007.504
34.056686878,57.64626,13.01376,-10.25545,-0.314648,-0.7188439,-0.6743193,10.43052,41.41208,23.31045,1007.504
34.088969708,46.80087,10.72435,-4.161381,-0.3663808,-0.7077255,-0.6340193,9.691417,42.53988,20.69158,1007.502
34.123735905,23.93258,8.141433,0.8966978,-0.4242464,-0.7463222,-0.5504791,9.265017,43.60844,18.44237,1007.498
34.156014442,23.87061,7.378296,5.284428,-0.4508428,-0.7527564,-0.5702793,9.265017,43.60844,18.44237,1007.498
34.188296795,31.12153,4.50186,5.284428,-0.4898494,-0.7839667,-0.4649831,8.501524,44.69306,17.13237,1007.498
34.223062992,36.76113,-4.303556,0.7138757,-0.5960701,-0.8617977,-0.494203,9.179136,44.66254,15.37844,1007.498
34.255345821,64.27744,-13.87211,-0.1392942,-0.4519876,-0.8609559,-0.5104622,9.179136,44.66254,15.37844,1007.504
34.290112019,68.30573,-15.22227,-13.05872,-0.4138218,-0.8277593,-0.4571775,10.15917,44.56796,13.62067,1007.5
34.322394371,64.02954,-9.821617,-22.50453,-0.2983357,-0.7705915,-0.392804,8.960989,45.62276,9.701826,1007.506
34.357156277,43.95008,-15.04617,-26.28286,-0.1237409,-0.779233,-0.3772759,8.960989,45.62276,9.701826,1007.504
34.389438629,34.59206,4.854077,-20.98102,-0.0223276,-0.9118688,-0.332322,8.94943,45.64904,7.085777,1007.504
34.421721935,15.07035,22.2888,-3.551974,0.02043727,-0.9695057,-0.2404051,7.799189,46.72638,4.909842,1007.5
34.456487656,6.889827,22.93453,2.115512,-0.02686334,-0.980032,-0.1649465,7.799189,46.72638,4.909842,1007.502
34.488770008,-19.57293,23.40415,9.854981,-0.01914924,-0.9488288,-0.1029056,7.001296,46.66863,4.486835,1007.497
34.523542881,-31.96766,18.0622,5.528191,-0.1652445,-0.9446266,-0.1673476,7.01262,47.03878,4.917946,1007.492
34.555821419,-23.91108,2.447263,8.94087,-0.2323079,-0.8030214,-0.1649476,7.01262,47.03878,4.917946,1007.492
34.590587616,-38.41292,-27.90207,22.04312,-0.3569712,-0.5084255,-0.3786175,7.400691,46.31703,5.793116,1007.489
34.622870445,-28.31121,-26.55191,25.02922,-0.3140285,-0.6547524,-0.3258804,7.8711,46.76019,7.524202,1007.485
34.655152798,-42.25528,-35.88565,19.23985,-0.4018167,-0.5715663,-0.4088531,7.8711,46.76019,7.524202,1007.483
34.689918518,-71.19698,-40.17096,7.600175,-0.4194444,-0.78212,-0.6937907,9.298472,46.33653,8.815626,1007.482
34.722200870,-30.91411,-26.49321,-19.09185,-0.5510079,-1.060663,-0.9532473,10.08461,45.99221,10.98784,1007.482
34.756963730,15.31824,-2.953393,-21.34666,-0.5368372,-1.12989,-0.9730089,10.48467,45.27609,12.29874,1007.482
34.789246082,53.18415,19.82328,-15.61823,-0.4725681,-1.044366,-0.7797692,10.48467,45.27609,12.29874,1007.483
34.824011803,77.72572,11.54619,-11.65709,-0.4111183,-0.7826353,-0.5671507,10.10991,45.27445,11.86853,1007.482
34.856294632,59.69139,12.72025,-16.1667,-0.4010184,-0.6860759,-0.3563277,8.93768,45.24697,8.834989,1007.482
34.888576984,41.84297,23.58026,-13.72907,-0.3732582,-0.7272021,-0.2347948,8.93768,45.24697,8.834989,1007.482
34.923343182,23.93258,24.4608,-7.147476,-0.2501296,-0.8555612,-0.2314391,7.400029,46.68155,5.788499,1007.48
34.955621719,28.14679,18.1209,-8.183468,-0.299861,-0.9159924,-0.3148269,8.126906,45.94454,5.7867,1007.482
34.990387917,51.57284,12.89636,-10.37733,-0.3465481,-1.006121,-0.3104044,8.126906,45.94454,5.7867,1007.483
35.022670269,61.67455,14.24652,-13.91189,-0.3542357,-1.024021,-0.3022711,7.35275,46.29449,4.050209,1007.483
35.057435989,58.82376,8.024028,-20.55443,-0.3121278,-1.010543,-0.2162332,6.589917,47.0146,2.744827,1007.478
35.089719296,31.24548,4.795374,-22.62642,-0.2717093,-0.8832211,-0.09280291,6.589917,47.0146,2.744827,1007.478
35.122001648,0.3825927,5.206294,-20.55443,-0.3337,-0.8877085,-0.2222564,5.852804,47.04885,0.1398087,1007.476
35.156763554,-7.240168,-4.420962,-19.27468,-0.2798401,-0.9781643,-0.2567275,5.042927,46.98547,-0.7189255,1007.474
35.189045906,-17.77569,3.210399,-18.36057,-0.26581,-0.9951977,-0.29698,5.042927,46.98547,-0.7189255,1007.474
35.223812103,-23.97306,8.024028,-22.38265,-0.2808168,-1.015834,-0.3763489,5.12725,47.05683,0.1508396,1007.472
35.256094933,-30.48029,10.01992,-29.81742,-0.2648321,-1.053302,-0.4505626,3.253013,47.01669,0.1801057,1007.472
35.288377762,-15.60661,11.6049,-34.44891,-0.2018956,-1.097766,-0.4872089,3.253013,47.01669,0.1801057,1007.471
35.323143482,23.1889,13.13117,-29.69554,-0.1161201,-0.9594744,-0.4493827,2.564738,46.31253,1.507549,1007.469
35.355422020,47.79245,18.53182,-29.32989,-0.08966135,-0.897413,-0.4365174,1.476408,46.3245,1.524096,1007.467
35.390187740,65.82678,21.87788,-29.6346,-0.06787486,-0.8967506,-0.4022365,1.476408,46.3245,1.524096,1007.471
35.422471046,72.8298,23.34545,-29.6346,-0.0738143,-0.8152378,-0.3340788,-0.0352881,46.6768,-0.6370926,1007.471
35.457236767,74.13125,30.8007,-34.32703,-0.08237631,-0.8576781,-0.284024,-0.8314307,45.92193,-3.231191,1007.471
35.489519119,75.06085,29.80276,-33.35198,-0.08505347,-0.9686633,-0.3310594,-0.8314307,45.92193,-3.231191,1007.467
35.521821022,88.26125,31.27033,-32.25505,-0.07973199,-0.949091,-0.2719801,-1.615588,45.17271,-5.389562,1007.469
35.556582928,88.50914,41.71942,-33.16916,-0.03600082,-1.016013,-0.207674,-2.786493,44.4162,-8.413872,1007.469
35.588865280,94.58256,52.81425,-39.56793,-0.04014938,-1.110962,-0.2338272,-2.786493,44.4162,-8.413872,1007.469
35.623631954,174.0328,38.60817,-30.18306,-0.2318352,-1.194395,-0.1299492,-3.54482,42.92037,-11.87111,1007.467
35.655914307,309.2593,9.198083,-56.69227,-0.3335376,-1.103469,-0.05911438,-4.751019,41.78245,-16.19798,1007.462
35.690680504,313.5355,-3.599123,-70.95239,-0.2805499,-0.7259724,0.1928557,-6.060456,38.04219,-24.41409,1007.46
35.722962856,255.9,-33.77235,-75.88859,-0.1839143,-0.7704222,0.560775,-6.060456,38.04219,-24.41409,1007.46
35.755241394,182.5851,-46.80437,-74.8526,-0.05630845,-0.5914593,0.4266381,-8.499813,29.5807,-32.17924,1007.46
35.790007591,159.407,-50.67875,-86.18757,0.02007406,-0.8336473,0.2950514,-11.10661,20.45629,-35.07533,1007.46
35.822290420,185.0021,-45.2781,-92.40352,0.03388951,-0.753347,0.2742069,-11.10661,20.45629,-35.07533,1007.459
35.857056141,154.2632,-36.00306,-94.10986,0.0052943,-0.5563267,0.1743501,-13.27071,13.55442,-34.95453,1007.457
35.889338493,93.34309,-37.17711,-127.5663,-0.06956245,-0.7511354,-0.2713599,-15.73513,5.562325,-34.81529,1007.457
35.921621323,88.69506,-12.28713,-128.907,-0.1020186,-0.2795104,-0.1598346,-15.73513,5.562325,-34.81529,1007.457
