Time (s),Gyroscope X (deg/s),Gyroscope Y (deg/s),Gyroscope Z (deg/s),Accelerometer X (g),Accelerometer Y (g),Accelerometer Z (g),Magnetometer X (uT),Magnetometer Y (uT),Magnetometer Z (uT),Barometer (hPa)
0.034835339,0.009766534,-0.08697531,0.08939475,-1.005021,0.02577865,-0.1295634,13.28367,-1.851026,30.1686,1008.266
0.067119122,0.009765524,0.03063744,-0.03269802,-1.00212,0.0272502,-0.1261772,13.26036,-2.226811,29.30177,1008.264
0.099403381,0.0098425,-0.2039672,-0.03231601,-1.005513,0.02965033,-0.1290569,12.54613,-1.848683,29.74391,1008.264
0.134170532,-0.05211625,0.08939262,-0.1536926,-1.007921,0.02479922,-0.1305296,12.54613,-1.848683,29.74391,1008.264
0.166454315,-0.1139356,0.08928602,-0.03143326,-1.007917,0.02286023,-0.1315075,12.55811,-1.843049,30.17963,1008.264
0.201221466,-0.1138436,-0.1454565,-0.09238876,-1.005995,0.0296555,-0.1271221,13.27168,-1.856661,29.73288,1008.264
0.233505249,0.07215273,-0.3801902,-0.03122434,-1.006953,0.02675736,-0.1247193,13.27168,-1.856661,29.73288,1008.264
0.265789032,-0.1140235,-0.1450077,0.09055486,-1.005016,0.02384621,-0.1286076,12.90891,-1.852673,29.73839,1008.27
0.300556183,0.009957965,0.0901822,0.0903675,-1.005499,0.02433203,-0.1276369,13.64644,-1.855015,30.16309,1008.268
0.332840920,-0.0522312,0.09027465,0.08988442,-1.005496,0.02532282,-0.1208631,13.64644,-1.855015,30.16309,1008.268
0.367608070,-0.2383309,0.2662073,-0.09304569,-1.00793,0.02818345,-0.1314772,13.27063,-2.221982,29.67524,1008.27
0.399891853,0.1336855,0.03093704,-0.0318783,-1.006465,0.02433582,-0.125701,12.54442,-1.849489,29.68166,1008.27
0.434659004,0.07186376,0.08876814,-0.1537534,-1.005516,0.03110703,-0.1275983,12.5348,-2.218834,29.3128,1008.271
0.466942787,-0.1137668,0.1467039,0.211543,-1.006461,0.023865,-0.1218362,12.5348,-2.218834,29.3128,1008.27
0.499226570,0.01033331,0.1458668,-0.03233658,-1.003078,0.023376,-0.1261972,12.92089,-1.847038,30.17412,1008.27
0.533993721,-0.2372178,-0.08901359,-0.03211822,-1.011315,0.02768493,-0.1329231,12.90891,-1.852673,29.73839,1008.27
0.566277504,-0.05163207,-0.08822717,0.1507583,-1.002114,0.02532267,-0.123771,12.90891,-1.852673,29.73839,1008.271
0.601044655,-0.1136901,-0.2635066,-0.0926916,-1.005498,0.02727164,-0.1169845,12.90719,-1.853477,29.67614,1008.271
0.633329392,-0.1137904,-0.2042452,-0.03135394,-1.002601,0.02530818,-0.1276376,13.26931,-1.49295,29.66601,1008.275
0.668096543,0.01015105,0.03068908,-0.2135415,-1.007426,0.0228911,-0.1228065,13.26931,-1.49295,29.66601,1008.275
0.700380325,0.0103039,0.2064698,-0.152304,-1.007437,0.02675598,-0.1247183,12.54613,-1.848683,29.74391,1008.275
0.732664108,-0.1132578,0.3234203,-0.03026037,-1.01034,0.02576344,-0.1295521,13.28367,-1.851026,30.1686,1008.275
0.767431259,-0.1130913,0.0881104,0.03062216,-1.008409,0.02722076,-0.1295479,13.28367,-1.851026,30.1686,1008.275
0.799715042,-0.05092851,-0.02910153,0.03099426,-1.01226,0.02092846,-0.1266748,12.90891,-1.852673,29.73839,1008.274
0.834482193,0.01064645,-0.438899,-0.2127324,-1.011312,0.02769312,-0.1305059,12.18401,-2.209211,29.75404,1008.274
0.866765976,-0.1136354,-0.5539816,-0.5772222,-1.008417,0.03451736,-0.1183873,12.18401,-2.209211,29.75404,1008.274
0.901534080,0.2583551,-0.2001804,-1.122447,-1.006476,0.03161932,-0.118408,12.89692,-1.858307,29.30267,1008.275
0.933817863,-0.3612286,0.09429618,-0.6305761,-1.006921,0.01418505,-0.1218902,12.92023,-1.482522,30.1695,1008.275
0.966101646,-0.1129113,0.562613,0.52786,-1.007884,0.01273541,-0.1204461,12.92023,-1.482522,30.1695,1008.275
1.000868797,-0.2977924,0.8520919,1.19417,-1.009361,0.02288229,-0.1237693,12.92155,-2.211554,30.17873,1008.275
1.033152580,0.01325071,0.9649197,1.189455,-1.006003,0.03157648,-0.1314621,13.28195,-1.851831,30.10636,1008.275
1.067919731,-0.04858636,-0.09333214,0.4545707,-1.004064,0.02867352,-0.1329331,13.28195,-1.851831,30.10636,1008.274
1.100203514,0.5082851,-1.147152,-0.6428951,-1.006021,0.03834492,-0.1333573,13.27036,-1.127629,29.72364,1008.274
1.132487297,0.382888,-1.552456,-1.43147,-1.009368,0.02480982,-0.1261755,13.27063,-2.221982,29.67524,1008.272
1.167254448,0.6909586,-1.486773,-1.364303,-1.006446,0.02001487,-0.1155734,13.27063,-2.221982,29.67524,1008.272
1.199539185,0.1317208,-0.6606786,-0.9331324,-1.012241,0.01905663,-0.1078313,12.54375,-1.484973,29.67704,1008.272
1.234306336,-0.1775982,0.8067887,0.2872919,-1.009326,0.01178797,-0.1131968,13.27168,-1.856661,29.73288,1008.272
1.266590118,-0.3628536,0.9794421,0.7722505,-1.005503,0.02578382,-0.1276286,12.54613,-1.848683,29.74391,1008.276
1.301357269,-0.2375079,0.8581613,1.011802,-1.005983,0.0248195,-0.1261827,12.54613,-1.848683,29.74391,1008.274
1.333641052,-0.1128645,0.7962367,0.6427793,-1.010828,0.02769941,-0.1290565,12.54547,-1.484168,29.73929,1008.272
1.365924835,0.1356654,0.2656603,-0.02892683,-1.008407,0.02722895,-0.1271307,12.92089,-1.847038,30.17412,1008.272
1.400691986,-0.05026787,0.088515,-0.5154842,-1.004551,0.03060949,-0.1324376,12.92089,-1.847038,30.17412,1008.271
1.432975769,-0.05039313,0.0885409,-0.3305225,-1.004045,0.0243542,-0.1223221,12.90758,-1.123641,29.72916,1008.271
1.467743874,-0.1124565,0.3224843,0.09669079,-1.007904,0.02047008,-0.1228192,12.92155,-2.211554,30.17873,1008.269
1.500027657,-0.3599702,0.4969648,0.7650574,-1.006952,0.02578459,-0.1261752,12.92155,-2.211554,30.17873,1008.269
1.534794808,0.1362715,0.3771203,0.8222767,-1.002602,0.0267698,-0.1247286,12.54613,-1.848683,29.74391,1008.269
1.567078591,-0.1733555,0.20023,0.6366193,-1.012291,0.03204244,-0.1314459,12.92089,-1.847038,30.17412,1008.269
1.599362373,0.260078,-0.3862329,-0.1562741,-1.005024,0.02918581,-0.1237428,12.92089,-1.847038,30.17412,1008.273
1.634129524,0.3212016,-0.4429274,0.02742496,-1.008891,0.02624988,-0.1300359,12.206,-1.104394,30.61164,1008.273
1.666413307,-0.1132233,0.02813199,0.02777162,-1.009838,0.02241991,-0.1170027,12.92023,-1.482522,30.1695,1008.271
1.701180458,0.07282526,0.2624881,0.4535082,-1.006949,0.02530885,-0.1237607,12.92023,-1.482522,30.1695,1008.271
1.733465195,-0.1129451,0.320121,0.08670336,-1.004047,0.02287948,-0.1290986,13.64644,-1.855015,30.16309,1008.271
1.765748978,-0.1128153,0.1431314,-0.03560762,-1.006476,0.02771186,-0.1290659,12.56944,-1.472898,30.61074,1008.273
1.800516129,-0.1745655,-0.03290538,-0.3396387,-1.006953,0.02529411,-0.1281117,12.56944,-1.472898,30.61074,1008.273
1.832799911,0.2588731,-0.4430092,-0.5817682,-1.008902,0.03109081,-0.1295249,12.5348,-2.218834,29.3128,1008.273
1.867567062,-0.05135395,-0.3824169,-0.6398494,-1.004526,0.0219168,-0.1271693,12.55745,-1.478533,30.17502,1008.273
1.899850845,0.1340572,-0.3219528,-0.6373364,-1.010812,0.02434467,-0.1194069,12.55745,-1.478533,30.17502,1008.273
1.934617996,-0.05165562,-0.2035949,-0.2090437,-1.006462,0.02337124,-0.1247396,13.27102,-1.492145,29.72826,1008.271
1.966901779,-0.1140209,-0.08631655,0.09557533,-1.004035,0.01950836,-0.1242834,12.54547,-1.484168,29.73929,1008.27
1.999186039,0.2577994,-0.1446121,0.2774154,-1.007928,0.02721231,-0.1324496,12.54547,-1.484168,29.73929,1008.27
2.033953667,-0.3003168,-0.4363315,-0.2103146,-1.008402,0.02627256,-0.1237521,12.54547,-1.484168,29.73929,1008.271
2.066237450,0.5680907,-0.08305459,-1.060524,-1.001647,0.03649209,-0.1125894,13.6201,-1.502573,29.22477,1008.271
2.101004601,-0.6093931,0.5036927,-0.5678085,-1.010765,0.0001056588,-0.1321142,12.92089,-1.847038,30.17412,1008.271
2.133288384,0.3195459,0.8535246,1.076367,-1.003555,0.02291362,-0.1194307,12.92089,-1.847038,30.17412,1008.273
2.168055534,-0.3605929,1.142426,1.497024,-1.007906,0.02095236,-0.1233,12.90891,-1.852673,29.73839,1008.273
2.200339317,0.3215953,0.5515896,0.5171897,-1.009415,0.03927526,-0.1415632,12.90824,-1.488156,29.73378,1008.277
2.232623577,0.01090233,-0.5638198,-0.4578665,-1.006001,0.02816441,-0.1387331,12.90824,-1.488156,29.73378,1008.277
2.267391205,-0.05096394,-0.4434608,-0.5168167,-1.005967,0.02146476,-0.1165331,13.63512,-2.225165,29.73198,1008.277
2.299674988,0.01115896,0.2032301,0.2151445,-1.007897,0.01659045,-0.1252585,12.18269,-1.48018,29.7448,1008.277
2.334442139,-0.2987969,-0.3834006,0.09260555,-1.009369,0.0282268,-0.1174542,12.18269,-1.48018,29.7448,1008.279
2.366725922,0.5686133,-0.2647084,-0.1515731,-1.006972,0.032056,-0.1319407,12.89587,-2.223628,29.24503,1008.277
2.401493073,-0.4239438,-0.4386237,-0.5154048,-1.003561,0.0238651,-0.1242596,12.90957,-2.217188,29.74301,1008.277
2.433776856,0.4435486,0.2078817,0.4602364,-1.006904,0.007414959,-0.1204785,12.90957,-2.217188,29.74301,1008.277
2.466061115,-0.3629442,0.1481838,1.066199,-1.008417,0.03158431,-0.1271059,12.90891,-1.852673,29.73839,1008.277
2.500828266,0.5667755,-0.4982882,0.2095927,-1.006496,0.03300231,-0.1387045,12.92155,-2.211554,30.17873,1008.277
2.533112526,0.007577423,-1.257606,-0.9469929,-1.000694,0.03643916,-0.1290287,12.92155,-2.211554,30.17873,1008.277
2.567879677,0.6258223,-1.367964,-1.794075,-1.005974,0.0263237,-0.1107042,12.89692,-1.858307,29.30267,1008.277
2.600163460,0.1902139,-1.362203,-2.030123,-1.008885,0.02627609,-0.1223007,12.90824,-1.488156,29.73378,1008.281
2.632447243,0.3132501,-0.5362117,-1.534723,-1.005473,0.02053268,-0.1063872,12.90824,-1.488156,29.73378,1008.279
2.667214394,0.126518,0.05193561,-0.8589395,-1.008856,0.01417624,-0.122853,13.27168,-1.856661,29.73288,1008.279
2.699498177,0.5599922,0.0513001,-0.7955489,-1.00841,0.03063774,-0.1208266,12.90824,-1.488156,29.73378,1008.279
2.734265328,0.6185362,-0.6522532,-1.947254,-1.010794,0.01855391,-0.1146055,12.90824,-1.488156,29.73378,1008.279
2.766549587,1.050335,-0.06306423,-1.634747,-1.008371,0.01565234,-0.1160775,13.28367,-1.851026,30.1686,1008.279
2.801317215,0.2411957,0.8750018,-0.9579121,-1.007881,0.01567829,-0.1088268,12.92089,-1.847038,30.17412,1008.281
2.833600998,0.5504304,1.398655,0.02004901,-1.006438,0.01027732,-0.1330326,12.92089,-1.847038,30.17412,1008.281
2.865884781,-0.7516649,1.217305,1.297427,-1.003062,0.01806589,-0.1223599,13.28234,-1.121994,30.15937,1008.283
2.900651932,-0.6849348,1.504003,1.899132,-1.00306,0.01661083,-0.1233351,13.27102,-1.492145,29.72826,1008.283
2.932935715,-0.3112927,1.20458,0.6739542,-1.001184,0.03885414,-0.1299808,13.27102,-1.492145,29.72826,1008.283
2.967702866,0.3702675,-0.9098452,-1.396819,-1.007945,0.03153983,-0.1406435,13.29433,-1.11636,30.5951,1008.283
2.999987125,0.4929775,-1.843594,-2.120808,-1.006946,0.02287938,-0.1266751,12.8956,-1.129275,29.29343,1008.281
3.034754753,0.8620115,-1.132812,-2.96418,-0.9996821,0.0224555,-0.1150907,12.90758,-1.123641,29.72916,1008.279
3.067038536,0.9239851,-1.426326,-2.96418,-1.005964,0.02001297,-0.1165413,12.90758,-1.123641,29.72916,1008.279
3.099322319,0.1803012,-0.3696756,-2.11101,-1.009815,0.01323019,-0.1156047,13.27168,-1.856661,29.73288,1008.279
3.134089470,-0.005619779,-0.0761617,-1.196899,-1.004966,0.00792735,-0.1137116,12.54547,-1.484168,29.73929,1008.283
3.166373253,0.3662222,-0.01745892,-0.587492,-1.005443,0.004531915,-0.1156636,12.54547,-1.484168,29.73929,1008.282
3.201140404,0.3042485,-0.0761617,0.08285572,-1.008862,0.01610704,-0.1242923,13.27102,-1.492145,29.72826,1008.282
3.233424664,0.5521432,0.3347577,0.1437964,-1.018544,0.02043147,-0.1252137,12.54547,-1.484168,29.73929,1008.282
3.268192291,0.4281958,-0.1348645,-0.587492,-1.014692,0.02819522,-0.1222773,12.54547,-1.484168,29.73929,1008.28
3.300476074,1.17188,0.3347577,-3.634527,-1.021481,0.04422249,-0.09944989,12.92023,-1.482522,30.1695,1008.28
3.332759857,5.75793,0.276055,-6.49874,-1.00747,0.04714322,-0.1062316,12.90758,-1.123641,29.72916,1008.28
3.367527008,7.679114,-2.424273,-7.534732,-1.03062,0.01556418,-0.1232816,12.90758,-1.123641,29.72916,1008.278
3.399810791,12.14122,-1.485028,-5.523689,-1.003046,0.01178137,-0.1204619,13.2697,-0.763113,29.71903,1008.278
3.434577942,8.608719,-1.954651,-6.742503,-1.020969,0.03407612,-0.09515773,12.90824,-1.488156,29.73378,1008.278
3.466861725,6.687535,-1.719839,-6.620622,-1.00737,0.004067027,-0.1084105,12.90824,-1.488156,29.73378,1008.278
3.499145985,12.01727,2.624166,-6.315918,-1.048914,-0.01934104,-0.1263413,13.64512,-1.125983,30.15385,1008.282
3.533913612,11.83135,1.450111,5.872223,-1.050096,0.08825213,-0.07738312,14.00856,-1.494487,30.15295,1008.282
3.566197395,-4.343777,-3.42222,12.08817,-1.003385,0.1613759,-0.1017234,14.00856,-1.494487,30.15295,1008.281
3.600964546,-6.574828,-4.420167,20.43705,-1.006595,0.1049153,-0.05224331,13.28301,-1.48651,30.16399,1008.281
3.633248329,-1.616935,-5.829034,24.21537,-1.015008,-0.025844,-0.07472342,13.99657,-1.500122,29.71723,1008.279
3.668015480,-5.087461,-6.063845,21.47304,-1.06693,0.05486018,-0.06351699,13.99657,-1.500122,29.71723,1008.277
3.700299263,-5.149434,-13.87132,19.82764,-1.046679,0.0923036,-0.02708982,13.24666,-2.233251,28.80379,1008.276
3.732583523,-4.777592,-18.45013,19.58388,-1.04217,0.007938841,-0.07882374,13.22401,-2.973551,27.94157,1008.277
3.767351151,6.873456,-21.9723,19.09635,-0.9923875,0.0250908,-0.0575622,13.22401,-2.973551,27.94157,1008.277
3.799634934,13.62859,-20.26992,18.79165,-0.9784003,0.0303591,-0.08560184,13.21401,-4.072733,27.51969,1008.276
3.834402084,10.22003,-19.56548,18.73071,-0.9576477,0.04589115,-0.08942576,13.16872,-5.553334,25.79525,1008.276
3.866685867,8.856614,-17.33478,16.96343,-0.9333999,0.01888649,-0.08189654,13.14475,-5.564604,24.92379,1008.276
3.901453018,12.45109,-13.46039,14.46486,-0.9145351,0.01701288,-0.07953066,13.14475,-5.564604,24.92379,1008.276
3.933736801,6.067799,-11.58191,10.07713,-0.88851,0.05533426,-0.07453448,12.42118,-6.650174,24.94867,1008.276
3.966021061,-2.856408,-11.4058,6.420689,-0.8521124,0.01102627,-0.04247446,12.42327,-7.804474,24.96329,1008.278
4.000788689,-0.8112774,-11.69931,2.703306,-0.7964577,-0.003769035,-0.02865881,12.42327,-7.804474,24.96329,1008.278
4.033072472,12.38911,2.095841,-12.89752,-0.9781902,-0.1329633,-0.2997274,12.75075,-8.189881,23.65521,1008.276
4.067839623,26.20924,-22.44192,-6.986266,-1.744421,0.2295955,-0.1930421,12.36401,-8.197163,22.78927,1008.278
4.100123405,-23.49364,8.61185,10.56466,-0.4780484,0.1505368,0.1112461,12.36401,-8.197163,22.78927,1008.278
4.132407188,-7.256538,-14.81056,-8.936369,-1.082772,0.08119006,0.1513136,12.77472,-8.178613,24.52666,1008.276
4.167174339,2.411353,4.796169,15.62273,-1.10496,-0.02713123,-0.09290753,12.76274,-8.184247,24.09094,1008.276
4.199458122,1.543722,-0.25227,3.06895,-0.9397408,0.2683044,-0.01810111,12.76274,-8.184247,24.09094,1008.274
4.234225750,-8.681932,-4.420167,-0.587492,-1.014482,0.1546035,-0.09158577,12.74943,-7.46085,23.64598,1008.274
4.266510010,8.298851,-11.3471,-8.022259,-1.012937,0.145716,-0.00220347,12.38798,-8.185893,23.66072,1008.274
4.301277161,3.402932,-10.34915,-5.462749,-1.011302,0.0673205,-0.003619624,12.38798,-8.185893,23.66072,1008.276
4.333560944,3.464905,-8.998984,-2.17195,-1.005062,0.1013511,0.03716928,12.75075,-8.189881,23.65521,1008.276
4.365844727,-4.157856,-5.652925,2.276721,-1.001158,0.08636361,0.03804252,12.37533,-7.827012,23.22038,1008.276
4.400611878,-0.2535144,-4.831087,1.728255,-1.00034,0.1399891,0.01078966,12.37533,-7.827012,23.22038,1008.276
4.432895661,2.845169,-4.361465,-2.11101,-0.9993494,0.1356922,0.02720001,12.37467,-7.462496,23.21576,1008.276
4.467663765,0.5521432,-0.4283783,-2.842298,-0.9934645,0.1062415,0.04248991,12.73678,-7.101969,23.20564,1008.276
4.499947548,-1.121146,2.565463,-1.867247,-1.005086,0.1110264,0.03625746,12.73678,-7.101969,23.20564,1008.276
4.534714699,-4.839566,7.320388,-1.440662,-1.0094,0.1004215,0.05215994,11.99925,-7.099627,22.78094,1008.274
4.566998482,-1.245093,10.90126,-3.390764,-1.000328,0.1371084,0.0175414,13.46234,-7.109946,23.1946,1008.273
4.599282265,0.4901695,10.90126,-8.509784,-1.012932,0.1481799,0.01086337,13.46234,-7.109946,23.1946,1008.273
4.634049416,-0.1295671,12.54494,-12.59281,-1.00272,0.1201034,-0.0004373663,12.0352,-7.082723,24.08812,1008.273
4.666333199,-0.873251,14.18861,-13.3241,-1.030233,0.1001917,0.001925908,12.42195,-7.075442,24.95406,1008.278
4.701101303,-0.8112774,16.1258,-12.71469,-0.9949452,0.1095332,0.01543925,12.42195,-7.075442,24.95406,1008.277
4.733385086,-3.786013,16.53672,-14.42103,-1.019577,0.07733172,-0.04125308,12.42195,-7.075442,24.95406,1008.277
4.768152237,-7.566407,13.60159,-10.88647,-0.9783849,0.002568783,-0.1466732,12.4325,-6.280024,25.37978,1008.277
4.800436020,0.4901695,8.377038,-10.76459,-1.073936,0.1716298,-0.01497751,12.83057,-5.902593,26.67683,1008.277
4.832719803,-12.40035,16.83024,-7.047207,-1.011009,-0.05558917,-0.001901916,12.83057,-5.902593,26.67683,1008.277
4.867486954,0.9859588,10.49034,-4.73146,-0.9945776,0.1022124,-0.1460717,13.20533,-5.900947,27.10704,1008.275
4.899770737,-6.94667,2.624166,-5.462749,-0.9871349,0.02092172,-0.149934,12.83123,-6.267108,26.68145,1008.273
4.934538841,5.695957,-7.355306,-12.10529,-1.068915,0.1005798,0.00636243,12.83123,-6.267108,26.68145,1008.275
4.966822624,-7.380486,3.56341,-1.014077,-1.024647,-0.02671501,-0.03796625,13.20533,-5.900947,27.10704,1008.275
4.999106407,-8.248116,3.97433,1.30167,-1.008849,0.03912851,-0.0424603,12.8419,-5.532442,27.10794,1008.273
5.033873558,-3.352197,1.508813,-1.25784,-1.008941,0.06366964,-0.08341286,12.8419,-5.532442,27.10794,1008.275
5.066157341,-0.4394354,-1.191514,-3.817349,-0.9987407,0.04971715,-0.06804413,12.82991,-5.538077,26.67222,1008.275
5.100924492,2.969116,-0.780595,-3.329824,-0.9971649,0.01212393,-0.02426836,12.82859,-4.809045,26.66298,1008.275
5.133208275,4.580431,-1.015406,-1.31878,-0.9972507,0.03131563,-0.07298636,12.82859,-4.809045,26.66298,1008.275
5.167976379,5.510036,-1.191514,-2.842298,-1.005491,0.05270948,-0.03610562,12.10436,-5.5301,26.68325,1008.275
5.200260162,3.217011,0.3934605,-1.25784,-1.003559,0.05075309,-0.04385593,12.8419,-5.532442,27.10794,1008.273
5.232543945,-2.05075,1.919733,0.9969663,-1.013147,0.006599485,-0.07019201,12.8419,-5.532442,27.10794,1008.273
5.267311096,2.039511,1.097894,-0.587492,-1.003574,0.04922267,-0.06706965,12.84123,-5.167926,27.10333,1008.272
5.299594879,3.217011,-0.3696756,-0.4046699,-1.011743,0.02546702,-0.07298838,12.48978,-4.793787,27.53995,1008.272
5.334362030,3.03109,-1.250217,0.02191501,-1.003525,0.03378774,-0.05217092,12.48978,-4.793787,27.53995,1008.272
5.366645813,-2.174698,1.508813,0.2047371,-1.006913,0.04451622,-0.02503005,12.84123,-5.167926,27.10333,1008.272
5.401413918,1.295827,-0.1348645,0.1437964,-0.9958489,0.0364923,-0.1174363,12.11568,-5.159949,27.11436,1008.272
5.433697701,-3.971934,-1.543731,1.240729,-1.002939,-0.02051407,-0.08293758,12.11568,-5.159949,27.11436,1008.272
5.465981484,2.845169,-1.30892,3.00801,-1.001636,0.05364253,-0.0496449,12.82925,-5.173561,26.6676,1008.272
5.500748634,-1.431014,0.80438,0.6922628,-1.013738,0.05208575,-0.07041554,12.46647,-5.169573,26.67312,1008.272
5.533032417,-6.017066,0.5695689,0.2047371,-1.002964,0.004302241,-0.04267101,12.46647,-5.169573,26.67312,1008.27
5.567799568,0.9859588,-2.248165,4.409646,-0.9924039,0.01867033,-0.09579033,12.85256,-4.797776,27.53444,1008.274
5.600084305,15.73569,-10.17304,2.581425,-1.033311,0.1121562,-0.1778386,13.19269,-5.542065,26.6667,1008.272
5.632368088,9.538324,-13.5778,-2.96418,-1.000164,0.07914676,0.04960187,12.45383,-4.810691,26.23277,1008.272
5.667135239,-0.9352247,-4.067951,2.21578,-1.025481,-0.07063734,-0.003406605,12.45383,-4.810691,26.23277,1008.272
5.699419022,14.0624,-6.709576,2.825187,-1.009049,0.0959618,-0.1219041,12.80594,-5.549346,25.80076,1008.27
5.734186173,6.005825,-15.6324,-4.73146,-1.0037,0.1107619,-0.04303098,12.45449,-5.175207,26.23739,1008.269
5.766469956,1.977537,-9.644714,-3.817349,-1.023636,-0.02604323,0.01666396,12.45449,-5.175207,26.23739,1008.269
5.801237107,8.670692,-8.177145,-2.598535,-1.011849,0.07145334,-0.06885917,12.43118,-5.550992,25.37055,1008.269
5.833521843,8.236877,-15.10407,-6.315918,-1.017668,0.07576589,-0.07655713,12.45383,-4.810691,26.23277,1008.267
5.865805626,22.73871,-19.44808,-2.659476,-1.037944,0.1090736,0.0590388,12.45383,-4.810691,26.23277,1008.265
5.900572777,14.68214,-16.51294,-6.559681,-0.9953331,0.06350452,-0.0007751046,12.0684,-5.547004,25.37607,1008.265
5.932856560,10.15806,-17.45218,-11.73964,-1.00258,0.05031615,-0.03080768,12.78065,-4.831583,24.92008,1008.265
5.967623711,-5.025487,-14.39964,-13.0194,-1.025683,0.02626139,0.03050206,12.78065,-4.831583,24.92008,1008.265
5.999907494,3.588853,-10.58396,-18.2603,-1.003013,0.0578538,0.05190413,13.11879,-4.482326,24.03849,1008.265
6.034675121,-1.554961,-2.541679,-17.89465,-1.009055,-0.03595458,0.07845633,13.10482,-3.394413,23.58892,1008.265
6.066959381,3.650826,-4.420167,-15.76173,-1.030114,0.03129534,-0.05116091,13.10482,-3.394413,23.58892,1008.265
6.099243164,27.51068,-15.98462,-13.3241,-1.073374,0.1357942,-0.02291749,13.10548,-3.758928,23.59353,1008.263
6.134010315,0.4901695,-34.18248,-9.911421,-1.170148,-0.07873877,-0.1298018,13.10416,-3.029897,23.5843,1008.263
6.166294098,-3.290224,-64.4144,1.484492,-1.306514,-0.0884412,-0.1643707,13.10416,-3.029897,23.5843,1008.263
6.201061249,-12.15246,-94.118,10.56466,-1.296807,-0.1038993,-0.1644795,13.40464,-2.698348,21.33329,1008.263
6.233345032,-8.186143,-108.4415,3.434595,-1.337893,-0.07414823,-0.06124933,12.59519,-2.729813,18.29423,1008.266
6.268112660,56.45239,-90.47843,3.556476,-1.049884,-0.1707959,0.02121531,12.59519,-2.729813,18.29423,1008.267
6.300396919,164.5344,-54.96326,9.894309,-0.937049,-0.1204642,-0.2161101,12.1605,-2.759631,15.68539,1008.267
6.332680702,155.5483,-32.5975,-0.8312548,-0.7295402,0.07729559,-0.1545196,10.69305,-1.292053,15.19101,1008.267
6.367447853,104.1721,-6.063845,-9.667658,-0.7121811,0.0834972,-0.195614,10.69305,-1.292053,15.19101,1008.269
6.399731636,72.06975,20.00019,-25.69506,-0.654537,0.09532442,-0.03855345,11.11209,-4.917857,17.03681,1008.267
6.434498787,59.05528,58.56791,-33.06889,-0.732771,0.04860402,-0.05025302,11.53612,-5.622704,19.21916,1008.266
6.466783047,49.82121,87.27357,-38.06603,-0.8071239,0.02198308,0.01115258,11.24658,-6.31394,21.84827,1008.264
6.499066830,43.06608,106.5281,-36.84721,-0.9198001,0.03774528,0.04532576,11.24658,-6.31394,21.84827,1008.264
6.533833981,43.12805,111.8113,-41.41777,-1.111209,0.02333754,0.09690086,12.08105,-5.905885,25.81641,1008.262
6.566118240,60.48067,115.627,-36.2378,-1.263481,-0.009653813,0.05788292,12.92552,-4.398648,30.20643,1008.26
6.600885391,71.51199,105.1779,-21.36827,-1.280562,0.04535754,0.02632557,12.92552,-4.398648,30.20643,1008.26
6.633169174,67.4837,89.62169,-13.68974,-1.249752,0.126977,0.09488811,14.14437,-3.619602,34.97364,1008.257
6.667936802,47.962,66.96242,-22.89179,-1.174924,0.1921687,0.1337726,14.62606,-2.108377,39.36918,1008.257
6.700220585,14.37227,42.77686,-10.70365,-1.117669,0.1281528,0.1874304,14.62606,-2.108377,39.36918,1008.257
6.732504368,-9.48759,20.58722,-0.4656107,-1.019351,0.06507158,0.1965286,14.69467,-0.2519903,41.96046,1008.259
6.767271519,6.501614,9.374986,8.309851,-0.9046984,0.03629633,0.1762968,14.34625,-0.6060781,42.46857,1008.259
6.799555779,26.70503,16.71283,4.714349,-0.8144324,0.08623731,0.1285258,14.34625,-0.6060781,42.46857,1008.257
6.834322929,11.7074,11.8405,7.517622,-0.8713194,0.2133029,0.1158346,13.99176,0.4962873,42.83372,1008.257
6.866606712,-91.1069,-78.44437,3.556476,-1.969203,-0.3145693,-0.5011849,14.00744,-0.5908208,43.34554,1008.255
6.901374340,-7.44246,-14.92796,21.22928,-0.9400139,-0.5106003,-0.2415271,14.00744,-0.5908208,43.34554,1008.255
6.933658123,52.05226,-50.79536,35.42846,-0.7980919,0.2427327,0.456185,13.25593,0.4994345,42.47127,1008.255
6.965941906,-5.831144,-21.9136,37.07386,-1.155328,0.02517601,-0.03738956,11.39637,-1.691061,40.72139,1008.255
7.000709057,50.75081,-19.80029,37.68327,-0.9283979,0.1715194,-0.02786121,11.39637,-1.691061,40.72139,1008.255
7.032993317,13.38069,-8.529362,20.31517,-0.9919227,-0.1176295,0.09584224,11.73716,-2.799866,39.85826,1008.257
7.067760468,13.69056,7.085577,30.67509,-1.008235,0.007419931,0.0250395,11.71385,-3.175651,38.99142,1008.255
7.100044727,19.9499,2.682869,22.02151,-1.024272,0.1462662,-0.2588819,11.71385,-3.175651,38.99142,1008.261
7.134811878,12.51306,-10.58396,11.96629,-0.953464,0.08820921,-0.1718622,12.76622,-3.20452,37.6677,1008.261
7.167095661,2.411353,-12.46245,21.16834,-1.102753,-0.1349664,-0.07128726,12.75622,-4.303701,37.24582,1008.261
7.199379444,11.7074,-13.22558,21.29022,-0.9994644,0.1264196,-0.1386719,12.75622,-4.303701,37.24582,1008.261
7.234146595,3.960695,-16.45424,16.78061,-0.9859042,0.1490237,-0.04865304,12.73225,-4.314971,36.37437,1008.259
7.266430378,3.03109,-14.45834,14.46486,-0.9939774,0.102697,-0.003455812,13.08436,-5.053625,35.94236,1008.259
7.301198483,2.845169,-10.23174,13.42887,-0.9809798,0.1308366,0.006828387,13.06106,-5.42941,35.07552,1008.259
7.333482266,-3.476145,-6.474764,12.33194,-1.013836,0.1171648,-0.001396996,13.06106,-5.42941,35.07552,1008.259
7.365766049,-0.1915408,-6.474764,9.772428,-0.9898595,0.1735751,-0.08331251,12.69894,-5.789937,35.08565,1008.259
7.400533199,-6.388907,-7.355306,5.445638,-1.01301,0.173756,-0.01026234,12.32379,-6.52142,34.60242,1008.259
7.432816982,-3.22825,-8.998984,1.972018,-0.9805909,0.161721,-0.01910254,12.32379,-6.52142,34.60242,1008.259
7.467584133,-1.678909,-8.411956,4.897171,-1.044278,0.1088574,0.0005551339,12.31048,-5.798023,34.15747,1008.261
7.499868870,8.174904,-3.246112,-1.25784,-0.9337521,0.2128953,0.04828547,12.6626,-6.536677,33.72546,1008.261
7.534636021,-2.236671,5.676711,-6.194037,-0.9874486,0.2082489,0.007765928,12.6626,-6.536677,33.72546,1008.263
7.566919804,-9.735484,14.07121,-10.0333,-0.9984281,0.1633591,0.05104383,12.66193,-6.172162,33.72084,1008.262
7.599203587,0.1803012,16.65413,-12.34905,-0.9883777,0.1707756,-0.05384186,13.0367,-6.170516,34.15105,1008.262
7.633970738,-11.0989,9.492392,-11.80058,-1.039495,0.1042555,-0.0763481,13.0367,-6.170516,34.15105,1008.26
7.666254521,-14.13561,-0.3696756,-4.061112,-1.046129,0.03149941,-0.120257,12.68657,-6.525408,34.59691,1008.26
7.701022625,-5.273381,-19.56548,5.445638,-1.049597,0.06486278,-0.1253776,12.32181,-5.427873,34.58858,1008.26
7.733306408,-0.6873301,-34.35859,15.68367,-1.045793,0.09734619,-0.110698,12.32181,-5.427873,34.58858,1008.26
7.768073559,-1.988777,-36.35448,17.45095,-0.9737654,0.1614825,0.04759594,12.29783,-5.439142,33.71712,1008.258
7.800357342,-9.859432,-41.40292,16.4759,-1.03268,0.1044648,-0.0202827,12.98809,-5.828538,32.40353,1008.258
7.832641125,-3.290224,-43.57492,15.25709,-0.9827009,0.2543227,0.03363992,12.98809,-5.828538,32.40353,1008.256
7.867408276,-10.10733,-34.29988,2.581425,-0.9517543,0.2920373,0.1411111,11.85182,-5.839111,30.67717,1008.256
7.899693012,-11.65667,-27.49036,-5.828393,-1.003698,0.1586619,0.0974386,12.19195,-6.5834,29.80943,1008.258
7.934460163,-3.786013,-30.07328,-5.218986,-1.058257,0.1114418,0.0610298,12.19195,-6.5834,29.80943,1008.262
7.966743946,-4.343777,-37.70464,2.032958,-1.079577,0.1253706,0.0481021,11.79151,-6.59712,28.44552,1008.26
7.999027729,-9.983379,-43.0466,11.96629,-1.178117,0.2657166,-0.008900174,11.7429,-6.255143,26.69799,1008.26
8.033794880,-31.36429,-54.78715,17.02437,-1.191825,0.01194121,0.229472,11.7429,-6.255143,26.69799,1008.26
8.066078663,-5.893118,-70.69559,20.98552,-1.26024,-0.08447006,0.2546935,12.08237,-6.634916,25.82564,1008.262
8.100846291,19.39214,-81.84913,31.71108,-1.270181,0.01358581,0.2098293,11.28424,-6.296231,23.2177,1008.262
8.133130550,31.477,-99.92958,46.45873,-1.722019,-0.1854503,-0.02189577,11.28424,-6.296231,23.2177,1008.262
8.167897701,-5.273381,-96.70093,63.82683,-1.424875,0.1285899,0.004871674,11.21205,-7.120627,20.55109,1008.266
8.200181484,-42.76744,-113.7834,66.81293,-1.277143,0.221381,-0.01328979,10.41657,-8.240005,17.96161,1008.266
8.232465267,-42.89139,-100.5166,58.70781,-0.9457374,0.1360789,-0.04687946,10.41657,-8.240005,17.96161,1008.266
8.267232418,24.72187,-24.79003,32.92989,-0.4248627,-0.2407063,-0.4315776,8.868531,-8.634448,14.44022,1008.265
8.299516678,26.82897,34.32367,-9.789539,-0.2558226,0.1087857,-0.2593009,7.321541,-8.66357,10.97647,1008.265
8.334283829,-92.40835,75.41562,-49.401,-0.4218293,-0.1932384,-0.1354497,6.958764,-8.659582,10.98199,1008.263
8.366568089,-16.67653,125.9,-64.69711,-0.7270007,-0.3340468,-0.01618328,6.958764,-8.659582,10.98199,1008.263
8.401335240,86.94343,158.9497,-82.4918,-0.8812264,-0.1223471,0.03804764,7.332203,-7.928905,11.40297,1008.261
8.433619022,84.52645,162.9415,-103.3945,-1.087913,0.1678689,0.0295076,8.914767,-6.727774,16.22153,1008.265
8.465903282,36.49687,154.3708,-113.5106,-1.267843,0.2008621,0.06440713,8.914767,-6.727774,16.22153,1008.265
8.500670433,26.33319,145.6241,-100.5302,-1.483439,0.2244609,0.2134216,11.28832,-8.544078,23.24616,1008.263
8.532954216,28.81213,126.8979,-73.53352,-1.428984,0.3582331,0.3721493,13.30635,-7.738396,30.67895,1008.263
8.567721367,7.059377,114.2769,-65.06276,-1.209552,0.4288232,0.4537789,13.30635,-7.738396,30.67895,1008.263
8.600005150,-20.08509,95.90289,-59.63904,-0.9955354,0.3270363,0.5102682,14.54878,-5.792976,36.36525,1008.263
8.634772778,-33.90521,63.85117,-34.10488,-0.9367545,0.4626666,0.642408,15.06406,-3.901137,42.00111,1008.265
8.667057038,-47.22955,-69.05192,33.11272,-2.883652,0.4345182,0.4085921,15.06406,-3.901137,42.00111,1008.265
8.699340820,-44.00692,-70.16727,12.63664,-0.5321313,-0.1111433,0.6218364,16.1741,-1.713933,42.89056,1008.265
8.734107971,97.6029,-38.52648,47.06814,-0.6857371,-0.4094427,0.5489224,12.87514,-2.788488,41.64687,1008.267
8.766391754,13.31872,-13.5778,27.68899,-0.950238,0.8981223,0.20305,12.87514,-2.788488,41.64687,1008.268
8.801158905,16.91319,15.71488,11.11312,-1.031387,-0.401328,0.09383077,12.84946,-2.800562,40.71317,1008.268
8.833442688,46.66055,18.94354,28.78593,-1.002854,0.08729598,-0.2568462,13.19091,-4.273883,39.85467,1008.271
8.865727425,36.31095,-6.885684,11.41783,-0.9810829,0.2280967,-0.4243291,13.19091,-4.273883,39.85467,1008.271
8.900494575,-1.492988,-23.02895,12.271,-1.055402,-0.09833318,-0.01123461,13.55369,-4.277871,39.84915,1008.271
8.932778358,8.360825,-18.50883,26.53112,-1.056888,-0.08235622,-0.007756497,14.25726,-5.390665,38.98051,1008.272
8.967545509,11.89332,-24.55522,26.59206,-0.9812065,0.1611725,-0.1805729,14.25726,-5.390665,38.98051,1008.272
8.999829292,-1.740882,-21.50268,22.14339,-0.9755895,0.113066,0.04200675,13.51971,-5.388322,38.55582,1008.271
9.034597397,-1.245093,-18.56754,24.21537,-1.045586,0.05080153,0.006029117,13.86051,-6.497127,37.6927,1008.271
9.066881180,4.952273,-16.98256,21.47304,-0.9873298,0.164272,0.02540286,13.47585,-7.658708,36.84137,1008.271
9.099164963,-4.653645,-10.52526,15.62273,-0.9698632,0.1459963,0.04411541,13.47585,-7.658708,36.84137,1008.271
9.133932114,1.543722,-10.29045,13.18511,-1.027861,0.1058764,-0.03623854,13.47784,-8.752254,36.85522,1008.269
9.166215897,6.873456,-12.40374,10.32089,-0.9773291,0.1729485,-0.1360379,13.45188,-7.669977,35.96992,1008.269
9.200984001,-11.40877,-12.22764,7.456681,-1.020709,0.1558073,-0.0166325,13.45188,-7.669977,35.96992,1008.269
9.233267784,-1.740882,-14.39964,2.886128,-0.977218,0.1734088,-0.0001892385,13.80361,-9.138468,35.48489,1008.269
9.268034935,-8.867853,-17.7457,7.578563,-1.012391,0.1166571,-0.009621455,13.41554,-8.416717,34.60973,1008.271
9.300318718,-20.27101,-22.73543,14.28204,-1.051426,0.07506491,0.03083504,13.41554,-8.416717,34.60973,1008.273
9.332602501,-4.839566,-19.9177,8.005147,-0.9338513,0.2686813,0.08824486,13.38024,-8.798137,33.30716,1008.271
9.367369652,-21.26259,-13.34299,0.9360256,-1.000357,0.1795001,0.1033512,14.44526,-9.185886,32.42378,1008.271
9.399653435,-18.59772,-14.22353,2.947069,-1.045581,0.05962035,0.0379862,14.44526,-9.185886,32.42378,1008.271
9.434421063,-3.600092,-26.84463,5.262816,-1.019195,0.1389739,0.01275828,13.32164,-9.555341,31.13776,1008.271
9.466705322,-7.318512,-34.94561,8.736436,-1.01145,0.1663941,0.1008833,13.29701,-9.202094,30.26169,1008.271
9.498989105,-4.777592,-32.94972,5.140934,-0.9572275,0.1643766,0.1737542,13.29701,-9.202094,30.26169,1008.27
9.533756256,8.484772,-37.46983,5.62846,-1.119756,0.1333762,0.0168107,13.64846,-9.576233,29.82506,1008.27
9.566040039,4.580431,-51.26498,19.34012,-1.383073,0.2009047,-0.111316,13.58682,-9.60521,27.58418,1008.27
9.600807667,-37.00389,-84.54945,53.77161,-1.77766,0.0248224,-0.04378532,13.58682,-9.60521,27.58418,1008.271
9.633091450,-42.27165,-96.58353,85.09514,-1.42722,-0.03379635,0.2123155,13.1761,-9.62376,25.84679,1008.27
9.667858601,-22.31614,-106.0347,88.87347,-1.291839,-0.04860762,0.1539268,12.34467,-10.76004,21.95013,1008.27
9.700142861,-17.73009,-89.7153,82.0481,-0.8821233,0.2604747,0.05037849,12.34467,-10.76004,21.95013,1008.268
9.732426644,-64.02441,-52.14553,44.32581,-0.6087704,0.08790924,-0.2663939,10.40988,-11.16177,17.56281,1008.268
9.767194271,-50.3902,-0.6631895,13.97734,-0.5089037,-0.02607045,-0.2841775,8.862499,-11.92072,14.04604,1008.268
9.799478054,-101.2086,46.06422,-13.81163,-0.4307256,-0.2888155,-0.05717349,8.862499,-11.92072,14.04604,1008.266
9.834245205,-39.85468,103.7104,-28.07175,-0.6506299,-0.3407917,-0.07198168,8.78728,-10.13195,11.4086,1008.264
9.866528988,-14.94127,139.2255,-49.34006,-0.7427611,-0.2048051,0.007307169,8.397225,-8.316655,10.51958,1008.264
9.901296139,-6.884696,161.0043,-82.1871,-0.9746999,-0.06947847,0.01002682,9.215905,-6.76074,13.97513,1008.264
9.933580875,-7.504433,175.5039,-101.6881,-1.17508,0.01613764,0.02544865,9.215905,-6.76074,13.97513,1008.263
9.965864658,-28.26561,173.6254,-103.4554,-1.301361,0.06090994,0.06368361,11.88889,-6.725874,18.79177,1008.265
10.000631809,-54.35652,148.1484,-83.40591,-1.544604,0.1197502,0.2110243,14.27837,-4.095968,26.63169,1008.265
10.032915592,-51.38178,120.7929,-56.592,-1.355062,0.2448716,0.5589197,14.27837,-4.095968,26.63169,1008.263
10.067682743,-45.55626,116.0379,-61.77196,-1.128783,0.2322396,0.4955131,15.917,-0.7403221,33.60196,1008.263
10.099966526,-38.24337,67.60815,-53.60591,-1.012891,0.3340417,0.5930134,16.41672,4.062814,38.82741,1008.267
10.134734631,-72.45283,-32.30399,10.99124,-2.413629,0.519495,0.6681523,16.41672,4.062814,38.82741,1008.263
10.167018414,-112.4878,-122.4715,23.30126,-0.4081081,0.1589072,1.094941,16.0983,7.006271,40.60115,1008.264
10.199302197,123.9417,-43.57492,42.68041,-1.297006,-0.8952026,-0.333831,13.48656,6.270548,37.97238,1008.267
10.234069347,51.74239,-55.43288,34.27059,-0.6700267,1.301991,0.476435,13.48656,6.270548,37.97238,1008.267
10.266353130,-48.84086,-25.02484,-15.45702,-1.090971,-0.2011512,-0.04800047,12.71042,7.714049,36.22204,1008.267
10.301121235,11.27359,1.626219,27.50617,-0.9896743,-0.2668329,0.04809549,12.6824,3.322956,34.97025,1008.267
10.333405018,26.82897,5.618008,26.3483,-1.028882,0.2966697,-0.1405411,12.6824,3.322956,34.97025,1008.263
10.365688801,-0.3154881,-7.472711,10.6256,-0.9659811,0.06152443,-0.1816557,12.65474,4.404429,34.02271,1008.267
10.400455952,6.749509,-10.52526,13.85545,-1.04594,-0.009743336,-0.009784414,13.37095,2.932755,33.59441,1008.267
10.432739735,37.92226,-15.6911,27.68899,-1.237835,0.146335,-0.05779413,13.37095,2.932755,33.59441,1008.267
10.467507362,28.50226,-15.04537,30.49227,-1.343363,0.1250338,-0.2568646,13.33433,3.280367,32.28262,1008.265
10.499791145,10.90174,-20.15251,12.69758,-1.002488,0.1767251,-0.1427303,14.02459,2.890971,30.96902,1008.264
10.534558773,-1.616935,-21.73749,17.02437,-1.069795,-0.1306455,0.03357248,14.02459,2.890971,30.96902,1008.267
10.566842556,18.15266,-18.21532,22.93562,-1.009032,0.1380612,0.02046621,14.73948,2.148328,30.53149,1008.267
10.599126339,7.865035,-18.80235,17.87754,-0.973025,0.2348245,-0.01628599,13.97797,2.1394,29.23534,1008.267
10.633893967,-10.47917,-16.33683,15.92744,-1.012815,0.1125035,0.05030224,13.97797,2.1394,29.23534,1008.267
10.666177750,-2.54654,-12.11023,12.51476,-0.9874146,0.2039918,0.03674797,14.33009,1.400746,28.80333,1008.267
10.700944901,2.5353,-12.34504,4.226824,-0.9922675,0.1980414,-0.00146706,13.56858,1.39182,27.50718,1008.267
10.733228684,-1.183119,-20.56343,10.19901,-1.047306,0.1962855,0.09822995,13.56858,1.39182,27.50718,1008.266
10.767995835,6.191746,-27.84258,7.944207,-0.9956318,0.1849231,-0.01410381,14.26911,1.007253,26.56707,1008.266
10.800280094,-6.574828,-31.48215,5.872223,-0.9840686,0.2214327,0.03974056,13.17078,-0.07996321,26.16174,1008.267
10.832564354,-20.14706,-29.31014,7.3348,-1.002619,0.1175897,0.1146065,13.17078,-0.07996321,26.16174,1008.267
10.867331505,-6.512855,-33.00842,8.736436,-1.028839,0.1395448,0.04662303,13.85972,0.2596722,24.83891,1008.266
10.899615288,-6.884696,-35.06302,9.406783,-1.006175,0.1833304,0.09613389,12.73345,1.348281,23.53443,1008.266
10.934382439,-9.859432,-37.82205,9.16302,-1.068473,0.1580697,0.1202965,13.43635,0.6000032,22.66117,1008.266
10.966666222,2.5353,-41.22681,5.445638,-1.279553,0.2287378,0.01769731,13.43635,0.6000032,22.66117,1008.264
10.998950958,-26.96416,-47.62541,27.14053,-1.471982,0.2170376,0.01224425,13.00127,-0.1596518,19.99931,1008.264
11.033718109,-52.68323,-62.94683,54.86855,-1.412552,0.02453065,-0.01024972,13.29214,-0.1974483,17.37944,1008.266
11.066001892,-50.3902,-64.82532,70.77408,-1.033785,0.2060192,0.1030905,13.29214,-0.1974483,17.37944,1008.266
11.100769043,-69.35415,-53.49569,54.38102,-0.7655303,0.2239114,0.01511172,11.78005,-0.5749874,15.16523,1008.266
11.133052826,-75.1177,-39.93535,23.91067,-0.7664751,-0.02273017,-0.08007574,11.30941,-0.6217098,11.24921,1008.266
11.167820931,-11.78062,9.433688,8.614554,-0.6297941,-0.1954648,-0.1881924,11.30941,-0.6217098,11.24921,1008.264
11.200104713,13.19477,45.30108,-9.85048,-0.5213467,-0.01775255,-0.1037808,10.14917,-0.6435518,8.651393,1008.264
11.232388496,2.411353,70.95421,-40.07707,-0.6833754,0.03097071,-0.01178464,10.18115,1.560447,9.93088,1008.266
11.267155647,-12.77219,94.67013,-49.94946,-0.9685539,-0.01140053,0.006959734,10.18115,1.560447,9.93088,1008.266
11.299439430,-27.39798,99.95338,-51.59486,-1.16433,-0.01073375,0.08376878,10.94134,2.298404,11.2178,1008.266
11.334207058,-45.55626,101.7732,-39.95519,-1.213242,0.03279813,0.1189293,11.74748,4.152449,14.23377,1008.262
11.366491318,-77.16283,85.21898,-34.65335,-1.236594,0.1367216,0.2462315,11.74748,4.152449,14.23377,1008.262
11.401258469,-89.99138,84.33844,-42.27094,-1.053331,-0.249692,0.3050361,12.18992,7.469348,17.29905,1008.261
11.433542252,-1.86483,98.60321,-38.55355,-1.11356,-0.2284971,0.04132888,12.61534,12.60239,19.84327,1008.261
11.465826035,16.04556,86.33434,-43.79445,-1.04782,-0.001709526,0.07776773,12.61534,12.60239,19.84327,1008.259
11.500593662,-45.37034,77.2354,-37.09098,-0.902006,0.1414809,0.225233,12.29494,16.63939,21.60317,1008.263
11.532877445,-81.6869,65.61225,-40.74742,-0.7764142,0.3392123,0.6336255,12.66441,19.55717,21.99645,1008.263
11.567644596,-55.65796,19.00224,-21.06357,-2.10647,0.1475219,0.3134319,12.66441,19.55717,21.99645,1008.263
11.599928856,37.98424,-111.3179,9.041139,-0.2598054,1.139881,2.560184,11.94622,22.12239,22.4109,1008.263
11.634696007,37.73634,10.25553,-3.390764,-1.540377,-0.8252124,-0.8951476,11.59145,24.3191,22.82445,1008.265
11.666980267,13.69056,-28.72312,65.53317,-0.5977751,0.6737269,0.09030703,11.59145,24.3191,22.82445,1008.265
11.699264050,-29.44311,-11.05358,-8.326962,-1.135183,0.1418323,0.09762628,10.76831,24.2812,19.28742,1008.265
11.734031201,38.97581,1.684922,26.47018,-0.9829934,-0.2578957,-0.03356924,11.12704,19.89739,18.90157,1008.265
11.766314984,41.02095,3.328599,15.56179,-0.9780434,0.2428482,-0.2149229,10.7383,20.98365,18.02178,1008.265
11.801083088,-8.000222,-3.070004,7.700444,-1.02909,0.0002595181,-0.07116058,10.7383,20.98365,18.02178,1008.265
11.833366871,10.46793,1.097894,13.79451,-1.038322,0.01421968,-0.08508103,11.07777,20.60388,17.14943,1008.265
11.865650654,10.22003,-6.474764,11.60065,-1.00836,0.1793533,-0.2190861,11.07843,20.23937,17.15404,1008.263
11.900417805,-7.876275,-9.527309,5.079994,-1.011879,0.1045554,-0.01114168,11.07843,20.23937,17.15404,1008.267
11.932701588,-10.41719,-6.533467,8.797377,-1.024282,0.03240919,-0.01297549,11.42989,19.86523,16.71741,1008.267
11.967468739,-3.662066,-7.179198,9.528665,-1.004797,0.1488289,-0.09018917,11.78002,20.22012,16.27156,1008.267
11.999753475,-3.414171,-4.361465,5.567519,-0.982563,0.1625359,-0.06260314,11.78002,20.22012,16.27156,1008.267
12.034520626,-3.104303,-4.831087,3.434595,-1.021972,0.07497397,-0.0209569,11.04248,20.22246,15.84686,1008.269
12.066804409,0.9859588,-5.594223,10.07713,-1.05662,0.004222503,-0.02080108,11.40658,19.48944,15.85058,1008.269
12.099088192,8.484772,-9.644714,14.46486,-0.9365284,0.1489003,0.01602063,11.40658,19.48944,15.85058,1008.267
12.133855820,6.129772,-9.996931,12.33194,-0.996569,0.16452,-0.03645598,11.39459,19.48381,15.41485,1008.267
12.166140080,3.03109,-10.46655,12.33194,-1.003148,0.09247879,-0.01219604,11.36891,19.47173,14.48115,1008.267
12.200907230,2.473327,-8.646768,12.81946,-0.9969119,0.1304054,0.0358666,11.36891,19.47173,14.48115,1008.267
12.233191013,-0.5633827,-5.594223,13.06323,-0.9869363,0.1844247,-0.02572791,12.09512,19.09924,14.47474,1008.267
12.267958164,-7.194565,-6.474764,8.127028,-0.9893677,0.1946229,-0.01309528,11.69705,18.72181,13.17768,1008.267
12.300242424,-4.839566,-3.187409,5.323756,-1.007086,0.1410457,0.04271717,11.69705,18.72181,13.17768,1008.267
12.332526207,0.3662222,-4.185356,4.470587,-0.9898772,0.1920708,-0.05178379,11.71036,17.99841,13.62264,1008.273
12.367293358,-8.80588,-8.235847,3.434595,-1.010137,0.1785349,-0.03054578,11.33626,17.63225,13.19705,1008.273
12.399577141,-6.202986,-10.70136,3.86118,-0.9983334,0.1158621,0.02950226,11.33626,17.63225,13.19705,1008.273
12.434344769,5.262141,-11.87542,6.664452,-1.028298,0.1050873,0.01693617,11.68639,17.98714,12.75119,1008.273
12.466629028,3.650826,-12.81466,7.639503,-0.9811367,0.2005551,0.01689391,11.66242,17.97587,11.87974,1008.273
12.501396179,-1.431014,-13.28429,6.055045,-0.9893606,0.1946524,-0.004393227,11.66242,17.97587,11.87974,1008.273
12.533679962,-3.600092,-14.86926,8.005147,-1.021197,0.1626284,-0.002572943,11.66242,17.97587,11.87974,1008.273
12.565963745,-9.363643,-16.57164,10.01619,-1.023664,0.1853874,0.003846482,10.91356,17.60807,11.02393,1008.273
12.600730896,-7.752328,-16.98256,3.06895,-0.9585401,0.2640966,0.04137844,11.26567,16.86941,10.59192,1008.271
12.633015633,-8.248116,-13.69521,-5.828393,-0.9426035,0.2801839,0.06270687,11.26567,16.86941,10.59192,1008.271
12.667782784,-18.65969,-11.99283,-9.545776,-1.000313,0.1576939,0.09452517,11.24104,17.22266,9.71585,1008.269
12.700066567,-6.822723,-13.22558,-11.61776,-1.023352,0.08650313,0.09803755,11.58051,16.84289,8.843496,1008.269
12.732350350,4.580431,-17.56959,-11.92246,-0.9893615,0.2078429,0.03242312,11.58051,16.84289,8.843496,1008.269
12.767117500,-13.02009,-16.86516,-10.0333,-0.9983105,0.137458,0.1190612,11.56549,17.56548,8.336291,1008.271
12.799402237,0.5521432,-21.44397,-9.85048,-1.010025,0.1579831,0.04523699,10.85231,18.30893,8.836064,1008.271
12.834169388,-8.062196,-22.50062,-6.864385,-1.008933,0.1301637,0.1175923,10.85231,18.30893,8.836064,1008.271
12.866453171,-4.777592,-22.91154,-7.412851,-1.016785,0.1731555,0.1014167,10.80265,18.28558,7.03091,1008.27
12.901220322,-1.988777,-17.33478,-19.84476,-0.9794585,0.3353499,0.09355661,10.41657,17.91378,6.169588,1008.27
12.933504581,-19.15548,-1.837245,-26.54823,-0.9884297,0.2653621,0.1545747,10.41657,17.91378,6.169588,1008.268
12.965788364,-33.53337,27.22063,-23.5012,-1.091638,0.4483663,-0.1627484,10.40326,18.63718,5.724629,1008.268
13.000555515,-106.5383,28.39469,-23.8059,-1.065432,0.4224448,-0.1228269,10.78935,19.00898,6.585951,1008.268
13.032839775,-167.5204,25.04863,-12.04434,-0.9353783,0.4095393,-0.1855441,10.78935,19.00898,6.585951,1008.268
13.067606926,-208.1132,7.907417,7.700444,-1.097835,0.4775471,0.02838916,11.53821,19.37679,7.441758,1008.268
13.099891186,-260.295,-8.646768,15.37897,-1.061853,0.4760341,0.2656714,11.90768,22.29456,7.835042,1008.268
13.134658337,-297.975,-17.8044,27.01865,-1.044714,0.1158948,0.07842972,11.90768,22.29456,7.835042,1008.27
13.166942120,-264.0134,-20.79824,30.79697,-0.9875925,0.06647443,0.01227794,13.76857,23.75602,9.594156,1008.27
13.199225903,-264.5712,-6.768279,38.35362,-0.898439,0.1895989,-0.001717285,13.04905,27.05027,9.999371,1008.268
13.233993053,-287.0056,1.332705,42.92417,-0.9099124,0.1031283,-0.09017008,13.04905,27.05027,9.999371,1008.268
13.266277790,-310.6176,0.3934605,38.23174,-0.9658087,0.02509968,-0.07744042,13.4305,29.97368,10.82838,1008.272
13.301044941,-313.9022,3.798221,30.67509,-0.9858367,-0.09400645,-0.07855792,13.48712,31.82444,12.98394,1008.27
13.333328724,-287.8113,6.205036,28.78593,-0.9775663,-0.1289601,-0.1184165,13.48712,31.82444,12.98394,1008.27
13.368095875,-255.523,9.609797,28.6031,-1.016572,-0.1987725,-0.1230803,13.90559,35.13007,15.17776,1008.269
13.400380612,-213.195,14.65824,33.05178,-0.9550314,-0.2386156,-0.07992999,13.60877,38.4485,17.75609,1008.269
13.432664394,-154.2581,21.35035,19.88858,-0.9303616,-0.2580546,-0.1250535,13.60877,38.4485,17.75609,1008.267
13.467431545,-113.1076,29.09912,12.21006,-0.9795123,-0.1407421,-0.1663397,14.04949,41.7646,20.75912,1008.265
13.499715328,-108.0877,32.38647,10.68654,-0.9804982,-0.1354479,-0.1740425,13.39425,43.62976,23.42368,1008.265
13.534482479,-104.3073,30.8015,7.395741,-0.9780959,-0.1257312,-0.1648071,14.55317,44.38064,26.01226,1008.265
13.566766739,-102.0143,32.26907,3.617417,-1.034094,-0.1426096,-0.1000016,14.55317,44.38064,26.01226,1008.263
13.599050999,-98.41979,22.58311,-0.0390257,-1.200496,-0.3275223,-0.1180981,13.91124,45.52241,29.12178,1008.262
13.633818150,-83.91796,-4.361465,3.00801,-1.153374,-0.806756,-0.05952786,14.34384,46.70653,31.71601,1008.26
13.666101933,-36.94192,20.82203,27.62805,-0.9073507,-0.1053713,0.07155775,14.34384,46.70653,31.71601,1008.26
13.700869084,41.02095,5.03098,28.96875,-1.156302,0.272852,0.07907922,14.41558,47.77394,34.37954,1008.258
13.733153343,6.811482,10.60774,17.39001,-0.9882731,-0.01346079,0.1297839,14.07876,46.69565,35.27036,1008.257
13.767920494,2.783195,11.7818,27.38429,-1.061453,-0.05979858,-0.2019608,14.07876,46.69565,35.27036,1008.255
13.800204277,18.7724,-3.011301,21.29022,-0.9952933,0.05682779,0.02819317,14.45749,44.5102,35.72826,1008.255
13.832488537,7.307272,-1.30892,25.25137,-1.048418,0.01345375,-0.01689875,14.80961,43.77154,35.29625,1008.255
13.867256165,13.31872,-6.768279,28.17652,-1.021031,-0.1054006,0.01620713,14.80961,43.77154,35.29625,1008.257
13.899539947,38.48003,-0.25227,31.52826,-1.076699,0.09987065,-0.05357122,15.53781,42.3055,35.30368,1008.257
13.934307098,18.09069,-0.1348645,24.3982,-0.9227163,0.05771074,0.0846041,15.51582,41.20069,34.44608,1008.255
13.966590881,-6.202986,9.140175,29.88286,-1.061375,0.006498208,0.08364486,15.51582,41.20069,34.44608,1008.255
14.001358032,18.83437,9.140175,22.32621,-0.9572086,0.2768016,-0.06635903,16.58178,39.35407,33.51891,1008.255
14.033642769,-5.335355,8.670552,13.9164,-1.001866,0.1655742,-0.006465367,16.24733,37.91207,34.47659,1008.255
14.065926552,7.183324,7.613903,14.64768,-1.014793,0.1220881,0.02425531,16.24733,37.91207,34.47659,1008.255
14.100693703,3.03109,9.198877,9.16302,-0.9651832,0.1922789,-0.01122697,16.98751,36.45166,34.91975,1008.252
14.132977486,-1.307067,10.49034,4.958112,-1.003592,0.09508216,0.04244829,16.63805,35.73225,35.37022,1008.252
14.167745113,8.298851,10.54904,3.190832,-1.00435,0.1696884,-0.07556836,16.63805,35.73225,35.37022,1008.252
14.200029373,-3.042329,9.022769,-1.928187,-0.9914559,0.2242769,-0.1144443,16.28726,35.74187,35.81147,1008.252
14.232313156,-5.58325,5.03098,-2.11101,-1.047095,0.06277275,-0.03015747,17.37625,35.3654,35.79953,1008.252
14.267080307,5.262141,5.618008,-1.501603,-0.9946265,0.1596731,-0.04035523,17.37625,35.3654,35.79953,1008.25
14.299364090,-2.732461,9.551094,-4.548638,-0.987397,0.1747448,-0.02578196,16.67466,35.38464,36.68202,1008.25
14.334131718,-0.9971983,10.02072,-6.925325,-1.009075,0.129574,-0.05644871,16.66268,35.37901,36.24629,1008.25
14.366415501,1.047933,7.672606,-9.85048,-0.999863,0.1209059,-0.05168346,16.32321,35.75878,37.11865,1008.248
14.401182652,-4.529697,7.202983,-10.88647,-1.003333,0.1557277,-0.05486206,16.32321,35.75878,37.11865,1008.251
14.433466911,-11.71864,4.033033,-13.50692,-1.012436,0.1047398,-0.09912528,17.06075,35.75644,37.54334,1008.251
14.465750694,-12.33838,-2.717787,-8.631665,-1.043254,0.03872568,-0.132308,16.3099,36.48218,36.67369,1008.251
14.500518322,-9.735484,-12.52115,-3.086061,-1.093795,0.1152382,-0.2168493,16.3099,36.48218,36.67369,1008.251
14.532802105,-13.51588,-17.8044,0.7532035,-0.9476844,0.1526351,-0.01487417,16.32189,36.48781,37.10942,1008.249
14.567569256,-5.211408,-17.8044,2.032958,-1.035453,0.04438879,-0.03850555,16.33255,37.22248,37.53591,1008.249
14.599853039,-3.352197,-13.04948,7.456681,-1.00259,0.08057033,0.04333049,16.33255,37.22248,37.53591,1008.247
14.634621143,-5.58325,-9.586012,12.14911,-1.013331,0.08842272,-0.05812383,15.23289,36.86429,37.12135,1008.251
14.666904926,-0.2535144,-14.22353,8.553614,-0.9815891,0.1806471,-0.002555855,15.97043,36.86195,37.54604,1008.251
14.699188709,-15.56101,-5.476817,10.6256,-1.012203,0.07589833,0.1008539,15.97043,36.86195,37.54604,1008.25
14.733955860,-2.670487,-4.361465,16.53684,-1.029853,0.1100264,-0.09519018,16.68665,35.39028,37.11775,1008.25
14.766239643,16.47937,-18.15662,5.933164,-0.989252,0.3030512,-0.1473584,16.674,35.74916,36.67741,1008.248
14.801007748,-18.28785,-7.296603,4.531527,-0.9875458,0.1042955,0.1773455,16.674,35.74916,36.67741,1008.25
14.833291531,-0.873251,-4.126653,9.894309,-1.030593,0.04108555,-0.01774694,15.96109,35.39825,37.12878,1008.25
14.868058681,3.526879,-17.33478,6.847274,-1.061712,0.2674679,-0.1619077,17.00413,33.90569,35.38779,1008.25
14.900342464,1.295827,-24.26171,0.5703813,-0.9907736,0.2055551,0.07253856,17.00413,33.90569,35.38779,1008.248
14.932626724,-9.239696,-12.34504,7.517622,-1.122358,0.02172783,0.05969096,16.62937,33.90404,34.95758,1008.245
14.967393875,-6.822723,-10.52526,17.02437,-1.257466,0.1885729,-0.2866616,17.33095,33.8848,34.07509,1008.244
14.999678135,-91.29282,-3.480923,10.68654,-1.181867,-0.05236719,-0.1919902,17.33095,33.8848,34.07509,1008.244
15.034445286,-125.9981,5.735414,-0.8312548,-0.8771341,-0.2499287,-0.05695714,17.31725,33.87836,33.57712,1008.244
15.066729546,-140.376,10.02072,-9.972361,-0.851348,-0.299533,-0.007984017,17.3569,32.80252,34.96039,1008.246
15.099013329,-124.4487,17.12375,-25.87789,-0.8972081,-0.3228028,0.01857164,17.3569,32.80252,34.96039,1008.244
15.133780479,-73.0106,13.9538,-37.15192,-0.9853185,-0.2887938,-0.01005141,16.70393,32.47979,37.5904,1008.244
15.166064262,-23.74153,24.10938,-42.33187,-0.9233002,-0.1527871,-0.05533843,16.76385,32.50796,39.76904,1008.241
15.200831413,7.431219,36.20215,-44.34292,-0.9287701,-0.07719482,-0.02105612,16.80152,32.52567,41.13846,1008.241
15.233116150,19.702,48.29493,-44.70856,-1.176063,-0.02595638,-0.1145024,16.80152,32.52567,41.13846,1008.241
15.267883301,-5.769171,51.23006,-45.37891,-1.080838,0.002027656,-0.07684025,17.90117,32.88385,41.55302,1008.241
15.300167084,-26.71627,41.66151,-43.00222,-0.9986167,0.02091076,-0.0005267737,17.26018,32.56676,44.61876,1008.239
15.332450867,-14.07364,44.18573,-50.25417,-1.057891,-0.08739484,-0.06579563,17.26018,32.56676,44.61876,1008.239
15.367218971,-18.59772,42.89427,-41.72247,-1.003442,-0.003492777,-0.0577009,17.69394,34.05544,47.27139,1008.239
15.399502754,-41.15613,43.4226,-34.10488,-1.036319,-0.03288949,-0.1365977,17.41241,35.55693,50.30853,1008.239
15.434269905,-48.53099,42.01373,-29.96091,-1.070671,-0.007661196,-0.08851979,17.41241,35.55693,50.30853,1008.239
15.466553688,-28.5135,48.23622,-32.6423,-1.00385,-0.06426533,-0.1407136,17.85577,37.41497,53.33002,1008.239
15.501321316,-38.98705,45.18368,-26.12165,-0.9348096,-0.001960987,-0.09216426,17.58927,38.19387,56.87437,1008.241
15.533605099,-46.73376,41.60281,-25.69506,-0.9638805,0.052446,-0.006223596,17.58927,38.19387,56.87437,1008.241
15.565889359,-36.81797,32.9148,-9.606717,-0.9780241,0.1340024,0.08177301,17.67223,39.69218,59.96824,1008.241
15.600656510,-35.64047,10.54904,3.617417,-0.9341586,0.2039285,0.1159168,17.38004,40.45901,62.57888,1008.243
15.632940293,-26.65429,-29.48625,24.15443,-1.267785,0.1761801,0.06378323,17.38004,40.45901,62.57888,1008.247
15.667707920,-33.65731,-121.8844,30.2485,-1.16037,-0.3245138,-0.1210681,17.06389,41.21457,64.31808,1008.248
15.699991703,-3.104303,-34.29988,40.30372,-1.288764,-0.7929602,-0.0151647,16.74104,39.04836,65.65847,1008.248
15.734758854,62.27791,-44.27935,69.85996,-1.058978,0.4387953,0.12719,16.74104,39.04836,65.65847,1008.248
15.767042637,-3.166276,-20.32862,34.45341,-1.024595,0.5333704,-0.1256682,14.58364,35.06826,66.17805,1008.247
15.799327374,2.411353,-36.00226,3.251772,-0.9449052,-0.03888489,-0.1266766,13.8547,30.33189,65.81337,1008.247
15.834094524,-12.58627,-10.29045,20.13235,-1.027323,-0.2143708,0.2814924,13.8547,30.33189,65.81337,1008.247
15.866378307,19.57806,11.42958,39.08491,-0.9830372,-0.04262146,-0.05458329,14.52165,29.56671,63.63294,1008.247
15.901145458,42.26042,-1.778542,20.49799,-1.027301,0.1618525,-0.3694942,14.53429,29.20783,64.07328,1008.247
15.933429241,14.93003,-18.68494,10.68654,-0.9503746,0.06554094,-0.009078879,14.53429,29.20783,64.07328,1008.245
15.965713978,10.22003,-12.22764,22.69186,-0.9337571,0.04872837,0.1566092,15.92614,28.79919,61.8772,1008.243
16.000481129,34.63766,-8.588064,24.88572,-0.650552,0.2795114,0.04563669,16.96454,29.85823,60.1039,1008.243
16.032764912,6.873456,-13.87132,14.28204,-0.9708469,0.1146503,-0.06580129,16.96454,29.85823,60.1039,1008.243
16.067532063,-6.326934,-8.235847,20.43705,-1.048741,-0.04598894,0.006935888,16.56647,29.4808,58.80685,1008.243
16.099816322,9.848192,-8.470659,23.0575,-1.012428,0.09158202,-0.1262727,17.99322,28.72374,57.86032,1008.243
16.134583473,6.129772,-13.28429,13.48981,-0.9730403,0.2259647,-0.06032925,17.9466,27.97217,56.12664,1008.245
16.166867733,-10.1693,-12.87337,10.56466,-1.037396,0.05265591,-0.02491807,17.9466,27.97217,56.12664,1008.249
16.199151516,0.5521432,-15.28018,14.28204,-1.036559,0.08339422,-0.09436027,18.28739,26.86337,55.26352,1008.249
16.233919144,-1.307067,-23.32246,16.04932,-1.002854,0.1552221,-0.06163412,19.00162,26.48524,54.82138,1008.251
16.266202927,-7.318512,-25.96409,16.4759,-1.025452,0.1205043,-0.00570392,19.00162,26.48524,54.82138,1008.251
16.300970078,-3.166276,-20.56343,13.48981,-0.9678897,0.1486083,0.09923801,19.69083,25.73052,53.45015,1008.253
16.333253861,-2.298645,-12.16893,8.736436,-0.978664,0.1910161,0.05599288,19.66818,24.99022,52.58793,1008.253
16.368021965,-13.7018,-13.16688,8.005147,-1.018239,0.1399068,0.001642436,19.66818,24.99022,52.58793,1008.248
16.400305748,-16.49061,-23.32246,11.90535,-1.058415,0.1176271,-0.1129726,19.65818,23.89104,52.16605,1008.248
16.432589531,3.093063,-25.43576,5.811282,-0.9879383,0.2380308,0.08576995,20.37241,23.51291,51.72391,1008.247
16.467356682,-9.48759,-17.21737,4.470587,-0.9697209,0.1226409,0.1493719,20.37241,23.51291,51.72391,1008.247
16.499640465,-4.777592,-21.67878,8.24891,-1.057395,0.1305576,-0.01089574,19.96235,23.12984,49.99113,1008.251
16.534408569,-4.219829,-29.72107,6.908215,-0.9899161,0.2314918,0.01418811,20.65261,22.74045,48.67754,1008.251
16.566692352,-16.42864,-32.06918,6.055045,-0.9916497,0.1790526,0.1067139,20.65261,22.74045,48.67754,1008.251
16.598976135,-14.13561,-32.06918,5.567519,-0.9939892,0.1495604,0.1167035,20.99208,22.36068,47.80518,1008.251
16.633743286,-11.40877,-37.23502,5.872223,-1.094709,0.1882647,0.05622734,20.60666,21.62436,46.94848,1008.251
16.666027546,-6.636802,-49.79742,6.908215,-1.161111,0.2490011,0.04221264,20.60666,21.62436,46.94848,1008.251
16.700794697,-21.38653,-71.86965,15.01333,-1.384919,0.05129197,0.1522783,20.18422,20.50583,44.72696,1008.249
16.733078957,4.332536,-94.29411,31.10167,-2.360721,-0.365383,-0.4561537,20.8372,20.82856,42.09695,1008.249
16.767846108,8.546745,-101.8081,43.16793,-1.492661,0.009323248,0.1397025,20.8372,20.82856,42.09695,1008.247
16.800130367,12.69898,-111.3179,50.6027,-1.091295,0.1346409,-0.0625274,20.35353,20.41088,37.68757,1008.247
16.832414150,-12.58627,-124.8783,44.14298,-1.00605,0.2732269,-0.0802938,19.12296,18.53185,32.43623,1008.246
16.867181301,-32.35587,-74.9809,8.797377,-0.5051404,-0.1207608,-0.09763329,19.12296,18.53185,32.43623,1008.246
16.899465084,74.11488,5.852819,-5.036163,-0.3970051,-0.1788553,-0.482047,19.34285,17.00138,27.15821,1008.246
16.934233189,54.71712,58.68532,-50.68075,-0.3231061,-0.01821749,-0.1230648,17.46706,18.08669,24.9933,1008.242
16.966516972,7.493193,93.14385,-77.92124,-0.6058694,-0.07574086,-0.1508219,17.12693,18.83098,25.86104,1008.245
17.001284122,19.9499,122.0256,-89.01245,-0.8362481,-0.1334226,0.01613299,17.12693,18.83098,25.86104,1008.243
17.033567905,53.91147,149.3811,-97.05663,-1.016758,-0.05098668,0.07597028,17.97008,21.06725,30.24183,1008.241
17.065851688,66.67804,159.0084,-104.3086,-1.250134,0.07852705,0.07817654,18.45847,25.50024,35.03616,1008.241
17.100619793,40.95897,146.5634,-104.0039,-1.412529,0.2542532,0.09112822,18.45847,25.50024,35.03616,1008.241
17.132903576,0.05635388,130.3614,-91.51102,-1.472975,0.2887653,0.187659,17.89183,31.42015,41.13577,1008.239
17.167670727,-13.57785,121.1451,-67.43945,-1.347776,0.367637,0.3652597,18.0634,36.97321,47.66467,1008.239
17.199954510,-30.8685,98.3684,-44.4648,-1.212356,0.3881699,0.4550042,18.0634,36.97321,47.66467,1008.241
17.234722138,-41.96178,56.98294,-31.48443,-0.9464923,0.2928409,0.659834,16.74686,42.16,52.85083,1008.241
17.267005920,-24.2993,15.01045,-5.158045,-1.001436,0.217197,0.6614562,15.77216,46.60331,57.23151,1008.243
17.299290180,41.33081,-175.891,77.29473,-0.6145169,1.053152,1.399719,15.77216,46.60331,57.23151,1008.243
17.334057331,65.50054,-35.76745,36.89104,-1.577253,-0.3656071,-0.8997065,15.1189,47.37493,59.90991,1008.241
17.366341591,3.217011,-45.74693,48.89636,-0.6544293,0.6669307,0.5607764,13.22735,42.98043,56.88055,1008.241
17.401108742,-34.52494,-5.1246,0.3266185,-1.172532,-0.2158755,0.1029245,13.22735,42.98043,56.88055,1008.241
17.433392525,19.20621,12.25142,27.68899,-0.9247289,-0.1140957,0.08218125,13.23066,41.15786,56.90363,1008.243
17.465676308,21.62319,9.962013,27.32335,-1.057642,0.170093,-0.1967943,13.93224,41.13861,56.02114,1008.243
17.500444412,11.39753,-1.015406,20.13235,-0.9384438,0.05856862,-0.2204069,13.93224,41.13861,56.02114,1008.247
17.532728195,24.22608,-14.63445,18.79165,-1.046549,0.04446511,-0.006574244,14.24641,41.4766,54.2681,1008.247
17.567495346,-0.06759344,-9.879525,28.05464,-1.106623,-0.182387,-0.209812,15.30077,40.35418,52.95823,1008.247
17.599779129,24.16411,-22.44192,31.8939,-1.073601,0.2013137,-0.1095634,15.30077,40.35418,52.95823,1008.247
17.634546757,9.724245,-25.43576,25.92171,-0.9798132,0.2528088,0.01283722,16.69024,40.30925,50.69528,1008.247
17.666831017,4.39451,-20.26992,20.74175,-0.9901146,0.1153902,0.02609779,16.29415,38.83827,49.41208,1008.247
17.699114800,1.667669,-19.09586,18.85259,-1.028673,0.06546769,0.03556582,16.29415,38.83827,49.41208,1008.247
17.733881951,14.86806,-18.62624,17.20719,-0.9868962,0.1679761,-0.02437121,16.64561,38.46413,48.97545,1008.245
17.766166210,3.340958,-16.57164,13.12417,-0.9699493,0.1793579,0.03560339,16.98574,37.71984,48.10772,1008.245
17.800933361,-3.538118,-18.50883,13.30699,-1.030752,0.1137272,-0.001863521,17.32719,36.24652,47.24921,1008.245
17.833217144,0.6760905,-25.14225,13.48981,-0.9951261,0.1708447,-0.02772123,17.32719,36.24652,47.24921,1008.245
17.867984295,-3.538118,-27.19685,10.80842,-1.00148,0.2140388,0.01459723,17.66666,35.86675,46.37685,1008.245
17.900269032,-7.752328,-26.08149,8.797377,-0.988256,0.1654156,0.07810616,17.63097,34.7555,45.02127,1008.245
17.932552814,-8.434037,-24.43781,7.883266,-0.9794898,0.1422431,0.08714086,17.63097,34.7555,45.02127,1008.245
17.967319965,-11.53272,-24.49652,6.542571,-1.003308,0.1993215,0.1000861,17.9811,35.11039,44.57542,1008.245
17.999603748,-5.335355,-21.15046,1.911077,-0.9616783,0.19132,0.1313744,18.68401,34.36211,43.70217,1008.245
18.034371853,-10.35522,-19.80029,1.911077,-1.0177,0.1474669,0.09015354,18.68401,34.36211,43.70217,1008.249
18.066655636,-5.087461,-27.37295,3.373654,-1.027947,0.1685587,0.03953449,18.29859,33.6258,42.84546,1008.249
18.101422787,-4.777592,-29.54496,1.728255,-0.972293,0.1948065,0.1696088,18.24998,33.96777,41.09794,1008.249
18.133706570,-7.752328,-27.43166,0.08285572,-0.9901112,0.16476,0.1718936,18.24998,33.96777,41.09794,1008.251
18.165990353,-4.653645,-27.72517,-0.9531363,-1.02641,0.1694055,0.1454091,18.23932,33.23311,40.67144,1008.249
18.200757980,-0.4394354,-32.42139,-4.914282,-1.04928,0.232763,0.1540371,19.30434,32.84536,39.78806,1008.249
18.267809391,-20.7668,-47.03839,8.980198,-1.369317,0.1691016,0.06009429,18.52913,32.82999,37.99393,1008.249
18.300093174,-32.97561,-68.5823,26.28736,-1.415886,0.01642196,0.02741958,18.47987,33.53649,36.24179,1008.251
18.332377434,-28.32758,-88.24773,48.6526,-1.319771,0.07439268,0.059449,18.47987,33.53649,36.24179,1008.253
18.367144585,-47.35349,-105.2715,57.24524,-1.168894,0.05434337,0.01308315,18.75902,32.3987,33.13779,1008.253
18.399428368,-68.61047,-105.4476,49.01824,-1.099123,0.2021666,0.02102487,17.21534,30.547,29.69712,1008.251
18.434195519,-95.94085,-95.76169,32.1986,-0.8282222,0.1936455,0.1335172,17.21534,30.547,29.69712,1008.251
18.466480255,-45.80415,-24.37911,-2.050069,-0.4208142,-0.1866841,-0.05854789,16.74629,28.6769,25.74193,1008.251
18.501247406,53.6016,27.69025,-10.33801,-0.5444351,-0.1140708,-0.23239,15.99743,28.30909,24.88612,1008.249
18.533531189,45.11121,67.72556,-22.52615,-0.5265948,-0.01600802,-0.01287309,15.99743,28.30909,24.88612,1008.246
18.565814972,18.7724,109.698,-39.5286,-0.6680146,0.05302668,-0.08517502,15.64465,29.41226,25.31351,1008.244
18.600583077,-24.85706,132.2986,-65.00182,-0.8982962,-0.05165351,0.06459208,16.05774,29.0671,27.11777,1008.244
18.632866860,-20.7668,156.3667,-64.14864,-1.062392,-0.1661669,0.1126385,16.05774,29.0671,27.11777,1008.244
18.667634010,32.9024,168.5769,-62.80795,-1.181372,-0.1397451,0.1560712,15.83482,31.3258,32.32431,1008.242
18.699917793,70.21054,164.2329,-62.62513,-1.29921,-0.00073745,0.1488971,15.97507,34.31034,37.57835,1008.24
18.734685421,77.15159,143.8044,-71.40059,-1.351798,0.1911159,0.2583916,15.02565,38.03588,42.83971,1008.24
18.766969204,56.8862,127.6611,-67.01286,-1.38867,0.2554962,0.295095,15.02565,38.03588,42.83971,1008.24
18.799253464,43.74779,100.3643,-48.42595,-1.275592,0.3288217,0.4170948,14.04029,41.74452,46.79388,1008.24
18.834020615,37.67437,71.65864,-27.46235,-1.029024,0.4182995,0.6230171,12.9913,46.51773,48.49333,1008.242
18.866304874,44.36752,50.11471,-24.17155,-0.9665008,0.3418697,0.5789382,12.9913,46.51773,48.49333,1008.24
18.901072025,58.99331,-39.87665,26.653,-2.112135,0.2960924,0.3200901,12.30895,49.16061,50.21419,1008.243
18.933355808,12.51306,-99.28385,23.42315,-0.7172642,0.05127662,0.5830335,11.94286,50.98718,50.19662,1008.243
18.965639591,51.74239,-22.38322,29.6391,-1.241193,-0.8780666,-0.036539,11.94286,50.98718,50.19662,1008.243
19.000407696,-9.301669,-43.80973,37.68327,-0.7871846,0.9547045,0.4829313,10.82585,46.97256,48.95676,1008.243
19.032691479,11.76938,-11.58191,26.3483,-1.130292,-0.3577389,-0.09763339,9.777557,44.75359,50.30896,1008.243
19.067458630,48.45779,1.450111,45.91026,-0.9067365,0.02413269,0.01573044,9.777557,44.75359,50.30896,1008.243
19.099742413,20.13582,-2.36557,21.53398,-0.9786832,0.1381605,-0.118829,11.12146,44.32241,46.36997,1008.243
19.134510040,13.19477,-8.764173,15.92744,-0.5444095,0.2666616,0.3054249,12.14815,44.28146,44.11254,1008.241
19.166794300,5.448062,0.8630828,21.1074,-1.081804,-0.007254928,-0.1020298,12.14815,44.28146,44.11254,1008.241
19.199078083,15.05398,-7.590117,18.91353,-0.9970037,0.1207406,-0.1029351,13.19986,44.61711,42.7842,1008.241
19.233845234,3.093063,-11.11228,14.76957,-1.015724,0.08411778,-0.0412228,12.80245,43.87516,41.49177,1008.241
19.266129494,6.625562,-11.5232,16.53684,-1.029081,0.02179808,0.001477683,12.80245,43.87516,41.49177,1008.239
19.300896645,11.9553,-10.99488,16.35402,-1.002894,0.1609212,-0.09350858,13.52867,43.50267,41.48535,1008.239
19.333180428,-4.653645,-9.938229,13.67263,-1.005598,0.1177476,0.02082674,13.87946,43.49305,41.04411,1008.239
19.367947579,-3.290224,-8.294551,15.74462,-1.015997,0.02195007,0.03529106,13.87946,43.49305,41.04411,1008.239
19.400232315,7.61714,-8.646768,15.62273,-1.017753,0.1281907,-0.02888187,13.84378,42.38179,39.68853,1008.241
19.432516098,1.85359,-14.75186,14.2211,-1.006289,0.1677095,-0.08669452,14.22091,42.01973,40.1856,1008.241
19.467283249,-2.794435,-23.55727,15.98838,-1.021649,0.1314869,-0.05254323,14.22091,42.01973,40.1856,1008.241
19.499567032,-4.095882,-29.95588,16.4759,-0.9932064,0.1717673,-0.04270672,14.57132,41.28027,39.69135,1008.239
19.534335137,-10.23127,-29.83847,14.03828,-0.9757435,0.1940361,0.08791071,14.54933,40.17545,38.83374,1008.241
19.566618920,-11.28483,-21.32657,6.420689,-0.9360122,0.18471,0.1583541,14.52602,39.79967,37.9669,1008.243
19.601386070,-2.360619,-8.588064,0.8750849,-0.9824455,0.1771939,0.1216701,14.52602,39.79967,37.9669,1008.245
19.633669853,-5.211408,-8.177145,-0.4656107,-1.019265,0.1787526,0.0415075,14.5147,39.42952,37.53579,1008.245
19.665954113,-2.484566,-12.34504,-3.451705,-0.9969694,0.1472708,0.01469131,15.24091,39.05702,37.52938,1008.246
19.700721264,0.3042485,-13.10818,-3.086061,-0.9714023,0.207687,0.1140847,15.24091,39.05702,37.52938,1008.25
19.733005524,-14.44548,-11.64061,-0.9531363,-1.004045,0.1035156,0.1038939,15.2176,38.68124,36.66254,1008.25
19.767773152,0.8620115,-16.74775,-0.2827885,-1.040522,0.1641101,0.02261594,14.85482,38.68522,36.66806,1008.25
19.800056935,-8.000222,-25.43576,3.983061,-1.021182,0.166603,0.02790626,14.85482,38.68522,36.66806,1008.25
19.832340717,-19.83719,-36.11967,12.271,-1.078043,0.08662774,0.03820973,15.18098,39.02885,35.35074,1008.25
19.867107868,-3.042329,-38.29167,10.07713,-0.9534901,0.2229742,0.1832647,15.15767,38.65306,34.48391,1008.25
19.899391651,-11.03693,-30.30809,6.908215,-0.9922452,0.2455345,0.1617218,15.15767,38.65306,34.48391,1008.25
19.934159756,-15.18917,-33.71286,5.384697,-1.25482,0.2193345,0.07802038,15.1453,37.91759,33.99516,1008.25
19.966443539,-15.00325,-49.09298,12.02723,-1.398986,0.04813537,0.08944363,15.83556,37.5282,32.68156,1008.25
20.001210690,-2.732461,-74.62868,36.70822,-1.502676,-0.07955135,0.05461694,15.83556,37.5282,32.68156,1008.248
20.033494949,0.05635388,-97.17055,65.10659,-1.505264,-0.008428969,0.05260972,15.41352,37.1395,30.51307,1008.248
20.065779209,-15.56101,-108.3241,76.99003,-1.299936,0.04858983,-0.003104052,15.70637,36.00816,27.90704,1008.253
20.100546360,-43.01534,-91.00676,44.50863,-0.7618225,0.2779881,-0.02423077,15.70637,36.00816,27.90704,1008.253
20.132830143,-37.49968,-49.68001,2.21578,-0.4580124,-0.2834029,-0.2934854,15.25195,32.68562,24.40603,1008.253
20.167597771,83.28698,24.579,-25.1466,-0.4278173,-0.1524864,-0.2430119,15.22997,31.5808,23.54843,1008.251
20.199881554,83.41093,59.91808,-62.19855,-0.5250582,-0.1011648,-0.1530744,15.22997,31.5808,23.54843,1008.247
20.234648705,97.16908,95.25716,-89.92657,-0.7001899,-0.04241297,-0.08951586,15.21732,31.93968,23.10808,1008.244
20.266932488,97.04514,120.2645,-107.5994,-0.9067822,0.02589805,-0.03453705,14.16362,32.69758,24.42258,1008.244
20.299217224,89.48434,122.8475,-127.466,-1.19446,0.03595944,0.03623878,14.16362,32.69758,24.42258,1008.244
20.333984375,103.9242,115.7444,-131.9147,-1.311957,0.0297787,0.02533778,15.29394,35.9888,26.1074,1008.242
20.366268158,126.6066,113.6898,-117.5936,-1.375929,0.2986946,0.03667347,15.73372,40.76376,29.15421,1008.24
20.401035309,151.2101,99.60116,-99.12861,-1.280907,0.5061623,0.3451153,14.6601,45.89022,29.97758,1008.24
20.433320046,161.7456,97.78137,-78.71347,-1.20607,0.7589936,0.3478419,14.6601,45.89022,29.97758,1008.24
20.465603829,151.8298,44.42054,-10.52083,-1.124799,1.14875,0.337797,13.91253,51.42105,29.48288,1008.24
20.500370979,75.41633,-160.276,115.017,-1.780636,1.966589,0.7528498,14.22141,54.67517,27.69292,1008.239
20.532654762,-106.9102,-0.9567033,-28.92492,-1.791115,-0.8860916,-0.7977822,14.22141,54.67517,27.69292,1008.24
20.567422390,2.411353,1.391408,94.17531,-0.7211718,-0.1741262,0.4744369,13.76174,47.64109,23.80312,1008.239
20.599706173,29.86568,10.19682,18.30412,-1.07238,0.3772633,0.1167168,14.1258,53.53574,24.1587,1008.239
20.634473324,15.11595,-6.885684,23.17938,-0.9742693,-0.2255351,0.08358812,14.1258,53.53574,24.1587,1008.237
20.666757584,8.174904,-9.76212,13.67263,-0.9094562,0.1768057,0.08815332,14.83543,49.08155,23.33238,1008.237
20.699041844,-6.760749,-1.367623,12.75852,-1.017947,0.04435923,0.08086591,14.81202,48.76652,22.46477,1008.235
20.733808994,2.721221,6.028927,14.03828,-1.064846,-0.009995452,-0.06824119,14.81202,48.76652,22.46477,1008.234
20.766092777,5.572009,-2.306868,14.03828,-1.011871,0.08797406,-0.0489442,15.55088,48.03514,22.8987,1008.232
20.800860882,1.357801,-5.770331,16.41496,-1.027769,0.06129926,-0.05292912,15.91299,48.39567,22.88857,1008.236
20.833144665,-0.1915408,-7.766225,15.43991,-1.007852,0.04707233,0.0160788,15.91299,48.39567,22.88857,1008.236
20.867911816,-1.121146,-6.826981,14.58674,-1.010456,0.1161771,-0.01011179,16.64196,46.50436,22.90139,1008.234
20.900195599,-8.743906,-5.1246,12.271,-1.006855,0.05746364,0.08285027,16.25522,46.49708,22.03545,1008.236
20.932479382,5.014246,-5.476817,11.11312,-1.036073,0.09708975,-0.05174084,16.25522,46.49708,22.03545,1008.234
20.967247009,-2.174698,-9.057687,8.553614,-0.9873044,0.1472739,0.007418917,16.24455,45.76242,21.60895,1008.234
20.999531269,-11.16088,-9.527309,7.091037,-1.007342,0.05256073,0.06445277,16.20755,45.38019,20.24414,1008.234
21.034298420,1.977537,-8.235847,9.345842,-1.032138,0.08809128,0.002828088,16.20755,45.38019,20.24414,1008.234
21.101349831,-1.926803,-10.23174,9.772428,-0.9861782,0.1083536,0.08841289,16.59799,44.29473,21.18618,1008.234
21.133633614,2.659248,-10.11434,8.127028,-0.997831,0.1178958,0.05803563,16.59799,44.29473,21.18618,1008.238
21.165917397,4.580431,-10.76007,6.908215,-1.024495,0.1341505,0.02192761,17.28654,43.90453,19.81033,1008.238
21.200685501,2.473327,-12.87337,7.456681,-1.012837,0.1295164,0.0726372,17.27588,43.16986,19.38384,1008.24
21.232969284,8.856614,-14.04742,7.273859,-1.014323,0.1381623,0.05480233,17.27588,43.16986,19.38384,1008.24
21.267736435,7.245298,-20.85695,9.467724,-1.072242,0.08663449,0.03529663,16.52635,43.16657,18.52342,1008.24
21.300020218,10.65385,-33.24323,12.08817,-1.112453,0.1086805,0.006018887,16.87847,42.42792,18.0914,1008.238
21.332304955,11.83135,-49.79742,17.02437,-1.292503,0.1445992,-0.0953944,16.81854,42.39974,15.91277,1008.238
21.367072105,-6.141013,-91.06546,34.94094,-1.81023,0.04845118,-0.183778,16.81854,42.39974,15.91277,1008.238
21.399355888,-8.434037,-129.3984,56.63583,-1.939536,-0.08757,-0.2287491,16.34618,42.35221,11.9345,1008.238
21.434123516,4.146615,-133.1553,52.12622,-0.8643418,0.07540171,-0.02806234,16.54078,41.53951,5.775793,1008.24
21.466407299,0.7380642,-84.31464,-23.44026,-0.1150425,-0.5295675,-0.2530817,16.54078,41.53951,5.775793,1008.24
21.501174450,200.0453,38.08064,-64.69711,-0.158918,-0.46813,-0.5078934,14.95877,40.03461,0.9610767,1008.24
21.533458233,236.8577,65.96447,-110.3417,-0.5052214,-0.3130964,-0.1620572,12.65961,41.46026,-3.381562,1008.238
21.565742970,270.4474,88.79985,-128.3801,-0.791119,-0.2797232,-0.2110454,12.65961,41.46026,-3.381562,1008.238
21.600510121,370.225,81.57941,-158.4239,-1.163293,-0.0910706,-0.06172185,13.38177,36.70794,-3.768314,1008.24
21.632793903,445.9568,71.36513,-160.6787,-1.478402,0.1969188,-0.2073375,14.22842,29.46036,0.2345142,1008.239
21.667561054,438.2101,30.21447,-131.3662,-1.640216,0.4941932,-0.3131053,14.22842,29.46036,0.2345142,1008.239
21.699845791,443.168,15.12786,12.63664,-1.62746,1.479377,-0.7769501,13.99243,20.03846,4.34383,1008.239
21.734612942,284.9493,24.69641,79.97612,-0.6537815,2.555266,-0.8483475,14.90402,10.99728,10.61062,1008.236
21.766896725,-171.6727,-29.13404,-28.80304,-0.8304518,1.071297,-0.6335393,14.90402,10.99728,10.61062,1008.235
21.799180508,-301.8793,-110.5548,-0.4656107,-1.15907,-1.64265,1.184454,15.37517,-2.454355,13.82598,1008.235
21.833948135,-24.60916,45.712,70.04279,-1.243132,-0.8218513,0.703446,15.22368,0.7578669,8.493466,1008.235
21.866231918,170.9177,51.52358,57.85464,-1.036784,0.4830309,-0.9762969,15.22368,0.7578669,8.493466,1008.236
21.900999546,53.53963,-5.770331,-10.0333,-0.785623,0.5852926,0.1429039,12.33458,7.727648,9.38359,1008.235
21.933283329,-132.2574,8.787958,8.431732,-1.15494,-0.2429183,0.2477644,14.58374,0.8060904,11.61683,1008.235
21.968050957,41.26884,29.56874,17.93848,-1.006177,-0.0692744,-0.04598306,14.58374,0.8060904,11.61683,1008.235
22.000334740,26.70503,22.23089,3.434595,-1.018714,0.3163032,-0.06745218,13.49475,1.182572,11.62876,1008.235
22.032618523,-2.484566,13.54288,0.8141442,-1.036391,0.005905054,-0.1126885,13.86885,1.548734,12.05436,1008.235
22.067386627,11.89332,12.95586,5.689401,-1.015156,0.06541139,0.007496919,13.86885,1.548734,12.05436,1008.24
22.099670410,-1.36904,13.66029,9.345842,-1.017899,0.1427338,-0.1641617,13.53203,0.4704447,12.94518,1008.239
22.134437561,-2.794435,6.028927,10.50372,-1.030154,0.02135796,-0.1276007,13.91944,0.1132092,13.81573,1008.239
22.166721344,8.980561,0.9217855,12.21006,-0.986726,0.09635791,-0.02381191,13.91877,0.477725,13.81111,1008.239
22.199006081,-2.856408,4.326547,13.9164,-1.017625,0.08816059,0.01101566,13.91877,0.477725,13.81111,1008.239
22.233773232,6.501614,8.964067,9.345842,-1.029528,0.178762,-0.08996566,14.30751,-0.6085415,14.6909,1008.239
22.266057015,6.129772,2.624166,3.373654,-0.9820845,0.1537201,-0.09407781,14.66028,-1.711712,14.2635,1008.239
22.300824165,-0.1915408,5.089683,3.983061,-1.015696,0.07641587,-0.02918069,14.66028,-1.711712,14.2635,1008.239
22.333108425,10.90174,5.735414,2.398602,-0.9902846,0.1479157,-0.08635812,14.65962,-1.347196,14.25889,1008.237
22.367875576,-0.9352247,1.743624,-0.09996641,-0.9980746,0.1584236,-0.1206057,14.32319,-1.695649,15.20272,1008.237
22.400159359,-0.06759344,-6.533467,0.5703813,-1.014693,0.03600851,-0.101445,14.32319,-1.695649,15.20272,1008.237
22.432443142,14.68214,-8.588064,5.323756,-1.010088,0.1391548,-0.08443151,13.95975,-1.327145,15.20362,1008.237
22.467211247,-2.608514,-8.059739,7.578563,-1.040924,0.08088352,-0.1175702,14.32319,-1.695649,15.20272,1008.235
22.499495030,4.766352,-13.69521,5.811282,-1.040253,0.1808154,-0.1890358,14.32319,-1.695649,15.20272,1008.233
22.534262180,-2.174698,-20.85695,2.032958,-0.9762533,0.1743794,-0.0001857989,14.28618,-2.077874,13.83791,1008.233
22.566546917,5.633983,-16.86516,1.240729,-1.017353,0.1591193,-0.04175971,13.19851,-2.430424,13.85907,1008.236
22.601314068,2.969116,-13.98872,-0.3437292,-0.9902206,0.1613749,0.02974356,13.19851,-2.430424,13.85907,1008.236
22.633597851,-8.000222,-4.88979,1.423551,-1.026009,0.1514744,-0.005526626,13.57327,-2.428778,14.28928,1008.236
22.665881634,1.109906,-5.1246,1.972018,-0.9782393,0.1873532,-0.02573,13.9001,-2.44967,12.97659,1008.232
22.700649262,-1.307067,-4.126653,-2.11101,-1.017274,0.1472324,0.02053612,13.9001,-2.44967,12.97659,1008.232
22.732933045,-0.1915408,1.215299,1.789196,-1.022022,0.1055548,0.006773091,13.53732,-2.445682,12.9821,1008.232
22.767700195,2.349379,3.035085,1.728255,-0.9902622,0.1470313,-0.06170782,13.54864,-2.075531,13.41321,1008.231
22.799984455,7.803061,1.274002,-6.315918,-0.9839948,0.1777579,0.003717605,13.54864,-2.075531,13.41321,1008.231
22.832268715,11.76938,1.978435,-3.390764,-1.02095,0.05956636,0.001191469,13.53666,-2.081166,12.97749,1008.232
22.867035866,70.70633,7.672606,8.919257,-1.003129,0.07594004,-0.03742894,13.5493,-2.440047,13.41783,1008.232
22.899319649,101.6932,-1.191514,2.093899,-1.045087,0.1744565,-0.205015,13.5493,-2.440047,13.41783,1008.231
22.934087753,67.29778,-15.39759,-5.889333,-0.958039,0.2113947,-0.08848388,13.93804,-3.526314,14.29762,1008.229
22.966371536,72.06975,-19.74159,-4.73146,-1.00588,-0.01384565,-0.1118997,14.71655,-5.333527,16.11482,1008.229
23.001138687,38.17016,-22.55933,0.2047371,-0.9696587,0.06914506,0.071234,14.01695,-6.407827,17.01115,1008.227
23.033422470,-18.4118,-17.45218,9.406783,-1.008486,0.09971596,-0.01407715,14.01695,-6.407827,17.01115,1008.227
23.065706730,-7.380486,-9.292498,12.14911,-1.001553,0.1082284,0.2073712,12.58982,-6.380605,17.90466,1008.225
23.100473881,-1.431014,5.618008,11.235,-1.029173,0.2432258,-0.06011013,12.55452,-6.762024,16.6021,1008.225
23.132758141,8.236877,-1.719839,-0.9531363,-0.9861709,0.2656882,-0.03687003,12.55452,-6.762024,16.6021,1008.229
23.167525291,5.200167,-4.596276,-2.17195,-1.027833,0.1011043,-0.01644475,12.91807,-7.191281,16.60197,1008.228
23.199809551,-1.678909,-1.895948,2.459543,-1.016195,0.1071379,0.04061025,13.28007,-6.770001,16.59107,1008.228
23.234576702,1.915564,0.6282716,6.48163,-1.020754,0.1482945,-0.09160812,13.28007,-6.770001,16.59107,1008.228
23.266860485,-3.724039,-7.590117,4.165883,-0.9998479,0.1170591,-0.04445379,12.91807,-7.191281,16.60197,1008.228
23.299145222,-0.2535144,-13.40169,8.797377,-1.01239,0.1073741,-0.03577993,12.90608,-7.196915,16.16624,1008.228
23.333912373,3.7128,-17.09997,11.05218,-1.018796,0.175762,0.01538379,12.90608,-7.196915,16.16624,1008.228
23.366196156,-1.616935,-13.75391,12.63664,-0.9901246,0.1427146,0.09248428,13.25754,-7.571054,15.72962,1008.228
23.400963307,-1.554961,-8.118443,13.61169,-0.9932269,0.2137078,0.05276922,13.2445,-7.942009,15.23626,1008.228
23.433247566,-6.017066,-1.426326,9.772428,-0.9888245,0.217839,0.1257825,13.2445,-7.942009,15.23626,1008.232
23.468014717,-3.352197,6.028927,8.919257,-0.9936033,0.1599085,0.0282922,12.85775,-7.94929,14.37032,1008.23
23.500298977,-0.1915408,2.624166,2.337662,-0.9879974,0.2309446,-0.006123565,12.48299,-7.950936,13.94011,1008.229
23.532582760,1.729643,-0.3696756,-3.634527,-0.9903348,0.2127008,0.03873754,12.48299,-7.950936,13.94011,1008.229
23.567350388,3.7128,0.4521633,-4.000172,-1.015948,0.1931426,0.0009733154,13.23384,-8.676676,14.80976,1008.229
23.599634171,3.340958,0.1586494,-2.659476,-0.9834423,0.1614302,0.04036492,12.48431,-8.679968,13.94934,1008.229
23.634401322,-0.3154881,0.6282716,1.850136,-1.004233,0.1496517,0.009402677,12.48431,-8.679968,13.94934,1008.227
23.666686058,-3.476145,0.9804883,4.044002,-0.9964954,0.1511419,0.01422886,13.20921,-8.323429,13.93369,1008.227
23.698969841,1.85359,0.5108661,2.15484,-0.9961321,0.214172,0.04939405,13.20987,-8.687944,13.93831,1008.227
23.733736992,-0.873251,-0.4870811,0.1437964,-0.9966443,0.2072105,-0.005273002,13.20987,-8.687944,13.93831,1008.227
23.766020775,-0.5014091,-3.187409,-1.623484,-0.9908246,0.2038773,0.005814593,12.84643,-8.319441,13.93921,1008.227
23.800788880,-2.05075,-4.126653,-4.182993,-1.000925,0.1938102,0.04252046,12.49564,-8.309817,14.38045,1008.225
23.833072662,-0.2535144,-3.070004,-3.390764,-0.9955172,0.1526571,0.0321226,12.49564,-8.309817,14.38045,1008.227
23.867839813,0.1183275,-1.543731,-2.11101,-1.011519,0.1734384,0.03759307,13.19722,-8.329063,13.49797,1008.227
23.900124073,-4.653645,-1.661137,0.02191501,-0.9882828,0.1579749,0.02440223,12.46034,-8.691236,13.07789,1008.227
23.932407856,-1.431014,-0.6631895,1.484492,-1.01341,0.1555292,0.03797876,12.45968,-8.326721,13.07327,1008.227
23.967175007,2.5353,-0.7218922,-2.354772,-1.07234,0.1355883,0.05829681,12.45968,-8.326721,13.07327,1008.227
23.999458790,7.988982,-5.065898,-6.315918,-1.188268,0.06734923,0.01174854,12.47167,-8.321087,13.509,1008.223
24.034226894,17.71885,-1.837245,-2.781357,-0.9918325,0.02441098,0.02703451,12.83378,-7.960559,13.49887,1008.223
24.066510677,26.27121,9.844607,-10.15518,-0.8849155,-0.0566696,-0.1418936,12.83378,-7.960559,13.49887,1008.223
24.101277828,34.32779,23.28754,-29.96091,-0.906817,-0.02897682,-0.2340257,12.50762,-8.304183,14.81618,1008.222
24.133561611,6.93543,32.15166,-42.75846,-0.9784338,-0.01913522,-0.2681396,12.53264,-7.927593,15.74526,1008.222
24.165846348,-17.60614,36.96529,-48.60877,-0.9685392,-0.09392484,-0.2120238,12.53264,-7.927593,15.74526,1008.22
24.200613499,-15.25114,36.20215,-40.8693,-1.017919,-0.06449708,-0.1972469,13.31812,-7.907397,17.91287,1008.22
24.232897282,5.943851,38.96119,-49.94946,-0.8982306,0.1225376,0.0583308,13.38397,-4.532195,20.48492,1008.22
24.267664909,23.04858,65.61225,-61.58914,-1.072737,0.03087884,-0.1380904,13.38397,-4.532195,20.48492,1008.218
24.299948692,15.42582,35.73253,-48.18218,-1.054543,0.1611468,0.01682805,13.81773,-3.043509,23.13754,1008.22
24.334715843,9.476351,28.6882,-28.49834,-1.170183,0.1903229,0.01337566,14.974,-0.8345718,25.70766,1008.224
24.366999626,20.25977,23.11143,-21.30733,-1.001517,0.2627495,0.1086614,14.974,-0.8345718,25.70766,1008.224
24.399284363,8.050956,19.29576,-7.473792,-1.065888,0.246193,-0.01021994,15.01863,1.010545,27.42749,1008.224
24.434051514,-17.73009,-10.81877,7.151978,-1.048901,0.2386836,0.04432933,15.41776,1.753296,28.78217,1008.224
24.466335297,-15.49903,-13.6365,7.883266,-1.104409,-0.04786343,-0.07078843,15.41776,1.753296,28.78217,1008.226
24.501103401,8.360825,3.152491,1.728255,-1.029345,-0.1610352,-0.2577176,14.69286,1.396758,28.79782,1008.226
24.533387184,6.25372,2.330652,1.728255,-0.9253706,-0.169483,-0.2681419,14.67956,2.120155,28.35286,1008.22
24.565670967,-5.893118,-7.003089,2.276721,-1.005861,-0.0543295,-0.205917,14.67956,2.120155,28.35286,1008.22
24.600438118,-25.10495,0.09994663,-1.014077,-1.161598,-0.3026286,-0.3737795,15.04366,1.387136,28.35658,1008.22
24.632722378,-8.000222,-0.6044867,1.362611,-1.021782,-0.01659827,-0.05386838,14.69286,1.396758,28.79782,1008.22
24.667489529,-2.918382,1.039191,3.92212,-0.988869,-0.06132873,-0.1436298,14.69286,1.396758,28.79782,1008.224
24.699773789,-4.777592,-0.7218922,4.104942,-0.9947472,-0.05237345,-0.2093139,14.31943,0.6660805,28.37684,1008.224
24.734541416,-5.397329,-0.4283783,1.30167,-1.010788,0.001473905,-0.1567618,14.30441,1.388673,27.86963,1008.224
24.766825199,-3.352197,0.7456772,1.728255,-0.9981605,-0.007055081,-0.1138114,14.30744,0.6604457,27.94111,1008.224
24.799108982,0.4901695,1.743624,0.8141442,-1.008812,-0.01838129,-0.1626802,14.30744,0.6604457,27.94111,1008.224
24.833876133,-2.608514,1.215299,0.2047371,-0.9947351,-0.04499331,-0.1734975,13.95533,1.3991,28.37312,1008.224
24.866160870,-1.988777,-0.4870811,-1.440662,-1.012709,-0.007273461,-0.1659927,14.30612,1.389478,27.93188,1008.224
24.900928020,1.791616,-0.780595,-1.196899,-0.9991325,-0.01831761,-0.152065,14.30612,1.389478,27.93188,1008.224
24.933211803,5.572009,0.276055,-2.232891,-1.007808,-0.02995514,-0.1516291,15.04366,1.387136,28.35658,1008.224
24.967978954,2.783195,1.215299,-2.842298,-1.006364,-0.02753463,-0.1525853,14.69286,1.396758,28.79782,1008.226
25.000263214,-1.059172,-0.0761617,-1.745365,-0.9923035,-0.04590675,-0.1594882,14.69286,1.396758,28.79782,1008.226
25.032547474,0.1183275,0.3934605,-1.196899,-1.010688,-0.04111508,-0.157971,14.68022,1.755639,28.35748,1008.226
25.067314625,0.7380642,2.330652,-1.075018,-0.9981187,-0.03229308,-0.1357098,14.30612,1.389478,27.93188,1008.228
25.099598885,1.109906,3.269897,-1.684425,-1.013118,-0.03237361,-0.146797,14.30612,1.389478,27.93188,1008.228
25.134366035,0.3662222,3.622113,-2.050069,-0.9981192,-0.03815919,-0.1531469,14.69286,1.396758,28.79782,1008.228
25.166649818,2.721221,2.565463,-1.25784,-1.002978,-0.03826966,-0.18166,14.68154,1.026608,28.36671,1008.228
25.198933601,3.03109,0.8630828,-1.196899,-0.9995982,-0.04219038,-0.1990933,14.68154,1.026608,28.36671,1008.228
25.233701706,0.5521432,-1.895948,-0.6484327,-0.9932588,-0.05954305,-0.184219,14.68154,1.026608,28.36671,1008.23
25.265985489,0.4901695,-2.835192,-0.0390257,-1.005347,-0.05664456,-0.1754746,14.68088,1.391124,28.36209,1008.23
25.300752640,-3.600092,-3.657031,1.118848,-1.001959,-0.04831473,-0.1478785,14.68088,1.391124,28.36209,1008.23
25.333036423,-3.22825,-0.9567033,0.6313221,-1.0136,-0.02894982,-0.1356574,14.33009,1.400746,28.80333,1008.23
25.367804051,-4.343777,1.626219,1.118848,-1.00399,-0.006694214,-0.1452203,14.69154,2.12579,28.78859,1008.23
25.400088310,3.898721,0.9804883,6.48163,-0.9864662,-0.1097615,-0.3005445,14.69154,2.12579,28.78859,1008.23
25.432372093,3.155037,-4.185356,7.030096,-0.9829291,-0.150658,-0.2335867,14.33009,1.400746,28.80333,1008.23
25.467139721,-21.20061,-9.057687,8.492673,-1.016153,0.05600268,-0.05491802,14.33075,1.03623,28.80795,1008.23
25.499423504,-9.48759,-7.883631,9.284902,-1.019403,-0.02212752,-0.116752,14.33075,1.03623,28.80795,1008.23
25.534190655,20.69358,-6.181251,16.11026,-0.9887493,-0.1209388,-0.1695912,14.29374,0.6540065,27.44314,1008.23
25.566474438,-0.8112774,-5.183303,17.99942,-1.011231,0.01874418,-0.05804111,13.95599,1.034584,28.37774,1008.23
25.601242542,-28.32758,-3.774437,20.19329,-1.002938,-0.04738731,-0.1589903,14.65823,0.6508231,27.49987,1008.23
25.633526325,-13.20601,-5.300709,23.78879,-0.9919548,0.01315357,-0.1533519,14.65823,0.6508231,27.49987,1008.231
25.665810108,-0.4394354,-5.065898,21.77775,-1.000814,0.07845576,-0.1539284,13.94361,0.2991138,27.889,1008.231
25.700577736,-5.087461,-5.652925,13.18511,-1.022156,0.1343186,-0.0733139,13.9203,-0.07667112,27.02216,1008.231
25.732861996,-1.121146,-2.893895,8.066088,-0.9804476,0.04845456,-0.1705797,13.9203,-0.07667112,27.02216,1008.231
25.767629147,5.262141,-8.118443,1.30167,-0.9742727,0.1066521,-0.1383552,13.18409,-0.80336,26.6067,1008.231
25.799912930,1.729643,-6.357359,-1.684425,-1.012336,0.06410785,-0.0940387,13.53488,-0.8129835,26.16545,1008.23
25.834680557,5.943851,-1.132812,-4.061112,-1.009817,0.04547415,-0.02550178,13.53488,-0.8129835,26.16545,1008.231
25.866964340,5.200167,5.911522,-3.207942,-1.007956,0.0593498,-0.07377077,12.80933,-0.8050065,26.17648,1008.23
25.899248123,-1.492988,5.089683,-1.745365,-0.9866158,-0.001408048,-0.17085,13.55819,-0.4371986,27.03229,1008.231
25.934016228,-1.245093,2.50676,-1.562543,-1.02342,0.04077377,-0.1159022,13.55819,-0.4371986,27.03229,1008.231
25.966300011,-0.5633827,2.448058,-0.7093734,-1.019592,0.05137065,-0.1337375,13.56122,-1.165425,27.10377,1008.231
26.001067162,4.208589,2.330652,-0.8921956,-1.006017,0.04715884,-0.1028506,12.82197,-1.163888,26.61683,1008.233
26.033350945,3.464905,0.5695689,0.8750849,-0.9963409,0.02521641,-0.160042,12.82197,-1.163888,26.61683,1008.231
26.065635681,-3.971934,-2.482976,2.642365,-0.9880949,0.006776916,-0.1819193,13.5462,-0.4428329,26.59656,1008.231
26.100402832,-4.777592,-2.717787,1.545433,-1.025859,0.05680693,-0.09501795,13.53488,-0.8129835,26.16545,1008.231
26.132686615,0.1183275,1.039191,3.312713,-1.005512,0.03747509,-0.1048405,13.53488,-0.8129835,26.16545,1008.231
26.167454243,-2.794435,0.3347577,2.642365,-1.006057,0.0479678,-0.1497395,13.1721,-0.8089948,26.17097,1008.233
26.199738026,-11.0989,-1.426326,0.2656778,-0.998831,0.06253751,-0.1404869,13.1721,-0.8089948,26.17097,1008.231
26.234505177,-5.707197,-1.250217,-2.293832,-1.025885,0.05816371,-0.1230496,13.1721,-0.8089948,26.17097,1008.233
26.266788960,6.25372,-0.780595,-1.562543,-0.9915197,0.03494484,-0.1493614,13.54753,-1.171865,26.60579,1008.233
26.299073696,11.21161,-2.072056,-1.684425,-0.9939747,0.04651126,-0.1613763,13.52223,-0.454102,25.72511,1008.233
26.333840847,5.014246,-4.420167,-3.573586,-1.019621,0.06297839,-0.1356051,13.52223,-0.454102,25.72511,1008.235
26.366124630,2.039511,-4.067951,-5.036163,-0.9957436,0.005164706,-0.07990645,13.54753,-1.171865,26.60579,1008.235
26.400892735,14.18635,-2.130759,-0.587492,-1.011752,0.01125946,-0.1243137,13.17343,-1.538026,26.1802,1008.235
26.433176518,7.307272,-2.36557,2.398602,-0.9982693,0.02914455,-0.1416448,13.17343,-1.538026,26.1802,1008.235
26.467943668,-8.80588,-1.015406,-0.587492,-1.032133,0.05976788,-0.07274941,13.90898,-0.4468212,26.59105,1008.239
26.500227451,-1.678909,1.274002,2.947069,-0.9851743,0.0249461,-0.1064059,13.16012,-0.8146291,25.73524,1008.239
26.532511711,4.580431,0.9217855,3.556476,-0.9973848,0.05714801,-0.1613085,13.15879,-0.08559752,25.72601,1008.239
26.567278862,-2.54654,-2.77649,2.398602,-0.988129,0.02911461,-0.1590706,13.15879,-0.08559752,25.72601,1008.241
26.599562645,-4.839566,-6.650873,4.958112,-1.022523,0.06492054,-0.1312369,13.89766,-0.8169718,26.15993,1008.241
26.634330750,2.101485,-2.013354,-0.7093734,-1.008429,0.07307204,-0.02244722,13.52289,-0.8186178,25.72972,1008.241
26.666614533,2.721221,-0.8392978,1.423551,-1.007908,0.0150797,-0.1426709,13.52289,-0.8186178,25.72972,1008.241
26.698898316,-1.554961,-2.248165,2.764247,-0.9972844,0.01651603,-0.1562219,13.53554,-1.177499,26.17007,1008.241
26.733665466,-4.095882,-2.835192,2.581425,-1.034297,0.1531245,-0.08284958,12.80933,-0.8050065,26.17648,1008.241
26.765950203,-6.388907,0.1586494,-1.806306,-0.9798237,0.03486592,-0.03964647,12.80933,-0.8050065,26.17648,1008.241
26.800717354,3.836747,0.3934605,0.1437964,-1.024853,0.02080897,-0.1513037,12.44655,-0.8010178,26.182,1008.241
26.833001137,-2.298645,-0.01745892,0.3266185,-1.000279,0.06058947,-0.142912,13.88633,-1.187122,25.72882,1008.241
26.867768764,-2.236671,-1.837245,0.7532035,-1.014241,0.0520041,-0.09410342,13.88633,-1.187122,25.72882,1008.241
26.900052547,-2.05075,0.04124385,1.606373,-1.0084,0.03801134,-0.08694398,13.52356,-1.183134,25.73434,1008.241
26.932336807,-2.298645,-0.4283783,2.459543,-1.012304,0.03980495,-0.1256005,13.52223,-0.454102,25.72511,1008.239
26.967103958,-1.926803,-1.250217,2.459543,-1.003655,0.06550425,-0.117738,13.52223,-0.454102,25.72511,1008.239
26.999388218,-0.8112774,-1.426326,0.6313221,-1.009428,0.06463283,-0.08437321,13.16012,-0.8146291,25.73524,1008.241
27.034155369,-0.2535144,-1.015406,0.4484999,-1.01133,0.04521283,-0.1013999,13.51157,-1.188768,25.29861,1008.239
27.066439152,-0.6253564,-1.015406,0.4484999,-1.003148,0.05778243,-0.1119817,13.51157,-1.188768,25.29861,1008.243
27.101207256,-0.5014091,-1.719839,0.3875592,-1.006051,0.05923247,-0.1100334,12.78536,-0.8162756,25.30503,1008.245
27.133491039,0.1803012,-1.543731,0.08285572,-1.0133,0.06167561,-0.09695108,13.16078,-1.179145,25.73986,1008.245
27.165774822,-0.9971983,-0.5457839,0.2656778,-1.004076,0.04963315,-0.08833754,13.16078,-1.179145,25.73986,1008.245
27.200541973,-0.2535144,0.1586494,0.9360256,-1.007964,0.0519844,-0.1052362,12.78602,-1.180791,25.30965,1008.245
27.232826233,-1.307067,0.276055,0.8750849,-1.004588,0.05586878,-0.1042545,13.52422,-1.547649,25.73896,1008.245
27.267593384,-0.873251,0.3347577,0.6313221,-1.014267,0.06069352,-0.1003387,13.16012,-0.8146291,25.73524,1008.245
27.299877644,-0.1295671,0.5108661,0.2047371,-1.007495,0.06023386,-0.09890555,13.16012,-0.8146291,25.73524,1008.245
27.334645271,0.05635388,0.04124385,-0.2218478,-1.009916,0.05728243,-0.1110031,13.14879,-1.18478,25.30413,1008.243
27.366929054,0.2422749,-0.4283783,-0.6484327,-1.008931,0.0534498,-0.1003913,13.88567,-0.8226061,25.72421,1008.243
27.399212837,-0.1915408,-0.4283783,-0.4046699,-1.008441,0.05152366,-0.09798615,13.88567,-0.8226061,25.72421,1008.243
27.433980942,-0.1915408,0.09994663,0.4484999,-1.005526,0.04425665,-0.1028681,13.14813,-0.8202639,25.29951,1008.245
27.466264725,-0.3774618,0.04124385,0.8750849,-1.007491,0.05682835,-0.1042427,13.51157,-1.188768,25.29861,1008.245
27.501031876,-0.7493037,0.3347577,1.118848,-1.007976,0.06171047,-0.0911611,13.51157,-1.188768,25.29861,1008.245
27.533315659,-0.6253564,0.9217855,0.9360256,-1.00071,0.05152284,-0.104771,12.77403,-1.186426,24.87392,1008.246
27.565599918,-0.5633827,0.6869744,0.6313221,-1.009927,0.06261056,-0.1095224,13.14813,-0.8202639,25.29951,1008.248
27.600367069,-0.5014091,0.80438,-0.2218478,-1.010903,0.06794739,-0.1046556,13.14813,-0.8202639,25.29951,1008.248
27.632651329,0.4281958,0.6869744,-1.135958,-1.006539,0.06605686,-0.09500699,14.23646,-0.8322296,25.28297,1008.248
27.667418957,0.1803012,0.6869744,-0.2218478,-1.009881,0.04374389,-0.1076961,13.14946,-1.549295,25.30875,1008.248
27.699702740,-0.6873301,1.097894,1.545433,-1.003604,0.04860934,-0.1052647,13.14946,-1.549295,25.30875,1008.25
27.734469891,-0.6873301,1.332705,1.789196,-1.005566,0.06119741,-0.1018049,12.78602,-1.180791,25.30965,1008.246
27.766753674,-0.1915408,0.6869744,1.606373,-1.012359,0.06547936,-0.1177194,12.79734,-0.8106408,25.74076,1008.246
27.799038410,-0.3774618,0.09994663,0.7532035,-1.003668,0.07375725,-0.109956,12.79734,-0.8106408,25.74076,1008.246
27.833805561,-0.06759344,-0.4283783,-0.2827885,-1.009431,0.05973293,-0.1022883,13.52356,-1.183134,25.73434,1008.245
27.866089344,0.6141168,-0.5457839,-0.4046699,-1.010888,0.05921537,-0.11099,13.52356,-1.183134,25.73434,1008.246
27.900856972,0.4901695,-1.132812,-1.075018,-1.008487,0.06794611,-0.107078,13.52356,-1.183134,25.73434,1008.246
27.933140755,0.8620115,-1.015406,-0.6484327,-1.010861,0.05346229,-0.09506929,13.14879,-1.18478,25.30413,1008.246
27.967908382,-0.1295671,0.04124385,0.2047371,-1.000708,0.05103891,-0.1047737,12.78602,-1.180791,25.30965,1008.245
28.000192165,0.5521432,0.3347577,0.1437964,-1.013808,0.07085577,-0.1007653,12.78602,-1.180791,25.30965,1008.245
28.032476425,-0.3774618,0.5108661,0.3266185,-1.009895,0.05150313,-0.1028175,13.17276,-1.173511,26.17558,1008.243
28.067243576,0.05635388,0.6282716,0.4484999,-1.002675,0.06262638,-0.1109883,13.16078,-1.179145,25.73986,1008.241
28.099527359,0.6141168,-0.25227,-0.4046699,-1.004136,0.0659999,-0.1138666,13.16078,-1.179145,25.73986,1008.241
28.134295464,1.357801,-1.367623,-0.7093734,-1.010931,0.07124971,-0.1297756,12.78734,-1.909823,25.31888,1008.239
28.166579247,2.349379,-1.895948,-1.623484,-1.003173,0.07185076,-0.1017494,13.51091,-0.8242526,25.294,1008.239
28.201346397,3.650826,-1.719839,-3.207942,-1.01378,0.06510922,-0.08291081,13.14813,-0.8202639,25.29951,1008.243
28.233630180,1.667669,-1.30892,-3.02512,-1.007947,0.04521595,-0.1033409,13.14813,-0.8202639,25.29951,1008.243
28.265914917,1.233853,-0.8980006,-2.96418,-1.012795,0.05443444,-0.09215896,13.51223,-1.553284,25.30323,1008.243
28.300682068,0.6141168,0.8630828,-3.817349,-1.007453,0.04965623,-0.07866136,13.14813,-0.8202639,25.29951,1008.243
28.332965851,3.093063,0.80438,-3.756409,-1.009904,0.05048941,-0.1163595,13.14813,-0.8202639,25.29951,1008.243
28.367733479,3.526879,-0.1935673,-3.817349,-1.006501,0.04177854,-0.1193171,13.51157,-1.188768,25.29861,1008.243
28.400017262,2.721221,-0.4870811,-3.756409,-1.00939,0.0442636,-0.09754195,12.78536,-0.8162756,25.30503,1008.24
28.432301045,-0.4394354,0.3934605,-4.061112,-1.013726,0.04431669,-0.07819476,12.78536,-0.8162756,25.30503,1008.24
28.467069149,1.419775,0.8630828,-4.365816,-1.019988,0.03609158,-0.07242676,13.52223,-0.454102,25.72511,1008.238
28.499352932,10.71582,0.9217855,-3.086061,-1.008897,0.04284105,-0.08933265,13.15879,-0.08559752,25.72601,1008.238
28.534120083,22.73871,0.04124385,-0.587492,-1.019907,0.004664073,-0.06438718,13.15879,-0.08559752,25.72601,1008.24
28.566403866,33.89397,3.622113,-0.587492,-1.053917,0.06595743,-0.08426979,13.17276,-1.173511,26.17558,1008.238
28.601171494,17.5949,-2.77649,-4.670519,-1.001348,0.1148964,-0.1102105,13.53422,-0.4484677,26.16084,1008.236
28.633455753,-1.554961,-3.891843,-7.900377,-0.9919901,0.04379341,-0.1082178,13.53422,-0.4484677,26.16084,1008.236
28.665739536,4.208589,-2.013354,-7.778495,-0.99626,0.0006294217,-0.1326259,13.88633,-1.187122,25.72882,1008.236
28.700507164,8.484772,-2.952598,-3.634527,-1.024905,0.06946064,-0.07464363,13.53554,-1.177499,26.17007,1008.235
28.732790947,-5.211408,-5.1246,-0.3437292,-1.0472,0.1048549,-0.03571923,13.53554,-1.177499,26.17007,1008.235
28.767558098,-11.0989,-10.70136,3.434595,-1.049034,0.07643351,0.004248532,13.53554,-1.177499,26.17007,1008.233
28.799841881,0.8620115,-11.75801,6.664452,-1.053887,0.08220718,-0.001509442,13.89898,-1.546003,26.16917,1008.231
28.834609985,7.307272,-10.46655,6.786334,-1.057746,0.06220271,-0.04657467,13.89898,-1.546003,26.16917,1008.231
28.866893768,4.084641,-18.80235,10.38183,-1.054879,0.0894355,-0.009684665,13.50025,-1.558918,24.8675,1008.231
28.899177551,5.386088,-19.03716,14.16016,-1.116706,0.04066585,-0.06880824,14.22646,-1.931411,24.86109,1008.229
28.933945179,12.45109,-26.1402,19.462,-1.032027,0.02404562,-0.04684706,14.22646,-1.931411,24.86109,1008.229
28.966229439,6.067799,-28.4296,21.59492,-1.052012,0.09467527,-0.03673362,13.84104,-2.667724,24.00438,1008.229
29.000996590,-0.5014091,-30.13198,22.08245,-0.9754757,0.05245377,0.005887407,13.06886,-3.411316,22.28174,1008.229
29.033280373,5.200167,-27.13814,22.87468,-0.9178943,0.02981466,-0.01176921,13.06886,-3.411316,22.28174,1008.229
29.065564632,8.918588,-23.43987,23.91067,-0.8376955,0.06445058,0.002274601,13.03384,-4.887088,20.93077,1008.229
29.100331783,-0.005619779,-20.62213,24.03255,-0.8367655,0.07407294,-0.01507649,13.36265,-6.001528,19.63193,1008.229
29.132615566,-11.47075,-16.74775,26.59206,-0.7661314,0.0607428,-0.009986685,12.62643,-6.728217,19.21646,1008.229
29.167383671,-17.91601,-13.6365,25.67795,-0.7108201,-0.01993205,-0.01539899,12.62643,-6.728217,19.21646,1008.229
29.199667454,-2.54654,-10.29045,19.03541,-0.6512181,-0.05931147,0.02340718,12.22913,-7.530916,17.9248,1008.228
29.234434605,17.96674,21.87868,-14.29915,-1.261382,-0.04859329,-0.439318,11.8304,-7.543831,16.62313,1008.228
29.266718865,9.042535,-39.23092,-12.47093,-1.955182,-0.3237723,0.05613733,11.8304,-7.543831,16.62313,1008.226
29.299003124,-33.09955,18.94354,35.55035,-0.1870672,0.2178474,0.16418,12.96733,-7.897774,18.35411,1008.226
29.333770275,7.741087,-13.10818,-22.28238,-0.9735444,0.3412041,0.2453769,12.58257,-8.998602,17.50202,1008.226
29.366054058,-1.926803,11.01866,5.384697,-1.322401,0.1565799,0.03816724,12.58257,-8.998602,17.50202,1008.226
29.400821686,5.510036,-0.6044867,-0.2827885,-0.8295768,0.07724694,-0.08420566,12.93138,-7.914678,17.04693,1008.224
29.433105469,-9.673511,0.5108661,-3.756409,-1.086158,0.2648682,0.09145205,12.91873,-7.555797,16.60659,1008.224
29.467872620,4.270563,1.802327,1.30167,-0.9590753,0.08751889,0.05777938,12.91873,-7.555797,16.60659,1008.224
29.500157356,5.510036,-1.485028,-0.7703142,-1.011553,0.178186,0.01054757,12.56794,-7.546174,17.04783,1008.224
29.532441139,-1.616935,-0.5457839,2.21578,-0.9834858,0.1749327,0.02642206,12.2045,-7.177669,17.04873,1008.224
29.567208290,-0.7493037,0.8630828,2.459543,-1.016231,0.1367951,0.0813878,12.2045,-7.177669,17.04873,1008.224
29.599492073,-0.3154881,2.91768,4.409646,-0.9954782,0.1415792,0.04752956,12.58059,-7.905055,17.48817,1008.223
29.634260178,2.039511,2.448058,2.947069,-0.9879476,0.2169795,0.01410135,13.30614,-7.913032,17.47714,1008.223
29.666543961,-3.414171,0.6282716,0.1437964,-0.9927121,0.1864733,0.01248785,13.30614,-7.913032,17.47714,1008.223
29.701311112,-0.1915408,-1.778542,-3.207942,-1.006171,0.1618443,0.03896594,12.56794,-7.546174,17.04783,1008.223
29.733595371,1.605695,-2.893895,-3.451705,-0.9937203,0.2019382,0.007260124,12.21715,-7.536551,17.48907,1008.224
29.765879154,0.1803012,-6.709576,-5.218986,-0.9921982,0.1660759,-0.009383983,12.21715,-7.536551,17.48907,1008.223
29.800646305,-0.6253564,-9.175093,-6.072155,-0.9896587,0.1494844,0.09058802,12.21715,-7.536551,17.48907,1008.227
29.832930088,1.543722,-7.120495,-3.02512,-0.9969538,0.1546657,0.05485873,12.56794,-7.546174,17.04783,1008.227
29.867698193,-0.2535144,-6.416062,-1.806306,-1.000311,0.1533041,0.08434799,12.55529,-7.187292,16.60749,1008.227
29.899981976,-1.802856,-1.30892,0.8141442,-0.9982625,0.1171329,0.1189455,12.55529,-7.187292,16.60749,1008.227
29.932265758,2.349379,0.7456772,1.423551,-0.9999526,0.1913917,0.04202118,12.93005,-7.185646,17.0377,1008.227
29.967033863,-0.5014091,-0.0761617,-1.440662,-0.9945773,0.1716052,0.05349962,13.29283,-7.189635,17.03218,1008.227
29.999317646,-2.54654,1.743624,0.3875592,-1.001712,0.1276043,0.07018515,13.29283,-7.189635,17.03218,1008.227
30.034084797,-2.05075,2.330652,1.179788,-0.9936163,0.1789127,0.06707537,11.84305,-7.902712,17.06347,1008.227
30.066369057,-5.459302,5.148386,2.520484,-0.9945027,0.1474808,0.07463358,12.2045,-7.177669,17.04873,1008.227
30.101136208,-2.670487,5.618008,1.667314,-0.9897106,0.1663728,0.07618099,12.2045,-7.177669,17.04873,1008.225
30.133419991,-5.831144,7.731308,2.947069,-1.000836,0.1585047,0.04860423,11.84095,-6.748412,17.04886,1008.227
30.165704250,-5.397329,7.613903,2.520484,-0.9878153,0.1745248,0.05253477,12.21571,-6.746766,17.47907,1008.227
30.200471878,-3.600092,9.785905,0.9969663,-0.9816673,0.2233262,0.02524299,12.21571,-6.746766,17.47907,1008.227
30.232755661,-3.476145,7.261685,-5.523689,-0.9906716,0.1590652,0.06260523,12.20307,-6.387885,17.03873,1008.227
30.267522812,-0.5014091,7.379091,-6.925325,-0.995094,0.171955,0.01434418,12.22847,-7.1664,17.92018,1008.228
30.299807549,-2.670487,6.792063,-8.266022,-0.9801388,0.1914009,0.0279588,12.22847,-7.1664,17.92018,1008.227
30.334574699,-5.273381,10.54904,-11.25212,-1.045327,0.1564042,0.03756908,11.86492,-6.737143,17.92031,1008.227
30.366858482,-3.971934,13.9538,-9.545776,-0.9832809,0.1029699,0.06807161,12.95259,-6.384593,17.89915,1008.227
30.399142742,-0.5633827,16.24321,-6.011215,-0.9776008,0.1405953,0.02766446,12.95259,-6.384593,17.89915,1008.227
30.433909893,2.783195,16.94764,-6.925325,-1.029861,0.1490896,0.008004399,12.60114,-6.010454,18.33578,1008.227
30.466193676,2.5353,16.94764,-9.667658,-1.008591,0.1383729,-0.03077747,13.71278,-5.646635,19.18607,1008.231
30.500961781,1.109906,10.54904,-10.15518,-1.014919,0.1376908,-0.08394597,13.71278,-5.646635,19.18607,1008.231
30.533245564,-4.095882,7.202983,-8.326962,-1.005136,0.1049555,-0.04161058,12.99921,-5.633023,19.63282,1008.231
30.568012715,-6.26496,5.735414,-5.158045,-1.001137,0.0732533,0.02491509,13.73609,-5.27085,20.0529,1008.231
30.600296497,4.208589,7.790011,-1.075018,-1.027363,0.08541354,-0.07744826,13.73609,-5.27085,20.0529,1008.229
30.632581234,8.236877,2.213246,-2.842298,-0.99655,0.154825,-0.04134553,13.7241,-5.276484,19.61718,1008.229
30.667348385,1.543722,-1.132812,-2.537595,-1.020939,0.04006508,-0.04146204,13.37265,-4.902346,20.0538,1008.229
30.699632168,2.5353,-3.128706,4.77529,-1.027767,0.06472772,-0.04082366,13.37265,-4.902346,20.0538,1008.229
30.734399796,6.811482,-5.946439,2.825187,-0.9985549,0.1779825,-0.06054708,13.3853,-5.261227,20.49415,1008.229
30.766683579,1.791616,-9.057687,0.3875592,-1.004043,0.07469188,0.02347922,14.11085,-5.269204,20.48312,1008.231
30.798967362,9.476351,-5.946439,3.312713,-1.020156,0.120915,-0.03181869,14.11085,-5.269204,20.48312,1008.229
30.833734512,0.05635388,-6.885684,1.179788,-0.99645,0.1317832,0.01363525,13.38596,-5.625743,20.49876,1008.229
30.866019249,8.360825,-2.541679,3.739298,-1.0104,0.1198283,0.06774248,13.36199,-5.637012,19.62731,1008.229
30.900786400,9.600298,-3.774437,1.911077,-1.042896,0.09342737,-0.1271634,12.99789,-4.903992,19.62359,1008.231
30.933070183,5.262141,-5.770331,2.947069,-1.008024,0.1054917,-0.02371407,12.99789,-4.903992,19.62359,1008.232
30.967838287,1.109906,-3.774437,2.764247,-0.9997964,0.1275344,0.04794246,13.71344,-6.01115,19.19068,1008.234
31.000122070,8.11293,-2.189462,1.728255,-1.012911,0.1365378,0.002578674,13.37463,-5.995893,20.06765,1008.234
31.032405853,5.324115,-2.130759,0.9360256,-1.033156,0.1005838,-0.02272094,13.37463,-5.995893,20.06765,1008.234
31.067173481,11.45951,-4.654978,-0.1609071,-0.9848917,0.1438392,-0.008559288,13.36199,-5.637012,19.62731,1008.236
31.099457264,1.667669,-2.36557,-2.293832,-0.9916165,0.1503583,0.06449152,14.10085,-6.368386,20.06124,1008.236
31.134224415,7.741087,-0.6044867,-2.96418,-1.02442,0.0904806,-0.012645,14.10085,-6.368386,20.06124,1008.236
31.166508198,5.881877,-1.074109,-2.537595,-0.9912435,0.1660279,-0.02437291,12.6504,-6.716948,20.08791,1008.237
31.201276302,-2.422592,-3.891843,-4.061112,-1.007061,0.1128075,-0.007721077,13.35276,-7.161462,19.21082,1008.237
31.233560085,0.8620115,-6.709576,-2.354772,-1.04507,0.03237104,-0.006646197,13.35276,-7.161462,19.21082,1008.237
31.265843868,11.14964,-8.764173,-2.17195,-1.008593,0.1378742,-0.03513125,13.01252,-6.35642,20.07778,1008.236
31.300611973,-3.290224,-7.883631,-2.842298,-0.9916496,0.1560852,0.04083566,12.99987,-5.997539,19.63744,1008.236
31.332895756,1.543722,-9.292498,-3.268883,-1.029308,0.1063726,-0.03139821,12.99987,-5.997539,19.63744,1008.236
31.367662907,-0.3774618,-12.28634,-2.903239,-1.01133,0.09016833,0.02696699,12.98722,-5.638658,19.1971,1008.236
31.399946690,4.146615,-14.28223,-2.050069,-1.023015,0.1166841,0.00732195,13.35132,-6.371678,19.20082,1008.236
31.432230950,1.047933,-13.6365,-4.73146,-0.9839349,0.1623689,0.03215286,13.35132,-6.371678,19.20082,1008.236
31.466998100,0.5521432,-13.75391,-6.742503,-1.009834,0.07863518,0.04961981,13.68947,-6.02242,18.31923,1008.236
31.499282360,3.155037,-17.39348,-5.462749,-1.045688,0.09045254,-0.002930547,13.69013,-6.386935,18.32384,1008.236
31.534049988,2.845169,-26.2576,-0.4046699,-1.036914,0.06731275,0.01577308,13.69013,-6.386935,18.32384,1008.232
31.566333771,2.969116,-35.06302,1.423551,-1.073279,0.1029575,-0.00231654,13.30272,-6.0297,17.45329,1008.232
31.601100922,-2.422592,-44.80768,6.115985,-1.13273,0.1033828,0.03068784,13.2661,-5.682088,16.14149,1008.232
31.633385658,-11.65667,-55.08067,14.09922,-1.253386,0.02189282,0.07641121,12.87831,-6.054689,15.21792,1008.232
31.665669441,-6.079039,-68.46489,22.08245,-1.329795,0.03385779,0.1017827,12.87831,-6.054689,15.21792,1008.232
31.700436592,-8.248116,-76.68328,38.1708,-1.313326,0.01691651,0.0866643,13.1552,-5.004573,12.14847,1008.232
31.732720852,-12.58627,-92.12211,45.3618,-1.340889,-0.01199581,0.003407866,12.00761,-5.385296,9.991004,1008.232
31.767488003,-18.84561,-109.0285,56.57489,-1.197885,0.04262158,0.005827406,12.00761,-5.385296,9.991004,1008.232
31.799771786,-25.41482,-108.148,47.49472,-1.006716,0.1884655,0.04105224,10.45824,-5.050707,6.460388,1008.231
31.834538937,-19.46535,-69.69765,4.531527,-0.6403649,-0.1961944,-0.1088899,8.9339,-4.33953,3.858857,1008.229
31.866823673,77.46146,5.441899,-7.230029,-0.4821173,-0.1493234,-0.4062792,8.9339,-4.33953,3.858857,1008.233
31.899107456,21.62319,50.76044,-37.76132,-0.3632102,-0.0582781,-0.2010398,7.792608,-2.528328,2.047171,1008.233
31.933874607,-6.326934,102.4776,-60.06562,-0.6271074,-0.1171813,-0.2235276,7.502794,-2.125211,4.724678,1008.233
31.966159344,-4.219829,126.1935,-68.10979,-0.8925044,-0.07953535,-0.02839917,7.502794,-2.125211,4.724678,1008.227
32.000926495,12.57503,152.0227,-72.00999,-1.114175,0.0313693,0.04184091,9.036475,-1.372692,7.743472,1008.225
32.033210278,25.34161,160.3585,-80.72452,-1.174049,0.01933718,0.1120002,11.00391,0.8685141,13.41489,1008.224
32.067977905,46.41265,146.7395,-78.04313,-1.301737,0.09116039,0.2799535,11.00391,0.8685141,13.41489,1008.224
32.100261688,64.26106,113.7485,-68.59731,-1.316019,0.2894231,0.5349169,12.27043,2.764451,19.97342,1008.224
32.132545471,60.85252,89.32818,-45.98832,-1.078099,0.5530246,0.7220269,13.15086,4.288591,25.67062,1008.222
32.167312622,13.93845,47.94271,-18.93064,-1.229451,0.5486763,0.7092755,13.15086,4.288591,25.67062,1008.222
32.199597359,13.1328,-160.8044,34.45341,-0.3749831,0.8699067,1.673237,13.64388,6.169967,30.49726,1008.225
32.234364510,26.767,-18.21532,3.00801,-1.095917,-0.752258,-0.5916078,11.89058,5.853566,32.70809,1008.225
32.266648293,-3.22825,-8.940281,67.17857,-0.7082711,0.2053595,0.2043908,11.89058,5.853566,32.70809,1008.225
32.298933029,1.357801,-6.944386,0.3875592,-1.204319,0.340032,0.0945513,9.970812,4.72925,28.82798,1008.225
32.333700180,24.72187,3.798221,18.1213,-0.9139012,-0.2159,0.0196989,9.622667,3.280809,29.28768,1008.225
32.365983963,22.24292,-2.482976,12.33194,-1.045568,0.1886364,-0.1614239,9.622667,3.280809,29.28768,1008.231
32.400751591,-4.219829,-6.474764,9.223961,-1.023354,0.02199065,-0.08942004,9.961473,3.265553,28.41071,1008.231
32.433035374,5.695957,-11.17099,11.35689,-1.03266,-0.08745471,0.03808897,10.32491,2.897049,28.40981,1008.231
32.467802525,5.448062,-6.533467,16.23214,-1.029202,0.06820772,-0.0122779,9.937113,2.524446,27.48624,1008.233
32.500086308,3.774774,-10.52526,10.25995,-1.009018,0.09511352,-0.08661798,9.937113,2.524446,27.48624,1008.233
32.532371044,-1.307067,-8.881578,5.506578,-1.002397,0.0168654,0.09421235,10.65134,2.14632,27.0441,1008.233
32.567138195,3.402932,-1.191514,8.005147,-1.016073,0.0475344,0.01658258,9.926451,1.789781,27.05975,1008.233
32.599421978,0.4281958,-2.659084,8.066088,-1.012251,0.0537104,-0.02061532,9.926451,1.789781,27.05975,1008.233
32.634190083,-1.678909,-7.061792,6.908215,-1.014264,0.07927774,-0.04270379,9.928163,1.790586,27.122,1008.233
32.666473866,-5.769171,-11.05358,8.736436,-1.021862,0.0231412,-0.0367219,10.27724,1.780158,26.61851,1008.233
32.701241017,31.7249,-17.62829,27.81087,-0.9741536,1.076966,0.4477715,10.27724,1.780158,26.61851,1008.233
32.733525276,-5.087461,-12.81466,3.00801,-0.9817013,0.049755,0.07163314,10.26658,1.045492,26.19201,1008.231
32.765809059,9.166482,-12.63856,9.284902,-0.8558043,0.4710009,0.3198273,10.59208,1.753632,24.87008,1008.231
32.800576210,-1.678909,-8.059739,9.528665,-1.01337,0.1253978,9.912974E-05,10.59208,1.753632,24.87008,1008.229
32.832860470,13.93845,-19.03716,3.556476,-1.101377,0.3371738,0.0208305,10.94353,1.379492,24.43346,1008.231
32.867628098,-6.202986,-14.69315,-5.097104,-0.9290857,0.07347403,0.029112,10.54414,1.731093,23.12718,1008.229
32.899911880,8.174904,-25.08355,-2.050069,-1.043501,0.200918,0.03395074,10.54414,1.731093,23.12718,1008.229
32.934679031,-11.84259,-35.29783,-0.4046699,-1.04259,-0.02258608,-0.08963205,10.16937,1.729446,22.69696,1008.229
32.966963768,-11.22285,-46.86228,10.01619,-1.095233,-0.02051767,-0.005871928,10.84395,2.427157,20.87155,1008.229
32.999247551,-9.921406,-62.77073,22.93562,-1.106445,0.02061231,0.002604556,10.84395,2.427157,20.87155,1008.228
33.034014702,-16.67653,-76.74198,35.73317,-1.461772,0.1268945,-0.1787651,10.80733,2.774771,19.55975,1008.232
33.066298962,-50.20428,-97.75758,55.59984,-1.776006,0.169783,0.0339021,10.37331,2.380436,16.95552,1008.23
33.101066113,-45.86613,-135.3274,85.39985,-3.027269,-0.4131191,-0.2698315,10.37331,2.380436,16.95552,1008.23
33.133349896,-58.01296,-143.3109,73.33359,-1.484232,-0.1881864,-0.1737401,9.514865,1.961112,12.11593,1008.232
33.165634632,-37.43771,-119.6537,74.43052,-0.8652466,0.02630102,-0.0936038,9.344696,2.245938,5.94889,1008.232
33.200401783,-72.32888,-66.76251,35.91599,-0.2273533,0.1218603,0.2908654,9.344696,2.245938,5.94889,1008.232
33.232685566,-0.06759344,35.84994,16.4759,-0.2926463,-0.30397,-0.3621236,7.05647,3.311902,1.984347,1008.232
33.267453194,59.36515,80.05314,-31.48443,-0.3700109,-0.03790201,-0.1801214,5.166043,5.849647,-0.634747,1008.232
33.299737454,-61.97928,109.7567,-39.65049,-0.3917239,0.0032771,-0.0053191,5.166043,5.849647,-0.634747,1008.23
33.334504604,-72.63875,158.2452,-53.97155,-0.612936,-0.0984447,0.01004932,5.555437,4.398865,0.2496548,1008.228
33.366788387,-50.76205,191.0014,-58.11552,-0.9207383,-0.1355682,0.1685861,7.054485,4.405449,1.9705,1008.227
33.399072647,-10.23127,205.2662,-60.79691,-1.108663,-0.193533,0.2160385,7.054485,4.405449,1.9705,1008.225
33.433839798,45.54502,191.7058,-81.57769,-1.404321,-0.07553177,0.3009816,9.000598,5.177322,6.788932,1008.225
33.466123581,80.43619,155.3101,-79.201,-1.766268,0.2551134,0.3587537,11.04497,5.630562,15.16004,1008.225
33.500891686,61.8441,91.26537,-35.87216,-1.816915,0.6463308,0.4630928,13.07498,6.441878,23.02856,1008.227
33.533175469,-12.58627,19.29576,3.495535,-1.15365,0.7135816,1.040722,13.07498,6.441878,23.02856,1008.228
33.567942619,-71.46125,-98.46201,23.97161,-1.422382,0.2286424,0.9679617,14.68427,6.135463,28.73781,1008.23
33.600227356,-23.36969,-70.28468,27.07959,-0.8611047,-0.6428677,0.07420316,14.65963,6.488709,27.86174,1008.23
33.632511139,132.4941,-17.7457,49.262,-1.248441,-0.2424957,-0.5487386,14.65963,6.488709,27.86174,1008.228
33.667278290,5.262141,-68.69971,23.84973,-0.7460461,1.207082,0.6660506,13.12027,7.92248,24.75301,1008.228
33.699562073,-106.6623,-13.16688,0.7532035,-1.201101,-0.4159422,0.066074,13.50231,3.914453,25.23399,1008.23
33.734329701,51.2466,-0.780595,23.66691,-0.9479428,0.03530841,-0.0788712,13.50231,3.914453,25.23399,1008.23
33.766613484,22.49082,-6.944386,-6.437799,-0.9909427,0.2805984,0.08311783,12.69087,4.976534,22.18109,1008.23
33.798897267,-0.7493037,-3.657031,-3.451705,-0.9602439,-0.01638083,0.101184,12.71551,4.623288,23.05716,1008.232
33.833665371,43.31397,5.500602,-1.562543,-0.9919332,0.05771196,0.0006349481,12.71551,4.623288,23.05716,1008.232
33.865949154,39.16174,-1.191514,-3.329824,-1.081454,0.03177595,-0.1516028,13.39378,4.228258,21.30783,1008.233
33.900716305,22.86266,-18.09791,4.897171,-1.009168,-0.04668548,-0.08935767,13.40643,3.869376,21.74818,1008.232
33.933001041,17.22306,-24.37911,5.933164,-1.061208,0.09949976,-0.03330229,13.40643,3.869376,21.74818,1008.232
33.967768192,5.07622,-23.79208,1.850136,-0.9576251,0.0836123,0.04615151,14.12132,3.126733,21.31065,1008.233
34.000051975,-1.307067,-17.8044,0.6922628,-1.009442,0.1080645,0.02271373,13.77185,2.407324,21.76113,1008.232
34.032336235,-18.22588,-18.97846,-5.64557,-1.033183,0.1165961,-0.01006043,13.77185,2.407324,21.76113,1008.232
34.067103386,-27.70785,-28.60571,-4.426756,-1.056685,0.1514854,-0.2621664,13.75854,3.130721,21.31617,1008.232
34.099387169,-29.31916,-30.71901,-17.28525,-0.9922037,0.1953737,0.06813281,13.69558,3.830774,19.06606,1008.232
34.134155273,-47.91126,-32.4801,-15.57891,-1.11472,0.1649612,-0.2348921,13.69558,3.830774,19.06606,1008.232
34.166439056,-73.13454,-47.3906,-8.753547,-0.9315864,0.05895161,-0.1130962,13.64632,4.537268,17.31392,1008.232
34.201206207,-108.8933,-41.69643,2.703306,-1.05183,0.2009362,-0.09655966,13.59705,5.243761,15.56178,1008.23
34.233489990,-165.1035,-46.51006,21.47304,-1.172388,-0.169391,-0.1747888,12.7806,8.127618,12.42355,1008.232
34.265774727,-149.8579,-54.25883,54.38102,-1.35938,0.07684732,-0.4683668,12.7806,8.127618,12.42355,1008.232
34.300541878,-187.0421,-89.774,71.38348,-1.635751,-0.5688769,0.2865892,13.06749,10.27691,9.775974,1008.234
34.332825661,-120.0486,-83.84502,105.0228,-2.007843,-0.8616672,-0.2610428,11.4782,12.7817,4.910483,1008.234
34.367593289,-234.514,-10.05563,67.6661,-0.05792911,-0.9923409,-0.3438219,11.4782,12.7817,4.910483,1008.236
34.399877071,-477.8226,116.7424,-129.4161,0.7162537,-2.285782,-1.68907,10.66043,16.39458,1.763021,1008.234
34.434644222,-318.4263,268.489,-327.8391,-0.7438827,-2.345837,-0.4675151,9.211108,22.97826,2.199971,1008.228
34.466928959,328.7646,188.1837,-256.965,-2.806475,0.1212037,-0.7212182,9.211108,22.97826,2.199971,1008.228
34.499212742,495.4118,89.38688,-74.69138,-1.356291,1.803144,-1.142624,7.988929,36.60043,11.26375,1008.227
34.533979893,-171.3008,-39.05481,-130.1474,-0.161205,0.5838799,0.9121514,15.65915,34.35212,12.91853,1008.229
34.566263676,-744.5572,-36.23708,-152.6346,-0.03602431,-1.749857,0.5858274,15.65915,34.35212,12.91853,1008.221
34.601031304,-541.4075,106.4107,-209.8579,-0.532325,-2.263575,0.06669653,13.86519,30.0035,13.43723,1008.221
34.633315563,-148.0607,120.4407,-243.7409,-1.625626,-2.917925,0.5376519,10.28344,52.18996,29.52881,1008.221
34.665599346,138.4435,178.2629,-199.1933,-2.027438,-1.384922,0.8590524,10.28344,52.18996,29.52881,1008.221
34.700366974,163.3569,109.5219,-273.2971,-2.093565,-1.154551,0.4935749,5.726341,64.72068,36.04172,1008.22
34.732650757,96.92119,38.13934,-256.5994,-1.736039,-0.9778622,0.6364233,2.618742,71.22292,28.96888,1008.22
34.767417908,109.3159,-12.87337,-210.4063,-1.570658,-1.138617,0.1831377,2.618742,71.22292,28.96888,1008.224
34.799702645,195.7072,-96.1139,-171.2824,-1.501598,-1.450502,-0.2316412,-1.235736,76.26379,21.05408,1008.224
34.834469795,294.6791,-205.5946,-104.4914,-1.170162,-1.239152,-0.548773,-3.712605,80.91842,12.62479,1008.222
34.866753578,297.7159,-247.8606,-62.01572,-0.7547591,-1.429858,-1.055463,-3.712605,80.91842,12.62479,1008.218
34.899037838,374.935,-181.4677,5.384697,-0.1895877,-0.9371697,-1.517497,-7.293301,81.17072,1.216421,1008.217
34.933805466,358.512,-189.8035,83.87633,0.2610925,0.1028591,-1.446807,-10.84065,78.15527,-9.154457,1008.215
34.966089249,182.1969,-134.6229,85.88737,1.087525,-0.05821729,-1.268215,-10.84065,78.15527,-9.154457,1008.215
35.000856876,86.69553,-74.39388,86.19208,0.6369967,0.0583407,-0.7638047,-11.0442,70.39821,-16.96285,1008.212
35.033140659,68.72317,29.15782,92.28615,0.3429512,0.0123832,-0.367496,-9.515971,60.93301,-14.68627,1008.21
35.067907810,120.3472,24.75511,36.58634,-0.6131932,-0.3222965,-0.3581529,-9.515388,54.00158,-15.03429,1008.208
35.100191593,206.3667,48.52974,14.95239,-0.3661213,-0.04366698,-0.1709772,-9.515388,54.00158,-15.03429,1008.205
35.132476330,145.1987,40.95708,20.49799,0.5013937,-0.08888803,0.3171028,-8.474337,53.60256,-16.78913,1008.205
35.167243481,-37.25179,85.27768,26.10454,0.6739358,-0.2699438,0.8653713,-8.924125,47.72842,-20.25782,1008.203
35.199527264,6.005825,107.7021,15.56179,0.271679,-0.2386689,0.4380893,-8.924125,47.72842,-20.25782,1008.201
35.234294891,6.93543,46.65125,21.4121,0.03298197,-0.1667941,0.8581539,-8.178537,43.29114,-19.77697,1008.2
35.266579151,-66.06954,-57.9571,-13.20222,0.1939115,-1.529046,3.863335,-7.102192,43.27354,-20.22924,1008.198
35.301346302,-132.0095,-111.9637,-43.36787,-0.5228351,-2.118974,2.604101,-7.102192,43.27354,-20.22924,1008.198
35.333630562,-191.3803,-146.07,-64.02676,0.3602106,-2.593013,1.345463,-7.877671,44.35252,-21.97496,1008.201
35.365914345,127.5362,-56.60694,-26.48729,0.4253362,-1.321342,0.1241352,-7.386006,53.5906,-16.80568,1008.205
35.400681496,242.1255,39.84172,-13.6288,0.6145014,-0.2113951,-0.08654199,-7.386006,53.5906,-16.80568,1008.203
35.432966232,191.0592,93.43737,-42.27094,0.1830444,0.3174165,0.1015848,-8.862797,53.59448,-17.71732,1008.203
35.467733383,-100.5889,75.41562,-30.87502,-0.1191194,0.06177766,0.6054926,-8.563962,42.55482,-20.63367,1008.203
35.500017166,-232.7167,55.80888,-11.86152,-0.2178094,-0.5977243,0.9998254,-8.563962,42.55482,-20.63367,1008.202
35.532300949,-98.97755,49.29287,8.492673,-0.2636636,-0.9697855,1.203754,-7.865764,37.79124,-21.89188,1008.202
35.567068577,59.36515,-0.01745892,-17.58995,-0.3334355,-0.7008714,1.219453,-7.806421,44.75084,-19.36522,1008.202
35.599352837,50.68884,-14.22353,-6.986266,-0.1044041,-0.5318848,0.9114861,-7.806421,44.75084,-19.36522,1008.202
35.634119988,-30.62061,-18.39143,2.947069,0.01351791,-0.5713911,0.7205324,-6.361378,48.07629,-19.42959,1008.206
35.666404247,-75.98533,-16.57164,1.911077,0.03470767,-0.760267,0.6594664,-6.730076,44.73325,-19.81749,1008.206
35.701171398,-68.3006,-11.5232,2.825187,0.1141861,-0.8453132,0.6288384,-6.730076,44.73325,-19.81749,1008.202
35.733455181,-22.68798,-0.4283783,-7.656614,0.1242297,-0.8012745,0.6208487,-7.435738,47.00034,-18.96347,1008.206
35.765739918,20.50766,12.19272,-22.70897,0.04566912,-0.7095881,0.6109037,-7.392038,50.30433,-17.19986,1008.2
35.800507069,27.26279,15.30397,-21.79486,0.03530166,-0.5888208,0.6995986,-7.392038,50.30433,-17.19986,1008.204
35.832790852,21.43727,22.05478,-18.07748,-0.03966476,-0.5641826,0.7506613,-7.042959,50.2939,-17.70335,1008.204
35.867558479,18.46253,20.99814,-16.79772,-0.1654772,-0.5468366,0.6920515,-7.051637,48.46568,-18.116,1008.203
35.899842262,-14.81732,8.142227,-0.5265513,-0.08537465,-0.6234802,0.8558123,-7.051637,48.46568,-18.116,1008.203
35.934609413,-31.73614,13.8364,1.545433,-0.03593152,-0.7005344,0.7813014,-6.676213,48.10281,-17.68117,1008.203
35.966894150,-13.94969,5.148386,2.886128,-0.03402244,-0.6659374,0.8501424,-6.674119,46.94851,-17.66655,1008.201
35.999177933,4.146615,5.383197,8.005147,0.05554656,-0.7165236,0.8409597,-7.039651,48.47132,-17.68027,1008.201
36.033945084,10.28201,10.90126,9.772428,0.06708565,-0.7025925,0.8008887,-7.039651,48.47132,-17.68027,1008.201
36.066228867,16.47937,12.72104,0.3875592,0.006654069,-0.7100471,0.7942084,-7.413752,48.10516,-18.10587,1008.205
36.100996971,28.00647,15.12786,-0.6484327,-0.05579078,-0.6762981,0.810005,-6.687537,47.73266,-18.11228,1008.201
36.133280754,39.90542,17.94559,-1.562543,-0.1332884,-0.6477391,0.7349179,-6.687537,47.73266,-18.11228,1008.201
36.165564537,44.24358,17.24116,-0.9531363,-0.1761177,-0.5385699,0.7129093,-6.67478,47.31303,-17.67117,1008.201
36.200332165,23.35845,16.83024,5.445638,-0.195171,-0.4436526,0.7492646,-5.945257,45.11795,-17.6545,1008.203
36.232615948,-7.380486,13.9538,11.11312,-0.2067796,-0.437836,0.7618921,-5.945257,45.11795,-17.6545,1008.201
36.267383576,-20.27101,7.026875,13.61169,-0.2313465,-0.4858957,0.7379832,-6.341344,43.64698,-18.93771,1008.201
36.299667835,-8.31009,-4.654978,16.65873,-0.2115554,-0.4796282,0.7142877,-6.341344,43.64698,-18.93771,1008.199
36.334434986,11.7074,-11.69931,21.53398,-0.2232033,-0.4720201,0.6843829,-6.341344,43.64698,-18.93771,1008.199
36.366718769,25.27963,-10.99488,21.7168,-0.1719937,-0.472554,0.6262569,-5.968566,44.74217,-18.52134,1008.197
36.399003506,24.22608,-11.58191,22.81374,-0.2050854,-0.3831163,0.6282871,-5.978567,43.64299,-18.94322,1008.196
36.433770657,26.95292,-9.233795,25.98265,-0.1807286,-0.4516946,0.6486325,-5.978567,43.64299,-18.94322,1008.196
