Time (s),Gyroscope X (deg/s),Gyroscope Y (deg/s),Gyroscope Z (deg/s),Accelerometer X (g),Accelerometer Y (g),Accelerometer Z (g),Magnetometer X (uT),Magnetometer Y (uT),Magnetometer Z (uT),Barometer (hPa)
0.000000000,3.224957,-0.03134657,1.405573,-0.1976674,0.7499921,0.6194128,25.4194,-11.29416,-14.73237,1007.895
0.032776356,4.032527,0.3232095,2.688442,-0.1923485,0.7587796,0.6160175,25.4194,-11.29416,-14.73237,1007.895
0.068073273,4.032527,-0.03134657,3.360421,-0.1884786,0.766161,0.6222548,26.14152,-10.92552,-14.30393,1007.897
0.100849628,5.461305,-0.7995514,3.910222,-0.1909346,0.7778227,0.6212804,25.78275,-11.30097,-15.16795,1007.897
0.133625984,5.709788,-0.4449953,2.81062,-0.1778398,0.782235,0.6096901,25.78275,-11.30097,-15.16795,1007.897
0.166401863,2.355266,0.1459315,2.19973,-0.1749433,0.7895713,0.6106349,25.41867,-11.3001,-15.16748,1007.898
0.199178219,1.174972,0.5595802,1.772107,-0.1817199,0.7812619,0.6145143,26.16107,-12.02478,-14.72185,1007.898
0.234476090,1.112851,1.150507,1.222306,-0.187047,0.7753764,0.6150172,26.16107,-12.02478,-14.72185,1007.898
0.267251968,2.044662,0.8550436,1.344483,-0.1826636,0.7690548,0.6111655,25.79627,-12.02985,-15.15649,1007.898
0.300028324,2.541629,0.8550436,1.527751,-0.1899517,0.7709421,0.6111799,25.79023,-11.65947,-14.72711,1007.896
0.332804680,2.355266,0.9732291,1.466662,-0.1875449,0.7797255,0.6106796,25.79023,-11.65947,-14.72711,1007.896
0.365581036,3.659802,0.5595802,1.711018,-0.1870537,0.7757764,0.6025012,25.42012,-11.28821,-14.29726,1007.896
0.400877953,4.529494,-0.2677173,1.466662,-0.180273,0.7836456,0.6053614,25.79169,-11.64758,-13.85688,1007.896
0.433654785,2.66587,0.2050242,0.3670593,-0.1768868,0.7890313,0.6053452,25.79096,-11.65352,-14.292,1007.898
0.466431141,2.293145,0.5595802,-0.610365,-0.1846619,0.7913983,0.6048788,25.79096,-11.65352,-14.292,1007.898
0.499206543,0.6780053,1.032322,-0.610365,-0.174947,0.7900182,0.6048578,25.43292,-12.02303,-14.72091,1007.9
0.534504414,0.7401261,1.800527,-0.793632,-0.1836626,0.7787135,0.6005633,25.80376,-12.38834,-14.71565,1007.901
0.567280769,0.05679758,2.391453,-0.4270979,-0.194833,0.7795944,0.6005884,25.80376,-12.38834,-14.71565,1007.901
0.600056648,0.1189184,2.746009,-0.1827419,-0.197747,0.780571,0.6044447,26.15504,-11.65439,-14.29247,1007.903
0.632833004,0.05679758,2.036897,0.2448813,-0.1943376,0.776216,0.6044433,25.43365,-12.01709,-14.2858,1007.901
0.665609360,1.299213,1.564156,0.2448813,-0.1924087,0.7820833,0.6053926,25.43365,-12.01709,-14.2858,1007.901
0.700906754,1.982542,0.4413949,0.4281483,-0.1948502,0.7853851,0.592878,26.51308,-11.28489,-13.86355,1007.895
0.733683109,2.914353,-0.504088,-0.1216528,-0.1880476,0.78299,0.5904586,25.42688,-11.65265,-14.29153,1007.895
0.766459465,2.231025,-1.154107,-0.2438309,-0.1880533,0.7864361,0.5957484,25.42688,-11.65265,-14.29153,1007.895
0.799235821,2.044662,-1.272293,-0.2438309,-0.1861178,0.7883669,0.5909273,25.42761,-11.64671,-13.85641,1007.901
0.834532738,-0.2538063,-1.095015,-0.06056381,-0.1924474,0.7961267,0.5938188,25.80594,-12.37051,-13.41031,1007.897
0.867309570,-1.496222,-0.8586441,0.1837922,-0.1909816,0.7927464,0.5962273,25.80594,-12.37051,-13.41031,1007.897
0.900085926,-1.123497,-0.6813661,0.4281483,-0.1943594,0.7834511,0.5943238,25.43365,-12.01709,-14.2858,1007.897
0.932861328,-0.8128933,-0.7404588,0.6114154,-0.1919326,0.7844656,0.5972047,25.43437,-12.01114,-13.85069,1007.897
0.965638161,-0.5644102,-1.035922,0.1837922,-0.1963135,0.7898166,0.6015393,25.43437,-12.01114,-13.85069,1007.899
1.000935555,-0.5022894,-1.626849,0.1227032,-0.1880469,0.7850218,0.6024896,25.79169,-11.64758,-13.85688,1007.897
1.033711433,-0.1916855,-1.981405,-0.610365,-0.1812468,0.7841012,0.6019935,25.79241,-11.64163,-13.42177,1007.897
1.066487789,0.7401261,-2.276869,-0.91581,-0.1817386,0.7855147,0.5957348,25.79241,-11.64163,-13.42177,1007.897
1.099264145,-0.1916855,-1.331385,-0.4881869,-0.1841795,0.7903412,0.5923638,25.79772,-12.01796,-14.28627,1007.897
1.134562016,-2.738637,-0.6813661,-0.1827419,-0.1841795,0.7913521,0.5976573,25.79096,-11.65352,-14.292,1007.897
1.167337894,-2.862879,-1.154107,-0.06056381,-0.185121,0.7786746,0.5967159,25.79096,-11.65352,-14.292,1007.899
1.200114250,-0.1295647,-1.86322,0.2448813,-0.1880372,0.7801214,0.5981647,25.07705,-12.37471,-13.84448,1007.899
1.232890606,0.5537637,-1.626849,0.3059703,-0.1851435,0.7884251,0.5981453,25.42616,-11.65859,-14.72664,1007.899
1.265666485,-1.247739,-0.9177368,0.3059703,-0.1870972,0.7937863,0.6010301,25.42616,-11.65859,-14.72664,1007.899
1.300964356,-2.676517,-0.5631807,-0.1827419,-0.1812371,0.7812225,0.6082556,26.16856,-12.38327,-14.28101,1007.899
1.333740711,-1.806826,-0.6222734,-0.4270979,-0.1841477,0.7807379,0.612114,25.79772,-12.01796,-14.28627,1007.899
1.366516113,-1.868947,-0.32681,-0.793632,-0.1783182,0.7793121,0.6101769,25.79772,-12.01796,-14.28627,1007.901
1.399292946,-0.8750141,-0.2086246,-0.732543,-0.1768509,0.7739334,0.605368,25.79023,-11.65947,-14.72711,1007.896
1.434590340,0.5537637,-0.504088,-0.4270979,-0.177822,0.7739253,0.6053703,25.43292,-12.02303,-14.72091,1007.895
1.467366219,0.2431599,-0.3859026,-0.4881869,-0.1754239,0.786615,0.6063082,25.4194,-11.29416,-14.73237,1007.895
1.500142574,0.4295222,-0.504088,-0.4270979,-0.182719,0.7904136,0.6010247,25.4194,-11.29416,-14.73237,1007.899
1.532918930,-0.9371349,0.02774611,-0.671454,-0.1861167,0.7914162,0.6092144,25.05469,-11.29838,-15.10485,1007.899
1.565695286,-2.738637,0.6186729,-0.854721,-0.1841563,0.7836333,0.6082588,25.42688,-11.65265,-14.29153,1007.893
1.600992680,-1.30986,0.4413949,-0.4881869,-0.1792795,0.7744069,0.6063358,25.42688,-11.65265,-14.29153,1007.897
1.633769035,0.1189184,0.2050242,-0.1827419,-0.188504,0.7733391,0.6039524,25.43292,-12.02303,-14.72091,1007.897
1.666545391,-0.1916855,0.2050242,0.1227032,-0.1899724,0.778701,0.6063547,25.43292,-12.02303,-14.72091,1007.899
1.699321270,-1.682584,-0.2086246,-0.1216528,-0.1802466,0.7724407,0.6048969,25.43292,-12.02303,-14.72091,1007.899
1.734619141,-0.7507725,-0.32681,-0.4270979,-0.1787897,0.7724562,0.6053748,25.7842,-11.28909,-14.29773,1007.899
1.767395497,-1.061376,-0.1495319,-0.610365,-0.1802552,0.7773578,0.6116285,25.43292,-12.02303,-14.72091,1007.897
1.800170898,-1.682584,0.2050242,-0.671454,-0.1836655,0.7816994,0.6097047,25.43292,-12.02303,-14.72091,1007.893
1.832947731,-1.931067,0.4413949,-0.732543,-0.1846275,0.7788025,0.6145249,26.14693,-11.301,-15.10626,1007.893
1.865724087,-0.7507725,0.02774611,-1.099077,-0.181712,0.7788603,0.6193315,25.05532,-11.29328,-14.7319,1007.897
1.901021004,-1.434101,-0.8586441,-0.91581,-0.1948286,0.7842087,0.6337954,25.05532,-11.29328,-14.7319,1007.897
1.933797359,6.455238,-4.640576,2.321908,-0.1958053,0.7876499,0.6395689,25.05532,-11.29328,-14.7319,1007.899
1.966573715,21.3021,-10.96349,11.60744,-0.2204882,0.7765917,0.7599846,25.41201,-10.93481,-15.11105,1007.899
1.999350071,121.2544,-21.60017,19.36574,-0.2721879,0.6478173,0.6539204,25.41201,-10.93481,-15.11105,1007.899
2.034647465,253.6959,-50.4374,43.00719,-0.36883,0.8286189,0.5056176,25.80376,-12.38834,-14.71565,1007.899
2.067423821,387.2556,-82.87929,96.88771,-0.2318789,1.353346,0.08716131,24.73471,-13.45526,-12.9566,1007.901
2.100200176,231.084,-63.31961,123.828,0.06875121,1.969023,0.2241525,24.73471,-13.45526,-12.9566,1007.901
2.132976055,14.28246,-26.09122,159.6261,0.1984023,1.529223,0.06806529,23.30457,-17.77816,-9.467151,1007.901
2.165752411,-39.26565,-20.35923,174.1653,0.2066943,1.110145,0.09611486,20.12043,-22.53986,-7.274076,1007.901
2.201050282,-24.91575,-20.00467,176.4256,0.3559119,0.8222616,-0.01933198,20.12043,-22.53986,-7.274076,1007.901
2.233825684,1.609817,-0.6222734,169.0949,0.4544056,0.630455,-0.1251761,15.47459,-27.27214,-7.62859,1007.901
2.266602516,25.15359,21.89204,149.4854,0.4158315,0.5010201,-0.2019074,9.277231,-30.18454,-8.444907,1007.899
2.299378872,35.652,48.0701,124.0112,0.4627122,0.581831,-0.2637547,9.277231,-30.18454,-8.444907,1007.897
2.334675789,16.14608,84.353,94.44415,0.442836,0.5518574,-0.3479007,4.222569,-32.41375,-7.967882,1007.897
2.367452145,51.67916,124.5951,71.29141,0.5119072,0.4795558,-0.4625196,-0.17854,-33.84899,-7.069022,1007.897
2.400228500,103.2394,184.9878,47.22234,0.4999472,0.6019583,-0.4958897,-3.426738,-35.287,-6.17165,1007.891
2.433004856,139.8907,240.4759,24.37504,0.3847486,0.6895587,-0.2969461,-3.426738,-35.287,-6.17165,1007.889
2.465780735,72.92447,268.8995,1.772107,0.3110307,0.7797502,0.3649652,-4.143875,-35.61487,-3.616469,1007.889
2.501078606,-208.7933,-1.86322,-6.47491,-3.548745,0.4117265,0.7588013,-4.121411,-36.69035,-2.293944,1007.891
2.533854962,12.41883,-127.5534,-24.49617,0.6909883,1.749436,0.6066529,-4.121411,-36.69035,-2.293944,1007.891
2.566630840,-147.2316,-31.94139,-14.11104,0.7799832,1.182536,0.08164924,-3.014307,-37.4108,-1.475828,1007.891
2.599407196,-132.4468,-60.48316,-35.06457,0.4833199,0.5606043,0.09099203,-1.938401,-36.70748,-3.166986,1007.891
2.634705067,-51.87617,-62.37412,-70.25184,0.2745436,0.1586072,0.1748873,-1.938401,-36.70748,-3.166986,1007.891
2.667480469,57.767,-114.1393,-87.96765,0.148633,0.6547801,0.3087381,-1.580033,-36.75505,-6.586191,1007.891
2.700257301,-55.16857,-133.4626,-103.9119,0.1813409,1.200754,0.3396075,0.5781131,-35.2966,-6.176819,1007.891
2.733033657,-226.684,-116.9758,-130.8522,0.242078,0.9488463,0.1809937,0.5781131,-35.2966,-6.176819,1007.891
2.765810013,-213.2659,-84.29751,-167.139,0.38135,0.5541854,0.06091777,3.527494,-34.24013,-8.373404,1007.889
2.801106930,-87.90623,-44.88269,-182.7778,0.3825658,0.6625686,0.09685367,6.746896,-31.77844,-14.38499,1007.889
2.833883285,-33.98539,-5.82243,-172.0872,0.3340474,1.072901,0.1902158,6.746896,-31.77844,-14.38499,1007.891
2.866659641,-43.42775,26.38308,-147.224,0.2900148,1.026958,0.2900314,10.67272,-27.74736,-16.56754,1007.891
2.899435520,-43.73835,43.22449,-111.0593,0.2030212,1.262424,0.2869947,15.04147,-24.47804,-16.62483,1007.891
2.934733391,-104.9894,81.04382,-94.56527,0.08849031,1.022533,0.2462308,15.04147,-24.47804,-16.62483,1007.893
2.967509747,-60.57308,95.93517,-88.39528,-0.01002419,0.6033587,0.3188191,18.25201,-20.82964,-15.81614,1007.893
3.000285625,-45.66409,76.19821,-77.46034,-0.1368412,1.284389,0.4923464,19.99149,-16.38898,-15.08014,1007.893
3.033061981,-81.19718,41.5699,-6.291643,0.002168994,1.471097,1.750978,19.99149,-16.38898,-15.08014,1007.895
3.065838337,11.54914,-21.24562,-1.5267,-0.2550728,0.4124469,0.7548391,22.48884,-13.45582,-13.38882,1007.895
3.101135254,112.9924,-27.27307,-1.5267,-0.09090409,0.5367664,0.4351195,23.17425,-11.28878,-14.72947,1007.896
3.133912087,33.22929,-5.645152,-7.207979,-0.411471,0.7892433,0.497595,23.17425,-11.28878,-14.72947,1007.896
3.166688442,10.67945,-12.61809,-11.72857,-0.3587124,0.8633264,0.511799,23.18247,-11.64132,-13.85352,1007.898
3.199463844,35.90049,-20.95016,-18.81489,-0.3160863,0.9140877,0.5462795,23.19744,-12.35831,-12.97184,1007.898
3.232240677,55.09581,-21.60017,-10.07916,-0.1334081,0.8662305,0.5184807,23.19744,-12.35831,-12.97184,1007.898
3.267538071,21.23998,-5.999708,-7.75778,-0.08151414,0.8823642,0.4649021,23.19068,-11.99387,-12.97757,1007.9
3.300314426,-14.35522,4.577882,-7.14689,-0.1397308,0.8680355,0.5054962,23.19141,-11.98793,-12.54245,1007.9
3.333090305,3.846165,5.168809,-6.963623,-0.2076657,0.8479605,0.5018367,23.19141,-11.98793,-12.54245,1007.902
3.365866661,14.15821,7.296146,-5.497486,-0.1962068,0.9293677,0.4983173,23.19744,-12.35831,-12.97184,1007.903
3.401164532,-10.62798,12.20084,-5.069863,-0.1766972,0.8884588,0.4752273,23.6222,-12.35933,-12.97238,1007.903
3.433940411,-14.72795,15.7464,-7.391246,-0.1784786,0.8217567,0.480627,23.1989,-12.34642,-12.10161,1007.905
3.466716766,-8.702231,16.92825,-9.59045,-0.1925752,0.8335255,0.5090431,23.1989,-12.34642,-12.10161,1007.905
3.499493122,-2.17955,18.1692,-10.62896,-0.2056872,0.836422,0.5211039,23.61689,-11.983,-12.10789,1007.905
3.532269001,-0.5644102,19.11468,-12.70599,-0.2226511,0.816558,0.486516,23.62365,-12.34744,-12.10216,1007.905
3.567566872,2.168904,26.14671,-18.14291,-0.2250967,0.8258582,0.496135,23.62365,-12.34744,-12.10216,1007.905
3.600343228,4.964339,24.78758,-23.64092,-0.2604911,0.8061718,0.5092454,24.70236,-11.62119,-12.11503,1007.905
3.633118630,19.43848,25.31941,-27.123,-0.2498349,0.811404,0.4784051,24.32539,-10.88634,-11.75307,1007.905
3.665895462,8.505223,29.21953,-33.2319,-0.2746868,0.8456858,0.4654156,24.32539,-10.88634,-11.75307,1007.905
3.701192856,9.250672,35.60154,-39.27971,-0.3192176,0.7843846,0.4583932,25.4198,-10.87113,-10.44914,1007.905
3.733968735,16.58092,42.69266,-46.5493,-0.3862735,0.8068229,0.473922,26.13588,-10.13211,-9.591318,1007.905
3.766745091,16.58092,50.78836,-45.63297,-0.3970289,0.8333762,0.4532089,26.13588,-10.13211,-9.591318,1007.905
3.799521446,24.09754,61.95688,-49.17613,-0.3924905,0.7577496,0.4282813,27.56046,-8.296436,-8.378671,1007.905
3.832298279,24.40814,67.57069,-54.97959,-0.3775425,0.799679,0.41663,28.26263,-6.761863,-7.098151,1007.905
3.867595196,25.15359,76.73005,-56.69008,-0.3978631,0.7658002,0.401807,28.26263,-6.761863,-7.098151,1007.905
3.900371551,22.4824,81.22109,-55.71266,-0.4946415,0.8171945,0.3446771,29.3381,-5.6423,-5.003351,1007.9
3.933147907,32.60809,76.3755,-53.2691,-0.5491205,0.8490902,0.3043238,30.05626,-4.8863,-2.902351,1007.9
3.965923786,27.14146,64.02512,-50.39791,-0.5885967,0.912663,0.3187625,30.05626,-4.8863,-2.902351,1007.905
4.001221657,28.69448,55.51577,-47.03802,-0.5507352,0.6940706,0.2159907,30.7557,-3.024253,0.1138415,1007.9
4.033998013,75.16081,59.82954,-30.11636,-0.8610368,1.149237,0.4177313,31.8162,-1.187704,1.326958,1007.902
4.066773415,-120.8924,36.07428,-33.29299,-0.7044047,0.5285675,-0.07654464,31.8162,-1.187704,1.326958,1007.902
4.099550247,111.1287,48.77921,-36.40853,-1.169999,0.5272247,0.08004154,32.16352,-0.06639528,3.422698,1007.902
4.132326603,-11.55979,40.21077,-41.29565,-0.7302921,0.8335839,0.1131949,32.89521,-0.0392704,5.535158,1007.902
4.167623520,35.52776,30.22411,-42.88396,-0.8539801,0.5664026,0.08115838,32.89521,-0.0392704,5.535158,1007.906
4.200399876,43.47922,19.8238,-46.97693,-0.8399575,0.5751944,-0.0021637,33.60516,1.069277,6.760204,1007.906
4.233176231,38.19896,18.11011,-49.42049,-0.8371574,0.6093087,-0.07250057,33.97069,1.080292,7.629957,1007.906
4.265952587,35.71413,15.03729,-46.67148,-0.8275725,0.6665125,-0.05239233,33.97069,1.080292,7.629957,1007.904
4.301249981,13.97185,8.537092,-44.8999,-0.805061,0.5977151,-0.02731122,33.93834,2.914366,8.471531,1007.904
4.334026337,4.405252,3.218751,-45.87732,-0.8030847,0.5846251,-0.02103848,34.65442,3.653382,9.329355,1007.904
4.366802692,4.21889,0.6777656,-47.52673,-0.8258178,0.5484417,-0.01419096,34.65442,3.653382,9.329355,1007.904
4.399578571,-31.06571,-2.926888,-50.76445,-0.8780513,0.6835842,0.08200159,35.07845,3.64642,8.893695,1007.907
4.432354927,-90.70166,9.955317,-48.13762,-0.8865061,0.7339247,-0.09278854,35.77916,5.169107,9.303992,1007.905
4.467652798,-107.7228,24.49212,-48.8096,-0.8524842,0.5316666,-0.0131397,35.77312,5.539487,9.733374,1007.905
4.500428200,-77.15933,25.49669,-50.88662,-0.8793671,0.4014036,-0.01287961,35.77312,5.539487,9.733374,1007.905
4.533205032,-44.29744,17.3419,-55.4683,-0.9516641,0.3905106,0.04844122,36.49659,5.919162,10.96988,1007.903
4.565981388,-13.67189,7.059775,-62.31027,-0.9719124,0.32695,0.03751373,35.76917,5.926851,11.40593,1007.902
4.601278305,32.48384,-5.586059,-64.3262,-1.035384,0.2603761,-0.004595223,35.76917,5.926851,11.40593,1007.902
4.634054661,67.20936,-26.2685,-58.58384,-1.210557,0.2056871,-0.02431451,36.84788,6.653107,11.39306,1007.902
4.666831017,98.76671,-52.62384,-29.20003,-1.167024,0.2716094,-0.05195474,36.08519,8.471094,10.93024,1007.902
4.699606896,91.12585,-62.49231,-5.802931,-0.9563253,0.3010731,0.009596775,36.08519,8.471094,10.93024,1007.902
4.732383251,73.04871,-65.56513,6.292694,-0.8925579,0.2389146,0.02927504,36.76176,10.98559,8.340678,1007.895
4.767681122,71.74417,-69.28796,12.9514,-0.8545696,0.1950485,0.04898689,37.83548,11.67109,5.344186,1007.894
4.800457478,83.67136,-69.70161,15.7004,-0.8418868,0.1713096,0.05188076,37.83548,11.67109,5.344186,1007.892
4.833233356,96.96521,-69.93799,18.87703,-0.8030756,0.1867584,0.05561631,38.20072,11.25993,1.99287,1007.892
4.866009712,97.08945,-65.62422,20.1599,-0.8052629,0.2975751,0.0954075,39.30222,10.49362,-0.5455906,1007.896
4.901307583,68.63813,-59.12403,13.44011,-0.8826255,0.3727648,0.1450579,39.30222,10.49362,-0.5455906,1007.892
4.934082985,43.23074,-56.76032,11.60744,-0.8554093,0.371355,0.1897621,38.94668,9.724863,-3.517284,1007.892
4.966859817,26.89297,-52.32837,10.01912,-0.8543081,0.3193484,0.2037974,39.32814,8.606903,-5.241011,1007.892
4.999636173,25.15359,-44.8236,10.50784,-0.8701609,0.2451096,0.1928756,39.32814,8.606903,-5.241011,1007.892
5.032411575,25.09147,-32.41414,9.530412,-0.9012582,0.2591717,0.2213285,39.32991,8.20171,-8.218904,1007.89
5.067709446,9.250672,-18.52736,7.758831,-0.9435886,0.3084944,0.291152,38.97728,7.456726,-9.45015,1007.888
5.100485802,-11.74615,-10.0771,7.636652,-0.8978903,0.2930644,0.3286131,38.97728,7.456726,-9.45015,1007.887
5.133261681,-24.04606,-4.699669,3.849133,-0.8302751,0.2445082,0.3386345,39.3527,6.709147,-10.74449,1007.885
5.166038036,-19.63549,-1.685942,-2.320858,-0.7719334,0.2158364,0.3476852,39.00142,5.975202,-11.16768,1007.885
5.201335907,-3.794691,1.918712,-14.47757,-0.7583343,0.2144854,0.3471736,39.00142,5.975202,-11.16768,1007.885
5.234111786,13.28852,7.82798,-31.39923,-0.7860005,0.2028085,0.3121174,38.62527,6.716836,-10.30844,1007.885
5.266888142,62.42606,8.537092,-43.86139,-0.8426942,0.1546762,0.3224331,38.61851,7.081274,-10.31417,1007.885
5.299664497,103.9849,-1.095015,-42.02872,-0.9064199,0.430133,0.4391399,38.61851,7.081274,-10.31417,1007.885
5.332440853,108.1469,-7.477025,-29.93309,-0.8702977,0.5763476,0.5505098,38.96303,8.179655,-9.896722,1007.885
5.367737770,123.1802,-12.44081,-11.05659,-0.8095971,0.5708658,0.5296755,37.85582,8.89926,-10.777,1007.887
5.400514603,118.7696,-18.35008,7.392296,-0.7886246,0.7285627,0.4894351,37.86051,8.517839,-12.01444,1007.887
5.433290959,28.25963,-13.79994,2.321908,-1.000816,0.9233006,0.4530614,37.86051,8.517839,-12.01444,1007.887
5.466066361,-62.74731,-9.781639,-8.857382,-1.080349,0.6453832,0.2948195,37.13839,8.149204,-12.44288,1007.887
5.501364231,-82.19111,-13.09083,-14.35539,-1.036134,0.4062611,0.1737719,37.50309,8.153427,-12.0704,1007.887
5.534140587,-70.20181,-12.4999,-8.613026,-0.8654892,0.3084417,0.1196021,37.50309,8.153427,-12.0704,1007.887
5.566916466,-66.78516,-4.936039,-3.176104,-0.825471,0.2164581,0.08113684,37.48218,9.241642,-12.46054,1007.887
5.599692822,-70.51241,-2.631425,3.299332,-0.8332342,0.2154761,0.08933988,37.82805,10.35106,-11.23503,1007.887
5.632469177,-51.00648,-0.504088,6.353783,-0.8982109,0.1718773,0.06115937,37.82805,10.35106,-11.23503,1007.887
5.667766571,1.237092,-7.713396,6.842495,-0.9367537,0.2474966,0.05584183,38.19286,10.35613,-10.80039,1007.887
5.700542927,21.36422,-8.895249,13.07358,-0.9281041,0.2926237,0.09137407,38.1861,10.72057,-10.80612,1007.887
5.733319283,48.82161,-12.26353,14.29535,-0.9123603,0.2005011,0.06211251,38.1861,10.72057,-10.80612,1007.887
5.766095638,92.36827,-15.80909,11.54635,-0.9017258,0.2200445,0.05820693,38.19286,10.35613,-10.80039,1007.887
5.798871517,112.806,-19.05919,6.475961,-0.9057973,0.2984133,0.05665439,38.57577,9.250063,-11.65389,1007.887
5.834169388,125.1059,-18.46826,4.826558,-0.8289899,0.2539524,0.01417939,38.57577,9.250063,-11.65389,1007.887
5.866945744,151.8179,-14.50905,4.215668,-0.7560825,0.2183092,-0.0162656,38.59397,8.139771,-12.87988,1007.887
5.899721146,151.1966,-5.17241,0.3059703,-0.7592682,0.3403094,0.02206702,37.89068,6.665935,-14.16135,1007.887
5.932497978,111.4393,6.705219,-1.343433,-0.7638201,0.42128,0.04506114,37.89068,6.665935,-14.16135,1007.887
5.967795372,39.50349,22.30569,-6.47491,-0.8343184,0.47332,0.1192796,38.63839,5.564936,-14.58021,1007.885
6.000571251,-8.515869,23.42845,-3.237193,-0.7520149,0.3611132,0.06341556,38.67406,3.687954,-14.11549,1007.887
6.033347607,-14.72795,33.65148,-4.64224,-0.6435003,0.2621092,0.05368017,38.67406,3.687954,-14.11549,1007.887
6.066123962,-5.720435,35.18789,-6.719266,-0.695493,0.2813041,0.07495447,39.02493,4.488584,-13.25816,1007.887
6.098899841,13.90973,33.23783,-5.986198,-0.693557,0.2781906,0.04511015,39.01348,5.23444,-12.02644,1007.881
6.134197712,27.20358,26.2058,-18.63163,-0.7155527,0.3312999,0.004647888,39.01348,5.23444,-12.02644,1007.882
6.166974068,20.05969,17.81464,-28.83349,-0.66859,0.3962215,0.0390967,39.3655,5.974329,-11.16815,1007.888
6.199749947,20.18393,13.61906,-43.2505,-0.7362322,0.4635526,0.06755599,39.72499,6.355726,-9.869012,1007.884
6.232526302,7.946136,-3.636,-52.96365,-0.794591,0.5050913,0.087849,39.72499,6.355726,-9.869012,1007.884
6.267824173,-1.868947,-22.60475,-53.14692,-0.8970451,0.4971737,0.05296453,40.41861,8.170221,-10.33371,1007.886
6.300600529,9.747639,-32.41414,-44.59446,-0.990602,0.4246047,0.02537683,40.74889,9.991533,-10.36283,1007.888
6.333375931,43.60346,-42.16443,-31.15487,-0.9821793,0.342438,-0.03420816,40.74889,9.991533,-10.36283,1007.889
6.366152763,67.9548,-43.52356,-16.37133,-1.051293,0.4095292,-0.03847761,41.06948,12.15351,-12.13813,1007.893
6.398929119,76.83807,-39.978,5.742893,-1.142532,0.3898037,-0.03389922,40.30545,13.96045,-13.40902,1007.893
6.434226036,91.06374,-33.18234,22.90891,-1.125757,0.2804442,-0.02174014,40.30796,13.5612,-15.9518,1007.895
6.467002392,111.5015,-22.1911,34.51582,-1.171595,0.3603725,-0.02897231,40.30796,13.5612,-15.9518,1007.896
6.499778748,105.3515,-17.3455,45.7562,-1.233038,0.4769995,0.007099772,40.70366,11.72032,-17.22895,1007.9
6.532554627,83.05016,-9.249805,43.31264,-1.269341,0.4279696,0.003890243,41.12579,8.416582,-18.85614,1007.903
6.600628853,99.6364,-12.4999,35.67651,-1.117655,0.3660223,0.08834349,41.55071,5.135777,-18.80504,1007.905
6.633404732,95.72279,-11.43623,26.63534,-1.133552,0.5234367,0.1218393,41.25465,1.425596,-19.18143,1007.911
6.666181088,55.6549,-15.75,15.76149,-1.137033,0.5519353,0.09196015,41.25465,1.425596,-19.18143,1007.913
6.698957443,33.5399,-11.43623,9.65259,-1.095672,0.4920187,-0.02935081,41.30801,-1.495843,-19.5707,1007.914
6.734254360,-3.73257,-4.876947,9.896946,-1.085151,0.556258,-0.04920841,40.97629,-3.329044,-20.4118,1007.916
6.767030716,-34.48235,1.327785,12.09615,-1.077307,0.5342645,0.0003863907,40.97629,-3.329044,-20.4118,1007.916
6.799807548,-28.39452,2.391453,14.11209,-1.008129,0.4368637,-0.01166493,40.99199,-4.040086,-19.09501,1007.92
6.832583904,-23.05213,4.814253,15.02842,-0.9431919,0.4919603,-0.01093927,40.99126,-4.04603,-19.53012,1007.919
6.867880821,-41.99897,8.123444,6.781406,-1.018872,0.4535092,-0.05643118,40.99126,-4.04603,-19.53012,1007.921
6.900657177,-11.24918,-7.063376,0.06161422,-1.015119,0.3201677,0.02462966,40.63322,-4.415538,-19.95903,1007.927
6.933433533,26.20964,-11.19986,3.543688,-0.9902687,0.4626334,-0.1094626,41.71869,-4.053719,-19.96617,1007.927
6.966209412,-0.3780479,-9.722547,-2.992837,-0.9778249,0.5947837,0.1791258,41.71869,-4.053719,-19.96617,1007.926
6.998985767,22.66876,-14.50905,-2.931748,-0.964509,0.2773642,0.04190316,40.99054,-4.051974,-19.96523,1007.928
7.034283638,79.75775,-14.39087,-0.4270979,-0.9919314,0.5674978,-0.01575113,41.00333,-4.786792,-20.38888,1007.929
7.067059517,6.952204,-3.813278,-2.687392,-1.017197,0.5705658,-0.03446894,41.00333,-4.786792,-20.38888,1007.931
7.099835873,31.61415,-0.504088,-1.282344,-1.112894,0.3782282,-0.05320654,39.90507,-4.413793,-19.95809,1007.933
7.132612228,43.4171,1.268692,-5.130952,-1.118579,0.5167619,-0.0856531,39.56127,-5.506231,-19.94043,1007.933
7.200685501,4.715856,8.300721,-13.01144,-1.051843,0.6307514,-0.09272224,40.66026,-5.873286,-19.93611,1007.933
7.233462334,9.499156,9.068926,-15.63826,-1.077226,0.4829876,-0.08955117,40.66776,-6.231779,-19.49527,1007.935
7.266238689,37.76411,6.173385,-15.21064,-1.090012,0.5591665,-0.04535037,40.66776,-6.231779,-19.49527,1007.936
7.299014092,13.10216,4.223326,-16.98222,-1.063622,0.6989065,-0.01289098,40.66172,-5.861399,-19.06589,1007.936
7.334311962,2.541629,7.82798,-13.7445,-1.078126,0.4643973,-0.03031352,40.29015,-5.502033,-19.50626,1007.938
7.367088318,15.46275,6.173385,-16.12698,-1.158227,0.4630025,0.005499342,40.28412,-5.131652,-19.07688,1007.94
7.399864197,0.491643,3.277843,-18.32618,-1.129278,0.5356117,-0.02356046,40.28412,-5.131652,-19.07688,1007.94
7.432640553,-2.490154,6.409756,-15.21064,-1.127059,0.4035716,-0.1037541,40.2706,-4.402778,-19.08834,1007.938
7.467938423,6.6416,7.473424,-17.95965,-1.109079,0.3897868,-0.1466172,40.99875,-4.404523,-19.08928,1007.938
7.500714302,-9.944647,9.187112,-19.18143,-1.076711,0.4693114,-0.09578948,40.99875,-4.404523,-19.08928,1007.94
7.533490658,-21.80972,12.55539,-19.60905,-1.03776,0.4157312,-0.1434559,40.62854,-4.034119,-18.72158,1007.94
7.566267014,-7.087091,14.03271,-13.62232,-1.005468,0.3132259,-0.1448221,39.87479,-2.562737,-17.87334,1007.938
7.599042893,33.91262,10.84171,-5.069863,-0.9913744,0.3135409,-0.1164557,39.87479,-2.562737,-17.87334,1007.938
7.634340286,22.91724,11.31445,1.955374,-0.8964194,0.4150106,-0.06677219,39.51144,-2.555921,-17.43776,1007.938
7.667117119,-9.882526,7.768887,2.993887,-0.9056498,0.4138491,-0.08263349,39.87552,-2.556794,-17.43823,1007.938
7.699892521,-3.918932,10.78261,9.65259,-0.8140121,0.2599756,-0.1182397,39.87552,-2.556794,-17.43823,1007.938
7.732668877,12.66732,16.98735,16.92218,-0.7753887,0.3623996,-0.07371903,39.88373,-2.909343,-16.56227,1007.936
7.767966747,-27.02786,13.79634,19.97663,-0.7515965,0.363599,-0.06992637,39.53463,-3.625457,-15.68012,1007.935
7.800742626,-16.65369,14.38727,27.97929,-0.7868379,0.2619464,-0.1476702,39.53463,-3.625457,-15.68012,1007.933
7.833518982,5.585547,15.15547,34.21038,-0.8204787,0.3206506,-0.1399771,39.17939,-3.972039,-14.43075,1007.933
7.866295338,-3.484087,16.81007,40.31928,-0.7531225,0.3827063,-0.1219386,39.93532,-5.425588,-13.97365,1007.929
7.899071693,-19.63549,19.46924,37.69245,-0.8418511,0.3173258,-0.1721726,39.93532,-5.425588,-13.97365,1007.928
7.934369087,-13.54765,19.23287,47.10016,-0.7911572,0.4465572,-0.1392737,39.23421,-6.881591,-13.94979,1007.926
7.967145443,-9.882526,21.30111,62.86113,-0.8057907,0.471664,-0.1532363,39.62791,-8.389063,-13.05617,1007.926
7.999921799,-6.217401,19.17378,69.33656,-0.8076605,0.4424731,-0.1464488,39.62791,-8.389063,-13.05617,1007.926
8.032697678,-2.925,23.72391,79.53843,-0.7704844,0.5248247,-0.18517,38.56345,-9.838249,-12.59673,1007.928
8.067995071,-27.52483,28.45133,89.7403,-0.7210094,0.5521918,-0.1612605,37.87118,-11.64171,-11.32396,1007.925
8.100771904,-7.335575,28.86497,94.68851,-0.6871763,0.4055716,-0.2049237,37.87118,-11.64171,-11.32396,1007.921
8.133547306,23.66269,29.4559,96.09355,-0.5981588,0.5370795,-0.2409538,38.29007,-14.55213,-10.84348,1007.918
8.166323662,-5.906797,35.60154,91.63406,-0.5479871,0.6904892,-0.1623607,36.18216,-18.53787,-9.472293,1007.918
8.199100494,-9.012836,38.61526,81.18784,-0.497659,0.5488335,-0.2123282,36.18216,-18.53787,-9.472293,1007.916
8.234397411,16.2082,50.13834,63.53311,-0.382632,0.807082,-0.05365952,35.14649,-21.50045,-8.616023,1007.914
8.267173767,-32.18388,76.67096,44.90096,-0.2459022,1.120279,0.06636593,33.32315,-24.38172,-6.392198,1007.914
8.299950123,-83.68201,88.90314,41.60215,-0.4784544,0.8516775,-0.1791349,33.32315,-24.38172,-6.392198,1007.913
8.332726479,-47.83832,71.52989,45.14531,-0.4399083,0.7407477,-0.3489798,32.63088,-26.18517,-5.119431,1007.909
8.368023872,-33.7369,65.97518,44.6566,-0.3837124,0.7922215,-0.3684451,31.91094,-26.53598,-4.242537,1007.909
8.400800228,-15.53552,58.05676,45.93947,-0.3526494,0.792777,-0.3959573,30.83972,-27.62073,-3.788827,1007.907
8.433576584,-17.64762,51.2611,38.48661,-0.2923633,0.763651,-0.3845037,30.83972,-27.62073,-3.788827,1007.904
8.466352463,10.92793,52.20658,28.59018,-0.240584,0.6305114,-0.4022362,29.40587,-28.69272,-2.464422,1007.902
8.499128819,36.58382,52.56114,17.53307,-0.2211909,0.8489156,-0.395391,29.06488,-29.76223,-0.7684743,1007.9
8.534426689,2.790112,58.94315,9.041699,-0.2174776,0.9185024,-0.4085014,29.06488,-29.76223,-0.7684743,1007.9
8.567202091,4.715856,55.98851,5.132003,-0.279104,0.8928616,-0.4497137,27.9901,-30.5263,0.9236381,1007.905
8.599978447,-3.918932,55.39759,1.772107,-0.2728984,0.9417575,-0.4295849,27.27837,-31.22965,2.676485,1007.903
8.632755280,-19.94609,59.17952,1.222306,-0.2606409,0.8967327,-0.4054781,27.27837,-31.22965,2.676485,1007.903
8.665530682,-26.71726,62.13416,-0.06056381,-0.2484646,0.8842819,-0.3896033,28.01537,-31.57885,3.924451,1007.902
8.700828552,-33.23994,63.55238,0.8557714,-0.2445671,0.8789603,-0.3891231,27.27504,-30.83719,4.721995,1007.902
8.733604908,-22.30668,62.25234,3.42151,-0.2586186,0.859611,-0.4232373,27.27504,-30.83719,4.721995,1007.902
8.766380787,-22.55516,61.7796,2.688442,-0.2402814,0.9044476,-0.4411587,27.65337,-31.561,5.168097,1007.9
8.799157143,-37.58839,65.0297,-0.9768991,-0.2227221,0.8694572,-0.4512562,26.92667,-31.54736,6.03926,1007.9
8.834455013,-33.98539,64.67514,-4.397884,-0.2405863,0.8304892,-0.4304566,26.92667,-31.54736,6.03926,1007.898
8.867231369,-15.59764,59.06133,-5.802931,-0.2532831,0.8615869,-0.4256597,26.56259,-31.54649,6.03973,1007.896
8.900007248,-15.10067,51.20201,-7.75778,-0.2271837,0.9164833,-0.4070313,25.48668,-32.24982,7.730887,1007.896
8.932783604,-31.50056,45.94276,-8.674115,-0.2081809,0.8883703,-0.4104035,25.48668,-32.24982,7.730887,1007.896
8.965559959,-21.18851,41.39262,-8.124313,-0.2128216,0.7921814,-0.4396106,25.85149,-32.24475,8.165529,1007.895
9.000856876,-8.143145,35.06971,-8.551937,-0.2070927,0.8346448,-0.4334305,26.20807,-31.88713,7.724218,1007.893
9.033633232,-20.00821,29.75137,-6.597088,-0.2153116,0.8245292,-0.4074022,26.20807,-31.88713,7.724218,1007.893
9.066410065,-21.31275,19.41015,-5.986198,-0.2390486,0.7994421,-0.4145285,25.85076,-32.25069,7.730418,1007.893
9.099185467,-9.447681,3.986956,-8.551937,-0.298896,0.8505686,-0.4144636,25.85752,-32.61513,7.736148,1007.891
9.134483337,1.361334,-14.50905,-13.86668,-0.342252,0.9116571,-0.4024188,25.85752,-32.61513,7.736148,1007.891
9.167259693,3.970407,-24.67299,-16.24915,-0.3394234,0.9603657,-0.3351083,25.49272,-32.6202,7.301506,1007.891
9.200035572,-8.826473,-20.00467,-19.36469,-0.3030394,1.008136,-0.1629391,26.21952,-32.63298,6.492502,1007.889
9.232811928,-44.7944,6.468848,-26.26775,-0.1888919,1.035466,0.05817539,26.21952,-32.63298,6.492502,1007.889
9.265588284,-50.94436,27.32857,-33.72061,-0.2208297,0.9894317,0.06024597,26.5498,-30.81167,6.463382,1007.889
9.300885677,3.659802,25.55579,-39.15753,-0.3061729,0.938011,0.05234274,27.64588,-31.2025,4.727256,1007.889
9.333662033,52.48674,11.13717,-44.41119,-0.3678442,1.137951,0.0228246,27.64588,-31.2025,4.727256,1007.888
9.366438389,24.2839,7.414331,-38.48555,-0.4056668,1.316234,0.001947055,28.35335,-30.04425,5.143283,1007.888
9.399214745,-31.31419,12.55539,-26.45102,-0.3405749,1.099989,-0.006064563,29.07692,-29.66373,6.441948,1007.888
9.434511662,-32.49449,13.50088,-18.32618,-0.2923037,0.8100548,-0.01488794,29.79083,-28.94255,5.994436,1007.886
9.467288017,-23.67334,9.955317,-15.82153,-0.2533879,0.7806669,-0.01541732,29.79083,-28.94255,5.994436,1007.886
9.500064850,-34.85508,7.059775,-17.34876,-0.2587577,0.790783,-0.02504706,30.13462,-27.85011,5.976777,1007.884
9.532840252,-33.92326,8.773463,-18.08183,-0.2592024,0.7681815,-0.05293092,30.85529,-27.49336,5.534995,1007.884
9.565617085,-31.74904,13.91453,-24.61835,-0.2417208,0.7627892,-0.0789578,30.85529,-27.49336,5.534995,1007.882
9.600914478,-23.23849,25.85125,-29.07785,-0.2951993,0.7764623,-0.1496117,31.58875,-27.87143,4.669562,1007.882
9.633690357,0.05679758,31.70142,-32.37665,-0.3630458,0.7087707,-0.2071122,31.20439,-26.77725,4.652842,1007.879
9.666466713,30.18538,29.92864,-29.74983,-0.4081764,0.6901295,-0.2421165,31.20439,-26.77725,4.652842,1007.877
9.699243069,53.97763,26.85582,-23.64092,-0.4505232,0.7285851,-0.2642166,31.91975,-26.04417,5.075554,1007.877
9.734540463,29.25356,26.08762,-21.68608,-0.4833397,0.8461205,-0.2720177,32.27321,-25.29239,6.80407,1007.877
9.767316818,-6.528005,33.76966,-21.31954,-0.4954183,0.8207006,-0.270988,32.27321,-25.29239,6.80407,1007.877
9.800093174,0.3674015,33.71058,-19.8534,-0.5466666,0.7459554,-0.1720747,32.9636,-23.08459,8.447039,1007.877
9.832869530,25.02935,27.0922,-23.64092,-0.5510468,0.7644513,-0.09844382,32.95829,-22.70827,9.311532,1007.877
9.865645409,26.33389,20.11926,-25.59577,-0.4962503,0.790544,-0.1241253,32.95829,-22.70827,9.311532,1007.879
9.900942802,21.55059,10.19169,-25.22924,-0.4462482,0.7781528,-0.2152026,33.29668,-21.24035,10.09621,1007.879
9.933719635,33.5399,2.036897,-21.07519,-0.4661575,0.7683716,-0.2671277,33.28461,-20.49959,10.95497,1007.881
9.966495037,36.8323,-8.186137,-18.57054,-0.4589529,0.795485,-0.2989555,33.28461,-20.49959,10.95497,1007.881
9.999271870,49.50494,-15.33635,-11.23985,-0.4599545,0.7960089,-0.3624937,34.35656,-19.4089,10.93637,1007.876
10.034569263,68.07905,-17.58187,1.283394,-0.4717299,0.8485608,-0.3553245,34.69922,-18.25572,10.91776,1007.876
10.067345142,44.908,-14.74542,7.270118,-0.4693336,0.8541474,-0.3952917,34.69922,-18.25572,10.91776,1007.882
10.100121498,22.42028,-3.104166,9.163877,-0.4545565,0.7484452,-0.485182,34.68642,-17.5209,11.34141,1007.882
10.132897854,43.85195,5.40518,17.04436,-0.4842855,0.7889174,-0.5126101,34.30134,-16.43266,10.88958,1007.882
10.165673733,29.19144,12.31902,23.21435,-0.459157,0.8564399,-0.4280518,34.30134,-16.43266,10.88958,1007.88
10.200971603,-1.185618,19.41015,29.32325,-0.4148062,0.7972459,-0.378969,34.65938,-16.06316,11.31849,1007.88
10.233747959,-7.894662,23.60573,39.6473,-0.3506634,0.7707464,-0.4147019,33.92447,-15.69697,11.3137,1007.881
10.266523838,-2.862879,23.66482,48.38303,-0.3473566,0.8062072,-0.4320922,33.92447,-15.69697,11.3137,1007.883
10.299300194,-18.57944,23.72391,55.65262,-0.3523636,0.8603721,-0.4812609,33.57464,-16.41903,11.76074,1007.883
10.334597588,0.9264885,18.81922,62.49459,-0.377224,0.8990673,-0.4899247,32.85928,-17.1521,11.33803,1007.883
10.367373467,5.647667,13.38269,68.23696,-0.4219427,1.123745,-0.484381,31.77984,-17.8843,10.91578,1007.885
10.400149822,-29.20209,23.60573,74.46804,-0.3955358,1.245567,-0.5072512,31.77984,-17.8843,10.91578,1007.887
10.432926655,-66.72304,30.87413,79.53843,-0.3670628,1.117805,-0.4941294,30.71506,-19.40612,10.50596,1007.888
10.465703011,-57.21856,23.25117,79.59952,-0.2809375,1.039503,-0.5115447,28.92712,-21.23498,9.728892,1007.888
10.500999928,-46.96863,23.19208,77.40031,-0.13002,1.092836,-0.4474805,28.92712,-21.23498,9.728892,1007.89
10.533776283,-51.62769,17.99192,66.09885,-0.1166238,1.002456,-0.2933403,27.15261,-23.79356,8.901129,1007.892
10.566552639,-45.47773,11.13717,50.70441,-0.002884154,0.9390579,-0.3719765,25.35709,-25.26478,7.621063,1007.894
10.599328518,-14.16886,16.04186,45.69511,0.1022687,1.027491,-0.3882442,25.35709,-25.26478,7.621063,1007.894
10.634626389,-10.06889,25.4376,47.22234,0.1160665,1.161073,-0.3157926,23.13899,-26.71714,7.64688,1007.894
10.667402744,-28.20815,23.8421,44.96204,0.08139776,1.058772,-0.2072498,21.70089,-27.82395,6.422773,1007.894
10.700178623,-48.77013,16.86916,43.86244,0.1014963,0.9821048,-0.1903342,21.70089,-27.82395,6.422773,1007.894
10.732954979,-66.03971,14.68273,49.1161,0.1405113,0.9083005,-0.2047564,19.90006,-28.91884,6.007201,1007.894
10.765731335,-61.69125,7.650702,53.39233,0.1296297,0.7970163,-0.1559453,18.09778,-30.02562,4.721406,1007.895
10.801028252,-47.58984,-3.222351,52.84253,0.1365363,0.7593728,-0.1145079,18.09778,-30.02562,4.721406,1007.897
10.833804607,-46.34742,-11.61351,51.00985,0.1660009,0.8183158,-0.1483619,16.29683,-31.19144,3.560883,1007.897
10.899356842,-1.123497,-18.05461,34.45473,0.2919476,0.7454743,-0.128815,14.85113,-31.9406,1.833776,1007.897
10.934654713,26.27176,-11.67261,25.35247,0.283133,0.9988084,-0.03771719,13.41303,-33.0474,0.6096687,1007.897
10.967431068,-2.925,1.091414,16.12803,0.315569,1.030395,-0.08694063,12.25398,-32.67511,0.9783795,1007.895
11.000206947,-7.149212,5.641551,12.52377,0.3191164,0.9630363,-0.1123597,12.25398,-32.67511,0.9783795,1007.895
11.032983303,7.635532,2.627824,4.765469,0.3585441,0.924466,-0.1032492,12.26012,-33.04464,0.6111567,1007.895
11.065759659,14.7173,-1.745034,2.871709,0.3685972,0.9945374,-0.05427976,11.1732,-33.41835,-0.2519269,1007.895
11.101056576,18.56879,-3.458722,-0.1827419,0.3423729,0.9967873,-0.04940733,11.1732,-33.41835,-0.2519269,1007.897
11.133833408,8.505223,-0.504088,-1.404522,0.3734279,1.00631,-0.04805126,10.81057,-33.40559,0.6187663,1007.897
11.166609764,-5.285589,4.51879,-1.465611,0.3700768,0.9827839,-0.06533688,11.16113,-32.67758,0.6068363,1007.897
11.199386120,-11.93251,7.000682,2.321908,0.3434087,0.9664891,-0.06524907,11.16113,-32.67758,0.6068363,1007.897
11.234683037,-20.13245,5.937014,3.665866,0.3182961,0.9103307,-0.05644035,11.16175,-32.67249,0.979789,1007.897
11.267459393,-13.05069,3.159658,2.932798,0.3217563,0.8830286,-0.06459057,10.80308,-33.04709,0.1779244,1007.897
11.300235748,-3.359845,1.445971,3.665866,0.304151,0.9344741,-0.06943996,10.80308,-33.04709,0.1779244,1007.899
11.333011627,-6.528005,1.977805,3.116065,0.2954101,0.9313585,-0.08674355,10.08096,-33.41573,-0.2505174,1007.899
11.365787983,-7.335575,1.091414,2.81062,0.2731203,0.9111873,-0.08906709,10.80985,-33.41153,0.1836545,1007.899
11.401085854,2.727991,-0.4449953,1.283394,0.2512469,0.9182234,-0.1015412,10.08169,-33.40978,0.1845942,1007.899
11.433861733,2.293145,-3.281444,1.283394,0.2895249,0.9526219,-0.1036093,10.08169,-33.40978,0.1845942,1007.897
11.466638088,-5.534072,-3.104166,-0.3660089,0.2789029,0.9226668,-0.126163,10.80912,-33.41747,-0.251457,1007.897
11.499414444,0.3052807,-5.999708,-0.4881869,0.2754662,0.9366953,-0.1358032,10.43828,-33.05216,-0.2567172,1007.897
11.532190323,-1.247739,-7.890674,-2.565213,0.2987596,0.9482922,-0.1069942,10.43828,-33.05216,-0.2567172,1007.897
11.567488194,-6.093159,-5.586059,-4.03135,0.2973677,0.9235321,-0.09395683,10.45108,-33.78698,-0.6803691,1007.899
11.600264549,4.591614,-5.113317,-5.802931,0.3138759,0.9282004,-0.0728231,10.43828,-33.05216,-0.2567172,1007.899
11.633039951,4.21889,-4.522391,-3.298282,0.3044531,1.011922,-0.06859468,10.43828,-33.05216,-0.2567172,1007.899
11.665816784,-11.24918,-2.217776,-0.1216528,0.2943771,0.9576599,-0.08533666,10.43152,-32.68773,-0.2624471,1007.899
11.701114178,-2.614396,-5.231503,1.894285,0.2808793,0.9166496,-0.08331739,10.43755,-33.05811,-0.691829,1007.899
11.733890057,-0.6886517,-6.886098,3.971311,0.2720616,0.9497145,-0.08045813,10.43755,-33.05811,-0.691829,1007.899
11.766666413,-5.409831,-5.113317,5.070914,0.2779271,0.9276361,-0.1107646,10.80163,-33.05898,-0.6922991,1007.9
11.799442768,-1.37198,-3.931464,3.788044,0.2730913,0.9208341,-0.1025597,10.43755,-33.05811,-0.691829,1007.9
11.832219601,-1.37198,-2.158683,2.321908,0.2667663,0.9276568,-0.09437183,10.43755,-33.05811,-0.691829,1007.9
11.867516518,0.1189184,-0.2086246,-0.1827419,0.2779469,0.9183491,-0.1155642,10.81588,-33.78191,-0.2457271,1007.9
11.900292873,6.020392,0.08683879,-1.832145,0.266214,0.9533814,-0.1064433,10.45108,-33.78698,-0.6803691,1007.9
11.933069229,1.299213,1.800527,-2.381947,0.2831854,0.9667935,-0.08917478,10.45108,-33.78698,-0.6803691,1007.902
11.965845108,-0.1295647,1.741434,-2.992837,0.2759806,0.9321002,-0.09680719,10.07275,-33.06318,-1.126471,1007.902
12.001142979,4.156769,1.977805,-2.13759,0.2837515,0.9316881,-0.09538091,11.16498,-33.0658,-1.12788,1007.902
12.033919334,2.355266,2.155083,-1.160166,0.2851931,0.9370207,-0.1006873,11.16498,-33.0658,-1.12788,1007.902
12.066694736,2.479508,2.214175,-0.1216528,0.2881092,0.9340558,-0.110317,10.81588,-33.78191,-0.2457271,1007.902
12.099471569,3.846165,2.391453,0.4281483,0.2784016,0.9340351,-0.1016295,10.80839,-33.42342,-0.686569,1007.904
12.132247925,3.784044,2.036897,0.6725044,0.279799,0.9609007,-0.09204604,10.80839,-33.42342,-0.686569,1007.902
12.167544842,0.3674015,1.800527,0.7946824,0.2729733,0.9700071,-0.1050403,10.43828,-33.05216,-0.2567172,1007.904
12.200321198,0.2431599,1.2096,1.039038,0.2778539,0.9588192,-0.1088859,10.81588,-33.78191,-0.2457271,1007.904
12.233097553,-1.868947,0.6186729,0.4892373,0.2836876,0.9584712,-0.09590249,10.81588,-33.78191,-0.2457271,1007.904
12.265873432,-2.490154,-1.508664,0.6725044,0.2905225,0.9469832,-0.07520283,10.44431,-33.42254,-0.6860993,1007.906
12.301171303,-5.471951,-2.335961,1.039038,0.3026808,0.9372804,-0.08436291,10.0742,-33.05129,-0.2562473,1007.907
12.333947659,-3.235604,-2.513239,0.3670593,0.30032,0.9069908,-0.09490162,10.0742,-33.05129,-0.2562473,1007.907
12.366723538,0.6158845,-3.340537,-1.648878,0.2969458,0.8967416,-0.09391545,10.43225,-32.68178,0.1726644,1007.907
12.399499893,2.479508,-3.872371,-2.931748,0.2871559,0.9287708,-0.09875412,10.43152,-32.68773,-0.2624471,1007.909
12.432276249,3.784044,-3.636,-3.298282,0.2948652,0.9546715,-0.09544191,10.43152,-32.68773,-0.2624471,1007.909
12.467574120,0.4295222,-2.572332,-4.581151,0.2890589,0.9463568,-0.09349016,10.43828,-33.05216,-0.2567172,1007.907
12.500349522,1.423455,-0.8586441,-4.336795,0.2866425,0.9394445,-0.104064,10.80839,-33.42342,-0.686569,1007.907
12.533126354,2.417387,-0.6813661,-4.03135,0.2822485,0.9506532,-0.09781273,10.80912,-33.41747,-0.251457,1007.907
12.565902710,0.4295222,-0.8586441,-3.664816,0.2905084,0.9477731,-0.1016789,10.80912,-33.41747,-0.251457,1007.907
12.601199627,1.920421,-1.804127,-3.603727,0.2827486,0.9428012,-0.106948,11.15967,-32.68947,-0.263387,1007.907
12.633975983,0.4295222,-0.9177368,-4.825507,0.283731,0.9384395,-0.1050183,11.16643,-33.05391,-0.2576568,1007.912
12.666752339,0.8643677,-0.7995514,-6.413821,0.2725742,0.9339764,-0.1030596,11.16643,-33.05391,-0.2576568,1007.907
12.699528217,2.293145,-0.09043925,-7.269068,0.2696302,0.946101,-0.1069218,11.5223,-32.70223,-1.13408,1007.906
12.732304573,2.293145,0.3823022,-9.101738,0.2613917,0.9382029,-0.1121854,11.16716,-33.04796,0.1774547,1007.907
12.767602444,3.908286,0.08683879,-9.651539,0.2511948,0.9391288,-0.1068676,11.16716,-33.04796,0.1774547,1007.907
12.800378323,3.721923,-0.7404588,-9.407183,0.2492038,0.9575458,-0.1174806,12.24514,-32.32765,-0.2705266,1007.907
12.833154678,0.5537637,-0.7404588,-9.529361,0.2555531,0.944032,-0.1073667,11.88034,-32.33272,-0.7051685,1007.909
12.865931034,4.21889,-0.9177368,-9.101738,0.2434165,0.9424563,-0.109261,11.88034,-32.33272,-0.7051685,1007.909
12.901227951,5.274943,-1.685942,-9.529361,0.2530848,0.960554,-0.1097925,12.67666,-32.69311,-0.2653446,1007.909
12.934004307,2.231025,-1.154107,-10.01807,0.243875,0.9526444,-0.1155351,13.40554,-32.68891,0.1688271,1007.909
12.966781139,4.777977,-2.040498,-10.50679,0.2346747,0.9418529,-0.115497,13.40554,-32.68891,0.1688271,1007.909
12.999556541,5.709788,-1.508664,-11.42312,0.2205886,0.9426726,-0.1207598,13.39878,-32.32447,0.1630971,1007.909
13.032333374,4.902218,-2.040498,-12.95035,0.2137936,0.9401372,-0.1269976,13.75745,-31.94987,0.9649618,1007.909
13.067630768,3.100716,-2.158683,-15.14955,0.2113676,0.9396399,-0.125547,13.75745,-31.94987,0.9649618,1007.911
13.100406647,3.721923,-1.804127,-16.5546,0.1861105,0.9398159,-0.1399282,14.12018,-31.96178,0.1564274,1007.911
13.133183003,9.00219,-3.990556,-17.83747,0.1627642,0.9556799,-0.1418222,14.84906,-31.95758,0.5905993,1007.911
13.165959358,8.505223,-4.404205,-18.02073,0.1529902,0.9793694,-0.1553129,14.84906,-31.95758,0.5905993,1007.913
13.201256752,7.884015,-4.167835,-17.16549,0.1437562,0.9821945,-0.1581834,15.57107,-31.58979,0.9568822,1007.913
13.234033108,3.721923,-3.517815,-16.06589,0.142295,0.9866593,-0.1447085,15.92912,-31.22029,1.385794,1007.913
13.266809464,3.038595,-3.931464,-14.53866,0.139887,0.9778559,-0.1470963,15.92912,-31.22029,1.385794,1007.913
13.299585819,3.784044,-4.876947,-12.58381,0.1257913,0.9830722,-0.1504403,16.6424,-30.50419,0.56533,1007.913
13.332361698,1.112851,-4.463298,-10.75114,0.1248009,0.9878138,-0.1677741,17.02062,-31.22885,0.9492729,1007.913
13.367659092,-0.2538063,-3.517815,-9.223916,0.1112457,0.9681323,-0.1802277,17.00597,-30.43923,0.9368577,1007.911
13.400435925,0.491643,-3.340537,-8.674115,0.09767712,0.9578382,-0.1734409,17.00597,-30.43923,0.9368577,1007.911
13.433211327,3.224957,-3.340537,-9.346094,0.094295,0.9520123,-0.1666851,17.37794,-30.86528,0.9430728,1007.909
13.465988159,4.094648,-2.276869,-11.23985,0.09673673,0.9461883,-0.1666821,17.36329,-30.07567,0.9306579,1007.909
13.501285553,12.29459,0.02774611,-13.62232,0.1564366,0.9604406,-0.1499975,17.36329,-30.07567,0.9306579,1007.909
13.534061432,9.312794,4.400604,-15.94371,0.1418259,0.9818619,-0.1336288,18.10006,-30.49665,1.371515,1007.911
13.566837788,-5.906797,10.48715,-14.11104,0.1496728,0.9457631,-0.1514034,19.17837,-29.70371,1.792802,1007.911
13.599614144,-5.906797,17.57827,-14.23322,0.1351709,0.9163529,-0.1609519,19.17837,-29.70371,1.792802,1007.911
13.632390022,1.609817,21.18293,-13.25579,0.1200497,0.9479879,-0.1460415,19.17764,-29.70965,1.35769,1007.911
13.667687893,0.5537637,20.29654,-12.27837,0.10931,0.9742818,-0.1340217,19.52289,-28.60533,2.210254,1007.911
13.700464249,-4.291656,11.43263,-12.0951,0.1337245,0.9255961,-0.09068363,19.52289,-28.60533,2.210254,1007.913
13.733240128,1.920421,16.69188,-11.42312,0.1351642,0.928373,-0.1133152,20.26384,-29.34189,1.785662,1007.913
13.766016483,13.72337,9.60076,-14.90519,0.1046767,0.8989214,-0.03955018,20.98669,-28.96731,2.649216,1007.913
13.801313877,21.73695,7.17796,-10.93441,0.2005912,1.000215,-0.01634362,20.98669,-28.96731,2.649216,1007.914
