Time (s),Gyroscope X (deg/s),Gyroscope Y (deg/s),Gyroscope Z (deg/s),Accelerometer X (g),Accelerometer Y (g),Accelerometer Z (g),Magnetometer X (uT),Magnetometer Y (uT),Magnetometer Z (uT),Barometer (hPa)
0.002516747,-0.5394259,0.03195459,0.003927643,0.01951068,-0.2563465,0.9727713,-15.69689,31.44335,-33.0077,1008.06
0.037815571,-0.7257883,0.327418,0.3704617,0.02097445,-0.2587495,0.9756597,-16.05421,31.07979,-33.0015,1008.06
0.070592403,0.4545065,0.03195459,0.06501666,0.01175737,-0.2632364,0.9718373,-16.05421,31.07979,-33.0015,1008.062
0.103369713,1.075714,0.4456034,0.003927643,0.02338448,-0.2524413,0.9693867,-15.70365,31.80779,-33.01343,1008.062
0.136147499,-0.9121506,0.15014,0.06501666,0.01464283,-0.2505159,0.976625,-15.33281,31.44248,-33.00817,1008.062
0.171445847,-1.284875,0.327418,0.1261057,0.01612152,-0.2597573,0.9766354,-15.33281,31.44248,-33.00817,1008.066
0.204222679,-0.7257883,0.09104726,0.06501666,0.0185609,-0.2656182,0.9713435,-15.33885,31.81286,-32.57879,1008.066
0.236999989,0.9514727,-0.2044161,0.1871947,0.01563634,-0.2607656,0.9723058,-15.3247,31.08908,-32.19438,1008.066
0.269776821,0.6408688,-0.08623077,-0.05716138,0.01805316,-0.2553612,0.9761428,-15.3247,31.08908,-32.19438,1008.066
0.302554131,0.2060234,-0.02713809,0.1871947,0.01708461,-0.2578547,0.9689285,-16.06097,31.44423,-33.00723,1008.065
0.337852478,-1.284875,0.2092326,-0.05716138,0.01853514,-0.2544032,0.9732521,-14.96801,31.44755,-32.57353,1008.065
0.370630264,-1.284875,0.09104726,-0.05716138,0.01807103,-0.2631637,0.9747104,-14.96801,31.44755,-32.57353,1008.063
0.403407097,0.2060234,0.2683253,-0.1182504,0.0200039,-0.2607693,0.9665191,-15.32533,31.08398,-32.56733,1008.063
0.436184406,0.1439026,0.15014,-0.1793394,0.01563711,-0.2602484,0.9766372,-14.96125,31.08311,-32.5678,1008.063
0.468961716,-0.04245972,0.2683253,-0.1182504,0.01757176,-0.2583309,0.9698908,-14.96125,31.08311,-32.5678,1008.067
0.504260063,0.2681442,0.03195459,0.06501666,0.01805952,-0.259808,0.9670036,-15.33957,31.80692,-33.0139,1008.063
0.537036896,-0.228822,-0.08623077,0.06501666,0.02243201,-0.2587239,0.9775816,-16.06097,31.44423,-33.00723,1008.061
0.569814205,0.1439026,0.15014,0.1261057,0.01758885,-0.264125,0.9771199,-16.06097,31.44423,-33.00723,1008.063
0.602591992,-0.1045805,0.09104726,0.06501666,0.01758075,-0.2607158,0.9771147,-15.69617,31.4493,-32.57259,1008.063
0.637890339,0.08178183,-0.08623077,-0.05716138,0.01612243,-0.2612586,0.9708613,-15.69013,31.07891,-33.00197,1008.067
0.670667172,0.2060234,-0.02713809,0.003927643,0.01708589,-0.2578346,0.9718166,-15.69013,31.07891,-33.00197,1008.063
0.703444481,0.08178183,0.2683253,0.06501666,0.01176508,-0.2656415,0.9761732,-15.69617,31.4493,-32.57259,1008.069
0.736221314,0.3923857,-0.3226015,-0.1793394,0.01806074,-0.2582733,0.9775912,-15.70293,31.81373,-32.57832,1008.069
0.768998623,0.2060234,-0.02713809,-0.05716138,0.01515123,-0.259752,0.9785632,-15.70293,31.81373,-32.57832,1008.069
0.804296971,-0.4151844,0.09104726,-0.05716138,0.01952448,-0.2616871,0.9751862,-15.69617,31.4493,-32.57259,1008.069
0.837074757,-0.7257883,0.2092326,0.1261057,0.02049351,-0.2607016,0.9756637,-15.33885,31.81286,-32.57879,1008.067
0.869852066,0.5166273,0.09104726,0.1261057,0.01517456,-0.2705001,0.9737656,-15.32605,31.07804,-33.00244,1008.067
0.902628899,1.324197,-0.08623077,0.003927643,0.01513993,-0.256393,0.9713377,-15.32605,31.07804,-33.00244,1008.067
0.937927246,0.2681442,0.2092326,0.06501666,0.01657517,-0.2476244,0.969877,-15.69544,31.45524,-32.13748,1008.066
0.970704556,-0.4773052,0.5637887,0.003927643,0.0170879,-0.2583082,0.9737427,-15.33209,31.44842,-32.57306,1008.066
1.003481388,-1.471238,0.2092326,-0.05716138,0.01855039,-0.2607312,0.9737429,-15.33209,31.44842,-32.57306,1008.066
1.036258698,0.01966106,0.09104726,-0.2404284,0.0141931,-0.2666287,0.9713553,-15.68951,31.08401,-32.62902,1008.066
1.069036484,0.6408688,0.327418,-0.2404284,0.01563814,-0.2612425,0.9737506,-14.96198,31.07717,-33.00291,1008.066
1.104334831,-0.3530636,0.2092326,0.1261057,0.01903505,-0.2592258,0.9795159,-14.96198,31.07717,-33.00291,1008.066
1.137111664,-0.1045805,-0.08623077,0.003927643,0.01661442,-0.2636796,0.9723079,-15.69617,31.4493,-32.57259,1008.066
1.169888973,0.7651103,0.03195459,0.2482837,0.01853532,-0.2554107,0.96844,-15.33209,31.44842,-32.57306,1008.064
1.202666283,-0.6015468,-0.02713809,0.06501666,0.01660139,-0.2578219,0.9742245,-15.33209,31.44842,-32.57306,1008.062
1.237964630,0.2681442,0.15014,0.2482837,0.009810292,-0.260297,0.9766511,-15.33209,31.44842,-32.57306,1008.062
1.270742416,-0.7879091,-0.1453235,-0.3015174,0.01127278,-0.26272,0.9766514,-14.96739,31.45264,-32.20058,1008.064
1.303519249,1.137835,-0.1453235,0.2482837,0.01807442,-0.264121,0.9771187,-14.96739,31.45264,-32.20058,1008.064
1.336296558,0.8272311,-0.2044161,0.3093727,0.009791777,-0.2525045,0.9766394,-15.33281,31.44248,-33.00817,1008.062
1.369073391,-0.6636675,0.03195459,-0.1793394,0.01564527,-0.2651722,0.9689429,-14.96946,31.43566,-33.44375,1008.062
1.404371739,1.57268,-0.1453235,0.6148178,0.01510413,-0.2392735,0.9819019,-14.96946,31.43566,-33.44375,1008.066
1.437149048,-4.515155,0.2683253,-0.6069626,0.01711284,-0.2685257,0.9752022,-15.69689,31.44335,-33.0077,1008.066
1.469926834,0.8893519,-0.2635088,0.2482837,0.02195482,-0.2636485,0.9703697,-16.06097,31.44423,-33.00723,1008.065
1.502703667,0.8893519,-0.4407869,-0.05716138,0.01467249,-0.2631853,0.9756813,-16.06097,31.44423,-33.00723,1008.065
1.538002014,0.3302649,0.09104726,0.3093727,0.0170671,-0.2485308,0.979023,-15.33281,31.44248,-33.00817,1008.065
1.570779324,-0.1667013,-0.08623077,0.1261057,0.01515471,-0.2612131,0.9785653,-15.33281,31.44248,-33.00817,1008.065
1.603556633,-0.1667013,-0.08623077,0.003927643,0.01367449,-0.2530061,0.969892,-15.33281,31.44248,-33.00817,1008.065
1.636333466,-1.533358,0.09104726,-0.05716138,0.01564219,-0.2611789,0.9828964,-15.3246,31.08993,-32.13222,1008.063
1.669110775,-0.9742714,-0.08623077,-0.1793394,0.0141871,-0.2641969,0.9708703,-15.33957,31.80692,-33.0139,1008.063
1.704409599,0.7651103,0.09104726,-0.1793394,0.01320692,-0.2603055,0.9713481,-15.33957,31.80692,-33.0139,1008.061
1.737186909,-0.9121506,0.2092326,-0.2404284,0.01852981,-0.2509505,0.9795046,-15.70365,31.80779,-33.01343,1008.061
1.769963741,-0.228822,-0.3816942,0.003927643,0.01615005,-0.2709288,0.9809844,-15.32605,31.07804,-33.00244,1008.061
1.802741051,0.578748,-0.2044161,0.003927643,0.01611116,-0.2568887,0.9689293,-15.32605,31.07804,-33.00244,1008.061
1.838039398,-0.1667013,0.09104726,-0.05716138,0.01660255,-0.2583089,0.9742252,-15.70293,31.81373,-32.57832,1008.061
1.870816231,-0.4151844,-0.02713809,-0.05716138,0.01709987,-0.2641827,0.9694193,-15.33292,31.44163,-33.07033,1008.065
1.903593540,-0.228822,-0.08623077,0.1261057,0.0175823,-0.262207,0.9727848,-15.33812,31.8188,-32.14368,1008.065
1.936371326,0.7651103,0.03195459,0.06501666,0.01710611,-0.2656002,0.9756792,-15.33812,31.8188,-32.14368,1008.067
1.969148159,0.01966106,-0.08623077,-0.05716138,0.01464578,-0.25148,0.9780704,-15.33957,31.80692,-33.0139,1008.067
2.004446983,-0.1045805,-0.02713809,-0.4236955,0.01369532,-0.2617725,0.9699051,-15.69617,31.4493,-32.57259,1008.069
2.037223816,-0.228822,0.09104726,0.1261057,0.01903051,-0.2577815,0.9771069,-15.69617,31.4493,-32.57259,1008.069
2.070001125,-1.222754,-0.08623077,0.003927643,0.02194458,-0.2602727,0.9655511,-14.97477,31.81199,-32.57926,1008.069
2.102777958,-0.04245972,-0.2044161,-0.1182504,0.02002591,-0.2690119,0.9718264,-15.70293,31.81373,-32.57832,1008.069
2.138077259,1.075714,-0.2044161,0.1871947,0.01368707,-0.2563449,0.9800056,-15.70293,31.81373,-32.57832,1008.069
2.170854092,-0.1667013,-0.1453235,0.003927643,0.01659771,-0.2563641,0.9737409,-15.70365,31.80779,-33.01343,1008.069
2.203631401,-0.1667013,-0.08623077,0.06501666,0.01465583,-0.2573845,0.9694149,-15.69689,31.44335,-33.0077,1008.069
2.236408234,-0.4151844,0.15014,-0.1793394,0.01758812,-0.2636313,0.9780818,-15.69689,31.44335,-33.0077,1008.069
2.269185543,-0.228822,0.03195459,-0.05716138,0.01418731,-0.2641936,0.9713517,-14.96874,31.4416,-33.00864,1008.067
2.304483891,0.08178183,0.03195459,-0.1182504,0.01174937,-0.260331,0.9694262,-16.06024,31.45017,-32.57212,1008.067
2.337261200,-0.4773052,0.327418,-0.2404284,0.01272105,-0.2598091,0.973274,-16.06024,31.45017,-32.57212,1008.065
2.370038509,-0.7257883,-0.1453235,0.06501666,0.01856385,-0.2665822,0.972789,-15.33812,31.8188,-32.14368,1008.065
2.402815819,0.6408688,-0.1453235,0.1261057,0.01759317,-0.2655727,0.9790475,-15.33281,31.44248,-33.00817,1008.064
2.435593128,0.01966106,-0.02713809,0.1871947,0.01611466,-0.2573389,0.9742249,-15.33281,31.44248,-33.00817,1008.062
2.470891476,-0.1045805,-0.2044161,-0.05716138,0.01369008,-0.2588236,0.9737515,-15.33332,31.50831,-32.63617,1008.062
2.503668308,0.3302649,0.03195459,0.1261057,0.01417553,-0.2593267,0.970863,-15.33885,31.81286,-32.57879,1008.06
2.536445618,-0.8500298,-0.1453235,0.1871947,0.01952567,-0.2611633,0.9804803,-15.33885,31.81286,-32.57879,1008.06
2.569223404,-0.2909428,-0.2635088,0.2482837,0.01660809,-0.2617583,0.9684541,-15.33957,31.80692,-33.0139,1008.064
2.604521752,-0.4773052,-0.2044161,-0.1182504,0.01758474,-0.262674,0.9756736,-15.70293,31.81373,-32.57832,1008.063
2.637298584,0.3302649,-0.3226015,0.06501666,0.02049516,-0.2626966,0.9689276,-15.70293,31.81373,-32.57832,1008.063
2.670075894,-0.8500298,0.4456034,0.3093727,0.02195454,-0.2621371,0.9775878,-15.31856,30.71955,-32.5616,1008.061
2.702852726,-0.4151844,-0.08623077,-0.05716138,0.02148715,-0.2704441,0.974232,-14.96135,31.08226,-32.62996,1008.063
2.735630036,1.199956,-0.1453235,-0.05716138,0.01661704,-0.2651541,0.9703846,-14.96135,31.08226,-32.62996,1008.063
2.770929337,-0.228822,-0.2635088,0.06501666,0.01028639,-0.2564001,0.9761628,-15.69544,31.45524,-32.13748,1008.063
2.803706169,-0.1045805,-0.1453235,-0.05716138,0.0180806,-0.2675603,0.9727916,-15.70293,31.81373,-32.57832,1008.061
2.836483479,-2.030325,-4.813645,-4.333393,-0.01078687,-0.3717291,1.015858,-15.33219,31.44757,-32.63522,1008.063
2.869260311,74.12975,-17.45948,-7.937644,0.03139572,-0.5556909,0.9852283,-15.33219,31.44757,-32.63522,1008.061
2.904558659,231.9787,-40.32835,-2.561811,-0.1076142,-0.4953537,1.00424,-15.33281,31.44248,-33.00817,1008.061
2.937335968,372.8685,-80.57046,8.800746,-0.06499727,-0.01035394,1.149742,-15.66952,29.56852,-36.8329,1008.061
2.970113754,298.8206,-123.5899,26.63874,0.1058039,0.4938142,1.376261,-15.66952,29.56852,-36.8329,1008.064
3.002890587,350.5051,-152.0726,65.247,0.1098818,0.3382518,0.9928408,-17.68423,19.97906,-40.9691,1008.065
3.035667896,454.4952,-159.4592,105.2603,0.2245204,0.65557,0.6113334,-21.18244,8.988142,-41.22658,1008.067
3.070966244,472.1375,-136.4721,144.9071,0.3826202,0.8745533,0.2544207,-21.18244,8.988142,-41.22658,1008.067
3.103743076,425.6091,-82.46143,169.1594,0.5783865,0.9966658,-0.0003866809,-26.3994,-3.762158,-37.16418,1008.065
3.136520386,318.4507,-19.23226,173.8022,0.6404082,1.024931,-0.1425781,-30.96272,-15.3681,-29.26599,1008.065
3.169297695,188.6183,32.94658,158.4077,0.616109,0.825904,-0.1585868,-30.96272,-15.3681,-29.26599,1008.064
3.204596520,81.39788,64.73845,131.4675,0.6123853,0.5702841,-0.07299168,-35.22652,-20.44407,-23.58488,1008.062
3.237373829,47.72842,77.32519,106.2988,0.6623248,0.411962,0.00222093,-38.15662,-19.32085,-21.92002,1008.064
3.270150662,55.61776,76.91154,84.12351,0.7149149,0.3525957,0.01662652,-38.15662,-19.32085,-21.92002,1008.064
3.302927971,69.84341,81.16621,64.57502,0.7649492,0.3452575,0.02181389,-38.92252,-17.4591,-23.62698,1008.068
3.335704804,87.54784,83.58901,48.99732,0.7784539,0.3772803,-0.01196173,-38.23035,-15.65649,-24.9619,1008.066
3.371003151,97.67352,91.92108,35.67992,0.8321628,0.4348792,-0.1281841,-38.23035,-15.65649,-24.9619,1008.064
3.403780937,103.8235,121.2901,29.87646,0.8842083,0.5730814,-0.277738,-37.50365,-15.67013,-25.83307,1008.063
3.436558247,87.60995,163.9551,30.97606,0.8600258,0.5036572,-0.4267981,-36.75874,-16.79405,-27.93022,1008.063
3.469335079,105.0038,228.1297,39.89506,0.7944584,0.7018696,-0.4899997,-36.75874,-16.79405,-27.93022,1008.063
3.504633427,24.24677,309.0867,57.91632,0.7476458,0.5938355,-0.4208912,-33.4732,-17.63907,-31.40293,1008.061
3.537410736,28.47098,350.6879,83.08499,0.400518,0.2503477,0.04881484,-29.79154,-20.2515,-35.22136,1008.059
3.570188046,-267.0376,-45.11486,-1.095675,-1.636178,-0.2009258,1.547991,-29.79154,-20.2515,-35.22136,1008.061
3.602965832,-8.553007,-113.1896,26.21111,1.849232,0.08729124,0.7734434,-21.73788,-19.98792,-41.20475,1008.061
3.635742664,-1.533358,24.85088,-1.950921,1.128644,0.4094988,0.3481804,-18.90166,-12.65152,-41.75925,1008.061
3.671041012,-14.57872,17.05065,-26.08108,0.3466406,0.3098347,0.4036165,-18.90166,-12.65152,-41.75925,1008.059
3.703818321,-6.627262,-13.44118,-16.18466,0.4845971,0.5694605,0.8029097,-22.9259,-14.82245,-41.28451,1008.059
3.736595154,-115.525,-42.86934,-24.79821,0.4803771,0.3166986,0.8798372,-21.85468,-13.7377,-41.73822,1008.057
3.769372463,-136.1491,-63.78814,-47.52333,0.6014883,0.01380698,0.8111717,-21.85468,-13.7377,-41.73822,1008.057
3.804671288,-81.54492,-87.42521,-63.773,0.7903541,0.2105355,0.7189685,-22.23373,-13.01984,-42.61944,1008.057
3.837448597,-150.2505,-93.86631,-81.24446,0.6191757,0.3404428,0.8356683,-23.38547,-9.726254,-41.86153,1008.056
3.870225430,-190.2563,-119.3353,-106.8408,0.5032781,0.04132965,0.684765,-26.71447,-6.718389,-40.16365,1008.06
3.903002739,-135.6521,-121.7581,-135.858,0.6450039,0.2218826,0.4242214,-26.71447,-6.718389,-40.16365,1008.06
3.935779572,-233.1196,-100.1301,-159.866,0.6948655,0.4861116,0.4005995,-28.97113,-2.686514,-38.91853,1008.06
3.971078396,-340.7128,-62.42901,-193.7094,0.749941,0.3579521,0.1845306,-31.60376,-1.192793,-36.76252,1008.06
4.003856182,-303.254,2.986589,-212.4026,0.7265372,0.1840139,0.1333426,-31.60376,-1.192793,-36.76252,1008.054
4.036633015,-181.4351,48.01521,-207.21,0.5254914,0.2380874,0.3768256,-34.59366,3.288929,-33.84486,1008.058
4.069410324,-144.7217,59.47919,-198.5354,0.5467131,0.5188825,0.458665,-34.64099,5.839989,-33.88497,1008.058
4.104708672,-74.27679,87.19366,-173.0613,0.4301965,0.5131673,0.4772416,-34.64099,5.839989,-33.88497,1008.058
4.137485504,-64.27534,91.15288,-155.4676,0.41941,0.8140148,0.749746,-33.55094,5.81954,-35.19171,1008.058
4.170262814,-122.3583,97.71217,-121.9297,0.339231,0.8608977,0.8644295,-31.69882,3.976009,-36.40859,1008.058
4.203040600,-122.9795,89.79375,-86.86465,0.326973,0.7170143,0.9195507,-31.69882,3.976009,-36.40859,1008.058
4.235817432,-119.5007,82.11169,-56.44232,0.3179053,0.6754666,1.049121,-29.86854,3.213052,-38.57503,1008.06
4.271115780,-119.3765,63.67477,-28.89118,0.2503885,0.4901909,1.101547,-27.66542,5.382405,-39.48253,1008.06
4.303893089,-74.52527,44.35146,-3.783592,0.2273943,0.3398164,1.006519,-27.66542,5.382405,-39.48253,1008.06
4.336669922,-43.2164,32.94658,9.594903,0.1662633,0.3173663,1.003328,-25.17097,8.29179,-39.53166,1008.06
4.369447231,-35.69979,22.2508,17.4143,0.1926622,0.2435938,1.008672,-23.76948,11.19785,-40.0145,1008.06
4.404746533,-25.44986,16.87337,19.6135,0.1724086,0.1844968,1.00929,-23.76948,11.19785,-40.0145,1008.061
4.437523365,-20.7908,8.600393,19.24697,0.1565018,0.1286077,0.9757171,-23.07625,13.07903,-40.04504,1008.061
4.470300675,-9.112094,9.250413,17.65865,0.2016511,0.1253142,0.9380687,-21.63347,13.80442,-40.05838,1008.06
4.503077507,-7.869678,8.30493,12.64935,0.1439012,0.1147351,0.9569948,-21.63347,13.80442,-40.05838,1008.06
4.535854817,-3.707586,5.88213,9.106191,0.197366,0.08771304,0.9289897,-21.29571,15.26724,-39.64666,1008.06
4.571153641,5.734773,11.08229,3.363823,0.1574717,0.1240484,0.9492468,-20.93985,15.61891,-40.52308,1008.06
4.603930950,3.1257,13.09144,-3.050523,0.1054727,0.1471864,0.9772542,-20.93985,15.61891,-40.52308,1008.058
4.636707783,6.542343,7.950374,-4.761016,0.1569738,0.1460796,1.036341,-20.57504,15.62398,-40.08844,1008.056
4.669485092,7.722638,1.568364,-1.889832,0.1412621,0.2361822,1.125295,-19.84761,15.61629,-40.52449,1008.056
4.702261925,-2.154566,-10.60473,4.096892,0.1184512,0.2260571,1.097445,-19.84761,15.61629,-40.52449,1008.06
4.737560749,10.33171,-13.32299,8.250944,0.1894708,0.1387123,0.9183416,-20.20493,15.25273,-40.51829,1008.059
4.770338059,32.75731,-7.709187,10.51124,0.2048803,0.1893622,0.8994556,-20.22521,16.34604,-40.53548,1008.055
4.803115368,12.44382,1.272901,9.533813,0.1915776,0.2751469,0.92487,-20.93308,15.25447,-40.51735,1008.055
4.835892677,-12.65298,10.55045,7.884411,0.1877968,0.2242026,0.8874096,-20.93308,15.25447,-40.51735,1008.055
4.871191025,-18.05749,20.6553,2.264221,0.1997098,0.1187456,0.9063134,-20.18527,14.15432,-40.87405,1008.055
4.903967857,-6.565141,26.03273,-0.7902296,0.1899959,0.1267081,0.9424266,-20.20493,15.25273,-40.51829,1008.059
4.936745167,-1.906083,33.65569,-5.494084,0.1894832,0.1328446,0.9149809,-20.20493,15.25273,-40.51829,1008.059
4.969522953,5.734773,44.11509,-7.510021,0.1554035,0.1735851,0.9313666,-19.4161,15.25084,-40.51931,1008.059
5.002299786,-21.53625,51.02894,-10.68665,0.08872699,0.2484172,0.9867686,-18.69533,15.60844,-40.89893,1008.059
5.037598133,-30.91648,56.87911,-17.6508,0.04446005,0.07354831,0.9669199,-18.69533,15.60844,-40.89893,1008.059
5.070375443,-2.713653,55.63816,-23.63752,-0.02115657,0.1189645,1.06328,-17.23985,15.59815,-41.39808,1008.059
5.103152275,13.25139,48.96069,-27.97484,-0.04151772,0.11173,1.097997,-15.44037,16.68201,-41.79057,1008.059
5.135930061,27.47705,37.96946,-17.95624,-0.1574231,0.2696119,1.178902,-15.44037,16.68201,-41.79057,1008.062
5.171228409,-1.906083,22.54627,-8.548535,-0.03171515,0.2541505,0.9754929,-14.70618,16.30988,-42.22089,1008.062
5.204005718,-20.10747,36.84669,-12.82477,-0.03550484,0.2060982,0.9336959,-12.13746,15.20961,-42.26915,1008.062
5.236783028,-38.99219,40.51044,-12.70259,-0.1195337,0.2337906,1.024831,-12.13746,15.20961,-42.26915,1008.062
5.269559860,-42.84367,38.56038,-11.17536,-0.1207473,0.1269589,1.001889,-11.78004,15.57402,-42.21319,1008.068
5.302337170,-33.58768,39.80133,-7.448932,-0.1297247,0.02317541,1.006399,-10.34474,16.6579,-42.66737,1008.068
5.337635994,-14.26812,39.80133,-6.227152,-0.16411,-0.02167271,0.9718904,-10.34474,16.6579,-42.66737,1008.068
5.370413303,14.68016,37.73308,-1.828743,-0.1953206,0.03456308,0.9718797,-9.211383,17.75439,-42.25094,1008.068
5.403190136,32.69519,37.49671,1.10353,-0.2240878,0.09005266,1.001709,-7.761834,18.11534,-42.25855,1008.068
5.435967445,27.72553,34.30571,2.203132,-0.2431003,0.1154861,0.9699456,-7.761834,18.11534,-42.25855,1008.068
5.471265793,24.68161,33.5375,3.180557,-0.2402018,0.1172978,0.9468306,-6.298763,17.74741,-42.2547,1008.068
5.504042626,19.33922,35.84212,-1.950921,-0.2786766,0.1742813,0.9930467,-4.837146,17.3676,-43.12107,1008.068
5.536820412,12.75442,30.76015,-1.889832,-0.2786346,0.1537224,0.9781554,-4.837146,17.3676,-43.12107,1008.068
5.569597721,27.53917,29.75557,-2.928345,-0.2820568,0.159391,0.956975,-3.712561,15.53091,-43.96406,1008.068
5.602374554,21.38921,25.44181,-2.256366,-0.2956244,0.1541647,0.9921545,-2.255525,15.53336,-43.53082,1008.066
5.637673378,13.12714,10.49136,0.1261057,-0.2881766,0.1143699,1.143826,-2.255525,15.53336,-43.53082,1008.068
5.670450211,18.6559,-24.01877,4.096892,-0.1193253,-0.02963766,1.173487,-1.501052,14.06792,-43.94395,1008.065
5.703227997,55.24503,-37.96464,-5.860618,0.01460574,-0.01824532,1.039815,-0.7796583,14.43061,-43.95063,1008.065
5.736005306,51.64202,-46.71036,-9.648137,-0.05434712,0.1862116,1.038226,-0.7796583,14.43061,-43.95063,1008.068
5.771303654,32.69519,-47.65584,-4.211215,-0.02675313,0.1851334,0.8499498,-1.479315,12.9865,-43.05654,1008.07
5.804080486,59.0344,-26.50066,0.003927643,-0.01444258,0.2899325,0.7072795,-2.893203,10.74857,-42.58422,1008.074
5.836857796,44.12541,-7.827372,8.250944,-0.1467766,0.6257198,0.8274277,-4.315706,8.929878,-42.55369,1008.076
5.869634628,-55.70267,7.477633,10.87777,-0.225832,0.5825543,0.8084258,-4.315706,8.929878,-42.55369,1008.076
5.902412415,-83.5949,20.12347,15.82598,-0.2619974,0.2730314,0.8157172,-4.649832,7.496778,-40.78985,1008.076
5.937710762,-54.33602,24.49632,21.26291,-0.3804418,0.2705568,0.8824298,-4.304688,8.600254,-39.99944,1008.076
5.970488071,-43.2164,29.81467,25.35587,-0.393535,0.2722333,0.9291504,-4.304688,8.600254,-39.99944,1008.074
6.003264904,-47.00577,25.26453,29.81537,-0.505755,0.3053107,0.9880928,-2.158612,10.79947,-38.73131,1008.076
6.036042213,-54.14965,17.34611,34.45813,-0.4918805,0.1850148,0.971875,-1.448561,11.90887,-37.44411,1008.076
6.071341515,-33.71192,13.85964,35.741,-0.4976424,0.1556742,0.9618242,-1.448561,11.90887,-37.44411,1008.076
6.104118347,-35.07858,12.14595,32.86982,-0.5049484,0.1567766,0.9189987,-0.753886,13.80194,-36.60443,1008.074
6.136895657,-28.5559,14.2142,27.49398,-0.5008802,0.06926294,0.8661711,0.7569647,14.16783,-36.23916,1008.072
6.169672489,-23.95896,18.88252,17.4143,-0.5216575,0.02522286,0.8614733,0.7569647,14.16783,-36.23916,1008.072
6.202449799,0.8272311,15.8097,11.36648,-0.5253215,-0.05925084,0.9049317,1.47305,14.90685,-35.38134,1008.072
6.237748623,46.85873,7.241261,4.21907,-0.412944,0.06974537,0.969936,2.552486,15.63905,-34.9591,1008.072
6.270525932,53.19505,3.991164,-0.3626065,-0.3405484,0.2478465,0.9305055,2.552486,15.63905,-34.9591,1008.077
6.303302765,32.1361,5.350296,-2.378544,-0.3148297,0.2478035,0.8933797,2.90835,15.99073,-35.83552,1008.075
6.336080074,20.89224,4.99574,-1.828743,-0.3411313,0.2943075,0.9588373,3.683106,13.43198,-36.23146,1008.075
6.371378422,-2.092445,5.350296,-0.7291406,-0.3876318,0.2426637,0.9421777,3.683106,13.43198,-36.23146,1008.077
6.404155254,13.25139,5.823037,-3.050523,-0.3636102,0.1327857,0.8710449,3.319029,13.43285,-36.23099,1008.077
6.436933041,11.69837,6.76852,-1.462209,-0.3229482,0.2013751,0.9502697,2.96109,13.06419,-36.59774,1008.077
6.469710350,8.840811,10.1368,-1.095675,-0.3258621,0.1993224,0.938727,2.96109,13.06419,-36.59774,1008.078
6.502487660,17.84832,7.241261,-2.01201,-0.2961128,0.1485589,0.9570247,2.96109,13.06419,-36.59774,1008.077
6.537786007,18.59377,11.25956,0.6759068,-0.3414402,0.2253399,0.9868609,3.701937,12.32678,-37.08449,1008.077
6.570562840,16.85439,11.31866,1.470064,-0.2982234,0.2125858,0.9217938,3.701937,12.32678,-37.08449,1008.077
6.603340626,20.14679,10.37317,2.019865,-0.2696022,0.2326039,0.9645369,4.066118,12.32676,-37.0228,1008.077
6.636117935,14.92865,10.9641,1.592242,-0.3105398,0.2900289,0.9371099,3.723347,11.17273,-37.06635,1008.077
6.668894768,5.237806,18.17341,-0.1793394,-0.3421219,0.2904584,0.8967497,3.723347,11.17273,-37.06635,1008.075
6.704193115,-2.900015,23.96449,-1.034586,-0.3872421,0.2820834,0.9373038,4.809649,11.54134,-36.57622,1008.073
6.736970425,-10.04391,27.27368,-0.6069626,-0.4007947,0.262442,0.9306265,5.192557,10.43527,-37.42972,1008.073
6.769747257,-9.174214,32.29656,-2.683989,-0.4061104,0.2461281,0.9022633,5.544565,11.17516,-36.57143,1008.073
6.802525044,-7.248469,38.08764,-5.066461,-0.4197379,0.2601685,0.9066067,5.544565,11.17516,-36.57143,1008.073
6.837823391,-11.96965,45.59241,-8.670713,-0.4260191,0.2439335,0.8907611,6.630659,11.54207,-36.20561,1008.075
6.870600700,-8.304523,54.81087,-13.06912,-0.4648632,0.2441366,0.8966293,8.093833,11.175,-36.1396,1008.075
6.903378010,-12.59086,59.83375,-16.24575,-0.5017386,0.2250672,0.860162,8.093833,11.175,-36.1396,1008.075
6.936154842,-12.65298,62.49292,-18.56713,-0.5022249,0.2159585,0.8115594,9.537243,11.90547,-35.77999,1008.075
6.968932629,-19.17566,62.61111,-19.85,-0.5628702,0.1925016,0.8030741,11.0478,12.3389,-34.91841,1008.075
7.004230976,-21.78473,57.8246,-19.60565,-0.6264714,0.1814922,0.7671394,11.0478,12.3389,-34.91841,1008.075
7.069785118,-17.12567,46.77427,-24.37059,-0.7012115,0.1602357,0.7418365,14.66651,13.82868,-31.96241,1008.077
7.102562428,-22.40594,41.16046,-27.48613,-0.689081,0.1627253,0.7350649,14.66651,13.82868,-31.96241,1008.075
7.137861252,-26.44379,36.19667,-32.49543,-0.713761,0.1259481,0.7289212,15.75271,14.19644,-31.53444,1008.075
7.170638561,-21.16352,33.83297,-36.03859,-0.7132359,0.1083857,0.7241328,16.46807,14.92952,-31.11172,1008.075
7.203415394,-27.12712,34.48299,-43.186,-0.7170377,0.07024809,0.7073516,16.46807,14.92952,-31.11172,1008.073
7.236192703,-31.28921,38.61947,-48.31748,-0.7330084,0.04922248,0.7146416,17.54219,16.03804,-29.82499,1008.071
7.268969536,-32.65587,43.2878,-51.0054,-0.7941401,0.02827699,0.7177064,17.14504,17.86704,-29.41805,1008.075
7.304268837,-43.2164,46.65608,-51.06649,-0.8329603,0.01167677,0.6884604,17.14504,17.86704,-29.41805,1008.075
7.337045670,-62.22536,53.92448,-51.73847,-0.7915648,-0.03556685,0.7086506,17.12693,18.97819,-28.12991,1008.074
7.369822979,-78.1904,59.4201,-50.94431,-0.7938201,-0.1101758,0.6981785,17.83085,20.45711,-26.47548,1008.074
7.402600288,-86.70094,56.46547,-48.62293,-0.8010905,-0.1241747,0.6548942,17.83085,20.45711,-26.47548,1008.074
7.437898636,-122.1719,48.42886,-47.88986,-0.8373447,-0.2133535,0.5511405,18.1373,23.83258,-23.91781,1008.074
7.470676422,-128.1976,36.01939,-46.60699,-0.8488462,-0.3025032,0.4218158,17.38033,25.69727,-20.96189,1008.074
7.503453255,-127.1416,20.6553,-46.36263,-0.8799024,-0.3201265,0.3761867,17.38033,25.69727,-20.96189,1008.072
7.536230564,-121.9855,9.368598,-42.45294,-0.8663189,-0.3212181,0.3429421,17.3177,29.3824,-18.03557,1008.072
7.569007397,-109.375,-2.449938,-39.09304,-0.7515401,-0.4199152,0.2296987,16.20413,30.88946,-14.63835,1008.074
7.604305744,-114.0341,-8.241021,-38.97086,-0.6203308,-0.4762655,0.1630445,16.20413,30.88946,-14.63835,1008.072
7.637083531,-73.03437,-8.595577,-38.84869,-0.8895702,-0.5725853,0.2230357,15.43261,33.54461,-11.63269,1008.072
7.669860840,-31.8483,-23.25056,-24.67603,-0.7952926,-0.5801823,0.3479776,14.31758,35.03979,-9.105691,1008.072
7.702637673,-35.63766,-22.42327,-19.85,-0.7606086,-0.6827093,0.2705506,14.31758,35.03979,-9.105691,1008.072
7.737936497,-18.36809,-11.6684,-16.36793,-0.8496744,-0.790726,0.3229118,12.84317,36.15443,-7.815666,1008.076
7.770713329,0.6408688,-19.82319,-2.867256,-0.7825601,-0.595054,0.5053751,12.09691,37.26731,-6.526581,1008.076
7.803491116,-25.94682,-32.82358,9.045101,-0.8015978,-0.5654717,0.4399105,11.72535,37.62668,-6.966953,1008.076
7.836268425,-37.93613,-45.64669,15.52054,-0.767971,-0.6299518,0.3720559,11.72535,37.62668,-6.966953,1008.076
7.869045258,-35.69979,-68.98829,18.94152,-0.7900506,-0.4998533,0.5471278,11.00541,37.27588,-6.090059,1008.076
7.904343605,-166.0913,-120.1035,18.39172,-0.8532101,-0.2130213,0.8982394,11.72066,38.0081,-5.729507,1008.075
7.937120914,-241.6302,-139.604,20.28548,-0.5874917,-0.4035335,0.146972,11.72066,38.0081,-5.729507,1008.077
7.969898701,-167.7686,-103.5575,1.653331,-0.4896119,-0.8019217,-0.2493018,11.34888,38.7854,-2.259603,1008.071
8.002675533,-90.11758,-66.32912,0.1871947,-0.6848512,-0.9693507,-0.1383545,12.09231,38.48884,2.84221,1008.071
8.037973881,2.380251,-51.43777,-2.867256,-0.6899813,-0.9933611,0.197203,12.09231,38.48884,2.84221,1008.073
8.070751190,58.91016,-49.72409,-2.928345,-0.7423245,-0.7912329,0.4011199,12.08835,38.87621,4.514768,1008.073
8.103528023,64.81163,-57.40614,7.884411,-0.848578,-0.8392699,0.3446436,12.45576,38.48287,2.468787,1008.072
8.136305809,92.45538,-61.42443,17.23103,-0.7209675,-0.7942113,0.3673784,12.45576,38.48287,2.468787,1008.072
8.169083118,104.4447,-61.77899,36.22972,-0.6270403,-0.6390794,0.5710192,12.4514,38.44721,-0.1418834,1008.072
8.204381466,188.8047,-57.64251,56.63345,-0.5684747,-0.739508,0.696667,12.80831,38.38775,-4.431312,1008.07
8.237158775,279.4389,-70.5247,82.90173,-0.4329028,-0.3282141,0.917152,12.80831,38.38775,-4.431312,1008.07
8.269935608,275.0283,-85.1206,104.0996,-0.361188,0.1438319,0.9157891,14.99696,37.57722,-10.01696,1008.072
8.302713394,88.29328,-69.87468,86.68925,-0.4078295,0.3657688,0.9497419,17.24823,33.08156,-18.52894,1008.066
8.338011742,15.05289,-79.32951,114.9124,-0.2844732,-0.06370331,0.8855941,17.24823,33.08156,-18.52894,1008.066
8.370789051,-17.31203,-49.42862,81.3745,-0.3901161,0.02860679,0.7696974,18.42773,27.84645,-23.5462,1008.066
8.403565884,-67.1329,-44.22847,89.80479,-0.3546416,0.03338467,0.8538443,19.62121,25.65707,-23.5133,1008.07
8.436343193,-73.65558,-4.931831,74.34927,-0.3548126,-0.1501184,0.5898537,19.62121,25.65707,-23.5133,1008.066
8.469120979,-125.0916,23.96449,71.17264,-0.3214447,-0.06761148,0.7181738,19.20322,25.29365,-23.50703,1008.066
8.504419327,-165.4701,37.91036,66.28551,-0.6084354,-0.2284053,0.9130856,20.72519,25.33077,-20.52536,1008.065
8.537196159,-135.5279,36.37395,63.5976,-0.6299282,-0.6205161,0.722627,20.72519,25.33077,-20.52536,1008.065
8.569973469,-31.78618,45.71059,59.87117,-0.7167135,-0.49848,0.5864236,21.43274,26.83942,-16.69538,1008.063
8.602750302,-71.29499,66.86578,38.18456,-0.7009593,-0.4303354,0.3513789,22.87593,27.98783,-12.42549,1008.063
8.638049603,-175.3473,82.46625,24.073,-0.8495363,-0.4183332,0.4349888,23.61728,27.6743,-8.566849,1008.061
8.670826912,-221.6273,80.16164,25.84458,-0.8264908,-0.5252669,0.368186,23.61728,27.6743,-8.566849,1008.061
8.703603745,-111.6114,80.10255,37.51258,-0.9429072,-0.5930641,0.2838447,23.62808,27.7626,-2.102332,1008.061
8.736381054,27.91189,53.51083,48.69188,-1.089443,-0.4072652,0.4239885,22.93007,26.75171,3.820884,1008.06
8.769157887,62.51316,19.47345,70.68392,-1.051751,0.1028822,0.5497283,22.93007,26.75171,3.820884,1008.06
8.804457188,76.61458,4.936647,90.47677,-0.9920586,0.110952,0.5178047,22.23717,24.94315,4.720697,1008.061
8.837234020,23.93616,0.9774376,74.83797,-1.010782,-0.3980281,0.4671105,22.29021,21.94909,3.462157,1008.061
8.870011330,91.70993,-5.995499,72.94422,-0.9178128,-0.2836258,0.4878975,22.29021,21.94909,3.462157,1008.061
8.902788162,69.84341,-5.522758,63.47542,-0.9127158,0.0434438,0.5899225,22.31049,20.85577,3.479347,1008.065
8.935565472,24.43313,-2.568123,56.45018,-0.8719451,0.0465489,0.5671971,24.16344,19.01904,2.759742,1008.064
8.970864296,-2.589411,-0.4407869,47.65336,-0.7748661,-0.1486505,0.5354912,24.16344,19.01904,2.759742,1008.064
9.003641605,30.39672,9.014042,41.72773,-0.8187193,-0.07006818,0.6124947,23.46087,17.55115,1.913379,1008.062
9.036418438,2.877217,18.58706,36.96278,-0.8844259,-0.01646656,0.5552877,24.20255,16.82053,1.923899,1008.062
9.069195747,4.865082,24.96907,36.35189,-0.8517208,-0.09684914,0.5129714,24.20255,16.82053,1.923899,1008.062
9.104494095,6.29386,31.46926,33.78616,-0.8792022,0.02417016,0.5094846,23.5029,15.37641,2.817982,1008.062
9.137271881,1.51056,29.34192,25.11151,-0.8860451,0.03047982,0.4445076,24.24582,14.65598,3.574408,1008.062
9.170049191,-4.204552,22.90082,15.64272,-1.001702,0.07404596,0.475042,24.24582,14.65598,3.574408,1008.062
9.202826023,-5.509088,11.96868,3.424912,-1.062561,0.1371659,0.4500604,23.88247,14.6628,4.00999,1008.062
9.235603333,-2.775774,-4.222719,-10.01467,-1.029804,0.03384957,0.4015209,23.17002,13.9535,5.327724,1008.062
9.270901680,-4.88788,-11.72749,-22.59901,-1.005709,0.1281639,0.4879667,23.17002,13.9535,5.327724,1008.062
9.303679466,-10.9136,-18.75952,-29.8686,-0.9790394,-0.07421883,0.418411,23.51985,14.67556,4.880683,1008.064
9.336456299,13.81047,-30.28259,-30.17405,-0.9102426,-0.01594184,0.3815765,23.51912,14.66962,4.445571,1008.063
9.369233608,9.275656,-38.91013,-30.9682,-0.9005741,0.01984124,0.4729584,23.51912,14.66962,4.445571,1008.063
9.404531956,18.40741,-41.92385,-38.60433,-0.7765123,-0.09606741,0.3948582,22.77536,15.38325,3.191875,1008.063
9.437309742,35.86335,-31.99628,-44.65214,-0.8472226,0.06328094,0.5622997,23.48937,16.10529,2.806522,1008.061
9.470086575,37.23001,-7.11826,-55.83143,-0.7783923,-0.1072299,0.4728601,23.48937,16.10529,2.806522,1008.061
9.502863884,42.32391,17.64157,-59.68004,-0.8411317,-0.0370999,0.6177931,23.84378,16.44508,1.059876,1008.061
9.535640717,31.63914,38.3831,-62.79558,-0.8128638,-0.09028228,0.5701514,22.72232,17.88761,-0.2669699,1008.059
9.570939541,-8.925732,59.4201,-62.24578,-0.9342974,-0.06466756,0.6175743,22.72232,17.88761,-0.2669699,1008.061
9.603716850,-27.49984,69.28858,-57.23648,-0.9387063,-0.2663389,0.5476099,21.96109,19.71749,0.1404314,1008.061
9.636494160,-17.43628,78.92069,-48.80619,-0.9324616,-0.2526981,0.4705566,21.57891,20.8295,1.429046,1008.061
9.669271469,-33.40132,75.49332,-42.45294,-0.9393187,-0.2294345,0.4623547,21.57891,20.8295,1.429046,1008.061
9.704569817,-33.52556,64.56116,-33.96156,-0.8620339,-0.2618947,0.4641457,20.09723,22.3744,3.085339,1008.061
9.737346649,-28.99074,46.53789,-15.3905,-0.9403064,-0.1908032,0.6259618,18.93288,23.12302,4.318543,1008.061
9.770124436,-47.75122,42.75596,1.347886,-0.9918243,-0.4561564,0.2096246,19.27958,24.23924,6.04133,1008.061
9.802901745,-14.39236,37.31944,15.33727,-0.9614438,-0.3490698,0.3042195,19.27958,24.23924,6.04133,1008.063
9.835678577,-14.08176,31.76472,29.93755,-0.901993,-0.2366793,0.2860987,18.55495,24.26985,8.155669,1008.061
9.870976925,-2.340928,20.00528,53.33464,-0.9227293,-0.2972515,0.2852764,19.28528,24.28594,9.460065,1008.063
9.903754711,-40.60733,7.477633,48.50861,-0.94333,-0.3950986,0.3870401,19.28528,24.28594,9.460065,1008.061
9.936532021,-33.27708,-20.94595,39.71179,-0.9105276,-0.2739398,0.5412968,20.84469,22.04088,9.928554,1008.061
9.969308853,-30.23316,-49.31044,30.91497,-0.9101244,-0.2090472,0.6976406,21.5871,21.31621,10.37419,1008.065
10.004607677,-63.59201,-66.56549,15.21509,-0.8422171,-0.3313247,0.9619314,21.5871,21.31621,10.37419,1008.065
10.037384510,-8.180283,-68.87011,16.74232,-0.3196837,-0.02956186,-0.5363164,22.71314,19.49141,10.40143,1008.065
10.070162296,-182.3669,-30.51896,21.93488,-1.066942,0.3703056,0.5734294,24.55453,18.39968,10.85138,1008.063
10.102939606,-258.0301,-41.09655,19.55241,-0.5880839,-0.1617492,0.1081001,24.55453,18.39968,10.85138,1008.063
10.135716438,-75.64345,-49.96046,39.89506,-1.279351,-0.2424802,0.1156377,23.83667,18.06586,12.97145,1008.063
10.171014786,-66.51169,-34.2418,51.56306,-1.384197,-0.05842173,0.09539175,24.63753,14.46135,16.07359,1008.063
10.203792095,-63.90262,-31.87809,66.22443,-1.353526,-0.08619977,0.126168,24.63753,14.46135,16.07359,1008.063
10.236569881,-51.16786,-32.17356,75.93758,-1.234712,0.00235404,0.2509068,26.49234,12.6399,16.47284,1008.063
10.269346714,-28.92862,-40.38744,76.30412,-0.9595829,-0.1225305,0.2412966,27.63241,10.02038,16.13955,1008.062
10.304645062,17.28924,-33.05995,77.83134,-0.7482544,0.06121668,0.3565266,27.63241,10.02038,16.13955,1008.062
10.337422371,33.99973,-21.41869,49.42494,-0.6339499,-0.0822695,0.03636618,29.13459,7.453946,15.30755,1008.062
10.370200157,97.79776,10.78682,13.38242,-0.8868377,-0.3349704,0.0007633576,31.04198,5.985746,14.89293,1008.062
10.402976990,70.46462,37.02397,-4.027947,-1.050933,0.3050382,0.2033226,31.04198,5.985746,14.89293,1008.062
10.435754299,-42.59519,29.16465,-2.745078,-1.097934,0.09962848,0.4174683,32.14773,5.254254,14.90298,1008.063
10.471052647,68.72524,32.00109,-2.683989,-0.8921767,-0.2748624,0.3164588,31.03802,6.373109,16.56549,1008.063
10.503829956,32.94367,43.70144,-7.815466,-0.9450534,0.1477447,0.499346,31.03802,6.373109,16.56549,1008.063
10.536607266,14.61804,44.58783,-4.822104,-0.9300299,-0.08746003,0.276313,30.29249,7.491941,18.28969,1008.068
10.569384575,18.53165,52.21079,0.06501666,-1.082798,0.04852074,0.3337525,29.12823,8.241409,19.58505,1008.068
10.604682923,9.710502,58.65189,10.38906,-1.063245,-0.01646673,0.2798915,27.64841,9.731518,21.67741,1008.069
10.637460232,11.76049,61.60653,15.82598,-1.150857,0.0603399,0.2241456,27.64841,9.731518,21.67741,1008.069
10.670237065,5.796894,63.14294,18.63608,-1.067734,0.00790146,0.147491,25.46082,10.13091,23.85006,1008.071
10.703014851,4.492357,68.81584,14.66529,-1.017467,0.1107725,0.1722475,24.73484,10.15049,25.15633,1008.071
10.735792160,2.380251,69.52496,9.045101,-1.057717,0.0683191,0.06891419,24.73484,10.15049,25.15633,1008.069
10.771090508,-4.577276,68.99312,5.196494,-1.114528,0.06835892,0.07289977,22.93078,9.448902,26.84843,1008.071
10.803867340,-3.707586,69.64314,5.990651,-1.149489,0.06301281,0.04651586,20.75525,9.107533,28.16231,1008.071
10.836645126,2.131768,69.9977,7.395699,-1.089242,0.02618464,-0.06909835,20.75525,9.107533,28.16231,1008.071
10.869422436,1.448439,72.06594,7.640055,-1.04959,0.0982035,-0.05582281,19.61191,8.768785,29.84782,1008.073
10.904720783,-4.204552,70.82499,5.990651,-1.042269,0.06955133,-0.1227063,18.15778,8.790108,31.15503,1008.071
10.937498093,-4.515155,69.87951,1.286797,-0.9820899,0.07916323,-0.143562,18.15778,8.790108,31.15503,1008.073
10.970274925,-3.769706,61.72472,-5.249728,-0.9633031,0.1249526,-0.2351344,17.43784,8.439304,32.03193,1008.075
11.003052711,-4.204552,59.24282,-14.59635,-0.8572801,0.05321863,-0.2424981,15.9912,8.102133,33.77998,1008.075
11.035830021,-8.739369,69.76132,-31.15147,-0.8895481,0.1500235,-0.2204249,15.9912,8.102133,33.77998,1008.073
11.071128368,-32.84223,84.35722,-51.92173,-0.9841226,0.1100589,-0.1806687,14.91321,7.38182,34.22797,1008.073
11.103905201,-28.99074,93.22112,-57.6641,-1.24356,0.1450332,-0.3023719,13.45971,7.408238,35.90813,1008.073
11.136682510,-30.73012,89.26191,-49.11164,-1.331299,0.05166414,-0.4565402,13.45971,7.408238,35.90813,1008.073
11.169460297,-57.44206,47.77884,-16.79555,-1.354715,-0.1391428,-0.6222669,10.90586,7.790671,36.77592,1008.073
11.202237129,-68.99652,-7.177353,11.48866,-1.283611,-0.2256654,-0.6131592,10.19871,6.70505,37.22916,1008.073
11.237535477,-85.89337,-41.03746,18.5139,-1.141474,-0.1321154,-0.4283131,10.19871,6.70505,37.22916,1008.073
11.270312786,-67.19502,-52.38326,8.312034,-1.077007,-0.06313996,-0.322189,10.60939,4.147173,36.83369,1008.073
11.303090572,-36.38311,-55.2197,-5.005372,-0.9966259,0.04820656,-0.235421,13.5893,0.4231954,36.01796,1008.073
11.335867405,-2.651532,-56.16519,-13.37457,-0.9397158,0.001224713,-0.2662923,13.5893,0.4231954,36.01796,1008.073
11.371165752,38.03757,-55.2788,-13.00803,-0.9774841,0.1606575,-0.266443,17.28136,-2.523953,34.38081,1008.071
11.403943062,37.04364,-57.76069,-16.06248,-1.022093,0.1036789,-0.4222126,20.63539,-3.654982,32.21814,1008.068
11.436720848,29.40279,-53.38783,-18.62822,-0.9901267,-0.07712626,-0.4768911,20.63539,-3.654982,32.21814,1008.066
11.469497681,62.3268,-58.41071,-7.998734,-0.9279379,-0.08058916,-0.41927,23.54583,-3.679795,30.90904,1008.064
11.502274990,98.60533,-62.42901,-8.548535,-0.8576279,-0.03606219,-0.4041003,26.07201,-2.609575,29.64539,1008.064
11.537573338,90.09479,-60.0653,-4.333393,-0.81734,-0.005133412,-0.277163,26.07201,-2.609575,29.64539,1008.062
11.570350647,80.09335,-61.77899,3.60818,-0.7900815,-0.01800423,-0.199709,28.23255,-1.551219,27.44982,1008.059
11.603128433,91.39932,-56.34246,0.8591738,-0.8040628,-0.06151061,-0.2058679,30.07763,0.2486258,26.1134,1008.057
11.635905266,92.20689,-58.5289,4.891049,-0.804673,0.01281315,-0.09285852,30.07763,0.2486258,26.1134,1008.057
11.671203613,98.04625,-57.16976,3.180557,-0.7676179,-0.04309613,-0.05290911,31.86745,1.67314,23.97474,1008.055
11.703980923,105.5629,-46.53308,3.302735,-0.8318143,0.006810721,-0.01287904,33.27166,4.251729,21.75623,1008.055
11.736758709,100.2205,-45.88306,8.4953,-0.8659041,0.05951772,0.0434417,34.70489,5.318623,20.05888,1008.054
11.769535542,96.24474,-37.01916,6.601542,-0.8769714,0.02614783,0.09069169,34.70489,5.318623,20.05888,1008.05
11.802312851,99.97199,-36.6646,7.029164,-0.9283426,-0.01011064,0.121194,35.77393,6.385541,18.29983,1008.048
11.837611198,144.2641,-35.95549,10.93886,-0.9117904,-0.03607659,0.07931538,36.10743,7.813546,16.16304,1008.052
11.870388985,139.8535,-33.11904,12.52718,-0.9305835,0.1225955,0.1571014,36.10743,7.813546,16.16304,1008.052
11.903165817,102.7053,-32.17356,19.98004,-0.9529527,0.1431087,0.192263,36.45435,8.511827,13.97555,1008.051
11.935943127,88.10693,-35.8964,24.74498,-0.9403074,0.1359588,0.1994642,37.14652,10.31444,12.64063,1008.049
11.971241474,63.25861,-34.3009,16.13143,-0.996977,0.07860313,0.2141259,37.14652,10.31444,12.64063,1008.049
12.004018784,60.27681,-39.79652,10.51124,-1.000224,0.008221978,0.1824698,37.86439,10.64826,10.52056,1008.049
12.036796570,68.601,-38.55557,4.035803,-0.9328933,0.07492027,0.1677687,38.2188,10.98805,8.773911,1008.049
12.069573402,58.97228,-31.22808,-1.523298,-0.9437496,0.1483855,0.1696092,38.2188,10.98805,8.773911,1008.047
12.102350712,61.39499,-22.77782,0.7369958,-1.003363,0.1137704,0.2362307,38.58007,10.96425,7.095153,1008.047
12.137649059,59.40712,-24.78697,11.97737,-1.042721,0.1347326,0.286354,38.93521,11.30998,5.783618,1008.046
12.170426846,33.68912,-21.41869,20.77419,-1.047217,0.1877854,0.2867661,38.93521,11.30998,5.783618,1008.05
12.203203678,-11.47268,-18.75952,24.86716,-1.052028,0.1576345,0.2290595,39.28358,12.02015,4.466353,1008.048
12.235980988,-23.64836,-16.4549,24.31736,-1.008191,0.09699352,0.2107552,39.72717,10.91393,3.612772,1008.048
12.271279335,-4.639397,-12.96844,17.84192,-0.9790217,0.08212204,0.2083016,39.72717,10.91393,3.612772,1008.048
12.304056168,14.12108,-8.713762,9.77817,-0.9989349,0.08743376,0.2256699,39.30793,10.54033,2.873144,1008.048
12.336833954,38.4103,-6.586426,0.9202629,-0.9912544,0.1250097,0.2270391,40.47436,9.808687,2.883116,1008.048
12.369611263,57.97835,-5.109109,-6.654775,-0.9790814,0.1109905,0.2275127,40.47436,9.808687,2.883116,1008.048
12.402388096,85.99482,-3.749977,-12.33605,-0.9549035,0.1581151,0.2514524,40.11559,9.433235,2.019093,1008.048
12.437686920,90.716,-1.799919,-13.68001,-0.9696504,0.2329688,0.2475237,40.47822,9.420475,1.1484,1008.048
12.470464707,77.54639,-1.090806,-12.76368,-0.9925569,0.2723682,0.2677359,40.47822,9.420475,1.1484,1008.047
12.503241539,56.73593,-1.859011,-9.953583,-0.9775551,0.29443,0.2705552,39.72832,10.50364,0.2619259,1008.049
12.536018849,30.27248,-0.3226015,-5.12755,-0.9581827,0.317546,0.2796203,40.08564,10.86721,0.2557259,1008.049
12.571317196,2.256009,2.691125,-1.034586,-0.9663557,0.2818806,0.2734357,39.28786,11.2157,-1.054321,1008.049
12.604094982,-9.546939,3.282052,0.2482837,-0.9614735,0.2702124,0.2705536,39.28786,11.2157,-1.054321,1008.049
12.636871815,-18.67869,4.050257,0.4315508,-0.9609364,0.2467756,0.2614417,39.28183,11.58608,-0.6249392,1008.049
12.669649124,-18.92718,3.695701,1.653331,-0.9695986,0.2090275,0.2364884,39.28932,11.22759,-0.1840975,1008.047
12.702425957,-9.919663,2.041106,2.691844,-0.9608591,0.2095942,0.2374295,39.28932,11.22759,-0.1840975,1008.047
12.737724304,-5.012122,1.450179,2.569666,-0.9841846,0.2182063,0.2432482,40.07961,11.23759,0.6851077,1008.047
12.770502091,-10.72723,0.5046961,1.592242,-0.9876476,0.244454,0.2398473,39.7148,11.23252,0.2504659,1008.047
12.803279400,-24.70441,2.868403,1.286797,-0.9822966,0.2385906,0.2306976,39.7148,11.23252,0.2504659,1008.046
12.836056232,-37.62553,5.409389,1.775509,-0.9739759,0.2073626,0.2124332,39.29077,11.23948,0.6861258,1008.047
12.871355057,-42.53307,6.827613,0.5537288,-0.9855763,0.1853692,0.215382,39.72229,10.87402,0.6913075,1008.047
12.904132843,-33.40132,5.88213,-1.340031,-0.9873911,0.1312763,0.213061,39.72229,10.87402,0.6913075,1008.05
12.936909676,-15.57265,4.936647,-3.600324,-0.9947016,0.1439251,0.2197984,39.72374,10.88591,1.561531,1008.05
12.969686985,-2.775774,4.936647,-4.150126,-1.000116,0.1750603,0.2212084,40.08855,10.89098,1.996173,1008.05
13.002463818,5.424169,4.641183,-4.211215,-0.9941969,0.130592,0.192861,40.08855,10.89098,1.996173,1008.046
13.037763119,24.86797,4.818462,-2.928345,-1.012255,0.1709322,0.2024703,39.71095,11.62073,1.985183,1008.046
13.070539951,30.024,6.118501,-1.584387,-1.007435,0.1860605,0.200992,39.71843,11.26224,2.426024,1008.05
13.103317261,35.98759,4.936647,-0.4847845,-0.970117,0.2160878,0.2018209,39.71843,11.26224,2.426024,1008.05
13.136094093,14.05896,13.44599,2.875111,-0.9488913,0.2762172,0.208419,39.29368,11.26326,2.426572,1008.048
13.168871880,-27.99681,17.05065,1.470064,-0.9021631,0.2263553,0.1958679,38.91608,11.993,2.415582,1008.046
13.204170227,-48.93151,24.02358,-3.294879,-0.866538,0.1445829,0.1602859,38.91608,11.993,2.415582,1008.046
13.236947537,-52.09967,30.05104,-9.46487,-0.8756259,0.08554219,0.1555828,39.7124,11.63262,2.855406,1008.044
13.269724369,-45.94971,29.46011,-12.88586,-0.8731728,0.07332987,0.1474123,38.93157,11.28026,3.60806,1008.044
13.302501679,-44.02397,25.38272,-18.32278,-0.8052428,0.08271864,0.08514132,38.93157,11.28026,3.60806,1008.044
13.337800503,-52.16179,30.3465,-23.2099,-0.7917507,0.1115146,0.007566682,38.93593,11.31592,6.21873,1008.043
13.370577812,-63.03293,39.56496,-21.01069,-0.8039559,0.1214918,-0.08387814,38.19571,12.05843,7.078433,1008.043
13.403355122,-83.22218,58.71099,-17.22318,-0.7870197,0.1333405,-0.1513268,38.19571,12.05843,7.078433,1008.041
13.436131954,-118.0719,72.77505,-19.11694,-0.9202179,0.01165989,-0.04974152,38.18386,12.87097,8.744306,1008.041
13.468909741,-109.4993,65.80212,-25.89782,-0.9486605,-0.2773062,-0.0372045,37.44654,13.63725,11.34446,1008.041
13.504208088,-17.00143,63.4975,-29.07444,-1.017818,-0.1740225,0.0504117,37.44654,13.63725,11.34446,1008.041
13.536985397,-14.01964,49.49253,-36.09968,-1.051334,0.04016777,0.07519918,35.64466,12.9535,14.34189,1008.045
13.569762230,-16.87719,53.56992,-31.39583,-1.009298,0.09787862,-0.0809487,33.8069,14.07495,16.06749,1008.044
13.602540016,-53.59057,63.14294,-19.72783,-1.037361,0.243143,-0.1691903,33.8069,14.07495,16.06749,1008.042
13.637838364,-105.9584,56.28819,-1.340031,-1.117349,0.229377,0.04859569,32.33238,15.18873,17.29536,1008.042
13.670615673,-99.49783,22.01443,6.112829,-1.09587,-0.004038892,0.1451689,29.38356,17.418,19.87541,1008.042
13.703392506,-1.6576,-10.54564,5.257583,-1.046824,-0.2318653,0.03179457,28.25977,15.98,21.14299,1008.042
13.736170292,26.91796,-31.28717,4.463426,-1.000354,0.03345671,0.02935902,28.25977,15.98,21.14299,1008.042
13.768947601,13.31351,-45.46941,1.225708,-1.058045,-0.00195738,0.04880369,27.88154,16.70465,20.75905,1008.042
13.804245949,-3.086378,-61.06988,18.45281,-1.221178,0.1949454,0.0546702,27.48897,18.15138,19.86638,1008.042
13.837023258,-18.11961,-68.69283,22.4236,-1.348293,-0.07320996,-0.0433033,27.48897,18.15138,19.86638,1008.042
13.869800568,6.728705,-77.32036,22.05706,-1.341313,0.07313466,0.0517692,28.18644,19.57767,17.66696,1008.044
13.902577877,10.45595,-85.23878,23.46211,-1.147257,-0.06580044,0.01012122,28.1566,21.01249,15.96575,1008.042
13.937876225,40.14968,-80.33409,27.9827,-0.9756444,0.0742323,0.1202163,28.1566,21.01249,15.96575,1008.044
13.970653534,47.04509,-72.9475,27.31072,-0.927617,0.09718391,0.1412477,29.23626,21.32676,12.47772,1008.045
14.003430367,33.3164,-62.66538,24.80607,-1.053674,0.248621,0.2881338,30.3796,21.6655,10.79221,1008.045
14.036208153,22.01042,-60.8926,20.77419,-1.193496,0.2376903,0.2851124,30.3796,21.6655,10.79221,1008.047
14.068985462,24.18464,-60.59713,16.00925,-1.140956,0.2022888,0.3139228,30.73932,21.62897,8.181071,1008.047
14.104283810,10.39383,-56.75611,11.12213,-1.041875,0.1923906,0.3122587,31.09311,21.96366,6.061472,1008.049
14.137060642,2.877217,-47.41947,7.762233,-0.9962879,0.2297839,0.3818916,31.09311,21.96366,6.061472,1008.05
14.169838429,5.175686,-42.57387,5.746295,-0.9558651,0.1764434,0.3669539,31.80298,22.72181,3.872559,1008.05
14.202615738,5.921135,-43.1648,6.112829,-0.9384056,0.1848487,0.3640117,32.17184,22.34037,2.696802,1008.05
14.237914085,8.095362,-44.70121,6.235007,-0.9097222,0.1730058,0.3774396,32.17184,22.34037,2.696802,1008.05
14.270690918,11.44988,-49.01497,6.418274,-0.8869103,0.1775895,0.3788227,31.81347,21.89823,1.398622,1008.052
14.303468704,13.99683,-53.38783,6.845898,-0.8713554,0.1704037,0.3773525,32.19493,20.78027,-0.325105,1008.052
14.336246014,19.71195,-54.98333,8.250944,-0.8262373,0.1939017,0.4104241,32.19493,20.78027,-0.325105,1008.052
14.369022846,9.399898,-54.68787,8.617478,-0.8783359,0.2634679,0.4614671,32.19285,20.76329,-1.568281,1008.052
14.404321671,13.06502,-62.72447,7.640055,-0.8713036,0.1535352,0.40289,32.92341,20.36144,-4.174161,1008.056
14.437099457,4.492357,-57.34704,7.029164,-0.8624091,0.3277555,0.5821543,32.92341,20.36144,-4.174161,1008.055
14.469876289,-3.27274,-54.51059,3.180557,-0.8252677,0.2262179,0.574036,31.82088,20.69963,-6.291882,1008.055
14.502653599,-3.334861,-44.7603,-2.317455,-0.8146878,0.2853193,0.6557534,32.1963,19.95205,-7.586226,1008.055
14.537951946,-8.056041,-40.15107,-10.50338,-0.7499557,0.2240795,0.6662821,31.82932,19.92915,-9.326203,1008.055
14.570729733,11.57413,-30.40078,-12.33605,-0.7538641,0.2287231,0.6383654,31.82932,19.92915,-9.326203,1008.05
14.603506565,7.412034,-22.71873,-14.65744,-0.6997191,0.1203918,0.6133695,31.82048,20.2766,-10.57511,1008.049
14.636283875,7.10143,-14.38666,-14.41308,-0.7422028,0.2344991,0.6845397,31.46775,19.53077,-11.86851,1008.05
14.669060707,-5.571208,-5.168201,-11.96952,-0.7309855,0.2095999,0.6624081,31.46775,19.53077,-11.86851,1008.05
14.704360008,-5.943933,0.9774376,-10.25903,-0.7469531,0.1820554,0.6427516,31.08942,20.25457,-12.31462,1008.05
14.737136841,-10.66511,4.936647,-11.05318,-0.76451,0.2216299,0.6817239,31.46775,19.53077,-11.86851,1008.052
14.769914150,-17.68476,9.782247,-14.16873,-0.7751444,0.1975426,0.662531,31.46775,19.53077,-11.86851,1008.052
14.802690983,-32.34526,13.62327,-18.7504,-0.8160462,0.2535083,0.7053848,30.36272,20.26821,-11.44345,1008.052
14.837990284,-51.54058,14.68694,-25.10366,-0.8484357,0.1888054,0.6848606,30.72076,20.63771,-11.01454,1008.056
14.870767593,-62.16323,12.02777,-30.47949,-0.8517688,0.1579839,0.66903,30.72076,20.63771,-11.01454,1008.056
14.903544426,-72.28893,0.9774376,-32.86196,-0.8780088,0.1660479,0.6695615,30.70193,21.74291,-10.16151,1008.056
14.936321735,-102.7902,-11.13656,-37.99344,-0.8909039,0.07636247,0.6750222,30.68187,22.908,-9.371589,1008.055
14.969099522,-94.21756,-21.12323,-39.70393,-0.864047,-0.007436176,0.5687039,30.68187,22.908,-9.371589,1008.055
15.004397869,-71.17075,-11.6684,-36.16077,-0.9225749,-0.3200861,0.5033674,30.67874,23.30216,-7.201759,1008.053
15.037174702,60.27681,-16.75037,-18.01733,-0.9110165,-0.1007562,0.3725603,31.02181,24.38865,-7.654531,1008.053
15.069952011,80.96304,-16.80946,-19.05585,-0.8164042,-0.02432769,0.6037557,31.02181,24.38865,-7.654531,1008.053
15.102729797,119.0431,-28.45072,-22.23248,-0.8746139,-0.05218778,0.5894949,30.27868,25.10738,-8.535275,1008.053
15.135506630,115.1916,-39.38287,-29.56316,-0.82462,-0.00964155,0.7645279,30.6513,24.33688,-11.50791,1008.055
15.170804977,113.0795,-41.21474,-31.51801,-0.895194,0.03918811,0.657278,30.6513,24.33688,-11.50791,1008.055
15.203582287,121.2794,-48.06949,-37.38255,-0.7469665,-0.004024429,0.7084973,29.93023,23.5571,-15.34935,1008.055
15.236360073,124.5718,-48.60133,-40.55918,-0.7655945,0.07843043,0.7517397,29.162,22.0486,-19.17926,1008.057
15.269136906,96.30686,-52.61963,-44.46888,-0.7312089,0.1197455,0.7684436,29.162,22.0486,-19.17926,1008.055
15.304435253,69.28432,-53.6833,-43.186,-0.7308399,0.1765225,0.8083102,28.09358,20.49707,-21.76465,1008.055
15.337212563,44.43602,-58.29253,-43.186,-0.7216151,0.1715317,0.7798954,27.02414,19.00713,-24.28883,1008.055
15.369990349,41.57846,-62.07445,-41.47551,-0.6910545,0.1763659,0.7379372,27.02414,19.00713,-24.28883,1008.055
15.402767181,41.01937,-65.7382,-34.8779,-0.6842906,0.193569,0.7523361,25.59051,17.5172,-26.8747,1008.055
15.435544491,46.67236,-77.14308,-32.98414,-0.6070961,0.2076843,0.7983425,23.78616,16.39344,-29.40367,1008.055
15.470842838,46.67236,-86.65701,-40.68135,-0.541045,0.1927926,0.748628,23.78616,16.39344,-29.40367,1008.054
15.503620625,69.09796,-86.77519,-39.58175,-0.5493368,0.1982031,0.696171,23.05364,16.35952,-32.0134,1008.054
15.536397934,81.52212,-88.90253,-34.45028,-0.4824533,0.2478246,0.6776459,19.80722,14.51632,-34.09392,1008.052
15.569174767,92.02053,-78.85677,-32.37325,-0.3298469,0.180538,0.6234728,19.80722,14.51632,-34.09392,1008.052
15.604473114,104.0098,-60.59713,-27.60831,-0.3179787,0.3218806,0.7637893,18.31364,13.03249,-36.2446,1008.052
15.637250900,70.7131,-59.94712,-22.47683,-0.3138678,0.4406094,0.8131809,15.43846,10.7573,-38.75402,1008.052
15.670028210,33.19216,-54.51059,-18.99476,-0.237161,0.4365013,0.7605367,13.66926,7.822387,-40.44628,1008.052
15.702805042,5.237806,-46.94673,-21.19396,-0.2384739,0.3826702,0.795279,13.66926,7.822387,-40.44628,1008.052
15.735582352,10.33171,-47.59675,-22.41574,-0.2650205,0.3167524,0.8031431,11.88205,5.999472,-40.78823,1008.052
15.770881176,21.88618,-49.72409,-21.92703,-0.2533238,0.2963075,0.7906308,10.05345,6.356384,-41.66183,1008.052
15.803658486,34.31033,-55.63335,-21.19396,-0.269394,0.3201988,0.8137382,10.05345,6.356384,-41.66183,1008.056
15.836435318,43.75269,-62.42901,-19.91109,-0.2797264,0.3730523,0.7925031,8.541044,5.977751,-42.95948,1008.054
15.869212627,39.40423,-65.79729,-23.08772,-0.2690643,0.3793891,0.7804343,6.018095,4.514224,-43.8035,1008.054
15.904511452,42.82088,-55.51517,-24.55386,-0.3055614,0.4182516,0.8098254,6.018095,4.514224,-43.8035,1008.053
15.937288761,35.4285,-47.00582,-28.09702,-0.185816,0.5041757,0.8354053,3.865983,2.685386,-44.64225,1008.053
15.970066071,-15.44841,-35.30547,-38.66542,-0.1388523,0.5822488,0.9401131,1.338125,1.5315,-45.05593,1008.053
16.002842903,-38.7437,-24.78697,-39.64284,-0.2133182,0.4576909,0.9775423,1.338125,1.5315,-45.05593,1008.053
16.035620689,-31.97254,-31.40535,-37.0771,-0.1686058,0.44758,1.010666,0.1913522,1.164732,-45.42166,1008.051
16.070919037,-26.87864,-24.01877,-39.70393,-0.05828564,0.3959559,0.948386,-2.385465,2.688479,-45.50441,1008.051
16.103696346,-25.82258,-18.52315,-43.06383,-0.01186955,0.4791125,0.9442996,-2.385465,2.688479,-45.50441,1008.051
16.136473179,-32.59375,-11.84567,-45.75174,0.01335739,0.493114,0.9663613,-2.769826,3.782662,-45.52113,1008.053
16.169250965,-28.43165,-9.068318,-47.88986,0.01241783,0.4804666,0.9697521,-4.247042,4.874369,-45.90939,1008.053
16.204549313,-38.12249,-13.61845,-47.88986,-0.02122663,0.5477015,1.013535,-4.247042,4.874369,-45.90939,1008.052
16.237326622,-53.96329,-21.89143,-41.96423,-0.02605278,0.5274116,0.9731422,-4.631507,5.967704,-45.98827,1008.05
16.270103455,-45.88759,-27.50524,-37.50473,-0.03796631,0.4227418,0.923748,-5.372458,6.704266,-45.56367,1008.05
16.302881241,-13.0257,-33.70997,-32.80087,-0.05530132,0.3597092,0.9152195,-5.372458,6.704266,-45.56367,1008.05
16.335658550,3.498425,-40.09198,-33.16741,-0.1005861,0.4159414,0.9316085,-6.86247,8.530792,-45.52829,1008.05
16.370956898,-15.75902,-44.40574,-35.18335,-0.1051249,0.488025,0.937287,-8.333028,9.257212,-45.97298,1008.05
16.403734207,-33.40132,-40.50563,-41.78096,-0.118581,0.4239269,0.9109406,-8.333028,9.257212,-45.97298,1008.048
16.436511517,-19.42414,-35.77821,-46.36263,-0.1460888,0.3505785,0.9019705,-10.57755,9.267689,-45.59713,1008.048
16.469288826,-1.6576,-33.35541,-46.17937,-0.1554358,0.41781,0.9861296,-12.40532,9.631392,-45.97346,1008.046
16.504587174,-9.733301,-30.40078,-44.8965,-0.1117168,0.4164341,1.015872,-13.88056,10.73923,-45.18071,1008.051
16.537364483,-1.222754,-22.71873,-38.54324,-0.1075659,0.2827315,0.9043882,-13.88056,10.73923,-45.18071,1008.051
16.570142269,37.85122,-21.71415,-18.50604,-0.03262071,0.2071784,0.8754426,-16.05285,10.00456,-45.9745,1008.051
16.602919102,42.94512,-15.92307,-12.33605,0.07704971,0.2383499,0.8838,-16.76894,9.265541,-46.83232,1008.051
16.635696411,14.1832,-11.25475,-14.90179,0.1274941,0.2641837,0.8961568,-16.76894,9.265541,-46.83232,1008.051
16.670994759,-14.39236,-7.76828,-20.52198,0.1367268,0.2557803,0.8672659,-18.55697,7.435831,-47.67154,1008.051
16.703772545,-20.10747,-9.422874,-24.3095,0.1504004,0.2202337,0.8518835,-18.90898,6.69594,-48.52983,1008.051
16.736549378,6.231739,-10.90019,-29.19662,0.1971558,0.1531183,0.8095139,-18.90898,6.69594,-48.52983,1008.051
16.769326687,36.36032,-14.32757,-29.56316,0.2014441,0.1978425,0.8623861,-20.06938,7.057198,-48.96919,1008.051
16.804625035,14.92865,-29.69166,-35.06116,0.4219012,0.2508535,1.146749,-21.12988,5.220648,-50.18231,1008.051
16.837402821,96.61747,11.25956,-28.15811,0.245644,0.3297698,1.571128,-21.12988,5.220648,-50.18231,1008.051
16.870179653,139.8535,-43.81482,42.21644,-0.01717283,0.497346,1.121426,-22.92323,3.767263,-50.15704,1008.052
16.902956963,84.25543,-23.48693,62.55909,0.4433633,0.5651883,0.8684791,-22.85459,0.06130457,-50.16094,1008.051
16.935734749,47.23145,1.095623,39.77288,0.08735492,0.3572983,0.6770921,-22.85459,0.06130457,-50.16094,1008.055
16.971033096,144.4505,4.109349,27.49398,0.05760811,0.4040583,0.6433969,-24.24111,-3.561743,-48.79643,1008.055
17.003810406,152.2156,14.39148,11.61084,0.07625119,0.7486472,0.7270716,-24.58417,-4.648237,-48.34365,1008.055
17.036587238,82.01909,15.57333,-1.950921,-0.1103946,0.8381102,0.7894751,-24.58417,-4.648237,-48.34365,1008.055
17.069365025,38.03757,1.272901,-1.889832,0.003821787,0.7968048,0.8056328,-25.20084,-10.52039,-46.94474,1008.056
17.104663372,39.71484,-8.536485,7.762233,0.09066062,0.8139901,0.7211626,-24.041,-14.16738,-46.88885,1008.058
17.137440681,5.796894,-8.122836,10.81668,0.1216842,0.8255461,0.6647523,-24.041,-14.16738,-46.88885,1008.058
17.170217514,-17.87112,6.236686,7.27352,0.151012,0.7444625,0.6657676,-25.09807,-15.97591,-46.05073,1008.058
17.202995300,-23.21351,7.654911,9.533813,0.1036149,0.6813514,0.752139,-25.08445,-16.70393,-45.97712,1008.056
17.235772610,-8.925732,2.57294,16.3147,0.08336036,0.6227447,0.753238,-25.08445,-16.70393,-45.97712,1008.061
17.271070957,8.840811,-1.090806,15.58163,0.06797682,0.5573469,0.7524104,-25.11898,-14.88769,-46.44088,1008.062
17.303847790,30.45884,-4.872738,9.77817,0.08924223,0.5973876,0.7417096,-24.03351,-14.52587,-46.44802,1008.058
17.336625576,40.70877,-7.000075,5.746295,0.1456512,0.7567409,0.6869418,-24.03351,-14.52587,-46.44802,1008.058
17.369402886,21.9483,1.863828,3.791447,0.1575528,0.8526357,0.6651078,-25.13116,-14.14778,-45.64427,1008.062
17.402179718,-10.47875,6.886705,6.662631,0.1401741,0.8055881,0.64404,-26.18271,-16.33093,-45.54632,1008.062
17.437478542,-32.90435,13.50509,-3.722502,0.1521807,0.659164,0.6548221,-25.46215,-15.97503,-46.05026,1008.061
17.470255852,-30.04679,21.83715,-15.51268,0.1546423,0.6536513,0.6995912,-25.46215,-15.97503,-46.05026,1008.061
17.503033161,-33.6498,25.26453,-25.28693,0.1904817,0.6908914,0.6888602,-25.09724,-15.96911,-45.55346,1008.061
17.535810471,-43.09216,38.73766,-29.13553,0.1829533,0.8173272,0.8099906,-24.03424,-14.53182,-46.88313,1008.061
17.571109295,-84.46459,31.1738,-12.58041,0.1796197,0.7844773,0.7826104,-24.03424,-14.53182,-46.88313,1008.059
17.603886604,-112.2947,33.89206,-9.770315,0.3160594,0.5951225,0.8437051,-22.95625,-13.8115,-47.3311,1008.059
17.636663437,-122.6068,40.21498,-0.4236955,0.2657033,0.5489525,0.9185052,-20.84907,-9.831709,-49.1374,1008.061
17.669440746,-127.5143,32.88749,26.94418,0.3909712,0.5645133,0.974504,-20.84907,-9.831709,-49.1374,1008.061
17.702218533,-167.1473,54.39722,28.83794,0.3298292,0.5343125,0.9073039,-19.05099,-5.408178,-49.64466,1008.062
17.737516880,-214.1728,38.97403,33.84724,0.264174,0.3861808,0.9760362,-17.33733,0.4303379,-48.86846,1008.062
17.770293713,-264.2422,34.24662,28.83794,0.01159888,0.4464741,1.125285,-17.33733,0.4303379,-48.86846,1008.062
17.803071022,-255.1104,-10.95928,44.59891,-0.1648024,-0.08500046,1.251177,-14.94034,8.908627,-45.95872,1008.062
17.835848808,-43.40276,-25.31881,52.54048,-0.04766744,-0.4378631,0.7248216,-12.93177,18.86761,-41.45529,1008.062
17.871147156,27.41492,-3.80907,43.07169,-0.08149356,0.1124332,0.756805,-12.93177,18.86761,-41.45529,1008.061
17.903923988,-58.68447,13.09144,30.7317,-0.2255792,0.0596888,0.7692603,-12.68616,25.52301,-38.94918,1008.065
17.936701298,-86.2661,21.4826,21.81271,-0.3948913,0.03033563,0.9540676,-10.47247,24.07786,-37.62375,1008.063
17.969479084,-105.5235,12.50051,10.57233,-0.4563898,-0.009463733,1.117936,-10.47247,24.07786,-37.62375,1008.061
18.002255917,-99.1251,-4.990923,2.508577,-0.4631611,-0.2328606,1.078336,-10.50878,26.29929,-35.10962,1008.061
18.037554741,-53.77693,-6.881889,2.447488,-0.3815906,-0.2595374,0.9260727,-8.677551,29.24509,-32.60938,1008.061
18.070331574,-72.84801,-4.459089,-1.523298,-0.42104,-0.2162575,0.8938497,-8.677551,29.24509,-32.60938,1008.06
18.103109360,-102.0448,-1.563548,-5.616262,-0.3171945,-0.4012865,0.8457462,-8.715212,31.45549,-30.90331,1008.06
18.135886669,-61.29354,-2.27266,-4.150126,-0.2774083,-0.5938676,0.839203,-8.745785,33.37408,-28.32224,1008.06
18.171185017,-24.82865,-17.75494,-5.73844,-0.1490579,-0.4362358,0.9407097,-8.745785,33.37408,-28.32224,1008.06
18.203962803,21.14073,-22.60054,-11.66407,-0.08620925,-0.5374901,0.8723598,-9.140139,35.22601,-26.23702,1008.06
18.236739636,70.83735,-44.70121,0.003927643,-0.05918248,-0.2489042,0.9469532,-9.881817,35.95663,-26.24755,1008.06
18.269516945,-17.18779,-48.24677,0.6148178,0.058385,-0.07171992,0.9314851,-9.881817,35.95663,-26.24755,1008.058
18.302293778,-63.28141,-37.55099,6.05174,0.1419904,-0.3444301,0.765628,-10.6668,35.5703,-27.98124,1008.058
18.337593079,-90.49031,-23.13238,-1.950921,0.1574967,-0.5357226,0.7634727,-12.12093,35.59163,-26.67403,1008.056
18.370369911,-68.25108,-8.950133,-2.134188,0.2890963,-0.7369974,0.7971593,-12.12093,35.59163,-26.67403,1008.056
18.403147221,-41.16641,17.28702,-6.899131,0.2220209,-0.6966779,0.8627228,-12.5003,36.72657,-23.70712,1008.06
18.435924053,-30.3574,19.828,-1.950921,0.1375566,-0.689925,0.954853,-13.25863,38.58022,-21.55928,1008.06
18.471223354,-10.35451,12.02777,-2.6229,0.07330599,-0.6514779,0.8177594,-13.27819,39.67947,-21.14136,1008.059
18.504000187,36.67092,11.31866,0.9202629,0.015752,-0.5610143,0.7287076,-13.27819,39.67947,-21.14136,1008.059
18.536777496,33.44064,7.950374,4.891049,-0.04100767,-0.3606602,0.8228872,-12.56356,40.4066,-21.15376,1008.06
18.569555283,-7.745436,5.113925,5.074316,-0.03575168,-0.3265907,0.8131962,-12.91702,39.65483,-22.88227,1008.06
18.602332115,-29.79831,1.863828,-1.645476,-0.01977749,-0.5206826,0.7580942,-12.91702,39.65483,-22.88227,1008.059
18.637630940,-10.10603,4.34572,-3.84468,-0.01776508,-0.5372469,0.8250237,-12.18138,39.29459,-22.44237,1008.057
18.670407772,-22.15746,8.659486,-4.883193,-0.001229248,-0.5442706,0.8456936,-11.81584,39.3056,-21.57262,1008.057
18.703185558,-24.70441,17.4052,-8.792892,0.05152981,-0.6656482,0.9073657,-11.81584,39.3056,-21.57262,1008.055
18.735962868,-17.43628,18.29159,-6.227152,-0.05829407,-0.6178928,0.9730194,-12.19272,40.04129,-21.14849,1008.055
18.771261215,3.93327,11.85049,-10.50338,-0.01257678,-0.6774802,0.8237786,-13.29036,40.41939,-20.34475,1008.053
18.804038048,24.0604,14.74603,-14.8407,0.002682511,-0.5635135,0.8052789,-13.29036,40.41939,-20.34475,1008.052
18.836815834,0.7029896,12.20505,-15.3905,-0.01177345,-0.4093642,0.7877519,-12.20551,40.77611,-20.72484,1008.05
18.869593143,-1.098513,5.291203,-16.91773,-0.01244851,-0.5426418,0.7431877,-12.53724,38.94291,-21.56595,1008.048
18.902369976,23.25283,7.595818,-16.49011,0.04277414,-0.505859,0.6433594,-12.53724,38.94291,-21.56595,1008.048
18.937669277,21.32709,26.44638,-6.104974,0.08451304,-0.4921835,0.668752,-12.92233,40.03115,-22.01778,1008.046
18.970446110,1.324197,37.26034,5.318672,0.0601635,-0.4323744,0.8241994,-14.35835,38.94133,-21.99871,1008.046
19.003223419,-38.37098,38.56038,9.717081,-0.009815144,-0.5747582,1.024345,-14.35835,38.94133,-21.99871,1008.046
19.036000252,-8.553007,18.46887,3.180557,-0.1222871,-0.8330092,1.142453,-13.63238,38.92175,-23.30498,1008.046
19.068778038,82.32969,-9.600153,5.196494,-0.110987,-0.6858936,1.133059,-13.27288,39.30315,-22.00585,1008.046
19.104076862,71.95552,-22.60054,2.814022,-0.0750254,-0.3149052,1.00004,-13.27288,39.30315,-22.00585,1008.046
19.136853695,15.23925,-15.92307,1.592242,-0.07330675,-0.2406001,0.8973939,-13.26903,38.91494,-23.74057,1008.045
19.169631004,-38.80582,-9.363782,3.730358,-0.007112219,-0.3153793,0.8501762,-12.88071,37.43339,-25.3964,1008.049
19.202408791,-55.57843,-0.2635088,4.21907,0.05050087,-0.4453306,0.8637135,-12.88071,37.43339,-25.3964,1008.049
19.237707138,-48.18606,2.927496,4.096892,0.02555269,-0.5666032,0.8937998,-13.25082,37.80464,-24.96655,1008.043
19.270483971,-30.91648,-0.4998795,5.746295,-0.01469774,-0.5939135,0.8669803,-13.61137,37.83438,-22.85268,1008.043
19.368815899,-57.44206,-3.513606,2.203132,-0.02774864,-0.6294638,0.8131523,-12.91411,39.6786,-21.14182,1008.044
19.404114246,-16.81507,-3.749977,-5.494084,-0.01861932,-0.8041414,0.7565933,-12.19522,40.44054,-18.60571,1008.044
19.436892033,27.72553,-7.059167,-3.23379,-0.04570637,-0.6411032,0.7718153,-12.19522,40.44054,-18.60571,1008.044
19.469669342,19.09074,-5.050016,-2.989434,-0.02160453,-0.5643571,0.7831952,-13.66763,41.22176,-19.48647,1008.044
19.502446175,20.51952,-0.6180649,-0.7902296,-0.02888543,-0.5658924,0.7812893,-13.66037,40.79149,-19.85274,1008.042
19.537745476,23.31495,1.92292,1.042441,-0.02313437,-0.5240915,0.832237,-13.66037,40.79149,-19.85274,1008.04
19.570522308,5.983256,1.213808,0.7980849,-0.04403575,-0.4831846,0.9968506,-13.6611,40.78555,-20.28785,1008.038
19.603299618,-25.26349,-3.986348,-2.745078,-0.04420693,-0.6101084,1.024961,-13.64903,40.04478,-21.14662,1008.038
19.636076450,-9.546939,-17.87313,-9.953583,0.01341815,-0.7484596,1.021182,-13.64903,40.04478,-21.14662,1008.038
19.668854237,46.92085,-12.31842,-21.80485,0.1036883,-0.7635758,0.8399989,-13.6483,40.05073,-20.7115,1008.038
19.704153061,71.27219,-7.354631,-31.51801,0.07666546,-0.6091281,0.9505435,-14.36969,39.68804,-20.70483,1008.038
19.736929894,68.91161,-6.468241,-45.62957,0.09727039,-0.5051522,0.8896863,-14.36969,39.68804,-20.70483,1008.038
19.769707680,110.2219,-10.0138,-46.60699,0.05888917,-0.302256,0.8370031,-15.08869,38.92524,-23.3031,1008.038
19.802484989,51.14506,-7.76828,-42.45294,0.1144439,0.04277451,0.939844,-15.42467,37.05723,-26.69272,1008.038
19.837783337,-54.21178,4.700276,-29.19662,0.08744196,-0.05652143,0.8408973,-15.42467,37.05723,-26.69272,1008.038
19.870560169,-96.4539,15.33696,-13.1913,0.03824998,-0.2168586,0.7454646,-16.83365,34.50966,-26.65073,1008.038
19.903337955,-115.9598,14.03692,1.836598,-0.03130278,-0.3733106,0.7429772,-17.55213,34.17075,-24.90361,1008.042
19.936115265,-115.6492,9.19132,14.84856,-0.03068389,-0.4626536,0.5712643,-17.55213,34.17075,-24.90361,1008.042
19.968892097,-104.5296,15.63242,27.67725,-0.02904914,-0.5391616,0.5631925,-17.60051,37.13295,-21.53072,1008.042
20.004190445,-80.55099,-27.74161,-31.21256,-0.1436532,-2.021718,0.2802513,-16.91325,39.73491,-17.71792,1008.042
20.036968231,164.0185,-6.586426,25.84458,-0.07877873,-0.8265768,0.7543629,-16.91325,39.73491,-17.71792,1008.042
20.069745541,81.1494,-3.631792,14.6042,0.07394601,-0.7500878,0.6441349,-16.93426,40.82227,-18.17022,1008.044
20.102522373,44.12541,31.35108,16.2536,0.0723763,-0.4882044,0.6952497,-16.56165,40.05177,-21.14286,1008.046
20.137821674,-21.66049,49.78799,18.08628,-0.08180942,-0.340003,0.9009334,-16.56165,40.05177,-21.14286,1008.046
20.170598507,-94.90089,22.72355,16.00925,-0.04757226,-0.6318371,0.9860117,-16.53002,38.21175,-22.41954,1008.046
20.203375816,1.696922,8.364022,11.91629,-0.0898637,-1.022349,0.9804429,-15.44237,38.5914,-21.12135,1008.052
20.236153126,145.1338,-15.27305,8.067677,-0.05927807,-0.5893067,1.092838,-15.44237,38.5914,-21.12135,1008.052
20.268930435,92.33114,-22.06871,5.746295,-0.06311884,-0.2047877,1.062423,-14.37042,39.68209,-21.13995,1008.054
20.304229260,-1.719721,-19.58682,6.357185,0.009271851,-0.2505221,0.9121352,-14.7064,37.81408,-24.52956,1008.054
20.337006092,-29.1771,-12.49569,7.090253,0.08469263,-0.3312797,0.8345788,-14.7064,37.81408,-24.52956,1008.054
20.369783878,-24.82865,-2.213567,3.852536,0.1120371,-0.3938256,0.84231,-13.9512,36.35458,-24.50758,1008.054
20.402561188,-26.44379,4.818462,3.486001,0.03346501,-0.4198457,0.907038,-13.95796,36.71902,-24.51331,1008.054
20.437859535,-37.2528,3.45933,5.196494,-0.02845773,-0.5213294,0.8856766,-14.69756,37.46663,-23.28065,1008.054
20.470636368,-20.66656,2.100199,5.135405,-0.0259165,-0.5725742,0.867456,-14.69756,37.46663,-23.28065,1008.054
20.503414154,-13.33631,0.03195459,4.280159,-0.04489996,-0.554262,0.8621786,-14.35232,38.57095,-22.42809,1008.054
20.536191464,-10.47875,-2.213567,4.402337,-0.03562311,-0.5811689,0.8337967,-14.70891,38.21333,-21.98678,1008.054
20.568968296,-5.633329,-2.509031,4.524515,-0.034157,-0.5870714,0.8236935,-14.70891,38.21333,-21.98678,1008.054
20.604267597,-5.260605,-1.149899,5.501939,-0.03325042,-0.562312,0.8111387,-13.99282,38.95235,-21.12896,1008.056
20.637044430,-2.403049,-0.2635088,5.563028,-0.03176935,-0.5705057,0.8217375,-14.00031,39.31084,-21.5698,1008.056
20.669821739,-2.403049,0.2683253,3.730358,-0.02448038,-0.5663177,0.8549278,-14.00031,39.31084,-21.5698,1008.056
20.702598572,0.8893519,0.2683253,2.569666,-0.02007458,-0.5839079,0.8414658,-13.63623,39.30997,-21.57027,1008.056
20.737897873,14.80441,1.568364,1.531153,-0.01963287,-0.5684262,0.8260378,-13.99282,38.95235,-21.12896,1008.06
20.770674706,15.17713,2.809311,1.408975,-0.02899952,-0.5025135,0.8606187,-13.99282,38.95235,-21.12896,1008.058
20.803452015,-1.098513,3.813886,0.6148178,-0.03092855,-0.508384,0.8591881,-13.62947,38.94553,-21.56454,1008.058
20.836229801,3.249941,3.932071,2.814022,-0.03375346,-0.548445,0.8448144,-13.99427,38.94046,-21.99918,1008.058
20.869006634,11.88473,3.341145,4.21907,-0.03085811,-0.5396107,0.8510518,-13.99427,38.94046,-21.99918,1008.058
20.904305458,16.35743,3.341145,7.823322,-0.02999169,-0.4937584,0.8601265,-13.27288,39.30315,-22.00585,1008.058
20.937082291,16.97863,2.691125,9.411635,-0.05036066,-0.5026314,0.8693341,-13.26081,38.56239,-22.86461,1008.058
20.969860077,2.628734,2.041106,3.791447,-0.04837731,-0.5110637,0.9150715,-13.26081,38.56239,-22.86461,1008.058
21.002637863,15.61198,-1.268084,8.373122,-0.06717505,-0.5762239,0.8824816,-12.89601,38.56746,-22.42997,1008.058
21.037935734,17.35136,-3.218143,5.196494,-0.06265027,-0.4288101,0.9241272,-12.53401,38.54961,-23.67362,1008.058
21.070713520,17.72408,0.15014,1.408975,-0.06038086,-0.5908769,0.7982493,-12.53401,38.54961,-23.67362,1008.058
21.103490353,51.89051,2.691125,5.379761,-0.05827978,-0.4403871,0.8649268,-12.52797,38.17923,-24.103,1008.058
21.136267662,-4.204552,5.291203,-4.944283,-0.06076272,-0.3993413,0.9572923,-11.80127,38.16559,-24.97416,1008.064
21.169044495,12.50594,2.927496,-5.860618,-0.09247784,-0.5515059,0.8955012,-11.80127,38.16559,-24.97416,1008.062
21.204343796,-6.006054,-7.413723,-7.937644,-0.04950939,-0.4297366,0.9852303,-11.7892,37.42483,-25.83293,1008.062
21.237120628,-5.446967,-8.063743,-1.950921,-0.06516299,-0.3993461,0.8918375,-12.15859,37.80202,-24.96796,1008.062
21.269897938,-9.733301,-10.13199,2.997289,-0.04862552,-0.4119011,0.887485,-12.15859,37.80202,-24.96796,1008.061
21.302675724,-11.41056,-5.818221,6.662631,-0.01019322,-0.4503542,0.8446106,-12.51663,37.43252,-25.39687,1008.061
21.335452557,-5.633329,-1.563548,4.952138,-0.0154204,-0.4935699,0.8697189,-13.24406,37.4402,-24.96082,1008.061
21.370751381,0.7651103,1.450179,1.408975,-0.03141694,-0.5033806,0.8789175,-13.25613,38.18097,-24.10206,1008.061
21.403528214,8.840811,3.932071,2.203132,-0.03534031,-0.4873512,0.8774585,-13.25613,38.18097,-24.10206,1008.059
21.436306000,15.23925,6.295779,3.241646,-0.03640657,-0.4413645,0.908199,-13.6149,37.80552,-24.96608,1008.059
21.469083309,26.48311,10.01862,1.531153,-0.0420578,-0.5220135,0.8736758,-11.78171,37.06633,-25.39208,1008.057
21.504381657,26.79372,2.927496,-3.111612,-0.09757924,-0.4376942,0.9492543,-11.78171,37.06633,-25.39208,1008.063
21.537159443,14.36956,-1.445362,-3.783592,-0.0573509,-0.4076996,0.9418932,-12.51735,37.42657,-25.83199,1008.063
21.569936276,2.504492,-2.331753,-1.278942,-0.05894926,-0.3467865,0.9485443,-11.77641,36.69001,-26.25658,1008.063
21.602713585,-8.987852,-7.11826,-0.9734967,-0.0446776,-0.4300711,0.9313069,-11.77641,36.69001,-26.25658,1008.063
21.635490418,-1.906083,-7.650094,-1.340031,-0.02626585,-0.4153867,0.9196885,-11.77037,36.31963,-26.68596,1008.063
21.670789719,-22.5923,-6.881889,-2.561811,-0.04899025,-0.4499182,0.9539711,-12.14724,37.05532,-26.26184,1008.065
21.703566551,-29.73619,-2.745401,-1.767654,-0.03685767,-0.4640664,0.8658744,-12.14724,37.05532,-26.26184,1008.065
21.736343861,-4.204552,-1.445362,-1.462209,-0.05570158,-0.5021656,0.8727156,-11.78244,37.06039,-25.82719,1008.065
21.769121647,-3.645465,-1.504455,-0.6680515,-0.02136791,-0.4374163,0.8975673,-12.52412,37.79101,-25.83772,1008.065
21.804419995,-6.627262,-0.02713809,-0.7291406,-0.02954266,-0.4726047,0.889938,-12.52412,37.79101,-25.83772,1008.065
21.837196827,-1.036392,-0.2044161,-0.4847845,-0.03973752,-0.4711417,0.9024754,-12.52339,37.79696,-25.4026,1008.063
21.869974613,0.578748,-0.2044161,-0.05716138,-0.03493071,-0.4526712,0.8913649,-13.25154,37.7987,-25.40166,1008.061
21.902751923,-2.340928,0.7410668,-0.1793394,-0.03053974,-0.4603903,0.896661,-13.25154,37.7987,-25.40166,1008.061
21.935528755,-2.713653,0.6228814,-0.4847845,-0.03973429,-0.473617,0.8967027,-13.24478,37.43426,-25.39593,1008.061
21.970827579,-0.4151844,0.6819741,-0.7291406,-0.04266609,-0.4688781,0.881299,-13.24333,37.44615,-24.52571,1008.063
22.003604889,-0.5394259,0.7410668,-0.5458735,-0.04852244,-0.4557503,0.885144,-13.24333,37.44615,-24.52571,1008.063
22.036382198,-3.086378,0.7410668,-0.2404284,-0.04946157,-0.4648545,0.9077839,-12.52194,37.80884,-24.53238,1008.063
22.069159508,-1.843962,-0.5589722,-0.1182504,-0.03049702,-0.4779065,0.8990942,-12.88674,37.80377,-24.96702,1008.063
22.104458332,-1.284875,-0.7362503,-0.3015174,-0.02565316,-0.47401,0.8933004,-12.88674,37.80377,-24.96702,1008.063
22.137235642,-1.533358,-0.9135283,-0.3015174,-0.0372922,-0.4814561,0.8870816,-12.88529,37.81566,-24.0968,1008.063
22.170012474,2.380251,-0.6180649,-0.3015174,-0.03583614,-0.481454,0.885634,-12.14506,37.07315,-24.9565,1008.063
22.202789784,3.312062,-0.2044161,-0.1793394,-0.03733264,-0.4623884,0.8976429,-12.14506,37.07315,-24.9565,1008.063
22.235567570,-0.228822,0.09104726,-0.2404284,-0.03298884,-0.4516508,0.8956909,-13.25154,37.7987,-25.40166,1008.063
22.270865917,-2.713653,-0.02713809,-0.3015174,-0.03342075,-0.4740514,0.8966884,-12.87395,37.06895,-25.39067,1008.063
22.303642750,-0.6636675,-0.1453235,-0.6069626,-0.03924215,-0.4780564,0.8880438,-12.87395,37.06895,-25.39067,1008.063
22.336420536,-0.7257883,0.6819741,-0.5458735,-0.04558766,-0.4639786,0.8890004,-13.24406,37.4402,-24.96082,1008.067
22.369197846,-1.906083,0.5637887,-0.3015174,-0.0426512,-0.4731911,0.8914141,-12.88601,37.80972,-24.53191,1008.066
22.404496193,-0.228822,0.2092326,-0.4236955,-0.0382687,-0.4790224,0.8880429,-13.23053,36.71133,-24.94936,1008.067
22.437273979,-0.6015468,-0.02713809,-0.3626065,-0.03680423,-0.4829299,0.8846759,-13.23053,36.71133,-24.94936,1008.067
22.470050812,1.696922,-0.1453235,0.003927643,-0.03439637,-0.4741298,0.8865823,-13.97825,37.81233,-24.5305,1008.067
22.502828121,-0.228822,0.8001595,0.1261057,-0.03587959,-0.4599077,0.9024494,-13.2373,37.07577,-24.95509,1008.066
22.535604954,-1.471238,0.2092326,-0.2404284,-0.03243636,-0.4798976,0.8952509,-13.2373,37.07577,-24.95509,1008.066
22.570904255,2.442371,0.09104726,0.003927643,-0.03826778,-0.4769872,0.9005553,-13.61355,37.81656,-24.15802,1008.064
22.603681564,-0.9121506,-0.2044161,0.003927643,-0.04218792,-0.4634331,0.8933237,-12.5159,37.43846,-24.96176,1008.064
22.636458397,2.069647,-0.5589722,0.1261057,-0.03731282,-0.4726863,0.8875498,-12.5159,37.43846,-24.96176,1008.064
22.669236183,0.7029896,-0.4998795,0.003927643,-0.03393601,-0.4623969,0.8923398,-13.24406,37.4402,-24.96082,1008.07
22.704534531,0.2060234,0.09104726,-0.2404284,-0.03488461,-0.4711447,0.8962062,-13.25082,37.80464,-24.96655,1008.068
22.737311840,1.386318,-0.1453235,-0.1182504,-0.03100978,-0.4646972,0.9082214,-13.25082,37.80464,-24.96655,1008.066
22.770088673,-1.160634,0.327418,0.06501666,-0.03346439,-0.4550338,0.9000294,-13.24333,37.44615,-24.52571,1008.066
22.802866459,-1.719721,0.15014,-0.1793394,-0.03826532,-0.4799797,0.8904512,-13.24406,37.4402,-24.96082,1008.07
22.835643768,0.8893519,-0.1453235,-0.5458735,-0.03923554,-0.481489,0.8846794,-13.24406,37.4402,-24.96082,1008.068
22.870942116,0.9514727,0.03195459,-0.9124076,-0.04654302,-0.4708118,0.8880502,-12.88008,37.43849,-25.02345,1008.068
22.903719902,1.199956,0.15014,-0.3626065,-0.04023201,-0.4702755,0.887553,-13.24333,37.44615,-24.52571,1008.068
22.936496735,1.137835,0.2092326,-0.1182504,-0.03394073,-0.459945,0.894743,-13.24333,37.44615,-24.52571,1008.068
22.969274044,-0.5394259,0.327418,0.2482837,-0.0339325,-0.4628471,0.8976355,-12.87249,37.08084,-24.52045,1008.068
23.004572868,-0.7879091,0.09104726,0.1261057,-0.03196593,-0.4730584,0.8976462,-12.88071,37.43339,-25.3964,1008.068
23.037350178,1.137835,0.09104726,0.1261057,-0.03002747,-0.4720916,0.8942706,-12.88071,37.43339,-25.3964,1008.068
23.070127010,0.3923857,0.3865107,-0.3626065,-0.04315151,-0.4673642,0.889481,-13.25082,37.80464,-24.96655,1008.068
23.102904320,-0.5394259,0.09104726,-0.1182504,-0.03828316,-0.4711663,0.897177,-12.88747,37.79783,-25.40213,1008.066
23.135682106,0.01966106,0.09104726,0.003927643,-0.03682405,-0.472632,0.894769,-12.88747,37.79783,-25.40213,1008.066
23.170980454,0.8272311,0.15014,0.3093727,-0.03636159,-0.4618765,0.9000466,-12.87395,37.06895,-25.39067,1008.066
23.203757763,-0.4773052,-0.1453235,0.4315508,-0.03344094,-0.4652748,0.8981193,-12.88674,37.80377,-24.96702,1008.068
23.236535072,-0.228822,-0.08623077,0.3704617,-0.03923481,-0.4784463,0.9020039,-12.88674,37.80377,-24.96702,1008.066
23.269312382,1.075714,0.03195459,-0.05716138,-0.03779016,-0.4755924,0.8904434,-13.24271,37.45124,-24.15276,1008.065
23.304610729,2.442371,0.3865107,-0.2404284,-0.04264669,-0.4756463,0.8885296,-12.88601,37.80972,-24.53191,1008.065
23.337388516,2.31813,-0.02713809,0.1261057,-0.03929181,-0.4540817,0.9038927,-12.88601,37.80972,-24.53191,1008.069
23.370165825,0.08178183,-0.2635088,0.06501666,-0.034903,-0.4628451,0.8990819,-12.88601,37.80972,-24.53191,1008.069
23.402942658,0.01966106,-0.3226015,0.003927643,-0.03878697,-0.4648893,0.8899483,-12.5159,37.43846,-24.96176,1008.069
23.435719967,0.08178183,-0.02713809,0.1261057,-0.04121158,-0.4638484,0.9024679,-13.23657,37.08171,-24.51998,1008.067
23.471018791,-0.2909428,-0.1453235,-0.5458735,-0.03099221,-0.4719993,0.9087136,-13.23657,37.08171,-24.51998,1008.067
23.503796101,2.007526,-0.8544356,-0.6069626,-0.04216082,-0.4761427,0.8866037,-12.5159,37.43846,-24.96176,1008.067
23.536572933,4.057512,-0.4407869,-0.3015174,-0.04074715,-0.4581139,0.8860919,-12.88674,37.80377,-24.96702,1008.067
23.569350720,-0.228822,0.2683253,-0.2404284,-0.03931483,-0.443834,0.9067655,-12.88674,37.80377,-24.96702,1008.065
23.602128029,-0.6015468,-0.2044161,0.3093727,-0.03537057,-0.4701446,0.9005381,-12.50165,36.71553,-24.51519,1008.065
23.637426376,1.137835,-0.4998795,0.1871947,-0.0324824,-0.4594023,0.9009964,-13.60886,37.43513,-25.39546,1008.063
23.670204163,-1.781841,-0.08623077,0.003927643,-0.04317358,-0.4576069,0.8918732,-13.60886,37.43513,-25.39546,1008.063
23.702980995,-0.6636675,0.03195459,-0.05716138,-0.03246813,-0.4662508,0.8966744,-13.25092,37.80379,-25.02871,1008.063
23.735758305,-0.9121506,0.09104726,0.003927643,-0.03540044,-0.4574785,0.9010004,-12.87998,37.43933,-24.96129,1008.063
23.771057129,-1.781841,0.15014,0.003927643,-0.02807975,-0.475021,0.8909009,-12.87998,37.43933,-24.96129,1008.063
23.803834439,0.08178183,0.09104726,0.1261057,-0.03197407,-0.4706601,0.8923476,-12.87998,37.43933,-24.96129,1008.063
23.836611748,0.6408688,0.09104726,0.06501666,-0.03634509,-0.4691953,0.8981321,-12.51663,37.43252,-25.39687,1008.063
23.869388580,0.5166273,0.09104726,-0.3015174,-0.03830292,-0.4623831,0.8995706,-12.51663,37.43252,-25.39687,1008.063
23.902166367,1.199956,-0.2635088,-0.3015174,-0.0358749,-0.4633704,0.8947527,-13.60959,37.42919,-25.83058,1008.065
23.937464714,-0.2909428,-0.1453235,0.06501666,-0.03443595,-0.4550487,0.8990691,-13.2502,37.80974,-24.5936,1008.065
23.970242023,-1.6576,-0.1453235,-0.1793394,-0.03198615,-0.4652928,0.8937836,-13.2502,37.80974,-24.5936,1008.063
24.003019810,-0.3530636,0.15014,-0.05716138,-0.03149831,-0.4672737,0.8884906,-13.24406,37.4402,-24.96082,1008.063
24.035796642,-0.7879091,0.6819741,-0.1182504,-0.03878706,-0.4643855,0.8923544,-12.88747,37.79783,-25.40213,1008.063
24.071094990,-0.4151844,0.03195459,0.2482837,-0.03780055,-0.4701983,0.8957303,-12.88747,37.79783,-25.40213,1008.063
24.103872776,0.2060234,-0.08623077,-0.2404284,-0.04120381,-0.4677681,0.8991043,-12.88612,37.80887,-24.59407,1008.063
24.136650085,0.4545065,-0.6180649,0.06501666,-0.03635017,-0.4682648,0.8918731,-13.24333,37.44615,-24.52571,1008.063
24.169426918,1.262077,-0.4407869,-0.05716138,-0.03783441,-0.4555741,0.8976338,-13.24333,37.44615,-24.52571,1008.063
24.202204227,-0.3530636,-0.1453235,0.003927643,-0.03734159,-0.4589926,0.8957123,-13.25082,37.80464,-24.96655,1008.066
24.237503052,-0.7879091,0.03195459,-0.05716138,-0.03537621,-0.4697278,0.8904289,-13.61562,37.79957,-25.40119,1008.06
24.270280361,-0.1667013,-0.1453235,0.003927643,-0.03976453,-0.4624723,0.8885029,-13.61562,37.79957,-25.40119,1008.06
24.303057194,-0.228822,0.2092326,-0.1182504,-0.03586804,-0.4657888,0.8971632,-13.24478,37.43426,-25.39593,1008.058
24.335834980,-0.7879091,-0.02713809,-0.1793394,-0.03539046,-0.4618684,0.9000443,-12.87322,37.0749,-24.95556,1008.058
24.371133328,-0.2909428,-0.1453235,0.003927643,-0.03198691,-0.4658099,0.8894522,-12.87322,37.0749,-24.95556,1008.057
24.403910637,0.5166273,-0.02713809,0.003927643,-0.03586522,-0.4672599,0.8957213,-12.87322,37.0749,-24.95556,1008.061
24.436688423,0.7029896,0.09104726,0.1261057,-0.03686053,-0.4565334,0.8985957,-13.24478,37.43426,-25.39593,1008.061
24.469465733,-0.4773052,-0.02713809,-0.1182504,-0.04073822,-0.4589842,0.9010153,-13.60137,37.07664,-24.95462,1008.061
24.502242565,-0.2909428,0.03195459,0.003927643,-0.03294551,-0.4701678,0.8942747,-13.60137,37.07664,-24.95462,1008.061
24.537541866,0.01966106,0.3865107,-0.05716138,-0.04218034,-0.4663452,0.8947722,-12.88601,37.80972,-24.53191,1008.061
24.570318699,-0.2909428,-0.08623077,0.06501666,-0.03780737,-0.466769,0.8986133,-13.25009,37.81059,-24.53144,1008.061
24.603096008,0.2060234,0.15014,0.06501666,-0.03247948,-0.4613772,0.8971484,-13.25009,37.81059,-24.53144,1008.063
24.635872841,-0.7879091,0.2092326,-0.05716138,-0.03198579,-0.4637714,0.9024459,-12.87322,37.0749,-24.95556,1008.063
24.671172142,-0.4151844,0.09104726,-0.1793394,-0.03391076,-0.4731148,0.8918746,-13.60886,37.43513,-25.39546,1008.063
24.703948975,0.7651103,-0.2635088,-0.05716138,-0.03440988,-0.4667641,0.8952357,-13.60886,37.43513,-25.39546,1008.063
24.736726284,-0.7879091,-0.02713809,0.003927643,-0.03974617,-0.4682463,0.8986202,-12.87998,37.43933,-24.96129,1008.063
24.769504070,0.7029896,0.03195459,-0.1182504,-0.03877318,-0.4702298,0.8923631,-12.50914,37.07402,-24.95603,1008.063
24.802280903,0.8272311,0.03195459,-0.1182504,-0.03636768,-0.458941,0.9019676,-12.50914,37.07402,-24.95603,1008.061
24.837579250,-0.8500298,0.09104726,-0.2404284,-0.03585331,-0.4716197,0.8990974,-12.50841,37.07997,-24.52092,1008.061
24.870357037,1.199956,0.2683253,-0.1793394,-0.03587478,-0.4628633,0.8976401,-13.2373,37.07577,-24.95509,1008.061
24.903134346,-0.8500298,-0.02713809,-0.1182504,-0.03004437,-0.4637686,0.9005159,-13.2373,37.07577,-24.95509,1008.061
24.935911179,-1.284875,0.2092326,-0.3626065,-0.03828636,-0.4712166,0.8899567,-12.87322,37.0749,-24.95556,1008.059
24.971210480,0.5166273,0.09104726,0.06501666,-0.03245464,-0.4710909,0.901014,-13.23667,37.08086,-24.58214,1008.059
25.003987312,0.2681442,-0.1453235,-0.1793394,-0.03490197,-0.4638393,0.8961952,-13.23667,37.08086,-24.58214,1008.061
25.036764622,-0.04245972,-0.5589722,-0.1182504,-0.03489478,-0.4657472,0.9019744,-12.87925,37.44528,-24.52618,1008.059
25.069542408,1.013594,-0.6771576,-0.3015174,-0.03924605,-0.476602,0.8870789,-13.6021,37.0707,-25.38973,1008.059
25.102319241,3.93327,-0.6180649,-0.2404284,-0.03635331,-0.4662932,0.8952396,-13.6021,37.0707,-25.38973,1008.057
25.137618065,1.013594,0.327418,-0.3015174,-0.03396843,-0.4462346,0.9053124,-12.88674,37.80377,-24.96702,1008.057
25.170394898,-0.7257883,-0.2044161,0.06501666,-0.02858745,-0.4637531,0.9009937,-13.23053,36.71133,-24.94936,1008.057
25.203172684,0.5166273,0.15014,0.1871947,-0.0368319,-0.4682086,0.9005386,-13.23053,36.71133,-24.94936,1008.061
25.235949993,-0.6015468,-0.2044161,-0.1793394,-0.03392167,-0.4672236,0.8986048,-12.51601,37.43761,-25.02392,1008.061
25.271248341,1.759043,-0.08623077,-0.1182504,-0.03733096,-0.4633725,0.8962003,-13.24333,37.44615,-24.52571,1008.061
25.304026127,1.262077,-0.2044161,-0.1793394,-0.0344287,-0.4584713,0.8971487,-13.24478,37.43426,-25.39593,1008.063
25.336802960,1.634801,-0.6771576,-0.1793394,-0.03197763,-0.4686953,0.8947515,-13.24478,37.43426,-25.39593,1008.061
25.369580269,3.436304,-0.3226015,-0.4847845,-0.02666909,-0.4545136,0.896643,-13.24478,37.43426,-25.39593,1008.057
25.402358055,0.8272311,-0.2044161,-0.3015174,-0.03589771,-0.4531194,0.8981069,-13.2373,37.07577,-24.95509,1008.057
25.437656403,0.8272311,-1.090806,-0.7902296,-0.03439457,-0.4710703,0.9063135,-13.2373,37.07577,-24.95509,1008.061
25.470433235,5.48629,-1.799919,-0.5458735,-0.03442203,-0.4598821,0.9043712,-13.6021,37.0707,-25.38973,1008.055
25.503211022,-0.5394259,-3.927255,-2.195277,-0.05083075,-0.4912781,0.9617395,-13.2373,37.07577,-24.95509,1008.06
25.535988331,15.11501,-15.56851,-8.91507,-0.03051775,-0.6671329,0.9325933,-13.2373,37.07577,-24.95509,1008.06
25.568765164,65.30859,-20.47321,-14.41308,-0.07706295,-0.7007869,0.9115745,-13.24478,37.43426,-25.39593,1008.06
25.604064465,135.1945,-34.59636,-19.72783,-0.05988732,-0.5675087,0.9363638,-13.23344,36.68756,-26.68981,1008.058
25.636841297,229.4938,-56.69702,-12.39714,-0.07415801,-0.4837036,0.9584139,-13.23344,36.68756,-26.68981,1008.058
25.669618607,284.0358,-84.76604,-0.4847845,0.0184415,0.03406659,1.203871,-14.28478,34.08647,-30.50213,1008.058
25.702395916,222.6605,-117.4443,19.49132,0.0002484952,0.1541255,1.331294,-15.64113,28.12181,-36.00191,1008.058
25.737694740,327.4583,-156.6227,51.3187,0.07285127,-0.02165047,0.9703656,-15.64113,28.12181,-36.00191,1008.058
25.770472050,476.983,-168.0276,88.46083,0.2538294,0.4171179,0.814758,-18.42237,20.73855,-38.86622,1008.058
25.803248882,493.6313,-159.6956,128.6574,0.3884712,0.708308,0.5040027,-21.58501,11.19262,-40.01731,1008.058
25.836026669,486.7359,-123.8854,163.7836,0.5432993,0.8585333,0.06873945,-21.58501,11.19262,-40.01731,1008.058
25.868803978,380.1988,-58.05615,179.3002,0.6695032,1.063966,-0.02717912,-27.14503,-2.644175,-35.50214,1008.056
25.904102325,209.3046,2.513847,168.3042,0.676636,0.9202494,-0.04142029,-32.07993,-13.89075,-28.04432,1008.055
25.936880112,113.0174,45.17876,146.7397,0.6453909,0.5834902,-0.03458092,-32.07993,-13.89075,-28.04432,1008.055
25.969656944,77.23579,71.00227,119.1886,0.66716,0.4081447,-0.06228726,-36.01884,-17.11948,-24.9418,1008.053
26.002434254,67.91767,93.51659,96.28022,0.7672503,0.3735986,-0.1077206,-37.49085,-16.40495,-26.25672,1008.053
26.037733078,96.30686,115.8536,80.15273,0.7722566,0.3022454,-0.1490221,-37.49085,-16.40495,-26.25672,1008.051
26.070510387,121.6521,140.7907,59.01592,0.8491336,0.4295916,-0.2086038,-37.53214,-14.22427,-26.72621,1008.049
26.103287220,103.2644,183.5147,55.59493,0.8425115,0.545416,-0.2838551,-36.07478,-14.6389,-30.14109,1008.049
26.136065006,119.4158,226.4751,54.86187,0.6559185,0.3735541,-0.4006058,-36.07478,-14.6389,-30.14109,1008.046
26.168842316,144.4505,286.2178,63.71978,0.6198885,0.6343767,-0.320526,-33.52374,-15.04426,-32.68716,1008.044
26.204140663,67.97979,342.4149,72.15006,0.5116541,0.4660262,-0.02638489,-29.11362,-17.72597,-37.00285,1008.042
26.236917496,-131.7385,391.9937,-65.91112,0.6392503,1.782438,6.537102,-29.11362,-17.72597,-37.00285,1008.04
26.269695282,29.15431,-144.6269,-23.14881,-1.723607,-0.6409769,2.387394,-21.38743,-19.26077,-41.27884,1008.042
26.302472591,-45.20427,-223.1611,-43.12492,2.072097,-0.4868025,0.9441822,-11.5187,-18.62523,-46.40009,1008.042
26.337771416,182.1578,-81.0432,-90.22455,0.6070217,0.3471403,-0.2180139,-16.42582,-9.054862,-44.86562,1008.042
26.370548725,-61.54203,-17.57767,-88.88058,0.7354017,1.303824,0.9080703,-16.42582,-9.054862,-44.86562,1008.045
26.403326035,-150.6232,-56.57884,-56.19797,0.2962233,0.5258668,0.6436101,-19.30083,-14.12013,-42.60601,1008.045
26.436102867,-69.74197,-91.08896,-32.98414,0.551385,0.6398115,0.6837488,-18.88356,-13.76266,-43.0474,1008.045
26.468880653,-164.6004,-113.3078,-37.56581,0.5753778,0.3729114,0.7948075,-18.88356,-13.76266,-43.0474,1008.045
26.504179001,-110.928,-150.5953,-52.28827,0.7336249,0.1689169,0.6854705,-21.54614,-10.83497,-42.65476,1008.045
26.536956310,-155.0959,-146.577,-71.10368,0.7983469,0.4918852,0.546198,-24.90969,-6.01086,-41.42064,1008.045
26.569734097,-213.9864,-123.5899,-95.96691,0.7465608,0.151131,0.2132507,-24.90969,-6.01086,-41.42064,1008.046
26.602510929,-139.4415,-109.9986,-125.7173,0.6400756,-0.003058257,0.1603045,-29.73823,-3.766047,-38.03009,1008.045
26.637809277,-127.2037,-92.3299,-148.3813,0.6962971,0.2362043,0.1107116,-32.72096,0.2845554,-35.54086,1008.045
26.670587063,-112.3568,-54.92424,-162.8594,0.7685068,0.2800778,0.02960548,-32.72096,0.2845554,-35.54086,1008.047
26.703364372,-154.8474,-8.713762,-179.5978,0.7421387,0.5806199,0.2068375,-36.38587,1.774806,-33.81863,1008.045
26.736141205,-172.3034,29.5192,-164.9975,0.6824862,0.5393267,0.1536101,-36.71262,-0.01763678,-31.67612,1008.044
26.768918991,-73.59346,52.74263,-159.9882,0.6283789,0.4406561,0.2472713,-36.71262,-0.01763678,-31.67612,1008.042
26.804217339,-98.87662,77.44337,-158.8886,0.5468629,0.8646828,0.4586248,-36.3372,-0.7652149,-32.97046,1008.042
26.836994648,-189.1381,102.9714,-137.3242,0.4468699,0.8699388,0.5642722,-34.85664,-2.24938,-34.6277,1008.044
26.869772434,-194.6668,112.9581,-110.445,0.3552175,0.6402233,0.6986544,-34.85664,-2.24938,-34.6277,1008.042
26.902549267,-181.373,115.0263,-93.03464,0.3189574,0.5928839,0.7984536,-31.19922,-3.381137,-36.79077,1008.042
26.937848091,-194.729,124.363,-75.92972,0.2569168,0.5638134,0.8949169,-27.21305,0.5771675,-39.84267,1008.046
26.970625401,-257.0983,121.7629,-56.86995,0.1133578,0.5334415,1.112397,-27.21305,0.5771675,-39.84267,1008.044
27.003402710,-314.6842,105.6306,-33.53394,0.1033506,0.2479113,1.106594,-24.02537,5.367735,-39.92234,1008.044
27.036180019,-264.9876,91.03469,-17.95624,0.04175212,-0.1960131,1.077564,-20.13328,11.5714,-38.71959,1008.04
27.068957329,-113.3508,65.21119,-3.539235,-0.06513592,-0.3645676,1.13054,-20.13328,11.5714,-38.71959,1008.038
27.104256153,-33.21495,35.60575,9.167279,-0.07817215,-0.1725919,1.227998,-18.42488,21.1378,-36.32344,1008.043
27.137032986,-34.27101,8.423115,11.18322,-0.05517673,-0.2712179,1.095237,-17.05542,25.95057,-35.09543,1008.044
27.169810772,15.79834,-6.054592,0.4315508,-0.1435442,-0.4910761,1.032238,-17.05542,25.95057,-35.09543,1008.044
27.202588081,41.64058,-23.42784,6.784809,0.001578023,-0.2670871,0.9906404,-15.98878,27.41758,-34.24954,1008.042
27.237886429,38.78303,-18.46405,7.823322,-0.01052793,-0.08685912,0.9384105,-15.62543,27.41077,-34.68512,1008.048
27.270664215,15.48773,-12.14114,12.46609,0.0379624,-0.06072195,0.9267033,-15.97067,26.30644,-35.53768,1008.048
27.336218357,-26.31955,-1.563548,5.624117,-0.01112731,-0.2260211,1.028155,-16.3205,25.58438,-35.09064,1008.048
27.368995190,9.151415,-9.009226,3.486001,0.05367997,-0.3290232,0.9862779,-16.70413,26.68451,-34.67225,1008.05
27.404294491,58.41319,-11.6684,1.347886,0.06310277,-0.2112157,0.9668236,-16.70413,26.68451,-34.67225,1008.051
27.437071323,67.29646,-12.08205,-4.699927,-0.01863638,-0.1386883,0.9890508,-15.98347,27.04126,-35.11403,1008.051
27.469848633,95.43717,-16.98674,-5.432995,0.05277119,-0.1583488,0.9475139,-16.68676,25.56742,-36.3955,1008.051
27.502626419,119.6643,-9.659245,-7.448932,0.05433326,0.007464041,0.9771047,-16.68676,25.56742,-36.3955,1008.051
27.535403252,101.9599,-8.950133,-9.953583,0.02389641,0.1515435,1.001509,-17.36373,22.6299,-38.08917,1008.051
27.570701599,80.83879,-10.95928,-2.195277,0.06792559,0.2211771,1.016703,-18.02595,18.90361,-39.70826,1008.051
27.603479386,56.79805,-8.65467,2.752933,0.09983908,0.2754173,1.004031,-18.02595,18.90361,-39.70826,1008.051
27.636256695,28.5331,-5.463665,4.524515,0.07853725,0.2428877,0.9742857,-17.60247,15.61091,-40.52739,1008.051
27.669034004,21.14073,0.15014,6.418274,0.09125065,0.200938,0.9497693,-17.93347,13.78366,-40.93338,1008.053
27.704332829,18.15893,3.104774,5.074316,0.0742555,0.205844,0.9753144,-17.93347,13.78366,-40.93338,1008.053
27.737110138,19.09074,6.650335,4.402337,0.07570956,0.2027833,0.9536542,-17.92743,13.41328,-41.36276,1008.053
27.769886971,19.21498,11.25956,2.142043,0.07948192,0.252079,0.964161,-18.27726,12.69122,-40.91572,1008.055
27.802664757,10.33171,14.9824,0.5537288,0.0770161,0.268134,0.964624,-18.27726,12.69122,-40.91572,1008.057
27.835442066,-2.713653,18.29159,-0.4847845,0.06532412,0.2851162,0.9694397,-17.52842,11.52948,-41.33363,1008.057
27.870740414,-12.15601,23.66903,-3.111612,0.04545097,0.2668096,0.9521855,-17.15758,11.16417,-41.32837,1008.057
27.903518200,-31.8483,27.45096,-5.188639,0.06487152,0.2730001,0.978605,-17.15758,11.16417,-41.32837,1008.055
27.936295032,-39.17855,35.36938,-9.098336,0.002886143,0.2033706,0.985596,-16.80172,11.51585,-42.20479,1008.057
27.969072342,-35.82403,33.30113,-13.13021,-0.04743315,0.1370652,1.036358,-16.08676,12.3156,-41.34792,1008.059
28.004371166,-11.84541,32.82839,-3.23379,-0.01124925,0.2342338,1.028424,-16.08676,12.3156,-41.34792,1008.055
28.037148476,-71.17075,43.99691,-1.40112,-0.01561467,0.234271,1.039024,-14.65074,13.40542,-41.36699,1008.055
28.069925308,-64.83443,51.38349,4.280159,-0.0644865,-0.04329718,1.034264,-13.95035,14.85548,-41.82596,1008.057
28.102703095,-24.20744,56.40637,12.03846,-0.06991418,-0.001757,1.06117,-13.95035,14.85548,-41.82596,1008.059
28.135480404,-13.27419,60.72014,11.97737,-0.08099055,-0.04537299,1.03575,-12.14807,15.96226,-40.54016,1008.059
28.170778751,23.56344,50.91075,14.6042,-0.02810772,-0.02238421,1.056288,-9.997415,17.77921,-40.57164,1008.055
28.203556538,11.13928,55.57907,6.357185,-0.08332548,0.1277898,1.07641,-9.997415,17.77921,-40.57164,1008.055
28.236333370,-33.71192,50.31982,-0.3626065,-0.1754531,0.06035924,1.015598,-7.746235,17.40345,-41.00391,1008.055
28.269110680,-12.46662,43.58326,-4.211215,-0.1431168,-0.05861117,1.027734,-5.196967,17.40328,-40.57209,1008.061
28.304409504,20.58164,22.90082,-1.340031,-0.2084038,0.05357186,1.129769,-3.753453,18.13461,-40.15032,1008.061
28.337186813,16.60591,-0.6180649,5.929562,-0.2363028,0.1473638,1.133544,-3.753453,18.13461,-40.15032,1008.063
28.369964123,13.37563,-21.89143,8.250944,-0.2161944,0.04862158,1.05759,-2.283621,17.40225,-40.14074,1008.063
28.402741432,70.34038,-34.47817,28.41032,-0.1882847,0.1267236,0.9091471,-1.53373,16.31908,-39.25426,1008.063
28.435518742,78.7888,-43.34208,37.75694,-0.1048329,0.3632793,0.9278471,-1.53373,16.31908,-39.25426,1008.063
28.470817089,3.809028,-38.96922,42.52188,-0.0940696,0.3312949,0.9379784,-1.527695,15.9487,-39.68365,1008.061
28.503594875,-32.1589,-39.67833,48.26425,-0.1146848,0.2155381,0.9155777,-2.194999,12.67051,-39.63114,1008.061
28.536372185,-14.206,-30.69624,45.82069,-0.1046904,0.06193769,0.7372003,-2.194999,12.67051,-39.63114,1008.059
28.569149017,16.85439,-18.28678,44.29346,-0.1326432,0.194794,0.8256369,-2.559076,12.67138,-39.63067,1008.059
28.604448319,-4.950001,-5.227294,38.5511,-0.1910663,0.2792733,0.9276969,-2.935223,13.41302,-38.77143,1008.059
28.637225151,-26.69227,2.868403,36.84061,-0.2185969,0.2202193,0.9432548,-2.935223,13.41302,-38.77143,1008.059
28.670002461,-15.88326,11.73231,35.1912,-0.2184096,0.1291937,0.8803331,-2.549408,12.33072,-37.88449,1008.059
28.702780247,3.871149,22.13262,30.67061,-0.2554322,0.1947065,0.9607096,-1.463937,12.69254,-37.89163,1008.061
28.735557079,-13.21206,25.32362,27.4329,-0.3084802,0.2539969,1.005994,-1.463937,12.69254,-37.89163,1008.061
28.770855427,-36.69372,29.99194,25.23369,-0.2825703,0.1720831,0.9617708,-0.7351594,12.69589,-37.51962,1008.06
28.803633213,-37.50129,32.11928,22.79013,-0.3397712,0.1342145,0.9778484,-0.0002433658,12.32971,-37.51483,1008.061
28.836410522,-27.6862,28.751,20.7131,-0.3610901,0.1130372,0.9697478,-0.0002433658,12.32971,-37.51483,1008.061
28.869187355,-16.56659,26.50548,19.49132,-0.3809953,0.1063522,0.9428488,2.227524,13.44141,-35.79447,1008.061
28.904486656,-4.142431,22.01443,15.88707,-0.4003956,0.0959325,0.9385783,3.677798,13.8083,-35.36696,1008.061
28.937263489,-22.09534,18.64615,7.823322,-0.3735775,0.04890706,0.9376228,3.677798,13.8083,-35.36696,1008.061
28.970040798,-8.739369,19.29617,-0.1182504,-0.3288346,0.01300545,0.9038755,3.671037,14.17274,-35.37269,1008.06
29.002818584,36.54668,22.36899,-2.745078,-0.303699,0.05335808,0.8633206,5.135561,13.8167,-34.49862,1008.06
29.035595417,56.0526,25.32362,-5.188639,-0.2716382,0.2740586,0.9750693,5.135561,13.8167,-34.49862,1008.06
29.070894241,30.70732,20.77349,-5.860618,-0.2421068,0.330006,1.070706,5.492877,14.18026,-34.50482,1008.06
29.103672028,27.0422,8.895857,-11.11427,-0.2336269,0.2371198,1.080453,6.247351,12.71483,-34.91795,1008.06
29.136448860,34.8073,4.818462,-18.62822,-0.2374646,0.195387,0.9669237,6.247351,12.71483,-34.91795,1008.06
29.169226170,36.6088,12.44142,-23.08772,-0.2861621,0.2483438,0.9366335,6.99619,11.55309,-35.33586,1008.06
29.204524994,-23.52411,19.23708,-22.96554,-0.2656124,0.1989261,1.019454,7.002951,11.18865,-35.33013,1008.06
29.237302303,-23.71048,28.63281,-20.64416,-0.3441389,0.1468459,1.0486,7.0172,10.46572,-34.88356,1008.058
29.270079136,-13.52267,29.04646,-19.97218,-0.3243092,0.1573967,0.9310847,7.0172,10.46572,-34.88356,1008.058
29.302856922,-5.633329,39.15131,-18.13951,-0.3757472,0.156969,1.001486,7.73932,10.83436,-34.45512,1008.058
29.335634232,-16.06962,42.93324,-11.11427,-0.3854786,0.1555624,0.9509684,8.467474,10.83261,-34.45606,1008.06
29.370932579,-9.112094,53.7472,-17.34535,-0.3995056,0.1416492,0.9981961,8.467474,10.83261,-34.45606,1008.058
29.403710365,-10.04391,62.96566,-21.86594,-0.4065376,0.2379468,0.9869963,8.811594,11.99768,-33.60445,1008.058
29.436487198,-49.67696,66.92487,-27.18069,-0.475161,0.3030906,0.9822473,11.03718,13.09155,-33.18942,1008.058
29.469264507,-85.14793,70.70681,-31.88454,-0.4907599,0.1019922,0.8680233,11.03718,13.09155,-33.18942,1008.056
29.504563332,-79.6813,71.12045,-39.64284,-0.5750392,0.01768275,0.891937,12.11797,13.83479,-31.95912,1008.056
29.537340641,-70.05257,66.03848,-42.88056,-0.5848721,0.05358297,0.8134442,13.53734,16.04764,-29.81982,1008.056
29.570117474,-108.1326,75.6115,-50.88322,-0.554653,0.005608483,0.8120008,13.53734,16.04764,-29.81982,1008.056
29.602895260,-111.0523,74.54783,-55.77034,-0.7185234,-0.1014389,0.8135135,14.94985,18.62408,-27.74841,1008.06
29.635672569,-116.8916,63.55659,-48.25639,-0.6913832,-0.09343482,0.7412328,15.25028,22.36992,-24.76135,1008.06
29.670970917,-154.102,62.61111,-35.24443,-0.6766614,-0.381833,0.6434348,15.25028,22.36992,-24.76135,1008.059
29.736525536,-88.87517,33.83297,-36.34404,-0.6947742,-0.3469039,0.5052742,15.14676,28.65876,-18.02129,1008.06
29.769302845,-94.90089,29.69648,-38.11562,-0.6662992,-0.4837276,0.4760499,15.14676,28.65876,-18.02129,1008.057
29.802080631,-73.59346,29.5192,-36.40512,-0.6952482,-0.5629057,0.4709429,14.76134,30.16408,-14.62501,1008.057
29.837378979,-53.65269,17.75976,-25.89782,-0.7269556,-0.4901803,0.5315601,13.9944,32.43696,-12.91896,1008.057
29.870156288,-68.25108,7.654911,-19.72783,-0.7505302,-0.6076955,0.3999,13.9944,32.43696,-12.91896,1008.055
29.902934074,-51.04362,-9.186504,-9.159426,-0.7341926,-0.7198388,0.5025603,12.88541,33.56176,-10.82134,1008.053
29.935710907,-22.2817,-27.68251,2.752933,-0.6124803,-0.6835271,0.3250758,12.49792,35.0501,-8.668229,1008.052
29.971009254,-46.57092,-23.60512,10.38906,-0.6112351,-0.5761965,0.4197393,12.49792,35.0501,-8.668229,1008.052
30.003787041,-83.78127,-39.44196,21.44617,-0.7234079,-0.5474303,0.5590756,11.40569,35.05272,-8.66682,1008.05
30.036564350,-103.3493,-65.91547,32.4422,-0.7457685,-0.5348668,0.5716251,12.11647,36.16806,-6.944503,1008.055
30.069341183,-100.4918,-76.1976,42.82733,-0.6364809,-0.5849378,0.3837102,12.11647,36.16806,-6.944503,1008.055
30.102118969,-60.8587,-76.37488,54.25098,-0.5545341,-0.5718987,0.1991347,12.49084,35.83162,-4.825843,1008.055
30.137417316,-7.559073,-24.5506,21.26291,-0.454473,-1.046844,-0.07283757,13.22866,35.48921,-3.080606,1008.053
30.170195103,28.22249,-10.60473,9.717081,-0.7002167,-0.9000837,0.5961355,13.22866,35.48921,-3.080606,1008.053
30.202972412,61.58135,-25.14153,0.4315508,-0.7089443,-0.9191557,0.5254248,14.69246,35.12723,-2.641644,1008.051
30.235749245,148.6747,-34.41908,16.3147,-0.5506681,-0.4832435,0.6168139,14.33972,34.3814,-3.935049,1008.053
30.271048546,75.06156,-34.65545,52.66266,-0.5836152,-0.03588763,0.9729068,14.68988,34.68637,-8.230207,1008.051
30.303825378,-55.70267,-34.95092,53.88444,-0.5689368,-0.3254726,0.7745061,14.68988,34.68637,-8.230207,1008.051
30.336602688,-21.41201,-56.047,79.66401,-0.4977147,-0.2399351,0.8728874,15.44217,33.2031,-9.948673,1008.051
30.369380474,-8.987852,-59.88803,107.5817,-0.5087566,-0.2744212,0.9697193,16.5501,32.48944,-8.633287,1008.051
30.402157307,7.536275,-58.11525,107.3984,-0.4714343,-0.04280447,0.9639866,16.5501,32.48944,-8.633287,1008.055
30.437456131,-33.52556,-63.07903,122.4263,-0.5572401,-0.1135715,0.9060521,18.39648,30.94876,-9.917097,1008.055
30.470233441,-100.119,-52.26507,103.672,-0.6257877,-0.1043221,0.7776772,20.67471,29.11525,-10.32646,1008.055
30.503010750,-155.2202,-40.03289,97.74636,-0.6650747,-0.394911,0.4297024,20.67471,29.11525,-10.32646,1008.055
30.535788059,-115.525,-31.28717,105.8712,-0.8567181,-0.4198295,0.6487327,22.16097,27.67779,-8.564969,1008.055
30.603864193,-157.0217,-57.40614,60.72641,-1.054034,-0.5297788,0.7634491,23.62975,27.35656,-5.142385,1008.055
30.636641026,-103.5978,-24.49151,60.7875,-0.8487256,-0.9143368,-0.3647701,24.75942,25.56147,-2.939585,1008.055
30.669418812,-66.94653,22.19171,110.6972,-0.6969582,0.2720634,0.008543959,26.61038,24.12823,-0.8056152,1008.055
30.702196121,-162.4262,84.17994,100.0677,-0.8140706,-0.3207813,-0.07741123,26.61038,24.12823,-0.8056152,1008.053
30.737494469,-98.56601,90.73923,107.2152,-1.062221,-0.4782954,0.1222171,28.46966,22.3433,2.266467,1008.052
30.770272255,-6.50302,88.90736,114.4847,-1.089865,-0.2724312,0.2033226,30.07597,17.96342,6.561024,1008.052
30.803049088,-5.074243,78.74342,102.2059,-1.056578,0.03307251,0.2518821,30.07597,17.96342,6.561024,1008.053
30.835826397,-34.83009,71.12045,86.9336,-0.9396549,-0.1498405,0.14213,30.86996,14.72249,9.595277,1008.053
30.871125221,2.31813,47.42428,80.8247,-0.9169807,-0.2812533,0.1976308,30.57077,11.40647,11.38872,1008.053
30.903902531,41.3921,34.06934,70.68392,-0.8510369,0.01029631,0.4415668,30.57077,11.40647,11.38872,1008.053
30.936679363,8.095362,24.55542,61.39839,-0.9018764,-0.06918653,0.3489043,29.90627,8.151211,13.11952,1008.053
30.969457149,14.92865,22.2508,57.12216,-1.043574,0.08758,0.3003866,29.15415,6.354691,14.88963,1008.053
31.002234459,18.22105,-0.3226015,58.09958,-1.152613,0.01374685,0.3898084,29.15415,6.354691,14.88963,1008.054
31.037532806,44.43602,-0.08623077,56.08364,-1.032898,0.04563548,0.06888951,28.08896,4.89956,14.91396,1008.054
31.070310593,52.07687,7.654911,63.53651,-1.028439,0.2445572,0.2336862,28.10248,4.170686,14.92542,1008.054
31.103087425,29.34067,30.3465,58.16067,-0.8894328,0.1205109,-0.1221829,28.10248,4.170686,14.92542,1008.052
31.135864735,-12.15601,68.81584,58.46612,-0.9319373,0.480278,0.1166125,28.13098,2.724826,15.81856,1008.052
31.171163559,-100.4918,58.47461,52.78484,-1.013952,-0.08738904,0.457504,27.41893,1.948846,16.70214,1008.052
31.203940868,35.24214,25.61909,44.72109,-0.8586826,-0.2358397,0.4949057,25.98425,0.8700643,17.52928,1008.052
31.236718655,119.7885,31.64654,26.63874,-0.8424143,0.3923862,0.04673519,25.98425,0.8700643,17.52928,1008.052
31.269495964,-10.04391,55.16542,10.38906,-1.060185,0.2499952,-0.1368952,24.57215,-1.283348,19.74109,1008.054
31.302272797,2.069647,55.93363,-0.1182504,-1.163931,0.2431423,0.193094,23.81164,0.5524702,20.58361,1008.052
31.337572098,23.31495,37.43762,-2.256366,-1.034185,0.1892016,0.1245141,23.81164,0.5524702,20.58361,1008.049
31.370348930,32.26035,52.56535,-5.921707,-1.101256,0.1598773,-0.1597674,21.60907,1.668849,21.87457,1008.049
31.403126240,-5.819692,59.18373,-3.661413,-1.080928,0.2241696,0.02637452,21.61115,1.685832,23.11775,1008.047
31.435904026,3.1257,55.87454,-2.745078,-1.005976,0.1477161,0.00802023,21.61115,1.685832,23.11775,1008.047
31.471202374,21.01648,65.62484,-5.555173,-0.9164175,0.2093769,-0.2676241,19.71085,2.862222,24.40736,1008.047
31.503979206,-24.33168,80.04345,-10.74774,-1.014384,0.1982861,-0.06375895,18.61404,3.247109,25.70838,1008.047
31.536756992,1.386318,79.6889,-12.0917,-1.119664,0.1245385,-0.2467969,18.61404,3.247109,25.70838,1008.045
31.569534302,82.6403,68.46129,-11.72516,-1.045794,0.07360618,-0.3759003,16.42634,3.645651,27.81887,1008.045
31.602311134,37.04364,80.4571,-25.47019,-0.8293013,0.3490913,-0.1717689,14.95047,4.748396,28.23867,1008.044
31.637610436,52.94656,72.42049,-12.88586,-1.085724,0.3179812,-0.4151642,14.95047,4.748396,28.23867,1008.042
31.670387268,-16.56659,83.05717,-22.1103,-1.038667,0.1444599,-0.3509932,12.74114,6.229213,29.5239,1008.044
31.703164578,52.13899,62.84748,-18.56713,-1.177285,-0.1734609,-0.3776229,10.18199,6.987971,31.25618,1008.048
31.735942364,84.87664,58.88826,-7.754377,-1.323389,0.03221647,-0.2509882,10.18199,6.987971,31.25618,1008.048
31.768719196,35.05578,32.23746,-22.78228,-0.8927339,0.2401926,-0.3471513,8.280636,8.085789,31.24142,1008.048
31.804018498,-82.35249,54.63359,-39.21522,-0.9555957,0.1235427,-0.3771522,7.89159,9.561392,32.46215,1008.048
31.836795330,-99.00085,33.06476,-39.64284,-1.026456,-0.0775553,-0.284741,7.89159,9.561392,32.46215,1008.048
31.869572639,-45.51487,20.89167,-49.60035,-1.098127,-0.1938516,-0.4634623,7.907292,8.850351,33.77894,1008.048
31.902350426,-15.75902,-32.17356,-25.77564,-1.127224,0.03327578,-0.2644518,7.606246,5.589121,35.13631,1008.048
31.937648773,-38.49522,-51.67414,-11.11427,-0.8295665,0.06967904,-0.07988841,7.606246,5.589121,35.13631,1008.046
31.970426083,-0.2909428,-39.73742,3.058378,-1.029185,0.01266293,-0.4750084,8.362068,4.134722,35.53125,1008.048
32.003203392,-45.57699,-54.39241,-14.53526,-0.8728892,0.09188549,-0.1963087,12.46326,2.247999,35.99072,1008.052
32.035980701,-35.32706,-67.92462,-14.65744,-1.082664,0.06674776,-0.3372936,12.46326,2.247999,35.99072,1008.05
32.068758011,-43.03004,-69.16557,-12.88586,-1.095732,0.05062677,-0.3285738,15.0247,1.507921,35.62594,1008.05
32.104056835,1.137835,-91.97535,-4.150126,-1.257996,-0.09043313,-0.1773101,18.33979,-0.7043858,34.35075,1008.052
32.136834145,66.92374,-105.7439,8.067677,-1.163648,-0.1676502,-0.2587676,18.33979,-0.7043858,34.35075,1008.052
32.169610977,135.443,-119.2171,17.4143,-1.188169,-0.08476389,-0.3565508,21.7013,-2.193909,32.62892,1008.054
32.202388763,153.7686,-133.5766,20.52984,-1.053519,0.1126346,-0.07701517,26.43681,-2.604504,30.08003,1008.056
32.237687111,175.2003,-155.7363,45.2098,-1.037459,-0.1023442,-0.05410524,30.0716,0.6190066,26.54279,1008.056
32.270464420,270.742,-183.0372,77.77025,-0.9291773,-0.1080064,-0.08804886,30.0716,0.6190066,26.54279,1008.056
32.303242207,297.0191,-185.2827,113.935,-0.8060697,-0.003433137,-0.04613863,34.40351,1.984767,20.54698,1008.058
32.336019039,255.2118,-169.3868,144.3573,-0.7237163,0.08919825,0.008401673,37.62169,4.506347,14.47228,1008.056
32.368796349,187.5623,-143.1496,158.9576,-0.6699415,0.1478318,0.04091835,37.62169,4.506347,14.47228,1008.056
32.404095173,133.8278,-122.4672,154.9868,-0.6690372,0.1861963,0.09380817,40.96928,3.322672,8.455762,1008.053
32.436872482,86.92663,-104.2075,129.2683,-0.7124721,0.3006068,0.2097469,42.51286,-1.913305,3.438035,1008.053
32.469650269,53.50565,-95.63909,95.36388,-0.7548064,0.3513839,0.2786056,42.51286,-1.913305,3.438035,1008.051
32.502427101,62.82376,-93.86631,66.22443,-0.6702905,0.3429156,0.2899705,41.87438,-7.054435,0.5355713,1008.047
32.537725449,82.45393,-93.1572,61.82602,-0.4316995,0.4815207,0.3243352,41.19646,-10.06968,-2.400317,1008.046
32.570503235,37.10577,-77.91129,64.45284,-0.1717136,0.6162289,0.4029402,41.19646,-10.06968,-2.400317,1008.044
32.603280544,-35.07858,-61.54262,53.15137,-0.1475694,0.6491825,0.280086,40.51948,-13.00721,-4.093984,1008.044
32.636057377,-94.21756,-60.24258,58.77156,0.09058396,0.7991462,0.4776161,39.42389,-16.31325,-6.154325,1008.042
32.668835163,-155.7171,-70.40652,44.04911,0.2558403,0.5126415,0.4011195,39.42389,-16.31325,-6.154325,1008.041
32.704133988,-152.1141,-54.33331,25.90567,0.4006158,0.2321806,0.1677383,39.06618,-17.09984,-10.43135,1008.041
32.736910820,-162.1156,-30.9917,16.07034,0.4353897,0.1138883,0.2044176,37.25328,-17.94368,-14.70555,1008.039
32.769688606,-202.0592,-1.859011,-3.539235,0.4309882,0.1482167,0.3136455,37.25328,-17.94368,-14.70555,1008.039
32.802465916,-269.0255,42.16504,-49.23382,0.1769532,0.1639921,0.226135,36.86874,-17.20074,-18.19839,1008.039
32.837764263,-245.8544,88.96645,-82.40515,-0.1895946,-0.0346676,0.3943363,36.08972,-14.67681,-20.35096,1008.039
32.870542049,-180.8139,107.167,-91.69068,-0.5034807,-0.1663225,0.3293327,36.08972,-14.67681,-20.35096,1008.039
32.903318882,-108.7538,152.7865,-93.09573,-0.4538907,0.03002857,0.4203779,37.79662,-8.473858,-19.58049,1008.039
32.936096668,-113.2886,197.5197,-73.48615,-0.2360061,0.3580579,0.7548758,39.14257,-2.174479,-16.262,1008.042
32.968873978,-376.4944,284.9769,-136.8966,-2.026261,0.7052888,0.5915661,39.14257,-2.174479,-16.262,1008.042
33.004172325,-387.9246,266.9536,-98.04394,-2.730216,-1.698531,-2.033783,40.95498,2.366232,-8.191339,1008.044
33.036950111,50.46173,189.8376,38.0013,-6.294094,-0.7817513,-0.9465361,40.88701,7.266944,3.668662,1008.046
33.069726944,440.1454,-147.6997,139.7145,-1.677161,0.4068272,1.096136,40.88701,7.266944,3.668662,1008.049
33.102504253,-226.659,-102.6711,251.7518,-3.100734,-1.703477,1.063222,38.6121,9.547256,10.1017,1008.053
33.137803078,-95.52209,-76.67034,237.7624,-0.1886313,-0.2903267,1.16923,40.1393,8.367945,4.087523,1008.053
33.170580387,-279.3996,66.57032,45.27089,1.744622,-1.017025,-0.1093869,41.39005,-0.4818087,1.303125,1008.056
33.203357220,47.41781,85.18452,79.54183,1.085265,1.224818,-0.01829908,41.39005,-0.4818087,1.303125,1008.06
33.236135006,-85.21004,218.084,151.4436,-3.959464,1.613976,-1.306116,42.22523,-5.904256,4.744711,1008.062
33.268912315,75.86913,104.0351,108.498,-1.800657,-0.3700778,-0.09713954,40.45806,-8.053001,11.68202,1008.065
33.304210663,0.3923857,41.75138,49.05841,-1.08812,0.4260769,0.2142997,40.45806,-8.053001,11.68202,1008.065
33.336988449,70.15401,29.5192,50.09692,-0.7487977,0.2234411,0.01259109,37.98156,-14.93624,14.34277,1008.066
33.369765282,62.94801,33.5375,41.05575,-0.9682084,0.4231662,0.1418154,36.91783,-16.37948,15.23732,1008.068
33.402543068,-5.384846,16.69609,38.49001,-1.467057,0.0754093,0.1098274,36.91783,-16.37948,15.23732,1008.071
33.437841416,-23.58623,39.38768,42.33862,-0.73829,-0.05749169,0.2931421,35.09962,-16.35728,16.54501,1008.073
33.470618725,49.52992,48.66523,46.49267,-0.9370033,0.8482134,0.5045289,35.11562,-17.13586,17.36549,1008.073
33.503396511,31.94974,63.08385,26.15003,-0.782923,0.2927673,0.07755137,35.11562,-17.13586,17.36549,1008.073
33.536173821,85.43573,93.63477,12.22173,-1.197494,0.8359239,-0.03925486,34.4249,-18.92658,19.57064,1008.073
33.568950653,51.20718,114.3763,5.501939,-1.093827,-0.07315727,0.008561492,31.88135,-18.87971,22.55755,1008.075
33.604249954,89.78419,123.2402,17.35321,-1.122163,0.3693812,-0.1937289,31.88135,-18.87971,22.55755,1008.076
33.637026787,80.15546,116.9173,36.41298,-1.032429,0.1837559,-0.3106328,29.97977,-17.36396,26.45306,1008.074
33.669804096,69.09796,111.4217,55.04513,-0.8214185,0.06453744,-0.3388726,26.31861,-15.77306,31.0958,1008.074
33.702581883,19.09074,106.517,63.96413,-0.6322594,0.3567658,-0.3556467,26.31861,-15.77306,31.0958,1008.076
33.735358715,-8.490886,108.5261,79.11421,-0.5394838,0.3438962,-0.35681,23.02527,-14.64218,33.2584,1008.076
33.770657063,-7.124228,116.09,94.32537,-0.5871191,0.3442371,-0.4606717,18.59929,-14.60184,35.43967,1008.076
33.803434849,-35.07858,122.7675,119.1275,-0.6503156,0.3637872,-0.5149451,18.59929,-14.60184,35.43967,1008.077
33.836212158,-77.0101,136.1815,142.1581,-0.7300342,0.3829986,-0.5980606,14.26697,-16.39063,37.15225,1008.077
33.868989944,-110.2447,154.973,158.5299,-0.5408112,0.4464076,-0.6019745,8.05191,-18.25858,37.18992,1008.076
33.904288292,-201.6865,187.474,148.4502,-0.1855662,0.3484143,-0.4828103,8.05191,-18.25858,37.18992,1008.076
33.937065124,-297.8495,187.6512,142.769,-0.01212483,0.1452539,-0.2802622,0.4179039,-22.26589,36.01972,1008.077
33.969842911,-298.8434,144.9272,166.2882,0.1715407,0.4067955,0.2695858,-8.234965,-27.49612,29.64765,1008.079
34.002620220,-37.06644,97.71217,141.1196,0.7419993,4.976746,-0.6205097,-8.234965,-27.49612,29.64765,1008.079
34.035397053,94.19476,-79.09314,-50.02798,0.1725225,1.125192,-0.2205628,-17.30518,-33.43422,20.30302,1008.081
34.070696354,296.3358,-78.02947,-143.6774,0.1428089,0.3395735,-0.2578172,-24.26803,-34.55156,17.34559,1008.083
34.103473187,175.2624,-15.09577,-100.7319,-0.02847844,1.062259,-0.4842588,-24.26803,-34.55156,17.34559,1008.083
34.136250496,43.93905,18.40978,11.91629,0.05920996,0.7431884,-0.4579923,-19.88164,-34.83901,23.74804,1008.086
34.169028282,-66.8223,51.08803,59.62681,-0.3470137,0.5514573,0.05398494,-15.84952,-32.60354,27.99737,1008.088
34.204326630,-160.3762,11.61412,21.99597,-0.7873096,0.1873915,-0.5028017,-17.34244,-30.80079,26.29231,1008.088
34.237103939,-180.9382,44.76511,24.073,-0.0949379,2.00013,-0.7791454,-17.34244,-30.80079,26.29231,1008.088
34.269881249,45.49207,-29.21892,-7.57111,-0.1202519,0.9119792,-0.2026994,-19.55959,-32.66515,22.84297,1008.09
34.302658558,123.8885,-19.29135,-34.14483,-0.1313523,0.8614191,-0.3161982,-20.62009,-34.5017,21.62985,1008.09
34.335435867,42.51027,-5.050016,-12.21388,0.02048707,0.8952942,-0.4600552,-20.62009,-34.5017,21.62985,1008.091
34.370734692,-26.19531,2.513847,10.20579,-0.096069,0.7283493,-0.3040473,-19.55668,-32.64137,24.58341,1008.091
34.403512001,-45.20427,16.69609,23.27884,-0.1290887,0.9124113,-0.410146,-18.84205,-31.91424,24.57101,1008.091
34.436289787,-48.3103,10.72773,5.44085,-0.04299423,1.061426,-0.3763981,-18.84205,-31.91424,24.57101,1008.087
34.469066620,1.759043,-3.868163,-23.82079,-0.04732396,1.054446,-0.3243902,-20.28629,-32.65151,23.71413,1008.087
34.504364967,24.68161,-16.57309,-40.49809,-0.0814743,0.9112386,-0.3558632,-20.27422,-33.39228,22.85537,1008.086
34.537142754,-14.5166,-17.22311,-48.86728,-0.1232821,0.9272984,-0.3774496,-20.27422,-33.39228,22.85537,1008.086
34.569920063,-28.12105,-20.00047,-47.82877,-0.1474788,0.9061488,-0.3080442,-18.02835,-33.39171,23.28758,1008.084
34.602696896,-25.07713,-18.16859,-51.86065,-0.1961092,0.9354054,-0.314712,-16.92259,-34.1232,23.29763,1008.084
34.635474682,-1.160634,-24.07786,-57.72519,-0.2259745,1.03335,-0.3417451,-16.92259,-34.1232,23.29763,1008.084
34.670773029,19.15286,-26.50066,-73.85269,-0.2453584,1.021674,-0.3166507,-15.08327,-35.23191,22.50441,1008.084
34.703550339,20.20891,-24.66879,-79.71723,-0.3025974,0.9912893,-0.3448695,-12.88394,-35.95499,23.32111,1008.084
34.736328125,35.55275,-27.85979,-78.86198,-0.3707063,0.849298,-0.30069,-12.88394,-35.95499,23.32111,1008.082
34.769104958,52.82232,-33.88725,-80.02268,-0.4173092,0.8344405,-0.3501374,-9.969867,-35.95008,24.18758,1008.084
34.804403305,54.74807,-40.68291,-89.9191,-0.4728422,0.9140319,-0.3241321,-6.637798,-35.58175,25.04776,1008.084
34.837181091,61.95407,-51.2014,-95.96691,-0.5204864,0.9288815,-0.372659,-6.637798,-35.58175,25.04776,1008.088
34.869958401,83.50999,-56.57884,-105.1914,-0.533397,0.8389516,-0.4023373,-3.364956,-35.2014,26.77825,1008.088
34.902735233,117.1173,-68.69283,-111.9722,-0.6691599,0.7651182,-0.3508796,1.76253,-33.36271,28.85634,1008.088
34.935513020,172.6533,-93.51176,-121.5632,-0.7134545,0.6266928,-0.2427409,1.76253,-33.36271,28.85634,1008.088
34.970811844,219.6787,-102.7302,-114.4769,-0.7192471,0.9312255,-0.7072188,6.074241,-30.06352,30.97469,1008.088
35.003589153,136.499,-120.5762,-107.2684,-0.7772334,0.4745102,-0.3386326,11.87684,-25.23251,34.31039,1008.088
35.036366463,229.6802,-146.9906,-97.1276,-0.8329886,0.4283993,-0.3889738,11.87684,-25.23251,34.31039,1008.088
35.069143772,217.5045,-162.7684,-87.65881,-0.8282208,0.2341153,-0.5282872,17.20351,-17.95091,34.62385,1008.088
35.104442596,163.211,-151.4817,-77.21259,-0.9414073,0.1096806,-0.2163902,22.21067,-9.890865,34.05507,1008.088
35.137219906,133.6415,-158.9865,-69.45428,-0.9206694,0.01471707,0.04026959,27.53039,-2.596083,30.88668,1008.086
35.169996738,137.5551,-155.5,-53.75441,-0.8525195,-0.0840895,-0.1027076,27.53039,-2.596083,30.88668,1008.086
35.202774525,173.5851,-139.604,-8.120912,-0.5328167,0.01007075,-0.2537926,31.8219,4.308714,25.67412,1008.085
35.235551834,94.50536,-116.3806,23.70646,-0.512543,-0.06536199,0.1506168,36.10857,8.242516,20.88138,1008.085
35.270850182,52.13899,-68.63374,60.05443,-0.6072686,-0.3168063,-0.1746614,36.10857,8.242516,20.88138,1008.085
35.303627968,-30.60588,-44.52393,77.40372,-1.301723,-0.09519,0.802372,37.52317,9.996677,16.12678,1008.085
35.336404800,54.62383,-60.30167,94.69191,-1.344077,-0.120507,0.4342688,39.42838,8.510645,14.40683,1008.083
35.369182110,67.48283,-13.32299,78.74767,-1.1023,-0.01603515,-0.1715338,39.42838,8.510645,14.40683,1008.083
35.404480934,3.809028,16.69609,71.53917,-0.9858662,0.3192397,0.2763138,40.94201,5.198351,12.34312,1008.083
35.437258244,-2.216687,-1.327177,71.53917,-0.7865356,0.2156695,0.2711836,41.68431,4.472826,12.72659,1008.083
35.470036030,19.89831,12.14595,58.58829,-0.9752697,0.2800899,-0.1135553,41.68431,4.472826,12.72659,1008.083
35.502812863,-13.58479,13.80055,43.68258,-1.134639,0.3776782,0.1740486,41.01886,1.139843,13.21517,1008.087
35.535590172,-2.589411,9.604969,28.47141,-0.9745818,0.4433745,0.1138811,41.4182,-0.6713262,14.11357,1008.089
35.570888996,-11.78329,-11.84567,21.62944,-0.9694704,0.3504315,0.1895829,41.4182,-0.6713262,14.11357,1008.09
35.603666306,17.04075,-9.895617,18.02519,-0.8954607,0.4178538,-0.07929416,41.0872,-2.498582,13.70758,1008.09
35.636443138,-25.07713,-11.01838,8.678568,-1.027292,0.3796498,0.2585107,40.72989,-2.862147,13.71378,1008.089
35.669220925,20.02255,-25.79155,3.913625,-0.8523409,0.2611553,-0.04257677,40.72989,-2.862147,13.71378,1008.09
35.704519272,-27.49984,6.413964,-6.34933,-1.04919,0.6146101,0.3145278,40.37787,-3.602036,12.85548,1008.092
35.737296581,-12.4045,-17.34129,-5.982796,-0.8828268,0.2681021,0.2227154,41.46407,-3.234273,13.28346,1008.092
35.770074368,-5.322725,21.4826,-14.10764,-0.85778,0.5060657,-0.04630252,41.46407,-3.234273,13.28346,1008.092
35.802851200,-81.66916,23.19629,-18.26169,-1.051288,0.2954697,0.4387237,41.09865,-3.244439,12.47586,1008.094
35.835628509,-1.098513,20.71439,-18.62822,-0.8329456,0.2866512,0.02858035,41.45658,-2.87578,12.84262,1008.094
35.870927811,-50.36029,37.67399,-21.43832,-0.9722543,0.4963786,0.1691523,41.45658,-2.87578,12.84262,1008.094
35.903704643,-44.95578,24.14177,-25.83673,-1.061267,0.1391674,0.1058807,40.73061,-2.856203,14.14889,1008.096
35.936482429,-11.96965,16.16426,-26.75306,-0.9435128,0.4192687,-0.02815797,40.72603,-2.473934,15.44849,1008.096
35.969259739,-60.17537,16.22335,-26.75306,-1.073133,0.2120186,0.020598,40.72603,-2.473934,15.44849,1008.096
36.002036572,-16.56659,-9.836523,-24.3095,-1.0366,0.1823094,0.1168285,39.62777,-2.100935,15.87929,1008.102
36.037335873,-2.837895,-13.67755,-21.80485,-0.9368569,0.2670946,-0.06741608,39.621,-1.736499,15.87356,1008.102
36.070112705,-29.79831,-24.78697,-21.86594,-1.037035,0.1457196,0.03842269,39.621,-1.736499,15.87356,1008.103
36.102890015,0.7651103,-39.26468,-16.73446,-1.026936,0.1983216,0.09656423,40.33418,-1.021258,14.99093,1008.099
36.135667801,-7.993919,-45.5285,-11.35863,-1.004228,0.2583579,0.1580342,40.33345,-1.027202,14.55582,1008.099
36.170966148,-3.210619,-58.17434,-7.143487,-1.029932,0.04143237,0.1613103,41.0378,0.03549385,12.42429,1008.099
36.203742981,6.480222,-57.87888,-4.333393,-0.965053,0.3118069,0.09287687,41.0378,0.03549385,12.42429,1008.099
36.236520767,-26.31955,-60.00621,-2.134188,-1.011085,0.1088907,0.3142369,41.75701,0.3803539,11.11229,1008.097
36.269298077,14.86653,-66.62459,-1.584387,-0.8322192,0.2409255,0.3160205,41.74516,0.7031837,8.060776,1008.102
36.302074909,-27.93469,-57.64251,-2.195277,-1.03701,0.1956111,0.3493071,41.74516,0.7031837,8.060776,1008.102
36.337374210,29.71339,-74.07027,-2.806167,-0.9204698,0.2006906,0.3793488,42.47124,0.6844554,6.816659,1008.102
36.370151043,19.21498,-78.32494,3.913625,-0.838666,0.2933243,0.2947769,42.46688,0.6487927,4.205989,1008.102
36.402928352,-12.52874,-66.21094,2.569666,-0.8617228,0.2202737,0.4634183,42.46688,0.6487927,4.205989,1008.102
