Time (s),Gyroscope X (deg/s),Gyroscope Y (deg/s),Gyroscope Z (deg/s),Accelerometer X (g),Accelerometer Y (g),Accelerometer Z (g),Magnetometer X (uT),Magnetometer Y (uT),Magnetometer Z (uT),Barometer (hPa)
0.029781818,354.7903,-27.5245,-135.9416,-0.350784,2.697394,1.884748,-17.96238,-26.94641,-69.63728,1008.388
0.062558174,-1.223901,-16.47417,22.76763,0.0808614,0.09477318,-0.01710179,-15.45823,-25.21694,-76.00942,1008.388
0.095334530,-57.31896,-7.078434,29.73178,0.09569167,1.156696,0.7605872,-15.45823,-25.21694,-76.00942,1008.388
0.128110886,-40.91908,4.858288,26.2497,-0.007344647,0.5618635,0.6519776,-13.92755,-29.22924,-75.94827,1008.387
0.163408756,-29.67522,4.208269,16.7809,0.06463796,0.5335077,0.760156,-15.37179,-29.96651,-76.80515,1008.387
0.196185112,12.75327,-13.28316,10.54983,0.1643565,0.4628558,0.7759109,-15.37179,-29.96651,-76.80515,1008.391
0.228961468,64.12716,-23.97894,6.395772,0.06986766,0.5722165,0.7172441,-15.04079,-28.13926,-76.39915,1008.391
0.261737824,65.92866,1.430913,-16.08499,0.1246255,0.8249983,0.7225096,-16.48889,-28.48832,-75.52133,1008.391
0.294514179,54.93328,-8.673936,-14.92429,0.1275488,0.8069907,0.6508068,-16.48889,-28.48832,-75.52133,1008.389
0.329812050,35.42736,-8.792121,-10.22044,0.1197871,0.7959267,0.6099262,-16.80451,-31.09924,-75.4798,1008.389
0.362588406,36.17281,-11.03764,-8.509948,0.01836522,0.7677596,0.6034701,-16.39175,-33.64014,-74.63209,1008.389
0.395364761,34.12282,-16.53326,-2.706491,0.05611162,0.8226494,0.6071488,-16.39175,-33.64014,-74.63209,1008.389
0.428141594,17.03961,-5.305653,1.203206,0.05606725,0.8386242,0.5931653,-17.07112,-36.17756,-73.72081,1008.389
0.463438988,-4.39206,8.108386,3.341321,0.06723601,0.8372127,0.5868832,-18.12882,-37.99118,-73.25564,1008.389
0.496215343,-7.373857,9.822074,2.852609,0.06600197,0.7492563,0.6168631,-18.82921,-39.44124,-72.79667,1008.394
0.528992176,16.85324,1.785469,0.6534048,0.06258585,0.7600731,0.635628,-18.82921,-39.44124,-72.79667,1008.39
0.561768532,20.70473,-2.587389,-0.1407525,0.07318349,0.7835847,0.5720278,-17.74374,-39.07943,-72.80381,1008.39
0.594544887,12.44267,-3.47378,0.8977608,0.09528777,0.8811696,0.5708655,-18.0996,-39.4311,-71.92738,1008.39
0.629842758,-9.361722,1.076357,0.8977608,0.08515704,0.8508018,0.5584199,-18.0996,-39.4311,-71.92738,1008.39
0.662619114,-17.62379,6.985625,-0.4461975,0.09981838,0.812999,0.567588,-17.71596,-40.53122,-72.34578,1008.39
0.695395470,-17.18894,10.05844,-1.057088,0.05669033,0.7816796,0.5980632,-18.09356,-39.80148,-72.35677,1008.39
0.728171825,-18.43136,10.59028,-2.401046,0.07552896,0.8252532,0.6080615,-18.09356,-39.80148,-72.35677,1008.392
0.763469696,-15.69804,9.467518,-0.07966346,0.07900581,0.7860885,0.5748983,-17.37362,-39.45068,-73.23366,1008.394
0.796246052,-32.34641,12.48124,-1.362533,0.07406268,0.8356997,0.6412632,-17.38714,-38.7218,-73.24512,1008.394
0.829022407,-17.81015,7.812922,2.486075,0.04386147,0.6758571,0.6641997,-17.38714,-38.7218,-73.24512,1008.394
0.861798763,-12.15716,5.508308,1.936274,0.0326171,0.7099294,0.674765,-17.03128,-38.37013,-74.12154,1008.392
0.894575119,10.95177,-2.055555,1.019939,0.04245794,0.6549564,0.6719363,-16.31665,-37.643,-74.13394,1008.394
0.929872990,18.34414,-4.36017,1.630829,0.05093828,0.7595659,0.6467278,-16.31665,-37.643,-74.13394,1008.394
0.962649345,16.48052,-1.93737,0.5312267,0.06292894,0.8184634,0.6273561,-15.61554,-36.187,-74.15781,1008.392
0.995425701,0.826085,0.5445225,0.4090487,0.06194294,0.8237792,0.6225369,-16.32414,-37.2845,-74.57478,1008.392
1.028202057,-6.193563,1.785469,-0.07966346,0.0571957,0.7809842,0.6375347,-16.32414,-37.2845,-74.57478,1008.398
1.063499928,-3.957215,0.2490591,-0.2629305,0.04710307,0.7385846,0.6458058,-15.94581,-38.00831,-74.12868,1008.396
1.096276283,3.559399,-0.9327945,-0.07966346,0.05048444,0.7449042,0.6400119,-16.68676,-37.27174,-73.70409,1008.396
1.129052639,7.348767,-2.173741,0.5312267,0.05383488,0.763873,0.6322736,-16.68676,-37.27174,-73.70409,1008.394
1.161829472,6.354834,-1.760092,0.9588498,0.05815551,0.7833403,0.6250135,-16.68749,-37.27769,-74.13921,1008.394
1.194605827,2.441225,-0.282775,0.5923157,0.06106368,0.7863137,0.628853,-16.32269,-37.27262,-73.70456,1008.394
1.229903221,0.5776018,0.1308737,0.2257816,0.05963502,0.7731015,0.6216559,-16.32269,-37.27262,-73.70456,1008.393
1.262680054,-0.1057267,0.4263372,0.04251458,0.05525867,0.778019,0.633693,-16.31738,-37.64894,-74.56905,1008.393
1.295456410,0.5154811,0.8990787,-0.2629305,0.05914089,0.7790255,0.6336823,-16.32341,-37.27856,-74.13967,1008.393
1.328232765,-1.907229,1.312727,-0.5683756,0.05428046,0.7804259,0.6308035,-16.32341,-37.27856,-74.13967,1008.393
1.361009121,-1.907229,1.253635,-0.7516426,0.05672712,0.7721534,0.6288847,-15.94509,-38.00237,-73.69357,1008.387
1.396306991,-0.9754176,1.017264,-0.1407525,0.05187735,0.7701848,0.6317873,-16.30916,-38.00149,-73.6931,1008.387
1.429083347,-1.348142,0.4263372,0.1646926,0.05720605,0.7745792,0.6269545,-15.94509,-38.00237,-73.69357,1008.388
1.461859703,-2.77692,0.1308737,0.4701377,0.05284566,0.771664,0.6332269,-15.94509,-38.00237,-73.69357,1008.388
1.494636059,-2.839041,-0.5782384,0.6534048,0.05285629,0.7672842,0.6337149,-15.5885,-37.64474,-74.13489,1008.388
1.529933929,-3.149645,-0.0464043,0.4701377,0.05528205,0.7692927,0.6394824,-15.95934,-37.27943,-74.14014,1008.388
1.562710285,-2.466316,0.1308737,0.3479597,0.06063929,0.7625155,0.6389985,-15.95934,-37.27943,-74.14014,1008.388
1.595486641,-2.217833,0.3081518,0.1646926,0.05963337,0.7750965,0.628392,-16.3309,-36.92007,-74.58051,1008.39
1.628262997,-2.404196,0.6036152,0.04251458,0.05723367,0.764909,0.6370776,-16.31592,-37.63705,-73.69883,1008.39
1.661039352,-1.658746,0.07178105,0.4090487,0.05527837,0.7707504,0.6389988,-16.31592,-37.63705,-73.69883,1008.39
1.696337223,-1.16178,-0.1645897,0.4701377,0.05382612,0.7697977,0.6438174,-15.95257,-37.64387,-74.13441,1008.39
1.729113579,-2.279954,0.07178105,0.1646926,0.05868743,0.7658851,0.6356286,-15.60129,-36.90993,-73.71124,1008.39
1.761889934,-2.155712,-0.0464043,0.5312267,0.05239234,0.7600417,0.6433541,-15.60129,-36.90993,-73.71124,1008.39
1.794666767,-1.286021,-0.282775,0.5923157,0.05529546,0.7649564,0.646228,-15.60202,-36.91587,-74.14635,1008.39
1.829964161,-0.7269344,-0.0464043,0.3479597,0.05529606,0.7639554,0.6423786,-15.60202,-36.91587,-74.14635,1008.39
1.862740993,-1.16178,0.7808933,0.1036036,0.0586704,0.7737009,0.6389863,-15.60202,-36.91587,-74.14635,1008.39
1.895517349,-1.286021,-0.2236823,0.5312267,0.06066057,0.7547666,0.6452678,-15.9661,-36.915,-74.14587,1008.39
1.928293705,0.1427564,-0.6964238,0.4090487,0.05580943,0.7532818,0.6476884,-15.96537,-36.90905,-73.71076,1008.388
1.961070061,2.565467,-0.9918872,0.5923157,0.05676044,0.7605518,0.6414175,-15.96537,-36.90905,-73.71076,1008.387
1.996367931,3.745761,-0.8737018,0.5312267,0.05627466,0.7605444,0.6409373,-16.33621,-36.54374,-73.71603,1008.388
2.029144287,1.695776,-0.6964238,-0.1407525,0.05720392,0.7780821,0.6404273,-16.32945,-36.90818,-73.71029,1008.388
2.061920643,4.118486,-0.8737018,0.5312267,0.05821693,0.7605606,0.6409327,-16.32945,-36.90818,-73.71029,1008.387
2.094696999,5.112419,-1.287351,0.5923157,0.06357169,0.7532395,0.6322665,-15.95934,-37.27943,-74.14014,1008.387
2.129994869,4.801815,-1.405536,0.2257816,0.06398921,0.7819814,0.6327036,-16.32341,-37.27856,-74.13967,1008.387
2.162771225,-8.305669,1.017264,-0.9959988,0.07021496,0.8165426,0.6225281,-16.32341,-37.27856,-74.13967,1008.387
2.195547581,-14.0829,2.494581,-0.9349097,0.05675743,0.7630304,0.6476715,-15.9661,-36.915,-74.14587,1008.387
2.228323937,-11.90867,1.194542,0.9588498,0.056849,0.7260733,0.6559101,-16.31665,-37.643,-74.13394,1008.387
2.261100292,1.820017,-0.1645897,-0.5072865,0.06794581,0.7583905,0.6673878,-16.31665,-37.643,-74.13394,1008.387
2.296398163,2.689708,0.1308737,-0.8738207,0.0382996,0.7607576,0.6231692,-15.60274,-36.92181,-74.58146,1008.388
2.329174519,7.783612,0.07178105,-0.3851085,0.06105722,0.7912642,0.6403983,-16.33766,-36.55563,-74.58625,1008.387
2.361950874,-2.466316,0.3081518,0.4701377,0.05866738,0.7726432,0.626954,-16.33766,-36.55563,-74.58625,1008.387
2.394727707,-2.839041,0.01268838,0.04251458,0.04853544,0.7478135,0.6404935,-16.33694,-36.54969,-74.15113,1008.387
2.430025101,3.559399,-0.5782384,0.1036036,0.05427864,0.7834284,0.6423516,-16.33694,-36.54969,-74.15113,1008.387
2.462801456,-2.279954,-0.4009604,0.2257816,0.05433723,0.7585834,0.6414262,-16.68676,-37.27174,-73.70409,1008.387
2.495578289,-0.292089,-0.2236823,0.2257816,0.06159551,0.7693621,0.6418741,-16.68676,-37.27174,-73.70409,1008.387
2.528354645,-0.1678475,-0.282775,0.1646926,0.06499177,0.7713687,0.6461954,-15.9661,-36.915,-74.14587,1008.387
2.561131000,-0.4784513,-0.5191457,0.1036036,0.06015013,0.7634655,0.6361101,-16.68146,-37.64807,-74.56859,1008.387
2.596428871,-1.037538,-0.4600531,-0.1407525,0.05918459,0.7620298,0.6409281,-16.68146,-37.64807,-74.56859,1008.388
2.629205227,1.074568,-0.5191457,-0.07966346,0.06161338,0.7615596,0.6404417,-16.32341,-37.27856,-74.13967,1008.387
2.661981583,-0.1678475,-0.105497,0.04251458,0.05819232,0.7712886,0.6428421,-16.32341,-37.27856,-74.13967,1008.387
2.694757938,-1.037538,0.2490591,-0.07966346,0.06015089,0.7639826,0.6404415,-16.32341,-37.27856,-74.13967,1008.387
2.730055809,-0.6648136,0.1308737,-0.1407525,0.06208768,0.7659335,0.6385086,-16.68749,-37.27769,-74.13921,1008.387
2.762832165,-0.4163305,0.4854299,-0.3240195,0.06257486,0.766468,0.6447644,-16.68073,-37.64212,-74.13348,1008.387
2.795608520,-0.3542098,0.1308737,-0.2018415,0.05966249,0.7654497,0.6418846,-16.68073,-37.64212,-74.13348,1008.387
2.828384876,-0.3542098,-0.105497,0.1036036,0.05481616,0.7610092,0.639496,-15.96745,-36.92603,-74.95394,1008.387
2.861162186,0.3291188,-0.282775,0.2257816,0.06115107,0.7523222,0.6433449,-15.96006,-37.28538,-74.57526,1008.385
2.896459103,1.012447,-0.5191457,0.04251458,0.05821136,0.7629991,0.6414104,-15.96006,-37.28538,-74.57526,1008.389
2.929236412,-0.0436059,0.07178105,-0.1407525,0.05964607,0.7722647,0.641393,-16.68073,-37.64212,-74.13348,1008.389
2.962012768,0.08063565,0.1899664,-0.2629305,0.05773758,0.758128,0.6419002,-15.95934,-37.27943,-74.14014,1008.389
2.994789124,0.7018434,0.3081518,-0.3851085,0.05967659,0.7596087,0.6423747,-15.95934,-37.27943,-74.14014,1008.389
3.030086994,0.826085,0.3081518,-0.3240195,0.05917963,0.7634674,0.6375564,-16.33017,-36.91412,-74.1454,1008.389
3.062863350,1.074568,-0.282775,-0.07966346,0.05723328,0.7659131,0.6414083,-16.32269,-37.27262,-73.70456,1008.391
3.095639706,1.136689,-0.2236823,0.1036036,0.06112717,0.7615455,0.6389988,-16.32269,-37.27262,-73.70456,1008.391
3.128416061,0.3912396,-0.282775,0.1646926,0.0601385,0.7698504,0.6438023,-16.33017,-36.91412,-74.1454,1008.388
3.161192417,0.266998,-0.105497,-0.1407525,0.06013983,0.7683558,0.6389909,-16.32341,-37.27856,-74.13967,1008.388
3.196490288,1.074568,0.07178105,-0.07966346,0.06257212,0.7674355,0.6438001,-16.32341,-37.27856,-74.13967,1008.388
3.229266644,0.7018434,0.1308737,-0.2018415,0.06012775,0.7737231,0.6404269,-16.33017,-36.91412,-74.1454,1008.387
3.262042999,0.2048772,0.4854299,-0.3851085,0.05916395,0.7697887,0.6361029,-16.32341,-37.27856,-74.13967,1008.387
3.294819355,0.2048772,0.3672445,-0.2018415,0.05431753,0.7658519,0.6361203,-16.32341,-37.27856,-74.13967,1008.387
3.330117226,1.136689,-0.6373311,0.3479597,0.05675633,0.7620028,0.6399713,-16.32341,-37.27856,-74.13967,1008.387
3.362893581,2.0685,-0.8146091,0.6534048,0.05576637,0.7702875,0.6418865,-15.95861,-37.27349,-73.70503,1008.387
3.395669937,2.254863,-0.8737018,0.5923157,0.06547475,0.7703217,0.6351244,-15.95861,-37.27349,-73.70503,1008.391
3.428446293,1.136689,0.839986,-0.8738207,0.06642768,0.7776217,0.6331857,-15.95934,-37.27943,-74.14014,1008.391
3.461223125,-1.596625,2.25821,-1.179266,0.05866334,0.776116,0.6360946,-16.68676,-37.27174,-73.70409,1008.391
3.496520519,-0.1678475,0.839986,-0.3240195,0.04269298,0.7550971,0.6443473,-16.31665,-37.643,-74.13394,1008.385
3.529296875,2.87607,-1.05098,0.8366718,0.05819229,0.7702777,0.6375486,-16.31665,-37.643,-74.13394,1008.391
3.562073707,1.571534,-1.760092,1.447562,0.06351816,0.776143,0.6341576,-16.32945,-36.90818,-73.71029,1008.389
3.594850063,-0.1678475,-0.5191457,0.1646926,0.06739821,0.7786307,0.6370328,-15.95944,-37.28028,-74.2023,1008.389
3.630147457,-1.907229,0.9581714,-0.9349097,0.06449564,0.7742299,0.638009,-15.95944,-37.28028,-74.2023,1008.389
3.662924290,-1.16178,0.6036152,-0.6294646,0.05725904,0.7546981,0.6394997,-15.95185,-37.63793,-73.6993,1008.391
3.695700645,1.820017,-0.282775,-0.01857444,0.05673708,0.7702889,0.6409215,-15.96006,-37.28538,-74.57526,1008.391
3.728477001,1.633655,-0.4009604,0.5312267,0.05672231,0.775109,0.6336939,-15.96006,-37.28538,-74.57526,1008.391
3.761253357,-0.0436059,0.2490591,-0.1407525,0.06012437,0.7746805,0.6380187,-16.32414,-37.2845,-74.57478,1008.391
3.796551228,-0.7269344,-0.1645897,0.1036036,0.05867649,0.7707654,0.6370654,-16.68,-37.63618,-73.69836,1008.391
3.829327583,-1.099659,-0.4600531,-0.1407525,0.06110613,0.7703087,0.6385043,-16.68,-37.63618,-73.69836,1008.391
3.862103939,-0.292089,-0.282775,-0.07966346,0.06014422,0.7653935,0.6332191,-16.31665,-37.643,-74.13394,1008.397
3.894880295,-0.0436059,-0.6373311,-0.2629305,0.06016706,0.7561533,0.6351584,-16.32414,-37.2845,-74.57478,1008.395
3.927656651,0.7018434,-0.7555165,-0.2018415,0.05576939,0.7678089,0.6356326,-16.32414,-37.2845,-74.57478,1008.393
3.962954521,0.4533603,-0.4009604,-0.5072865,0.06012638,0.7742069,0.6399449,-16.31665,-37.643,-74.13394,1008.395
3.995730877,-1.782988,-0.2236823,-0.4461975,0.06302356,0.7800386,0.6346342,-15.95257,-37.64387,-74.13441,1008.395
4.028507233,-0.5405721,0.4263372,-0.5683756,0.0625882,0.76011,0.640923,-15.95257,-37.64387,-74.13441,1008.395
4.061283588,1.19881,0.5445225,-0.6294646,0.05433038,0.7610018,0.6390157,-15.95934,-37.27943,-74.14014,1008.395
4.096581459,2.254863,0.3672445,-0.2629305,0.05672916,0.7726906,0.6361043,-15.95934,-37.27943,-74.14014,1008.397
4.129357815,1.633655,0.1899664,-0.2629305,0.05816269,0.7814324,0.6307927,-15.95934,-37.27943,-74.14014,1008.397
4.162134171,-0.6648136,0.1899664,-0.2018415,0.05915426,0.7736782,0.6351343,-15.95934,-37.27943,-74.14014,1008.397
4.194911003,-1.223901,0.07178105,-0.1407525,0.05913383,0.7814405,0.6307905,-15.95257,-37.64387,-74.13441,1008.397
4.227687359,-2.155712,0.07178105,0.1036036,0.05138603,0.7736267,0.6370783,-15.95257,-37.64387,-74.13441,1008.395
4.262984753,-0.7269344,-0.4600531,0.3479597,0.05674683,0.7648848,0.6341906,-15.95257,-37.64387,-74.13441,1008.395
4.295761585,1.385172,-0.5191457,0.7144938,0.05623598,0.7745878,0.6293636,-16.68749,-37.27769,-74.13921,1008.397
4.328537941,11.9457,1.312727,6.334683,0.03019662,0.9009464,0.621533,-16.68749,-37.27769,-74.13921,1008.397
4.361314297,-3.58449,-11.68766,8.533888,0.0105001,0.4333474,0.7796898,-16.32341,-37.27856,-74.13967,1008.395
4.396612167,168.8628,-23.26983,6.151416,0.08732685,1.188746,0.6869104,-16.30916,-38.00149,-73.6931,1008.391
4.429388523,178.4915,-39.93396,64.30816,0.2240064,0.7535902,-0.0006238738,-17.38216,-38.68105,-70.2615,1008.395
4.462164879,291.6134,-72.19857,92.10366,0.5231897,1.809353,0.3195876,-17.38216,-38.68105,-70.2615,1008.391
4.494941234,184.5172,-11.15583,136.1488,0.5361293,1.676987,0.3197565,-20.12102,-46.97675,-59.86879,1008.391
4.527717590,207.9368,-17.006,147.8779,0.3345083,1.041196,-0.02731297,-28.65043,-59.51526,-40.88397,1008.391
4.563015461,224.9578,17.14957,147.3281,0.4924136,1.157138,-0.2834654,-28.65043,-59.51526,-40.88397,1008.395
4.595791817,105.0648,75.23767,129.9789,0.3528523,0.8098384,-0.4015072,-35.64445,-56.69019,-22.08096,1008.392
4.628568172,80.46492,108.2114,104.3826,0.3032607,0.6104312,-0.5118023,-40.14893,-48.48418,-13.62441,1008.39
4.661344528,69.53167,130.903,83.67338,0.3168564,0.6166033,-0.4810367,-40.14893,-48.48418,-13.62441,1008.39
4.696642399,123.0177,157.6129,61.62024,0.3023259,0.3609641,-0.6654598,-39.93361,-40.46745,-13.75094,1008.39
4.729418755,142.5857,197.9732,22.82872,0.3567256,0.5409722,-0.7592443,-38.22252,-34.58008,-13.84593,1008.388
4.762196064,137.1191,262.2069,-24.20983,0.1158485,0.3757749,-0.6226799,-38.22252,-34.58008,-13.84593,1008.388
4.794972420,164.2658,291.7533,-67.64412,0.1300256,0.5905451,-0.3616579,-35.35941,-32.05383,-15.19513,1008.386
4.827748775,252.4773,144.4943,-43.39178,-2.416797,1.100829,-0.8213818,-29.09194,-33.18505,-16.8643,1008.386
4.863046646,137.6781,-22.79709,10.85527,2.149427,0.2157784,-0.4414566,-29.09194,-33.18505,-16.8643,1008.386
4.895823002,-85.52179,67.61472,-29.3413,0.3640958,1.280863,0.08345018,-23.95326,-34.95577,-12.18032,1008.386
4.928599358,-148.2017,40.3139,-12.60291,0.6819672,0.9489317,0.08464061,-26.12275,-35.66751,-11.29581,1008.385
4.961375713,-111.7368,30.26814,-17.85657,0.7252764,0.5047594,0.1039804,-26.12275,-35.66751,-11.29581,1008.389
4.996673584,-62.04014,15.49497,-21.70518,0.6449336,0.6268722,0.2512836,-24.69461,-34.64223,-16.03895,1008.387
5.029449940,-90.42934,-0.5782384,-32.51793,0.3405471,0.8627437,0.5679048,-23.98569,-33.9618,-19.47009,1008.387
5.062226295,-175.9697,-23.5062,-44.18593,0.1141764,1.123523,0.6604701,-23.98569,-33.9618,-19.47009,1008.387
5.095002651,-251.5085,-35.44292,-67.82738,-0.1718371,0.9350468,0.7254537,-22.91872,-32.91187,-22.47231,1008.385
5.127779007,-338.7261,-53.11163,-92.26299,-0.2615113,0.8458089,0.6073859,-22.59093,-31.53056,-28.02783,1008.385
5.163076878,-342.8882,-46.31598,-137.3467,-0.2172034,0.5743071,0.522489,-22.59093,-31.53056,-28.02783,1008.385
5.195853233,-224.2375,-26.63811,-187.8673,-0.05707126,0.2462038,0.7035956,-22.69283,-26.83743,-35.81097,1008.385
5.228629589,-92.04447,-11.68766,-242.1754,-0.02325085,0.2983898,0.6033136,-23.19075,-20.37604,-43.18622,1008.385
5.261406422,-34.58276,16.44045,-273.3308,-0.1065939,0.6064991,0.4663401,-23.19075,-20.37604,-43.18622,1008.387
5.296703816,-22.71769,69.09203,-268.3215,0.1032541,1.599519,0.486007,-22.50822,-18.58232,-49.61912,1008.393
5.329480171,-4.454181,122.8073,-237.8381,0.4392409,1.604943,0.4418794,-16.91304,-23.5222,-58.93678,1008.393
5.362257004,63.63019,153.1809,-184.5685,0.9841377,1.472475,-0.072345,-16.91304,-23.5222,-58.93678,1008.393
5.395033359,253.4713,127.3574,-111.7504,0.9069169,2.174229,1.4113,-3.083979,-20.32227,-62.42503,1008.393
5.427809715,-29.6131,159.0902,-40.70386,0.7393556,1.043297,0.7688587,8.928846,-16.59431,-58.70718,1008.393
5.463107586,63.50595,149.399,-81.93894,-0.4332233,-0.01248991,0.7948924,17.46949,-22.1121,-56.4556,1008.393
5.495883942,123.6389,195.314,-123.7238,-2.153761,1.106917,-0.05183603,17.46949,-22.1121,-56.4556,1008.393
5.528660297,19.02747,158.7947,-142.9669,-0.467767,0.5695236,0.4860256,26.65799,-23.18152,-53.09365,1008.393
5.561436653,77.17252,158.322,-172.8394,-0.2352867,0.9647683,0.1729561,36.54531,-22.39398,-47.08848,1008.393
5.596734524,-17.3753,132.853,-158.178,-0.542496,1.337894,0.3396735,36.54531,-22.39398,-47.08848,1008.391
5.629510879,-155.2213,130.6075,-180.109,-1.399702,-0.1732061,-0.4237878,44.90144,-17.52832,-40.77245,1008.391
5.662287235,90.03152,70.03751,-133.0704,-0.5716497,0.5746669,0.5801297,51.34777,-11.28407,-36.15425,1008.391
5.695063591,-42.7827,57.74624,-133.3759,-1.024924,0.163051,0.06484274,51.34777,-11.28407,-36.15425,1008.391
5.727839947,52.51057,61.88273,-105.3971,-0.9481547,0.1437598,0.0699847,56.02579,-4.61636,-31.97557,1008.391
5.763137817,68.66197,84.10158,-81.38914,-0.9540663,0.4398982,0.3598135,57.39919,0.1585879,-29.06832,1008.39
5.795914173,14.24417,102.3612,-75.95222,-0.9573851,0.1683641,0.1874218,57.39919,0.1585879,-29.06832,1008.394
5.828690529,0.1427564,97.75198,-72.59232,-0.977403,0.1462694,-0.1643729,59.52957,3.558558,-24.39959,1008.394
5.861466885,-42.22361,94.56098,-77.66271,-1.07792,-0.01676441,0.0445409,61.29085,7.268194,-19.36222,1008.392
5.896764755,-5.634476,66.49196,-97.69991,-1.015866,0.1458469,-0.3890769,61.29085,7.268194,-19.36222,1008.39
5.929541111,-11.66019,49.82782,-117.3095,-1.157069,-0.05583495,-0.1559403,62.67319,11.69654,-15.1439,1008.39
5.962317467,17.41233,71.16028,-134.2922,-1.706051,0.498742,-0.009621471,62.59664,16.17722,-11.79488,1008.39
5.995094299,-122.6079,77.71957,-133.1315,-1.940987,-0.09244216,0.2849761,62.59664,16.17722,-11.79488,1008.392
6.027871132,-154.6001,25.30436,-96.60031,-2.551712,0.2700188,0.3335332,60.32323,21.33128,-8.453547,1008.392
6.063169003,63.00898,-123.8456,60.94827,-1.291414,0.2844459,0.8932341,55.13138,26.93447,-3.871963,1008.392
6.095945358,69.09682,-136.3141,112.0187,-0.6270726,-0.05116132,0.3694053,55.13138,26.93447,-3.871963,1008.392
6.128721714,27.84862,-129.6367,127.7186,-1.065984,0.03622498,-0.1240439,48.17249,25.42976,-8.501948,1008.396
6.161498070,-18.49348,-117.2863,101.2059,-1.131551,-0.1888254,-0.2607373,44.99514,19.46437,-14.37233,1008.394
6.194274426,-10.85262,-122.191,89.6601,-0.8911862,0.03353613,-0.1605566,44.99514,19.46437,-14.37233,1008.394
6.229572296,29.71225,-143.1098,87.33872,-0.8511415,-0.03024482,0.004551672,41.73454,15.06346,-16.90993,1008.39
6.262348652,100.7163,-161.3694,93.93633,-0.7058188,-0.0748624,0.06733262,39.96907,11.66941,-21.08186,1008.39
6.295125008,134.7585,-159.7148,115.2564,-0.6962376,0.2050322,0.1737504,39.96907,11.66941,-21.08186,1008.393
6.327901840,134.013,-144.1144,131.5672,-0.7641795,0.1828249,0.1436192,37.10265,8.696365,-25.75633,1008.391
6.363199234,135.5039,-121.2455,145.3122,-0.8285468,0.296738,0.1431188,34.29748,2.376701,-30.81339,1008.389
6.395975590,109.1647,-96.07201,147.6336,-0.9666965,0.415458,0.2222109,34.29748,2.376701,-30.81339,1008.389
6.428752422,91.52242,-81.71249,139.5087,-1.130191,0.3562035,0.2323152,30.34264,-3.843798,-33.25924,1008.389
6.461528778,86.42852,-70.07124,126.2524,-1.051118,0.3652937,0.1136989,26.83,-10.832,-34.01494,1008.383
6.494305134,50.39847,-41.05672,107.4981,-0.9589116,0.3990994,0.1716741,26.83,-10.832,-34.01494,1008.386
6.529603004,24.1835,-22.56072,86.30021,-0.9345649,0.3776402,0.2082322,22.9326,-16.65934,-34.3532,1008.384
6.562379360,12.50479,-14.87867,63.5751,-0.8164656,0.3211873,0.1425719,20.03553,-20.71581,-33.85027,1008.38
6.595155716,0.3291188,0.4263372,39.0784,-0.7295544,0.3283944,0.1640162,17.52756,-22.89633,-33.8126,1008.379
6.627932072,-4.329939,7.812922,16.53655,-0.6843292,0.2969906,0.1461459,17.52756,-22.89633,-33.8126,1008.379
6.663229942,1.26093,13.07217,-10.77024,-0.6390569,0.2446045,0.1225307,16.07728,-23.26322,-34.2401,1008.377
6.696006298,13.80933,11.35848,-40.03188,-0.7082061,0.3227534,0.09754616,16.09829,-24.35059,-33.7878,1008.375
6.728782654,13.68509,10.64937,-71.24837,-0.7544643,0.376415,0.09564955,16.09829,-24.35059,-33.7878,1008.374
6.761559009,29.58801,9.822074,-103.6866,-0.8288419,0.4072879,0.07219271,17.54181,-23.61926,-33.36603,1008.374
6.794335365,43.9379,5.685586,-135.514,-0.8796164,0.5303555,0.111118,18.62124,-22.88706,-32.94379,1008.374
6.829633236,29.21528,8.581127,-163.4317,-0.9216688,0.6643244,0.1663724,18.62124,-22.88706,-32.94379,1008.372
6.862409592,12.62903,13.13126,-184.0798,-0.9842162,0.6394656,0.2387624,21.52855,-22.51772,-32.08305,1008.37
6.895185947,9.585114,15.96771,-195.87,-1.01422,0.6109921,0.3125249,24.46264,-20.32718,-31.31321,1008.366
6.927962303,12.50479,18.86325,-201.4291,-1.079681,0.5770111,0.3372808,24.46264,-20.32718,-31.31321,1008.366
6.963260174,22.87896,16.49955,-195.7478,-1.178307,0.6111928,0.3985962,27.30724,-16.62311,-30.94011,1008.364
6.996036530,20.20777,10.76756,-177.2989,-1.221574,0.6372958,0.4222462,30.86761,-12.25265,-30.57845,1008.364
7.028812885,19.89716,2.967323,-145.2272,-1.149621,0.6009114,0.4264626,30.86761,-12.25265,-30.57845,1008.364
7.061590195,26.35773,-1.464629,-103.5034,-1.00089,0.5322051,0.3828908,32.9645,-7.447575,-29.7865,1008.366
7.094366550,25.73652,0.8990787,-58.66403,-0.8911158,0.5109567,0.3470417,34.05656,-4.170405,-29.83955,1008.366
7.129664421,8.466941,7.872015,-13.51925,-0.8527269,0.4935462,0.3185766,34.05656,-4.170405,-29.83955,1008.366
7.162440777,-1.845108,13.604,21.05714,-0.8536029,0.4480471,0.2902469,34.37403,-1.614275,-29.44502,1008.366
7.195217133,-3.149645,15.2586,43.66007,-0.8952597,0.398278,0.2572067,33.63912,-1.248092,-29.44981,1008.366
7.227993488,5.360902,9.703888,57.28292,-0.9174915,0.3552701,0.2626192,33.63912,-1.248092,-29.44981,1008.362
7.263291359,31.82435,1.312727,69.6229,-0.9311389,0.371021,0.2327835,34.74633,-1.967697,-28.56954,1008.362
7.296067715,44.49699,-4.36017,83.24576,-0.9221445,0.4695141,0.2379086,34.77941,-3.795825,-28.976,1008.362
7.328844071,35.42736,-4.182892,95.28029,-0.9735603,0.4406363,0.2091924,34.77941,-3.795825,-28.976,1008.362
7.361620426,31.26527,-1.346443,103.0997,-0.9491882,0.3953278,0.1779144,33.74126,-6.708704,-28.92875,1008.362
7.394397259,16.97749,5.035566,105.7265,-0.9725611,0.4228971,0.1784097,33.81073,-10.40787,-28.43538,1008.363
7.429694652,-0.1057267,9.999352,100.7783,-1.069175,0.4096876,0.1459261,31.97834,-12.94338,-27.58478,1008.363
7.462471008,-6.628408,9.172054,95.52465,-1.096321,0.3879546,0.1349519,31.97834,-12.94338,-27.58478,1008.363
7.495247841,-5.448113,7.281088,88.74377,-1.03308,0.3382773,0.1291005,31.32394,-16.95554,-27.89376,1008.363
7.528024197,5.609385,6.631069,81.71853,-0.9888151,0.3004704,0.1020962,29.90391,-18.82393,-27.05421,1008.365
7.563321590,17.03961,8.817498,69.31746,-0.915486,0.2936362,0.08171538,29.90391,-18.82393,-27.05421,1008.365
7.596098423,21.13958,10.05844,51.78491,-0.9218922,0.3335364,0.08407725,28.83124,-19.92057,-27.47073,1008.365
7.628874779,18.03354,8.285664,33.51929,-0.8720422,0.4056503,0.09877253,26.33751,-22.82401,-26.98649,1008.359
7.661651134,5.671505,8.935683,16.29219,-0.8478395,0.4380067,0.1001104,26.33751,-22.82401,-26.98649,1008.359
7.694427490,-7.249616,10.59028,0.3479597,-0.8265051,0.4523556,0.1067773,26.72405,-23.90036,-25.66443,1008.359
7.729725361,-24.20859,13.13126,-14.25232,-0.8615966,0.5121524,0.1332453,26.74434,-24.99368,-25.64724,1008.357
7.762501717,-37.81304,13.78128,-24.63745,-0.8426228,0.4977297,0.1375543,26.74434,-24.99368,-25.64724,1008.357
7.795278072,-39.17969,13.42673,-33.37318,-0.8425881,0.487159,0.1582687,27.82232,-24.27336,-26.09522,1008.357
7.828054428,-36.5085,11.47667,-41.37584,-0.8561305,0.4661638,0.166997,27.42444,-22.45031,-26.1234,1008.356
7.863352299,-22.59345,7.635644,-50.41701,-0.8662707,0.4442361,0.177644,27.42444,-22.45031,-26.1234,1008.356
7.896128654,-7.311737,3.144601,-58.05314,-0.893444,0.4367206,0.1801266,28.49566,-21.36556,-26.57711,1008.352
7.928905010,5.360902,-2.114648,-63.85659,-0.8982931,0.4382985,0.2027597,29.91068,-19.18837,-27.04848,1008.352
7.961681366,11.38662,-6.78297,-67.03323,-0.9260173,0.4580458,0.2042398,29.91068,-19.18837,-27.04848,1008.352
7.994457722,11.9457,-10.80127,-66.97214,-0.9323472,0.4678207,0.2167555,30.24658,-17.67076,-27.07283,1008.35
8.029755592,7.65937,-13.22407,-64.34531,-0.9537245,0.4725026,0.2153551,31.31249,-16.20968,-26.66205,1008.35
8.062532902,6.976042,-15.23322,-59.09165,-0.9590222,0.4514188,0.2014399,31.31249,-16.20968,-26.66205,1008.35
8.095309258,7.65937,-15.05595,-51.51662,-0.9692332,0.4556601,0.1932746,32.01891,-15.13,-27.5504,1008.35
8.128085613,8.777545,-13.69681,-40.58168,-0.9488037,0.4397182,0.1874738,32.34856,-13.31378,-27.95247,1008.35
8.163383484,7.038163,-10.86036,-27.20319,-0.9430062,0.4504211,0.1787794,32.34856,-13.31378,-27.95247,1008.35
8.196159840,3.124554,-8.023916,-14.19123,-0.9347388,0.4431109,0.1681809,32.69163,-12.22729,-28.40524,1008.35
8.228936195,-0.4163305,-5.482931,-2.339957,-0.9361978,0.4445799,0.1710703,32.31403,-11.49754,-28.41623,1008.35
8.261712551,-3.149645,-4.832911,7.984087,-0.944908,0.4338627,0.1812157,32.31403,-11.49754,-28.41623,1008.35
8.294488907,-4.454181,-4.596541,16.41437,-0.9429126,0.4099577,0.1730638,32.67062,-11.13992,-28.85755,1008.344
8.329786778,3.745761,-5.660209,24.35594,-0.9438087,0.3752602,0.1572333,33.08934,-10.77056,-28.42871,1008.348
8.362563133,11.07601,-5.305653,28.69326,-0.9457328,0.3699705,0.1692799,33.08934,-10.77056,-28.42871,1008.348
8.395339489,13.99569,-3.71015,34.00801,-0.9360535,0.3836949,0.170199,32.30581,-11.14499,-29.29219,1008.348
8.428115845,12.25631,-0.5191457,38.65077,-0.9288011,0.3974125,0.1730493,31.60543,-12.59505,-28.83322,1008.346
8.463413715,7.783612,3.499157,40.60562,-0.9414096,0.3889742,0.1653901,30.90505,-14.04511,-28.37424,1008.346
8.496190071,3.559399,5.5674,39.20057,-0.9351135,0.396349,0.1677709,30.90505,-14.04511,-28.37424,1008.344
8.528966427,-0.7269344,7.340181,34.55781,-0.9346359,0.4022911,0.1812389,31.3022,-15.87411,-28.78118,1008.346
8.561743259,-3.460249,7.162903,28.51,-0.9443471,0.4027172,0.1841495,30.95986,-16.95466,-27.8933,1008.346
8.594519615,-7.746582,6.749254,23.07307,-0.9239524,0.4049225,0.1966132,30.95986,-16.95466,-27.8933,1008.346
8.629817009,-10.97686,6.690161,18.06377,-0.9195541,0.393277,0.197583,30.23171,-16.95292,-27.89235,1008.346
8.662593841,-13.21321,6.099235,14.45952,-0.907869,0.3797208,0.1951689,29.87439,-17.31648,-27.88616,1008.348
8.695370197,-12.2814,5.271937,10.54983,-0.897642,0.3666394,0.1927576,29.87439,-17.31648,-27.88616,1008.348
8.728146553,-7.249616,2.790045,6.029238,-0.8971425,0.3623137,0.2004647,30.60255,-17.31823,-27.88709,1008.348
8.763444424,-0.9754176,0.839986,-1.179266,-0.8908486,0.3661187,0.1797455,29.51635,-17.68599,-28.31507,1008.35
8.796220779,-0.4163305,-1.05098,-7.593612,-0.8953149,0.4105456,0.2003877,29.51635,-17.68599,-28.31507,1008.35
8.828997135,-3.460249,-2.055555,-14.25232,-0.8874748,0.3798976,0.196083,29.51031,-17.31561,-27.88568,1008.35
8.861773491,1.136689,-3.71015,-19.20053,-0.88556,0.3895874,0.1864366,30.23026,-16.96481,-28.76258,1008.35
8.894549847,-1.286021,-4.182892,-23.2324,-0.8948523,0.4182718,0.1902663,30.23026,-16.96481,-28.76258,1008.35
8.929847717,-2.342075,-4.714726,-26.10358,-0.9045352,0.4060084,0.1893451,30.22495,-16.58848,-27.89808,1008.35
8.962624073,-0.602693,-5.01019,-27.63081,-0.9356413,0.419426,0.195175,29.85338,-16.22912,-28.33846,1008.35
8.995400429,1.136689,-5.069283,-26.77556,-0.9239962,0.422422,0.1917733,29.85338,-16.22912,-28.33846,1008.35
9.028176785,1.571534,-4.478355,-24.75963,-0.9341983,0.4252858,0.1956441,30.56801,-15.50199,-28.35085,1008.352
9.096251965,2.81395,-1.878277,-16.45152,-0.9244882,0.4253468,0.1927328,30.93137,-15.5088,-28.78644,1008.352
9.129028320,2.689708,-0.6373311,-11.80875,-0.9303173,0.4257684,0.1903392,30.91035,-14.42144,-29.23874,1008.35
9.161804676,2.130621,0.4263372,-7.1049,-0.9254506,0.4209287,0.1888908,31.26767,-14.05787,-29.24494,1008.35
9.194581032,2.316983,1.194542,-3.195203,-0.9225265,0.4170802,0.1922592,31.26767,-14.05787,-29.24494,1008.352
9.229878902,3.248795,1.962747,0.7144938,-0.9166863,0.4107707,0.188404,31.62571,-13.68836,-28.81603,1008.352
9.262655258,3.124554,2.967323,3.463499,-0.9254326,0.4131295,0.1879398,31.98979,-13.68924,-28.8165,1008.352
9.295431614,2.689708,3.676435,5.723793,-0.9293059,0.4077164,0.1845876,31.98979,-13.68924,-28.8165,1008.353
9.328207970,2.0685,5.153752,7.617553,-0.9346501,0.4091396,0.1855609,31.25633,-13.31117,-27.95107,1008.355
9.360984325,-0.1678475,6.040142,10.18329,-0.9312278,0.3994308,0.1860488,32.00476,-14.40622,-27.93481,1008.355
9.396282196,-1.845108,7.281088,12.50467,-0.944301,0.3822219,0.1784039,32.00476,-14.40622,-27.93481,1008.355
9.429058552,0.1427564,7.281088,14.21517,-0.9539406,0.3494197,0.1654795,31.62644,-13.68242,-28.38091,1008.355
9.461834907,6.913921,7.399273,15.00932,-0.9655595,0.3316824,0.1501302,31.28337,-14.76892,-27.92814,1008.357
9.494611263,15.17598,7.517459,15.07041,-0.9412425,0.313798,0.1404722,31.28337,-14.76892,-27.92814,1008.357
9.529909134,19.08959,10.05844,14.0319,-0.9237495,0.3070686,0.1322577,31.28337,-14.76892,-27.92814,1008.357
9.562685490,19.15171,12.42215,10.61091,-0.9339578,0.3103424,0.1250566,31.66836,-15.858,-27.53847,1008.357
9.595461845,16.48052,12.42215,5.112903,-0.9747598,0.3148288,0.1188889,31.31853,-16.58006,-27.09143,1008.357
9.628238678,16.91537,10.05844,1.325384,-0.9042872,0.2866349,0.1120252,31.31853,-16.58006,-27.09143,1008.357
9.661015034,19.52444,11.77213,-1.912334,-0.8692703,0.2605233,0.09705925,31.67802,-16.19867,-25.79229,1008.357
9.696312427,23.37593,11.53576,-9.548461,-0.8896716,0.2637724,0.09854682,32.07663,-18.01578,-25.329,1008.359
9.729089260,21.5123,9.881166,-19.3227,-0.8979562,0.2753587,0.0937354,32.07663,-18.01578,-25.329,1008.36
9.761865616,11.3245,12.18578,-30.86853,-0.8509023,0.3002872,0.1200611,33.23027,-18.0126,-24.89538,1008.36
9.794641972,4.056365,12.48124,-42.65871,-0.8891752,0.2593999,0.09951495,32.86151,-17.63031,-23.65746,1008.36
9.829939842,-4.826906,6.631069,-53.16602,-0.852738,0.2559716,0.1230204,32.86151,-17.63031,-23.65746,1008.36
9.862716198,-24.89192,9.172054,-63.91768,-0.8488122,0.2394753,0.1273682,33.58363,-17.26167,-23.22902,1008.36
9.895492554,-54.70989,11.06302,-75.5246,-0.8952657,0.1693712,0.1174755,34.65413,-16.18287,-24.11784,1008.36
9.928268909,-74.40218,8.462942,-97.02793,-0.8937953,-0.04203706,0.1110516,34.65413,-16.18287,-24.11784,1008.36
9.961045265,-101.6111,15.37679,-124.7623,-0.8341556,-0.02973988,-0.01329976,36.05572,-13.27596,-24.53852,1008.36
9.996343136,-242.3146,61.76455,-152.6189,-0.7568308,0.31724,-0.07658315,37.7957,-8.901131,-24.17451,1008.362
10.029119492,-404.512,108.6841,-139.1183,-1.09826,-0.02872185,0.1004451,37.7957,-8.901131,-24.17451,1008.362
10.061896801,-227.4057,92.07909,-109.6734,-1.148222,-0.9405416,-0.2711174,39.14478,-2.995907,-23.02585,1008.362
10.094673157,20.39413,50.0051,-71.30946,-1.106285,0.04550716,-0.07149386,40.39753,8.417477,-18.91736,1008.362
10.129970551,-48.37357,61.70545,-46.14078,-1.228326,0.09295007,-0.1762128,40.39753,8.417477,-18.91736,1008.362
10.162747383,-24.89192,61.58727,-40.64277,-1.160485,-0.06724752,-0.2521874,41.3637,15.42877,-16.91519,1008.362
10.195523739,-13.33745,60.16904,-38.50465,-1.176694,-0.1960473,-0.2644702,42.79733,16.9187,-14.32932,1008.362
10.228300095,31.76223,46.51863,-30.74635,-1.180432,-0.06146396,-0.307024,42.79733,16.9187,-14.32932,1008.364
10.261076450,12.8154,36.11832,-25.18725,-1.094489,-0.2486778,-0.227521,44.63314,19.48223,-13.12868,1008.364
10.296374321,95.49815,9.940259,-3.134114,-1.04085,-0.108821,-0.0709351,45.70799,20.59669,-11.40684,1008.365
10.329150677,75.55738,-11.15583,18.06377,-0.9710129,0.1813903,0.1859904,45.70799,20.59669,-11.40684,1008.365
10.361927033,25.42591,-12.39678,21.42367,-0.7315836,-0.09170992,-0.0832471,47.14474,21.69246,-10.9908,1008.365
10.394703388,-9.051119,13.84038,21.85129,-0.9715822,-0.2992745,-0.3673312,48.26184,20.21426,-12.27462,1008.367
10.430001259,-27.50099,22.23154,41.2776,-1.07717,-0.3363877,0.02576638,51.17446,20.20728,-12.27838,1008.369
10.462777614,-4.329939,-6.78297,47.32541,-1.187385,-0.5301152,0.1047817,51.17446,20.20728,-12.27838,1008.369
10.495553970,35.80008,-43.83408,55.02263,-1.294417,-0.08674701,-0.1637511,53.74547,19.12569,-10.95914,1008.369
10.528330326,-19.30105,-8.733028,95.03593,-1.217507,0.0001992362,-0.3599788,56.00799,18.00323,-12.6853,1008.369
10.561106682,-16.07077,-2.764668,95.46356,-0.9634504,-0.1445244,0.1648024,56.00799,18.00323,-12.6853,1008.371
10.596404552,-97.13837,-14.22865,55.81679,-0.4576767,-0.5508617,-0.2540882,57.89599,14.35449,-12.63035,1008.375
10.661957264,106.0587,45.51405,140.7916,-3.417867,2.284642,-0.6248774,59.3993,11.72732,-13.46138,1008.375
10.694734096,-76.5764,-14.22865,53.80085,-0.9368387,-1.526233,-0.844038,60.86633,10.97202,-15.13009,1008.373
10.730031490,-3.460249,-34.32016,57.34401,-0.9387298,-0.03238231,-0.4077643,63.13193,6.593545,-15.06415,1008.375
10.762807846,-15.94652,-52.28434,70.66142,-0.9622109,0.08644724,-0.1705764,63.13193,6.593545,-15.06415,1008.375
10.795584679,9.27451,-70.72125,71.76102,-0.99431,0.3076136,-0.1949017,63.52618,4.740769,-17.21153,1008.381
10.828361034,-8.926877,-79.40788,88.80486,-0.9867461,0.2357907,0.04346264,62.8625,1.002591,-19.70085,1008.383
10.861137390,-9.858688,-93.94468,113.9735,-0.975117,0.241061,0.01695222,62.8625,1.002591,-19.70085,1008.383
10.896435261,-12.77837,-102.0995,136.3321,-0.8877364,0.4596525,0.03903951,61.82937,-2.70879,-24.73916,1008.384
10.929211616,-4.39206,-107.4178,155.453,-0.8742365,0.5107985,0.09380564,59.71815,-7.141332,-29.39165,1008.384
10.961988449,-21.04043,-111.8498,153.0705,-0.8955237,0.4855726,0.1338472,59.71815,-7.141332,-29.39165,1008.384
10.994764805,-30.91763,-105.4678,130.6508,-0.7269874,0.7109264,0.3304661,55.47769,-14.54487,-33.99453,1008.384
11.030062675,-49.80235,-96.01292,111.53,-0.6388617,0.8017418,0.2569532,50.04915,-20.1345,-39.43262,1008.384
11.062839031,-77.32185,-76.45324,100.5339,-0.6135911,0.8421953,0.5109913,50.04915,-20.1345,-39.43262,1008.384
11.095615387,-86.57784,-74.91683,101.8168,-0.604632,0.5401036,0.4820623,44.6395,-23.47777,-44.9683,1008.384
11.128392220,-71.73098,-82.30342,101.3281,-0.6065155,0.7026292,0.3932512,39.14513,-25.33851,-48.72421,1008.386
11.161168575,-80.92486,-91.28551,98.39583,-0.5319098,0.7925013,0.4805467,39.14513,-25.33851,-48.72421,1008.39
11.196465969,-81.60818,-115.9272,78.78625,-0.4648983,0.8239275,0.6468915,33.65653,-24.2907,-53.02331,1008.39
11.229242802,-114.5322,-142.5189,61.00935,-0.2778209,0.9508142,0.5288043,27.75669,-23.97075,-57.31041,1008.392
11.262019157,-49.98871,-145.4144,44.39314,-0.1020653,0.5519369,0.5289887,27.75669,-23.97075,-57.31041,1008.392
11.294795513,8.032095,-163.6149,50.37986,0.09926245,0.8947421,0.8370287,19.27595,-21.81062,-60.75263,1008.392
11.330093384,-82.53999,-147.6008,61.07044,0.2118159,0.9416267,0.8602778,11.14672,-18.84476,-62.96457,1008.394
11.362869740,-77.88094,-123.0774,55.93896,0.2116584,0.5734764,0.7279772,11.14672,-18.84476,-62.96457,1008.394
11.395646095,-16.07077,-107.9496,46.77561,0.02946134,0.6384457,0.8346923,1.323165,-19.25741,-63.75327,1008.394
11.428422451,18.40627,-87.50357,53.06778,0.07690918,0.460913,0.6716658,-7.158296,-16.61351,-62.91322,1008.393
11.461198807,83.074,-65.04836,54.71719,0.1386539,0.3919179,0.481004,-7.158296,-16.61351,-62.91322,1008.393
11.496496677,113.2647,-24.21531,48.73046,0.3076929,0.569048,0.4658953,-15.2394,-15.84236,-61.23598,1008.394
11.529273033,93.75877,11.47667,23.80614,0.2587698,0.5285805,0.5185408,-19.89327,-19.87085,-58.99033,1008.394
11.562049389,141.4675,25.54073,9.144778,0.1401838,0.582991,0.5712084,-23.09792,-26.75234,-56.32864,1008.394
11.594825745,129.6024,40.55027,0.2257816,0.1483015,1.034997,0.4958969,-23.09792,-26.75234,-56.32864,1008.394
11.627602100,10.57905,75.0013,-6.799455,0.1107762,1.098216,0.5271792,-24.00898,-36.25101,-53.62878,1008.396
11.662899971,-59.86591,95.09281,-11.99202,0.1339577,0.7322736,0.4742445,-23.81428,-46.48117,-50.91887,1008.394
11.695676327,-94.34294,98.16563,-20.48339,-0.1401057,1.053112,0.6462572,-23.81428,-46.48117,-50.91887,1008.393
11.728452682,-128.1988,103.3067,-32.21249,0.0267981,0.2705678,0.534402,-23.74053,-50.49507,-51.2288,1008.393
11.761229515,-66.88556,94.91553,-44.85791,-0.1453329,0.3785289,0.5779701,-21.56356,-50.14181,-51.67246,1008.393
11.796527863,-23.52526,95.32919,-55.4874,-0.3461175,0.3215202,0.8158436,-21.56356,-50.14181,-51.67246,1008.393
11.829304218,293.5392,-5.89658,-21.21646,-0.488487,1.674483,1.261809,-20.38683,-51.20901,-49.54336,1008.394
11.862080574,24.36986,-14.6423,1.264295,-0.06088011,1.274717,0.9013383,-20.63317,-59.05284,-32.32212,1008.396
11.894856930,38.47128,0.07178105,6.029238,-0.0358035,0.4090019,0.2758506,-20.63317,-59.05284,-32.32212,1008.396
11.927633286,32.81829,-12.45587,3.463499,-0.1677234,1.037148,0.6949642,-23.73181,-68.15212,-27.44962,1008.398
11.962931156,-31.10399,-8.437565,3.096965,-0.004142674,0.8401503,0.6048585,-24.06241,-69.55635,-23.57238,1008.398
11.995707512,-5.758717,-13.93318,0.8366718,-0.01890968,0.7091165,0.5497344,-24.06241,-69.55635,-23.57238,1008.398
12.028483868,15.61083,-6.723877,-2.523224,-0.02832497,0.7874007,0.5424184,-23.33185,-69.9582,-26.17826,1008.396
12.061260223,26.48197,1.017264,-2.706491,-0.0493423,0.8416428,0.5236133,-23.67565,-71.05064,-26.1606,1008.396
12.096558094,27.72438,6.040142,-0.4461975,-0.0410307,0.8294709,0.5842636,-23.67565,-71.05064,-26.1606,1008.396
12.129334450,-0.6648136,7.221995,1.019939,-0.07901982,0.9026257,0.7142111,-23.68408,-70.28015,-23.12628,1008.402
12.162110806,-15.51168,3.853713,5.418348,-0.07983337,0.8197142,0.6286556,-23.68804,-69.89278,-21.45372,1008.4
12.194887638,5.050298,2.376396,8.228443,-0.0556083,0.8251417,0.539538,-23.68804,-69.89278,-21.45372,1008.4
12.227663994,-9.858688,2.730952,7.617553,-0.07268944,0.8645663,0.5563667,-24.08134,-68.452,-22.78151,1008.4
12.262961388,-33.65094,1.667284,3.891123,-0.06711163,0.7778951,0.6229121,-24.09018,-68.10455,-24.03041,1008.4
12.295738220,-17.93439,-4.005614,0.04251458,-0.05632355,0.729628,0.6027421,-24.09018,-68.10455,-24.03041,1008.4
12.328514576,0.826085,-6.487507,-0.4461975,-0.06477945,0.8137979,0.6002284,-23.39947,-66.31383,-26.23556,1008.4
12.361290932,-8.181428,-7.078434,0.5312267,-0.04393896,0.8305378,0.6011165,-24.13584,-65.95953,-27.11058,1008.4
12.396588802,-2.093592,-5.837487,-0.9349097,-0.02384115,0.7427444,0.5588413,-24.12366,-66.69945,-27.90718,1008.4
12.429365158,1.385172,-4.36017,-0.9349097,-0.03712136,0.8248406,0.6141056,-24.12366,-66.69945,-27.90718,1008.4
12.462141514,-11.59807,-1.169165,0.1036036,-0.06138541,0.8198112,0.6204285,-24.4945,-66.33414,-27.91244,1008.4
12.494917869,0.8882058,-2.173741,-0.8738207,-0.04807158,0.7291496,0.5940587,-23.77456,-65.98333,-28.78934,1008.4
12.527694225,13.31236,-1.287351,-0.3240195,-0.0507419,0.8309078,0.5924675,-23.77456,-65.98333,-28.78934,1008.4
12.562992096,-6.131442,0.3081518,1.081028,-0.04393756,0.8346014,0.6251785,-23.40154,-66.33081,-27.47874,1008.399
12.595768928,-8.802635,0.3081518,0.6534048,-0.035998,0.7610583,0.6156431,-23.76031,-66.70626,-28.34276,1008.399
12.628545761,3.186674,-0.6373311,-0.4461975,-0.04525512,0.7710983,0.5997651,-23.76031,-66.70626,-28.34276,1008.399
12.661322117,5.423023,0.2490591,-0.6294646,-0.04872867,0.8027368,0.6011697,-24.1326,-66.35284,-29.21824,1008.397
12.696619511,1.19881,0.4263372,-0.2018415,-0.04972691,0.8154382,0.607892,-23.77383,-65.97739,-28.35422,1008.397
12.729396343,-0.4163305,0.1308737,-0.4461975,-0.04722886,0.7842284,0.5992686,-23.77383,-65.97739,-28.35422,1008.397
12.762172699,1.944259,-1.405536,-0.6905536,-0.03948328,0.7960489,0.6088597,-24.11763,-67.06982,-28.33656,1008.395
12.794949055,1.820017,-1.287351,-0.6294646,-0.04435034,0.7998711,0.6040518,-23.75282,-67.06476,-27.90192,1008.395
12.827725410,2.379104,0.1899664,-0.01857444,-0.04582362,0.8051561,0.5953829,-23.75282,-67.06476,-27.90192,1008.395
12.863023281,-1.223901,1.076357,0.4090487,-0.04193195,0.8047951,0.6088523,-24.12293,-66.6935,-27.47207,1008.395
12.895799637,0.3912396,0.839986,0.6534048,-0.04868102,0.782772,0.6016811,-23.38875,-67.06563,-27.90239,1008.395
12.928575993,2.192742,0.6036152,0.04251458,-0.03855094,0.8095933,0.5943962,-23.38875,-67.06563,-27.90239,1008.395
12.961352348,0.3291188,0.5445225,-0.2629305,-0.05066608,0.8017866,0.6069521,-23.0307,-66.69611,-27.47348,1008.395
12.996650219,1.26093,0.07178105,-0.3851085,-0.04628117,0.7944775,0.6011764,-23.38802,-67.05968,-27.46728,1008.399
13.029426575,2.503346,0.4263372,-0.2629305,-0.04583041,0.8095961,0.6035594,-23.38802,-67.05968,-27.46728,1008.398
13.062202930,-0.2299682,0.839986,0.2257816,-0.05165694,0.8080363,0.5963551,-23.75886,-66.69437,-27.47254,1008.396
13.094979286,2.192742,0.8990787,0.1646926,-0.05015441,0.7875498,0.5901247,-24.48701,-66.69263,-27.4716,1008.394
13.127755642,0.7018434,0.4263372,-0.01857444,-0.05020666,0.8140098,0.6131903,-24.48701,-66.69263,-27.4716,1008.394
13.163053513,0.01851488,0.6036152,-0.07966346,-0.03851811,0.7959633,0.5953794,-23.75886,-66.69437,-27.47254,1008.396
13.195829868,1.757897,0.1308737,-0.1407525,-0.05309325,0.799251,0.595409,-23.75886,-66.69437,-27.47254,1008.394
13.228606224,1.447293,0.3081518,-0.8127316,-0.04483564,0.7983558,0.5968348,-23.75886,-66.69437,-27.47254,1008.394
13.261383057,4.615452,-0.0464043,-0.6294646,-0.04969893,0.8002165,0.5901046,-24.11545,-67.05199,-27.03123,1008.396
13.296680451,1.820017,0.6627079,-0.2629305,-0.05166839,0.8134136,0.5992352,-23.39343,-66.68421,-26.66494,1008.396
13.329457760,0.8882058,0.1899664,-0.4461975,-0.05502854,0.7973235,0.6007115,-23.39343,-66.68421,-26.66494,1008.396
13.362234116,-0.1057267,-0.2236823,-0.3851085,-0.04389776,0.8119872,0.5948866,-23.75002,-67.04183,-26.22363,1008.398
13.395010471,1.19881,-0.7555165,-0.6294646,-0.05065902,0.7958351,0.5915575,-23.76354,-66.31296,-26.23509,1008.398
13.427786827,3.435158,-0.8146091,-0.9349097,-0.05116833,0.8065725,0.5953934,-23.76354,-66.31296,-26.23509,1008.398
13.463084698,3.248795,-0.9327945,-0.9349097,-0.04535744,0.8119282,0.5881511,-24.1141,-67.04095,-26.22316,1008.399
13.495861053,2.441225,-0.4009604,-0.6905536,-0.0502362,0.8236499,0.598735,-23.02114,-67.03763,-25.78946,1008.399
13.528637409,1.136689,-0.105497,-0.4461975,-0.0492126,0.8007377,0.5944349,-24.0984,-67.752,-24.90637,1008.399
13.561413765,2.379104,-0.6373311,-0.01857444,-0.04587374,0.8245768,0.5866892,-24.0984,-67.752,-24.90637,1008.399
13.596711635,-0.602693,-0.5191457,-0.6905536,-0.04966127,0.7846416,0.591572,-23.73577,-67.76476,-25.77706,1008.399
13.629487991,4.926056,-1.228258,-1.423622,-0.04048268,0.8021646,0.5790084,-23.74784,-67.02399,-24.9183,1008.399
13.662264347,8.777545,-1.169165,-1.851245,-0.0463231,0.8064489,0.5717954,-23.74784,-67.02399,-24.9183,1008.399
13.695041180,5.857868,-0.3418677,-0.8738207,-0.05610988,0.8415577,0.5895761,-23.72756,-68.11731,-24.90111,1008.399
13.727817535,-0.5405721,-0.7555165,-0.3240195,-0.06141961,0.8268521,0.5823904,-24.09091,-68.11049,-24.46553,1008.399
13.763114929,-0.9132968,-1.464629,0.3479597,-0.05752246,0.8210201,0.5795018,-24.09091,-68.11049,-24.46553,1008.399
13.795891762,-0.3542098,-1.93737,-0.2629305,-0.04922987,0.8040029,0.5737314,-24.81834,-68.10281,-24.02947,1008.399
13.828668117,1.633655,-2.291926,-0.6294646,-0.0482912,0.8191624,0.5814081,-24.09018,-68.10455,-24.03041,1008.399
13.861444473,0.01851488,-1.996463,-0.8738207,-0.05020262,0.8070007,0.5857633,-24.09018,-68.10455,-24.03041,1008.399
13.894220829,4.180607,-2.291926,-1.362533,-0.0453365,0.8001324,0.5727653,-24.81761,-68.09686,-23.59436,1008.401
13.929518700,3.870003,-1.228258,-0.3240195,-0.04496445,0.8473579,0.569805,-24.07593,-68.82748,-23.58384,1008.407
13.962295055,-2.590558,-0.282775,0.5923157,-0.05316858,0.8268641,0.5741876,-24.07593,-68.82748,-23.58384,1008.405
13.995071411,1.385172,-1.700999,-0.2018415,-0.0414368,0.7908042,0.5573665,-24.06844,-69.18597,-23.143,1008.405
14.027848721,4.304849,-1.405536,-0.07966346,-0.05323016,0.8516623,0.5683741,-24.80481,-68.83168,-24.01801,1008.405
14.063146114,-6.193563,0.6627079,0.9588498,-0.0347111,0.82509,0.5770347,-24.80481,-68.83168,-24.01801,1008.405
14.095922470,-1.534505,-0.4009604,1.019939,-0.05114403,0.7963449,0.5954087,-24.419,-69.91396,-23.13107,1008.405
14.128699303,4.615452,-1.05098,0.6534048,-0.04439177,0.8113455,0.5732275,-24.0699,-69.19786,-24.01322,1008.407
14.161475658,3.435158,-0.5191457,0.7144938,-0.04979254,0.8366363,0.5746462,-24.0699,-69.19786,-24.01322,1008.407
14.194252014,-1.845108,-0.2236823,1.447562,-0.04831873,0.8283288,0.568879,-24.42649,-69.55548,-23.57191,1008.407
14.229549885,-0.851176,-0.6373311,1.386473,-0.04295388,0.8196505,0.575137,-24.43397,-69.19698,-24.01275,1008.407
14.262326241,-4.578423,-1.93737,0.6534048,-0.04003913,0.8217166,0.5886051,-24.43397,-69.19698,-24.01275,1008.411
14.295102596,1.19881,-1.93737,1.386473,-0.03711881,0.8142716,0.5650228,-24.07593,-68.82748,-23.58384,1008.411
14.327878952,-1.223901,0.6036152,0.4701377,-0.03856156,0.8104368,0.5756218,-24.07666,-68.83342,-24.01895,1008.409
14.363176823,4.677573,0.1308737,-0.7516426,-0.02492139,0.7915428,0.5736926,-24.07666,-68.83342,-24.01895,1008.408
14.395953178,5.360902,0.01268838,0.2257816,-0.04840115,0.864419,0.5760452,-24.80554,-68.83762,-24.45313,1008.408
14.428729534,-5.075389,0.7218006,1.203206,-0.05123666,0.8332853,0.5847633,-24.79805,-69.19611,-24.01229,1008.406
14.461505890,-0.292089,-0.5191457,1.019939,-0.0438819,0.801122,0.5732417,-24.79805,-69.19611,-24.01229,1008.406
14.494282246,-1.720867,-0.6373311,0.3479597,-0.03568969,0.8285012,0.578476,-24.44146,-68.83849,-24.4536,1008.408
14.529580116,-3.460249,-1.760092,-0.07966346,-0.05216061,0.812295,0.5790209,-24.79805,-69.19611,-24.01229,1008.408
14.562356472,1.882138,-1.819185,0.7755828,-0.03665916,0.827509,0.5770357,-24.8123,-68.47318,-24.45886,1008.408
14.595132828,-2.279954,-0.0464043,0.6534048,-0.03371089,0.810904,0.5669451,-24.8123,-68.47318,-24.45886,1008.408
14.627909183,-0.1057267,0.5445225,0.2868707,-0.03080144,0.8138974,0.5736728,-24.43397,-69.19698,-24.01275,1008.408
14.663207054,-7.684461,1.430913,-0.4461975,-0.03472142,0.8289694,0.5746221,-24.44291,-68.85038,-25.32382,1008.408
14.695984363,-7.684461,1.135449,-0.9959988,-0.04679801,0.8030759,0.5775779,-24.44291,-68.85038,-25.32382,1008.408
14.728760719,1.571534,-1.05098,0.3479597,-0.06285527,0.8216133,0.6011748,-24.06532,-69.58012,-25.31283,1008.408
14.761537075,-1.472384,0.3081518,0.4701377,-0.03661625,0.8089852,0.5746567,-24.07884,-68.85125,-25.32429,1008.409
14.794313431,1.26093,0.1308737,-0.8738207,-0.03028188,0.7997844,0.5746555,-24.07884,-68.85125,-25.32429,1008.409
14.829611301,1.074568,-0.0464043,-0.5683756,-0.03423449,0.8284898,0.575103,-24.09912,-67.75794,-25.34148,1008.408
14.862387657,-1.472384,0.1899664,2.058452,-0.03090634,0.860749,0.5875619,-24.07884,-68.85125,-25.32429,1008.408
14.895164013,-3.211766,2.02184,2.18063,-0.04386155,0.7938634,0.5799917,-24.07884,-68.85125,-25.32429,1008.408
14.927940369,2.627587,0.4854299,3.096965,-0.05458509,0.8138428,0.5944278,-24.44968,-68.48594,-25.32955,1008.409
14.963238239,2.316983,-0.9327945,6.273594,-0.06630128,0.8440853,0.6151086,-24.46175,-67.74518,-24.47079,1008.409
14.996014595,5.23666,-3.178316,9.205867,-0.06777861,0.8493065,0.5972939,-24.46175,-67.74518,-24.47079,1008.409
15.028790951,0.7639642,-2.410111,9.816757,-0.04295626,0.8186028,0.5645486,-24.11482,-67.0469,-26.65827,1008.411
15.061567307,-6.81477,-1.760092,6.029238,-0.01225104,0.7736717,0.5799472,-24.83684,-67.41469,-27.02456,1008.411
15.094344139,-9.361722,-2.469204,-0.8738207,0.01893413,0.7301722,0.5905287,-24.83684,-67.41469,-27.02456,1008.413
15.129641533,-3.460249,-3.71015,-7.899057,0.02952654,0.7637055,0.5673476,-24.48628,-66.68668,-27.03649,1008.411
15.162417889,-7.125374,0.01268838,-13.64143,0.05520299,0.7832071,0.5393384,-23.75355,-67.0707,-28.33703,1008.411
15.195194721,-12.77837,4.68101,-19.50597,0.05574632,0.7593635,0.5417798,-23.75355,-67.0707,-28.33703,1008.411
15.227971077,18.40627,-5.89658,-3.622827,-0.2187973,0.8721838,0.7068866,-23.36846,-68.15894,-27.8852,1008.413
15.263268471,26.66833,-5.187468,3.219143,-0.03360004,0.9712335,0.5801814,-23.72225,-68.49363,-25.7656,1008.413
15.296045303,-12.84049,7.399273,5.90706,-0.05593079,0.7402995,0.4559097,-23.72225,-68.49363,-25.7656,1008.411
15.328822136,-21.53739,5.862864,0.1036036,-0.02789758,0.8289276,0.6304439,-24.79129,-69.56055,-24.00655,1008.413
15.361598492,-5.448113,0.5445225,1.447562,-0.06373177,0.7841911,0.6137487,-24.80699,-68.84951,-25.32335,1008.413
15.394374847,1.136689,-2.941946,-0.2018415,-0.02490845,0.7932617,0.6107548,-24.80699,-68.84951,-25.32335,1008.411
15.429672718,6.292714,-3.060131,-1.729067,-0.0268224,0.7749978,0.5780542,-24.10058,-67.76983,-26.2117,1008.411
15.462449074,2.192742,-1.405536,-2.401046,-0.01771053,0.8233004,0.5794039,-24.09309,-68.12832,-25.77086,1008.411
15.495225429,2.0685,0.6036152,-1.240355,-0.03715236,0.8319317,0.5832879,-24.82052,-68.12064,-25.33481,1008.411
15.528002262,2.130621,1.667284,0.1646926,-0.04391637,0.8167471,0.5789946,-24.82052,-68.12064,-25.33481,1008.411
15.563299656,-0.9132968,1.37182,1.386473,-0.03035978,0.8344303,0.5842308,-24.8123,-68.47318,-24.45886,1008.414
15.596076012,-6.504167,1.194542,1.447562,-0.03613065,0.8100002,0.579949,-24.0856,-68.48682,-25.33002,1008.414
15.628852844,-1.596625,0.7218006,1.081028,-0.04435595,0.7977623,0.5809497,-24.0856,-68.48682,-25.33002,1008.412
15.661629200,1.19881,0.6036152,0.1646926,-0.03513326,0.8008217,0.5895877,-24.10734,-67.4054,-26.21743,1008.412
15.694405556,2.0685,0.6036152,-0.8738207,-0.03025402,0.7911284,0.5905535,-24.47141,-67.40452,-26.21696,1008.414
15.729703426,5.733626,-0.7555165,-1.118177,-0.04877807,0.8216637,0.5915141,-24.47141,-67.40452,-26.21696,1008.414
15.762479782,0.1427564,-0.5782384,-0.2018415,-0.06145494,0.8424637,0.5862178,-24.0984,-67.752,-24.90637,1008.41
15.795256138,-5.572355,-0.9327945,0.9588498,-0.05122141,0.8269573,0.5852542,-24.08487,-68.48087,-24.89491,1008.41
15.828032494,-5.696597,-0.8146091,0.8977608,-0.01862771,0.8003954,0.5784778,-24.08487,-68.48087,-24.89491,1008.41
15.863330364,-0.5405721,0.07178105,-0.07966346,-0.01421076,0.7814646,0.5823469,-24.45716,-68.12745,-25.77039,1008.41
15.896106720,3.186674,0.7218006,-0.4461975,-0.01330671,0.8107312,0.5875955,-23.73577,-67.76476,-25.77706,1008.408
15.928883553,3.186674,1.135449,-0.3240195,-0.03613461,0.8129692,0.5866836,-23.73577,-67.76476,-25.77706,1008.408
15.961660385,4.677573,1.017264,-0.3240195,-0.04436585,0.8016484,0.5794998,-24.46923,-67.38669,-24.91163,1008.408
15.994436741,4.615452,0.6627079,-0.7516426,-0.04878769,0.8240386,0.5828461,-23.72828,-68.12325,-25.33622,1008.408
16.029734135,0.5776018,-0.3418677,-0.01857444,-0.06338749,0.839569,0.5924845,-23.72828,-68.12325,-25.33622,1008.407
16.062510967,-2.404196,-0.5782384,0.3479597,-0.06090819,0.8151374,0.5780746,-24.46923,-67.38669,-24.91163,1008.405
16.095287323,-1.720867,-1.228258,-0.6905536,-0.04874004,0.8040739,0.5833574,-24.46247,-67.75112,-24.9059,1008.403
16.128063679,1.074568,-1.700999,-1.118177,-0.02543044,0.8043052,0.5885967,-24.46247,-67.75112,-24.9059,1008.403
16.163361549,2.0685,-1.346443,-0.8738207,-0.01671768,0.8155663,0.5866336,-24.81906,-68.10875,-24.46459,1008.403
16.196137905,1.571534,-0.2236823,-0.6905536,-0.009418301,0.8082983,0.5832577,-24.44895,-68.48,-24.89444,1008.403
16.228914261,3.870003,0.7218006,-0.6294646,-0.02838063,0.8173436,0.5760686,-24.44895,-68.48,-24.89444,1008.403
16.261690617,2.00638,0.8990787,0.1646926,-0.04104121,0.8343579,0.586663,-24.44822,-68.47405,-24.45933,1008.403
16.294466972,0.08063565,0.7218006,0.2868707,-0.04779284,0.8122945,0.5737155,-24.44895,-68.48,-24.89444,1008.403
16.329764843,0.266998,0.6036152,0.5923157,-0.05705173,0.8273589,0.5799725,-24.44895,-68.48,-24.89444,1008.407
16.362541199,-4.640543,0.3672445,0.4090487,-0.05216812,0.8172288,0.5881593,-24.0699,-69.19786,-24.01322,1008.407
16.395317554,-0.4784513,-1.169165,-0.5683756,-0.04677992,0.7952768,0.576627,-24.45498,-68.10962,-24.46506,1008.407
16.428093910,2.627587,-1.405536,-0.8738207,-0.02984982,0.8237029,0.5818388,-24.45498,-68.10962,-24.46506,1008.409
16.463391781,-0.6648136,-0.5782384,-0.5683756,-0.0318057,0.8280197,0.5746166,-24.80481,-68.83168,-24.01801,1008.409
16.496168136,-0.7890552,-0.2236823,-0.8127316,-0.02932235,0.8036518,0.5693525,-24.44822,-68.47405,-24.45933,1008.409
16.528945446,3.062433,-0.6373311,-0.4461975,-0.03226325,0.8173413,0.5804101,-24.07738,-68.83936,-24.45407,1008.407
16.561721802,1.820017,0.3081518,-0.1407525,-0.03520008,0.8250324,0.5693342,-24.07738,-68.83936,-24.45407,1008.403
16.594498157,-0.0436059,0.3672445,0.2257816,-0.03468625,0.8153762,0.5809002,-24.4475,-68.46811,-24.02421,1008.407
16.629796028,-0.0436059,0.4854299,-0.01857444,-0.04583997,0.8104564,0.5871918,-24.44146,-68.83849,-24.4536,1008.407
16.662572384,0.826085,-0.1645897,-0.07966346,-0.04099919,0.8148099,0.5770651,-24.44146,-68.83849,-24.4536,1008.407
16.695348740,0.7018434,-0.0464043,-0.2629305,-0.03857,0.8133355,0.572248,-24.07666,-68.83342,-24.01895,1008.405
16.728125095,-0.1678475,0.1899664,0.1646926,-0.04198636,0.8231381,0.585238,-24.07666,-68.83342,-24.01895,1008.409
16.760901451,-1.720867,0.1899664,0.1036036,-0.04196989,0.8148084,0.5780302,-24.07666,-68.83342,-24.01895,1008.409
16.796199322,0.266998,-0.4009604,-0.07966346,-0.0405046,0.8099034,0.571295,-24.4475,-68.46811,-24.02421,1008.405
16.828975677,-0.4784513,-0.1645897,-0.01857444,-0.03811105,0.8245412,0.57223,-24.44146,-68.83849,-24.4536,1008.405
16.861752033,-0.7269344,0.1899664,-0.07966346,-0.03419338,0.8104431,0.5712792,-24.44146,-68.83849,-24.4536,1008.405
16.894528389,0.9503266,-0.282775,-0.2629305,-0.03808882,0.8163019,0.5780187,-24.80481,-68.83168,-24.01801,1008.405
16.929826260,0.9503266,-0.3418677,-0.3240195,-0.03468619,0.8138616,0.5732007,-24.07666,-68.83342,-24.01895,1008.403
16.962602615,4.615452,-0.4009604,-1.240355,-0.02882868,0.8002467,0.5693564,-24.07666,-68.83342,-24.01895,1008.407
16.995378971,11.9457,0.5445225,-1.5458,-0.03810219,0.8181127,0.5582802,-24.44001,-68.82661,-23.58337,1008.406
17.028155804,7.535129,1.962747,-0.4461975,-0.04305409,0.8630394,0.5813296,-24.43938,-68.82151,-23.21042,1008.406
17.060932636,-1.534505,1.253635,0.3479597,-0.05512422,0.8321952,0.5727402,-24.43938,-68.82151,-23.21042,1008.406
17.096230507,-0.5405721,-0.4600531,0.8977608,-0.05027841,0.8371327,0.5765722,-24.4372,-68.80368,-21.90508,1008.404
17.129006863,-5.634476,-0.105497,0.5923157,-0.0419913,0.8220502,0.5688735,-24.79597,-69.17913,-22.76911,1008.402
17.161783218,-2.031471,-0.9918872,0.04251458,-0.03175847,0.8080483,0.5741652,-24.79597,-69.17913,-22.76911,1008.402
17.194559574,-0.0436059,-1.110072,0.1036036,-0.02841251,0.8304833,0.5746048,-24.80274,-68.8147,-22.77484,1008.402
17.229857445,-2.155712,0.4263372,0.1646926,-0.03129791,0.8162481,0.5621178,-24.43866,-68.81557,-22.77531,1008.402
17.262633801,2.0685,-0.1645897,-0.2018415,-0.0584802,0.8131393,0.5679632,-24.43866,-68.81557,-22.77531,1008.402
17.295410156,0.7018434,-0.5782384,0.1646926,-0.04589664,0.8317952,0.574163,-24.44615,-68.45707,-23.21615,1008.407
17.328186512,-1.720867,-0.4600531,0.2868707,-0.03518799,0.8196651,0.5678982,-24.4319,-69.18,-22.76958,1008.407
17.360963345,-2.279954,-0.9327945,0.1646926,-0.03569715,0.8319204,0.579915,-24.4319,-69.18,-22.76958,1008.407
17.396260738,-5.323872,-0.4600531,1.142117,-0.03180619,0.8295277,0.5813534,-24.4319,-69.18,-22.76958,1008.407
17.429037094,-6.131442,0.1899664,1.56974,-0.02887981,0.8216725,0.5688429,-24.42576,-69.54953,-23.1368,1008.407
17.461813927,-4.702664,1.549098,1.508651,-0.04974882,0.8171151,0.5688993,-24.42576,-69.54953,-23.1368,1008.407
17.494590282,-2.528437,1.37182,0.2257816,-0.04434956,0.7943263,0.5771039,-24.4475,-68.46811,-24.02421,1008.407
17.529887676,4.615452,-0.5191457,-0.6905536,-0.03612797,0.8105475,0.5886127,-24.09018,-68.10455,-24.03041,1008.407
17.562664509,1.136689,-0.6373311,-0.7516426,-0.05075186,0.8327721,0.5804307,-24.81157,-68.46724,-24.02374,1008.407
17.595440864,0.5776018,-0.7555165,-0.7516426,-0.05506101,0.805402,0.5718177,-24.81157,-68.46724,-24.02374,1008.409
17.628217697,1.882138,-0.9327945,-1.118177,-0.04099215,0.8113838,0.5746635,-24.4475,-68.46811,-24.02421,1008.413
17.660994053,2.0685,-1.405536,-1.301444,-0.03711829,0.8173109,0.5818657,-24.09018,-68.10455,-24.03041,1008.413
17.696291923,1.385172,-1.760092,-0.4461975,-0.0284271,0.8378322,0.5808515,-24.09018,-68.10455,-24.03041,1008.413
17.729068279,-1.907229,-0.3418677,-0.1407525,-0.03225321,0.8114367,0.5717545,-23.71258,-68.8343,-24.01942,1008.413
17.761844635,1.26093,-0.0464043,0.04251458,-0.03467641,0.8094683,0.5717632,-24.43866,-68.81557,-22.77531,1008.413
17.794621468,0.9503266,0.3672445,0.1646926,-0.03129471,0.8162983,0.5693381,-24.43866,-68.81557,-22.77531,1008.413
17.829918861,1.695776,0.4263372,0.2868707,-0.02936352,0.8232132,0.5808758,-24.43335,-69.19189,-23.6398,1008.412
17.862695217,-1.16178,0.3081518,0.5312267,-0.04926936,0.8225802,0.5838121,-24.43325,-69.19104,-23.57764,1008.41
17.895472050,-0.7269344,0.2490591,0.2868707,-0.05508847,0.8165902,0.5698754,-24.43325,-69.19104,-23.57764,1008.41
17.928248405,-1.223901,0.01268838,0.1036036,-0.04490559,0.8245381,0.5799479,-24.43325,-69.19104,-23.57764,1008.408
17.961024761,-0.1057267,-0.3418677,-0.1407525,-0.04003438,0.8167393,0.573209,-24.43325,-69.19104,-23.57764,1008.414
17.996322632,-0.1678475,-0.9327945,-0.1407525,-0.03517925,0.8162659,0.5693474,-24.43325,-69.19104,-23.57764,1008.413
18.029098988,0.266998,-0.9327945,-0.4461975,-0.0390856,0.8244796,0.5645306,-24.80409,-68.82574,-23.5829,1008.413
18.061875343,0.7639642,-0.3418677,-0.3240195,-0.04004205,0.8201551,0.5741666,-24.43325,-69.19104,-23.57764,1008.413
18.094651699,0.6397226,-0.0464043,-0.01857444,-0.03422806,0.8260648,0.5765508,-24.43325,-69.19104,-23.57764,1008.413
18.129949570,-0.602693,0.4263372,-0.1407525,-0.03419999,0.8138757,0.5746436,-24.44073,-68.83255,-24.01848,1008.413
18.162726402,1.944259,-0.105497,-0.4461975,-0.04003447,0.817243,0.5756151,-24.42649,-69.55548,-23.57191,1008.413
18.195502758,1.757897,-0.3418677,-0.5683756,-0.0410275,0.8259847,0.5731975,-24.42649,-69.55548,-23.57191,1008.413
18.228279591,-0.1057267,-1.93737,-0.6294646,-0.06093745,0.8409482,0.6478332,-24.06855,-69.18682,-23.20516,1008.413
18.261055946,31.57587,-12.9877,-2.462135,-0.06060803,0.7041608,0.6576658,-24.07531,-68.82238,-23.21089,1008.413
18.296353340,223.9018,-4.419263,18.06377,-0.1267951,0.6406332,0.006154759,-24.07531,-68.82238,-23.21089,1008.413
18.329130173,289.4392,-34.73381,48.05848,0.1715696,1.886672,0.5850541,-24.77279,-70.24866,-21.01147,1008.413
18.361906529,106.3693,-43.06588,116.2949,0.07176632,2.008534,0.6496096,-25.75744,-74.05322,-1.739003,1008.413
18.394682884,67.2332,-48.62059,136.3932,0.2470668,1.095926,0.1740211,-25.75744,-74.05322,-1.739003,1008.413
18.429980755,152.2144,-33.90651,156.6137,0.4814982,1.276153,-0.1748311,-28.73203,-70.70556,-1.78777,1008.413
18.462757110,75.68163,20.04511,155.3308,0.4524744,0.9912377,-0.3495485,-29.95343,-64.62384,-10.39953,1008.411
18.495533466,77.42101,58.98719,138.5313,0.3433816,0.7119923,-0.3830455,-32.78512,-52.93562,-13.5641,1008.411
18.528309822,60.02719,88.00169,119.5326,0.2932674,0.7625338,-0.3387176,-32.78512,-52.93562,-13.5641,1008.411
18.561086178,32.07284,120.739,99.1289,0.2772987,0.5233378,-0.398008,-32.23607,-43.4191,-15.02031,1008.409
18.596384048,80.4028,144.6125,66.75172,0.2426723,0.3924009,-0.3452601,-30.82661,-37.9362,-18.09279,1008.409
18.629160404,71.51953,181.5454,19.89644,0.3772476,0.34314,-0.4470724,-30.82661,-37.9362,-18.09279,1008.409
18.661937714,67.60592,237.6835,-29.58566,0.3068762,0.3234145,-0.4675743,-28.33361,-35.0387,-19.01215,1008.409
18.694714069,-186.5302,4.503732,50.92966,-1.904476,2.707315,7.562229,-24.7153,-33.97195,-20.33937,1008.412
18.730011463,36.35917,-70.13033,-7.165989,1.669829,-0.7481542,0.1941245,-24.7153,-33.97195,-20.33937,1008.41
18.762788296,93.5724,52.25062,-67.09431,0.4728346,0.9004931,0.164153,-19.19553,-34.00216,-21.58967,1008.41
18.795564651,12.19419,1.490005,-72.34797,0.2568101,0.9065968,0.3210987,-20.64155,-34.33424,-19.46866,1008.41
18.828341007,11.44874,-7.255712,-74.18064,0.5264218,1.218839,0.07401279,-20.64155,-34.33424,-19.46866,1008.41
18.861117363,-61.72953,6.453791,-55.91502,0.5020244,1.228892,-0.1319673,-18.78518,-36.14295,-18.13703,1008.408
18.896415234,-95.89597,8.935683,-32.51793,0.3844582,1.176007,0.5288195,-16.57585,-37.62377,-19.42226,1008.408
18.929191589,-219.889,-40.22943,-13.09162,-0.08544423,1.629685,1.058748,-16.57585,-37.62377,-19.42226,1008.408
18.961967945,-416.8119,-70.78034,-11.99202,-0.0824909,1.538895,0.6761955,-14.78146,-36.58152,-22.86054,1008.408
18.994744301,-541.6747,-41.47038,-39.23772,-0.09614081,0.6858379,0.3766625,-15.22134,-33.42299,-31.8625,1008.406
19.027520657,-354.4426,-44.01136,-83.89379,-0.1446686,-0.3187356,0.5328087,-15.22134,-33.42299,-31.8625,1008.406
19.062818527,-34.27215,-72.61222,-106.8022,-0.1198946,0.1235908,0.7265534,-17.26209,-22.55894,-41.8541,1008.405
19.095594883,15.30023,-84.60803,-126.4118,-0.02346802,0.644533,0.8632091,-18.94981,-10.52688,-46.33123,1008.403
19.128371239,-52.10081,-68.41664,-147.5486,0.07496771,0.653852,0.6140975,-18.94981,-10.52688,-46.33123,1008.403
19.161148548,-42.4721,-29.1791,-159.8274,0.0168101,0.5303181,0.2187423,-22.27054,-11.64191,-48.48528,1008.403
19.196446419,20.8911,6.571976,-152.7411,0.1581298,1.16317,0.3556041,-24.42149,-13.88104,-52.67489,1008.401
19.229222775,-81.3597,67.61472,-131.7265,0.249366,1.419735,0.5109622,-24.42149,-13.88104,-52.67489,1008.399
19.261999130,-109.314,122.5118,-98.12753,0.2113772,0.8322265,0.3968924,-21.51,-14.31699,-57.39698,1008.399
19.294775486,0.7018434,181.5454,-116.7597,0.4225999,0.2920093,-0.290179,-14.57282,-12.57012,-61.72359,1008.399
19.327551842,430.5155,83.62883,-85.35993,0.5655347,1.011727,0.6403135,-14.57282,-12.57012,-61.72359,1008.398
19.362849712,204.2716,72.93306,-73.08104,0.4700047,1.979655,0.6405254,-5.527728,-6.347801,-62.70401,1008.395
19.395626068,8.280579,64.30553,-58.54185,0.2485357,1.21182,0.7996132,2.374105,-16.58964,-59.50678,1008.401
19.428402424,153.3326,35.29102,-38.74901,0.1775496,0.7360181,1.310742,2.374105,-16.58964,-59.50678,1008.401
19.461178779,84.8755,23.82704,-45.71316,-0.1244321,1.005355,0.6934654,8.734305,-25.77019,-58.93545,1008.401
19.496476650,4.615452,44.92313,-45.4688,-0.368096,0.9365512,0.5473317,12.9006,-30.90204,-55.8759,1008.401
19.529253006,-22.53133,61.76455,-49.13414,-0.3689544,0.8650604,0.4232501,16.21994,-33.07953,-54.60257,1008.401
19.562029362,-33.83731,76.41953,-55.30413,-0.4019566,0.8534226,0.4002406,16.21994,-33.07953,-54.60257,1008.399
19.594806671,-21.97224,78.48777,-60.00799,-0.3688224,0.8080247,0.415634,19.12798,-32.70424,-53.30672,1008.401
19.627583027,-3.398128,77.4241,-64.22313,-0.3761167,0.8083003,0.3939896,24.62423,-31.24784,-52.46655,1008.399
19.662880897,-10.29353,75.59223,-66.60561,-0.4438013,0.8916363,0.4127976,24.62423,-31.24784,-52.46655,1008.399
19.695657253,-40.73271,80.20145,-68.43827,-0.5360515,0.6737942,0.3642459,28.22684,-28.98034,-50.39319,1008.402
19.728433609,3.807882,73.70126,-73.81411,-0.6690463,0.6411495,0.3121421,33.3536,-27.14759,-48.7502,1008.402
19.829284191,-8.057186,66.84651,-122.5021,-0.6940601,0.7501841,0.333217,41.6353,-21.62468,-43.25267,1008.398
19.862060547,-25.451,76.36044,-132.5817,-0.8065253,0.6258737,0.1016548,41.6353,-21.62468,-43.25267,1008.398
19.894836903,0.5776018,73.52399,-142.9058,-0.9941822,0.3086082,0.08813717,45.64384,-18.253,-40.32682,1008.398
19.927613258,3.68364,61.05543,-91.22448,-0.7072989,0.5960363,0.3142262,49.18818,-12.75441,-37.43384,1008.398
19.962911129,-19.17681,73.70126,-54.44889,-0.8746532,0.288621,0.1519049,49.18818,-12.75441,-37.43384,1008.397
19.995687485,-52.6599,86.3471,-46.0186,-0.9063416,0.3606369,0.2505507,53.09547,-7.195956,-34.54229,1008.398
20.028463840,-44.83268,65.07373,-36.18327,-1.024737,0.2301035,-0.2385167,54.92077,-3.878925,-31.55051,1008.398
20.061241150,-14.20714,37.71382,-44.18593,-0.9474975,0.4752562,0.04349,54.92077,-3.878925,-31.55051,1008.398
20.096539021,6.976042,13.13126,-46.69058,-1.052882,0.2685466,0.0007289437,57.77887,-0.5541763,-27.81415,1008.4
20.129315376,-1.410263,8.64022,-45.77425,-0.9168749,0.2643756,0.07791188,58.82595,2.012097,-26.55034,1008.4
20.162091732,-7.808703,10.35391,-45.59098,-0.9963285,0.1856999,0.0657035,58.82595,2.012097,-26.55034,1008.402
20.194868088,3.373037,18.27233,-50.60028,-0.9520829,0.3794307,0.1365481,59.15582,3.900093,-26.1453,1008.402
20.227644444,-31.97368,34.28645,-48.64543,-1.016745,-0.005755194,0.08336951,59.13085,5.374823,-24.92504,1008.402
20.262942314,2.87607,31.80455,-58.11423,-1.007932,0.3636676,0.03802518,59.13085,5.374823,-24.92504,1008.402
20.295718670,-24.89192,32.57276,-59.76363,-1.003068,-0.06700064,-0.05568416,59.45654,7.578404,-23.65456,1008.4
20.328495026,-19.67377,31.50909,-71.30946,-1.045181,0.1205749,0.1443795,60.13414,10.52102,-21.58794,1008.4
20.361271381,17.35021,48.29141,-81.69459,-0.938017,0.1413995,-0.07155613,60.13414,10.52102,-21.58794,1008.4
20.396569252,27.4759,68.44202,-92.07972,-0.9915388,0.003887979,0.03900991,60.45525,13.10688,-19.01785,1008.4
20.429345608,25.30167,80.43783,-100.1435,-1.142988,0.1993417,0.1026143,59.66864,16.47816,-16.95603,1008.4
20.462121963,67.41956,60.93725,-107.0465,-1.017924,-0.1782121,-0.2018153,59.95802,20.90318,-13.17142,1008.398
20.494899273,48.59697,59.22356,-99.83803,-1.088689,-0.409658,-0.06122234,59.95802,20.90318,-13.17142,1008.398
20.527675629,5.733626,70.27389,-93.72913,-1.17769,-0.3393787,-0.003353759,58.79527,25.0161,-10.25037,1008.398
20.562973499,-38.37212,69.50568,-68.13283,-1.091932,-0.2910839,-0.1653675,57.28851,27.96481,-8.118772,1008.398
20.595749855,-33.2161,44.09583,-56.09829,-1.191768,-0.3843984,-0.2270857,57.28851,27.96481,-8.118772,1008.398
20.628526211,29.71225,2.376396,-35.69456,-1.334427,-0.235563,-0.2943623,54.34851,29.84662,-4.289817,1008.398
20.661302566,83.32248,-27.28813,-3.317381,-0.9456508,-0.1222311,-0.08269337,51.34818,31.31149,-4.308899,1008.398
20.696600437,14.18205,-7.728453,9.144778,-0.9368598,-0.3047048,0.1409127,51.34818,31.31149,-4.308899,1008.397
20.729376793,71.08469,-36.74296,27.41039,-0.9359033,-0.2549141,0.3661126,48.09281,29.8149,-7.700485,1008.397
20.762153149,54.3742,-61.79825,24.78357,-1.144439,-0.1455313,0.4477925,46.30791,27.59103,-10.70954,1008.399
20.794929504,27.28954,-78.16693,22.70654,-1.065956,-0.2815277,0.4073769,46.30791,27.59103,-10.70954,1008.397
20.827705860,52.51057,-112.7952,61.68133,-1.040273,0.3765216,0.5247393,45.25126,25.36627,-13.65737,1008.397
20.863003731,-44.89481,-104.6404,85.99476,-1.425686,0.2540648,0.1874406,42.32466,22.32753,-18.70376,1008.397
20.895780086,-19.23893,-126.5047,88.19396,-1.689698,-0.5213428,-0.3412251,42.32466,22.32753,-18.70376,1008.397
20.928557396,106.742,-139.9188,113.8513,-1.322927,-0.1898947,-0.3945817,39.83334,19.02399,-20.82446,1008.397
20.961333752,66.86047,-109.1315,127.4742,-1.10106,-0.1234523,-0.1415304,36.21255,17.51723,-25.02364,1008.397
20.996631622,39.52733,-89.21726,129.9789,-1.092458,-0.2694947,-0.1418121,36.21255,17.51723,-25.02364,1008.397
21.029407978,118.4828,-80.8261,119.2272,-1.017697,-0.2489211,-0.07462975,34.48151,12.30609,-28.79396,1008.397
21.062184334,154.078,-65.5211,97.66277,-1.096155,-0.3514548,-0.1570833,33.46678,7.90574,-30.89935,1008.397
21.094960690,247.2592,-57.83905,42.68265,-0.9512366,-0.930725,-0.5671555,33.46678,7.90574,-30.89935,1008.397
21.127737045,415.4201,-62.56646,28.32673,-0.7197675,-0.2098033,-0.3406257,31.32887,2.002408,-32.04699,1008.4
21.163034916,311.1815,-42.0613,43.41572,-0.6904602,0.6346463,0.1730891,29.65047,-5.646406,-31.92431,1008.398
21.195811272,93.69665,11.06302,48.91373,-0.673152,0.3644196,0.5142595,29.65047,-5.646406,-31.92431,1008.396
21.228587627,-13.64806,30.38633,40.78889,-0.8003061,0.3168846,0.4149908,28.03903,-16.59513,-28.76549,1008.395
21.261363983,-99.31261,40.60936,36.51266,-0.7654405,0.5520693,0.3649734,27.41622,-22.09776,-26.99936,1008.395
21.296662808,-172.553,47.22774,28.81544,-0.7854995,0.3864003,0.2381912,27.41622,-22.09776,-26.99936,1008.395
21.329439163,-156.7743,43.44581,21.17931,-0.9014061,0.3078725,0.1509766,27.0508,-22.10792,-27.80695,1008.393
21.362215519,-133.7275,38.18656,10.30547,-0.9096957,0.31736,0.1245071,27.73475,-19.95277,-30.01783,1008.393
21.394991875,-110.1837,38.18656,-2.217779,-0.9217131,0.2666314,0.1279816,27.73475,-19.95277,-30.01783,1008.393
21.427768230,-86.88845,32.86822,-16.08499,-0.9944483,0.2428391,0.2259064,28.39344,-16.25535,-30.51214,1008.393
21.463066101,-32.96762,23.59067,-22.19389,-0.9678516,0.2873144,0.216149,30.15901,-13.35016,-30.99544,1008.391
21.495842457,-0.4163305,16.55864,-28.18061,-0.9426903,0.3184738,0.1842725,30.83984,-10.80084,-31.03649,1008.391
21.528618812,13.68509,11.83122,-30.74635,-0.9684518,0.3254204,0.1636246,30.83984,-10.80084,-31.03649,1008.391
21.561395168,26.10924,9.231147,-28.36388,-0.9301298,0.3458593,0.1851642,30.81497,-9.325263,-29.75407,1008.391
21.594171524,35.5516,6.394698,-25.85923,-0.9194506,0.3474128,0.1856179,31.54313,-9.327008,-29.75501,1008.391
21.629469395,41.63944,5.862864,-23.17131,-0.9646704,0.380415,0.2232216,31.54313,-9.327008,-29.75501,1008.391
21.662245750,42.94397,5.685586,-15.53518,-0.9739779,0.4118943,0.2087554,31.90866,-9.315993,-28.88526,1008.391
21.695023060,40.21066,9.585703,-8.99866,-0.9385044,0.3939223,0.1730776,32.28625,-10.04574,-28.87427,1008.393
21.727799416,23.31381,12.77671,-4.600251,-0.9109111,0.4393112,0.2234867,32.28625,-10.04574,-28.87427,1008.393
21.763097286,6.8518,14.25402,-0.9349097,-0.900975,0.3509744,0.2553661,32.29447,-10.39829,-27.99831,1008.393
21.795873642,35.36524,5.508308,-1.423622,-0.9431306,0.3156431,0.2680348,32.66739,-10.74662,-26.74988,1008.393
21.828649998,58.53629,-2.351019,-0.8127316,-0.9399565,0.4040859,0.2356427,32.66739,-10.74662,-26.74988,1008.391
21.861426353,36.7319,-1.641907,0.5312267,-0.9323034,0.4447664,0.1932034,33.09818,-11.11802,-27.17981,1008.391
21.894202709,12.75327,1.430913,4.929636,-0.9696201,0.4036529,0.13896,33.49075,-12.56475,-26.28713,1008.391
21.929500580,-2.466316,3.558249,9.389134,-0.9637306,0.3794272,0.1500539,33.49075,-12.56475,-26.28713,1008.391
21.962276936,-3.025403,3.912805,13.17665,-0.9704595,0.346102,0.1284588,32.70868,-12.92729,-26.28039,1008.391
21.995053291,-6.81477,3.085508,14.0319,-0.9607063,0.3316827,0.1443423,33.50427,-13.29362,-26.27567,1008.387
22.027829647,2.565467,0.839986,11.64943,-0.9659611,0.2910643,0.1227547,33.50427,-13.29362,-26.27567,1008.391
22.063127518,13.93357,-0.6373311,7.984087,-0.9398542,0.3385012,0.1192518,33.52456,-14.38693,-26.25848,1008.391
22.095904827,14.9275,-1.05098,3.035876,-0.9767793,0.3449212,0.1063329,33.51925,-14.01061,-25.39399,1008.391
22.128681183,21.76079,-3.414687,-0.07966346,-0.9559042,0.3480578,0.112055,33.51925,-14.01061,-25.39399,1008.391
22.161457539,27.16529,-5.01019,-2.523224,-0.9234363,0.377114,0.1191546,32.37986,-14.73672,-25.38104,1008.389
22.194233894,22.87896,-4.596541,-2.217779,-0.9235557,0.4262635,0.1133045,32.39941,-15.83597,-25.79896,1008.389
22.229531765,17.03961,-1.641907,-1.240355,-0.9410003,0.4089981,0.1027819,32.39941,-15.83597,-25.79896,1008.385
22.262308121,12.8154,-1.878277,0.3479597,-0.9380757,0.4071781,0.1177,32.7507,-15.10203,-25.37578,1008.387
22.295084477,11.57298,-0.5191457,1.997363,-0.9298099,0.4033808,0.1220183,32.40753,-16.18937,-24.98517,1008.387
22.327860832,11.75934,-0.2236823,1.936274,-0.944374,0.3992626,0.1076182,32.40753,-16.18937,-24.98517,1008.387
22.363158703,11.13813,-1.464629,1.56974,-0.9240146,0.4191014,0.1344963,32.78524,-16.91827,-24.91202,1008.387
22.395935058,10.82753,-0.6964238,2.852609,-0.9162965,0.4375627,0.1185652,32.78451,-16.92421,-25.34713,1008.387
22.428711414,2.87607,-0.5782384,4.07439,-0.9148272,0.4306996,0.1103889,32.78451,-16.92421,-25.34713,1008.389
22.461488724,-1.907229,-1.228258,5.112903,-0.9250001,0.4188656,0.1017664,32.78596,-16.91233,-24.47691,1008.393
22.494265079,-5.945079,-0.6964238,5.112903,-0.9298646,0.4202025,0.08974187,32.06456,-17.27502,-24.47024,1008.393
22.529562950,-8.740515,0.6036152,4.929636,-0.9356641,0.4104803,0.09939752,32.42864,-17.27589,-24.47071,1008.389
22.562339306,-10.72838,2.199118,4.135479,-0.9331917,0.3899818,0.09027667,32.42864,-17.27589,-24.47071,1008.387
22.595115662,-11.16323,2.199118,2.913698,-0.9321852,0.3743783,0.0864469,32.42105,-16.91825,-24.97371,1008.387
22.627892017,-8.492031,2.494581,2.424986,-0.9346326,0.3831446,0.08932768,32.43395,-17.65222,-25.3352,1008.387
22.663189888,-8.678393,1.608191,0.6534048,-0.937993,0.3695766,0.1033156,32.43395,-17.65222,-25.3352,1008.387
22.695966244,-3.708732,0.7808933,-2.462135,-0.9379059,0.3290128,0.08315931,32.42719,-17.28778,-25.34093,1008.389
22.728742599,-5.820838,-1.169165,-7.1049,-0.931163,0.3554861,0.09995108,32.42043,-16.92334,-25.34666,1008.387
22.761518955,1.509413,1.490005,-6.555099,-0.9653385,0.4295803,0.08018465,32.42043,-16.92334,-25.34666,1008.389
22.794295311,-2.031471,3.79462,-7.654701,-0.941447,0.3909138,0.09414575,32.41294,-16.56485,-25.7875,1008.389
22.829593182,3.68364,4.562825,-6.005298,-0.9341986,0.404064,0.08544422,32.77098,-16.19534,-25.35859,1008.389
22.862370491,0.826085,5.390122,-4.600251,-0.9288853,0.419834,0.105625,32.77098,-16.19534,-25.35859,1008.387
22.895146847,0.7639642,4.621917,-3.073025,-0.9225576,0.412044,0.09840135,32.77847,-16.55383,-24.91775,1008.387
22.927923202,0.5776018,4.799196,-2.15669,-0.9172875,0.4397688,0.08679439,33.19719,-16.18447,-24.48892,1008.387
22.963221073,-6.566288,4.385547,-0.9959988,-0.9279085,0.4128597,0.08204652,33.19719,-16.18447,-24.48892,1008.389
22.995997429,-7.125374,2.25821,-0.1407525,-0.938061,0.3932634,0.07776787,33.20395,-16.54891,-24.48319,1008.389
23.028773785,-7.870824,2.080932,0.2257816,-0.9491819,0.3737026,0.07974917,33.19781,-16.17937,-24.11596,1008.389
23.061550140,1.136689,1.312727,-0.5683756,-0.9714906,0.362328,0.08174468,33.19781,-16.17937,-24.11596,1008.389
23.094326496,2.316983,1.37182,-2.15669,-0.9622648,0.3649305,0.09471565,32.75891,-15.45458,-24.49983,1008.39
23.129624367,0.8882058,3.203693,-2.76758,-0.9550269,0.3849895,0.0990005,33.92597,-16.18112,-24.1169,1008.39
23.162400723,-3.708732,4.090083,-1.912334,-0.9399986,0.3953426,0.09894925,33.92597,-16.18112,-24.1169,1008.39
23.195177078,-4.578423,3.085508,-0.8127316,-0.9287781,0.3730192,0.09703084,33.19719,-16.18447,-24.48892,1008.39
23.227954388,-3.832973,2.02184,0.04251458,-0.9433771,0.3865411,0.09800781,33.54775,-15.45647,-24.50085,1008.387
23.263252258,-0.4784513,0.07178105,1.56974,-0.9453341,0.3933667,0.1013717,33.54775,-15.45647,-24.50085,1008.385
23.296028614,-1.596625,-1.169165,1.875185,-0.964713,0.3711579,0.08267802,33.9111,-15.46329,-24.93643,1008.385
23.328804970,1.509413,-3.414687,3.158054,-0.9569787,0.3838118,0.07205065,33.18429,-15.4505,-24.12742,1008.385
23.361581326,-0.851176,-2.173741,3.768945,-0.9554901,0.3701805,0.07110494,33.18429,-15.4505,-24.12742,1008.385
23.394357681,-0.602693,-1.93737,3.768945,-0.9496224,0.3547045,0.07977886,33.9111,-15.46329,-24.93643,1008.385
23.429655552,0.5154811,-0.7555165,2.730431,-0.9452292,0.3434824,0.0716022,33.19043,-15.82003,-24.49465,1008.385
23.462431908,1.695776,0.839986,1.019939,-0.9394419,0.3605937,0.0739695,33.55451,-15.82091,-24.49512,1008.385
23.495208263,-1.099659,1.194542,-0.7516426,-0.9578798,0.3596432,0.09952683,33.55451,-15.82091,-24.49512,1008.385
23.527984619,0.5154811,-0.7555165,-2.339957,-0.9481032,0.3344792,0.1110943,33.54702,-15.46241,-24.93596,1008.385
23.563282490,7.473008,-2.173741,-3.195203,-0.9559683,0.3748375,0.1110521,33.93346,-16.53961,-23.67606,1008.385
23.596058845,9.336632,-2.351019,-2.889758,-0.9467532,0.375758,0.09225573,33.93346,-16.53961,-23.67606,1008.383
23.628836155,1.385172,-0.4600531,-1.484711,-0.9405216,0.4104097,0.09507689,33.54837,-15.45137,-24.12789,1008.383
23.694388866,-0.2299682,1.135449,1.386473,-0.9356149,0.3834662,0.06670552,33.5672,-16.55657,-24.98093,1008.382
23.729686737,3.994245,-0.0464043,1.325384,-0.943335,0.3664894,0.08600388,33.55513,-15.81581,-24.12216,1008.383
23.762463093,8.839665,-1.287351,-0.9349097,-0.9554499,0.358686,0.09904114,33.56803,-16.54978,-24.48366,1008.382
23.795239448,16.729,-2.587389,-1.423622,-0.9293031,0.3910887,0.1047066,33.56803,-16.54978,-24.48366,1008.382
23.828015804,14.36841,-2.055555,-0.07966346,-0.9274145,0.4124906,0.09841219,33.5672,-16.55657,-24.98093,1008.383
23.863314152,4.615452,-1.464629,1.691918,-0.9473226,0.4123278,0.09894102,33.19043,-15.82003,-24.49465,1008.382
23.896090031,3.870003,-0.9327945,3.891123,-0.9473867,0.4386005,0.09505069,33.19043,-15.82003,-24.49465,1008.382
23.928866386,-3.025403,-1.819185,4.318746,-0.9467927,0.3907989,0.08405,33.57407,-16.92016,-24.91304,1008.383
23.961642742,-2.963283,-1.287351,4.807458,-0.9273655,0.3885058,0.08111921,33.58145,-17.2795,-24.53436,1008.383
23.994420052,-0.602693,0.5445225,4.502013,-0.9360576,0.3659492,0.06962113,33.58145,-17.2795,-24.53436,1008.383
24.029717445,-0.602693,1.549098,2.852609,-0.948234,0.383955,0.08213829,33.95167,-17.64991,-24.90205,1008.386
24.062494278,-2.528437,2.435488,1.997363,-0.9423736,0.3683652,0.0744461,33.57542,-16.90912,-24.10497,1008.386
24.095270634,-1.037538,3.735527,0.4701377,-0.9534787,0.3460228,0.09664875,33.57542,-16.90912,-24.10497,1008.384
24.128046989,0.7018434,5.035566,-0.07966346,-0.9830868,0.3363581,0.07314681,32.78596,-16.91233,-24.47691,1008.383
24.160823345,5.050298,5.390122,-0.2018415,-0.955416,0.3425472,0.08943816,33.58083,-17.2846,-24.90731,1008.383
24.196121216,0.3912396,5.803771,-3.500648,-0.9622144,0.3475348,0.1144776,33.58083,-17.2846,-24.90731,1008.381
24.228897572,-12.2814,2.790045,-12.29747,-0.9309274,0.262188,0.1304169,32.80083,-17.63016,-23.65738,1008.381
24.261673927,-13.7723,0.6036152,-27.87517,-0.8501368,0.1854601,0.1356359,33.58218,-17.27356,-24.09924,1008.381
24.294450283,-17.68591,-3.355594,-47.91236,-0.8995841,0.1539809,0.1507229,33.58218,-17.27356,-24.09924,1008.379
24.329748154,-19.42529,-8.023916,-67.33867,-0.8587079,0.1157993,0.1439444,33.94022,-16.90405,-23.67033,1008.377
24.362524510,-22.22072,-7.43299,-76.68529,-0.9252769,0.1357362,0.1493672,34.63998,-15.45909,-24.50226,1008.377
24.395301819,-13.83442,-11.86494,-83.64944,-0.9013551,0.07885215,0.1349554,34.63998,-15.45909,-24.50226,1008.375
24.428078174,-45.82661,-7.137526,-90.00269,-0.9025074,0.1689558,0.2065452,34.94924,-12.55041,-24.98368,1008.375
24.460854530,-63.59316,-2.469204,-98.98278,-0.8452429,-0.04473154,0.08542828,36.37778,-11.10209,-25.44359,1008.375
24.496152401,-48.06297,5.212844,-101.3652,-0.8355891,-0.02938708,0.03917154,36.65065,-6.322377,-26.82484,1008.375
24.528928757,-65.51891,12.48124,-102.4038,-0.8195099,-0.05818884,0.0102951,36.65065,-6.322377,-26.82484,1008.377
24.561705112,-60.7356,11.65395,-105.5193,-0.5973435,-0.3820769,-0.04750709,37.676,-2.674681,-26.44844,1008.377
24.594481468,-8.119307,24.77252,-110.2232,-0.8396583,-0.4025422,-0.1778319,37.59559,1.704507,-26.08208,1008.377
24.629779339,-48.87053,23.53158,-124.2736,-1.377725,-0.1250616,0.09980909,37.59559,1.704507,-26.08208,1008.381
24.662555695,-37.50243,18.80416,-119.3254,-1.343562,-0.2160245,0.005036895,38.24752,5.766365,-26.58212,1008.383
24.695332050,-26.13433,33.10459,-94.09566,-1.350183,-0.08250801,0.02266175,38.53119,10.14468,-26.21624,1008.385
24.728109360,-12.84049,43.74127,-64.34531,-1.248591,-0.3512104,-0.07874155,38.53119,10.14468,-26.21624,1008.385
24.760885715,-36.44638,54.67342,-46.56841,-1.061747,-0.3254451,-0.1702009,39.18592,14.22946,-25.03799,1008.385
24.796183109,7.038163,60.87815,-7.71579,-1.184257,-0.2332964,-0.008793047,40.94691,17.51692,-24.22168,1008.385
24.828959942,0.01851488,57.86443,4.440924,-1.098278,-0.4815781,-0.1665094,40.94691,17.51692,-24.22168,1008.385
24.861736298,129.5403,35.17283,19.0412,-1.112251,-0.1036995,-0.08906521,42.3798,19.0009,-22.07092,1008.387
24.894512653,-44.39784,37.35926,6.762307,-0.8722141,-0.09908663,0.2858207,45.72529,18.6395,-21.26144,1008.387
24.929810524,-20.0465,17.03138,-0.5072865,-0.8416439,-0.5502098,0.02119776,45.72529,18.6395,-21.26144,1008.388
24.962586880,3.994245,10.17663,-0.3240195,-0.7923235,-0.2525054,0.04951379,47.56887,17.5656,-19.50615,1008.388
24.995363235,-47.62812,10.05844,3.463499,-0.8999261,-0.1443187,-0.02211695,48.64831,18.2978,-19.08391,1008.388
25.028139591,-62.59922,12.0085,15.86457,-0.9061462,-0.4273064,-0.2272171,48.64831,18.2978,-19.08391,1008.39
25.060915947,-12.21928,10.35391,33.45821,-0.9727057,-0.4284373,-0.3098518,50.09182,19.02913,-18.66214,1008.392
25.096213818,-37.68879,25.83619,45.43165,-1.16215,-0.3275988,0.0610941,52.27025,19.39427,-18.23557,1008.392
25.128990650,-84.27937,-8.910307,55.2059,-1.188117,-0.6178131,0.1713436,52.27025,19.39427,-18.23557,1008.392
25.161767483,-51.72809,-12.27859,84.101,-1.181692,0.04008701,-0.4101855,55.59545,20.12619,-17.44328,1008.392
25.194543839,-23.46314,-10.50581,79.33606,-0.8882819,-0.3746965,-0.1772772,58.15752,19.39121,-17.43511,1008.392
25.229841232,-16.7541,-34.67472,82.39051,-1.086868,-0.055973,-0.6105121,58.15752,19.39121,-17.43511,1008.394
25.262618065,-27.06614,-45.78414,62.90312,-0.9759859,-0.2366883,-0.1166256,58.56892,16.83927,-17.39547,1008.394
25.295394421,8.404819,-32.66557,70.35597,-1.028447,0.002992609,0.02465795,59.71429,13.84344,-18.59326,1008.394
25.328170776,-30.42067,-22.6789,70.2338,-1.02395,0.1383544,-0.05594414,59.71429,13.84344,-18.59326,1008.395
25.360947132,-11.84655,-18.95606,66.26301,-1.017337,-0.008440835,-0.1621195,60.13486,10.52697,-21.15283,1008.4
25.396245003,7.907853,-11.92403,45.37056,-0.9712347,0.2112506,-0.1423428,60.90827,7.957182,-22.35683,1008.401
25.429021358,-62.78559,-8.142102,16.84199,-1.014709,-0.2588346,0.03705403,60.94811,5.764616,-22.75756,1008.403
25.461798191,-2.466316,-4.182892,42.86591,-1.028707,0.1014639,-0.03229053,60.94811,5.764616,-22.75756,1008.403
25.494575024,-22.03436,-12.92861,47.81413,-0.992034,-0.04173635,-0.2179673,60.247,4.308613,-22.73371,1008.405
25.529872417,-13.89654,-26.46083,50.86858,-1.074858,0.1547946,0.1983108,61.00864,2.412056,-23.57526,1008.405
25.562648773,-0.4784513,-24.68805,63.94163,-0.935321,0.202675,-0.2280974,61.00864,2.412056,-23.57526,1008.407
25.595425606,9.460873,-35.44292,75.36527,-1.052302,0.01646922,-0.03980825,59.94137,0.9399428,-24.79411,1008.407
25.628201961,-5.323872,-29.00182,78.60299,-0.9196419,0.3737117,-0.09457385,59.99859,-2.369709,-26.9181,1008.41
25.660978317,-20.85407,-27.70178,82.02397,-0.9310032,0.106451,0.2172969,59.99859,-2.369709,-26.9181,1008.41
25.696276188,-27.50099,-8.201195,98.76237,-0.8888179,0.4811503,-0.08999527,58.60106,-5.663134,-28.10783,1008.408
25.729052544,-93.53537,-10.74218,106.5818,-1.009314,0.1713851,0.2640769,57.20454,-9.018147,-29.35876,1008.408
25.761828899,-35.0176,-20.72884,118.5552,-0.7923442,0.7381516,-0.1584834,57.20454,-9.018147,-29.35876,1008.407
25.794605255,-112.1716,-30.42004,111.4078,-0.962042,0.2466766,-0.03170479,56.89841,-12.32098,-31.04716,1008.407
25.829903603,-14.14502,-70.13033,112.3241,-0.8115461,0.6818429,0.03178486,53.99523,-16.35748,-33.5288,1008.407
25.862679958,-25.63737,-79.17151,116.8447,-0.7676542,0.6109393,0.0784797,53.99523,-16.35748,-33.5288,1008.407
25.895456314,-29.6131,-77.28054,105.4822,-0.7492704,0.6625711,0.1972546,51.11674,-18.58977,-37.34451,1008.407
25.928233147,-29.48885,-79.28969,99.37325,-0.6150339,0.7928911,0.2862731,46.45956,-23.06505,-41.12254,1008.405
25.961009502,-28.99189,-87.32629,98.27365,-0.5570805,0.9091772,0.1997966,46.45956,-23.06505,-41.12254,1008.403
25.996306896,-77.50821,-67.17569,86.72783,-0.6315913,0.8425173,0.4388292,41.7075,-25.65132,-44.49497,1008.403
26.029083729,-70.55068,-81.41703,85.50605,-0.5522023,0.5484407,0.497329,37.00186,-27.51481,-48.31406,1008.403
26.061860085,-34.76912,-85.37624,85.81149,-0.4003244,0.9627433,0.2903215,37.00186,-27.51481,-48.31406,1008.403
26.094636440,-111.7368,-78.16693,82.69595,-0.4623102,0.9602991,0.6437917,31.8438,-27.92462,-52.52848,1008.403
26.129934311,-47.25539,-117.759,82.69595,-0.3801418,0.7464892,0.8253924,26.73425,-27.59467,-55.94636,1008.405
26.162711144,-30.2343,-110.9634,77.62556,0.04573325,0.8823596,0.521401,26.73425,-27.59467,-55.94636,1008.405
26.195487499,-31.10399,-85.6717,75.7318,0.07655191,0.8119293,0.6518831,20.08201,-25.7923,-58.57714,1008.405
26.228263855,-42.03725,-69.18484,76.22052,0.1027079,1.018221,0.519617,12.42609,-25.4384,-60.6864,1008.405
26.261040688,-72.35219,-57.4254,67.11826,-0.03691112,0.9225711,0.5200923,12.42609,-25.4384,-60.6864,1008.405
26.296338081,-90.80206,-50.33428,50.80749,-0.1456387,0.5172027,0.6292676,5.445761,-25.43951,-61.98273,1008.405
26.329114437,-16.25713,-44.4841,41.33869,-0.1487581,0.5851762,0.5324188,-0.1007234,-24.36863,-64.60347,1008.405
26.361891270,71.95438,-39.87487,40.30017,-0.08584391,0.6935552,0.6336735,-0.1007234,-24.36863,-64.60347,1008.405
26.394667625,77.29676,-36.74296,54.77827,0.03155951,0.955057,0.6970221,-4.127208,-23.27676,-65.42355,1008.405
26.427443981,55.49237,-19.96064,53.98412,0.02703893,0.7880065,0.5629847,-8.392538,-28.71501,-64.02663,1008.405
26.462741852,55.24389,4.267361,47.56977,0.1630392,0.7710974,0.5593181,-13.42103,-35.27061,-60.06203,1008.405
26.495518684,-8.057186,33.45914,25.1501,0.1078596,0.697605,0.5629292,-13.42103,-35.27061,-60.06203,1008.407
26.528295040,-8.740515,44.68676,10.48874,-0.0127409,0.5751007,0.6009461,-17.31701,-40.7365,-56.17827,1008.407
26.561071396,15.2381,38.77749,1.691918,0.01795968,0.7366796,0.616996,-19.0857,-43.24754,-53.52514,1008.407
26.596369266,-6.876891,52.84155,-1.057088,-0.07274649,0.8773109,0.4981029,-19.0857,-43.24754,-53.52514,1008.407
26.629145622,-11.59807,80.02418,-4.539162,-0.05343686,0.6893224,0.3361215,-19.39674,-45.75102,-50.06583,1008.405
26.661921978,-45.70237,97.51561,-19.75033,-0.04339525,0.5728368,0.4522814,-18.62835,-47.5223,-46.18427,1008.409
26.694698811,-150.0653,84.04248,-39.48208,-0.1888767,1.000383,0.9665578,-18.62835,-47.5223,-46.18427,1008.409
26.727475166,-188.0211,68.38292,-11.44222,-0.1454257,0.1791193,1.458681,-16.80974,-47.12147,-43.20873,1008.411
26.762772560,206.5701,-28.94273,-7.043811,-0.1265581,0.5716493,1.222178,-15.08088,-42.41788,-45.46113,1008.411
26.795549393,145.9402,-38.51574,4.135479,-0.007817162,1.177771,0.6938916,-15.08088,-42.41788,-45.46113,1008.411
26.828325748,-8.616273,-6.073858,3.280232,-0.04908962,0.7319413,0.506449,-14.70528,-42.32449,-38.56197,1008.411
26.861102581,-26.6313,3.262786,-0.5683756,-0.08537491,0.6953199,0.6067136,-17.10903,-49.94864,-36.76006,1008.411
26.896400452,5.671505,-10.32853,-1.912334,-0.03558023,0.8120329,0.7315736,-17.10903,-49.94864,-36.76006,1008.411
26.929176807,18.2199,-14.16956,-2.401046,0.02660006,0.7851992,0.6501164,-16.73819,-50.31395,-36.7548,1008.411
26.961953163,18.40627,-9.20577,-2.523224,-0.03256187,0.7495452,0.6368324,-17.44952,-51.08398,-35.43611,1008.411
26.994729519,-7.808703,-11.51038,-3.622827,-0.08804411,0.8157877,0.7042547,-17.44952,-51.08398,-35.43611,1008.411
27.027506351,-21.91012,-20.37429,-6.188565,-0.08247447,0.7173693,0.6923558,-17.80549,-51.43651,-34.62185,1008.411
27.062803745,22.31987,-17.0651,-3.500648,0.02128818,0.7563145,0.5649716,-18.16415,-51.81111,-35.42371,1008.411
27.095580101,-11.78443,-0.8737018,1.56974,0.0283585,0.8712434,0.6947492,-18.16415,-51.81111,-35.42371,1008.411
27.128356934,-32.59489,3.912805,2.302808,-0.02608005,0.6875933,0.6850465,-18.1627,-51.79922,-34.55349,1008.411
27.161133766,5.857868,-1.110072,-1.667978,-0.04935245,0.6636968,0.6384456,-17.79404,-52.18237,-35.85356,1008.411
27.196431637,15.67295,-3.769243,-5.455497,-0.00587099,0.7565999,0.6386839,-17.79404,-52.18237,-35.85356,1008.411
27.229207993,17.53657,0.6036152,-9.487371,0.0189718,0.7145973,0.5919961,-17.81618,-51.03426,-36.30682,1008.411
27.261984348,31.14102,-1.228258,-9.914995,-0.1018399,0.8888203,0.6473767,-18.16208,-51.79413,-34.18053,1008.411
27.294760704,11.9457,0.2490591,-4.416984,-0.02263185,0.8717386,0.6871676,-18.16208,-51.79413,-34.18053,1008.409
27.327537060,19.95928,2.671859,-8.448858,-0.04931392,0.6243914,0.5191271,-18.51649,-52.13391,-32.43389,1008.413
27.362834931,37.78795,-5.187468,-17.91766,-0.03323037,0.8128495,0.5659783,-18.13681,-52.84668,-31.17972,1008.411
27.395611286,7.59725,-1.228258,-12.41964,-0.08602229,0.9776631,0.6573139,-18.13681,-52.84668,-31.17972,1008.413
27.428387642,-9.98293,-4.301077,-3.806093,-0.05065411,0.7923758,0.5843423,-18.15201,-51.71177,-28.15113,1008.413
27.461163998,-6.255683,17.91777,2.363897,-0.03664994,0.8428095,0.6761731,-17.05301,-52.07882,-28.14681,1008.415
27.496461868,-42.34785,23.05883,16.29219,-0.1169286,0.7300442,0.8055385,-16.71783,-50.56715,-28.60627,1008.415
27.529239178,-10.10717,16.14499,17.57506,-0.06034845,0.6001246,0.6847783,-16.71783,-50.56715,-28.60627,1008.417
27.562015533,23.93501,9.52661,13.11556,-0.04716983,0.7770722,0.6907381,-16.39723,-48.40517,-30.38157,1008.417
27.594791889,6.230593,0.7808933,7.006662,-0.07362073,0.8677098,0.6593756,-16.3912,-48.77555,-30.81095,1008.417
27.627568245,-12.40564,-17.71512,1.019939,-0.05692606,0.7661826,0.5372232,-16.3912,-48.77555,-30.81095,1008.415
27.662866115,1.385172,-23.91985,-3.806093,-0.05260918,0.7850859,0.5188927,-17.08617,-50.60109,-31.15431,1008.415
27.695642471,-9.672326,-16.41508,-6.555099,-0.07693345,0.8175058,0.5877362,-17.81442,-50.6002,-31.21553,1008.415
27.728418827,-8.864756,-13.28316,-6.005298,-0.02815422,0.7334998,0.635402,-17.81442,-50.6002,-31.21553,1008.417
27.761195183,8.715424,-10.44672,-4.172627,-0.02042398,0.7556884,0.6651946,-18.52179,-51.75759,-31.5694,1008.417
27.796493053,7.969974,-6.369321,-0.6905536,-0.00305521,0.7975277,0.6376528,-17.79301,-51.75425,-31.19739,1008.417
27.829269409,6.603317,-3.651058,0.4701377,-0.01716543,0.8015055,0.5962831,-17.79301,-51.75425,-31.19739,1008.417
27.862046719,0.826085,-1.405536,0.2257816,-0.02838714,0.8238088,0.5953134,-18.50089,-52.84581,-31.17925,1008.418
27.894823074,-5.137509,-0.7555165,-0.4461975,-0.02342838,0.7835367,0.6112472,-17.75099,-53.92898,-30.29278,1008.418
27.927599430,0.1427564,-1.996463,-0.9959988,-0.02626515,0.7533937,0.6223707,-17.75099,-53.92898,-30.29278,1008.418
27.962897301,5.733626,-2.291926,-1.667978,-0.02781512,0.7938483,0.6285712,-17.75848,-53.57048,-30.73362,1008.42
27.995673656,2.503346,-1.228258,-1.179266,-0.02542246,0.8039253,0.6040008,-18.1339,-52.82291,-29.43928,1008.418
28.028450012,0.826085,-0.4009604,-0.9349097,-0.02877219,0.7834519,0.6054837,-18.1339,-52.82291,-29.43928,1008.417
28.061226368,0.266998,-0.6964238,-0.6905536,-0.02977402,0.8006437,0.6276028,-18.47915,-53.92723,-30.29184,1008.415
28.096524239,-1.286021,-0.6964238,-0.01857444,-0.02926183,0.7894462,0.6276185,-18.47842,-53.92129,-29.85673,1008.415
28.129300594,1.012447,-1.05098,-0.2018415,-0.02920626,0.7635434,0.6146606,-18.47842,-53.92129,-29.85673,1008.415
28.162077904,3.559399,-1.228258,-1.057088,-0.02490726,0.7937856,0.616049,-18.83574,-54.28485,-29.85053,1008.415
28.194854260,1.26093,-0.8146091,-0.6905536,-0.02881464,0.8029932,0.6141189,-18.10831,-54.29254,-30.28658,1008.413
28.227630615,1.447293,-1.05098,-0.7516426,-0.02440464,0.7869846,0.6179835,-18.10831,-54.29254,-30.28658,1008.413
28.262928486,1.633655,-0.8146091,-0.8127316,-0.03024884,0.7932305,0.612693,-18.46563,-54.65611,-30.28038,1008.413
28.295704842,0.826085,-1.110072,-0.2629305,-0.03072271,0.7888633,0.6155887,-18.09406,-55.01547,-29.84001,1008.413
28.328481197,2.316983,-0.9918872,-0.3851085,-0.02490827,0.7922541,0.6059427,-18.09406,-55.01547,-29.84001,1008.413
28.361257553,1.012447,-0.1645897,-0.07966346,-0.0191017,0.8025939,0.6150592,-18.47166,-54.28572,-29.851,1008.413
28.396555424,-0.4784513,0.3672445,-0.2629305,-0.02683957,0.7883685,0.609804,-18.0873,-55.37991,-29.83428,1008.411
28.429331779,0.6397226,0.1308737,-0.2629305,-0.02587337,0.7908251,0.6117234,-18.47166,-54.28572,-29.851,1008.416
28.462108135,-1.223901,0.4263372,-0.01857444,-0.03025807,0.7981376,0.6179805,-18.47166,-54.28572,-29.851,1008.416
28.494885445,-0.6648136,0.01268838,0.2257816,-0.0326697,0.791299,0.6179966,-18.47166,-54.28572,-29.851,1008.414
28.527661800,1.136689,-0.7555165,-0.01857444,-0.0292513,0.7820337,0.6122261,-18.10155,-54.65698,-30.28085,1008.414
28.562959194,1.136689,-0.2236823,0.04251458,-0.02151041,0.7937804,0.6112273,-18.10155,-54.65698,-30.28085,1008.414
28.595736027,0.5154811,-0.2236823,0.04251458,-0.02784984,0.8049227,0.6102628,-18.1001,-54.64509,-29.41063,1008.414
28.628512382,-0.292089,0.1308737,0.3479597,-0.03024528,0.7912657,0.6102891,-18.10082,-54.65104,-29.84574,1008.414
28.661288738,-0.4784513,0.6036152,0.2868707,-0.02148444,0.7825688,0.6098,-18.10082,-54.65104,-29.84574,1008.414
28.696586609,-0.1678475,0.3672445,0.1036036,-0.02879664,0.7956979,0.6155739,-18.1001,-54.64509,-29.41063,1008.414
28.729362965,-0.292089,0.1899664,0.2868707,-0.03074884,0.7985569,0.6088352,-18.45814,-55.0146,-29.83954,1008.416
28.762139320,-0.9132968,0.01268838,0.2257816,-0.02925846,0.7849524,0.6117403,-18.45814,-55.0146,-29.83954,1008.416
28.794916153,0.5154811,-0.2236823,-0.2018415,-0.02828549,0.7854945,0.6184762,-18.09937,-54.63915,-28.97552,1008.417
28.827692985,-0.0436059,-0.3418677,0.2257816,-0.02882222,0.8059053,0.6126704,-18.45741,-55.00866,-29.40443,1008.417
28.862990379,-2.590558,0.3672445,0.6534048,-0.0234244,0.7815785,0.6098061,-18.45741,-55.00866,-29.40443,1008.417
28.895766735,0.9503266,0.1899664,-0.01857444,-0.02586566,0.7884201,0.6160594,-17.72998,-55.01635,-29.84048,1008.423
28.928543568,-0.1678475,0.07178105,0.04251458,-0.03222987,0.8112979,0.6218162,-18.46417,-54.64422,-29.41016,1008.423
28.961319923,-2.217833,0.4263372,0.4090487,-0.03363417,0.7863436,0.606935,-18.46417,-54.64422,-29.41016,1008.423
28.996617317,0.1427564,-0.5191457,-0.07966346,-0.02827554,0.7800937,0.6122267,-18.10758,-54.2866,-29.85147,1008.423
29.029394150,0.5154811,-0.2236823,-0.2629305,-0.02492696,0.8010541,0.6107431,-18.09406,-55.01547,-29.84001,1008.419
29.062170506,-0.602693,-0.4009604,0.2868707,-0.03216385,0.7820227,0.6141585,-18.09406,-55.01547,-29.84001,1008.419
29.094947338,1.385172,-0.6373311,-0.2629305,-0.0278045,0.785932,0.6107727,-18.45814,-55.0146,-29.83954,1008.423
29.127723694,0.7018434,-0.3418677,-0.5072865,-0.02591709,0.8103464,0.6174704,-18.83501,-54.27891,-29.41542,1008.425
29.163021565,-0.851176,-0.1645897,0.04251458,-0.02878172,0.7888594,0.6126961,-18.83501,-54.27891,-29.41542,1008.425
29.195797920,1.136689,-0.3418677,0.1036036,-0.0248973,0.7883847,0.6097994,-18.46563,-54.65611,-30.28038,1008.425
29.228574276,0.3291188,0.3672445,0.2257816,-0.02637109,0.7977031,0.6208602,-18.47166,-54.28572,-29.851,1008.425
29.261351109,-0.9754176,0.5445225,0.6534048,-0.02733778,0.793218,0.6073911,-18.47166,-54.28572,-29.851,1008.427
29.294127464,-0.2299682,0.3081518,0.5312267,-0.02489255,0.7869437,0.6126897,-18.4649,-54.65016,-29.84527,1008.425
29.329424858,0.1427564,0.3672445,0.4701377,-0.02638147,0.7995608,0.6078606,-18.83574,-54.28485,-29.85053,1008.427
29.362201691,-0.3542098,0.6036152,0.7144938,-0.02393091,0.7898338,0.6069067,-18.83574,-54.28485,-29.85053,1008.427
29.394978046,-0.3542098,1.017264,0.2868707,-0.02685669,0.7966881,0.6155678,-18.47166,-54.28572,-29.851,1008.427
29.427754879,-1.410263,0.9581714,0.4701377,-0.02442409,0.7952675,0.6184523,-18.47166,-54.28572,-29.851,1008.427
29.463052750,-0.4163305,0.7808933,0.7144938,-0.0321687,0.7839675,0.6136742,-18.83574,-54.28485,-29.85053,1008.427
29.495829105,0.8882058,0.3672445,0.2257816,-0.03996306,0.7936097,0.6088645,-18.83574,-54.28485,-29.85053,1008.427
29.528605461,0.01851488,-0.5191457,-0.2629305,-0.03802422,0.7960979,0.6141511,-18.10082,-54.65104,-29.84574,1008.427
29.561381817,-0.292089,-0.8737018,-0.1407525,-0.03314206,0.7844296,0.6112689,-18.8297,-54.65523,-30.27991,1008.429
29.594158173,0.5776018,-1.287351,-0.01857444,-0.02002905,0.7850863,0.6199014,-18.8297,-54.65523,-30.27991,1008.429
29.629456043,0.7639642,-0.7555165,0.04251458,-0.02588491,0.7967063,0.6170096,-18.47166,-54.28572,-29.851,1008.429
29.662232399,0.3291188,-0.282775,0.4701377,-0.02395196,0.798597,0.6064122,-18.83043,-54.66117,-30.71502,1008.427
29.695009231,-1.410263,0.4263372,0.2257816,-0.02684728,0.7907735,0.6054681,-18.83043,-54.66117,-30.71502,1008.427
29.727786064,-0.292089,0.3672445,-0.2018415,-0.02489569,0.7889153,0.6160563,-18.82898,-54.64929,-29.8448,1008.426
29.763083935,1.012447,-0.3418677,0.2257816,-0.02685857,0.7976689,0.6165291,-18.47239,-54.29167,-30.28611,1008.426
29.795860290,0.01851488,-0.5782384,0.2257816,-0.03072914,0.7912884,0.614141,-18.47239,-54.29167,-30.28611,1008.426
29.828636646,0.2048772,-0.8737018,-0.01857444,-0.02149546,0.7879529,0.6136429,-18.82294,-55.01967,-30.27418,1008.424
29.861413002,1.385172,-0.8737018,-0.3851085,-0.02878964,0.7912611,0.6078788,-18.82294,-55.01967,-30.27418,1008.424
29.894189358,0.7018434,-0.6373311,-0.5683756,-0.03269455,0.8010127,0.614131,-18.82294,-55.01967,-30.27418,1008.424
29.929487228,-0.6648136,-0.3418677,-0.3851085,-0.01907234,0.7904249,0.6160402,-18.82898,-54.64929,-29.8448,1008.424
29.962263584,1.323051,-0.5191457,-0.2629305,-0.02197866,0.7854601,0.605946,-18.83501,-54.27891,-29.41542,1008.424
29.995039940,1.074568,-0.105497,-0.3851085,-0.02640653,0.8092712,0.6035138,-18.83501,-54.27891,-29.41542,1008.424
30.027817249,-0.602693,0.1899664,-0.07966346,-0.0244434,0.8015318,0.6088157,-18.8425,-53.92041,-29.85626,1008.424
30.063115120,0.1427564,-0.2236823,-0.1407525,-0.02683893,0.7883785,0.611248,-18.47021,-54.27384,-28.98078,1008.424
30.095891476,1.012447,-0.2236823,-0.1407525,-0.0307366,0.7947076,0.61558,-18.47021,-54.27384,-28.98078,1008.424
30.128667831,0.7639642,-0.5191457,-0.1407525,-0.03219315,0.792677,0.6054779,-18.83646,-54.29079,-30.28564,1008.424
30.161444187,0.3912396,-0.8146091,-0.9959988,-0.03411517,0.7859061,0.6146386,-18.83574,-54.28485,-29.85053,1008.422
30.194220543,1.571534,-1.760092,-1.118177,-0.0287816,0.7893665,0.6155834,-18.83574,-54.28485,-29.85053,1008.422
30.229518414,1.882138,-2.587389,-0.6905536,-0.03221867,0.8049063,0.6131614,-18.83574,-54.28485,-29.85053,1008.422
30.262294769,-4.019336,-8.851214,1.142117,-0.08612617,0.8285571,0.7172278,-18.09406,-55.01547,-29.84001,1008.422
30.295071125,108.7299,-4.182892,5.479437,-0.02742217,0.4287417,0.6531885,-18.09406,-55.01547,-29.84001,1008.423
30.327848435,366.0341,-52.99345,32.48078,-0.1675556,0.9165155,0.4366544,-18.81473,-55.37222,-29.39823,1008.423
30.363145828,329.6313,-71.25309,83.97882,0.2923695,2.134017,0.5694726,-18.39077,-57.40178,-17.80278,1008.423
30.395922661,91.64666,-57.95723,128.3295,0.2689755,1.745565,0.4873193,-23.74626,-64.49263,0.2838008,1008.423
30.428699016,109.1026,-69.36212,154.9032,0.3412955,1.045125,-0.03070453,-23.74626,-64.49263,0.2838008,1008.423
30.461475372,75.06042,-43.06588,171.8248,0.485932,1.231217,-0.2686394,-26.63442,-66.38425,-5.278084,1008.419
30.494251728,14.86538,-5.542024,169.0147,0.4698009,0.8359358,-0.431187,-31.20286,-59.46416,-10.91433,1008.421
30.529549599,40.89399,25.42254,155.6973,0.4049816,0.7245868,-0.4669676,-31.20286,-59.46416,-10.91433,1008.419
30.562325954,21.82291,56.74166,135.8434,0.3624668,0.6351581,-0.4590302,-34.69671,-48.15067,-14.94253,1008.414
30.595102787,29.21528,82.21061,110.7358,0.3746119,0.4216966,-0.4933953,-35.95525,-39.3646,-16.82004,1008.414
30.627879620,47.10606,106.2022,83.36794,0.3669543,0.3758948,-0.4870504,-35.95525,-39.3646,-16.82004,1008.412
30.663177013,86.11791,140.8896,47.20324,0.3915178,0.2229532,-0.6582429,-35.7007,-33.54552,-17.72025,1008.408
30.695953369,143.8902,199.5687,-4.172627,0.3556356,0.1895873,-0.7206845,-34.67223,-30.29198,-19.51368,1008.407
30.728730202,122.9555,270.9526,-73.81411,0.205307,0.3651768,-0.4332197,-34.67223,-30.29198,-19.51368,1008.407
30.761506557,520.7148,78.42868,127.1077,-2.460991,5.428066,1.455781,-30.97223,-30.31274,-20.38868,1008.407
30.794282913,-609.5727,115.8343,42.07176,1.603317,-1.901745,-1.517146,-23.63826,-32.83965,-17.31219,1008.407
30.829580784,145.816,66.1374,-44.00267,0.007191896,0.02810412,-0.06063049,-23.63826,-32.83965,-17.31219,1008.407
30.862357140,129.4782,3.735527,-45.52989,1.047979,1.275616,0.4678881,-25.90467,-29.30722,-25.94458,1008.406
30.895133972,-13.15109,22.17244,-40.4595,0.7391022,0.8120207,0.07845373,-24.03124,-31.81594,-22.48809,1008.406
30.927910328,-27.74947,3.676435,-21.583,0.6331243,1.108223,0.287651,-24.03124,-31.81594,-22.48809,1008.406
30.963208199,-93.47325,4.267361,-23.96547,0.4265509,0.5961608,0.3697815,-21.80476,-33.99591,-21.58631,1008.404
30.995984554,-65.82951,-15.29232,-29.09695,0.3322471,0.6245645,0.2953513,-21.07482,-34.40285,-24.56514,1008.406
31.028760910,-119.1913,-15.11504,-49.01197,0.1547423,0.9789677,0.4853761,-21.07482,-34.40285,-24.56514,1008.404
31.061537743,-264.9887,-12.51496,-66.91105,0.0580143,1.053381,0.6568581,-20.32198,-32.60038,-25.90014,1008.404
31.094314098,-335.5579,-23.09255,-81.81676,0.04318903,0.7633489,0.7097989,-19.64363,-30.49108,-31.4676,1008.41
31.129611492,-302.0748,-13.40135,-112.4224,0.04511034,0.3377457,0.5775799,-19.64363,-30.49108,-31.4676,1008.41
31.162388325,-214.5466,-1.641907,-140.6455,-0.02622556,0.5191415,0.5543703,-19.02278,-25.42422,-38.44934,1008.404
31.195165157,-176.7151,9.467518,-169.1741,-0.01383894,0.4705874,0.8413057,-19.18793,-17.05106,-43.6791,1008.408
31.227941513,-40.29787,12.42215,-198.9855,0.04102514,0.2568046,0.7794022,-19.18793,-17.05106,-43.6791,1008.408
31.263239384,49.15605,3.440064,-220.8554,-0.1869679,0.5316414,0.5840958,-18.56232,-12.01522,-48.48433,1008.406
31.296015740,58.34993,9.52661,-213.036,-0.1645784,1.363544,0.7724454,-16.74899,-12.07732,-52.71348,1008.406
31.328792095,-16.44349,50.0051,-190.5552,0.03768894,1.454822,0.7684585,-16.74899,-12.07732,-52.71348,1008.404
31.361568451,-23.15253,87.70623,-174.6721,0.1239659,0.8333751,0.3869894,-12.61921,-19.52981,-59.44056,1008.406
31.394345283,93.63453,105.0204,-151.7026,0.115458,1.146045,0.3956842,-4.19129,-19.60352,-63.36745,1008.406
31.429642677,161.5947,125.7028,-104.5419,0.553463,1.192494,0.6655819,5.233582,-14.09311,-63.03154,1008.406
31.462419987,199.4262,65.42828,-86.093,0.5629411,1.820827,1.291827,5.233582,-14.09311,-63.03154,1008.406
31.495196342,-40.29787,78.66505,-49.9283,0.4345882,1.161077,0.7029761,13.70828,-15.88287,-59.15993,1008.404
31.527972698,-59.49319,108.9796,-44.24702,-0.01881098,0.2591059,0.5518565,19.29653,-22.48175,-56.51437,1008.404
31.563270569,29.52588,101.7112,-49.3785,-0.6833351,0.6464081,0.9456401,19.29653,-22.48175,-56.51437,1008.404
31.596046924,-1.907229,122.3936,-69.35461,-1.026018,0.2262945,0.125883,24.77926,-20.29647,-55.68566,1008.406
31.628823280,72.76195,120.089,-98.55516,-0.6488643,0.7678281,0.5049293,30.97428,-20.26461,-52.27491,1008.406
31.661599636,26.2956,123.0437,-112.5445,-0.343469,0.977549,0.460085,30.97428,-20.26461,-52.27491,1008.406
31.694375992,-20.29498,128.1847,-123.174,-0.7652773,0.6808877,0.3291581,36.85602,-19.47342,-46.69967,1008.41
31.729673862,-26.32069,127.0029,-147.3042,-0.8842279,0.4250268,0.09829087,43.36136,-16.4543,-42.46597,1008.41
31.762451172,76.11647,101.4157,-123.7849,-1.002394,0.07535157,0.03315161,43.36136,-16.4543,-42.46597,1008.41
31.795227528,27.28954,69.68296,-73.81411,-0.7667739,1.154543,0.5773118,49.49744,-9.84573,-37.91526,1008.412
31.828003883,29.77437,57.2735,-68.43827,-0.8520293,0.1523778,0.07311326,53.07736,-6.084814,-33.25415,1008.412
31.860780239,31.0789,37.65473,-53.2882,-0.9879703,0.3581084,0.1251127,53.07736,-6.084814,-33.25415,1008.408
31.896078110,-39.98726,36.41378,-60.00799,-0.9109057,0.1888597,-0.002857232,55.26591,-2.775447,-30.76011,1008.41
31.928854465,6.04423,27.78625,-53.2882,-0.9832611,0.4422373,0.2409829,57.06892,-1.662724,-29.0392,1008.409
31.961630821,8.466941,24.77252,-48.33998,-1.000594,0.3317502,-0.008154846,57.06892,-1.662724,-29.0392,1008.409
31.994407177,-22.71769,22.46791,-60.00799,-0.9146602,0.1590419,0.1262015,57.75858,0.5391345,-27.83134,1008.409
32.029705524,-6.876891,25.36345,-51.51662,-1.037215,0.4494945,0.1587871,58.44908,2.747788,-26.12621,1008.41
32.062481880,-18.18287,25.36345,-66.78887,-0.9953325,0.1699323,0.03828729,58.44908,2.747788,-26.12621,1008.41
32.095258713,-7.063253,33.10459,-67.27758,-0.9938094,0.3396797,0.003369792,58.76002,5.740133,-24.9303,1008.41
32.128035069,-37.19183,48.05504,-70.33203,-1.037295,0.05174287,0.04193448,59.43771,8.683601,-22.80153,1008.41
32.160811424,-23.6495,56.26892,-81.69459,-1.028495,0.2153887,-0.03872044,59.43771,8.683601,-22.80153,1008.41
32.196109295,-30.66915,78.07412,-90.73576,-1.041133,0.05194328,0.1454361,60.11676,11.63811,-19.86468,1008.41
32.228885651,0.9503266,91.01542,-106.68,-1.125319,0.06251537,-0.1942216,60.77585,15.75856,-16.07576,1008.41
32.294438839,30.51982,81.85606,-160.0718,-1.492557,-0.4636191,-0.05151859,60.70323,20.20143,-11.0475,1008.409
32.329736710,-29.05401,85.28342,-93.54586,-1.403448,-0.1912698,-0.215322,59.52841,25.05511,-7.267687,1008.407
32.362513065,-59.12046,53.2552,9.633491,-1.264902,-0.2396562,-0.1260445,59.52841,25.05511,-7.267687,1008.407
32.395289421,12.8154,19.57237,46.8367,-0.9109287,-0.4226621,-0.04381398,55.08478,29.49147,-3.476962,1008.407
32.428066254,27.04105,-3.946521,44.57641,-0.9504684,0.132396,0.2596639,52.12719,28.78756,-2.156329,1008.405
32.460842609,35.92432,-35.6202,37.61226,-1.172721,-0.1370319,0.2331595,52.12719,28.78756,-2.156329,1008.404
32.496140003,55.67873,-77.45782,42.56047,-1.040984,-0.3457456,0.527755,50.75023,24.33329,-3.825181,1008.402
32.528916836,58.66053,-99.73576,25.82208,-1.114102,-0.4391602,0.4895602,48.24268,21.73654,-7.57347,1008.402
32.561693668,28.15923,-112.8543,28.38782,-1.043662,0.06194944,-0.02353099,45.73286,19.12112,-12.68925,1008.4
32.594470024,-9.610206,-91.10823,35.53523,-1.349873,-0.3423571,-0.6450774,45.73286,19.12112,-12.68925,1008.398
32.629767895,36.23493,-79.9988,67.91241,-1.008711,-0.06623131,-0.7088798,42.05129,17.61365,-16.95051,1008.399
32.662544250,-13.71018,-49.09333,52.02927,-0.8957803,-0.5806723,-0.6525344,40.23486,17.23065,-18.62072,1008.398
32.695320606,125.5646,-38.10209,51.41838,-0.8547628,-0.2110467,-0.3571513,40.23486,17.23065,-18.62072,1008.398
32.728096962,62.32566,-16.29689,36.20721,-0.8309074,-0.01187103,-0.2492016,38.45213,15.02462,-20.32444,1008.398
32.760873794,135.3176,-14.52411,14.39843,-0.8518011,-0.4284661,-0.3192844,38.14119,12.03227,-21.52035,1008.396
32.796172142,130.2858,-7.314804,-0.3240195,-0.7436268,0.06474753,-0.1219633,38.14119,12.03227,-21.52035,1008.394
32.828948498,113.4511,7.872015,-12.78618,-0.8138586,-0.2073604,-0.08624719,38.55646,9.092127,-23.21543,1008.392
32.861724853,188.3687,6.453791,-16.14607,-0.8931177,-0.1521816,-0.04041299,38.22546,7.26487,-23.62142,1008.392
32.894501209,217.1306,7.221995,-18.28419,-0.9246542,0.05958819,0.0541709,38.22546,7.26487,-23.62142,1008.392
32.929799080,187.1263,7.576551,-22.37715,-0.9894738,0.1805853,0.1624487,37.90194,5.079121,-23.58657,1008.389
32.962575436,152.4008,0.8990787,-21.39973,-0.9543339,0.3200485,0.2146235,37.97068,1.374012,-23.52831,1008.389
32.995351791,73.07255,6.040142,-23.53785,-0.8525944,0.4350026,0.3042237,37.97068,1.374012,-23.52831,1008.389
33.028128147,-11.22535,12.24487,-18.28419,-0.9694366,0.3600551,0.3127969,38.38282,-1.171977,-23.05356,1008.387
33.060905457,-40.04939,13.13126,-14.98538,-0.792253,0.1592412,0.217851,38.39707,-1.894907,-22.60699,1008.387
33.096203327,-47.62812,17.79959,-12.78618,-0.7971711,0.1860073,0.2207105,38.39707,-1.894907,-22.60699,1008.385
33.128979683,-52.03869,18.86325,-10.64806,-0.819743,0.2866923,0.2287955,38.37679,-0.8015957,-22.62418,1008.384
33.161756039,-61.85378,11.06302,3.280232,-0.7500948,0.4057437,0.2457798,37.99387,0.3044753,-21.77068,1008.382
33.194532394,-61.23257,6.335605,20.99605,-0.6352729,0.2996392,0.187904,37.99387,0.3044753,-21.77068,1008.38
33.229830265,-54.89625,0.7808933,36.57375,-0.7907107,0.3116079,0.1348235,38.68885,2.130011,-21.42731,1008.38
33.262606621,-54.77201,-8.733028,50.7464,-0.8314717,0.2914785,0.09066524,38.2967,3.650219,-21.38856,1008.384
33.295382977,-32.78125,-14.81958,76.3427,-0.6984903,0.3173465,0.07875815,38.2967,3.650219,-21.38856,1008.381
33.328160286,-28.61916,-18.36514,102.0001,-0.7290986,0.3572319,0.24821,37.95321,2.490249,-21.86722,1008.379
33.360936642,-3.770853,-42.1204,135.7823,-0.8481854,0.4007913,0.2118433,37.23795,1.758026,-22.22777,1008.375
33.396234035,111.4011,-60.73458,188.2578,-0.56265,0.3984573,0.2333122,36.91902,-0.8099928,-23.49253,1008.375
33.429010868,131.963,-78.52148,243.971,-0.3381723,1.635542,0.593862,36.91902,-0.8099928,-23.49253,1008.375
33.461787224,67.29532,-99.26302,275.8594,0.8069007,1.816938,0.6491174,35.20401,-6.659548,-25.07678,1008.373
33.494563579,75.43314,-139.6824,325.9524,2.085941,1.471334,-0.02008135,30.5783,-15.83755,-26.23173,1008.373
33.529861450,-58.99622,-77.04417,319.1105,1.217197,1.485825,-0.04355484,30.5783,-15.83755,-26.23173,1008.377
33.562637806,-172.3667,-53.64347,247.7585,0.8362091,0.848595,0.2485704,23.09255,-24.65533,-28.19678,1008.379
33.595414638,-331.2716,-18.83788,80.61893,-0.0499825,0.192687,0.002796812,15.06233,-27.24563,-32.43521,1008.379
33.628190994,-391.2803,81.5015,-267.955,-2.005069,-0.5448271,0.09278383,15.06233,-27.24563,-32.43521,1008.375
33.660967350,-203.2407,1.312727,-185.9124,-3.985843,-0.3085595,-1.020596,12.05716,-22.95881,-39.33768,1008.383
33.696265221,-763.6322,317.754,97.05187,-3.618247,1.471359,1.868833,20.89137,-8.73062,-41.3143,1008.384
33.729041576,-616.4681,-539.9762,320.6377,-4.083819,-1.54346,3.404731,20.89137,-8.73062,-41.3143,1008.392
33.761817932,1226.718,-475.8607,535.4266,-0.3441755,2.797116,4.101252,29.11801,2.631226,-39.76332,1008.392
33.794594765,-214.9194,-41.82493,225.3388,1.957311,0.8729122,-0.8944713,28.30116,7.014308,-43.68595,1008.401
33.829892158,55.55449,-56.06627,218.8023,0.9495065,1.731978,1.988056,28.30116,7.014308,-43.68595,1008.406
33.862669468,244.588,-256.5086,194.1223,-0.3110393,0.01952509,-0.4916443,12.79022,-23.75991,-44.48635,1008.413
33.895445824,-171.8697,36.88652,2.058452,0.07961985,0.9896407,0.849929,8.010781,-24.47135,-44.03359,1008.419
33.928222179,-76.51428,74.174,-93.24041,0.08953803,1.107606,0.8526158,8.010781,-24.47135,-44.03359,1008.419
33.960998535,118.7313,5.921957,-78.45687,-0.6579621,1.613773,0.9296811,2.673904,-31.06698,-43.05222,1008.42
33.996296406,-12.46776,35.88195,-77.35727,-0.2593845,0.7557669,0.5434954,6.616777,-27.7359,-43.10991,1008.425
34.029072762,70.40136,15.90862,-71.92035,-0.1782963,0.9372346,0.4173942,6.616777,-27.7359,-43.10991,1008.426
34.061849117,15.67295,22.99974,-57.56443,-0.1124292,0.7810726,0.2937633,9.538336,-28.08949,-41.80261,1008.428
34.094626427,0.1427564,11.00393,-36.73307,-0.2438403,0.518086,0.3840047,12.52505,-28.82634,-41.85714,1008.431
34.129924297,25.30167,-5.482931,-10.03717,-0.247548,0.8385134,0.3118077,12.52505,-28.82634,-41.85714,1008.431
34.162700653,4.677573,-13.10589,0.1646926,-0.3730243,0.9313287,0.3625083,13.60522,-28.08819,-40.99979,1008.435
34.195477009,-1.286021,-9.737604,14.27626,-0.2830296,0.8957624,0.5327505,14.7117,-28.81374,-40.55463,1008.437
34.228253365,30.20921,-24.62896,28.93762,-0.2537468,0.8417598,0.576085,14.7117,-28.81374,-40.55463,1008.438
34.261029720,53.1939,-23.74257,32.17534,-0.1999751,0.8765992,0.4786699,13.97678,-28.44756,-40.55942,1008.439
34.296327591,34.80615,-27.76087,38.77295,-0.1349595,0.8839285,0.4038936,12.53545,-29.16106,-39.67585,1008.439
34.329103947,22.94108,-18.06967,38.71186,-0.1047031,0.8264344,0.4342342,12.53545,-29.16106,-39.67585,1008.443
34.361880303,19.15171,-13.22407,24.29486,-0.03141802,0.8466946,0.458098,10.70211,-31.77429,-40.06747,1008.446
34.394657612,11.88358,-8.496658,8.961511,-0.01593625,0.8631153,0.4195276,8.897427,-32.48097,-38.74833,1008.45
34.427433967,-4.640543,0.1308737,5.540526,-0.04603672,0.8508139,0.3676305,8.897427,-32.48097,-38.74833,1008.453
34.462731838,-9.237481,0.5445225,2.486075,-0.03764503,0.7989786,0.3975331,8.183417,-33.203,-38.36298,1008.453
34.495508194,-10.7905,1.726376,-4.539162,-0.07199104,0.9633519,0.473422,8.190906,-33.5615,-37.92213,1008.455
34.528284550,-2.652679,0.2490591,-5.577675,-0.06304504,0.8706688,0.4417706,7.447879,-32.84192,-38.74072,1008.457
34.561060905,-6.939012,1.37182,-6.982722,-0.08443401,0.8837541,0.4581679,7.447879,-32.84192,-38.74072,1008.459
34.596358776,1.447293,0.1899664,-5.638764,-0.09606971,0.8743397,0.4490638,7.447879,-32.84192,-38.74072,1008.459
34.629135132,8.653303,1.490005,-5.516586,-0.1020808,0.9497032,0.4378932,7.43363,-32.11898,-39.18729,1008.46
34.661911964,3.745761,0.839986,-1.851245,-0.1175174,0.905701,0.4322197,7.43363,-32.11898,-39.18729,1008.46
34.694688797,7.845733,-0.9327945,1.875185,-0.1062054,0.8443987,0.4279531,8.169168,-32.48007,-38.80955,1008.462
34.727465153,8.218457,-2.351019,4.990725,-0.09369154,0.8877255,0.4100477,8.540837,-32.83859,-38.30702,1008.462
34.762762546,8.901786,-1.819185,4.379835,-0.07233414,0.8908159,0.4085483,8.540837,-32.83859,-38.30702,1008.462
34.795539379,4.801815,1.253635,-0.01857444,-0.08075421,0.9624136,0.4190503,7.826828,-33.56062,-37.92167,1008.462
34.828315735,-0.3542098,0.07178105,0.8977608,-0.09139323,0.9443145,0.4205469,7.826828,-33.56062,-37.92167,1008.462
34.861092091,-0.2299682,-0.7555165,1.325384,-0.09183951,0.9292662,0.4282724,7.826828,-33.56062,-37.92167,1008.462
34.896389961,3.745761,-4.892004,4.929636,-0.08981884,0.8941395,0.4172492,8.554256,-33.56831,-38.35772,1008.462
34.929166794,7.162405,-4.832911,6.151416,-0.0718416,0.8889087,0.413845,8.176761,-32.83772,-38.30655,1008.462
34.961943150,6.913921,-2.941946,3.341321,-0.06319791,0.9238399,0.3839274,8.176761,-32.83772,-38.30655,1008.462
34.994719505,1.19881,-3.119224,2.058452,-0.05193865,0.8889911,0.4017636,7.826828,-33.56062,-37.92167,1008.462
35.027496338,-5.945079,-3.651058,0.1036036,-0.07622191,0.8967952,0.4326166,7.476274,-34.28862,-37.90974,1008.462
35.062793732,0.7639642,-4.951097,-0.7516426,-0.06952213,0.9301689,0.3911533,7.476274,-34.28862,-37.90974,1008.462
35.095570087,-4.764785,-3.651058,-0.8738207,-0.06747605,0.8893786,0.4061321,7.104708,-33.92926,-38.35011,1008.464
35.128346920,-0.5405721,-2.941946,0.7755828,-0.06698338,0.8879784,0.4143162,7.462751,-33.55975,-37.9212,1008.464
35.161123276,0.2048772,-3.178316,2.669342,-0.07382278,0.9089946,0.4330739,7.462751,-33.55975,-37.9212,1008.464
35.196421623,3.310916,-4.123799,3.952212,-0.06609157,0.9210943,0.4128201,7.098673,-33.55888,-37.92073,1008.464
35.229197979,6.479076,-4.241985,4.807458,-0.07435102,0.9214556,0.404656,6.740735,-33.92754,-38.28748,1008.464
35.261974335,9.088148,-5.069283,6.701218,-0.05537697,0.9055216,0.4017468,6.740735,-33.92754,-38.28748,1008.464
35.294750691,10.1442,-5.128375,5.112903,-0.03984863,0.9080228,0.3925604,7.0994,-33.55294,-37.48561,1008.466
35.327527046,6.541196,-2.351019,2.79152,-0.0394247,0.9308032,0.3761587,6.735323,-33.55206,-37.48515,1008.466
35.362824917,-10.35565,-1.641907,-1.729067,-0.05899424,0.9930006,0.3789996,6.735323,-33.55206,-37.48515,1008.467
35.395601272,-30.17218,-0.1645897,-4.478073,-0.04126043,0.8890133,0.392111,6.371245,-33.55119,-37.48467,1008.466
35.428377628,-30.73127,-3.532872,-6.249654,-0.05040279,0.8639758,0.4446388,6.025999,-34.65552,-38.33724,1008.467
35.461154938,-13.39957,-5.305653,-4.844606,-0.06809118,0.9520053,0.4479177,6.025999,-34.65552,-38.33724,1008.466
35.496452808,-48.87053,-13.40135,-2.76758,-0.09046176,0.8007717,0.6489265,6.726486,-33.20461,-38.73405,1008.467
35.529229164,5.609385,-18.12877,-8.082324,-0.1218122,0.8714824,0.4192848,5.983355,-32.48587,-39.6148,1008.467
35.562005520,-53.71595,-23.62438,-12.29747,-0.1730308,1.048749,0.8287779,5.95413,-31.04596,-40.94305,1008.467
35.594781876,-51.04476,-20.3152,-20.60557,-0.2557609,0.8855779,0.6463026,5.95413,-31.04596,-40.94305,1008.467
35.627558231,-85.39755,-11.98313,-25.85923,-0.1266165,1.121773,0.7683876,5.925735,-29.59925,-41.77403,1008.467
35.662856102,-129.1306,2.730952,-23.59893,-0.243082,0.8643042,0.6535251,5.150799,-27.39175,-44.85421,1008.463
35.695632458,-143.4184,-4.005614,-41.5591,-0.1500696,0.5637001,0.7375144,5.150799,-27.39175,-44.85421,1008.463
35.728409767,-48.06297,-0.8737018,-63.61224,-0.3237207,0.7004606,0.792114,5.430212,-23.04825,-47.03684,1008.461
35.761186123,-75.0855,6.099235,-84.07706,-0.3431318,0.7115958,0.8759002,6.416992,-17.54735,-48.8656,1008.463
35.796483517,-123.5397,18.09505,-119.8141,-0.4112735,0.5579758,0.7886855,6.416992,-17.54735,-48.8656,1008.463
35.829260349,-88.62783,57.45078,-160.194,-0.6520932,0.7194471,0.6253504,7.447646,-14.27598,-49.35369,1008.461
35.862036705,-77.19761,78.13322,-226.4756,-0.7619566,0.1852288,0.7669738,8.773014,-7.305465,-50.27346,1008.461
35.894813061,74.62557,88.59262,-238.9377,-0.7186219,0.2930032,0.5245836,8.773014,-7.305465,-50.27346,1008.461
35.927589416,143.6417,67.43744,-261.9683,-1.026737,0.6444187,0.722143,12.72568,-1.102797,-49.13294,1008.46
35.962887287,82.26643,82.91972,-293.6735,-0.7953644,0.09249407,0.4985929,14.87924,0.737927,-47.42397,1008.46
36.028440475,98.79055,154.4219,-292.024,-1.437678,1.46596,0.4316184,18.1445,1.47593,-46.19648,1008.458
36.061217308,-113.6004,103.4249,-82.7331,0.1240654,1.169798,0.2290768,19.22611,2.225961,-44.4689,1008.458
36.096514702,-188.6423,104.6658,4.868547,0.3680106,1.443539,0.9900813,19.22611,2.225961,-44.4689,1008.458
36.129291058,-242.0662,54.73251,55.7557,-0.2463541,-1.181876,0.9204029,20.99346,5.215665,-43.21271,1008.456
36.162067890,103.139,11.77213,64.6136,-0.9117752,-1.030861,0.2541049,23.87313,10.73878,-38.64059,1008.456
36.194844246,147.369,37.77291,55.87788,-1.254724,1.288051,0.3318107,23.87313,10.73878,-38.64059,1008.453
36.227620602,-79.18547,44.56857,44.02661,-1.514619,0.1860203,0.7350625,26.70276,15.15984,-39.14917,1008.453
36.262918949,55.92722,10.88574,35.41306,-0.9023172,-0.08263314,0.3768447,28.25485,9.993488,-39.06988,1008.454
