Time (s),Gyroscope X (deg/s),Gyroscope Y (deg/s),Gyroscope Z (deg/s),Accelerometer X (g),Accelerometer Y (g),Accelerometer Z (g),Magnetometer X (uT),Magnetometer Y (uT),Magnetometer Z (uT),Barometer (hPa)
0.023146153,-0.2174484,-0.2902835,0.0975423,0.03985636,-0.1872139,-0.9794203,2.558241,0.4435945,33.51615,1007.79
0.055705547,-0.03286609,-0.2308026,-0.0860559,0.03498052,-0.1877414,-0.9842574,2.190139,0.4383645,33.07127,1007.79
0.090770245,-0.09439354,0.3640068,0.0363429,0.03935657,-0.1867212,-0.9823126,2.190139,0.4383645,33.07127,1007.786
0.123329163,0.3978261,-0.1118407,0.2199411,0.04031797,-0.1857345,-0.9827818,2.558241,0.4435945,33.51615,1007.784
0.155889034,0.09018882,-0.3497644,0.0363429,0.04227665,-0.1871558,-0.9852223,2.55661,0.4410119,33.07008,1007.784
0.190953732,-0.4635583,-0.6471692,-0.0248565,0.03497128,-0.1872488,-0.9857001,2.55661,0.4410119,33.07008,1007.788
0.223509312,-0.03286609,-0.2308026,-0.0248565,0.03838027,-0.1867295,-0.9832785,2.195821,0.07455397,33.07388,1007.788
0.256069183,0.520881,-0.05235976,-0.0248565,0.03641279,-0.1857677,-0.9866455,2.558241,0.4435945,33.51615,1007.789
0.288629055,0.3362986,-0.05235976,-0.0860559,0.03602327,-0.1935618,-0.9838638,2.558241,0.4435945,33.51615,1007.791
0.323693752,0.09018882,0.06660213,-0.0248565,0.03932281,-0.1852327,-0.9890571,2.563922,0.07978344,33.51876,1007.793
0.356252670,0.520881,0.007121183,0.0975423,0.03454433,-0.1921209,-0.9843238,2.924712,0.4462409,33.51496,1007.793
0.388812542,0.2747712,-0.05235976,0.0363429,0.03841086,-0.1891634,-0.9823489,2.924712,0.4462409,33.51496,1007.793
0.423872948,0.02866136,-0.05235976,0.0363429,0.03602042,-0.1926053,-0.9804656,1.822038,0.4331346,32.62638,1007.793
0.456432819,-0.3405034,-0.2308026,0.0975423,0.03690049,-0.1848115,-0.9817977,1.826931,0.4408841,33.9646,1007.795
0.488992691,-0.4020308,-0.4092454,-0.0248565,0.03788934,-0.1872042,-0.9871523,1.826931,0.4408841,33.9646,1007.79
0.524056911,0.02866136,-0.3497644,0.0363429,0.03014732,-0.1907247,-0.9833315,2.563922,0.07978344,33.51876,1007.79
0.556616783,0.2747712,0.185564,0.1587417,0.03787927,-0.1862345,-0.986654,2.559872,0.446178,33.96222,1007.79
0.589176178,0.5824084,-0.1118407,-0.0248565,0.03598178,-0.1896811,-0.9823545,2.559872,0.446178,33.96222,1007.79
0.624236584,0.09018882,0.06660213,-0.1472553,0.03694319,-0.1886944,-0.9828237,1.8253,0.4383006,33.51853,1007.792
0.656796455,-0.2174484,0.1260831,-0.0860559,0.03357284,-0.192138,-0.9833564,1.830981,0.07449007,33.52114,1007.792
0.689356327,-0.155921,0.3045259,-0.2084547,0.03503969,-0.1921299,-0.9809408,1.830981,0.07449007,33.52114,1007.794
0.721915722,0.02866136,0.2450449,-0.0860559,0.03396755,-0.1838778,-0.9817806,2.190139,0.4383645,33.07127,1007.794
0.756980419,0.1517163,0.2450449,-0.0860559,0.03350918,-0.1858387,-0.9793932,2.569603,-0.2840271,33.52137,1007.794
0.789540291,0.1517163,0.1260831,-0.0248565,0.03892517,-0.1911095,-0.9804456,2.19885,0.07935095,33.9023,1007.79
0.822095394,0.2132437,-0.1713216,0.2199411,0.03593104,-0.1853079,-0.9822876,2.19885,0.07935095,33.9023,1007.79
0.857159615,0.2132437,0.007121183,0.1587417,0.03937551,-0.1886582,-0.9837922,2.558241,0.4435945,33.51615,1007.792
0.889719486,0.09018882,0.06660213,0.0975423,0.03499991,-0.1906304,-0.9901021,2.193401,0.4435306,33.96341,1007.792
0.922279358,-0.03286609,0.06660213,0.0975423,0.03748531,-0.1935449,-0.9833816,2.193401,0.4435306,33.96341,1007.793
0.957344055,-0.5250857,0.3640068,-0.0860559,0.03499345,-0.1896674,-0.9881538,2.928762,0.07984734,33.0715,1007.793
0.989903927,-0.5866132,0.4234878,-0.2084547,0.03551701,-0.192106,-0.9848078,2.558241,0.4435945,33.51615,1007.795
1.022459507,-0.4635583,0.5424496,-0.1472553,0.03539418,-0.1814182,-0.9841613,2.558241,0.4435945,33.51615,1007.791
1.057523251,0.3362986,0.007121183,0.0363429,0.03841169,-0.1896405,-0.9842897,1.451517,0.7968822,33.07103,1007.792
1.090083122,0.3978261,-0.2902835,0.0363429,0.04036713,-0.1905804,-0.9857561,2.193401,0.4435306,33.96341,1007.792
1.122642994,0.09018882,-0.2902835,-0.0248565,0.03833561,-0.1837942,-0.9875841,2.193401,0.4435306,33.96341,1007.794
1.155202866,0.2132437,-0.1713216,-0.0860559,0.03598742,-0.190167,-0.9823619,2.199083,0.07972002,33.96602,1007.796
1.190267086,0.1517163,-0.1713216,0.0363429,0.03352977,-0.18873,-0.9847544,2.562291,0.07720041,33.07269,1007.796
1.222823143,0.09018882,0.1260831,-0.0248565,0.03544575,-0.1862685,-0.9861689,2.562291,0.07720041,33.07269,1007.796
1.255382061,-0.03286609,0.3045259,-0.0248565,0.03600756,-0.1921062,-0.9833583,2.559872,0.446178,33.96222,1007.796
1.290446758,-0.03286609,0.3045259,0.0975423,0.03695251,-0.1906138,-0.9881701,1.819619,0.8021111,33.51592,1007.792
1.323006630,-0.09439354,0.007121183,-0.0248565,0.03942099,-0.1920706,-0.9814276,1.819619,0.8021111,33.51592,1007.793
1.355566502,-0.2789759,0.06660213,0.0363429,0.04033609,-0.1871944,-0.9823207,2.550929,0.8048224,33.06747,1007.793
1.390630722,-0.03286609,0.1260831,-0.0860559,0.03939084,-0.1905887,-0.9867219,2.550929,0.8048224,33.06747,1007.793
1.423186779,0.1517163,-0.1118407,0.2199411,0.03695529,-0.1901433,-0.9847793,2.550929,0.8048224,33.06747,1007.793
1.455746174,0.09018882,0.185564,0.0363429,0.03840928,-0.1896361,-0.9852564,1.821249,0.8046947,33.96199,1007.795
1.490809918,-0.03286609,0.3640068,0.0363429,0.04033729,-0.1871966,-0.9818375,2.195821,0.07455397,33.07388,1007.793
1.523369789,0.2132437,0.185564,0.0363429,0.03790175,-0.1867512,-0.9798948,2.195821,0.07455397,33.07388,1007.793
1.555929661,0.2747712,0.007121183,0.2811405,0.03639106,-0.1843012,-0.9885567,2.184458,0.802175,33.06866,1007.794
1.590994358,0.4593536,-0.3497644,0.0363429,0.03793558,-0.1896667,-0.9799393,2.203133,-0.2866735,33.52256,1007.794
1.623549938,-0.2789759,-0.3497644,0.1587417,0.03549522,-0.1892125,-0.97993,2.203133,-0.2866735,33.52256,1007.796
1.656109810,0.09018882,-0.2308026,0.0363429,0.03936018,-0.1867278,-0.9808626,2.193401,0.4435306,33.96341,1007.796
1.688669205,0.2747712,-0.2902835,0.0363429,0.03205924,-0.1873045,-0.9818311,2.554191,0.8099885,33.95961,1007.798
1.723733425,0.02866136,0.007121183,-0.0860559,0.03596569,-0.1887005,-0.984273,2.554191,0.8099885,33.95961,1007.794
1.756293297,0.2747712,-0.05235976,-0.0860559,0.03748328,-0.1930656,-0.9819242,1.82935,0.07190704,33.07507,1007.794
1.788853168,0.2132437,0.185564,0.0975423,0.03789941,-0.1881738,-0.9876505,2.19177,0.4409471,33.51734,1007.795
1.823913574,-0.155921,-0.05235976,-0.0248565,0.0384495,-0.1920877,-0.98046,2.19177,0.4409471,33.51734,1007.795
1.856473446,0.1517163,0.06660213,0.0363429,0.03840478,-0.1877255,-0.9779766,2.559872,0.446178,33.96222,1007.795
1.889032364,-0.155921,0.06660213,0.0975423,0.04040495,-0.1930275,-0.9819264,2.558241,0.4435945,33.51615,1007.795
1.924097061,0.2132437,-0.2902835,0.0975423,0.04277968,-0.1881301,-0.9833041,2.558241,0.4435945,33.51615,1007.795
1.956656933,0.2747712,-0.3497644,0.0975423,0.03835854,-0.185263,-0.9851897,2.550929,0.8048224,33.06747,1007.795
1.989216805,0.02866136,0.06660213,0.0363429,0.03742577,-0.1896313,-0.9891224,2.19177,0.4409471,33.51734,1007.797
2.024277210,0.2747712,0.3045259,-0.0860559,0.03690537,-0.1862472,-0.9866533,2.19177,0.4409471,33.51734,1007.799
2.056837082,0.7054633,0.06660213,0.0975423,0.03548236,-0.1887134,-0.9828225,1.82935,0.07190704,33.07507,1007.795
2.089396000,-0.09439354,-0.1713216,-0.0248565,0.04129908,-0.1857349,-0.9798825,2.558241,0.4435945,33.51615,1007.795
2.121955872,0.09018882,-0.05235976,-0.1472553,0.04037074,-0.190587,-0.984306,2.558241,0.4435945,33.51615,1007.795
2.157020092,0.2747712,0.007121183,-0.0860559,0.03841086,-0.1891634,-0.9823489,2.562291,0.07720041,33.07269,1007.795
2.189579964,0.2132437,-0.1118407,0.0363429,0.03451582,-0.1915932,-0.9934999,2.19177,0.4409471,33.51734,1007.795
2.222136021,0.09018882,-0.05235976,-0.0860559,0.03690861,-0.1867287,-0.9876274,2.19177,0.4409471,33.51734,1007.795
2.257200241,0.2132437,0.007121183,0.0363429,0.03790055,-0.186749,-0.9803781,2.18772,0.8073411,33.9608,1007.795
2.289759636,0.3362986,-0.05235976,0.0363429,0.02962452,-0.1873363,-0.9818292,2.19177,0.4409471,33.51734,1007.795
2.322319508,0.02866136,-0.3497644,-0.2084547,0.0374563,-0.1906382,-0.9814038,2.19177,0.4409471,33.51734,1007.795
2.357383728,-0.3405034,-0.1713216,0.0363429,0.03744426,-0.1906163,-0.9862371,2.186089,0.8047576,33.51473,1007.792
2.389943600,0.1517163,-0.1713216,0.0975423,0.03504615,-0.1930929,-0.9828889,2.559872,0.446178,33.96222,1007.792
2.422499657,0.3978261,-0.05235976,0.1587417,0.03402438,-0.1896889,-0.9862197,2.559872,0.446178,33.96222,1007.79
2.457563877,0.02866136,-0.1118407,-0.0248565,0.0315735,-0.1873131,-0.9813474,2.190139,0.4383645,33.07127,1007.79
2.490123272,-0.09439354,0.1260831,-0.1472553,0.03164198,-0.1936211,-0.9833772,2.184458,0.802175,33.06866,1007.792
2.522682667,-0.2174484,0.7208924,-0.0248565,0.03602042,-0.1926053,-0.9804656,2.190139,0.4383645,33.07127,1007.79
2.555242538,0.2742769,0.4806849,-0.1468355,0.04376326,-0.1895619,-0.9862272,2.190139,0.4383645,33.07127,1007.788
2.590307236,0.2727639,0.2416031,0.09797302,0.03693793,-0.1877335,-0.9803922,2.19177,0.4409471,33.51734,1007.788
2.622862816,-0.09639341,-0.05609589,-0.02432616,0.03699115,-0.1935381,-0.9862813,2.55256,0.807405,33.51354,1007.788
2.655422687,0.08848529,-0.055233,0.037145,0.03794362,-0.190157,-0.9789801,2.55256,0.807405,33.51354,1007.789
2.690486431,0.3337818,-0.1140053,0.0982388,0.03109422,-0.1882847,-0.9828118,2.558241,0.4435945,33.51615,1007.789
2.723046303,0.5166562,-0.2325398,-0.02442609,0.03745794,-0.1915925,-0.9852853,2.565553,0.08236647,33.96483,1007.789
2.755606174,0.08437933,-0.05383938,-0.08583295,0.03308628,-0.1916694,-0.9809319,2.565553,0.08236647,33.96483,1007.791
2.790670872,-0.2839977,0.005467574,0.2203489,0.03504615,-0.1930929,-0.9828889,1.8253,0.4383006,33.51853,1007.791
2.823226452,0.02450793,0.06459033,-0.2078895,0.03500631,-0.1901665,-0.9852613,2.55661,0.4410119,33.07008,1007.791
2.855785847,-0.2822065,0.1233975,0.09835999,0.0330541,-0.1897082,-0.9847689,2.55661,0.4410119,33.07008,1007.793
2.890850067,-0.1582023,0.1225016,0.03730452,0.03455237,-0.1926112,-0.9833646,2.55661,0.4410119,33.07008,1007.789
2.923409939,0.02634912,0.1813898,-0.02379743,0.034001,-0.1872681,-0.9842492,2.187487,0.806972,33.89708,1007.791
2.955969810,0.1487755,0.002226341,0.03740307,0.04086776,-0.1915502,-0.9848045,2.187487,0.806972,33.89708,1007.791
2.988529682,0.1481498,-0.1169685,0.09862246,0.03405054,-0.1916391,-0.9847993,2.923081,0.4436584,33.06889,1007.791
3.023590088,-0.09774223,-0.1763091,0.03731638,0.03257919,-0.1897365,-0.9799352,2.186089,0.8047576,33.51473,1007.792
3.056149006,-0.7730067,0.2991,-0.02365111,0.03355916,-0.1911618,-0.9843082,2.186089,0.8047576,33.51473,1007.79
3.088708878,-0.09411545,0.2973955,0.09895914,0.04230769,-0.1905418,-0.9886576,2.190139,0.4383645,33.07127,1007.79
3.123773575,-0.1561364,-0.1190633,0.09906216,0.04427352,-0.1905493,-0.981409,2.197452,0.07713699,33.51995,1007.792
3.156333447,-0.8918797,-0.415852,-0.08419114,0.040858,-0.1886787,-0.9750932,2.197452,0.07713699,33.51995,1007.792
3.188892841,0.8314744,-1.067346,0.09936637,0.03885315,-0.1862218,-0.9866548,2.558241,0.4435945,33.51615,1007.79
3.223952770,1.196294,-1.240824,0.1600721,0.03741246,-0.1881801,-0.9876501,2.187487,0.806972,33.89708,1007.792
3.256512642,0.1465713,-1.176229,0.03694394,0.03014859,-0.1921539,-0.9896373,2.187487,0.806972,33.89708,1007.793
3.289072514,-0.8964024,-0.3993579,-0.5138668,0.03636064,-0.1771114,-0.966695,2.19177,0.4409471,33.51734,1007.789
3.324136734,-2.180934,0.3743788,-0.1456053,0.02429955,-0.1903172,-0.9828362,2.930393,0.08243036,33.51757,1007.789
3.356696606,-0.4527694,1.263834,-0.2672571,0.03304365,-0.1892135,-0.9866949,2.930393,0.08243036,33.51757,1007.791
3.389256477,1.084367,2.327398,-0.3271751,0.03690176,-0.1862406,-0.9881034,2.186089,0.8047576,33.51473,1007.791
3.421811581,1.755281,2.1988,-0.2034235,0.04471738,-0.187135,-0.9828074,2.91903,0.8100514,33.51235,1007.793
3.456876278,2.177304,0.8832744,0.1640128,0.04765273,-0.1880732,-0.9818578,2.91903,0.8100514,33.51235,1007.793
3.489436150,1.123562,-0.4263488,0.2239874,0.04380957,-0.1934514,-0.9858032,2.558241,0.4435945,33.51615,1007.793
3.521996021,-0.4164628,-1.314828,0.161971,0.04280058,-0.1891195,-0.9794523,2.190139,0.4383645,33.07127,1007.794
3.557060242,-0.9672235,-1.130764,0.1615288,0.03745382,-0.1892069,-0.9755814,2.190139,0.4383645,33.07127,1007.79
3.589619636,-0.8396282,-0.710777,0.1002085,0.034492,-0.1882204,-0.9871646,2.193401,0.4435306,33.96341,1007.79
3.622175217,0.391506,-0.7078238,0.1610568,0.03305537,-0.1911373,-0.9910747,2.186089,0.8047576,33.51473,1007.792
3.657239914,-0.2868011,0.1264297,-0.1453783,0.03348232,-0.1862653,-0.9924508,2.186089,0.8047576,33.51473,1007.792
3.689799309,-0.5923814,1.193735,-0.02309689,0.03837343,-0.1862414,-0.9837545,2.197452,0.07713699,33.51995,1007.793
3.722359180,1.374124,0.0600004,0.2215259,0.04377086,-0.1891002,-0.980903,2.930393,0.08243036,33.51757,1007.793
3.757422924,1.243417,-0.7709064,0.09836596,0.0380857,-0.2008799,-0.9718931,2.930393,0.08243036,33.51757,1007.795
3.789982796,-1.340978,-0.827487,-0.02420324,0.03502721,-0.1911559,-0.9814093,2.562291,0.07720041,33.07269,1007.793
3.822538853,-3.302101,-0.7051474,-0.2689557,0.03155222,-0.1867986,-0.9876233,2.190139,0.4383645,33.07127,1007.793
3.857603073,-2.748354,-0.4672237,-0.3913546,0.03295465,-0.1814411,-0.9860928,2.190139,0.4383645,33.07127,1007.793
3.890162945,-1.579333,0.5439523,-0.3913546,0.03493828,-0.1848105,-0.9875963,2.569603,-0.2840271,33.52137,1007.789
3.922722816,0.9432931,1.257724,-0.2077563,0.0364297,-0.1872254,-0.9866678,2.207183,-0.6530676,33.0791,1007.789
3.955282211,4.757996,0.4249904,0.2818388,0.03744186,-0.1906119,-0.9872039,2.207183,-0.6530676,33.0791,1007.791
3.990346432,4.327303,-0.4077428,0.5266364,0.03697334,-0.1901762,-0.9775293,2.190139,0.4383645,33.07127,1007.791
4.022902489,0.6971833,-0.6456665,0.15944,0.03653428,-0.1935994,-0.9741974,2.562291,0.07720041,33.07269,1007.791
4.055461884,-2.071552,-0.4077428,-0.08535755,0.0360374,-0.19549,-0.987277,2.562291,0.07720041,33.07269,1007.789
4.090526581,-1.825442,-0.169819,-0.3301551,0.03452418,-0.1901816,-0.9833274,2.195821,0.07455397,33.07388,1007.791
4.123085499,-0.9025306,-0.2292999,-0.1465569,0.02866362,-0.190702,-0.9925139,2.55661,0.4410119,33.07008,1007.789
4.155645371,-1.210168,0.1275857,-0.08535755,0.03741893,-0.1891432,-0.9895983,2.55661,0.4410119,33.07008,1007.789
4.190710068,-0.7179483,0.1275857,0.09824064,0.03692868,-0.187241,-0.9818348,2.928762,0.07984734,33.0715,1007.787
4.223265648,1.066348,0.2465476,-0.02415815,0.03984509,-0.1862421,-0.9794055,2.555822,0.812571,34.40569,1007.785
4.255825520,2.543007,-0.1103381,-0.02415815,0.03944233,-0.194012,-0.9819406,2.195821,0.07455397,33.07388,1007.785
4.290889263,1.189403,-0.3482618,-0.02415815,0.03792633,-0.1891742,-0.9813819,2.195821,0.07455397,33.07388,1007.787
4.323449135,-0.6564208,-0.8835903,0.09824064,0.03113609,-0.1916904,-0.9818971,2.562291,0.07720041,33.07269,1007.787
4.356009007,-1.14864,-1.240476,0.09824064,0.03349512,-0.1853374,-0.9827691,2.558241,0.4435945,33.51615,1007.787
4.388568878,0.5126009,-1.359438,-0.02415815,0.03454756,-0.1926024,-0.985298,2.558241,0.4435945,33.51615,1007.783
4.423629284,0.5741283,-0.5267046,0.2206394,0.03258888,-0.191181,-0.9828574,2.562058,0.07683134,33.00896,1007.784
4.456189156,1.004821,-0.169819,0.15944,0.03258654,-0.1926036,-0.9906132,2.190139,0.4383645,33.07127,1007.786
4.488748074,0.0819087,0.1275857,0.15944,0.02534553,-0.1966191,-0.9834168,2.190139,0.4383645,33.07127,1007.788
4.523812771,-0.9025306,0.4249904,0.03704125,0.02772672,-0.1926847,-0.9867427,2.563922,0.07978344,33.51876,1007.788
4.556372642,-1.271695,0.7223951,-0.08535755,0.03260858,-0.1921683,-0.9794889,2.923081,0.4436584,33.06889,1007.788
4.588932514,-1.39475,1.0198,-0.02415815,0.03499294,-0.1872884,-0.9769999,2.923081,0.4436584,33.06889,1007.788
4.623991966,-0.3487835,0.6034332,-0.1465569,0.03207939,-0.1892438,-0.9828274,1.8253,0.4383006,33.51853,1007.79
4.656551838,-1.579333,1.436166,0.03704125,0.03402191,-0.1882575,-0.9803973,2.55256,0.807405,33.51354,1007.791
4.689111710,-0.964058,1.436166,-0.2077563,0.05396369,-0.1865285,-0.982807,2.55256,0.807405,33.51354,1007.791
4.724176407,-2.13308,1.852533,-0.3301551,0.02619394,-0.189243,-0.9997399,2.562291,0.07720041,33.07269,1007.789
4.756736278,1.866205,2.625785,-0.4525539,0.04768226,-0.1933588,-0.9949898,2.558241,0.4435945,33.51615,1007.791
4.789295196,1.927732,1.67409,-0.1465569,0.03301887,-0.1825096,-0.9648406,2.558241,0.4435945,33.51615,1007.792
4.821850777,1.066348,1.257724,-0.2077563,0.03698943,-0.1911568,-0.9756107,2.184458,0.802175,33.06866,1007.794
4.856915474,0.0819087,1.67409,-0.2077563,0.04281522,-0.1934267,-0.9940193,2.203133,-0.2866735,33.52256,1007.794
4.889475346,-0.5333658,2.863709,-0.5137534,0.04335081,-0.1958873,-0.9858399,2.203133,-0.2866735,33.52256,1007.796
4.922035217,0.02038124,1.793052,-0.3913546,0.05103436,-0.1856014,-0.9813401,2.558241,0.4435945,33.51615,1007.798
4.957098961,0.5126009,-1.359438,0.465437,0.03455313,-0.1916613,-0.9785163,2.199083,0.07972002,33.96602,1007.799
4.989658833,-12.96191,-0.9430712,-0.1465569,0.02689822,-0.2053289,-0.9874182,2.199083,0.07972002,33.96602,1007.801
5.022214413,-36.03471,4.053328,-2.349735,0.03101425,-0.1933703,-1.039928,2.930393,0.08243036,33.51757,1007.801
5.057279110,-49.57075,11.48845,-6.633693,0.03747761,-0.1564886,-1.009402,1.465908,0.0740571,33.90467,1007.803
5.089838982,-57.26168,13.39184,-6.694892,0.0534718,-0.09627049,-0.9533938,1.465908,0.0740571,33.90467,1007.805
5.122397900,-52.40101,11.07208,-7.000889,0.06612597,-0.0619052,-0.9925185,2.214495,-1.014295,33.52778,1007.805
5.157462597,-33.88125,10.65571,-7.000889,0.06826013,-0.04134878,-1.017826,2.60206,-2.469475,33.09097,1007.805
5.190021992,-26.68254,14.81938,-8.530874,0.07744669,-0.0325477,-1.003199,2.60206,-2.469475,33.09097,1007.806
5.222578049,-12.40816,13.98664,-4.797711,0.05159362,-0.03042392,-1.009909,1.514011,-3.205037,33.09976,1007.806
5.255137920,0.9432931,5.897237,-3.451324,0.0462635,-0.02626124,-0.9789045,0.4243305,-3.943181,32.66247,1007.808
5.290201664,1.866205,-3.262828,-0.1465569,0.04810924,-0.0227202,-1.003988,0.4243305,-3.943181,32.66247,1007.808
5.322761536,6.849929,-4.868813,2.485017,0.07292742,-0.01523299,-0.9763451,0.4356928,-4.670802,32.66769,1007.804
5.355321407,6.849929,-8.378189,3.280609,0.05356918,-0.02426631,-0.9692135,0.8094757,-5.029384,33.11519,1007.806
5.390385628,3.835083,-7.367013,4.1986,0.05713957,-0.03593203,-0.9587606,0.8094757,-5.029384,33.11519,1007.806
5.422940731,0.9432931,-6.236875,6.830174,0.1201478,-0.01459289,-0.981698,0.06922197,-4.673449,32.66888,1007.807
5.455500603,14.29475,-18.60891,11.29773,0.09039113,-0.004419886,-0.9529949,1.164584,-4.299115,33.10878,1007.807
5.490565300,26.66177,-16.40812,10.50214,0.1068142,-0.05003986,-1.026697,1.164584,-4.299115,33.10878,1007.807
5.523125172,26.78482,-16.17019,10.37974,0.05945086,-0.08175373,-1.028585,1.167003,-4.668092,32.21925,1007.807
5.590748787,37.85977,-12.48237,8.237761,0.04995671,-0.1360164,-0.9868664,2.262365,-4.293758,32.65914,1007.809
5.623304367,37.12144,-11.64964,7.013772,0.03761325,-0.1315844,-1.034641,2.613422,-3.197096,33.09619,1007.807
5.655864239,40.07476,-12.60134,6.462978,0.03552172,-0.1545967,-1.003571,2.233958,-2.474704,32.64608,1007.803
5.688424110,51.21123,-15.93227,8.29896,0.01488914,-0.1806361,-1.001048,2.233958,-2.474704,32.64608,1007.805
5.723488331,53.48774,-16.94345,6.585377,-0.001622002,-0.2255862,-0.9964005,3.384717,-1.736118,33.08317,1007.805
5.756047726,54.47218,-16.765,6.095781,-0.006381919,-0.2348864,-0.9955711,2.927131,0.07726431,32.62543,1007.803
5.788607597,59.33285,-15.04005,4.382198,-0.03595498,-0.2830178,-0.9701744,2.927131,0.07726431,32.62543,1007.805
5.823668003,45.73528,-11.59016,0.6490352,-0.03293362,-0.2879179,-0.9528505,4.429736,1.540953,32.16396,1007.805
5.856227875,38.10588,-6.950646,-1.248146,-0.02509586,-0.325895,-0.9157342,4.771062,3.367819,33.04186,1007.806
5.888786793,24.939,-1.180995,-3.87972,-0.05786508,-0.3450265,-0.8642731,4.771062,3.367819,33.04186,1007.806
5.923851490,16.8789,0.9008379,-6.756092,-0.0600617,-0.3142137,-1.018965,4.385917,4.454021,32.58914,1007.802
5.956411362,17.49418,-1.716323,-9.142868,-0.05338482,-0.3598919,-0.8954403,4.745075,4.817896,32.13927,1007.802
5.988970757,-3.486684,-1.894766,-3.818521,-0.01792796,-0.3545077,-0.9089269,4.729662,5.911911,32.57751,1007.802
6.024031639,-8.9011,-5.998951,-1.737741,-0.0476776,-0.3567134,-0.9364844,4.729662,5.911911,32.57751,1007.802
6.056590557,-4.77876,-7.723898,0.2206394,-0.03273479,-0.3467259,-0.9522979,5.094502,5.911974,32.13025,1007.802
6.089150429,-3.055992,-13.19615,-0.8197504,-0.03465919,-0.349172,-0.9542668,5.105865,5.184353,32.13547,1007.802
6.121710300,-11.17762,-13.07718,-2.533333,-0.03876615,-0.3663788,-0.9231058,5.105865,5.184353,32.13547,1007.802
6.156774521,-19.42229,-7.545455,-3.390125,-0.039041,-0.3031516,-0.933742,5.105865,5.184353,32.13547,1007.802
6.189333916,-14.25399,-6.534279,-0.6973516,-0.04796432,-0.3233725,-0.8948883,5.473966,5.189583,32.58035,1007.804
6.221889496,-25.2674,-2.430095,0.4042376,-0.06462486,-0.3200684,-0.9209242,5.473966,5.189583,32.58035,1007.804
6.256954193,-0.5948933,-0.7646284,7.136171,-0.02730481,-0.2803158,-1.004945,5.486959,4.464545,33.03165,1007.804
6.289514065,2.419952,6.254122,9.522947,-0.05553783,-0.3015732,-0.9008324,5.857481,4.100797,32.587,1007.8
6.322073937,-23.9138,2.268899,4.810594,-0.06971692,-0.337743,-0.8965368,5.857481,4.100797,32.587,1007.8
6.357137680,-49.32464,-6.712722,7.686966,-0.04638889,-0.3112523,-0.9899302,6.225582,4.106027,33.03188,1007.802
6.389697552,-49.32464,-10.75743,9.706546,-0.0586033,-0.2614528,-0.9678901,5.131852,3.734276,33.03806,1007.802
6.422253132,-38.80344,-9.09196,7.503367,-0.09465893,-0.2243651,-0.9972588,5.131852,3.734276,33.03806,1007.802
6.457317829,-23.9138,-5.998951,7.564567,-0.07936905,-0.1993717,-0.9988258,6.620459,2.289621,33.04375,1007.803
6.489876747,-12.53122,-4.03608,5.23899,-0.08830833,-0.1777651,-0.9665846,6.273451,0.8265643,32.16324,1007.799
6.522436619,6.419237,0.4249904,2.485017,-0.1319207,-0.2048836,-1.00611,6.273451,0.8265643,32.16324,1007.799
6.557500839,14.47933,9.049726,1.567026,-0.09171627,-0.2191336,-0.9638289,6.656178,0.1093388,33.50549,1007.801
6.590060711,11.58754,10.12038,0.03704125,-0.08671299,-0.2250219,-0.9373378,5.912662,0.4601073,32.16704,1007.801
6.622616768,10.35699,4.648137,1.995422,-0.08918917,-0.2302096,-0.978985,5.912662,0.4601073,32.16704,1007.801
6.655175686,7.711313,3.755923,3.280609,-0.0693455,-0.2230696,-0.9958134,5.546191,0.4574609,32.16823,1007.797
6.690240383,6.603819,0.3655095,2.117821,-0.07544134,-0.244983,-1.003876,5.904562,1.192895,33.05396,1007.797
6.722800255,22.72401,-4.630889,6.401778,-0.07691807,-0.2392656,-0.9830019,5.904562,1.192895,33.05396,1007.799
6.755359650,21.24735,-6.355837,3.892603,-0.07215307,-0.2627364,-0.9384106,6.273451,0.8265643,32.16324,1007.799
6.790423870,5.311743,-6.117913,5.300189,-0.08458219,-0.2448309,-0.9569771,6.259669,1.923163,33.04755,1007.799
6.822979450,-14.56163,-2.965423,3.21941,-0.07516892,-0.2554684,-0.9421638,6.259669,1.923163,33.04755,1007.8
6.855539322,-54.73906,0.2465476,3.770205,-0.08960804,-0.2550167,-0.8696365,6.245045,2.645618,32.15018,1007.802
6.890603542,-120.2043,6.72997,6.707776,-0.1470916,-0.2258693,-1.136444,6.259669,1.923163,33.04755,1007.802
6.923163414,-187.7614,-28.3043,9.33935,-0.6463512,-0.1850888,-1.168209,6.259669,1.923163,33.04755,1007.802
6.955722809,-230.2769,-108.9605,-8.102479,-0.4837357,-0.4708676,-1.55411,6.651284,0.1015897,32.16727,1007.804
6.990787029,-53.9392,-10.40054,-37.96778,-0.03612541,-0.2115312,-1.298263,7.081037,-4.269241,30.8592,1007.804
7.023343086,-64.09123,4.112809,-61.52955,-0.1640205,-0.7117651,-1.21103,7.081037,-4.269241,30.8592,1007.802
7.055902958,8.572698,15.3547,-75.42182,-0.3164815,-0.6058128,-1.114524,8.98735,-9.420324,29.10596,1007.802
7.088461876,74.83777,20.29162,-100.4524,-0.4226667,-0.6327674,-1.049577,8.278155,-11.25205,27.8469,1007.802
7.123526573,121.4756,3.101633,-120.2198,-0.5235735,-0.5867965,-0.8684788,8.278155,-11.25205,27.8469,1007.802
7.156086445,140.1799,-24.43804,-139.008,-0.634949,-0.4469306,-0.7376593,7.546003,-11.62891,26.51368,1007.8
7.188645840,123.5675,-61.49467,-143.5979,-0.6346054,-0.2190664,-0.5074794,8.254587,-10.17095,26.05478,1007.797
7.223705769,79.94455,-87.78525,-144.5159,-0.500917,0.02299042,-0.4497775,8.254587,-10.17095,26.05478,1007.797
7.256265640,26.10802,-111.3992,-143.4755,-0.437681,0.06383382,-0.485952,8.972904,-9.443203,25.15504,1007.791
7.288825512,-17.57647,-126.7453,-129.5221,-0.352829,0.1591931,-0.584638,11.5463,-10.15746,24.2598,1007.791
7.323889732,-36.95762,-128.5892,-112.2639,-0.2963754,0.2269383,-0.6774341,11.5463,-10.15746,24.2598,1007.791
7.356449127,-52.8317,-165.8837,-81.90895,-0.2995576,0.3789853,-0.4575918,15.58558,-10.86114,23.35979,1007.789
7.389008999,-83.53391,-160.352,-58.95918,-0.4381317,0.280783,-0.6339387,20.00613,-13.02995,20.30242,1007.791
7.424069405,-46.3098,-152.2031,-37.35579,-0.4303842,0.2880429,-0.8175185,20.00613,-13.02995,20.30242,1007.792
7.456629276,-44.27939,-157.7943,-3.87972,-0.5823695,0.2894983,-0.8250836,23.3384,-15.9347,17.19011,1007.792
7.489189148,-50.1245,-193.1855,19.25365,-0.7334108,0.1334507,-0.39808,27.46408,-19.20748,12.35727,1007.792
7.521748066,-35.35791,-155.534,29.90235,-0.8132334,0.1669519,-0.6179116,27.46408,-19.20748,12.35727,1007.794
7.556812763,-42.7412,-176.2929,48.87416,-0.9335809,0.1878139,-0.7402549,29.6979,-23.23706,4.859358,1007.792
7.589372635,-78.42712,-199.312,69.37595,-0.884813,0.1722546,-0.3876743,30.88344,-30.54888,-2.611485,1007.792
7.621928215,-46.06368,-184.3228,72.61952,-0.9361005,0.1889993,-0.3694844,30.88344,-30.54888,-2.611485,1007.792
7.656991959,0.6356558,-85.28705,49.42496,-0.6681483,0.1100791,-0.3090748,30.59956,-38.68463,-14.40518,1007.793
7.689551830,-75.53534,-162.4338,61.78724,-0.4672428,0.06615235,-0.01507906,28.88266,-49.69927,-29.3599,1007.797
7.722111702,-161.7968,-87.42836,53.34172,-0.9554108,0.392255,-0.1280601,38.19823,-62.12714,-40.32476,1007.799
7.757175922,-192.376,-86.3577,33.39071,-0.7446679,0.03892931,-0.2728665,38.19823,-62.12714,-40.32476,1007.8
7.789735317,-175.0252,-57.331,6.830174,-0.9136298,-0.1251944,-0.04366981,55.77423,-56.52736,-37.80848,1007.8
7.822290897,-191.5146,-42.3418,-2.594533,-1.020488,-0.1498016,0.3558106,51.46378,-37.92342,-34.8065,1007.802
7.857355595,-109.4985,-15.39694,-28.35948,-1.309621,-0.2854107,0.1717876,51.46378,-37.92342,-34.8065,1007.804
7.889915466,-41.44912,15.11678,-48.24928,-1.359811,-0.06945663,-0.006618916,44.99805,-26.99906,-35.757,1007.805
7.922474384,-22.5602,16.12796,-52.77804,-1.557243,-0.126687,0.04200295,43.05534,-19.73091,-34.91114,1007.809
7.955034256,70.34627,5.540351,-44.14892,-1.40078,-0.03747273,0.3216381,43.05534,-19.73091,-34.91114,1007.809
7.990098953,179.9267,8.098031,-20.28116,-1.725406,0.3335329,-0.2161873,43.37074,-15.70827,-31.81855,1007.808
8.022654533,44.68932,7.860108,-31.78665,-1.151034,0.2640727,-0.07568863,43.35998,-14.60687,-30.10582,1007.812
8.055638313,-11.85442,5.361908,-23.21873,-1.026268,-0.1008081,-0.3830029,43.35998,-14.60687,-30.10582,1007.813
8.090703011,14.47933,10.71519,-14.28362,-0.9089029,-0.1301023,-0.1259233,44.14085,-17.13534,-27.85956,1007.817
8.155821800,38.90574,23.20619,10.25734,-1.972171,-0.1971611,-0.2897849,45.21995,-16.04113,-28.7631,1007.819
8.190886498,23.76998,12.32118,2.24022,-0.7976974,-0.2021206,-0.002418161,45.21348,-15.30576,-27.43011,1007.82
8.223442078,35.58325,0.5439523,6.095781,-0.9919542,0.1995301,0.143593,45.23379,-16.39203,-26.53013,1007.822
8.256001949,-29.88196,5.123985,-4.858911,-0.9457529,0.1964351,0.1019307,45.23379,-16.39203,-26.53013,1007.826
8.291065693,-63.90665,10.47727,-11.04005,-1.043943,-0.08829398,0.01792441,45.25083,-17.48346,-26.5223,1007.823
8.323625565,-33.3275,10.95312,-8.89807,-0.9739479,-0.1631392,0.004630569,44.87868,-17.1223,-26.52372,1007.823
8.391249657,-16.03828,8.63336,-3.696122,-0.9967697,-0.1279401,0.0008392149,45.58321,-15.29795,-26.53915,1007.828
8.423804760,-1.948497,6.551527,-0.2077563,-0.9867483,-0.1212504,-0.05175648,46.67695,-14.9262,-26.54533,1007.826
8.456364632,1.558568,3.696442,-0.02415815,-1.012471,-0.0538417,-0.09275702,46.67695,-14.9262,-26.54533,1007.83
8.488924503,-34.31194,5.599832,-3.022928,-0.9997641,0.05076283,0.02532042,45.92696,-13.84006,-26.55079,1007.83
8.523989200,-65.44483,6.313603,-4.002119,-0.9878042,-0.1154059,-0.05746681,45.93427,-14.20129,-26.1021,1007.831
8.556548118,-43.78717,2.209419,-1.125747,-1.016718,-0.133462,-0.01759409,45.93427,-14.20129,-26.1021,1007.835
8.589107990,-9.700957,-3.976599,-3.696122,-1.027831,-0.01598137,-0.01965806,46.63555,-12.3821,-27.00968,1007.836
8.624168396,-35.41943,-3.203347,-3.818521,-0.963994,-0.06749784,-0.05047499,46.26176,-12.02352,-27.45717,1007.835
8.656728268,-28.95905,-1.002552,-5.9605,-0.9726327,-0.1086898,0.004976624,46.26176,-12.02352,-27.45717,1007.835
8.689287662,-3.978903,0.06810477,-3.145327,-0.9540098,-0.1162758,0.01644396,46.60956,-10.93203,-27.91227,1007.835
8.724351883,9.126445,2.744747,-5.287306,-0.9830913,-0.05328248,-0.02510408,46.22604,-9.843243,-27.91891,1007.837
8.756911755,-2.625299,3.161114,-6.817291,-0.9559001,-0.0807905,0.009736507,46.22604,-9.843243,-27.91891,1007.839
8.789471626,-6.501529,5.302427,-6.082899,-0.9931647,-0.1083343,-0.0249675,46.96225,-9.832784,-27.02915,1007.841
8.824531078,6.542292,6.254122,-4.491714,-0.9685507,-0.1422724,-0.07916386,47.33114,-10.19911,-27.91987,1007.841
8.857090950,0.02038124,6.373084,-2.410934,-0.9999747,-0.1146192,-0.05164254,47.33114,-10.19911,-27.91987,1007.837
8.889650822,4.757996,3.101633,-3.206527,-1.010978,-0.04579515,-0.04139775,46.95494,-9.471556,-27.47783,1007.838
8.922210693,-9.885539,6.789451,-4.491714,-0.9675273,-0.09246626,-0.02088314,47.32709,-9.83272,-27.47641,1007.84
8.957274437,-7.670551,7.681665,-3.145327,-1.017661,-0.1373356,-0.0234528,47.32709,-9.83272,-27.47641,1007.84
8.989834309,-14.86926,9.644536,-3.206527,-0.9519375,-0.1369291,-0.03124407,47.68788,-9.466262,-27.48021,1007.84
9.022390366,-18.93007,9.168689,-2.410934,-0.9922314,-0.1638383,-0.1070225,47.68546,-9.097285,-26.59068,1007.842
9.057454109,-19.23771,5.48087,-1.615342,-1.008437,-0.06498221,-0.08954723,47.68546,-9.097285,-26.59068,1007.842
9.090013981,-10.00859,2.566304,-0.3913546,-0.981893,-0.1359051,-0.1278749,48.40136,-8.00056,-26.60089,1007.843
9.122573376,-14.25399,1.436166,-1.248146,-0.9953921,-0.1824088,-0.09376822,48.77351,-8.361724,-26.59946,1007.839
9.157638073,6.972984,-0.6456665,1.383428,-0.983267,-0.1389363,-0.1066512,48.77351,-8.361724,-26.59946,1007.839
9.190196991,7.649786,-1.835285,0.8938327,-0.9993097,-0.04560979,-0.04865684,48.76051,-7.636685,-27.05076,1007.839
9.222753048,-8.65499,2.387861,-2.166137,-0.9699448,-0.1010905,-0.05484876,48.39067,-7.20972,-26.16047,1007.841
9.257817268,-14.00788,1.257724,-2.288536,-0.9948856,-0.1444447,-0.1043072,48.39404,-7.639332,-27.04957,1007.843
9.290377140,-1.39475,-0.7051474,-3.267726,-0.9825214,-0.113775,-0.08016574,48.39404,-7.639332,-27.04957,1007.844
9.322936535,3.219809,-2.489576,-1.431744,-1.000669,-0.1056857,-0.09404274,48.38499,-6.84591,-26.16308,1007.846
9.355496407,-6.686111,-4.630889,-1.370545,-0.9733648,-0.1486198,-0.0865067,48.38499,-6.84591,-26.16308,1007.846
9.390560627,-4.53265,-6.236875,-0.08535755,-0.9857281,-0.1327369,-0.08770259,48.39404,-7.639332,-27.04957,1007.844
9.423116684,-7.547496,-5.28518,0.6490352,-0.9944112,-0.1344276,-0.06161765,48.02921,-7.639396,-26.60231,1007.846
9.455675602,-3.117519,-6.355837,1.19983,-0.9780571,-0.1186231,-0.0700931,48.01526,-6.853722,-27.05404,1007.846
9.490740299,-5.578618,-3.084385,1.077431,-0.9654582,-0.1078823,-0.04480579,48.01526,-6.853722,-27.05404,1007.846
9.523300171,-9.024155,-2.311133,-0.02415815,-0.968215,-0.1234409,-0.0513244,47.288,-7.222826,-27.04905,1007.846
9.555859566,-4.655705,-1.121514,0.465437,-0.9762567,-0.09930417,-0.0383806,48.01931,-7.220116,-27.4975,1007.847
9.590923786,-0.964058,-0.3482618,0.7714339,-0.9508775,-0.06108649,-0.03347164,48.01931,-7.220116,-27.4975,1007.849
9.623479366,-2.010025,0.9008379,0.8326334,-1.009714,-0.07199518,-0.04759921,47.27906,-6.864182,-27.9438,1007.851
9.656039238,1.127876,2.32838,0.7102346,-0.9926169,-0.1198535,-0.05511314,47.64716,-6.858952,-27.49892,1007.852
9.691102981,5.434797,2.32838,1.995422,-0.9638895,-0.1223284,-0.06967992,47.64716,-6.858952,-27.49892,1007.852
9.723662853,11.15685,1.257724,2.423818,-0.9743008,-0.1088057,-0.08058124,47.63743,-6.128747,-27.05807,1007.856
9.756222725,-0.04114621,1.257724,0.7714339,-1.012651,-0.1147557,-0.05791628,48.01363,-6.856305,-27.50011,1007.856
9.788782597,-1.025585,2.030976,-0.02415815,-1.000743,-0.09270905,-0.06242519,48.01363,-6.856305,-27.50011,1007.852
9.823842049,-4.225013,2.92319,0.2206394,-0.9894107,-0.1061223,-0.07279169,48.01363,-6.856305,-27.50011,1007.854
9.856401920,0.4510734,0.6629142,1.077431,-0.9986234,-0.1129732,-0.08883875,47.29626,-7.644689,-26.59993,1007.854
9.888961792,5.496325,-0.6456665,1.567026,-0.9970935,-0.1140314,-0.06565428,47.29626,-7.644689,-26.59993,1007.854
9.924025536,-1.39475,-0.169819,0.465437,-0.9684328,-0.1063967,-0.05928156,48.38173,-6.851075,-27.05523,1007.854
9.956585407,-3.609739,0.9008379,0.03704125,-0.9875261,-0.1007497,-0.07319491,47.30031,-8.011083,-27.04339,1007.854
9.989145279,-0.6564208,0.5439523,0.5878358,-0.9742172,-0.1127634,-0.06517364,47.30031,-8.011083,-27.04339,1007.855
10.024205685,4.388831,0.008623828,1.016232,-0.9821301,-0.1007524,-0.05724873,48.00958,-6.489912,-27.05665,1007.855
10.056765080,2.789117,1.138762,0.7102346,-0.9860831,-0.09594189,-0.05765489,48.0169,-6.851139,-26.60797,1007.857
10.089324474,-2.194607,2.268899,0.5878358,-0.9843721,-0.1206361,-0.07301798,48.0169,-6.851139,-26.60797,1007.855
10.124389172,-0.7794757,2.268899,0.465437,-0.9970645,-0.118365,-0.0744212,47.65284,-7.222763,-27.49631,1007.856
10.156949043,3.035227,2.566304,1.567026,-0.9888344,-0.1148403,-0.07775901,48.02094,-7.217533,-27.05143,1007.858
10.189507961,6.972984,0.9008379,1.567026,-0.9818241,-0.09042767,-0.0822271,48.02094,-7.217533,-27.05143,1007.858
10.224568367,-1.087113,0.6034332,0.15944,-0.994148,-0.07509225,-0.06989682,48.38905,-7.212303,-26.60654,1007.86
10.257128239,-3.055992,1.0198,-0.4525539,-0.9686945,-0.08404049,-0.05990699,47.66842,-8.005854,-26.59851,1007.86
10.289688110,-1.825442,0.6629142,0.2206394,-0.9903798,-0.1061438,-0.07085757,47.66842,-8.005854,-26.59851,1007.86
10.322247505,3.281337,-0.3482618,0.9550322,-0.9714872,-0.09905826,-0.07850173,47.66842,-8.005854,-26.59851,1007.86
10.357311726,0.02038124,-1.418919,1.016232,-1.004141,-0.09657703,-0.07649885,48.39568,-7.636749,-26.6035,1007.86
10.389871597,-5.147925,-0.2292999,0.09824064,-0.9846275,-0.09781592,-0.06880257,48.39568,-7.636749,-26.6035,1007.86
10.422426701,-5.209453,0.008623828,0.4042376,-0.9701115,-0.08794461,-0.06044856,47.66678,-8.008436,-27.04458,1007.86
10.457491398,-1.763915,0.1275857,1.934223,-0.9838858,-0.1244335,-0.09144469,48.39972,-8.003142,-27.04696,1007.862
10.490051270,3.158282,0.841357,1.934223,-0.9927673,-0.1105421,-0.0723725,48.39972,-8.003142,-27.04696,1007.857
10.522610664,0.7587107,1.971495,1.995422,-0.9680895,-0.09614011,-0.06927633,47.6611,-7.644626,-27.04719,1007.859
10.557674885,-1.948497,3.042152,1.567026,-0.9882181,-0.08135705,-0.06468098,47.66842,-8.005854,-26.59851,1007.859
10.590234280,0.9432931,4.112809,2.668615,-0.9777571,-0.1021046,-0.06790786,47.66842,-8.005854,-26.59851,1007.859
10.622790337,5.311743,2.863709,3.647806,-0.9814193,-0.08028315,-0.06757142,48.02757,-7.641979,-27.04838,1007.861
10.657854080,2.419952,3.042152,2.791014,-0.9943292,-0.1027668,-0.07660276,47.30194,-8.0085,-26.59732,1007.861
10.690413952,-2.071552,2.804228,2.362618,-0.963796,-0.08831062,-0.06867766,47.30194,-8.0085,-26.59732,1007.861
10.722973823,-1.087113,2.744747,3.403008,-0.9777722,-0.104455,-0.08534528,48.04625,-8.730828,-26.59447,1007.861
10.755533695,11.77213,1.67409,4.382198,-1.007838,-0.07754575,-0.1037574,47.67168,-8.000688,-25.70636,1007.862
10.790597439,15.95599,1.912014,4.320999,-0.9938673,-0.05853862,-0.07544506,47.67168,-8.000688,-25.70636,1007.864
10.823153019,7.957423,0.5439523,3.035812,-0.9788679,-0.05483712,-0.09812178,48.41272,-8.728181,-26.59566,1007.86
10.855712891,-0.6564208,1.67409,2.362618,-1.004595,-0.09807187,-0.06975394,47.67899,-8.361915,-25.25768,1007.862
10.890776634,11.40296,2.863709,2.117821,-0.9711456,-0.09403019,-0.1141952,47.67899,-8.361915,-25.25768,1007.862
10.923336506,13.92559,1.495647,1.750624,-1.00285,-0.04493757,-0.09939773,48.05682,-9.086889,-25.25365,1007.865
10.955896378,10.11088,-3.143866,0.7102346,-1.047028,-0.05432111,-0.08644708,47.69035,-9.089537,-25.25246,1007.865
10.990961075,-9.700957,-1.180995,-2.655732,-0.9855495,-0.1098137,-0.1047546,48.7995,-9.811801,-25.69687,1007.867
11.023516178,14.23322,-1.835285,-2.104938,-0.9700534,-0.1403127,-0.08686654,48.7995,-9.811801,-25.69687,1007.863
11.056076050,24.44678,-5.523104,-2.227336,-1.018238,0.02811235,-0.0692658,48.05519,-9.089473,-25.69972,1007.863
11.091140270,-0.5333658,-4.511928,-4.430515,-1.024464,-0.07858623,-0.1361435,48.07792,-10.54472,-25.68927,1007.864
11.123699665,-2.563772,-2.430095,-4.430515,-0.9340128,-0.07427584,0.02914984,48.07792,-10.54472,-25.68927,1007.864
11.156259060,-3.609739,-3.560233,-4.675313,-0.9981872,-0.1613311,-0.1408149,48.07387,-10.17832,-25.24582,1007.866
11.188818932,-4.040431,-6.712722,-3.818521,-1.062123,-0.006061336,-0.05476012,47.33766,-10.18878,-26.13558,1007.866
11.223879337,8.941862,-5.404141,-7.123288,-0.9801146,-0.09894817,-0.02096988,47.33766,-10.18878,-26.13558,1007.866
11.256438732,10.66463,-9.567807,-8.836871,-0.9963147,-0.1198455,-0.1735368,47.3344,-10.19395,-27.02773,1007.866
11.288998604,18.60167,-11.82808,-6.756092,-1.07185,-0.006685228,-0.05234337,48.05598,-9.461033,-27.03532,1007.866
11.324062824,12.07976,-13.73147,-7.796482,-0.8708297,-0.1069449,0.01988967,48.05598,-9.461033,-27.03532,1007.866
11.356622219,-4.471123,-9.032479,-4.430515,-0.907016,-0.1322882,0.03838964,47.31409,-9.107681,-27.9277,1007.868
11.389182091,2.666062,-10.75743,-2.227336,-1.021534,-0.1521727,-0.08458091,47.68056,-9.105035,-27.92889,1007.864
11.424242497,4.388831,-11.94705,-3.145327,-0.9591416,-0.1144332,-0.08213186,47.68056,-9.105035,-27.92889,1007.864
11.456802368,-24.22144,-4.809332,-3.512524,-1.021512,-0.194961,-0.08039996,47.32546,-9.835302,-27.92248,1007.864
11.489361286,3.896611,-6.117913,2.17902,-1.239667,-0.1218131,-0.118227,46.58926,-9.845762,-28.81224,1007.864
11.524425983,22.97012,-5.225699,-4.124518,-0.9047643,-0.183233,-0.08033372,46.58926,-9.845762,-28.81224,1007.864
11.556985378,24.939,-1.716323,-2.104938,-0.7614071,-0.0994978,0.1910131,46.94273,-9.118077,-29.26473,1007.864
11.589544773,1.558568,1.198243,0.7714339,-0.9353486,-0.1167973,0.07732347,46.58926,-9.845762,-28.81224,1007.864
11.622100353,-0.964058,0.7223951,1.19983,-1.077022,-0.1615001,-0.1160892,46.58926,-9.845762,-28.81224,1007.865
11.657165050,5.12716,-0.5267046,2.24022,-1.006135,-0.171555,-0.05347198,46.95978,-10.20951,-29.2569,1007.865
11.689724922,-7.424441,-1.418919,2.546217,-1.026845,-0.1528009,-0.06863393,46.95815,-10.21209,-29.70297,1007.861
11.722283840,-4.348068,-4.214523,6.156981,-0.9549633,-0.1571727,0.02935549,46.95815,-10.21209,-29.70297,1007.861
11.757348537,16.81738,-9.805731,10.13494,-0.9999074,-0.03352335,-0.03638745,46.59494,-10.20957,-28.80963,1007.861
11.789908409,1.74315,-5.820508,6.891374,-0.9818916,-0.06176759,0.02697,46.22357,-10.21997,-30.14666,1007.861
11.822463512,-9.14721,-2.965423,4.994192,-1.023362,-0.1049111,-0.009418068,46.22357,-10.21997,-30.14666,1007.863
11.857527733,-1.025585,0.3655095,1.016232,-1.013668,-0.1488785,-0.03861744,46.23656,-10.94501,-29.69537,1007.863
11.890087604,10.6031,0.4249904,-1.003348,-0.9760798,-0.1010542,0.02588165,45.86278,-10.58643,-30.14286,1007.859
11.922646999,9.2495,1.555128,-2.961729,-0.9497531,-0.1002935,0.04085252,45.86278,-10.58643,-30.14286,1007.859
11.957711220,11.21838,5.48087,-4.369316,-0.9807392,-0.1309891,-0.03064227,45.86278,-10.58643,-30.14286,1007.86
11.990271091,27.33857,5.48087,-3.206527,-0.9855807,-0.07789075,0.03494499,45.87414,-11.31405,-30.13764,1007.86
12.022827148,33.36826,10.83416,-6.756092,-1.072215,-0.07629963,-0.1346124,45.87414,-11.31405,-30.13764,1007.862
12.055386066,52.31872,17.43654,-1.737741,-1.085642,-0.02084473,-0.1835412,46.24388,-11.30623,-29.24668,1007.858
12.090450764,73.23805,38.43331,3.158211,-1.211297,-0.1725112,-0.110327,46.25687,-12.03127,-28.79539,1007.858
12.123010159,100.4332,38.37383,-0.02415815,-1.39174,-0.3965583,0.1174831,46.25687,-12.03127,-28.79539,1007.859
12.155569553,67.02378,30.99819,-11.52964,-1.346077,-0.381969,0.1394136,46.29506,-13.83483,-26.1059,1007.859
12.190633774,117.0456,31.47404,7.686966,-1.313071,-0.3077903,-0.1514462,47.06271,-15.63863,-24.37466,1007.861
12.223189831,184.9104,27.5483,35.47149,-1.179336,0.01349782,-0.09591899,47.06271,-15.63863,-24.37466,1007.861
12.255748749,178.8807,40.45567,37.18508,-1.177627,0.1612323,-0.08786623,48.57246,-17.79541,-21.68732,1007.861
12.290813446,131.1354,59.96541,21.33443,-1.138578,0.1244166,-0.4277961,49.04996,-23.95466,-17.6932,1007.861
12.323373318,109.1086,70.55302,4.565796,-1.103888,0.2153848,-0.347168,49.04996,-23.95466,-17.6932,1007.859
12.355933189,63.76283,82.80608,-9.326467,-1.063622,0.1616028,-0.2687536,50.31197,-29.37761,-13.19707,1007.859
12.390996933,39.70559,100.5909,-20.58716,-1.026942,0.06297159,-0.277061,51.50929,-35.24168,-11.50159,1007.855
12.423552513,20.01681,112.9034,-21.07675,-1.006638,0.01980779,-0.3454119,51.50929,-35.24168,-11.50159,1007.853
12.456112385,24.07762,124.2643,-26.4011,-0.9907131,-0.06807262,-0.4255584,53.42407,-40.69004,-12.23306,1007.853
12.488671780,34.04507,131.9374,-25.85031,-0.9533633,-0.1447329,-0.4538331,50.13046,-45.45676,-14.41858,1007.852
12.523736000,59.51743,142.406,-14.95681,-0.9721806,0.04324313,-0.48285,50.13046,-45.45676,-14.41858,1007.85
12.556295872,81.97495,142.6439,-3.512524,-0.9972443,0.1568987,-0.4322708,41.68338,-43.30967,-10.07363,1007.848
12.588854790,53.73385,151.8635,4.749395,-0.9356065,0.04409758,-0.4591868,34.63026,-35.67381,-2.140309,1007.846
12.623915672,63.20908,153.7074,17.35647,-0.853736,0.0963584,-0.3883788,34.63026,-35.67381,-2.140309,1007.846
12.656475067,50.10373,152.5772,35.41029,-0.7860984,0.1357968,-0.4236123,30.525,-29.04758,5.790901,1007.845
12.689034939,35.89089,140.9785,55.66729,-0.8338874,0.07358126,-0.3462083,27.89709,-23.57315,11.94134,1007.841
12.724098682,-12.10053,113.7957,64.4188,-0.7665252,0.1031149,-0.3419558,24.49299,-19.56745,16.76658,1007.84
12.756658554,-48.70937,96.4867,76.53629,-0.42632,0.1268309,-0.5193216,24.49299,-19.56745,16.76658,1007.83
12.789218426,-14.80774,90.71705,99.18006,-0.474024,-0.03530786,-0.4845292,20.42778,-16.668,19.88127,1007.83
12.824278355,-31.60473,50.27002,103.6476,-0.5483611,-0.102105,-0.3312793,17.12042,-15.58784,22.05077,1007.827
12.856838226,-78.61171,22.43294,104.7492,-0.4145168,0.01516798,-0.4059929,17.12042,-15.58784,22.05077,1007.823
12.889398098,-100.8231,-0.6456665,104.5044,-0.4807141,-0.06036076,-0.5516109,14.17893,-14.87881,22.50113,1007.82
12.924461842,-96.94689,-38.05917,98.93526,-0.4781409,-0.3166039,-0.5197529,13.07951,-14.88675,22.5047,1007.816
12.957021713,-102.6074,-49.65796,78.80066,-0.5572482,-0.4388168,-0.5901806,13.07951,-14.88675,22.5047,1007.816
12.989581585,-70.12092,-61.25674,48.75176,-0.4200045,-0.6630592,-0.9011618,12.35709,-15.9938,20.73062,1007.815
13.022136688,40.56697,-59.88868,28.73956,-0.3717234,-0.5946634,-0.9470525,12.01763,-17.81772,20.36252,1007.813
13.057200909,93.0499,-48.28989,6.21818,-0.3854854,-0.2796659,-0.892929,12.01763,-17.81772,20.36252,1007.809
13.089760780,61.36325,-45.85118,-17.52719,-0.3971189,-0.3369334,-0.9440628,13.10871,-17.07736,21.18215,1007.808
13.122320652,55.14898,-53.16733,-42.00694,-0.4020981,-0.3491068,-0.8470849,14.1724,-14.88914,20.71684,1007.808
13.157384396,77.29887,-3.917118,-27.86988,-0.3159537,0.273676,-1.493609,14.1724,-14.88914,20.71684,1007.808
13.189944267,59.33285,30.3439,-31.90904,-0.5990814,0.273174,-1.765484,14.86255,-12.34197,19.86777,1007.806
13.222499847,23.46234,19.99422,-31.84785,-0.8574527,0.1072289,-0.8624021,15.1947,-10.15683,19.78719,1007.802
13.257563591,-15.91523,22.90878,-42.80254,-1.026911,-0.2231251,-0.631874,15.1947,-10.15683,19.78719,1007.802
13.290123463,-32.83528,-8.913517,-29.09387,-0.6934594,-0.149256,-0.7427289,15.17523,-8.696417,20.66889,1007.802
13.322683334,-48.21714,-3.024904,-19.60797,-0.5420198,-0.03282519,-0.7957203,15.52871,-7.968731,20.2164,1007.802
13.357747078,-29.08211,-17.95462,-1.492944,-0.4240473,0.06443309,-0.6841404,15.52871,-7.968731,20.2164,1007.8
13.390306950,-1.210168,-5.463623,11.42013,-0.2807302,0.1490815,-0.8246168,15.54436,-9.062378,19.84189,1007.8
13.422863007,36.07547,22.19501,3.525407,-0.450926,0.007662778,-0.9933751,15.91059,-9.0601,19.77698,1007.798
13.455421925,55.02593,29.86805,2.056622,-0.5050367,-0.01665773,-0.930855,15.91059,-9.0601,19.77698,1007.798
13.490486622,51.76497,24.15788,6.768975,-0.6269578,0.03678827,-0.7438217,15.54575,-9.060163,20.22424,1007.798
13.523046493,35.0295,28.7974,-6.144098,-0.6190034,0.01804271,-0.7668341,15.89276,-7.597108,21.10475,1007.798
13.555605411,-9.516375,13.15391,-14.95681,-0.6297703,-0.1387836,-0.9379148,15.89276,-7.597108,21.10475,1007.798
13.590670109,7.034512,15.23574,-17.71078,-0.4957792,-0.1376618,-0.9075743,14.78267,-6.814209,21.54873,1007.8
13.623225689,9.187972,10.12038,-2.716932,-0.4319225,-0.0348069,-0.7924732,14.40484,-6.089234,21.5447,1007.802
13.655785561,30.35342,20.41059,4.015002,-0.4650801,-0.04847273,-0.8743404,14.40484,-6.089234,21.5447,1007.802
13.690849304,33.49132,14.52197,1.444627,-0.5269237,-0.1295438,-0.8585993,14.39916,-5.725423,21.54208,1007.802
13.723409176,30.29189,13.33235,-3.390125,-0.487732,-0.1442111,-0.8342088,14.39674,-5.356446,22.43162,1007.802
13.755969047,11.77213,15.53315,-5.042509,-0.4961951,-0.131615,-0.8494765,14.39674,-5.356446,22.43162,1007.802
13.791032791,8.01895,19.10201,-1.003348,-0.5282271,-0.1046982,-0.8751372,14.39269,-4.990052,22.87508,1007.799
13.823588371,25.98497,20.64851,1.689425,-0.4865095,-0.03685492,-0.8190375,14.02459,-4.995282,22.43019,1007.799
13.856148243,-3.855849,21.24332,-11.65204,-0.4306725,-0.1868523,-0.8059117,14.02459,-4.995282,22.43019,1007.803
13.888707638,-2.379189,10.59623,-5.164907,-0.4862033,-0.1514499,-0.8410879,13.65406,-4.631536,22.87484,1007.799
13.923771858,12.32587,15.59263,-3.206527,-0.3731926,-0.1666957,-0.904752,14.00917,-3.901267,22.86843,1007.799
13.956331730,33.55285,10.23935,-3.084128,-0.3790674,-0.198525,-0.869462,14.00917,-3.901267,22.86843,1007.799
13.988891125,2.973699,6.611008,-6.817291,-0.4001499,-0.1662491,-0.9728753,12.91707,-4.270435,23.32068,1007.799
14.023951530,29.30745,5.421389,-7.245687,-0.3682875,-0.1401186,-0.9633232,13.26813,-3.173773,23.75774,1007.799
14.056511402,-0.5333658,3.458518,-11.71324,-0.4899026,-0.1318837,-0.6667702,13.26813,-3.173773,23.75774,1007.799
14.089070320,-20.34521,0.3060285,-9.326467,-0.434702,-0.2280366,-1.057409,12.89598,-2.812609,23.75631,1007.795
14.124135017,-0.410311,-2.430095,-9.326467,-0.5235046,-0.1647138,-1.022521,12.52788,-2.817839,23.31142,1007.795
14.156694889,-12.22358,-7.84286,-8.775672,-0.4511505,-0.2578815,-0.9548889,12.52788,-2.817839,23.31142,1007.795
14.189253807,-1.025585,-3.143866,-15.50761,-0.4341819,-0.2618039,-1.005236,12.15736,-2.454092,23.75608,1007.795
14.224314213,20.63208,1.138762,-14.65081,-0.3252163,-0.1988823,-0.9565272,12.53356,-3.18165,23.31404,1007.797
14.256874085,58.1023,12.5591,-10.61165,-0.2672953,-0.1876168,-0.9167744,12.53356,-3.18165,23.31404,1007.797
14.289433003,76.9297,17.97187,-3.206527,-0.3664477,-0.163621,-0.9201796,12.52383,-2.451445,23.75489,1007.797
14.321992874,24.44678,14.70042,-0.6361521,-0.3419728,-0.1574093,-1.039503,12.51978,-2.085052,24.19835,1007.797
14.357057571,26.96941,12.85651,4.688195,-0.2039064,-0.1832549,-1.264317,12.51978,-2.085052,24.19835,1007.792
14.389616490,45.67376,24.75269,16.31608,-0.1267403,-0.1009754,-1.181929,12.13384,-0.6272893,25.08124,1007.792
14.422172546,1.189403,34.62653,29.96354,-0.08662493,0.09446024,-0.9740341,12.14255,-0.9863029,25.91227,1007.792
14.457236767,-72.52049,80.12944,34.4311,-0.03915815,0.002548027,-0.7207426,12.13203,0.1154613,27.68872,1007.792
14.489796162,-133.7403,96.96255,21.88523,-0.2404108,-0.2563077,-0.8047382,12.13203,0.1154613,27.68872,1007.792
14.522356033,-109.2524,86.91027,34.7371,-0.1675998,-0.2634951,-0.93833,11.41535,-0.6097045,29.03454,1007.792
14.557420254,-49.81686,83.04401,45.0798,-0.1671399,-0.1812139,-0.7562923,9.650381,-4.617107,30.40742,1007.792
14.589979648,-15.11537,78.10709,42.99902,-0.2701831,-0.1586489,-0.5644314,9.650381,-4.617107,30.40742,1007.786
14.622535229,0.8202382,57.5267,36.75668,-0.2526075,-0.1722963,-0.6120274,7.834051,-5.350583,31.69308,1007.788
14.657599926,8.818808,46.76064,28.67836,-0.1348644,-0.1463812,-0.7354902,6.386844,-6.450019,32.15174,1007.79
14.690158844,-10.00859,38.13591,23.17041,-0.07089777,-0.1639458,-0.7508045,6.386844,-6.450019,32.15174,1007.79
14.722718716,-41.81829,35.93511,16.92807,-0.05997166,-0.1789952,-0.9356947,4.914492,-5.725235,33.48948,1007.79
14.755278587,-41.44912,38.25487,-0.7585509,-0.001463065,-0.350796,-0.9296714,4.166138,-4.636514,33.9301,1007.792
14.790342331,-136.6321,-22.47517,-1.064548,-0.7538862,0.2368629,-3.510396,4.166138,-4.636514,33.9301,1007.792
14.822898388,60.62493,12.91599,22.43602,-0.3703311,0.653978,-1.8063,3.807767,-5.371948,33.04437,1007.793
14.855457783,78.22178,36.292,16.62208,0.1821526,0.03135264,-1.498754,4.218215,-7.971446,33.95404,1007.793
14.890522003,-24.34449,35.22134,-5.532104,-0.2469708,0.01521539,-1.000707,4.218215,-7.971446,33.95404,1007.795
14.923081398,-7.116804,-2.846461,1.444627,-0.2403449,0.06696425,-1.03231,4.179131,-5.361552,34.3814,1007.795
14.955641270,-3.486684,-14.74265,0.9550322,0.006120748,0.00642495,-0.9077941,2.653801,-5.369998,34.83242,1007.797
14.990705013,-10.86998,-14.62369,0.09824064,0.02964595,0.0007449915,-0.874067,2.653801,-5.369998,34.83242,1007.799
15.023261070,-4.040431,-13.79095,1.873023,0.02010083,0.009245219,-0.9532019,3.455921,-6.09705,33.94292,1007.799
15.055820942,-23.17547,-6.772203,0.09824064,0.00649172,-0.009052088,-1.029358,3.457552,-6.094467,34.389,1007.799
15.090884686,-33.01986,2.506823,-1.554143,-0.009031247,0.04664773,-1.137736,3.457552,-6.094467,34.389,1007.794
15.123444557,-29.88196,6.254122,-1.248146,-0.01297732,0.06333564,-1.078506,4.192913,-6.458151,33.49709,1007.798
15.156004429,-24.46755,0.5439523,-1.86014,0.0108768,0.08315809,-0.9878352,3.828073,-6.458214,33.94434,1007.798
15.191068172,-19.54535,1.317204,-3.757321,0.00603513,0.07258041,-1.026662,3.828073,-6.458214,33.94434,1007.8
15.223623753,-24.52907,5.599832,-5.776902,0.00217124,0.1166482,-1.002784,4.218215,-7.971446,33.95404,1007.8
15.256183624,-12.28511,5.48087,-5.287306,0.06134237,0.1478176,-0.9545113,3.069088,-8.707449,33.96302,1007.8
15.288743019,7.526731,6.432565,-2.349735,-0.01415529,0.1397381,-0.9970988,3.069088,-8.707449,33.96302,1007.797
15.323807240,29.43051,7.503222,1.19983,0.01973258,0.1153927,-0.9970195,3.871208,-9.434502,33.07352,1007.797
15.356367111,42.16669,5.302427,2.974612,0.02472104,0.06535505,-0.9876368,3.08045,-9.43507,33.96824,1007.797
15.388926029,49.30387,6.670489,4.871794,0.003964835,0.04144388,-1.025685,3.08045,-9.43507,33.96824,1007.797
15.423986912,49.79609,7.622184,6.095781,0.03357517,0.01114226,-1.010708,3.486905,-7.974156,34.40249,1007.797
15.456546307,41.736,6.07568,5.850984,0.04642225,0.001930037,-0.9789579,3.041366,-6.825177,34.39561,1007.797
15.489105702,28.87676,3.993847,4.688195,0.01686125,-0.01155926,-0.9830022,3.041366,-6.825177,34.39561,1007.799
15.524169922,17.92487,2.566304,2.668615,0.02247691,-0.03241428,-0.9765586,2.291381,-5.739038,34.39015,1007.793
15.556729793,12.57198,1.555128,1.322229,0.03722676,-0.04817747,-0.9946982,2.274337,-4.647606,34.38232,1007.793
15.589289188,7.957423,1.67409,0.8326334,0.05245936,-0.06012177,-0.9963452,2.274337,-4.647606,34.38232,1007.793
15.624349594,1.066348,0.6034332,-0.02415815,0.05002375,-0.05824944,-0.9876136,1.902185,-4.286442,34.38089,1007.793
15.656909466,-5.578618,-2.13269,-0.4525539,0.0430858,-0.0495568,-0.9952083,2.268656,-4.283795,34.37971,1007.794
15.689468384,-10.43929,4.291252,2.362618,-0.1183994,-0.02969597,-1.016018,2.268656,-4.283795,34.37971,1007.794
15.722028255,-12.40816,0.4249904,-0.5749528,0.03371485,-0.04327712,-1.013472,2.277599,-4.64244,35.27446,1007.794
15.757092953,-12.28511,0.2465476,-1.370545,0.01167186,-0.03190983,-1.011343,2.264605,-3.917401,34.82317,1007.794
15.789651871,-8.716517,0.1870666,-1.492944,0.04707042,-0.0150045,-0.9937181,2.264605,-3.917401,34.82317,1007.796
15.822207928,-2.379189,0.3655095,-0.5137534,0.04218039,-0.01217672,-0.9883533,2.281649,-5.008834,34.831,1007.796
15.857272148,3.096754,0.6034332,0.2206394,0.03970837,-0.01214034,-1.003335,1.909497,-4.64767,34.82958,1007.798
15.889831543,6.665347,1.614609,0.5878358,0.04133586,-0.02526721,-0.9977362,1.909497,-4.64767,34.82958,1007.798
15.922390938,7.834368,1.733571,0.7714339,0.04724691,-0.03244888,-1.004619,2.275968,-4.645023,34.82839,1007.798
15.957455635,7.034512,1.912014,0.5266364,0.0463043,-0.03251873,-0.9920511,2.642438,-4.642376,34.8272,1007.798
15.990014553,5.557852,1.376685,0.5266364,0.0434221,-0.03595819,-0.9921008,2.642438,-4.642376,34.8272,1007.796
16.022570610,3.342864,0.781876,0.2818388,0.04392882,-0.03836599,-0.9955217,2.277599,-4.64244,35.27446,1007.796
16.057634354,1.004821,0.3060285,-0.1465569,0.04831822,-0.04022392,-1.001838,1.903816,-4.283859,34.82697,1007.796
16.090194225,-0.1642011,-0.05085711,0.03704125,0.04400053,-0.04515554,-0.9985257,1.903816,-4.283859,34.82697,1007.796
16.122754097,-0.5948933,-0.05085711,-0.1465569,0.04645456,-0.04658591,-0.997583,1.535714,-4.289088,34.38208,1007.796
16.155313969,-1.271695,0.008623828,-0.08535755,0.04497885,-0.04562655,-0.9990171,2.273549,-4.276046,35.71792,1007.796
16.190377712,-1.517805,-0.1103381,0.03704125,0.04734591,-0.0397639,-0.99893,2.273549,-4.276046,35.71792,1007.79
16.222933292,-1.210168,-0.4077428,-0.2077563,0.04246279,-0.03885118,-0.999878,1.898135,-3.920048,34.82436,1007.79
16.255492687,-2.071552,-0.05085711,-0.08535755,0.04776077,-0.03344292,-0.9983506,1.896504,-3.922631,34.37828,1007.79
16.290556908,-1.333223,0.008623828,-0.08535755,0.04196495,-0.03741079,-0.9974387,2.636757,-4.278565,34.82459,1007.79
16.323116779,-0.4718384,-0.05085711,0.03704125,0.04384672,-0.03250872,-1.001233,2.636757,-4.278565,34.82459,1007.791
16.355676174,0.0819087,0.1870666,-0.02415815,0.04729885,-0.03682426,-1.004202,2.277599,-4.64244,35.27446,1007.791
16.390740395,1.066348,0.3655095,0.03704125,0.0448963,-0.03881723,-1.000363,1.905447,-4.281276,35.27304,1007.793
16.423296452,0.9432931,0.06810477,0.03704125,0.04921312,-0.03198153,-0.994946,1.905447,-4.281276,35.27304,1007.793
16.455855370,0.7587107,0.008623828,0.03704125,0.04436863,-0.03399306,-0.9940052,1.909497,-4.64767,34.82958,1007.795
16.490920067,0.4510734,0.1870666,-0.08535755,0.048288,-0.03731506,-1.000344,1.909497,-4.64767,34.82958,1007.791
16.523479938,1.373985,0.3060285,0.2206394,0.04727668,-0.03440571,-1.001748,1.909497,-4.64767,34.82958,1007.792
16.556038856,2.173842,0.3655095,0.2206394,0.04586735,-0.0378481,-0.9969658,1.541396,-4.652899,34.38469,1007.791
16.588598728,2.050787,0.3060285,0.09824064,0.05511206,-0.03771427,-0.9998729,2.264605,-3.917401,34.82317,1007.791
16.623659134,1.74315,0.2465476,0.2206394,0.0502736,-0.03973678,-0.9965155,2.264605,-3.917401,34.82317,1007.791
16.656218052,1.312458,0.1870666,0.03704125,0.04536957,-0.03783467,-1.001315,1.903816,-4.283859,34.82697,1007.791
16.688777924,1.004821,-0.2887809,-0.02415815,0.04495464,-0.04272868,-0.9951059,2.271918,-4.278629,35.27185,1007.792
16.723841667,0.1434362,-0.7051474,-0.3301551,0.0483701,-0.04317234,-0.9946325,2.271918,-4.278629,35.27185,1007.792
16.756401539,-0.04114621,-0.6456665,-0.2077563,0.04878457,-0.03732629,-0.9964773,2.266236,-3.914818,35.26924,1007.792
16.788961410,-1.88697,-0.8241093,-0.1465569,0.04198959,-0.0412607,-1.005715,1.899766,-3.917465,35.27043,1007.794
16.824021339,-2.625299,-0.8835903,-0.2689557,0.04055125,-0.04179643,-0.9989544,1.899766,-3.917465,35.27043,1007.794
16.856581211,-2.071552,-0.9430712,-0.3301551,0.04194645,-0.03642578,-1.000324,2.632707,-3.912171,35.26805,1007.792
16.889141083,-0.964058,0.06810477,-0.1465569,0.04444236,-0.04126192,-0.9984667,2.270287,-4.281212,34.82578,1007.792
16.924204826,0.8817657,1.198243,0.03704125,0.04197382,-0.03837821,-0.9984203,2.270287,-4.281212,34.82578,1007.792
16.956764698,1.98926,1.555128,0.09824064,0.04969201,-0.03148487,-0.9959056,2.266236,-3.914818,35.26924,1007.794
16.989324570,3.342864,1.138762,0.15944,0.05121239,-0.03537947,-0.9901659,2.280018,-5.011416,34.38493,1007.794
17.021879673,2.358425,0.5439523,0.2818388,0.05028893,-0.04166724,-0.9994452,2.280018,-5.011416,34.38493,1007.794
17.056943893,2.23537,0.1275857,0.15944,0.05466383,-0.04207182,-1.004773,1.898135,-3.920048,34.82436,1007.794
17.089503288,1.49704,0.06810477,0.09824064,0.05036095,-0.0465549,-0.993236,1.896504,-3.922631,34.37828,1007.794
17.122063160,1.620095,-0.2887809,0.15944,0.05328375,-0.04509204,-0.9859658,1.896504,-3.922631,34.37828,1007.794
17.157127380,1.312458,-0.4077428,0.2206394,0.04650531,-0.0509591,-0.9976498,2.623764,-3.553527,34.37329,1007.789
17.189686775,0.2049636,-0.5267046,0.09824064,0.04447626,-0.04560433,-1.0053,1.531664,-3.922695,34.82555,1007.789
17.222242355,-0.1642011,-0.8241093,-0.2077563,0.054696,-0.04403304,-1.000936,1.531664,-3.922695,34.82555,1007.789
17.257307053,-0.7179483,-0.8241093,-0.08535755,0.03476746,-0.04578627,-0.9932092,1.905447,-4.281276,35.27304,1007.791
17.289865971,-1.948497,-0.3482618,-0.1465569,0.04266208,-0.05491035,-0.9948061,2.636757,-4.278565,34.82459,1007.791
17.322425842,0.5741283,-0.3482618,-0.02415815,0.0416009,-0.0495319,-1.004874,2.636757,-4.278565,34.82459,1007.788
17.357489586,0.8817657,0.3655095,-0.02415815,0.0473838,-0.04363798,-1.001889,1.905447,-4.281276,35.27304,1007.788
17.390049458,-0.04114621,1.317204,0.09824064,0.04781151,-0.0378161,-0.9984174,2.636757,-4.278565,34.82459,1007.79
17.422605038,-0.6564208,0.9603189,0.03704125,0.05314693,-0.0353299,-0.9954843,2.636757,-4.278565,34.82459,1007.79
17.457668781,0.0819087,-0.4672237,0.03704125,0.05670941,-0.04935923,-0.9995688,2.632707,-3.912171,35.26805,1007.79
17.490228653,0.9432931,-1.002552,-0.08535755,0.04743814,-0.04801776,-1.000506,2.270287,-4.281212,34.82578,1007.792
17.522788525,0.8202382,-0.6456665,-0.02415815,0.04357883,-0.05098841,-0.9995809,2.270287,-4.281212,34.82578,1007.792
17.555347919,1.189403,-0.3482618,0.15944,0.04352283,-0.04565439,-0.9970827,1.898135,-3.920048,34.82436,1007.794
17.590412140,1.98926,-0.1103381,-0.08535755,0.04495458,-0.04130172,-0.9883168,2.636757,-4.278565,34.82459,1007.794
17.622968197,1.804677,0.4844713,0.2206394,0.04154047,-0.04371418,-1.001885,2.636757,-4.278565,34.82459,1007.794
17.655527115,1.250931,0.4844713,0.03704125,0.04888574,-0.04797453,-1.005824,1.903816,-4.283859,34.82697,1007.793
17.690591812,-0.9025306,0.4249904,-0.02415815,0.04500906,-0.04853541,-1.000512,2.264605,-3.917401,34.82317,1007.793
17.723150730,-2.194607,-0.1103381,-0.2077563,0.04939067,-0.04657419,-0.9917852,2.264605,-3.917401,34.82317,1007.795
17.755710602,-1.702388,-0.3482618,-0.1465569,0.04994406,-0.05239655,-0.9923579,1.894084,-3.553654,35.26781,1007.795
17.790775299,0.02038124,-0.3482618,-0.02415815,0.04741477,-0.045597,-0.9985357,2.264605,-3.917401,34.82317,1007.795
17.823330402,1.250931,-0.5861856,0.09824064,0.04743371,-0.04753404,-1.000015,2.264605,-3.917401,34.82317,1007.796
17.855890274,0.6356558,-0.3482618,-0.08535755,0.04446973,-0.04321434,-0.996563,2.636757,-4.278565,34.82459,1007.796
17.890954494,0.2664911,-0.1103381,0.15944,0.04389138,-0.03544395,-0.9969273,2.275968,-4.645023,34.82839,1007.796
17.923513889,0.8202382,-0.2887809,0.09824064,0.04747875,-0.04999436,-0.9932857,2.275968,-4.645023,34.82839,1007.798
17.956073284,-0.6564208,-0.5267046,-0.08535755,0.03827476,-0.05495871,-0.9967362,1.899766,-3.917465,35.27043,1007.798
17.988632679,-0.7179483,-0.2887809,-0.08535755,0.04548106,-0.04612369,-0.9951582,1.903816,-4.283859,34.82697,1007.794
18.023693085,-1.025585,-0.4077428,-0.2689557,0.04353011,-0.04709454,-1.000972,1.896504,-3.922631,34.37828,1007.796
18.056252956,-1.88697,-0.7646284,-0.2689557,0.04404563,-0.04904281,-0.998585,1.896504,-3.922631,34.37828,1007.799
18.088811874,-0.7794757,-0.8835903,-0.2077563,0.04730848,-0.03684185,-1.000335,3.01054,-4.637146,35.27208,1007.801
18.123876572,0.5126009,-0.7051474,0.09824064,0.04251594,-0.04322875,-0.9989781,1.898135,-3.920048,34.82436,1007.801
18.156436443,1.49704,-0.3482618,0.15944,0.04016864,-0.05150558,-1.002486,1.898135,-3.920048,34.82436,1007.801
18.188995361,3.404391,0.4249904,0.4042376,0.04553344,-0.05145112,-0.9991065,2.636757,-4.278565,34.82459,1007.798
18.224055767,2.789117,0.3655095,0.7102346,0.03973116,-0.05445595,-0.9962464,2.270287,-4.281212,34.82578,1007.798
18.256615162,-1.210168,0.06810477,-0.02415815,0.0475376,-0.05628481,-0.9991822,2.270287,-4.281212,34.82578,1007.798
18.289175034,-5.332508,0.008623828,-0.2077563,0.04456475,-0.05099768,-0.9947483,2.264605,-3.917401,34.82317,1007.798
18.324239254,-6.686111,-0.169819,-0.6361521,0.04398279,-0.04322069,-0.9965626,3.003228,-4.275918,34.8234,1007.8
18.356798649,-5.02487,-0.4672237,-0.5749528,0.04297988,-0.04032673,-0.994584,3.003228,-4.275918,34.8234,1007.802
18.389358521,-2.010025,-0.169819,-0.08535755,0.04154642,-0.04229821,-0.9926792,2.271918,-4.278629,35.27185,1007.804
18.421914101,0.389546,0.6034332,0.09824064,0.04140447,-0.03442916,-1.013344,2.271918,-4.278629,35.27185,1007.804
18.456977844,3.096754,1.495647,0.4042376,0.04760824,-0.02222526,-1.007363,2.271918,-4.278629,35.27185,1007.804
18.489537716,4.327303,2.209419,0.6490352,0.04197787,-0.03933684,-1.001335,1.899766,-3.917465,35.27043,1007.804
18.522097111,7.034512,2.149938,0.8938327,0.04361341,-0.05295402,-0.9947772,1.531664,-3.922695,34.82555,1007.801
18.557161331,7.157566,2.090457,0.8938327,0.04717355,-0.06840593,-1.006617,1.531664,-3.922695,34.82555,1007.801
18.589721203,4.450358,2.685266,0.3430382,0.05478304,-0.05275303,-1.006869,2.271918,-4.278629,35.27185,1007.801
18.622276306,3.158282,2.149938,0.15944,0.04644329,-0.04561409,-0.9975682,2.258924,-3.55359,34.82056,1007.801
18.657341003,-2.071552,3.399037,-0.2689557,0.04260127,-0.04956755,-0.9942411,2.258924,-3.55359,34.82056,1007.801
18.689899921,0.5741283,3.280076,0.4042376,0.05249491,-0.06541842,-1.00706,1.888403,-3.189844,35.26521,1007.797
18.722459793,-0.4718384,3.636961,0.03704125,0.04777673,-0.07527043,-0.991738,2.267867,-3.912235,35.71531,1007.797
18.757524013,-9.024155,5.361908,0.09824064,0.06158577,-0.05121081,-1.005886,2.267867,-3.912235,35.71531,1007.797
18.790083408,-9.270265,4.469694,1.444627,0.06096072,-0.04002586,-1.009098,2.253243,-3.18978,34.81794,1007.799
18.822638988,-14.68468,5.064504,1.811824,0.04190015,-0.03253631,-1.000748,1.903816,-4.283859,34.82697,1007.799
18.855198383,-18.25327,8.930764,-1.370545,0.0574716,-0.0337403,-1.011899,1.903816,-4.283859,34.82697,1007.799
18.890262604,-11.66984,7.860108,-1.431744,0.07834633,-0.02288714,-0.9875847,1.537345,-4.286506,34.82816,1007.8
18.922822475,-5.886255,0.9603189,-2.166137,0.03353757,-0.0177459,-0.9642609,1.917598,-5.380457,33.94265,1007.798
18.955381870,-5.824727,-0.8835903,0.3430382,0.0628868,-0.00386981,-1.045285,1.917598,-5.380457,33.94265,1007.799
18.990446091,0.5126009,2.209419,0.4042376,0.08580215,0.002558647,-1.004122,0.8214478,-5.383231,34.83837,1007.799
19.023001194,0.5126009,-2.311133,1.016232,0.06010902,-0.001792628,-0.9761277,1.187918,-5.380585,34.83718,1007.797
19.055561066,7.403676,-9.329884,4.1986,0.08689246,0.0004562922,-0.9664517,1.187918,-5.380585,34.83718,1007.797
19.090625763,8.695753,-5.225699,3.158211,0.06471901,-0.02926088,-1.014255,1.199281,-6.108206,34.8424,1007.801
19.123184681,12.63351,-9.508327,5.483788,0.0851355,-0.02322262,-1.001131,1.176556,-4.652963,34.83195,1007.799
19.155744553,24.939,-6.355837,4.015002,0.07883342,-0.02573472,-1.001163,1.176556,-4.652963,34.83195,1007.799
19.190808296,13.18726,-6.058432,5.850984,0.04442755,-0.04171047,-1.006691,1.187918,-5.380585,34.83718,1007.801
19.223364353,25.92344,-7.783379,9.21695,0.0425817,-0.05143427,-1.011188,1.531664,-3.922695,34.82555,1007.795
19.255924225,33.36826,-8.972998,8.482558,0.03602034,-0.07672231,-1.026552,1.531664,-3.922695,34.82555,1007.796
19.290987969,38.22893,-9.627288,9.033353,0.02874753,-0.07830166,-1.020769,1.543027,-4.650316,34.83076,1007.796
19.323547840,46.04292,-10.69795,4.015002,0.0721166,-0.1248233,-1.033121,1.888403,-3.189844,35.26521,1007.796
19.356106758,56.87175,-16.17019,3.770205,0.03960906,-0.1648841,-0.9742456,1.888403,-3.189844,35.26521,1007.796
19.388666630,27.58468,-19.44164,-0.8809497,0.0341108,-0.1585118,-1.001696,2.243511,-2.459575,35.25879,1007.796
19.423727036,-3.855849,-17.12189,-4.124518,0.04991768,-0.1515848,-0.8773773,2.949677,-0.6326451,35.68943,1007.792
19.456285954,-25.39046,-12.00653,-1.554143,0.02270107,-0.2237978,-0.999297,2.949677,-0.6326451,35.68943,1007.792
19.488845825,-34.25041,-12.24445,0.6490352,-0.04876648,-0.2277917,-0.967386,2.931003,0.4562039,35.23553,1007.794
19.523909569,-31.72779,-13.61251,4.076201,0.02618733,-0.1583717,-1.054857,3.373965,-0.6347232,34.7959,1007.794
19.556469440,-15.1769,-18.60891,2.607416,-0.07700039,-0.202073,-1.03899,3.373965,-0.6347232,34.7959,1007.792
19.589029312,18.17098,-33.12226,2.607416,-0.05292945,-0.2126101,-1.00437,4.12395,-1.720862,34.80136,1007.789
19.624089241,7.403676,-24.02168,2.301419,-0.05529556,-0.09070135,-0.9933242,4.12558,-1.718279,35.24743,1007.791
19.656649113,1.066348,-21.88036,4.504597,-0.07975188,-0.1173983,-0.9642219,4.12558,-1.718279,35.24743,1007.793
19.689208031,-16.34592,-20.33386,1.505827,-0.06406955,-0.1140487,-0.9081141,5.223361,-1.712922,34.79779,1007.793
19.724272728,-13.94635,-18.54943,8.29896,-0.1267034,-0.02452485,-1.00143,5.595513,-2.074086,34.79921,1007.793
19.756831646,-12.7158,-20.57178,4.015002,-0.06685445,-0.1044043,-1.005606,6.326823,-2.071375,34.35077,1007.793
19.789391518,6.665347,-16.40812,6.462978,-0.1101857,-0.06032972,-0.9894241,6.326823,-2.071375,34.35077,1007.795
19.821947575,-1.88697,-16.22967,5.361389,-0.1611773,-0.06838178,-0.9682292,7.059765,-2.066082,34.34839,1007.797
19.857011318,-3.609739,-19.02528,6.646576,-0.1320903,-0.09291598,-0.9405957,7.071127,-2.793703,34.35361,1007.797
19.889571190,-2.317662,-13.85044,5.789784,-0.1030627,-0.1254271,-0.9754395,7.071127,-2.793703,34.35361,1007.794
19.922130108,-8.593463,-13.79095,2.607416,-0.1462708,-0.1865768,-1.011617,7.424604,-2.066018,33.90112,1007.796
19.957194805,9.372555,-12.18497,6.401778,-0.1112992,-0.1384524,-1.020101,8.542691,-3.146927,34.35147,1007.797
19.989754677,13.24878,-10.34106,8.237761,-0.1981624,-0.1007163,-0.911165,8.542691,-3.146927,34.35147,1007.797
20.022309780,6.296182,-9.924693,5.055392,-0.2037066,-0.1412902,-0.9818682,8.541059,-3.14951,33.90539,1007.797
20.057374001,5.188688,-8.080784,2.423818,-0.2041629,-0.1527672,-1.024097,8.896168,-2.419242,33.89898,1007.799
20.089933395,-3.609739,-9.448846,-0.5749528,-0.2244266,-0.1681213,-1.018994,8.896168,-2.419242,33.89898,1007.801
20.122492790,9.741719,-9.210921,3.158211,-0.23403,-0.1224168,-0.944331,9.26427,-2.414012,34.34387,1007.805
20.157557011,-0.9025306,-1.656842,-1.615342,-0.2383855,-0.133938,-0.9880065,8.900218,-2.785635,33.45552,1007.806
20.190116406,0.4510734,-7.010127,-1.615342,-0.2156909,-0.1593925,-0.9898668,8.900218,-2.785635,33.45552,1007.806
20.222672463,-5.578618,-6.177394,-1.431744,-0.2419914,-0.1093659,-0.9513748,9.63479,-2.777759,33.89921,1007.804
20.255231381,-17.02272,-7.90234,-6.082899,-0.2198655,-0.1798051,-1.001775,9.274001,-3.144217,33.90301,1007.804
20.290296078,-70.05939,-20.39334,-5.776902,-0.2713435,-0.1826327,-0.9553646,9.274001,-3.144217,33.90301,1007.804
20.322854996,-90.85567,-20.15541,-12.99843,-0.384216,-0.1800608,-1.095396,10.00126,-2.775112,33.89803,1007.804
20.355414867,-85.74889,-10.93587,-36.4378,-0.2948697,-0.338017,-1.159281,10.01909,-4.238104,32.57026,1007.804
20.390478611,-38.43428,20.70799,-78.35939,-0.253911,-0.9507673,-1.068126,10.01909,-4.238104,32.57026,1007.801
20.423034668,54.77982,12.02377,-93.35324,-0.4167531,-0.9757674,-1.060616,10.4237,-6.784716,32.14127,1007.801
20.455594540,105.1708,0.1275857,-118.751,-0.4353378,-0.7710943,-0.9143963,10.06465,-7.583368,30.8099,1007.801
20.490658283,132.9197,-24.97337,-141.2112,-0.5092532,-0.6829383,-0.8472407,10.06465,-7.583368,30.8099,1007.803
20.523218155,134.0272,-45.25637,-152.8391,-0.5498576,-0.6336582,-0.686452,10.029,-5.713642,29.07585,1007.803
20.555777073,117.5378,-80.35013,-155.6542,-0.4622844,-0.3578043,-0.6049877,9.608139,-2.447158,28.16139,1007.803
20.590841770,86.71257,-105.0942,-151.7375,-0.4591305,-0.2270879,-0.4850526,9.608139,-2.447158,28.16139,1007.805
20.623396873,38.41351,-135.9053,-139.4364,-0.4850317,-0.164529,-0.4226843,11.40798,-0.9941792,25.46857,1007.801
20.655956745,9.926302,-149.5859,-128.7265,-0.4175363,-0.09825175,-0.5880199,13.22347,-0.6348472,22.40124,1007.802
20.688516617,7.526731,-159.5192,-105.1035,-0.3712343,0.003413044,-0.6875393,13.22347,-0.6348472,22.40124,1007.804
20.723580360,-7.855134,-139.8311,-79.82817,-0.3096775,-0.2290388,-1.119417,15.81875,-3.178493,19.73477,1007.804
20.756140232,-7.301386,-178.1963,-34.23462,-0.6860349,0.2023504,0.1863613,19.15125,-6.08287,16.68618,1007.806
20.788699150,-318.7534,-101.6443,-88.0901,-0.1610818,-1.216945,-2.218363,19.15125,-6.08287,16.68618,1007.808
20.823759556,80.86746,-404.9376,-25.66671,-0.6130538,-0.2659918,-0.2815125,23.57922,-9.047691,12.29624,1007.803
20.856318951,106.4629,-190.3898,32.28912,-0.4661355,0.365644,0.07117972,27.39439,-16.33537,5.709021,1007.805
20.888878822,68.43891,-14.50473,38.77626,-1.607756,0.7661309,-0.6336225,27.39439,-16.33537,5.709021,1007.805
20.923943043,-26.92864,-246.4804,115.8875,-0.4850261,-0.1844039,-0.1155598,31.84396,-19.94947,4.382652,1007.805
20.956502438,-110.9136,-153.3332,101.5056,-1.239121,0.2806285,-0.9700815,33.40087,-27.25089,-1.751163,1007.802
20.989061832,-83.65696,-237.1419,135.3489,-0.6503295,-0.06370734,-0.6220713,33.40087,-27.25089,-1.751163,1007.804
21.024121761,-71.59758,1.079281,90.61214,-0.4822591,0.4329597,-0.02832011,33.90107,-38.65564,-13.52374,1007.806
21.056681633,-212.2493,-84.27587,74.33311,-0.6694499,0.03319559,-0.6109069,32.95052,-52.96733,-33.3004,1007.806
21.089241028,-173.1179,-77.07867,67.96837,-0.8840237,0.04667844,-0.6636656,32.95052,-52.96733,-33.3004,1007.805
21.121800423,-198.2826,-45.43481,47.22178,-0.6632993,0.2232646,-0.176841,55.89777,-65.27911,-41.25066,1007.81
21.156864166,-168.0111,16.60381,3.892603,-0.818931,-0.2746236,-0.4685123,64.00663,-42.1759,-30.80094,1007.81
21.189424038,-110.7906,2.744747,1.077431,-0.9905711,-0.2951196,0.5469154,64.00663,-42.1759,-30.80094,1007.813
21.221980095,-155.0288,66.15142,-23.89192,-1.604466,-0.1839196,-0.2241985,53.91196,-28.70802,-27.80711,1007.813
21.257043839,145.1021,43.31075,-27.01309,-1.970441,0.08275516,0.3583419,49.71992,-21.81226,-25.61308,1007.814
21.289603710,-16.46898,-98.13493,-29.70587,-2.341994,-0.0558528,0.9129527,49.71992,-21.81226,-25.61308,1007.818
21.322162628,221.0885,21.6002,-15.6912,-1.369348,0.5943201,-0.7500674,49.29078,-17.06766,-22.58706,1007.823
21.357227326,42.90502,1.257724,3.280609,-0.9757277,0.05665769,-0.8751439,48.54647,-16.34533,-22.58991,1007.822
21.389786244,-25.6981,6.373084,5.973382,-0.9934869,0.2944874,-0.4316254,48.54647,-16.34533,-22.58991,1007.826
21.422342301,-72.82813,11.19104,2.913413,-0.9909071,-0.08900973,-0.2054578,49.67677,-17.77972,-20.35267,1007.826
21.457406044,-111.9596,13.8082,-7.857681,-1.156055,-0.4391522,-0.09898025,50.05133,-18.50986,-21.24078,1007.829
21.489965916,-40.64927,-30.86198,2.485017,-1.591678,-0.4302433,-0.9496505,51.12071,-16.68545,-21.70347,1007.833
21.522524834,25.6158,-15.99175,7.931763,-0.7189473,0.177242,-0.04939455,51.12071,-16.68545,-21.70347,1007.83
21.557589531,28.93829,-14.98057,14.90849,-1.006824,0.1375674,-0.05890614,50.71363,-14.51556,-23.50224,1007.833
21.590149403,-12.53122,-5.28518,3.097011,-1.072312,0.115328,-0.05869885,50.37314,-15.96828,-22.59846,1007.833
21.622704506,-26.06726,0.1275857,-3.084128,-0.9917936,0.02342693,-0.03214278,50.37314,-15.96828,-22.59846,1007.837
21.655264378,-50.49366,8.63336,-9.448865,-0.9321263,0.1533467,-0.1080419,49.26744,-15.98619,-24.31546,1007.836
21.690328121,-63.16832,12.5591,-12.69243,-1.007348,-0.003936855,-0.1504892,49.62823,-15.61973,-24.31926,1007.84
21.722887993,-27.42086,7.681665,-6.205297,-0.9295467,-0.103915,-0.278251,49.62823,-15.61973,-24.31926,1007.839
21.755446911,4.450358,3.517999,-2.410934,-0.994767,-0.03829085,-0.1481252,50.33276,-13.79538,-24.33469,1007.839
21.790511608,-0.287256,3.874885,-6.87849,-0.9648824,0.146026,-0.1946465,49.96061,-13.43422,-24.33611,1007.841
21.823066711,-11.05456,4.469694,-10.79525,-0.9656486,0.1375485,-0.149821,49.96061,-13.43422,-24.33611,1007.843
21.855626583,-28.09767,7.32478,-14.71201,-0.9934183,0.06265178,-0.1117833,49.95493,-13.07041,-24.33872,1007.846
21.890690327,-12.83886,6.13516,-13.36563,-0.9552588,0.02620016,-0.2153356,50.67791,-12.33528,-23.96398,1007.845
21.923250198,-14.13093,3.458518,-14.52842,-1.007175,-0.1429655,-0.1439096,50.67791,-12.33528,-23.96398,1007.845
21.955809593,19.70917,-0.7646284,-8.469675,-0.9643126,0.01763225,-0.1743705,50.66086,-11.24385,-23.97181,1007.847
21.990873814,25.98497,-5.047256,-10.55045,-0.9993021,-0.03474005,-0.1935041,51.00889,-10.15198,-24.36318,1007.847
22.023429394,17.61723,-6.236875,-10.42806,-1.002881,-0.01830314,-0.1845491,51.00889,-10.15198,-24.36318,1007.849
22.055988789,7.034512,-10.81691,-12.26404,-0.973873,-0.08021035,-0.16812,51.38976,-10.87216,-23.53073,1007.846
22.088548183,13.18726,-20.92867,-10.36686,-0.9936646,-0.05848854,-0.1919383,51.01862,-10.88219,-24.80403,1007.846
22.123612404,22.17027,-31.21887,-7.551684,-0.9969043,-0.06882938,-0.1717911,51.01862,-10.88219,-24.80403,1007.85
22.156171799,31.2148,-40.02205,-5.776902,-0.9909337,-0.03479693,-0.1572597,51.37373,-10.15192,-24.81044,1007.852
22.188731194,25.49275,-47.04079,-6.082899,-1.001912,-0.04343199,-0.1071097,50.26453,-10.17536,-27.48331,1007.853
22.223791599,14.91003,-52.21564,-3.818521,-0.9846628,-0.05309935,-0.06957044,50.26453,-10.17536,-27.48331,1007.849
22.256350517,18.35556,-57.68789,-0.5137534,-0.9834995,-0.1071212,-0.05009392,48.80107,-10.55492,-28.36808,1007.849
22.288910389,20.32444,-63.16013,2.974612,-0.9932643,-0.0506586,0.009748896,47.34026,-11.30309,-30.07867,1007.852
22.323974133,26.10802,-68.81083,5.361389,-0.9815505,-0.03914107,0.07516918,47.34026,-11.30309,-30.07867,1007.852
22.356534004,35.27562,-73.45034,8.972153,-0.994837,-0.06088128,0.1149706,46.60159,-11.69028,-33.19618,1007.85
22.389093399,-1.702388,-86.3577,14.7249,-0.9908921,-0.01864673,0.1368797,44.39623,-11.71649,-34.97334,1007.85
22.424153805,18.97084,-76.24594,9.890144,-1.054133,-0.06518917,0.1439647,44.39623,-11.71649,-34.97334,1007.853
22.456712723,23.21623,-82.66988,14.0517,-1.042115,0.04548606,0.2079972,41.10954,-13.21326,-38.01098,1007.853
22.489272595,22.10874,-89.62916,20.84484,-1.045892,0.03142521,0.1899014,38.53446,-13.24729,-40.67908,1007.851
22.521832466,3.712029,-98.37286,23.23161,-1.134008,0.0008051293,0.2576755,38.53446,-13.24729,-40.67908,1007.851
22.556896210,5.61938,-109.6148,22.25242,-1.08923,-0.06980348,0.3087597,34.87156,-14.01651,-43.27468,1007.853
22.589456081,14.72544,-115.6223,23.41521,-1.06226,0.05131664,0.3632696,30.8517,-15.51895,-46.37366,1007.854
22.622011185,16.2021,-128.0538,29.04556,-1.142138,0.1914016,0.429773,30.8517,-15.51895,-46.37366,1007.854
22.657075882,3.712029,-159.1624,35.59389,-1.130993,0.2538978,0.5051557,25.297,-16.29926,-48.51705,1007.856
22.689634800,-11.60831,-177.3635,37.98067,-0.7755718,0.2680214,0.1308945,19.06289,-16.72356,-51.17066,1007.852
22.722194672,-43.17189,-166.0027,28.86196,-0.7124688,0.2317493,0.2714263,19.06289,-16.72356,-51.17066,1007.854
22.757258415,-52.1549,-182.5979,27.82157,-0.8672202,0.2048766,0.3924932,10.25134,-16.06721,-52.48557,1007.856
22.789818287,-81.62656,-179.5048,29.53515,-0.2374753,0.3538916,0.3168185,1.364931,-14.3147,-52.91597,1007.856
22.822373390,-115.2205,-199.6689,5.606186,-1.015347,0.3970042,0.6807597,1.364931,-14.3147,-52.91597,1007.856
22.857438087,-370.3134,-240.7107,-82.27615,-1.153783,-1.418711,1.550823,-7.843073,-11.09883,-51.57153,1007.856
22.889997005,224.4725,-330.0511,-118.3838,1.661889,-1.919145,-0.5515845,-16.36145,-4.156034,-46.3051,1007.856
22.922556877,254.498,-164.3372,103.158,0.6336651,1.074481,2.303982,-16.36145,-4.156034,-46.3051,1007.851
22.955116272,-340.288,-100.7521,-63.85513,-0.4427682,-1.013505,3.073155,-26.79745,4.536666,-40.153,1007.851
22.990180492,-17.82258,-88.79642,-106.8783,-0.3238573,-1.642127,2.500799,-32.86771,-4.575552,-35.22445,1007.853
23.022735596,484.2415,-224.175,-52.59444,-0.2837867,-0.6231752,2.027128,-32.86771,-4.575552,-35.22445,1007.855
23.055295467,575.4867,-223.8181,-27.74749,-0.3207341,1.224706,1.487388,-35.79453,-3.843275,-30.75944,1007.855
23.090359211,433.3583,-155.534,58.48247,-0.2393252,2.220203,1.477362,-38.16354,-13.67891,-19.20976,1007.855
23.122919083,38.10588,-171.118,132.9009,-0.8910061,2.01365,0.4703827,-38.16354,-13.67891,-19.20976,1007.855
23.155478478,-155.5826,-132.8123,125.3734,0.3303269,0.3992744,-1.290748,-38.34138,-22.70302,-6.398384,1007.849
23.190542698,-91.16331,-129.8383,59.03326,0.5855699,0.007713519,-1.343856,-40.17471,-21.59936,-2.003279,1007.849
23.223097801,-276.9762,-20.27438,46.79338,0.9078577,-1.347858,-1.472158,-42.07765,-16.87789,-1.139135,1007.845
23.255657673,14.23322,30.64131,71.08954,0.9744791,0.7181093,-0.8384156,-42.07765,-16.87789,-1.139135,1007.844
23.290721417,-205.1737,103.7434,53.46412,0.2615226,-0.8044164,-1.099744,-42.84226,-15.0693,-2.041958,1007.84
23.323281288,-164.0118,51.04327,50.28175,0.3167632,-0.4082412,-0.3213168,-42.89732,-12.91964,-7.792835,1007.84
23.355840206,-54.43142,60.3223,28.37236,0.3867525,-0.5558994,-0.8848376,-42.89732,-12.91964,-7.792835,1007.832
23.388400078,16.75585,74.12187,1.077431,0.4658644,-0.1235087,-0.7299205,-43.32066,-10.02988,-10.93504,1007.831
23.423460007,11.34143,95.35657,-23.15753,0.6379195,-0.04605513,-0.7032859,-42.25897,-8.21765,-13.50064,1007.831
23.456019878,-57.93848,121.7661,-26.82949,0.4044411,-0.1825733,-0.6365039,-42.25897,-8.21765,-13.50064,1007.829
23.488578797,-116.1435,157.6331,-24.56512,0.3169966,-0.1860495,-0.7631172,-41.89418,-8.963289,-17.06519,1007.829
23.523643494,-79.22698,213.3668,-14.03882,-0.01273812,-0.1589346,-1.042744,-40.08522,-8.614289,-21.91681,1007.823
23.556202412,-90.42498,268.1487,-18.93477,-0.3304887,-0.1059965,-0.8777648,-40.08522,-8.614289,-21.91681,1007.821
23.588762283,-90.79414,336.9681,-19.85276,-0.620782,-0.3129293,-0.8791915,-36.47713,-6.751306,-29.39796,1007.819
23.623822212,-424.2729,238.5272,-59.93837,-9.818906,-1.186807,15.81751,-31.0425,-4.946424,-38.73263,1007.811
23.656382084,-5.886255,23.14671,64.3576,-0.2161306,0.5339739,7.538778,-31.0425,-4.946424,-38.73263,1007.811
23.688941002,148.0555,-170.2853,-122.8513,1.664362,-1.189896,0.1493175,-23.05871,-0.9117389,-43.1845,1007.828
23.724005699,120.5527,61.09555,-4.308116,0.09216893,0.538621,-0.02774592,-22.67133,-1.621584,-40.56776,1007.826
23.756564617,83.45161,-27.41209,3.647806,-0.7203037,0.6273019,-0.05509476,-22.67133,-1.621584,-40.56776,1007.829
23.789124489,-77.56574,-27.17417,26.04678,-0.2270507,0.2404108,-0.3442488,-22.53808,-10.04728,-40.0612,1007.834
23.824184418,-69.38259,-1.656842,13.01131,-0.2144447,-0.2613251,-0.1658156,-22.50073,-12.22498,-39.15339,1007.834
23.856744289,89.23519,-16.58656,1.261029,-0.08092015,-0.2921129,-0.2795244,-22.50073,-12.22498,-39.15339,1007.832
23.889303207,146.5173,60.08437,-6.082899,0.2167788,0.09756289,-0.3632914,-24.01369,-9.327666,-39.61559,1007.834
23.921863079,87.14326,123.7885,-6.756092,0.164822,0.1927456,0.3545754,-23.6326,-10.04747,-38.71941,1007.837
23.956926823,-20.71437,-44.72104,98.01727,-0.3805703,2.763914,5.669903,-23.6326,-10.04747,-38.71941,1007.836
23.989486694,-159.8279,9.88246,-28.91027,-0.09235917,-0.5907914,0.594709,-20.93805,-14.39424,-38.6966,1007.836
24.022041798,100.6793,43.7866,-13.05963,0.6680186,0.007996161,0.3150178,-23.94147,-14.05979,-40.02772,1007.84
24.057106495,-43.04884,28.85688,-1.248146,0.05485283,0.1601383,-0.1610957,-23.94147,-14.05979,-40.02772,1007.843
24.089665413,20.13986,11.31,0.8326334,-0.2822416,0.1062627,0.3493371,-22.86641,-12.59919,-40.4878,1007.843
24.122225285,24.44678,-32.349,13.43971,-0.1307806,0.399051,0.9477279,-20.98029,-12.22429,-40.94263,1007.841
24.157289028,-30.92793,-24.67597,14.6637,-0.1918816,0.01071837,1.199502,-20.98029,-12.22429,-40.94263,1007.841
24.189848900,-30.98946,-24.02168,19.37605,-0.07625379,0.01008171,1.879976,-22.0594,-13.31849,-40.03909,1007.844
24.222404003,51.1497,18.74512,-13.85522,-0.04463738,-0.1302784,0.993224,-22.86478,-12.59661,-40.04173,1007.846
24.257468700,43.64335,23.14671,-11.71324,-0.03601931,0.3113374,0.843339,-22.86478,-12.59661,-40.04173,1007.848
24.290027618,24.50831,9.228169,-1.982539,-0.1306885,0.265347,0.7465367,-23.24829,-11.50782,-40.04838,1007.849
24.322587490,25.80039,-8.318707,5.23899,-0.1299764,0.3736906,0.7568898,-22.84042,-14.04927,-39.58521,1007.849
24.355146885,-1.456278,-10.87639,7.503367,-0.07237269,0.3153115,0.9333428,-22.84042,-14.04927,-39.58521,1007.853
24.390211105,-8.224298,-6.058432,3.341809,-0.08912728,0.2509414,1.145063,-21.66694,-14.76592,-39.13769,1007.85
24.422766209,-4.594178,5.659313,-3.390125,-0.1186732,0.2245831,1.085717,-22.81607,-15.50193,-39.1287,1007.854
24.455326080,-3.363629,8.811803,-5.776902,-0.0969186,0.256492,0.972106,-22.81607,-15.50193,-39.1287,1007.856
24.490389824,-10.19318,3.934366,-3.328925,-0.1319796,0.2351097,0.8717547,-23.56037,-14.7796,-39.13155,1007.857
24.522949695,-9.639429,-3.679194,0.4042376,-0.1085937,0.1969224,0.8929015,-22.45691,-15.13805,-39.57857,1007.857
24.555509090,0.3280185,-6.296356,2.974612,-0.09940646,0.1734362,0.9534397,-22.45691,-15.13805,-39.57857,1007.855
24.590572834,5.803962,-4.392966,2.117821,-0.08459534,0.2117254,1.018782,-22.46259,-14.77424,-39.58118,1007.857
24.623128414,2.173842,-0.169819,0.8938327,-0.08675533,0.2296852,1.017608,-22.82906,-14.77689,-39.57999,1007.857
24.655687809,2.850644,2.447342,-0.1465569,-0.09652922,0.2234392,0.9740182,-22.82906,-14.77689,-39.57999,1007.858
24.690752029,3.219809,0.2465476,-0.4525539,-0.09423059,0.2265732,0.9329768,-23.19958,-14.41314,-39.13535,1007.858
24.723311424,4.696468,-1.4784,0.7714339,-0.1065694,0.242887,0.943872,-22.83148,-14.40791,-38.69046,1007.854
24.755870819,1.066348,-2.608537,-0.02415815,-0.09554119,0.2652245,0.9794886,-22.83148,-14.40791,-38.69046,1007.854
24.788430214,-3.425156,-1.299957,-1.554143,-0.0974656,0.2627783,0.9775196,-22.82906,-14.77689,-39.57999,1007.854
24.823490620,-10.50081,-0.6456665,-3.757321,-0.08808405,0.25315,0.9841309,-23.19227,-14.77437,-38.68666,1007.854
24.856050014,-12.96191,1.198243,-4.430515,-0.08498267,0.2352622,0.972254,-23.19227,-14.77437,-38.68666,1007.854
24.888609409,-13.76177,1.495647,-4.124518,-0.07922232,0.1993989,0.9663842,-22.82906,-14.77689,-39.57999,1007.852
24.923673630,-8.962627,1.733571,-3.084128,-0.08621047,0.1739947,0.9751874,-22.46991,-14.41301,-40.02986,1007.854
24.956233025,-4.225013,0.781876,-1.982539,-0.1063193,0.1849366,0.9695734,-23.20932,-13.68294,-38.6945,1007.855
24.988792419,-4.53265,-0.6456665,-1.737741,-0.1098608,0.1965496,0.9707206,-23.20932,-13.68294,-38.6945,1007.853
25.023852825,-3.240574,0.008623828,-1.309345,-0.1145845,0.1843295,0.9724723,-22.84611,-13.68546,-39.58783,1007.853
25.056411743,-4.471123,-2.78698,-0.8197504,-0.1127366,0.193574,0.9755118,-22.84611,-13.68546,-39.58783,1007.855
25.088971615,-3.917376,-2.311133,-0.8197504,-0.09584811,0.2054933,0.9679434,-22.84611,-13.68546,-39.58783,1007.855
25.124035358,-8.347353,-2.727499,-0.5749528,-0.1021639,0.2039574,0.9669592,-22.85179,-13.32164,-39.59044,1007.856
25.156594753,-8.347353,-3.38179,0.7102346,-0.08723907,0.1778868,0.9713809,-22.85342,-13.32423,-40.03651,1007.858
25.189154625,-4.471123,-3.500751,1.077431,-0.12405,0.1627764,0.9823035,-22.85342,-13.32423,-40.03651,1007.858
25.221713543,-3.855849,-4.987775,-0.2077563,-0.09596121,0.1786454,0.9931528,-22.85747,-12.95783,-39.59305,1007.858
25.256773949,-2.748354,-3.38179,-0.3913546,-0.05262963,0.1801736,0.9950678,-22.85179,-13.32164,-39.59044,1007.852
25.289333344,-1.087113,-0.8241093,0.6490352,-0.05077673,0.1851284,0.9796736,-22.85179,-13.32164,-39.59044,1007.854
25.321893215,-4.163486,1.138762,-0.6361521,-0.0824542,0.1852389,0.9714884,-23.22394,-12.96048,-39.59186,1007.855
25.356956959,-9.516375,-0.8241093,-0.3913546,-0.08401324,0.1573936,0.9981342,-22.491,-12.95519,-39.59424,1007.851
25.389516831,-6.193892,0.6629142,-0.02415815,-0.08164459,0.163729,1.001129,-22.491,-12.95519,-39.59424,1007.851
25.422075749,-14.74621,-1.418919,-0.9421492,-0.1119059,0.2104947,0.9975212,-23.22962,-12.59667,-39.59447,1007.853
25.457136154,-17.20731,-0.5267046,-0.6973516,-0.06915792,0.1770532,0.9926192,-22.86883,-12.23021,-39.59827,1007.855
25.489695549,-18.86855,-2.251652,1.873023,-0.05932244,0.1698696,0.9973339,-22.86883,-12.23021,-39.59827,1007.858
25.522254467,-20.7759,-0.5267046,3.21941,-0.07003425,0.1226981,0.9729392,-23.25397,-11.14401,-40.05099,1007.858
25.557396412,-17.69953,-2.13269,2.913413,-0.08277975,0.08564588,0.9617519,-23.24829,-11.50782,-40.04838,1007.858
25.589956283,-15.66912,-2.430095,2.852214,-0.10116,0.08327635,1.002337,-23.24829,-11.50782,-40.04838,1007.856
25.622515201,-22.00645,-4.333485,1.811824,-0.08339062,0.05881147,0.9826117,-23.27102,-10.05258,-40.05882,1007.856
25.655071258,-11.91595,-4.868813,0.9550322,-0.09262818,0.06009142,0.995208,-23.65049,-9.330186,-40.50893,1007.857
25.690135002,-6.00931,-6.653241,1.322229,-0.05720756,0.06839543,0.980799,-23.65049,-9.330186,-40.50893,1007.857
25.722693920,-6.193892,-5.820508,2.423818,-0.07903816,0.1102341,1.015778,-23.66753,-8.238753,-40.51676,1007.857
25.755253792,-15.29996,-5.344661,0.9550322,-0.08171249,0.07882948,0.9674473,-24.38911,-8.971668,-40.50916,1007.853
25.790317535,-10.6854,-2.668018,0.8326334,-0.07849728,0.05407522,0.9694835,-24.38911,-8.971668,-40.50916,1007.855
25.822877407,-5.824727,-6.772203,2.117821,-0.05542754,0.0440509,0.9954106,-24.034,-8.2414,-40.51557,1007.855
25.855432510,-9.331792,-6.177394,1.628226,-0.04238868,0.007854116,0.9769609,-24.41418,-7.458004,-40.90239,1007.857
25.890497208,5.927017,-6.59376,3.280609,-0.03976502,0.04220496,1.018569,-24.41418,-7.458004,-40.90239,1007.857
25.923056126,-12.59275,-11.17379,2.056622,-0.05611239,0.02115651,1.00473,-24.41418,-7.458004,-40.90239,1007.857
25.955615997,-7.670551,-10.5195,-0.2077563,-0.02516103,0.03241552,0.9691016,-23.67821,-7.447914,-40.07634,1007.853
25.990679741,-6.501529,-7.664417,0.7714339,-0.05150016,0.03262888,0.9536622,-23.67821,-7.447914,-40.07634,1007.854
26.023239136,-24.40602,-15.63486,-2.166137,-0.05401736,0.06366257,1.068215,-25.52192,-6.733526,-40.07562,1007.856
26.055794716,-10.07012,-14.20732,-4.92011,-0.009985427,-0.06587506,0.9313341,-25.16277,-6.369651,-40.5255,1007.856
26.090858459,16.14058,-12.54185,-1.554143,-0.01643216,0.08533324,1.006637,-25.16277,-6.369651,-40.5255,1007.853
26.123418331,-35.97318,-17.47877,-2.716932,0.01704285,0.002876994,0.959426,-25.89407,-6.372362,-40.07705,1007.855
26.155977726,-0.6564208,-15.33746,-2.533333,0.09290422,-0.03013485,0.9549822,-26.25728,-6.369843,-39.18372,1007.857
26.188537598,8.26506,-5.344661,-0.5749528,0.08977986,-0.01838806,0.9280952,-26.25728,-6.369843,-39.18372,1007.857
26.223601341,11.52602,-2.251652,0.5878358,0.02490818,0.04606823,0.9958472,-27.00727,-5.283704,-39.18917,1007.857
26.256156921,1.804677,-5.523104,0.7102346,-0.004478281,-0.01286751,1.046214,-26.63349,-5.642285,-38.74168,1007.854
26.288716316,30.66105,-7.010127,5.300189,0.0003065276,0.08331321,1.070879,-26.63349,-5.642285,-38.74168,1007.858
26.323780060,13.24878,-2.430095,6.830174,0.02529424,0.1113622,1.066449,-26.99591,-6.011325,-39.18394,1007.86
26.356339932,21.55499,1.614609,9.584147,-0.0590874,0.02977687,1.024199,-27.71017,-7.105468,-38.72766,1007.86
26.388898850,11.09532,-10.46002,8.910954,-0.03010946,0.0135273,1.046642,-27.71017,-7.105468,-38.72766,1007.86
26.423963547,12.57198,-17.35981,6.707776,0.002396545,-0.02667658,1.00346,-27.70854,-7.102885,-38.28159,1007.861
26.456518650,20.75513,-18.43047,6.462978,0.04549287,0.03182358,0.9811088,-27.70691,-7.100302,-37.83552,1007.861
26.489078522,19.77069,-17.35981,7.25857,0.07953254,0.07367558,0.9599625,-27.70691,-7.100302,-37.83552,1007.863
26.524142265,20.57055,-11.94705,8.176561,0.06956029,0.09823106,0.9820987,-28.43254,-7.466824,-37.38446,1007.863
26.556701183,13.80253,-14.98057,0.6490352,0.1321083,0.07914353,0.9769133,-29.1598,-7.835928,-37.37947,1007.861
26.589261055,17.9864,-8.913517,-2.166137,0.128586,0.08168466,0.9426357,-29.1598,-7.835928,-37.37947,1007.861
26.621820450,15.09461,-4.749851,-2.288536,0.0992625,0.1375656,0.9676855,-28.77044,-8.977599,-36.03418,1007.861
26.656880855,12.81809,-11.82808,0.7102346,0.09715781,0.2005521,1.004418,-29.13692,-8.980246,-36.03299,1007.862
26.689439773,-0.9025306,-15.57538,-2.288536,0.02639125,0.1296434,1.004372,-29.49039,-9.707932,-35.58051,1007.862
26.721999645,1.804677,-12.66082,-0.5137534,0.1186349,0.1959812,1.002394,-29.49039,-9.707932,-35.58051,1007.858
26.757063389,-8.347353,-21.70192,0.8938327,0.1029113,0.1575672,0.9617031,-29.85384,-9.705781,-34.75089,1007.858
26.789622784,-10.6854,-23.18894,3.525407,0.05970003,0.1995201,1.017007,-30.58514,-9.708491,-34.30244,1007.86
26.822182655,-5.332508,-15.45642,-1.982539,0.1252911,0.1122918,0.9358552,-30.58514,-9.708491,-34.30244,1007.862
26.857242107,-9.700957,-25.33026,-1.248146,0.1472445,0.1139298,0.9590611,-31.32376,-9.349975,-34.30268,1007.863
26.889801979,-16.22287,-24.73545,-0.8197504,0.2086211,0.1223,1.004084,-31.68861,-9.350039,-33.85542,1007.865
26.922361374,-15.11537,-16.82448,-3.145327,0.2471541,0.1098425,0.9685699,-31.68861,-9.350039,-33.85542,1007.865
26.957425117,-21.08354,-13.43407,-4.552914,0.1723171,0.09146424,0.9480599,-32.78639,-9.355395,-33.40578,1007.863
26.989984989,-17.69953,-19.2632,-3.512524,0.0785599,0.08127041,0.9968159,-33.1699,-8.26661,-33.41243,1007.863
27.022543907,-21.14506,-31.87316,-6.021699,0.07653063,0.05624192,1.043807,-33.1699,-8.26661,-33.41243,1007.865
27.055622578,-30.8664,-38.35658,-5.532104,0.3421628,0.004610446,1.081916,-32.81248,-7.470541,-32.52713,1007.868
27.090686798,-10.99303,-32.70589,-2.104938,0.3288888,-0.07707966,0.8404446,-33.90132,-7.834542,-31.18274,1007.868
27.123246193,22.10874,-24.08116,15.15329,0.3320555,0.2307392,0.8122681,-33.90132,-7.834542,-31.18274,1007.865
27.155805111,33.06063,2.268899,8.115361,0.6230962,0.1634718,0.4102415,-35.01777,-6.75105,-31.187,1007.867
27.190869808,-9.39332,53.71991,10.68574,0.3589739,0.4199107,0.9707756,-35.74908,-6.753761,-30.73855,1007.869
27.223428726,-82.11877,69.77976,2.362618,0.341567,0.05230866,1.065243,-35.74908,-6.753761,-30.73855,1007.87
27.255984783,-95.59328,66.09194,8.421358,0.1504424,-0.5050067,0.9138454,-35.36883,-7.847713,-31.62405,1007.87
27.291048527,97.17223,44.73829,14.6025,-0.1543233,-0.3370331,1.360926,-33.22827,-4.941641,-35.15693,1007.87
27.323607445,66.77767,7.205817,5.789784,-0.06771726,-0.0588816,1.256326,-33.22827,-4.941641,-35.15693,1007.868
27.356167317,57.61008,-0.3482618,2.301419,0.1766293,0.2792391,0.8165417,-31.76402,-4.933637,-35.60775,1007.868
27.391231060,24.63136,-6.117913,3.21941,0.1792111,0.2643138,1.005312,-31.3718,-6.381436,-34.77007,1007.868
27.423790932,14.35628,7.086855,-2.227336,0.02125413,0.1234657,1.065188,-31.3718,-6.381436,-34.77007,1007.868
27.456346035,12.51046,-9.329884,-2.961729,0.1346321,0.174024,1.066816,-31.71959,-7.472932,-34.31498,1007.868
27.488905907,3.835083,-7.604937,-5.164907,0.1560429,0.09258034,0.8702689,-31.703,-8.627213,-34.68906,1007.866
27.523969650,9.618665,-0.1103381,1.19983,0.1590504,0.1110107,0.9933249,-31.703,-8.627213,-34.68906,1007.867
27.556529045,12.01824,2.625785,1.261029,0.1623137,0.1028149,1.094223,-32.4189,-9.723939,-34.67885,1007.867
27.589088917,6.911457,3.517999,3.647806,0.07956145,0.1790422,0.8755289,-31.7016,-8.625,-34.30671,1007.867
27.624152660,6.357709,4.291252,2.791014,0.1862402,0.1993879,0.9815959,-31.7016,-8.625,-34.30671,1007.867
27.656708240,-6.00931,-3.203347,0.2818388,0.1286201,0.1785364,1.01952,-32.05671,-9.355268,-34.3003,1007.863
27.689267635,-6.993749,0.7223951,1.322229,0.1230713,0.2287017,0.9806539,-32.05671,-9.355268,-34.3003,1007.865
27.724331379,-8.839573,3.755923,-3.145327,0.2402405,0.1231914,0.7933144,-32.05671,-9.355268,-34.3003,1007.867
27.756891251,-15.1769,1.257724,3.097011,0.1676114,0.07160153,0.9206923,-32.05508,-9.352685,-33.85423,1007.868
27.789450169,-18.86855,9.228169,-3.87972,0.1570213,0.1163655,0.9856745,-32.43454,-8.630293,-34.30434,1007.868
27.824514866,-15.11537,15.53315,-10.79525,0.07018196,0.1340824,1.008747,-32.43454,-8.630293,-34.30434,1007.862
27.857069969,-31.23557,23.97944,-12.01924,0.2915395,0.03667716,1.046201,-32.0711,-8.632443,-35.13395,1007.862
27.889628887,-25.08282,22.61138,-5.838101,0.2725371,0.2478207,1.051858,-31.3521,-7.841476,-35.58805,1007.862
27.924693584,-66.73691,45.68999,-6.450095,0.1165449,0.06802224,1.132406,-31.3521,-7.841476,-35.58805,1007.86
27.957252502,-35.7886,73.82446,-8.89807,0.1935877,-0.1695916,1.235049,-30.98726,-7.841413,-36.03531,1007.86
27.989812374,-28.58989,62.76101,-20.95435,0.2290466,0.01772625,1.292011,-29.93009,-5.663523,-38.2849,1007.86
28.022371769,-20.16063,55.0285,-23.09633,0.2506948,0.1319995,1.128419,-29.93009,-5.663523,-38.2849,1007.862
28.057431221,-64.21429,19.69681,-17.22119,0.5184236,0.1337548,1.08275,-27.74184,-5.29158,-39.63287,1007.86
28.089991093,-96.45467,43.84608,6.952573,0.2440416,0.1529026,0.8962399,-25.92551,-4.558105,-40.91852,1007.862
28.122550488,-94.7319,67.69793,15.39809,0.3640293,-0.3181586,0.5191541,-25.92551,-4.558105,-40.91852,1007.862
28.157614231,-12.22358,138.5992,59.03326,-0.524653,-0.1482684,0.5835093,-24.85451,-2.731112,-40.93514,1007.857
28.190174103,69.3003,33.4964,39.38826,0.4594005,-0.6968876,0.07437784,-22.65226,0.5491757,-42.75026,1007.857
28.222733021,-67.22913,167.388,97.77248,-0.4199576,1.348766,2.132751,-22.65226,0.5491757,-42.75026,1007.859
28.257793427,406.5938,48.36663,89.57175,0.03543037,0.2354611,0.4225413,-19.40437,3.475732,-44.12006,1007.859
28.290352821,-54.80058,54.90953,74.21071,-1.812786,-0.2129645,-0.3119318,-16.45314,2.036497,-45.01127,1007.859
28.322912693,-71.84369,66.80572,80.02465,-0.9286747,0.3075218,1.045711,-16.45314,2.036497,-45.01127,1007.861
28.357976437,-69.93634,90.06276,47.95617,-0.7036884,-1.036749,0.613631,-14.22652,-0.1404495,-46.7233,1007.857
28.390535355,29.67661,94.88071,15.88768,-0.3856494,-0.949123,0.6388297,-12.44125,2.780688,-47.19621,1007.857
28.423095226,81.35968,84.11467,-0.6973516,-0.4204117,0.1081524,0.8169248,-12.44125,2.780688,-47.19621,1007.857
28.455650330,48.81165,84.76896,-1.492944,-0.4882961,0.2335041,0.7386621,-9.208765,6.80126,-48.12777,1007.857
28.490715027,28.44607,74.12187,3.525407,-0.6394596,0.3763403,0.7443708,-5.499452,3.543099,-49.90045,1007.858
28.523273945,1.98926,68.23325,11.05293,-0.7071621,0.2453381,0.7153684,-2.163078,1.017662,-50.33894,1007.854
28.555833340,-10.99303,68.1143,15.94888,-0.7123033,0.004968558,0.6551511,-2.163078,1.017662,-50.33894,1007.856
28.590897560,-9.639429,61.09555,15.82649,-0.8151958,-0.03124218,0.6281123,1.143258,0.3086944,-51.23656,1007.856
28.623456955,8.326588,53.48199,15.64289,-0.5510204,-0.08242437,0.6700969,4.498522,0.6993508,-50.804,1007.856
28.656012058,13.00268,48.72351,21.88523,-0.6764626,0.06233352,0.6477743,4.498522,0.6993508,-50.804,1007.856
28.691076279,8.388116,45.86843,25.98558,-0.6475348,0.001523408,0.6366677,6.695947,0.713017,-51.19348,1007.858
28.723635673,5.680907,47.8313,18.02966,-0.9269132,-0.1125851,0.5612398,8.910184,-0.3651175,-51.63885,1007.859
28.756195545,12.20282,47.29597,2.362618,-0.7436742,-0.3033445,0.4986973,8.910184,-0.3651175,-51.63885,1007.857
28.791259289,32.93757,54.67161,-6.756092,-0.8443079,-0.06225325,0.524708,11.11935,-0.7056675,-50.36888,1007.857
28.823818207,52.01108,61.8688,-4.063318,-0.8442422,0.1057715,0.5548238,14.05516,-1.050888,-50.82185,1007.857
28.856374264,10.97227,61.45243,-6.450095,-0.770229,0.1038871,0.5402223,14.05516,-1.050888,-50.82185,1007.859
28.888933182,0.5741283,71.08834,-21.44395,-0.7587299,-0.1426031,0.484246,16.65376,-2.843665,-49.4789,1007.861
28.923996925,27.70774,80.54581,-30.50146,-0.9401648,-0.1434814,0.3717809,19.97635,-4.272504,-49.03308,1007.862
28.956556797,39.89017,78.99931,-35.03021,-1.02077,0.08253434,0.3506546,19.97635,-4.272504,-49.03308,1007.86
28.989116192,35.09103,85.60169,-32.58224,-0.8945604,0.2132124,0.4047312,23.65326,-4.599515,-47.25807,1007.86
29.024180412,7.219094,82.38972,-24.87111,-1.089925,0.274469,0.2690587,27.3332,-4.92173,-44.65464,1007.862
29.056735516,-19.60688,79.77256,-21.50515,-1.013898,0.3252267,0.3330821,27.3332,-4.92173,-44.65464,1007.863
29.089294910,-85.13362,75.72785,-17.03759,-1.047517,0.05834016,0.2512191,31.08419,-5.973338,-42.42853,1007.865
29.124359131,-76.58131,68.47118,-17.34359,-0.9613536,-0.2321815,0.04658562,34.0038,-4.852983,-41.10766,1007.867
29.156918526,-48.27867,63.1179,-16.67039,-1.011304,-0.2208992,-0.01216602,34.0038,-4.852983,-41.10766,1007.867
29.189478397,-42.00287,51.40016,-13.12083,-0.966854,-0.06426354,0.1902988,36.89236,-1.544967,-38.97404,1007.868
29.224542141,-33.45055,53.66043,-11.28485,-0.9948799,-0.1596195,0.02548967,39.79656,0.6694036,-37.21492,1007.864
29.257097244,-51.84726,48.54507,-9.204068,-1.01321,-0.08847216,0.03819386,39.79656,0.6694036,-37.21492,1007.864
29.289657116,-63.66054,39.92034,-7.306887,-0.9719327,-0.2069377,0.02281212,41.24055,2.509377,-35.44845,1007.864
29.322216034,-47.84798,41.5858,-4.981309,-0.9746047,-0.05165285,0.06772093,43.03943,5.079249,-33.75211,1007.864
29.357279778,-50.92435,35.75667,-1.431744,-0.9868134,-0.1362956,0.04952319,43.03943,5.079249,-33.75211,1007.862
29.389839649,-32.89681,25.82335,2.24022,-1.008385,-0.1791135,-0.2135829,43.76185,6.186306,-31.97803,1007.862
29.422399044,-17.51494,25.40698,10.86933,-0.9620342,-0.2062066,-0.1086648,45.2099,7.659885,-30.65501,1007.863
29.457458496,5.188688,16.54432,16.07128,-0.9894776,-0.1069513,-0.1042238,45.2099,7.659885,-30.65501,1007.863
29.490018368,17.9864,19.10201,21.39563,-1.009077,-0.1112642,-0.1733935,45.92501,9.12817,-29.32962,1007.865
29.522578239,-11.48525,12.38066,20.72244,-0.9475657,-0.1126517,-0.1198192,46.31724,7.680371,-28.49194,1007.865
29.557641983,-5.824727,8.811803,22.37482,-1.066078,-0.04875322,-0.08296011,46.31724,7.680371,-28.49194,1007.865
29.590201378,34.84492,-5.166218,23.23161,-0.9652678,-0.03277411,-0.2075249,47.42965,6.963274,-28.04421,1007.861
29.622760296,57.11786,2.804228,27.14837,-0.9683223,0.03021139,0.03899446,47.80748,6.238299,-28.04018,1007.861
29.657820702,24.2622,8.573879,27.14837,-0.9353893,-0.2327168,-0.2932615,47.80748,6.238299,-28.04018,1007.861
29.690380096,-7.916661,9.763497,31.06513,-0.9429421,0.001896887,-0.07360544,47.83752,4.421827,-27.58105,1007.861
29.722939014,11.7106,13.5108,29.90235,-1.023439,0.05814226,-0.06155198,48.24212,1.875217,-28.01004,1007.861
29.755498886,42.53585,2.685266,30.57554,-0.9709893,0.2324615,-0.08939587,48.24212,1.875217,-28.01004,1007.857
29.790562630,-3.055992,18.98304,26.35278,-1.156345,-0.1598269,-0.2827521,48.62321,1.155408,-27.11386,1007.859
29.823122501,22.04721,6.492046,28.80076,-1.197559,-0.01870209,-0.3332473,49.01809,-0.6609993,-27.10199,1007.86
29.855677605,21.49346,4.469694,17.29527,-1.100431,-0.218338,-0.4006759,49.01809,-0.6609993,-27.10199,1007.86
29.890741348,104.8632,0.1275857,10.31854,-0.9645776,0.0314333,-0.2171802,48.3225,-2.843991,-26.1918,1007.86
29.923301220,92.74226,11.42896,5.789784,-0.9851052,0.1097256,-0.07288642,48.34523,-4.299234,-26.18136,1007.856
29.955860615,87.94312,-0.7646284,6.524177,-1.035519,-0.04813782,-0.1303511,48.34523,-4.299234,-26.18136,1007.858
29.990924358,140.426,-10.87639,6.768975,-0.9166877,0.1505383,0.01854504,48.38826,-6.840744,-25.27094,1007.859
30.023484230,67.33142,-10.5195,0.7102346,-0.8148275,0.2704397,0.02172611,47.33283,-9.450828,-24.35651,1007.859
30.056039333,59.14827,2.744747,2.668615,-0.8063024,0.175505,-0.1310274,47.33283,-9.450828,-24.35651,1007.857
30.091103077,29.73814,19.75629,3.525407,-0.7420799,0.1417223,-0.3186716,47.01507,-12.35879,-23.44229,1007.859
30.123662949,23.03165,26.00179,4.749395,-0.8751786,0.2377315,-0.1184105,46.67435,-13.81189,-22.60224,1007.859
30.156221867,-5.701672,16.78225,8.849754,-0.9174709,0.1116526,-0.08887374,46.67435,-13.81189,-22.60224,1007.859
30.188781261,-14.68468,26.83453,-1.370545,-1.039417,-0.003531364,-0.1180658,46.70034,-15.26196,-21.69965,1007.859
30.223845482,26.66177,15.29522,2.485017,-0.9600985,0.07828866,-0.3537487,47.06602,-14.88776,-20.36524,1007.859
30.256400585,32.3223,16.36588,6.707776,-0.9880071,0.1898636,-0.2814465,47.07659,-15.24382,-19.02441,1007.859
30.288960457,28.63065,12.08325,6.768975,-1.012992,0.0364134,-0.2750627,47.07659,-15.24382,-19.02441,1007.854
30.324024201,36.8138,11.60741,3.464208,-1.152881,0.007254384,-0.4614727,47.82416,-15.96098,-18.12942,1007.856
30.356583595,57.91772,22.90878,5.483788,-1.04137,0.2105661,-0.4966652,48.19692,-15.94837,-16.41005,1007.856
30.389143467,71.08459,25.64491,1.261029,-1.074654,0.1520589,-0.4448377,48.19692,-15.94837,-16.41005,1007.858
30.424207211,116.0612,28.7974,7.564567,-1.303957,0.03161468,-0.5861498,47.48997,-17.40374,-15.50508,1007.854
30.456762314,146.948,20.76747,5.850984,-1.424472,0.02869301,-0.2912182,47.87759,-18.11322,-12.82462,1007.855
30.489322186,116.9841,27.78622,-3.145327,-1.545026,-0.0925294,-0.3775422,47.87759,-18.11322,-12.82462,1007.859
30.524385929,170.5745,10.00142,33.81911,-1.285611,0.007524095,-0.3675653,48.28584,-20.28126,-10.70723,1007.859
30.556944847,132.8582,25.82335,70.17155,-1.182276,0.5739936,-0.02404266,48.31671,-21.72359,-8.466422,1007.859
30.589504719,-7.609024,79.17775,42.01983,-1.275162,0.01998004,-0.6168078,48.31671,-21.72359,-8.466422,1007.856
30.624568462,99.94097,58.47839,44.4066,-1.21926,0.06981982,-0.6219019,48.0377,-26.80704,-6.262043,1007.856
30.657123566,67.26989,69.18495,33.88031,-1.15856,0.2367969,-0.2965173,47.36079,-30.07888,-4.897949,1007.856
30.689683437,54.84135,79.89152,16.37728,-1.074259,0.1603726,-0.2426597,47.36079,-30.07888,-4.897949,1007.852
30.722242832,51.08817,83.63882,10.62454,-1.02911,0.1588346,-0.3089494,47.06833,-34.50014,-3.526776,1007.852
30.757306576,66.8392,93.0368,13.13371,-0.9339159,0.272609,-0.4726203,44.17954,-37.80853,-5.724125,1007.852
30.789866447,82.5287,95.65397,13.62331,-0.8648871,0.3108225,-0.342559,44.17954,-37.80853,-5.724125,1007.848
30.822425365,44.56626,84.82844,32.35032,-0.7862817,0.268241,-0.2659442,37.96338,-38.20441,-3.470946,1007.845
30.857485294,39.39795,88.63522,38.34787,-0.663486,0.2535136,-0.3088246,30.59565,-34.96276,0.03417969,1007.843
30.890045166,34.10659,104.5166,47.16058,-0.5025984,0.2442566,-0.4826533,30.59565,-34.96276,0.03417969,1007.843
30.922604084,32.81451,106.4795,64.11281,-0.490409,0.2206612,-0.3897334,23.87858,-29.82365,5.753994,1007.84
30.957667828,25.43122,91.84719,78.00507,-0.5067044,0.1140741,-0.1912258,20.52848,-25.45591,10.19408,1007.838
30.990227699,39.15184,78.7019,94.34531,-0.5409716,0.3134402,-0.3104455,20.52848,-25.45591,10.19408,1007.83
31.022787094,17.74029,75.19253,91.22414,-0.4110167,0.1447209,-0.3493982,17.2025,-22.5412,15.02696,1007.828
31.057847023,-33.88125,42.00217,88.89856,-0.3420229,-0.09299914,-0.3526081,14.60699,-19.99792,17.62971,1007.828
31.090406418,-5.332508,53.42251,79.47385,-0.2667607,-0.257446,-0.6311978,14.60699,-19.99792,17.62971,1007.828
31.122965813,46.47361,45.45206,74.02711,-0.2769929,-0.2233791,-0.6703051,12.75844,-18.54558,19.40949,1007.825
31.155525684,22.78554,29.98702,63.80681,-0.3153888,-0.2097452,-0.5729012,10.91128,-17.09103,21.57163,1007.825
31.190589428,20.93972,1.079281,51.56693,-0.3241627,-0.46967,-0.6184288,10.91128,-17.09103,21.57163,1007.823
31.223148346,24.75442,-5.523104,28.18876,-0.3234387,-0.3466595,-0.7330466,10.15483,-15.26952,22.89917,1007.823
31.255704403,21.61652,-13.43407,-5.715702,-0.3893387,-0.6003882,-0.8083937,10.14105,-14.17292,23.78348,1007.823
31.290768147,64.43963,-32.46797,-23.52473,-0.3658969,-0.7450479,-0.6733443,10.14105,-14.17292,23.78348,1007.817
31.323327065,101.0485,-46.92183,-34.47942,-0.3538369,-0.4440633,-0.8819332,10.1037,-11.99522,22.87566,1007.817
31.355886459,120.6757,28.91636,-17.52719,-0.193978,-0.2213248,-2.368457,11.17875,-10.53462,22.41558,1007.815
31.390950680,165.7754,46.93909,-17.22119,-0.4444622,-0.0231044,-1.685563,11.17875,-10.53462,22.41558,1007.813
31.423510075,82.89787,33.25847,-15.32401,-0.7142226,-0.2059163,-0.7401897,11.11694,-6.469485,22.8325,1007.813
31.491129875,18.6632,0.6629142,-19.60797,-0.564462,-0.2885854,-0.8344038,11.06339,-2.826212,23.69853,1007.808
31.523688793,-24.46755,-8.794555,-13.12083,-0.3329353,-0.3572169,-0.6834106,11.41203,-1.360573,25.02511,1007.808
31.556247711,-40.7108,-5.166218,-6.817291,-0.1440893,-0.3778969,-0.8303716,11.39336,-0.2717237,24.57121,1007.808
31.588807583,-11.23914,17.97187,-8.775672,-0.420147,-0.4994658,-1.177574,11.39336,-0.2717237,24.57121,1007.808
31.623871326,42.22822,1.376685,-0.6973516,-0.3360082,-0.3460952,-0.8920567,11.75415,0.09473324,24.56741,1007.803
31.656426907,34.3527,12.38066,-4.491714,-0.407088,-0.3114325,-0.9161116,11.02362,-0.2795367,23.68025,1007.805
31.688986301,25.30817,4.112809,-0.3913546,-0.4101103,-0.2428541,-0.8295046,11.02362,-0.2795367,23.68025,1007.805
31.724050522,2.912172,4.82658,-0.5749528,-0.3548183,-0.2122412,-0.7768863,11.75251,0.09215021,24.12134,1007.807
31.756609440,-18.43786,8.216993,-2.778131,-0.325702,-0.3043658,-1.060129,11.38363,0.4584804,25.01206,1007.807
31.789169311,-31.23557,-1.537881,-8.408476,-0.4173931,-0.342756,-0.8977278,11.38363,0.4584804,25.01206,1007.807
31.824233055,-40.58774,8.335956,-6.511294,-0.4006689,-0.2905852,-0.7804542,10.64337,0.8144145,24.56575,1007.803
31.856788158,-6.809166,11.96429,8.237761,-0.3803014,-0.1515082,-0.9514009,11.02284,0.0920229,25.01586,1007.803
31.889348030,5.434797,9.88246,10.13494,-0.3902018,-0.2496253,-0.8861823,11.02284,0.0920229,25.01586,1007.803
31.924411774,3.281337,17.67446,2.117821,-0.3169948,-0.2964807,-0.8468475,11.02526,-0.2769537,24.12632,1007.803
31.956971169,9.372555,17.85291,4.871794,-0.2713746,-0.1882278,-0.7949688,10.67504,-0.9994731,25.47095,1007.805
31.989530563,4.081193,7.800627,-2.961729,-0.4417501,-0.2513178,-0.6633216,10.30289,-0.638309,25.46953,1007.805
32.024594784,-4.101958,21.06487,-3.87972,-0.4075793,-0.2867546,-0.9998422,10.30289,-0.638309,25.46953,1007.8
32.057149887,23.03165,9.585055,1.016232,-0.259351,-0.2567033,-0.9845421,10.66368,-0.2718515,25.46573,1007.8
32.089709759,33.6759,12.97547,7.380969,-0.3114328,-0.2141408,-0.7692232,9.201845,-0.6488323,25.02702,1007.8
32.122268677,21.06277,20.3511,5.116591,-0.2342581,-0.2582789,-0.8874316,9.201845,-0.6488323,25.02702,1007.8
32.157332420,21.98568,12.38066,-3.512524,-0.2722292,-0.3737806,-1.03272,9.192114,0.08137226,25.46787,1007.802
32.189891815,12.14129,12.14274,-7.91888,-0.259754,-0.425959,-0.9590881,9.17507,1.172805,25.46004,1007.802
32.222451210,5.865489,3.220595,-6.87849,-0.2235073,-0.3522132,-0.7216267,9.17507,1.172805,25.46004,1007.799
32.257511139,-8.65499,15.59263,-8.89807,-0.2898248,-0.3325665,-1.06156,8.81023,1.172741,25.9073,1007.799
32.290070534,-14.19246,2.209419,-18.01678,-0.3106961,-0.4883212,-1.177027,9.167758,1.534032,25.01136,1007.799
32.322630406,16.94043,-0.6456665,-11.95804,-0.06220679,-0.410317,-1.159158,9.167758,1.534032,25.01136,1007.803
32.357694149,-20.59132,15.77107,-17.34359,0.1238215,-0.1713982,-1.222399,8.804549,1.536552,25.90469,1007.805
32.390253067,-46.06368,42.24009,-5.593303,0.3245561,-0.073558,-1.320675,8.432398,1.897715,25.90327,1007.8
32.422812939,-16.22287,85.72065,-6.87849,0.1567085,-0.316766,-1.011962,8.432398,1.897715,25.90327,1007.8
32.457872868,-22.31409,97.97372,-0.6973516,0.03526965,-0.02197165,-0.6733342,8.44437,1.543868,27.62644,1007.8
32.490431786,-97.193,119.7438,9.706546,-0.1631916,-0.1436861,-0.5556055,6.627483,1.182322,30.31143,1007.802
32.522991657,-151.091,100.7098,14.84729,-0.3048332,-0.3413721,-0.6672446,6.627483,1.182322,30.31143,1007.802
32.555551052,-90.54803,60.56022,30.51434,-0.2212798,-0.3399129,-0.7480269,4.448966,0.08017492,31.21854,1007.796
32.590614796,-50.8013,46.10635,20.47764,-0.1320253,-0.4440125,-0.7922384,2.243224,-3.205647,32.07779,1007.798
32.623173714,-2.071552,39.14708,2.668615,-0.1300261,-0.5091289,-0.6825404,2.243224,-3.205647,32.07779,1007.798
32.655729771,2.296897,4.410213,2.607416,-0.1748871,-0.2830102,-0.6244258,0.8090096,-5.030122,32.98774,1007.798
32.690793514,11.09532,-8.318707,-0.2077563,-0.1134945,-0.09659203,-0.7217,0.7960162,-4.305083,32.53645,1007.798
32.723352432,-433.0714,-98.13493,-17.95558,-0.712451,1.225706,-1.968846,0.7960162,-4.305083,32.53645,1007.794
32.755912304,12.69504,-67.68069,-7.796482,-0.07233757,0.4203097,-2.148516,0.7846537,-3.577461,32.53122,1007.794
32.790976047,26.10802,19.99422,1.13863,0.1738981,0.01698897,-1.357335,3.469807,-7.628427,31.27737,1007.794
32.823535442,-27.85156,14.58145,-2.90053,-0.08543613,0.1040683,-0.8399934,3.469807,-7.628427,31.27737,1007.794
32.856091022,14.8485,-8.140265,1.689425,0.02858014,0.09828965,-0.8455087,4.539866,-5.740797,31.26031,1007.794
32.891154766,27.46163,-21.40451,5.483788,-0.008547051,0.008721141,-0.9203126,3.820706,-6.842689,30.37838,1007.788
32.923714161,43.0896,-21.34503,7.809365,-0.01247677,-0.02360889,-1.088534,3.820706,-6.842689,30.37838,1007.788
32.956273079,19.58611,-8.318707,2.729815,-0.0004708518,-0.09294786,-1.089603,4.182339,-6.102089,32.15626,1007.788
32.988832951,1.373985,0.1870666,-0.5137534,-0.01930467,-0.05358634,-1.035813,4.902053,-5.372126,31.63886,1007.788
33.023896694,-13.08497,3.280076,-1.86014,-0.03528369,-0.01644265,-1.020246,4.902053,-5.372126,31.63886,1007.79
33.056451797,-20.34521,3.874885,-2.716932,-0.01708559,0.01289385,-1.006765,4.886873,-4.277741,32.14082,1007.791
33.089011669,-7.424441,2.506823,-0.6361521,0.00318071,-0.01212847,-1.003783,4.886873,-4.277741,32.14082,1007.79
33.124075413,-6.932221,7.860108,-3.512524,-0.05848202,-0.0194451,-0.9612978,4.886873,-4.277741,32.14082,1007.79
33.156634808,-7.362914,11.66689,-3.940919,0.03972475,0.01583534,-1.062847,4.893343,-5.013112,30.80783,1007.79
33.189194679,12.07976,19.51837,-1.737741,0.04386147,0.05813974,-1.161781,4.535583,-5.374773,31.64005,1007.792
33.224258423,24.56984,25.76387,1.077431,0.04333704,0.03542799,-1.085754,4.535583,-5.374773,31.64005,1007.79
33.256813526,25.12358,24.99062,1.750624,-0.008060256,-0.0487658,-0.9951468,4.176424,-5.738647,32.08992,1007.79
33.289372444,21.73957,23.44411,2.301419,-0.04209765,-0.07112189,-0.8799279,3.006202,-5.016824,32.53453,1007.79
33.324437141,23.27776,23.26567,4.015002,-0.01412253,-0.1115875,-0.9849817,3.006202,-5.016824,32.53453,1007.79
33.356996060,46.2275,10.17986,7.013772,0.06045036,-0.04522117,-1.043496,3.429701,-4.647343,32.97661,1007.793
33.389555454,48.13485,5.837756,9.155751,0.0428452,-0.06856196,-0.9848636,2.250536,-3.566874,32.52647,1007.791
33.422115326,19.89375,0.6629142,4.015002,0.07762323,-0.08608317,-0.9866146,2.250536,-3.566874,32.52647,1007.794
33.457174778,-0.287256,-2.549057,1.811824,0.07414604,-0.1130568,-0.9435189,1.511914,-3.208357,32.52624,1007.796
33.489734173,-4.286541,-3.917118,1.13863,0.09295954,-0.1385885,-0.9395762,1.49487,-2.116925,32.5184,1007.796
33.522293091,4.757996,-3.798156,1.19983,0.08802991,-0.1461518,-1.000109,1.49487,-2.116925,32.5184,1007.798
33.557357788,10.6031,-3.322309,0.8326334,0.0706279,-0.120511,-1.02387,1.503813,-2.47557,33.41316,1007.793
33.589916706,15.46377,-4.928294,1.19983,0.06614137,-0.1089634,-1.011122,1.49487,-2.116925,32.5184,1007.795
33.622476101,18.54015,-6.117913,2.546217,0.05906297,-0.1251662,-0.9954104,1.49487,-2.116925,32.5184,1007.799
33.657536507,14.66392,-2.905942,3.464208,0.03354486,-0.1502885,-0.9948024,1.49082,-1.750531,32.96186,1007.799
33.690095901,17.86334,0.5439523,2.17902,0.05083084,-0.1733393,-1.006288,1.851609,-1.384074,32.95806,1007.8
33.722654819,20.75513,3.815404,3.158211,0.06652357,-0.1780941,-0.984624,1.485138,-1.386721,32.95925,1007.798
33.757718563,21.98568,4.410213,3.647806,0.06361154,-0.1781498,-0.9807552,1.485138,-1.386721,32.95925,1007.8
33.790278435,20.93972,3.755923,4.688195,0.05984363,-0.1888972,-0.9794653,2.208348,-0.6512227,33.39772,1007.8
33.822837353,18.47862,2.030976,3.953803,0.0706969,-0.1999532,-0.9752941,2.195354,0.0738163,32.94643,1007.8
33.855392933,13.24878,0.5439523,3.525407,0.07138402,-0.2179101,-0.9789523,2.195354,0.0738163,32.94643,1007.797
33.890456676,8.634225,-0.05085711,2.485017,0.0719962,-0.228596,-0.9786325,1.452682,0.7987266,33.38966,1007.799
33.923016548,3.773556,-0.7051474,0.7102346,0.06804127,-0.2199773,-0.961579,1.443739,1.157372,32.4949,1007.797
33.955575466,-1.579333,-1.240476,0.09824064,0.06599773,-0.2131692,-0.9682405,1.443739,1.157372,32.4949,1007.799
33.990639210,-5.701672,-1.180995,-0.1465569,0.06309145,-0.2165647,-0.9779571,1.44537,1.159956,32.94098,1007.799
34.023199081,-5.7632,-0.4672237,-0.2077563,0.06453582,-0.21604,-0.9823008,2.166948,1.892869,32.93337,1007.795
34.055754185,-4.409595,-0.2292999,-0.2689557,0.06646631,-0.2150318,-0.9847041,2.166948,1.892869,32.93337,1007.795
34.090817928,-2.748354,0.3655095,-0.1465569,0.06309551,-0.2175234,-0.9808719,1.44537,1.159956,32.94098,1007.796
34.123377323,-1.763915,0.7223951,-0.3301551,0.06792738,-0.2116839,-0.9687031,2.195354,0.0738163,32.94643,1007.796
34.155937195,-0.4718384,0.3060285,-0.1465569,0.06785378,-0.2072689,-0.9778199,2.195354,0.0738163,32.94643,1007.796
34.191000938,-1.087113,0.3060285,-0.1465569,0.06446562,-0.2073508,-0.9696004,1.817522,0.7987905,32.9424,1007.798
34.223559856,-0.9025306,0.6034332,-0.2689557,0.0649337,-0.2068343,-0.9749101,2.183992,0.8014369,32.94121,1007.796
34.256115913,0.6356558,-0.2292999,-0.02415815,0.06975923,-0.2028858,-0.9743711,2.183992,0.8014369,32.94121,1007.797
34.291179657,2.112315,-1.775804,0.2206394,0.07370681,-0.2086373,-0.9807466,1.44942,0.7935605,32.49751,1007.801
34.323738575,0.2664911,-2.251652,0.2206394,0.06202615,-0.2088007,-0.9783209,2.189673,0.4376264,32.94382,1007.801
34.356297970,-2.317662,-1.656842,0.15944,0.05907669,-0.2059343,-0.9758575,2.189673,0.4376264,32.94382,1007.801
34.388857842,-1.14864,-0.6456665,-0.02415815,0.05469463,-0.2069435,-0.980219,1.821572,0.4323964,32.49894,1007.798
34.423921585,0.1434362,0.1870666,-0.08535755,0.05867837,-0.2141879,-0.9788832,2.193724,0.07123327,32.50036,1007.8
34.456476688,2.050787,1.198243,-0.1465569,0.06204352,-0.2112104,-0.982708,2.193724,0.07123327,32.50036,1007.802
34.489035606,4.142721,1.436166,0.15944,0.06157305,-0.2117225,-0.978365,1.820783,0.8039565,33.83454,1007.802
34.524100304,3.896611,1.436166,0.2206394,0.06350233,-0.2107121,-0.9812518,1.815891,0.796207,32.49633,1007.802
34.556659222,3.096754,1.138762,0.15944,0.06985395,-0.212571,-0.9817697,1.815891,0.796207,32.49633,1007.802
34.589218616,2.112315,0.7223951,0.09824064,0.06942008,-0.2155279,-0.9740803,2.17263,1.529059,32.93599,1007.799
34.624282360,2.419952,0.3655095,0.2206394,0.07184435,-0.2150015,-0.9760081,1.810209,1.160018,32.49371,1007.799
34.656837940,1.189403,-0.6456665,0.15944,0.06748395,-0.2160503,-0.9716696,1.810209,1.160018,32.49371,1007.799
34.689397335,-2.379189,-0.8241093,-0.2077563,0.06317234,-0.2224198,-0.9727293,1.451051,0.796144,32.94358,1007.799
34.724461079,-4.77876,-0.4672237,-0.2077563,0.05913351,-0.2117454,-0.9802966,1.813471,1.165184,33.38586,1007.801
34.757019997,-2.010025,-1.002552,-0.02415815,0.07370207,-0.2100555,-0.9894691,1.813471,1.165184,33.38586,1007.803
34.789579868,-1.210168,-1.002552,0.09824064,0.06209976,-0.2132156,-0.9692041,2.178311,1.165248,32.93859,1007.805
34.822139263,0.2049636,-1.180995,-0.1465569,0.06258076,-0.2146253,-0.9784103,1.813471,1.165184,33.38586,1007.806
34.857199192,3.158282,-1.597362,0.2818388,0.05916741,-0.2160879,-0.98713,1.813471,1.165184,33.38586,1007.806
34.889758587,1.373985,-0.3482618,0.2818388,0.05275408,-0.2069821,-0.9773175,1.817522,0.7987905,32.9424,1007.808
34.922317982,-1.456278,1.198243,-0.08535755,0.06008238,-0.2083578,-0.9744452,2.556144,0.4402738,32.94263,1007.808
34.957381725,-0.7794757,1.436166,-0.2689557,0.05675795,-0.2161658,-0.9769781,2.556144,0.4402738,32.94263,1007.81
34.989940643,1.004821,0.9008379,-0.08535755,0.06462159,-0.2233308,-0.9819288,1.815891,0.796207,32.49633,1007.805
35.022500515,1.681623,0.008623828,0.15944,0.07135696,-0.2140558,-0.9716429,2.174261,1.531641,33.38206,1007.805
35.057560444,0.6356558,-0.8835903,0.15944,0.06553251,-0.2146421,-0.966329,2.174261,1.531641,33.38206,1007.807
35.090119839,-2.071552,-0.7646284,-0.02415815,0.06158476,-0.2136463,-0.9827448,1.828884,0.07116938,32.94762,1007.809
35.122678757,-1.456278,-0.4077428,-0.02415815,0.06306092,-0.2155578,-0.9856757,2.178311,1.165248,32.93859,1007.809
35.157743454,0.5741283,-0.7051474,0.09824064,0.06061403,-0.2127136,-0.9769291,2.178311,1.165248,32.93859,1007.811
35.190302372,0.3280185,-0.7051474,0.2206394,0.06447659,-0.2102244,-0.9788284,2.178311,1.165248,32.93859,1007.811
35.222861290,-0.964058,-1.240476,0.2818388,0.06354376,-0.2131658,-0.9759721,1.81184,1.162602,32.93979,1007.812
35.255416870,-1.948497,-1.359438,-0.08535755,0.05818338,-0.213704,-0.9798421,1.81184,1.162602,32.93979,1007.814
35.290481091,-2.563772,-1.4784,-0.02415815,0.0561981,-0.2093804,-0.9744571,1.823203,0.4349799,32.94501,1007.814
35.323040485,-2.748354,-1.240476,-0.1465569,0.05960354,-0.2102814,-0.9802747,1.813471,1.165184,33.38586,1007.812
35.355599403,-0.1642011,-1.299957,0.2206394,0.05766388,-0.212224,-0.986103,1.813471,1.165184,33.38586,1007.812
35.390663147,-1.025585,-0.5267046,0.2818388,0.04835834,-0.207015,-0.9826308,2.179942,1.167831,33.38467,1007.813
35.423223019,0.4510734,0.4249904,0.09824064,0.05316786,-0.2035128,-0.9907994,1.810209,1.160018,32.49371,1007.815
35.455778122,2.112315,0.9008379,-0.02415815,0.05473049,-0.2103383,-0.981721,2.183992,0.8014369,32.94121,1007.815
35.490841866,1.189403,0.841357,-0.08535755,0.05868273,-0.2132447,-0.972585,2.183992,0.8014369,32.94121,1007.817
35.523401260,-2.010025,1.495647,-0.3301551,0.06116496,-0.2171046,-0.9716795,1.810209,1.160018,32.49371,1007.813
35.555961132,-2.379189,0.9603189,-0.3913546,0.06588066,-0.2058212,-0.9811795,2.544781,1.167896,32.93741,1007.813
35.591024876,-1.702388,-0.5267046,-0.08535755,0.05841136,-0.1908709,-0.9770772,2.544781,1.167896,32.93741,1007.815
35.623583794,-1.14864,-0.7051474,0.3430382,0.05857259,-0.2078118,-0.991837,2.185623,0.8040195,33.38728,1007.816
35.656138897,2.789117,-0.3482618,0.4042376,0.05728322,-0.2209855,-0.9843028,2.183992,0.8014369,32.94121,1007.816
35.688698769,4.942578,-0.169819,0.2206394,0.05617991,-0.2064935,-0.9681292,2.183992,0.8014369,32.94121,1007.812
35.723762512,2.727589,-0.7051474,0.4042376,0.0512631,-0.2055192,-0.9826108,2.183992,0.8014369,32.94121,1007.812
35.756321907,1.74315,-0.2292999,0.15944,0.0610004,-0.205865,-0.9855258,2.556144,0.4402738,32.94263,1007.812
35.788880825,1.435513,0.008623828,0.03704125,0.05673698,-0.2137494,-0.974041,2.556144,0.4402738,32.94263,1007.812
35.823944569,2.543007,0.1870666,0.4042376,0.05484287,-0.2205314,-0.9842935,1.817522,0.7987905,32.9424,1007.814
35.856500626,2.850644,-0.4077428,0.3430382,0.05490873,-0.2225541,-0.9669228,2.17668,1.162665,32.49252,1007.81
35.889059544,3.096754,-0.169819,0.3430382,0.05772658,-0.2151922,-0.9745473,2.17668,1.162665,32.49252,1007.81
35.924123287,0.7587107,-0.5861856,0.3430382,0.05431746,-0.2128577,-0.9633906,2.17668,1.162665,32.49252,1007.81
