Time (s),Gyroscope X (deg/s),Gyroscope Y (deg/s),Gyroscope Z (deg/s),Accelerometer X (g),Accelerometer Y (g),Accelerometer Z (g),Magnetometer X (uT),Magnetometer Y (uT),Magnetometer Z (uT),Barometer (hPa)
0.012321472,0.6149448,0.02265382,0.09742941,-0.3398758,-0.8377206,0.4025645,26.53555,38.11557,-2.503236,1007.696
0.046968460,0.06207109,-0.03653119,-0.08643166,-0.3364272,-0.844478,0.4097067,26.53555,38.11557,-2.503236,1007.694
0.079142094,1.167819,0.2002089,0.2200035,-0.3402178,-0.8317826,0.4170766,27.29721,38.11052,-2.060823,1007.694
0.111314297,0.1849319,0.1410238,0.4651515,-0.3398413,-0.8372057,0.4064245,26.91374,38.49134,-2.50703,1007.694
0.145961762,0.2463623,0.08183884,0.2200035,-0.3384258,-0.84306,0.403471,26.91374,38.49134,-2.50703,1007.694
0.178134918,1.966414,0.614504,0.1587164,-0.3388308,-0.8376627,0.4107493,26.53606,38.87784,-2.506957,1007.694
0.212781906,-0.6136635,0.792059,0.4038645,-0.3437065,-0.832799,0.4089068,26.91349,38.11021,-2.50517,1007.694
0.244954586,0.3077928,0.4369489,0.1587164,-0.3379317,-0.8445075,0.4049004,26.91349,38.11021,-2.50517,1007.694
0.279602528,1.474971,0.3185789,0.2200035,-0.342753,-0.8323407,0.4060097,27.29746,38.49166,-2.062684,1007.693
0.311775208,-0.3679418,0.4369489,0.2812904,-0.3465835,-0.8312874,0.4142482,26.91374,38.49134,-2.50703,1007.696
0.346422672,-0.7979547,0.4369489,0.2812904,-0.334911,-0.8357335,0.4116926,26.91374,38.49134,-2.50703,1007.696
0.378595352,-0.06078974,-0.03653119,-0.1477187,-0.3418269,-0.8512501,0.4092192,27.29168,38.48597,-2.508965,1007.695
0.413242817,0.7378056,0.3777639,0.6490126,-0.3393106,-0.83862,0.4121919,26.54736,38.50808,-1.612535,1007.695
0.445415974,-0.4293722,0.732874,0.3425775,-0.3407665,-0.8347368,0.4112734,26.54736,38.50808,-1.612535,1007.695
0.480062962,-1.53512,1.087984,0.8941607,-0.3408033,-0.8299346,0.4045654,26.91374,38.49134,-2.50703,1007.695
0.512235642,-1.59655,0.732874,0.5264386,-0.3438827,-0.8431143,0.3929175,26.91927,38.11589,-2.058889,1007.695
0.546883583,0.799236,0.732874,0.5877256,-0.3447815,-0.842072,0.4016104,26.91927,38.11589,-2.058889,1007.695
0.579056263,0.1849319,0.496134,0.5264386,-0.3486611,-0.8342934,0.4007468,26.91927,38.11589,-2.058889,1007.693
0.611228466,-0.4908026,0.3777639,0.2812904,-0.3476226,-0.8269879,0.4046533,26.54133,38.12126,-2.056955,1007.693
0.645876408,-1.350828,0.2593939,0.5877256,-0.3461901,-0.850235,0.4121603,26.54133,38.12126,-2.056955,1007.693
0.678049088,-0.982246,0.496134,0.4651515,-0.3467331,-0.8468976,0.4039989,27.29721,38.11052,-2.060823,1007.697
0.712697029,1.597831,0.6736889,0.7102996,-0.3408172,-0.8352666,0.4054855,26.54158,38.50239,-2.058816,1007.697
0.744869232,-0.245081,0.496134,0.2812904,-0.3422285,-0.8323098,0.4103431,26.54158,38.50239,-2.058816,1007.697
0.779516697,0.6763752,0.3777639,0.7102996,-0.3471687,-0.8381433,0.4060031,26.91901,37.73476,-2.057029,1007.695
0.811689854,0.1235015,0.08183884,0.4038645,-0.343723,-0.8289455,0.4050828,26.91927,38.11589,-2.058889,1007.695
0.846336842,0.3077928,0.08183884,0.2812904,-0.3569867,-0.8357299,0.3979206,26.91901,37.73476,-2.057029,1007.695
0.878509522,-0.3065114,0.08183884,-0.08643166,-0.3486245,-0.8352273,0.4055587,26.91901,37.73476,-2.057029,1007.693
0.913157463,-0.4293722,-0.0957162,-0.08643166,-0.3451845,-0.8342552,0.4079446,27.30324,38.49734,-1.616404,1007.696
0.945330143,0.1235015,-0.0957162,-0.02514464,-0.3496306,-0.8415361,0.4050341,26.91901,37.73476,-2.057029,1007.696
0.979978085,-0.8593851,-0.5100113,0.09742941,-0.3505436,-0.8400233,0.4118031,26.91901,37.73476,-2.057029,1007.696
1.012150288,-1.105107,-0.3324562,0.1587164,-0.3422485,-0.8371638,0.4103032,26.90771,38.10452,-2.951451,1007.696
1.046798229,-1.842272,0.3777639,0.3425775,-0.3422973,-0.8362411,0.4040453,26.16364,38.50776,-2.056882,1007.694
1.078970909,-2.333715,1.087984,0.5264386,-0.3393109,-0.8318503,0.4088737,26.16364,38.50776,-2.056882,1007.696
1.113617897,-1.842272,1.620649,0.4651515,-0.3423011,-0.8420473,0.4064075,26.91952,38.49702,-2.06075,1007.694
1.145791531,-2.456576,3.041089,1.32317,-0.3442291,-0.8304102,0.4036294,26.54133,38.12126,-2.056955,1007.694
1.177963734,-3.07088,2.745164,0.9554477,-0.3576137,-0.8595487,0.3929101,26.54133,38.12126,-2.056955,1007.698
1.212611198,1.659262,1.798204,0.7102996,-0.3605419,-0.8498631,0.3881973,27.29746,38.49166,-2.062684,1007.692
1.244784355,1.229249,1.206354,0.1587164,-0.3654446,-0.8329346,0.3772966,26.9253,38.50271,-1.61447,1007.692
1.279431343,0.8606665,-0.2140862,-0.02514464,-0.3566775,-0.836862,0.3771824,26.9253,38.50271,-1.61447,1007.692
1.311604023,1.41354,-1.634526,-0.883163,-0.358066,-0.8411382,0.3882461,26.93082,38.12726,-1.166328,1007.694
1.346251965,3.010731,-2.403932,-0.5154408,-0.3584769,-0.8371972,0.3955124,27.67514,38.10515,-2.062757,1007.694
1.378424645,0.1849319,-2.936597,-0.7605889,-0.3588517,-0.8264533,0.4037985,27.67514,38.10515,-2.062757,1007.694
1.413072109,-1.166537,-2.818227,-1.005737,-0.3442607,-0.8497816,0.409254,26.54736,38.50808,-1.612535,1007.694
1.445244789,0.8606665,-2.344747,-0.7605889,-0.3446272,-0.8399974,0.4189781,27.29143,38.10484,-2.507104,1007.694
1.479892731,-2.763728,-1.930452,-0.2702928,-0.3285774,-0.8430279,0.4139834,27.29143,38.10484,-2.507104,1007.692
1.512065411,-0.3679418,-1.161046,0.4038645,-0.3375387,-0.8537842,0.3980723,26.91927,38.11589,-2.058889,1007.692
1.546712399,1.720692,-0.0957162,0.7102996,-0.3365145,-0.8469751,0.4005289,27.30272,37.73508,-1.612682,1007.692
1.578885555,2.82644,0.08183884,0.8328737,-0.3438805,-0.8474643,0.3952916,27.30272,37.73508,-1.612682,1007.691
1.613533020,2.88787,0.4369489,0.6490126,-0.3471565,-0.8381322,0.407449,27.29168,38.48597,-2.508965,1007.691
1.645705700,1.904984,0.496134,-0.08643166,-0.3539355,-0.8283789,0.4090388,27.29143,38.10484,-2.507104,1007.696
1.677878857,0.5535144,-0.0957162,-0.08643166,-0.3505928,-0.8313638,0.4017529,27.29143,38.10484,-2.507104,1007.696
1.712525845,1.35211,-0.6283813,0.2200035,-0.3529978,-0.836639,0.4084799,27.67514,38.10515,-2.062757,1007.696
1.744698525,0.8606665,-1.101861,-0.02514464,-0.3588232,-0.8283616,0.4081205,27.29143,38.10484,-2.507104,1007.695
1.811518669,-0.6750939,-0.9834914,0.2200035,-0.3510457,-0.8405173,0.4103577,26.91952,38.49702,-2.06075,1007.699
1.846166611,0.4306536,-0.3324562,0.1587164,-0.3422785,-0.8463789,0.4111916,26.91901,37.73476,-2.057029,1007.699
1.878339291,1.044958,-0.2140862,0.09742941,-0.336385,-0.8362189,0.4107383,26.91901,37.73476,-2.057029,1007.699
1.912987232,0.9835273,0.1410238,0.4038645,-0.3418013,-0.8362362,0.4050047,26.90142,37.33657,-3.394011,1007.699
1.945159912,1.106388,0.2593939,0.09742941,-0.3442106,-0.8347455,0.4079315,26.91349,38.11021,-2.50517,1007.697
1.979806900,1.290679,0.08183884,0.4038645,-0.3519795,-0.8303191,0.4104505,27.29168,38.48597,-2.508965,1007.697
2.011980057,-0.3679418,0.08183884,0.3425775,-0.3486125,-0.8323148,0.4055826,27.29168,38.48597,-2.508965,1007.695
2.046627522,-0.7979547,-0.03653119,0.09742941,-0.3506027,-0.836692,0.4031551,26.53555,38.11557,-2.503236,1007.693
2.078800678,0.2463623,0.3185789,-0.3315798,-0.3510395,-0.8429295,0.4122658,26.91349,38.11021,-2.50517,1007.693
2.113447666,2.150705,0.3185789,0.03614238,-0.3480477,-0.8254775,0.4114177,26.91349,38.11021,-2.50517,1007.692
2.145620346,0.4306536,-0.03653119,0.2200035,-0.3509573,-0.8210942,0.411481,27.28565,38.09916,-2.953385,1007.696
2.180268288,-0.7979547,-0.3324562,0.2812904,-0.3520299,-0.8395527,0.4089288,27.66333,37.71265,-2.953458,1007.696
2.212440491,0.6763752,-0.03653119,0.4651515,-0.3480714,-0.8380718,0.4146881,27.66333,37.71265,-2.953458,1007.696
2.244613171,-1.105107,0.02265382,0.3425775,-0.3465798,-0.8254812,0.411886,26.91297,37.34794,-2.501449,1007.696
2.279261112,0.0006406754,0.2593939,0.4038645,-0.3461503,-0.8327904,0.4084477,26.91349,38.11021,-2.50517,1007.696
2.311433792,0.5535144,0.496134,0.09742941,-0.3510926,-0.837175,0.4031557,26.91349,38.11021,-2.50517,1007.698
2.346081734,0.1235015,0.6736889,0.09742941,-0.3476166,-0.8264987,0.4051393,26.91374,38.49134,-2.50703,1007.698
2.378253937,0.2463623,0.792059,0.2200035,-0.35399,-0.8366489,0.4065611,27.66936,38.09947,-2.509038,1007.698
2.412901878,0.3692232,0.4369489,0.03614238,-0.3534206,-0.8375446,0.4166704,27.66936,38.09947,-2.509038,1007.698
2.445074558,0.3077928,0.614504,0.4651515,-0.3510157,-0.8322693,0.4099434,26.91927,38.11589,-2.058889,1007.696
2.479721546,-0.7365243,0.6736889,0.6490126,-0.3496106,-0.8357151,0.4045999,27.6754,38.48629,-2.064618,1007.696
2.511895180,1.229249,0.851244,0.4651515,-0.3506106,-0.8405678,0.4040872,27.6754,38.48629,-2.064618,1007.696
2.546542168,1.474971,0.6736889,0.5264386,-0.348544,-0.8206469,0.4080882,26.5358,38.49671,-2.505096,1007.696
2.578715325,-0.6136635,0.496134,0.4038645,-0.3529738,-0.8288802,0.4075796,27.28565,38.09916,-2.953385,1007.696
2.613362789,-0.1836506,0.496134,0.1587164,-0.3574259,-0.8376173,0.4046572,27.28565,38.09916,-2.953385,1007.696
2.645534992,1.106388,0.4369489,0.5264386,-0.3544274,-0.8303142,0.4095094,26.91875,37.35363,-2.055168,1007.694
2.680182934,0.3077928,0.555319,0.2200035,-0.3538565,-0.824922,0.4167785,27.66333,37.71265,-2.953458,1007.7
2.712355614,-0.245081,0.2593939,0.03614238,-0.3500196,-0.8293545,0.4109222,27.66333,37.71265,-2.953458,1007.698
2.744528294,0.5535144,0.496134,0.4651515,-0.3495333,-0.8366119,0.4142318,27.29721,38.11052,-2.060823,1007.698
2.779175759,0.0006406754,0.4369489,0.5264386,-0.3514815,-0.8288617,0.4109399,27.29695,37.72939,-2.058963,1007.698
2.811348438,0.5535144,0.08183884,0.2812904,-0.3524368,-0.8336738,0.4157291,27.29695,37.72939,-2.058963,1007.697
2.845996380,0.7378056,0.3777639,0.4651515,-0.3529597,-0.8254824,0.4076075,27.6754,38.48629,-2.064618,1007.697
2.878169060,0.06207109,0.3185789,0.5264386,-0.3509716,-0.8206235,0.409557,27.29117,37.72371,-2.505243,1007.695
2.912817002,-0.7365243,0.02265382,0.2812904,-0.3520138,-0.8356695,0.4089607,27.29117,37.72371,-2.505243,1007.699
2.944989204,-0.552233,0.08183884,-0.1477187,-0.3559094,-0.8327412,0.4085392,27.66333,37.71265,-2.953458,1007.699
2.979636669,-2.456576,1.916574,-0.1477187,-0.3479578,-0.8360342,0.4272358,27.29746,38.49166,-2.062684,1007.697
3.011809826,-7.186718,3.455384,0.4651515,-0.348176,-0.8265988,0.4547896,27.29746,38.49166,-2.062684,1007.697
3.046456814,-4.729501,3.928864,0.3425775,-0.3635895,-0.8886428,0.392726,27.29143,38.10484,-2.507104,1007.695
3.078630447,4.853643,3.692125,1.078022,-0.3598725,-0.8216535,0.3961356,27.30272,37.73508,-1.612682,1007.695
3.113277435,0.3077928,2.804349,1.507031,-0.3601893,-0.7910306,0.401693,27.68118,38.49197,-1.618338,1007.695
3.145450115,-8.783908,0.969614,0.5264386,-0.3688357,-0.8377306,0.3825907,27.68118,38.49197,-1.618338,1007.695
3.180098057,2.212136,2.212499,-0.6380149,-0.3666029,-0.881936,0.3793134,27.67514,38.10515,-2.062757,1007.695
3.212270260,-4.053767,3.63294,-3.089496,-0.3709035,-0.8417323,0.428849,27.68066,37.72971,-1.614615,1007.696
3.246918202,-46.62505,5.64523,-7.134439,-0.3991227,-0.803425,0.5947539,27.68066,37.72971,-1.614615,1007.696
3.279090881,-92.45213,5.64523,-15.65334,-0.3867776,-0.7632173,0.5925602,26.92504,38.12158,-1.612609,1007.696
3.311263561,-144.2994,-5.422367,-34.2233,-0.5409013,-0.9218794,0.5632884,26.95997,38.53682,1.063213,1007.696
3.345911026,-226.1247,-27.97186,-89.32034,-0.469392,-1.25149,0.28902,26.95997,38.53682,1.063213,1007.7
3.378083706,-228.0905,-27.55756,-135.5307,-0.2601056,-1.379542,-0.00559818,26.26657,38.22815,5.914274,1007.7
3.412731648,-246.2124,-6.310143,-178.0027,-0.07077628,-1.191381,-0.1566794,24.08529,39.10709,12.55261,1007.7
3.444904327,-238.7794,17.89653,-198.0435,0.06107529,-1.165205,-0.3909817,24.08529,39.10709,12.55261,1007.698
3.479552269,-185.5806,41.27461,-196.0823,0.1775147,-0.9483517,-0.5189743,19.21727,38.14157,20.99923,1007.698
3.511724472,-141.4736,68.38134,-174.1416,0.2739727,-0.8257089,-0.5400712,12.88208,35.59152,28.12218,1007.698
3.546371937,-78.32314,82.58575,-140.5563,0.3148934,-0.7384509,-0.5908257,12.88208,35.59152,28.12218,1007.702
3.578545094,-29.3631,89.09609,-108.7483,0.3665069,-0.5154773,-0.5962171,6.500699,33.05952,31.67457,1007.7
3.613192082,-26.23014,99.98614,-73.81473,0.4368541,-0.4161792,-0.5772568,-0.2866793,30.50527,33.06125,1007.7
3.645365238,-32.61891,105.6087,-47.58388,0.4521935,-0.4779215,-0.580319,-0.2866793,30.50527,33.06125,1007.697
3.680012703,-55.16387,110.166,-20.80145,0.5622331,-0.3510318,-0.6713976,-4.816948,29.43198,33.53632,1007.697
3.712185383,-95.09364,143.4279,11.37424,0.6231126,-0.3464959,-0.862318,-9.736971,27.97155,33.12262,1007.695
3.746833325,-82.07039,189.4147,48.75932,0.5572082,-0.4703193,-1.03769,-9.736971,27.97155,33.12262,1007.693
3.779005528,-63.39555,248.2446,83.20263,0.5049455,-0.4614361,-0.9894109,-12.74495,25.36362,34.48996,1007.696
3.813653469,-171.3288,458.0555,299.6071,-0.6618863,-4.427855,12.43512,-17.74004,23.13045,33.18774,1007.694
3.845826149,262.8614,-243.8788,-143.7432,4.102187,-1.646316,0.9415247,-17.74004,23.13045,33.18774,1007.692
3.877998829,96.99927,139.8177,26.14441,-0.4192031,-0.9641191,-0.5564342,-22.29894,22.40986,31.42955,1007.692
3.912646294,51.60218,-7.079547,-3.028209,0.1855847,-0.3190685,0.02115767,-21.56535,22.3772,29.70431,1007.692
3.944818974,10.75096,-32.05562,24.42838,0.8917365,-0.3460992,-0.1967701,-21.56535,22.3772,29.70431,1007.69
3.979466915,-25.06297,-12.52457,14.31602,0.5291761,-1.094406,-0.4125999,-23.08712,24.6741,28.80832,1007.69
4.011639595,49.8207,-36.4945,-2.354051,0.5353029,-0.8018163,-0.2314231,-21.94701,25.42595,29.24508,1007.693
4.046287537,20.21125,-34.48221,14.37731,0.5196216,-0.526351,-0.08199598,-21.56437,25.04432,29.62753,1007.693
4.078459740,-26.5373,-38.56598,25.96055,0.4235039,-0.7631782,-0.1394455,-21.56437,25.04432,29.62753,1007.693
4.113107681,8.048026,-50.93564,33.00856,0.3689554,-0.9551579,-0.2079991,-20.44077,25.77993,28.7892,1007.691
4.145280361,67.02122,-75.02395,49.06576,0.2515434,-0.9322274,-0.07946661,-18.52878,25.77501,30.5009,1007.693
4.179927349,160.7026,-113.6718,71.92581,0.2345999,-0.9966673,-0.2644456,-18.52878,25.77501,30.5009,1007.693
4.212100506,222.5016,-109.5288,103.3661,0.2585708,-0.880192,-0.313837,-16.27033,28.01904,29.64933,1007.693
4.246747971,261.2028,-99.58572,135.2353,0.2247572,-0.9256842,-0.1924326,-11.72676,32.47048,25.14066,1007.691
4.313568115,231.409,-66.14619,183.8972,0.09955005,-0.7041432,0.1320558,-5.778492,38.82586,17.10848,1007.694
4.345740795,172.5587,-45.07632,193.8257,-0.02753524,-0.7637384,0.2527682,0.9075632,42.80394,7.808821,1007.692
4.377913952,136.8676,-17.5553,200.077,-0.1692072,-0.8787855,0.3485775,0.9075632,42.80394,7.808821,1007.69
4.412561417,80.22877,2.212499,203.4478,-0.2249402,-0.7312252,0.439484,7.992042,44.13064,0.2416191,1007.69
4.444734573,23.58992,2.212499,193.3967,-0.4357817,-1.053115,0.4180717,15.4978,42.44757,-3.806142,1007.69
4.479381561,49.69784,11.38618,178.7491,-0.3934598,-1.011377,0.3818709,15.4978,42.44757,-3.806142,1007.69
4.511554241,35.20026,17.83734,167.7787,-0.414479,-0.8958072,0.4379677,23.47947,40.0309,-5.110998,1007.688
4.546202183,28.56578,24.7028,154.4182,-0.4889038,-0.8995343,0.4101935,29.12207,34.90937,-6.900629,1007.693
4.578374863,8.109456,33.52137,135.3579,-0.5199393,-0.7991394,0.4431227,29.12207,34.90937,-6.900629,1007.693
4.613022804,-36.24331,34.17241,111.1495,-0.5982691,-0.8706227,0.5642462,33.64925,31.40906,-7.35337,1007.694
4.645195007,-30.46884,17.65979,91.96667,-0.6346285,-0.9175,0.4412892,37.44366,27.94223,-6.017119,1007.693
4.679842949,48.28494,11.20862,68.86147,-0.5809057,-1.066033,0.2858055,37.44366,27.94223,-6.017119,1007.694
4.712015629,72.30424,15.41076,26.14441,-0.5886681,-0.9279141,0.6311642,40.47039,24.09363,-5.567702,1007.696
4.746663571,32.06731,10.79433,31.53767,-0.6045101,-0.2580398,0.6286405,41.96904,21.77398,-6.456835,1007.698
4.778835774,-75.12875,17.83734,21.42531,-0.7152656,-0.382567,0.4589836,41.96904,21.77398,-6.456835,1007.698
4.813483238,29.79439,25.17628,26.87986,-0.7925258,-0.6902109,0.3569123,42.73045,21.3878,-6.012561,1007.698
4.845656395,62.29108,33.403,24.73481,-0.7912117,-0.3520804,0.5240495,43.11943,20.63153,-5.118213,1007.696
4.880303383,10.50524,35.47448,20.93502,-0.7736091,-0.3782113,0.4826999,43.11943,20.63153,-5.118213,1007.698
4.912477017,23.28277,36.1847,24.06066,-0.7466691,-0.4285072,0.4608259,43.49005,18.33368,-5.555263,1007.698
4.944649220,9.030912,34.88263,14.62245,-0.7960199,-0.5714192,0.4644462,43.87928,17.95855,-4.662774,1007.698
4.979297161,0.2463623,28.13553,17.93195,-0.7923386,-0.3632601,0.395274,43.87928,17.95855,-4.662774,1007.698
5.011469841,-2.640867,23.57829,20.26086,-0.7803691,-0.4379624,0.3458645,44.28477,17.21852,-2.493338,1007.702
5.046116829,9.583786,21.62518,17.50294,-0.8640278,-0.4624399,0.3907873,44.66246,16.83202,-2.49341,1007.702
5.078289986,7.925164,23.04562,20.13829,-0.8655686,-0.2841403,0.4115515,44.66246,16.83202,-2.49341,1007.7
5.112937450,-0.6750939,21.68437,15.48047,-0.8577312,-0.4136365,0.303407,45.05118,15.69462,-1.597201,1007.7
5.145110607,4.976504,25.17628,19.34155,-0.860166,-0.3672719,0.3978018,45.80654,14.92162,-1.597347,1007.7
5.179758072,17.01687,25.88651,24.24452,-0.8444517,-0.3952322,0.3068088,45.44569,14.56291,-0.2547112,1007.7
5.211931229,3.317883,24.82117,24.18323,-0.8911655,-0.3591312,0.3634542,45.44569,14.56291,-0.2547112,1007.7
5.246578217,24.32709,27.18858,28.35075,-0.9120409,-0.330844,0.3045963,45.83441,13.42551,0.6414986,1007.7
5.278750897,6.143682,24.58443,27.18629,-0.9391761,-0.3150591,0.3199216,46.22313,12.28811,1.537706,1007.7
5.313398838,4.239339,23.69666,29.63778,-0.901699,-0.278584,0.2904706,46.22313,12.28811,1.537706,1007.7
5.345571041,2.703579,21.38844,26.14441,-0.9110765,-0.3733763,0.2656767,46.61211,11.53185,2.432058,1007.705
5.380218983,11.30384,21.80274,28.96362,-0.8407958,-0.1740772,0.2864259,46.62182,10.01787,3.268307,1007.705
5.412391663,-3.255171,21.86192,23.32521,-0.9255928,-0.3035572,0.2466257,46.62182,10.01787,3.268307,1007.705
5.444564343,4.3622,23.5191,22.09947,-0.9415319,-0.2095523,0.2788794,46.63286,9.266972,4.164589,1007.703
5.479212284,6.082252,26.00488,20.81244,-0.9055745,-0.1513601,0.2322697,46.63761,7.748122,4.618313,1007.703
5.511384487,-1.289398,26.65591,16.15463,-0.9366907,-0.2448751,0.2332351,46.63761,7.748122,4.618313,1007.703
5.546032429,14.43679,31.39071,16.89007,-0.9003011,-0.0977966,0.1950661,46.6552,8.14631,5.955294,1007.703
5.578205109,1.536401,33.75811,15.60305,-0.9315823,-0.2253113,0.1928607,46.6715,6.638831,7.301579,1007.703
5.612853050,27.21432,35.23774,18.11581,-0.9048836,-0.1307934,0.1302489,46.6715,6.638831,7.301579,1007.703
5.645025253,10.32095,34.23159,17.31908,-0.8968745,-0.1055036,0.1419506,46.3109,6.661254,8.642355,1007.703
5.679673195,6.389403,31.33152,14.80632,-0.9785532,-0.1468155,0.08212228,46.69359,5.137036,9.094143,1007.703
5.711845875,-2.640867,27.42532,12.78384,-0.9823031,-0.06400298,0.1185079,46.69359,5.137036,9.094143,1007.701
5.746493817,-0.4293722,22.45377,6.777715,-1.007258,-0.1658987,0.04367284,45.95421,5.164016,10.3731,1007.701
5.778666496,-6.756705,19.1986,6.409993,-0.977119,-0.09176029,0.1100367,46.34897,4.413435,11.71373,1007.705
5.813313961,-1.289398,15.05565,3.468216,-1.013855,-0.1772192,0.01905909,46.34897,4.413435,11.71373,1007.705
5.845486641,-14.31264,10.85351,0.09742941,-0.9958947,-0.09719825,0.08510314,45.59862,4.048723,12.16574,1007.705
5.880134106,1.720692,10.08411,0.3425775,-0.9940664,-0.104574,0.07393929,45.60465,4.435542,12.61016,1007.703
5.912307263,-1.842272,8.190186,-3.641079,-1.020043,-0.1572196,0.0279577,45.60465,4.435542,12.61016,1007.703
5.946954250,-7.063857,6.769745,-5.418403,-0.9648277,-0.1434423,0.08780602,45.6044,4.054408,12.61202,1007.707
5.979127407,4.669352,7.06567,-6.644143,-0.9953049,-0.1309207,0.05541766,45.2262,3.678643,12.61581,1007.707
6.011300087,0.3692232,9.137146,-7.931171,-0.9876984,-0.1476213,0.09762495,45.2262,3.678643,12.61581,1007.707
6.045948029,-5.773818,10.4984,-7.195726,-1.00646,-0.1046898,0.050918,45.23827,4.45228,13.50465,1007.707
6.078120708,3.747896,8.249371,-1.434746,-0.9465537,-0.2065689,-0.0300108,45.23827,4.45228,13.50465,1007.709
6.112767696,-13.39119,9.965736,4.081086,-0.9508643,-0.2490646,0.05836699,45.23827,4.45228,13.50465,1007.707
6.144940853,7.37229,13.57602,10.39365,-0.935828,-0.08875269,0.08605827,44.48843,4.849835,13.95294,1007.707
6.179588318,7.065138,18.19245,14.74503,-0.9282822,-0.139321,0.07930499,45.2556,4.469335,14.84349,1007.705
6.211761475,-3.685184,22.03948,12.78384,-0.9734476,-0.1833109,0.01043784,45.2556,4.469335,14.84349,1007.705
6.246408463,-4.668071,29.4376,12.90642,-0.9906934,-0.1369917,0.0264046,44.88319,4.099255,15.29357,1007.705
6.278581619,21.99273,31.98256,19.34155,-0.9148157,-0.03511749,0.005328472,45.27268,4.105256,16.1842,1007.711
6.313229084,-6.449553,41.80727,18.48354,-0.9080855,-0.2599913,-0.07226212,44.14907,3.369652,17.02253,1007.711
6.345401764,14.98966,42.57668,28.41203,-0.9457015,0.04514105,0.007724323,44.14907,3.369652,17.02253,1007.711
6.380049229,-4.115197,41.92564,29.63778,-0.8803291,-0.1677844,-0.1821388,43.79348,2.254359,18.81517,1007.711
6.412221909,6.389403,37.3684,36.25677,-0.923813,-0.0008598424,-0.152883,43.43287,2.276783,20.15594,1007.711
6.446869850,-7.923882,39.3215,38.9534,-1.046882,-0.1057528,-0.1130754,43.43287,2.276783,20.15594,1007.71
6.479042530,2.334996,43.2869,39.62756,-1.045114,0.02117394,-0.08023354,43.06516,0.3243309,21.06005,1007.708
6.511215687,-0.3065114,40.26846,38.0341,-1.090819,0.06273181,-0.1965903,42.32584,-0.7912779,22.40834,1007.71
6.545862675,-10.13538,36.06633,34.11172,-1.05278,0.0683599,-0.2605228,42.32584,-0.7912779,22.40834,1007.712
6.578035832,-16.33985,31.805,36.62449,-1.026583,0.02404615,-0.1994366,40.82931,-2.659229,23.70047,1007.712
6.612683296,-10.25824,28.49064,38.58568,-0.9612136,0.10204,-0.2398916,40.07869,-3.405074,24.15434,1007.714
6.644855976,-16.58557,27.42532,37.17607,-0.97823,0.09013057,-0.2846569,40.07869,-3.405074,24.15434,1007.714
6.679503441,-11.97829,25.41302,37.11479,-0.9655083,0.1156901,-0.234919,39.71102,-5.294003,25.05814,1007.712
6.711676121,4.853643,21.44763,37.97281,-0.9200875,0.1131182,-0.2874199,38.96567,-6.796431,25.96201,1007.71
6.746324063,-11.60971,28.96412,41.52745,-0.9056739,0.09539395,-0.2476946,38.96567,-6.796431,25.96201,1007.708
6.778496742,15.72683,27.01102,46.67556,-0.9331036,0.1588217,-0.3486176,38.22635,-7.912039,27.3103,1007.708
6.813144684,4.177908,32.04174,45.81755,-0.9359226,0.2082221,-0.3014301,37.46918,-9.806971,27.32347,1007.708
6.845316887,-3.255171,30.08864,46.55299,-0.9677971,0.1898632,-0.310924,37.46918,-9.806971,27.32347,1007.708
6.879964829,3.440744,33.16626,52.49783,-0.9713255,0.1869511,-0.439127,35.60183,-10.90079,29.12384,1007.708
6.912137509,34.15595,30.6213,58.87168,-1.003973,0.1697489,-0.4249862,34.47276,-12.40353,29.58337,1007.708
6.946785450,87.04754,33.69893,64.38751,-1.043708,0.3026256,-0.3396521,34.47276,-12.40353,29.58337,1007.708
6.978958130,58.17524,26.06406,59.97485,-1.037967,0.3199758,-0.4778965,32.59855,-13.88498,30.87557,1007.708
7.013605595,75.00718,16.29853,37.0535,-1.02822,0.2179571,-0.5463084,31.48809,-13.465,32.66463,1007.711
7.045778275,96.20068,7.06567,1.200596,-1.040629,0.4077582,-0.4887159,31.48809,-13.465,32.66463,1007.711
7.077950954,93.4363,-8.440803,-22.64006,-1.032297,0.4284685,-0.3782451,29.24408,-12.64779,34.45764,1007.711
7.112598896,78.93873,-29.33311,-29.56549,-0.9521212,0.365301,-0.2725101,29.26347,-9.581663,35.78159,1007.711
7.144771099,53.19938,-44.12936,-33.97816,-0.8672838,0.2454082,-0.28152,29.26347,-9.581663,35.78159,1007.711
7.179419041,30.10154,-72.41981,-26.13342,-0.952969,0.2744741,-0.155161,28.13666,-6.511616,36.15504,1007.711
7.211591721,-81.33322,-83.72414,-33.91687,-0.8305706,0.3734007,-0.2138095,28.86654,-3.500897,33.96864,1007.709
7.246239662,-196.761,-66.79723,-41.14874,-0.945711,0.3399248,-0.6010207,29.98353,-2.771791,32.62027,1007.709
7.278412342,-192.5837,-61.11546,-48.50318,-0.9273812,-0.01277151,-0.6301274,29.98353,-2.771791,32.62027,1007.707
7.313059807,-52.27665,-58.80725,-53.71258,-0.8837452,0.02528858,-0.449953,31.84832,-5.489307,30.8385,1007.707
7.345232487,-48.71368,-54.19082,-53.03842,-0.9042616,0.3428896,-0.3155573,32.93995,-9.35573,27.7911,1007.705
7.379880428,-112.9085,-49.98868,-59.65742,-0.9073826,0.149301,-0.2448242,32.93995,-9.35573,27.7911,1007.704
7.412053108,-104.001,-53.36223,-61.43474,-0.9433659,0.01910808,-0.2826757,34.81282,-8.63736,26.43887,1007.707
7.446701050,-88.02914,-51.82342,-58.18653,-0.9270535,0.04436344,-0.2700878,35.92327,-9.057339,24.6498,1007.706
7.478873253,-90.54778,-48.50906,-56.22535,-0.9035153,0.05491501,-0.1453826,35.92327,-9.057339,24.6498,1007.706
7.513521195,-93.55788,-37.73738,-52.36427,-0.9156191,-0.07881099,-0.185414,37.77836,-10.26088,22.03179,1007.704
7.545693874,-48.9594,-36.13939,-51.69011,-0.9703413,-0.1936898,-0.1376505,38.51112,-10.29435,20.2428,1007.702
7.577866554,-24.63295,-38.56598,-55.36733,-0.9602906,-0.07410689,-0.04469658,38.51112,-10.29435,20.2428,1007.702
7.612514019,-44.35212,-39.80886,-54.87703,-0.9489538,-0.06676907,-0.09294181,39.62209,-9.952066,18.45001,1007.7
7.644686699,-8.292464,-34.18628,-53.161,-0.967746,-0.1466917,-0.08378536,40.7396,-8.460693,17.09792,1007.7
7.679334641,18.4912,-38.44761,-50.15793,-0.9606652,0.03762835,0.03093799,40.7396,-8.460693,17.09792,1007.699
7.711507321,-10.13538,-38.27005,-46.72586,-0.9187715,0.06443258,0.009078078,41.86346,-7.343956,16.25773,1007.697
7.746155262,-19.16565,-37.79657,-41.51646,-0.9100307,-0.05408723,0.003199437,42.60329,-5.466079,14.90572,1007.697
7.778327465,-11.05683,-34.54139,-35.75548,-0.9052727,-0.02814705,0.03421686,42.60329,-5.466079,14.90572,1007.699
7.812975407,-21.43857,-32.17399,-28.89133,-0.8755125,-0.009926046,0.02444939,42.95889,-4.350787,13.11308,1007.699
7.845148087,-34.46182,-27.73512,-19.08541,-0.8713588,-0.04691571,0.0139837,44.08192,-3.234862,12.20914,1007.699
7.879796028,-41.46489,-23.71054,-9.892355,-0.8844113,-0.1347477,0.07122134,44.08192,-3.234862,12.20914,1007.697
7.911968708,-41.89491,-21.93499,-3.763653,-0.9080538,-0.1262007,0.1573083,43.68665,-3.246548,10.87223,1007.697
7.946615696,-56.94535,-18.50225,4.142373,-0.8863107,-0.1352111,0.1358232,44.05304,-3.263286,9.977736,1007.696
7.978788853,-53.62811,-13.64908,13.64186,-0.9641577,-0.2173026,0.2033527,44.05304,-3.263286,9.977736,1007.696
8.013436317,-40.17485,-11.63679,16.64493,-0.9484329,-0.2381118,0.2844923,44.41973,-4.041479,9.150715,1007.694
8.045609474,-37.96336,-5.363182,21.18017,-0.9395199,-0.1631222,0.3216594,44.40817,-4.052848,8.258154,1007.694
8.080256462,-22.85147,-0.8059363,22.58977,-0.9132095,-0.2725773,0.3696755,44.40817,-4.052848,8.258154,1007.694
8.112429619,17.38545,0.555319,24.24452,-0.8410519,-0.2991083,0.3745674,44.79138,-4.814799,8.706223,1007.694
8.144602299,28.56578,-5.540737,27.06372,-0.8553699,-0.130461,0.3312654,44.40689,-5.958516,8.267458,1007.694
8.179250240,-19.71852,-14.59604,30.0055,-0.8258708,-0.1323037,0.300127,44.40689,-5.958516,8.267458,1007.696
8.211422920,-46.07217,-15.30626,29.88292,-0.841257,-0.2431261,0.206813,44.02843,-6.715415,8.273113,1007.696
8.246070385,-46.50219,-5.244812,27.6153,-0.8028199,-0.3226897,0.1735045,44.01585,-8.251318,7.387995,1007.695
8.278243065,-21.74573,4.10642,28.84104,-0.8439384,-0.3980382,0.194957,44.01585,-8.251318,7.387995,1007.695
8.312891007,15.29681,12.27395,31.04738,-0.8138332,-0.4046117,0.1801619,43.63688,-9.770483,7.397371,1007.693
8.345063686,26.72287,14.99646,30.18936,-0.834944,-0.3650451,0.262143,44.00827,-10.92494,6.954741,1007.695
8.379711628,18.24547,12.45151,24.48966,-0.8434848,-0.2975643,0.258441,43.64137,-11.67047,7.852957,1007.695
8.411883831,-7.125288,13.63521,18.29967,-0.8343602,-0.3238197,0.1954795,43.64137,-11.67047,7.852957,1007.693
8.446531296,9.583786,16.00261,16.52235,-1.067453,-0.4496494,0.2187891,43.26844,-12.80281,8.306753,1007.693
8.478704453,25.12568,10.20248,7.513159,-1.099468,-0.3661397,0.2014603,42.89551,-13.93516,8.76055,1007.691
8.513351441,35.56885,17.95571,-4.928107,-1.264022,-0.2808274,0.2065911,42.89551,-13.93516,8.76055,1007.693
8.545524597,60.87818,12.03721,-34.65231,-1.238927,-0.3131243,0.1887387,42.52335,-13.92411,9.208763,1007.692
8.580172062,90.54907,2.271684,-54.99961,-1.211422,-0.1153556,0.1722784,42.91754,-14.29437,10.48378,1007.692
8.612345219,63.82684,-14.47767,-66.828,-1.03885,0.06782663,0.1201224,42.91754,-14.29437,10.48378,1007.69
8.646992684,10.32095,-17.61448,-76.94036,-0.8977702,0.07542908,0.06392071,42.9246,-12.38301,10.92076,1007.688
8.679165840,-3.869475,-12.34701,-78.77898,-0.9093599,-0.05489054,0.02535853,44.06073,-8.968918,10.89821,1007.686
8.711338043,8.232317,-7.967323,-67.86989,-1.002397,-0.123386,0.02084199,44.06073,-8.968918,10.89821,1007.686
8.745985985,3.993618,-4.061112,-56.53178,-0.9944962,-0.08030286,0.01100145,44.42892,-6.317722,9.990686,1007.686
8.778158665,-9.213921,-1.989637,-49.66764,-0.995611,-0.1452225,0.02590064,44.80371,-3.660029,9.593203,1007.688
8.812806606,-3.930906,-0.5691963,-39.98428,-0.9071321,-0.1909412,0.00782815,44.80371,-3.660029,9.593203,1007.688
8.844979286,-0.1836506,-1.161046,-25.21411,-0.9951993,-0.2038062,0.04517581,45.18293,-1.75973,9.581964,1007.687
8.879626751,2.457857,-4.238667,-18.41125,-0.8751073,-0.2125818,0.05458687,45.56737,0.5265751,9.951393,1007.687
8.911799431,-13.88263,-4.416222,-15.28561,-0.8758579,-0.1698179,0.06073042,45.56737,0.5265751,9.951393,1007.687
8.946447372,-11.794,0.02265382,-7.379588,-0.8962485,-0.3494335,0.04401593,45.56242,0.5217024,9.568867,1007.687
8.978620052,22.05416,-1.101861,-0.5154408,-1.017297,-0.3783907,0.1133506,45.94587,1.346996,9.945427,1007.687
9.013267040,17.44688,-3.232522,-4.376523,-0.8620278,-0.187143,0.08889651,45.94587,1.346996,9.945427,1007.687
9.045440197,-29.9774,3.928864,-0.2702928,-0.8260171,-0.3599736,0.04423771,45.56323,1.728625,9.562973,1007.688
9.080087662,7.740872,7.539151,12.5387,-0.9534257,-0.6398118,0.1168655,45.93565,2.098705,9.112898,1007.687
9.112260819,13.51533,3.692125,14.74503,-0.8958281,-0.4278729,0.1320533,45.93565,2.098705,9.112898,1007.687
9.146907806,-14.6198,9.965736,4.755243,-0.8349837,-0.4688991,0.07523535,45.94117,1.723257,9.561039,1007.687
9.179080963,13.33104,10.73514,-6.031273,-0.8472785,-0.6604182,0.1566751,45.18447,0.5270709,9.570799,1007.689
9.211253643,47.36349,6.237081,-13.87601,-0.8235453,-0.5210226,0.1841128,45.18447,0.5270709,9.570799,1007.689
9.245901585,22.5456,6.177896,-13.14057,-0.7832652,-0.4329713,0.1728949,45.18447,0.5270709,9.570799,1007.687
9.278074265,16.21827,1.087984,-5.418403,-0.858894,-0.507502,0.1522601,45.5737,1.358049,10.39364,1007.687
9.312722206,24.51138,2.094129,6.47128,-0.8984154,-0.4429854,0.1218308,45.5737,1.358049,10.39364,1007.687
9.344894409,25.12568,6.769745,23.44779,-1.077664,-0.4355039,0.158269,45.1905,2.12,9.945574,1007.687
9.379542351,22.5456,6.35545,33.37628,-1.08922,-0.3318577,0.1847773,45.19076,2.501133,9.943712,1007.685
9.411715031,8.293747,6.414635,36.37934,-1.13048,-0.2690338,0.1225383,45.19076,2.501133,9.943712,1007.684
9.446362972,15.72683,3.337014,33.49886,-1.080359,-0.2181927,0.1388777,45.5737,1.358049,10.39364,1007.684
9.478535175,4.915073,-3.291707,32.57955,-1.067862,-0.1406493,0.1948303,45.56686,-0.2356918,9.955114,1007.684
9.513183117,-18.98136,-8.026507,30.74094,-0.9711581,-0.05594721,0.1632963,45.57212,-0.992274,10.40512,1007.684
9.545355797,-30.16169,-9.446948,24.48966,-0.8166149,-0.05588563,0.1449848,45.57212,-0.992274,10.40512,1007.682
9.580003739,-24.44866,-1.752897,15.97077,-0.7937038,-0.1280737,0.1769519,45.93829,-2.532734,9.581818,1007.682
9.612176418,-4.483779,2.804349,15.72562,-0.7506542,-0.09534522,0.2317679,45.94248,-3.671262,9.969927,1007.686
9.646824360,-13.39119,4.402345,22.22205,-0.8216693,-0.0995787,0.2034757,45.94248,-3.671262,9.969927,1007.686
9.678996563,-19.59566,-3.410077,24.73481,-0.9274453,-0.300072,0.2567937,45.55907,-4.433033,9.593056,1007.684
9.711169243,-17.81418,-9.446948,22.28333,-0.9517515,-0.2302692,0.2923,45.55856,-5.1953,9.596777,1007.682
9.745817185,-52.5838,-6.606068,15.54176,-0.9021854,-0.1881527,0.2468767,45.55856,-5.1953,9.596777,1007.682
9.777989865,-36.4276,-1.161046,3.345642,-0.8867967,-0.4519446,0.2893844,46.30211,-6.360808,8.705931,1007.682
9.812637329,12.40958,1.857389,-6.215134,-0.8278881,-0.3861524,0.2990171,45.92943,-7.112021,9.157866,1007.682
9.844810009,0.6763752,7.124856,-7.011866,-0.7630937,-0.2449628,0.3337984,45.92943,-7.112021,9.157866,1007.682
9.879457951,-13.57548,5.88197,-10.01493,-0.743802,-0.4105729,0.2705572,46.29581,-7.128759,8.263371,1007.681
9.911630631,-3.623754,7.006485,-10.01493,-0.7479026,-0.4924555,0.2867904,46.30133,-7.504208,8.711514,1007.681
9.946278572,2.519288,11.20862,-11.73097,-0.6675504,-0.4871671,0.2060723,46.30133,-7.504208,8.711514,1007.679
9.978450775,18.92121,22.98644,-11.60839,-0.6780133,-0.5805658,0.109482,45.93521,-7.106336,9.604147,1007.681
10.013098717,61.55391,39.55824,-11.1181,-0.7322724,-0.676573,0.08702486,45.54623,-6.35007,8.709799,1007.681
10.045271397,81.94881,49.61969,-6.582856,-0.8061364,-0.6043534,0.08927348,45.54623,-6.35007,8.709799,1007.679
10.079919338,83.66887,61.0424,7.206724,-0.9827886,-0.7595177,-0.06748921,45.57455,-5.941325,10.87559,1007.681
10.112091541,147.8636,66.90172,7.69702,-1.011677,-0.8484016,-0.09398039,44.84808,-5.139896,13.10714,1007.68
10.146739483,188.1006,81.46123,-17.67581,-0.8745452,-0.5909646,-0.04397369,44.84808,-5.139896,13.10714,1007.68
10.178912163,173.603,84.47967,-48.8709,-0.9783608,-0.5758629,0.02218945,44.88929,-3.956701,16.22552,1007.68
10.213560104,211.9356,53.64428,-80.92402,-1.081598,-0.7143066,-0.0589645,43.03524,-1.228627,18.83609,1007.681
10.245732784,213.7785,33.04789,-97.59409,-0.8483269,-0.3055021,-0.08187091,43.03524,-1.228627,18.83609,1007.681
10.277904987,138.0348,38.19699,-95.57162,-0.7192839,-0.2797614,-0.1855287,41.54472,4.590425,20.15445,1007.681
10.312552929,123.1072,54.41368,-83.00778,-0.5575817,-0.5448037,-0.2109126,40.0426,10.33459,20.58055,1007.681
10.344725609,157.3239,60.273,-70.38265,-0.5503191,-0.5643097,-0.09208725,40.0426,10.33459,20.58055,1007.683
10.379373551,156.7711,58.02397,-53.22228,-0.4455265,-0.6354718,-0.1890876,38.52314,16.06169,19.66782,1007.683
10.411545754,178.7017,69.20993,-40.8423,-0.2629868,-0.3748151,-0.195872,35.87487,20.66719,19.21274,1007.685
10.446193695,131.3389,71.51814,-41.14874,-0.352875,-0.4277996,0.05083163,34.33757,25.61497,16.96489,1007.687
10.478366375,172.1901,59.56278,-32.93628,-0.2336472,-0.5223945,-0.1173505,34.33757,25.61497,16.96489,1007.688
10.513014317,186.3191,63.70573,-14.55017,-0.268532,-0.1586844,0.259523,32.06151,29.06683,16.13093,1007.69
10.545186997,136.2533,30.20701,-21.65946,-0.2422038,-0.0139153,0.4190487,30.89482,31.71676,13.44603,1007.69
10.579834938,103.8795,-3.883557,-42.86478,-0.2454482,-0.1622728,0.6275256,30.89482,31.71676,13.44603,1007.694
10.612007141,23.9585,-82.48125,-122.7831,-0.2940833,0.01663079,0.4443665,29.34995,33.99093,10.76491,1007.695
10.646655083,-162.7899,-137.7009,-211.2202,-0.5053265,-0.1011478,-0.3629465,27.82352,36.72762,9.484226,1007.695
10.678827763,-160.8242,-190.6714,-225.9904,-1.472986,-0.1815293,-0.8992393,27.82352,36.72762,9.484226,1007.7
10.713475704,-229.6262,-146.2235,-273.7943,-1.256467,0.319653,-2.613046,22.96958,40.28365,13.89167,1007.704
10.745647907,155.5424,216.6398,-654.6931,-1.870921,-9.857708,-12.33747,17.7721,43.94177,25.82439,1007.704
10.780295849,177.2888,-196.7083,-578.8811,-1.260751,2.432776,-1.066201,17.7721,43.94177,25.82439,1007.709
10.812468529,113.4626,-54.84185,-541.6799,-5.057819,15.89977,8.869661,1.861707,39.56034,23.31401,1007.712
10.844641686,-316.1817,12.21477,-16.69522,0.5398288,-1.918014,-0.8373827,-17.43696,47.87214,25.98782,1007.738
10.879289150,-333.6279,-39.09864,92.51826,0.8225149,-5.283848,-0.8774086,-17.43696,47.87214,25.98782,1007.746
10.911462307,-268.4503,-7.553028,-30.60737,0.9204566,-2.32421,-1.339779,-20.93084,38.30384,48.62458,1007.746
10.946109295,-98.34945,-3.469262,23.75422,0.5758716,-0.9477699,-1.257254,-18.54575,26.51641,58.36164,1007.739
11.012929916,-14.37407,3.159459,37.11479,0.2143889,-0.6347091,-0.231389,-18.18998,18.10986,57.12555,1007.729
11.045103073,-10.74968,-7.553028,34.54073,0.01625711,-0.3369313,-0.2015393,-18.60914,16.93204,54.0091,1007.727
11.079750061,-33.84752,-15.89811,32.64084,-0.0240102,-0.1074157,-0.1101016,-18.60914,16.93204,54.0091,1007.728
11.111922741,-45.39644,-10.27554,23.87679,0.3203827,-0.5315491,-0.4440894,-18.62519,18.82065,52.66096,1007.728
11.146570683,-26.10728,1.147169,-13.63086,0.06521992,-0.5768006,-0.1822837,-17.1192,18.79349,52.20694,1007.732
11.178743362,-0.6750939,3.692125,-17.73709,0.3610862,-0.6168633,-0.08849286,-17.1192,18.79349,52.20694,1007.733
11.213390827,-51.35519,5.349305,-17.18551,0.3822342,-0.6174864,-0.5335808,-17.12049,16.88782,52.21624,1007.737
11.245563507,-117.2086,-3.765187,-3.947514,0.3686008,-0.6543643,-0.9188753,-17.48135,16.52911,53.55888,1007.74
11.280211449,-77.52454,-4.475407,15.90948,0.3538703,-0.8406975,-0.6069743,-17.48135,16.52911,53.55888,1007.74
11.312384129,-47.17792,6.651375,8.677613,0.2607579,-0.7723742,-0.74484,-18.96076,13.1545,56.26105,1007.744
11.344557285,-34.70755,9.314701,-10.99552,0.2493397,-0.8623269,-0.8987509,-18.19615,8.962659,57.1702,1007.747
11.379204273,0.06207109,9.728996,-13.20185,0.3553526,-0.9458445,-0.9606785,-18.19615,8.962659,57.1702,1007.747
11.411377430,16.52542,4.34316,-8.727901,0.3806712,-0.8861721,-0.8220891,-18.94362,5.553752,58.01963,1007.749
11.446024895,17.63117,0.02265382,-2.047616,0.3143599,-0.7539267,-0.6468602,-18.57063,5.543511,57.63517,1007.749
11.478198052,10.19809,-2.108007,-3.457218,0.3124934,-0.6489795,-0.5712677,-18.57063,5.543511,57.63517,1007.749
11.512845516,7.31086,-0.0957162,-4.560385,0.3271348,-0.5939612,-0.5396208,-18.95961,6.299777,56.74082,1007.751
11.545018673,6.020821,0.2593939,0.6490126,0.3367822,-0.6337647,-0.533773,-18.95992,7.061231,56.67335,1007.753
11.579665661,0.4306536,-1.220231,3.100494,0.3040742,-0.6475998,-0.5866017,-18.58116,7.056675,56.73516,1007.754
11.611838818,-0.9208155,-1.516157,2.181188,0.2958795,-0.6692271,-0.5640496,-18.58116,7.056675,56.73516,1007.756
11.646486282,-10.3811,-1.161046,0.2200035,0.2901957,-0.7202625,-0.5769493,-18.9641,8.199759,56.28523,1007.756
11.678659439,-13.45262,0.2593939,-0.3315798,0.310504,-0.7325866,-0.6514683,-19.33678,7.448545,56.73717,1007.756
11.713306427,-12.53116,-0.2140862,-0.3315798,0.3011071,-0.7684009,-0.7071058,-19.33678,7.448545,56.73717,1007.756
11.745479107,-6.01954,0.496134,-2.047616,0.2976382,-0.7514699,-0.7797158,-18.95389,7.44805,57.11777,1007.756
11.780127049,-7.862453,0.2002089,-2.047616,0.3343718,-0.7394778,-0.7115158,-18.96539,6.294092,56.29454,1007.756
11.812299729,-0.3679418,-1.220231,-0.883163,0.3262146,-0.7147232,-0.5907357,-18.96539,6.294092,56.29454,1007.756
11.846947193,-7.985313,-0.9243064,-1.496033,0.3071757,-0.6928373,-0.6602675,-19.32651,5.554248,57.63904,1007.754
11.879119873,-3.13231,-0.3324562,-2.292764,0.3074326,-0.6718102,-0.6398526,-18.94336,5.934886,58.01778,1007.754
11.911293030,-5.220944,-1.989637,-2.354051,0.3196262,-0.6897684,-0.6319204,-18.94336,5.934886,58.01778,1007.754
11.945940495,-1.657981,-0.1549012,-1.925042,0.3067037,-0.6870174,-0.6611791,-18.94883,5.167746,57.63896,1007.754
11.978113651,-2.333715,1.087984,-3.150783,0.3001057,-0.6824187,-0.6355337,-18.95461,5.162061,57.19268,1007.754
12.012760639,-4.422349,1.561464,-2.844348,0.3238281,-0.6740053,-0.6621957,-18.95461,5.162061,57.19268,1007.754
12.044933796,-3.746614,1.443094,-2.292764,0.3071377,-0.6648248,-0.6783522,-18.96038,5.156376,56.7464,1007.754
12.079581261,-0.4908026,1.561464,-2.354051,0.329939,-0.6950423,-0.6797781,-18.95512,4.399794,57.1964,1007.754
12.111754417,-2.825158,1.561464,-2.354051,0.3191377,-0.7090719,-0.680757,-18.95512,4.399794,57.1964,1007.756
12.146402359,-2.272285,-0.8651214,-0.5767279,0.3255954,-0.6814365,-0.6805894,-19.33357,3.642895,57.20206,1007.756
12.178575039,-2.456576,-1.042676,-0.3928668,0.3367647,-0.7042696,-0.6760619,-19.32728,4.410847,57.64462,1007.756
12.213222027,-1.965133,-2.108007,1.078022,0.2762887,-0.6604158,-0.69297,-19.32728,4.410847,57.64462,1007.754
12.245395184,-3.562323,-1.693712,-0.1477187,0.3312895,-0.7038569,-0.6890214,-18.94934,4.405479,57.64268,1007.756
12.280042648,-2.456576,-2.285562,1.384457,0.3330955,-0.6798583,-0.6599203,-18.57114,4.781244,57.63889,1007.754
12.312215805,-4.60664,-2.581487,3.529503,0.2820943,-0.680317,-0.6893322,-18.57114,4.781244,57.63889,1007.754
12.346862793,-0.9208155,-3.054967,1.690892,0.32283,-0.6754714,-0.6641265,-18.58296,4.388741,56.74819,1007.754
12.379035950,-3.316602,-0.0957162,1.507031,0.2944197,-0.6826438,-0.7314004,-18.94934,4.405479,57.64268,1007.754
12.411208630,-4.115197,-3.232522,2.54891,0.3387336,-0.679602,-0.6859988,-18.94934,4.405479,57.64268,1007.754
12.445856571,-1.473689,-3.232522,3.223068,0.2786063,-0.6547363,-0.7102968,-18.1995,4.007923,57.1944,1007.754
12.478029251,2.703579,0.496134,0.8941607,0.3232795,-0.7025139,-0.7718394,-18.95594,4.398982,57.13265,1007.756
12.512676716,3.256453,-1.575342,0.9554477,0.2066794,-0.7062216,-0.8242839,-18.95594,4.398982,57.13265,1007.758
12.544849396,2.642148,-3.587632,4.693956,0.2991312,-0.6693562,-0.6416829,-18.1995,4.007923,57.1944,1007.758
12.579497337,0.5535144,-2.344747,1.690892,0.3370075,-0.6939312,-0.594039,-18.20502,4.383372,56.74625,1007.759
12.611670017,10.6281,-0.4508263,-2.292764,0.3828778,-0.665146,-0.6082076,-18.2045,5.145639,56.74253,1007.759
12.646317959,-1.780841,-2.108007,3.039207,0.2980572,-0.682422,-0.7632445,-18.2045,5.145639,56.74253,1007.759
12.678490162,2.580718,0.08183884,-1.250885,0.3381508,-0.7010001,-0.6288119,-17.82682,4.759137,56.74246,1007.759
12.713138104,2.457857,-2.759042,2.426336,0.3820098,-0.6693951,-0.5932926,-17.82079,5.145956,57.18688,1007.759
12.745310784,0.4306536,-4.179482,4.632669,0.2862192,-0.7086286,-0.7074381,-17.82079,5.145956,57.18688,1007.759
12.779957771,2.396427,-2.877412,2.54891,0.2851929,-0.7159231,-0.7098987,-18.19924,4.389057,57.19254,1007.758
12.812131405,5.959391,-0.8059363,1.874753,0.3030148,-0.668873,-0.7024471,-18.19924,4.389057,57.19254,1007.762
12.846778393,10.50524,1.265539,0.3425775,0.2836296,-0.6865457,-0.6778299,-18.19924,4.389057,57.19254,1007.762
12.878951550,17.87689,1.443094,0.6490126,0.2501076,-0.6577118,-0.6739054,-17.82104,4.764822,57.18874,1007.762
12.913599014,25.00282,2.626794,-1.741181,0.2856123,-0.6947482,-0.670204,-17.44341,5.520908,57.11934,1007.762
12.945772171,30.16298,3.692125,-4.131375,0.2894822,-0.7107564,-0.6665161,-17.44341,5.520908,57.11934,1007.762
12.977944374,30.71585,2.508424,-5.969986,0.2844841,-0.7036234,-0.6259228,-17.45337,6.653751,56.28494,1007.76
13.012592316,31.82159,0.6736889,-6.215134,0.3410349,-0.6687675,-0.4752972,-17.82528,7.045938,56.73129,1007.76
13.044764996,40.54471,-3.114152,-2.721774,0.3067247,-0.7498997,-0.5701178,-17.82528,7.045938,56.73129,1007.762
13.079412937,28.01291,-5.422367,0.09742941,0.2934631,-0.8002034,-0.5559489,-17.45209,8.559419,56.27563,1007.762
13.111585617,51.60218,-4.475407,-5.295829,0.3291122,-0.7602209,-0.5723398,-17.82874,10.47046,56.26826,1007.762
13.146233082,50.25072,-2.877412,-2.537913,0.3077519,-0.7991821,-0.5401677,-17.82874,10.47046,56.26826,1007.76
13.178405762,40.17613,-8.381618,1.568318,0.292402,-0.7559371,-0.3550622,-17.83375,11.60817,55.81641,1007.76
13.213053703,39.19324,-5.540737,0.2200035,0.2190232,-0.8828408,-0.4310976,-17.46556,14.25937,54.90889,1007.76
13.245226383,48.28494,3.51457,-1.434746,0.2693734,-0.8563405,-0.5499209,-17.46556,14.25937,54.90889,1007.76
13.279874325,44.04625,6.769745,0.5877256,0.2664285,-0.8615859,-0.6656165,-17.0916,16.91625,54.44765,1007.758
13.312046528,70.3999,7.361596,-4.008801,0.4080049,-0.908808,-0.4036731,-17.10213,18.42941,53.54765,1007.756
13.346694470,88.15329,11.91884,-2.966922,0.4204875,-0.967086,-0.3999321,-17.10213,18.42941,53.54765,1007.755
13.378867149,98.47359,7.420781,9.106622,0.4513398,-0.9888631,-0.4346215,-16.74498,21.8315,51.74384,1007.756
13.413515091,121.3871,5.64523,13.58057,0.1985528,-0.8949172,-0.2478464,-17.52713,24.48256,49.56704,1007.756
13.445687294,133.4275,11.56373,7.942168,0.4084319,-1.012945,-0.1861899,-17.52713,24.48256,49.56704,1007.756
13.477859974,130.1103,11.85966,15.11275,0.1418179,-1.025204,-0.374193,-17.93639,29.40856,46.8671,1007.755
13.512507916,97.85929,8.722851,5.245539,0.2328109,-0.6731907,0.6443969,-18.37346,34.68808,41.99765,1007.755
13.544680596,118.9299,5.64523,7.942168,0.1816312,-1.077849,-0.3147485,-18.37346,34.68808,41.99765,1007.759
13.579328537,52.09363,1.443094,0.3425775,0.1876272,-0.7785358,0.4868182,-18.42234,39.27404,37.95848,1007.759
13.611500740,50.37358,4.22479,3.039207,0.189314,-0.8499086,0.54791,-18.07669,41.52217,35.33146,1007.759
13.646148682,75.74435,0.1410238,14.8676,0.2125435,-0.7870014,-0.02874151,-18.11008,43.39373,32.64447,1007.759
13.678321362,34.34024,12.0964,14.62245,0.3569925,-0.9134444,0.03249216,-18.11008,43.39373,32.64447,1007.759
13.712969303,33.8488,3.928864,2.119901,0.302138,-0.8182403,0.1952587,-17.39336,45.24887,29.50733,1007.759
13.745141983,15.23538,-0.4508263,7.880881,0.2871192,-0.9543204,0.0998051,-17.03693,46.36497,27.77845,1007.76
13.779789448,15.29681,8.071815,8.493752,0.2436662,-0.9519306,0.4448599,-17.03693,46.36497,27.77845,1007.76
13.811962128,18.18404,24.93954,31.23124,0.3494673,-1.281329,-0.2206282,-16.66978,47.49163,26.87837,1007.76
13.846610069,42.26476,15.2332,23.32521,0.2876622,-0.975141,0.2326602,-16.30917,47.46921,25.53759,1007.76
13.878782749,32.55876,24.28851,22.71234,0.3123543,-1.004457,0.2235122,-16.30917,47.46921,25.53759,1007.759
13.913430691,21.62415,32.63359,35.21489,0.2332528,-0.9065375,0.3450754,-15.9478,48.59019,24.19124,1007.759
13.945602894,-3.07088,30.02946,41.28231,0.1723981,-1.038043,0.3098551,-15.59163,49.32516,22.46421,1007.759
13.980250835,-0.8593851,35.88877,44.34666,0.1278952,-0.935913,0.3072563,-15.59163,49.32516,22.46421,1007.759
14.012423515,-3.193741,45.06245,50.65922,0.1080772,-0.8960632,0.4268236,-14.02214,50.05937,22.00615,1007.759
14.044596672,-6.265262,49.44214,56.84921,0.08990081,-0.9878492,0.2826007,-13.28334,50.41272,20.66158,1007.761
14.079243660,-27.88877,58.79337,56.17505,0.04718019,-0.8917986,0.4370671,-13.28334,50.41272,20.66158,1007.761
14.111417294,-30.96029,68.26297,69.35176,0.004885635,-0.9903862,0.2134832,-11.00941,51.14846,21.09254,1007.761
14.146064281,-16.95415,72.70184,76.39977,-0.02758344,-0.9349657,0.3299229,-10.61414,51.16014,22.42945,1007.761
14.178236961,-37.6562,67.19764,74.74502,-0.1273043,-0.9287482,0.1906428,-10.61414,51.16014,22.42945,1007.761
14.212884903,-49.81943,67.13846,73.64185,-0.2221932,-0.8903117,0.2043771,-8.346243,51.50907,22.41599,1007.763
14.245057106,-38.82338,64.83024,82.65105,-0.2521282,-1.002392,0.06443457,-5.683899,51.86886,23.67567,1007.763
14.279705048,-24.51009,67.55275,91.3538,-0.2930054,-0.9223703,0.1556096,-5.683899,51.86886,23.67567,1007.763
14.311877728,-19.22708,65.06698,101.65,-0.3185097,-1.07647,-0.01749665,-4.539554,50.33959,24.56988,1007.761
14.346525669,19.84266,56.48516,123.2843,-0.4934851,-1.01641,-0.0206708,-1.503966,51.07028,25.44324,1007.761
14.378697872,27.64433,47.25229,134.8676,-0.6893998,-1.212867,-0.06866227,-1.503966,51.07028,25.44324,1007.759
14.413345814,96.69212,29.4376,154.4182,-0.8408197,-0.8681678,0.09658018,1.891198,50.25401,24.98328,1007.759
14.445518494,88.95188,54.41368,166.1853,-1.444154,-1.145054,-0.1955384,7.13169,50.89077,20.99971,1007.759
14.480166435,165.8013,69.68341,149.1475,-1.161759,-0.1719093,-0.3950006,7.13169,50.89077,20.99971,1007.759
14.512339115,126.4859,125.85,171.9462,-1.26973,0.2944868,-0.3448401,13.87161,50.35128,16.12143,1007.759
14.544512272,39.43896,179.5308,150.2506,-1.350268,-0.2295033,-0.5580782,19.15013,49.43906,10.29611,1007.758
14.579159260,-8.906769,178.939,138.5448,-1.146932,-0.3146519,-0.01312612,19.15013,49.43906,10.29611,1007.758
14.611332417,-160.2713,154.7323,88.90232,-1.053191,-0.3829238,0.257766,25.2014,47.07204,10.72261,1007.754
14.645979881,-335.7166,82.23064,55.86862,-0.5677381,-0.3958424,-0.09776586,29.42498,42.50761,16.07903,1007.754
14.678153038,-368.0904,39.85417,41.28231,-0.6634693,-0.5596354,0.3784746,29.42498,42.50761,16.07903,1007.75
14.712800026,-389.7139,1.206354,-5.418403,-0.07941651,-0.6664988,0.3036999,30.69141,36.08352,26.6884,1007.75
14.744973660,-318.4546,-40.40071,-4.744246,0.5537011,-0.8447819,0.0625527,31.56029,26.28107,35.97729,1007.747
14.779620648,56.08661,-49.5152,27.86045,0.2873994,-1.802057,-0.5024557,31.58672,14.11891,38.71453,1007.743
14.811793804,96.01638,-63.18694,0.8941607,-0.1799203,0.05550423,0.7125774,31.58672,14.11891,38.71453,1007.746
14.846441269,-46.44075,-113.435,7.268011,-1.590984,-0.2755596,-0.9581993,32.71117,8.761248,38.28849,1007.746
14.878614426,40.91329,-32.70666,27.86045,-1.846056,-0.1053553,-0.3249248,34.96249,10.23652,36.93061,1007.746
14.913261414,21.19413,-33.59443,15.72562,-2.758788,0.700619,-0.5025634,34.96249,10.23652,36.93061,1007.744
14.945434570,67.14409,-36.90879,33.37628,-0.8871913,-0.1347833,-0.3760485,37.98555,8.288713,36.98819,1007.746
14.980082035,-14.31264,-24.30239,11.19038,-0.6586429,-0.156746,-0.05542254,38.71857,8.63637,35.19734,1007.744
15.012255192,-13.26833,-34.65976,17.74809,-0.7683077,-0.2385075,-0.4064509,38.71857,8.63637,35.19734,1007.744
15.046902180,25.00282,-12.82049,32.27311,-0.9762568,-0.004305263,-0.003966191,39.46893,9.001081,34.74533,1007.744
15.079075336,-34.33896,-34.24547,20.01571,-1.279596,0.08006852,-0.02116612,40.20119,8.205338,32.96006,1007.744
15.111248016,1.904984,-37.61901,13.9483,-1.025137,-0.09582747,-0.2597243,40.20119,8.205338,32.96006,1007.742
15.145895958,7.986595,-34.18628,21.05759,-1.092411,0.3621363,0.1081065,41.70691,7.797046,32.50791,1007.742
15.178068638,-53.9967,-37.91494,7.08415,-0.9823726,-0.1809405,-0.06561525,42.82262,6.620485,31.16885,1007.742
15.212716579,-13.39119,-31.28622,12.29355,-0.9944956,-0.08364993,-0.04542008,42.82262,6.620485,31.16885,1007.74
15.244888783,-35.32185,-22.11254,19.70928,-0.9429985,-0.01749588,0.06936065,44.31653,5.81969,29.82599,1007.74
15.279536724,-25.86156,-25.60446,13.51929,-0.9816025,0.006863695,-0.006716229,44.30503,4.665731,29.00277,1007.742
15.311709404,-6.326692,-14.71441,23.3865,-0.9344745,0.1562717,0.01239173,44.30503,4.665731,29.00277,1007.742
15.346357346,-23.89579,-10.39391,16.95136,-1.021609,0.1168039,-0.0006165802,45.44308,2.36851,29.45441,1007.742
15.378529549,-21.19285,-8.204062,10.1485,-0.9535883,0.05236157,-0.005156544,45.43705,1.981692,29.00999,1007.742
15.413177490,-17.4456,-6.783623,6.226131,-1.080574,0.3013368,0.03615889,45.43705,1.981692,29.00999,1007.742
15.445350170,-28.01163,-3.646817,-8.911762,-1.171439,0.06720485,0.07990251,45.80814,0.3825822,28.56953,1007.742
15.479998112,-10.3811,-2.818227,-15.16304,-0.9703906,0.2142109,-0.05041942,46.5635,-0.3904219,28.56939,1007.742
15.512170792,-32.12747,-9.565318,-18.71769,-0.9901622,0.1236515,-0.03652152,46.5635,-0.3904219,28.56939,1007.742
15.546818257,-29.30167,-15.77974,-26.13342,-0.8998629,0.04919809,0.05986799,46.92989,-0.4071599,27.67489,1007.742
15.578990936,-15.2341,-11.87353,-24.53995,-1.10934,0.1583669,0.1085126,46.55143,-1.164058,27.68054,1007.744
15.611163616,-47.17792,-21.1064,-22.8852,-0.9655737,-0.2461164,-0.009433378,46.55143,-1.164058,27.68054,1007.744
15.645811558,-15.78697,-26.90653,-27.05272,-0.9161742,0.1858646,0.08524686,46.15667,-0.4134777,26.33992,1007.742
15.677984238,-32.43462,-34.1271,-32.69113,-1.119299,-0.1472698,0.05836786,46.52306,-0.4302161,25.44542,1007.742
15.712631703,-50.55659,-40.10479,-34.59103,-0.894242,0.06052351,0.08449089,46.52306,-0.4302161,25.44542,1007.742
15.744804382,-25.67727,-33.83117,-28.46232,-0.9421458,-0.1046178,0.03875048,46.88418,0.309628,24.10092,1007.742
15.779452324,-67.01994,-43.65589,-24.84639,-1.023248,-0.1566399,0.2270582,47.99596,0.6527284,22.37189,1007.742
15.811625004,-30.40741,-44.24773,-28.64618,-1.029913,-0.1462618,0.183826,48.3629,1.46178,21.47337,1007.742
15.846272946,-57.74395,-39.21701,-35.26519,-0.9549155,-0.01721536,0.1610541,48.3629,1.46178,21.47337,1007.744
15.878445149,-45.15071,-43.12322,-32.32341,-0.9025151,-0.05450401,0.1429057,48.71222,1.80912,19.23817,1007.744
15.913093090,-17.32273,-40.0456,-34.65231,-1.038792,-0.5026572,0.2870106,48.69539,2.554332,17.8956,1007.742
15.945265770,-51.35519,-41.99871,-17.92096,-0.9656978,-0.1245566,0.2075057,48.69539,2.554332,17.8956,1007.744
15.979913712,-33.35608,-38.21087,-16.08234,-0.8742786,-0.3241657,0.4397408,49.05651,3.294177,16.55111,1007.744
16.012085915,-16.647,-37.91494,-17.43066,-0.9318084,-0.06939887,0.2066802,49.4069,4.023462,14.3778,1007.748
16.046733856,-42.32492,-27.14327,-11.73097,-0.7928818,-0.4879567,0.2747152,49.4069,4.023462,14.3778,1007.748
16.078906536,-5.282375,-24.00646,-12.71156,-0.9217209,-0.3365631,0.3750114,49.38983,4.387542,13.0371,1007.748
16.113554478,-27.09017,-26.19631,-8.482754,-0.8107339,-0.208737,0.2800757,49.37249,4.370487,11.69826,1007.75
16.145727158,-19.22708,-21.75743,-6.582856,-0.6900089,-0.3362665,0.2480139,49.37249,4.370487,11.69826,1007.75
16.177900314,16.70971,-17.5553,-4.682959,-0.962077,-0.1095087,0.3989498,50.12336,5.497465,11.24253,1007.748
16.212547302,0.0006406754,-18.67981,-18.22739,-0.7644643,-0.3139836,0.3202282,49.73387,5.491464,10.3519,1007.742
16.244720459,-11.11826,-22.70439,-19.75957,-1.045239,-0.4901094,0.2105362,49.73387,5.491464,10.3519,1007.746
16.279367924,-13.57548,-32.76584,-12.89542,-0.8588567,-0.2523677,0.3818669,49.72339,5.86204,9.521233,1007.746
16.311541081,13.94534,-42.23545,-17.79838,-0.8720675,-0.3103998,0.4639336,50.0908,7.369836,8.619295,1007.744
16.346188068,-9.643933,-41.52523,-22.39491,-0.9664613,-0.2051893,0.3880799,50.0908,7.369836,8.619295,1007.744
16.378361225,-17.69132,-40.16397,-33.12014,-0.7814231,-0.397,0.432972,49.68924,6.590198,6.839828,1007.744
16.413008690,-1.105107,-43.95181,-34.46845,-0.9691279,-0.2972615,0.4056617,50.04535,8.467757,5.043467,1007.744
16.445181847,19.78123,-46.85188,-33.42657,-0.8271864,-0.332359,0.4146519,50.04535,8.467757,5.043467,1007.744
16.479828835,-1.903702,-55.19696,-36.36835,-0.8821474,-0.4658305,0.4429843,48.88894,9.223391,3.260426,1007.746
16.512001515,30.28584,-53.12549,-31.28153,-1.036894,-0.3026307,0.3580498,48.86216,11.10145,1.083473,1007.746
16.546649456,7.925164,-48.09476,-43.41636,-1.107914,-0.4616857,0.5203171,48.86216,11.10145,1.083473,1007.744
16.578822613,8.293747,-41.05175,-75.28561,-1.168161,-0.4093274,0.410451,48.45636,12.60292,-1.15344,1007.744
16.613470078,59.95672,-11.45924,-96.73607,-1.292373,-0.08443756,0.1641307,47.30097,14.88309,-2.943926,1007.743
16.645643234,-8.353895,-3.942742,-116.7156,-1.380911,0.01862232,0.3798143,47.30097,14.88309,-2.943926,1007.741
16.680290222,-131.829,-27.73512,-184.1926,-1.455387,-0.7230029,0.586957,45.0194,18.71039,-4.226017,1007.741
16.712463379,-72.91725,-38.92109,-167.7677,-1.348289,-0.3437625,0.4883462,41.24206,21.81315,-4.221564,1007.741
16.744636059,-85.26477,-24.71668,-141.7207,-0.8380144,-0.3009575,0.3885018,41.24206,21.81315,-4.221564,1007.739
16.779283524,-56.20819,0.910429,-75.77591,-0.5529328,-0.392716,0.4434072,36.33817,28.36708,-3.845531,1007.739
16.811456680,-55.83961,7.894261,-11.48582,-0.293431,-0.3617821,0.5308927,30.31181,33.42477,-2.499935,1007.739
16.846103668,-54.30385,31.92337,63.9585,-0.02330808,-0.3125556,0.479614,28.06335,36.20549,-1.162827,1007.737
16.878276825,-64.99273,48.55436,116.6041,-0.2113806,-0.4761382,0.4197704,28.06335,36.20549,-1.162827,1007.737
16.912924290,-10.07395,51.04013,158.8308,-0.1792089,-0.877581,0.4354407,28.46937,35.02162,1.072536,1007.737
16.945097446,-1.903702,61.33833,164.6531,-0.2580116,-0.7754841,0.5324536,31.89239,32.70924,2.851418,1007.736
16.979744434,-57.49823,66.25068,147.3089,-0.3323688,-0.821183,0.4749308,31.89239,32.70924,2.851418,1007.736
17.011917591,-104.3082,43.52364,121.5683,-0.3067498,-0.8775905,0.4149407,36.07522,28.86647,5.016399,1007.734
17.046565056,-42.50921,43.34608,118.1975,-0.2670923,-0.9384115,0.1692135,39.52508,23.53345,9.041571,1007.734
17.078738213,23.58992,80.09998,125.3681,-0.2906269,-0.469,0.161253,39.52508,23.53345,9.041571,1007.734
17.113385201,61.49248,94.06763,138.2997,-0.6243144,-0.7307211,0.184381,41.05026,18.95461,10.33125,1007.732
17.145558834,118.6842,75.01006,100.8533,-0.8728962,-1.123103,0.816813,41.8322,14.77983,12.57926,1007.732
17.180205822,41.95761,68.67727,23.26392,-0.8765921,-0.9966082,0.6641325,41.8322,14.77983,12.57926,1007.73
17.212378979,-27.1516,5.64523,-59.2897,-1.06447,-1.477422,1.071621,42.23093,11.367,14.37919,1007.73
17.244551659,78.01727,-29.27393,-47.58388,-0.6880454,-0.2012027,0.7070085,41.8756,10.63284,16.16997,1007.73
17.279199600,-23.7115,-36.25776,-12.46641,-0.3644427,0.1675511,-0.04585421,41.8756,10.63284,16.16997,1007.73
17.311371803,-17.99847,9.255516,-10.6278,-0.7793889,-1.029441,-0.00654247,41.85403,12.8969,14.37368,1007.734
17.346019745,93.49773,11.74129,-3.702366,-0.7975619,-0.2020734,0.3344736,41.47031,12.89659,13.92934,1007.729
17.378192425,7.433721,20.91496,10.1485,-1.027274,-0.1571769,0.1547914,41.47031,12.89659,13.92934,1007.733
17.412840366,61.1239,44.41142,40.363,-0.8684453,-0.2296578,-0.015506,41.08788,14.80194,13.47569,1007.733
17.445013046,25.06425,45.59512,46.24656,-0.7757679,-0.5149408,0.05936125,41.09917,14.43217,14.37011,1007.733
17.479660511,75.37576,31.56826,58.93297,-0.5943332,-0.409697,0.2286817,41.09917,14.43217,14.37011,1007.733
17.511833191,2.949301,11.62292,63.59078,-0.7725189,-0.4236777,-0.06282655,40.7265,13.68096,14.82204,1007.731
17.546481133,6.819417,1.502279,55.86862,-1.193461,-0.4748234,0.3349552,41.11522,12.54356,15.71825,1007.729
17.578653813,11.30384,-5.599922,52.25269,-1.178774,-0.1966892,0.03152344,41.11522,12.54356,15.71825,1007.729
17.613301754,14.74394,3.218644,62.18118,-1.518331,0.185384,0.2643814,41.4974,10.25708,16.17376,1007.729
17.645473957,-23.09719,-0.6875663,54.03001,-1.462423,-0.2099388,0.0817789,41.86802,7.959222,15.73672,1007.731
17.680121899,10.68953,-0.2140862,46.79814,-1.081232,0.0066912,0.1585738,41.86802,7.959222,15.73672,1007.733
17.712294579,-25.7387,-7.257102,39.56627,-1.042122,-0.1751487,0.08055387,43.00132,7.18085,15.73463,1007.733
17.746942520,-22.54432,-15.42463,21.67046,-1.019487,-0.0721268,0.1110759,43.38324,4.513232,16.19201,1007.733
17.779115200,-17.50703,-24.71668,19.5867,-1.00536,0.1187899,0.01563616,43.38324,4.513232,16.19201,1007.733
17.811287403,-13.2069,-30.576,13.70315,-1.175528,0.04287725,0.06961811,43.36462,2.590509,14.86247,1007.734
17.845935345,-19.53423,-36.61287,-1.55732,-1.192077,0.1367737,0.0874166,43.73652,2.198323,14.41611,1007.734
17.878108025,-2.272285,-33.65362,-2.17019,-1.033728,0.06515832,0.09209664,43.73652,2.198323,14.41611,1007.736
17.912755966,-10.81111,-35.25161,-11.73097,-1.082538,-0.09132286,0.2247759,44.09687,1.794766,13.0772,1007.736
17.944928169,2.089275,-35.72509,-11.73097,-1.081372,0.05201898,0.1199069,44.4517,1.766658,11.29014,1007.736
17.979576111,15.41967,-30.576,0.8328737,-1.080377,-0.1074339,0.02507512,44.81256,2.125368,9.947506,1007.738
18.011748791,40.29899,-23.17787,6.593853,-1.052271,-0.08026539,0.1045668,44.81256,2.125368,9.947506,1007.74
18.046396732,23.52849,-13.88582,6.164845,-1.107548,-0.1140009,0.1631264,44.81364,2.507314,10.0094,1007.738
18.078569412,35.63028,-5.718292,5.184252,-1.023989,0.01528349,0.1137666,44.79605,2.109126,8.672419,1007.736
18.113216877,2.212136,13.2801,3.345642,-1.039414,0.2296808,0.148936,44.79605,2.109126,8.672419,1007.736
18.145389557,-74.88303,15.76587,-6.153847,-1.097602,0.146689,0.1753047,45.17425,2.484891,8.668625,1007.736
18.180037499,-101.0524,23.99258,-13.14057,-1.108233,0.1203537,0.02624895,45.17399,2.103757,8.670486,1007.734
18.212210178,-153.3911,23.9334,-17.2468,-1.268396,0.2437344,0.1873384,45.17399,2.103757,8.670486,1007.734
18.246858120,-193.3209,16.89038,-21.29174,-1.230709,-0.0008503762,0.02832056,45.19628,2.125685,10.39185,1007.73
18.279030323,-141.7193,26.3008,-11.5471,-1.196914,-0.1230616,-0.1884561,45.20124,0.9244469,10.84403,1007.729
18.311203480,-90.91637,40.9195,-0.7605889,-1.299604,0.07239304,0.04065323,45.20124,0.9244469,10.84403,1007.729
18.345850945,-92.14497,34.17241,5.368113,-1.271725,-0.1195899,0.02483239,44.84565,-0.1908455,12.63666,1007.727
18.378024101,-87.59912,31.0356,10.20979,-1.268459,-0.1419869,0.01786927,44.47874,-0.9363744,13.53488,1007.725
18.412671089,-99.33234,19.49452,13.82572,-1.171796,-0.1583886,0.03032808,44.47874,-0.9363744,13.53488,1007.723
18.444844723,-109.1612,11.97803,17.01265,-1.063133,-0.1812812,-0.03594451,43.73943,-2.051983,14.88317,1007.723
18.479491711,-114.1371,1.028799,17.93195,-0.9640063,-0.245546,0.002606684,44.12186,-3.957334,15.33682,1007.722
18.511664868,-115.7957,-11.75516,15.3579,-0.8055669,-0.2262055,0.0321357,44.12186,-3.957334,15.33682,1007.722
18.546312332,-113.7685,-19.0941,13.27414,-0.7325982,-0.246605,0.01441666,43.73685,-5.863318,14.90178,1007.72
18.578485489,-106.0897,-25.66364,8.984048,-0.6466883,-0.2358887,0.01177539,43.71824,-7.78604,13.57224,1007.716
18.613132477,-108.9155,-32.05562,11.80325,-0.6522821,-0.1882315,0.01993246,43.71824,-7.78604,13.57224,1007.711
18.645305634,-120.0958,-43.5967,13.39671,-0.635462,-0.1605801,0.09182139,44.45575,-9.338366,12.23698,1007.709
18.679953098,-146.8795,-54.60511,12.78384,-0.6543041,-0.1360973,0.0444811,44.42062,-11.27733,9.632351,1007.709
18.712125778,-165.37,-57.62355,8.12603,-0.6239086,-0.1709,0.01981059,44.42062,-11.27733,9.632351,1007.707
18.746773243,-165.9843,-62.47672,2.426336,-0.7148815,-0.1755096,0.05580742,44.75734,-12.46589,6.512035,1007.705
18.778945923,-161.9299,-60.22769,-1.863755,-0.6399651,-0.1650115,0.0807409,45.07704,-14.43297,2.120354,1007.704
18.813593865,-166.6601,-50.99483,2.119901,-0.6177431,-0.1247459,0.09243348,45.07704,-14.43297,2.120354,1007.702
18.845766545,-155.2954,-40.69664,8.922761,-0.6757456,-0.1935826,0.1921811,45.02478,-14.86526,-1.894312,1007.702
18.877939701,-124.7031,-27.08408,18.60611,-0.6216244,-0.2210108,0.2579659,44.60144,-14.90456,-5.398869,1007.702
18.912586689,-104.1853,-11.75516,30.43451,-0.6882374,-0.2108245,0.3401294,44.18909,-14.55217,-8.076479,1007.698
18.944759846,-61.79836,17.12712,38.4631,-0.6305828,-0.3948393,0.4956882,44.18909,-14.55217,-8.076479,1007.697
18.979407310,0.9835273,12.74743,34.17301,-0.8704593,-0.3518629,0.5011728,43.79356,-14.94499,-9.411526,1007.697
19.011580467,-4.115197,8.426926,33.62143,-0.8149394,-0.2385644,0.3748229,44.18229,-16.08239,-8.515317,1007.697
19.046227455,-6.510983,9.255516,33.13113,-0.9875723,-0.3274691,0.3159329,44.18229,-16.08239,-8.515317,1007.697
19.078401089,17.0783,11.14944,25.53154,-1.092479,-0.3539791,0.2723492,43.05347,-17.204,-8.057652,1007.697
19.113048077,34.89311,5.17175,8.064743,-1.324522,-0.2573047,0.1967455,41.92466,-18.32561,-7.599988,1007.695
19.145221233,37.78034,0.08183884,-10.01493,-1.308026,-0.1447655,0.07268151,41.92466,-18.32561,-7.599988,1007.695
19.179868698,28.9958,-14.41849,-19.5757,-1.403407,-0.09420375,0.0219324,42.31339,-19.46301,-6.703777,1007.693
19.212041855,8.232317,-24.00646,-27.72688,-1.273923,-0.06705733,-0.08798389,42.31339,-19.46301,-6.703777,1007.693
19.246688843,-16.33985,-25.19016,-26.74629,-1.10087,-0.1018983,-0.1515818,42.31339,-19.46301,-6.703777,1007.693
19.278862000,-21.00856,-17.67366,-21.23045,-0.9915635,-0.1522528,-0.1279529,42.31364,-19.08187,-6.705638,1007.693
19.313509464,-30.34598,-9.506133,-20.066,-0.8698669,-0.1739641,-0.0955275,43.05322,-17.58513,-8.055792,1007.693
19.345682621,-38.4548,1.206354,-24.41738,-0.7836953,-0.1968597,-0.05073037,43.05322,-17.58513,-8.055792,1007.693
19.377855301,-43.86068,2.330869,-33.24271,-0.8319576,-0.31743,-0.04452603,43.04821,-16.44741,-8.507654,1007.691
19.412502766,-30.96029,-0.3324562,-43.78408,-0.8682833,-0.3711588,0.01417391,43.0432,-15.3097,-8.959517,1007.691
19.444675446,-44.04497,-5.777477,-66.39899,-0.8237935,-0.4240136,0.049473,43.0432,-15.3097,-8.959517,1007.69
19.479323387,-67.44995,-5.540737,-101.5165,-0.8996735,-0.5814257,-0.0190786,43.79433,-13.80159,-9.417109,1007.688
19.511496067,-62.16694,2.804349,-136.5113,-0.9251296,-0.7496175,-0.005285672,44.54045,-11.15576,-10.32656,1007.688
19.546144009,-48.65225,24.58443,-171.0772,-0.8921269,-0.8007215,-0.002158931,44.54045,-11.15576,-10.32656,1007.688
19.578316212,-18.8585,41.21542,-191.9761,-0.8380215,-0.8213194,-0.05778154,45.30572,-5.824944,-9.9102,1007.688
19.612964153,19.53551,67.67112,-199.5757,-0.7293738,-0.7176056,-0.07095429,44.94345,0.2899303,-9.045477,1007.686
19.645136833,32.68162,92.58801,-200.3111,-0.736129,-0.7382953,-0.05178185,44.94345,0.2899303,-9.045477,1007.684
19.679784775,8.846621,117.0906,-200.5563,-0.7090126,-0.7913696,0.006813512,44.98857,7.25365,-5.955317,1007.682
19.711957455,-23.77293,139.5809,-181.2509,-0.818109,-0.9123043,-0.1994613,43.14389,15.32328,-2.924514,1007.682
19.746604443,28.13577,156.4487,-157.5328,-0.6130262,-1.116158,-0.3187354,43.14389,15.32328,-2.924514,1007.682
19.778777600,29.24152,171.8368,-137.4919,-0.606163,-0.8894816,-0.2504148,40.56098,22.65924,1.516476,1007.682
19.813425064,44.53769,180.8329,-110.1579,-0.4760284,-0.9774287,-0.0528063,36.08601,27.73444,5.914543,1007.681
19.845598221,82.13311,154.318,-84.60124,-0.3781625,-0.7785524,0.05685195,36.08601,27.73444,5.914543,1007.677
19.880245209,60.01815,120.9968,-48.50318,-0.2856286,-0.5583395,0.1604698,31.97195,32.02575,9.039312,1007.683
19.912418366,28.25863,81.22449,-26.86886,-0.3430176,-0.9227472,0.01147331,27.44921,34.76867,9.878302,1007.677
19.944591045,173.173,50.56665,2.916632,-0.2994593,-0.803072,0.2009973,27.44921,34.76867,9.878302,1007.677
19.979238987,90.24192,10.67596,46.00141,-0.3083837,-0.1300303,0.6139187,24.43279,36.78649,10.33044,1007.675
20.011411667,-99.45519,-20.33699,59.97485,-0.3053662,-0.6006981,0.4456485,24.38816,37.88522,6.818367,1007.674
20.046059132,-130.4161,-30.81274,50.35279,-0.1999137,-1.092038,-0.008609622,25.15483,36.74246,7.712643,1007.674
20.078231812,-85.14191,-27.38001,67.57444,-0.2273888,-0.6352874,0.1014521,25.15483,36.74246,7.712643,1007.674
20.112879753,-169.8544,-47.08862,54.58159,-0.495675,-0.8633997,-0.006856955,27.46076,34.78004,10.77086,1007.672
20.145052433,66.22263,-58.6297,42.50805,-0.09215067,-1.864573,-0.1678138,29.76152,32.49514,13.44811,1007.672
20.179700375,7.065138,-63.66042,40.54686,-0.5017883,-0.337,0.4631512,29.76152,32.49514,13.44811,1007.672
20.211872578,-51.96949,-76.03009,52.43655,-0.4836423,-0.8435265,0.3122783,32.37667,30.14233,11.21433,1007.672
20.246520519,17.75403,-121.6617,67.45187,-0.6925356,-0.9024058,0.2211981,32.37063,29.75551,10.76991,1007.672
20.278693199,17.20116,-143.2643,70.82265,-0.6644781,-0.8297886,0.214787,32.37063,29.75551,10.76991,1007.672
20.313341141,-93.92646,-134.2089,49.49477,-0.6088094,-0.6781156,0.02946616,35.72514,27.37573,7.257181,1007.672
20.345513344,-109.8369,-145.3949,45.02082,-0.6490334,-0.8927363,-0.007595817,37.18361,25.39742,3.242224,1007.671
20.380161285,-12.10115,-151.3134,58.01366,-0.5611451,-0.8051183,-0.04432553,37.18361,25.39742,3.242224,1007.669
20.412333965,-44.47498,-130.4803,57.76852,-0.4839115,-0.6279501,-0.0565996,39.04448,24.19957,1.070488,1007.669
20.444506645,-124.3959,-111.837,53.04942,-0.5401747,-0.6109893,0.09252106,39.74129,22.22631,-3.386883,1007.671
20.479154587,-85.14191,-120.4189,56.54277,-0.5179217,-0.7949594,0.0421148,39.74129,22.22631,-3.386883,1007.671
20.511326790,-73.22441,-108.1084,58.44267,-0.4114813,-0.7349519,-0.0383956,41.23525,20.28293,-4.660401,1007.671
20.545974732,-114.9357,-97.75099,58.25881,-0.4606355,-0.6317352,0.1600518,40.82765,19.11647,-6.884288,1007.671
20.578147411,-75.62019,-111.837,69.41305,-0.4753554,-0.798417,-0.001208844,40.82765,19.11647,-6.884288,1007.672
20.612795353,-81.39465,-109.7655,80.506,-0.5865873,-0.7261935,-0.1485134,41.17567,17.55815,-9.110182,1007.671
20.644968033,-94.11075,-97.51425,79.95441,-0.6214955,-0.6514547,0.01679034,40.7626,15.62455,-11.71287,1007.671
20.679615498,-39.49912,-109.588,88.41203,-0.8530076,-0.7688153,-0.1825287,40.7626,15.62455,-11.71287,1007.671
20.711788178,-47.42364,-103.7287,84.12193,-0.7285146,-0.5823172,-0.1503409,41.1164,14.07191,-13.49249,1007.671
20.746436119,-60.32403,-94.31826,82.89619,-0.9044498,-0.5339174,-0.02972836,41.07441,11.74531,-16.60529,1007.672
20.778608799,-38.20908,-90.82635,84.61223,-1.038469,-0.5465533,-0.1182339,41.07441,11.74531,-16.60529,1007.674
20.813256741,-48.83654,-83.42822,73.70314,-1.009809,-0.4197497,-0.02105605,40.65639,9.806843,-19.5905,1007.674
20.845428944,-51.41662,-70.28915,56.17505,-1.206536,-0.4188321,-0.02885281,40.24853,8.259253,-21.81253,1007.674
20.880076885,-28.93308,-62.18079,40.363,-1.005866,-0.443428,-0.004900069,40.24853,8.259253,-21.81253,1007.676
20.912249565,-18.24419,-32.46992,33.49886,-1.156332,-0.4478551,1.02409,39.09083,7.109219,-23.58627,1007.676
20.946897507,-96.81368,-19.44921,6.593853,-0.7389974,-0.5498215,0.1546485,38.31189,5.954628,-25.29819,1007.678
20.979069710,-4.852362,-25.90038,22.40591,-0.8738218,-0.515837,0.005802865,38.31189,5.954628,-25.29819,1007.678
21.011242390,-0.7979547,-34.65976,23.63165,-0.960288,-0.3817292,0.220759,37.16022,5.191411,-26.62751,1007.678
21.045890331,12.28672,-34.36384,23.81551,-0.8716699,-0.4330493,0.1057572,36.77676,5.572228,-27.07371,1007.68
21.078063011,39.62325,-17.9104,31.59896,-0.8609897,-0.3915665,0.07900755,36.38097,4.798275,-28.4069,1007.681
21.112710953,42.69477,0.910429,31.66025,-0.8620404,-0.3288029,0.09785076,36.38097,4.798275,-28.4069,1007.681
21.144883156,46.74918,13.63521,25.22511,-0.9718996,-0.4380828,0.1437649,35.6301,3.671297,-27.95117,1007.683
21.179531097,33.35735,17.06794,17.19651,-1.017517,-0.2672232,0.5562627,35.9952,1.748891,-28.83636,1007.685
21.211703777,-12.77688,1.028799,12.17097,-0.945736,-0.333116,0.3029639,35.9952,1.748891,-28.83636,1007.685
21.246351719,31.33015,4.10642,8.984048,-0.9471452,-0.5858534,0.2575136,36.38336,-0.2142972,-27.93612,1007.689
21.278523922,109.0396,2.271684,23.57036,-0.945688,-0.2538418,0.386521,36.76104,-0.6007991,-27.93619,1007.689
21.313171864,47.91636,11.6821,-0.883163,-1.002919,-0.2855974,0.3858292,36.76104,-0.6007991,-27.93619,1007.69
21.345344544,52.27792,13.04336,-9.463346,-1.075867,-0.241038,0.4524291,37.14322,-2.887284,-27.48068,1007.69
21.379992485,57.25378,5.349305,-17.00165,-0.9677449,-0.2639761,0.3798952,37.14797,-4.406133,-27.02696,1007.69
21.412165165,63.76541,15.46994,-25.21411,-0.9223387,-0.300411,0.3420572,37.14797,-4.406133,-27.02696,1007.69
21.446812630,58.23667,7.657521,-16.57264,-0.8850605,-0.1684823,0.4170249,37.53091,-5.549217,-26.57703,1007.69
21.478985310,46.01202,5.704415,-7.011866,-0.8469263,-0.2140252,0.3893016,37.91438,-5.930035,-26.13082,1007.687
21.511158466,66.71407,2.567609,-1.55732,-0.8589157,-0.322018,0.3504453,37.91438,-5.930035,-26.13082,1007.688
21.545805931,63.51969,3.86968,0.2200035,-0.8528816,-0.1676639,0.3550355,37.9249,-7.443198,-25.23082,1007.688
21.577979088,45.582,0.6736889,-1.679894,-0.9339802,-0.3041575,0.3522569,37.91861,-8.211149,-25.67338,1007.688
21.612626076,40.66757,-4.357037,-9.524632,-0.8848898,-0.2113647,0.4581217,37.91861,-8.211149,-25.67338,1007.688
21.644798756,8.232317,-8.973468,-12.5277,-0.9149247,-0.2196806,0.4303775,37.93987,-9.713757,-23.94456,1007.69
21.679446697,12.041,-7.138732,-8.115031,-0.846059,-0.1870117,0.3051664,38.30708,-9.729683,-24.77531,1007.692
21.711619377,47.91636,-7.789768,-8.421467,-0.8802502,-0.3435096,0.3191372,38.30708,-9.729683,-24.77531,1007.692
21.746267319,98.04359,-9.802058,-3.273357,-0.9066902,-0.1370499,0.324942,37.92361,-9.348866,-25.22151,1007.692
21.778439522,69.90845,-7.079547,-5.357116,-0.8920361,-0.08975725,0.3618271,37.55094,-10.10008,-24.76958,1007.692
21.813087464,140.0006,0.6736889,-3.395931,-1.009564,-0.1784122,0.181925,37.55094,-10.10008,-24.76958,1007.692
21.845260143,244.678,0.732874,-7.502162,-1.114917,-0.1695821,0.126105,37.56039,-11.99519,-23.93147,1007.692
21.879908085,314.7086,30.2662,-27.11401,-1.145292,0.1051648,-0.07908836,37.58195,-14.25925,-22.13518,1007.688
21.912080288,302.3611,77.14072,-41.88418,-0.9347542,0.1784109,-0.2640908,37.58195,-14.25925,-22.13518,1007.69
21.946728230,292.9008,138.338,-61.43474,-0.833342,0.112692,-0.4757307,38.02501,-18.00936,-16.89065,1007.69
21.978900909,293.0237,174.6185,-68.85048,-0.8856822,0.1716465,-0.2284545,39.27125,-21.34278,-8.017845,1007.69
22.013548851,300.5182,159.7038,-46.17427,-0.5266943,0.4750566,0.009768809,41.29879,-21.234,2.619467,1007.688
22.045721531,251.9268,147.5709,-28.40104,-0.542693,0.5254112,0.1722851,41.29879,-21.234,2.619467,1007.688
22.077894688,199.0352,119.9907,5.613261,-0.6973771,0.7266458,0.4250631,41.82159,-18.0498,13.63215,1007.688
22.112541676,78.26299,92.64719,37.97281,-0.6865917,0.6574869,0.4643983,40.40403,-14.12685,20.69801,1007.688
22.144714832,41.46617,52.46058,58.93297,-0.9003429,0.3163598,0.3382607,40.40403,-14.12685,20.69801,1007.69
22.179362297,65.5469,42.16238,60.95544,-1.156503,0.2752614,0.1306423,38.18359,-11.38203,24.20308,1007.688
22.211534500,87.04754,21.44763,42.56934,-1.084759,0.1883541,0.1736003,37.07211,-12.48659,25.99959,1007.685
22.246182442,14.37536,3.455384,25.7154,-0.99615,0.2153288,-0.6777332,37.07211,-12.48659,25.99959,1007.685
22.278355122,85.38892,33.28463,29.39263,-1.503671,0.6232212,-0.3519971,35.95614,-11.69116,27.34051,1007.685
22.313003063,-12.65402,-30.9903,1.874753,-1.602772,0.5481675,-0.2037173,36.33986,-11.69085,27.78486,1007.685
22.345175743,-50.06515,-56.49903,-41.88418,-1.49353,0.3339732,-0.3409803,36.33986,-11.69085,27.78486,1007.689
22.379823208,-44.7207,-71.23611,-94.46845,-1.252463,-0.07282822,-0.3191095,36.33485,-10.55313,27.333,1007.689
22.411995888,-12.77688,-68.5136,-89.5042,-0.8293344,0.2136086,-0.1635645,38.95154,-10.61913,25.08805,1007.691
22.446643829,-25.55441,-62.18079,-63.88623,-0.5343223,-0.04580418,-0.06530795,38.95154,-10.61913,25.08805,1007.688
22.478816509,7.863734,-55.07859,-56.40921,-0.6722682,-0.2149679,-0.3131631,40.81472,-8.386789,22.89957,1007.688
22.513464451,4.853643,-47.08862,-60.6993,-0.989473,0.001972575,0.04633683,42.67707,-6.155255,20.64734,1007.69
22.545636654,18.3069,-50.28461,-68.05375,-1.230382,-0.02272246,-0.03837874,42.67707,-6.155255,20.64734,1007.69
22.577809811,33.78736,-44.54366,-64.92811,-1.148473,0.1184143,0.0005804673,43.40508,-4.669882,18.40462,1007.692
22.612457276,6.389403,-40.57827,-59.2897,-1.080682,-0.008208038,0.1150659,44.9076,-1.272524,17.48758,1007.694
22.644629955,-30.89886,-42.94567,-52.60941,-1.012326,-0.2323314,0.1116164,44.9076,-1.272524,17.48758,1007.694
22.679277897,-6.326692,-39.86805,-60.57673,-1.015035,-0.4689547,0.07787895,46.02593,1.425772,16.1296,1007.694
22.711450100,-11.42542,-50.16624,-59.04455,-1.086901,-0.1719931,0.2092096,46.3889,3.690962,14.84142,1007.695
22.746098042,-23.65007,-50.40298,-58.92197,-0.9968632,-0.2712342,0.1121154,46.3889,3.690962,14.84142,1007.695
22.778270722,-29.1788,-46.79269,-54.01901,-0.9001372,-0.2697234,0.1815972,47.12296,5.563153,13.04312,1007.699
22.812918663,-13.75977,-44.95795,-50.34179,-0.9114009,-0.4181222,0.1906009,46.34577,8.219085,11.24884,1007.695
22.845090866,0.0006406754,-40.93338,-47.15487,-0.7406925,-0.4117984,0.1765281,46.34577,8.219085,11.24884,1007.695
22.879738808,-8.968199,-43.00485,-41.02617,-0.7950307,-0.3044445,0.2786581,47.08039,9.710955,9.516163,1007.695
22.911911488,-8.108173,-44.24773,-41.3326,-0.8164204,-0.4372074,0.2946332,47.07038,11.98639,8.612436,1007.701
22.946559429,-23.95722,-46.49677,-46.41942,-0.9513661,-0.3304637,0.3285843,47.07038,11.98639,8.612436,1007.699
22.978732109,-29.42453,-35.84346,-46.41942,-0.7932563,-0.3935177,0.1843993,47.43201,13.4885,7.264217,1007.699
23.013379574,-21.99145,-31.22704,-35.75548,-0.8459969,-0.4335007,0.3156657,47.02621,14.98997,5.027306,1007.699
23.045552254,-11.67114,-25.36772,-21.23045,-0.7192565,-0.5198482,0.3407632,47.02621,14.98997,5.027306,1007.699
23.080200195,-16.15556,-25.72283,-20.74016,-0.6786816,-0.7567839,0.2314274,46.27162,16.90638,5.02187,1007.699
23.112372875,-0.982246,-29.62904,-17.85967,-0.7926099,-0.5322351,0.3866535,45.87685,17.65696,3.68124,1007.699
23.144545078,-12.03972,-33.35769,-13.63086,-0.8464012,-0.3995724,0.3092012,45.87685,17.65696,3.68124,1007.699
23.179193020,-42.0792,-41.52523,-10.87295,-0.8374687,-0.4922887,0.3136554,45.86664,18.40867,2.848711,1007.7
23.211365700,-39.8677,-39.33538,-16.81779,-0.7310358,-0.7382752,0.2060405,45.47741,18.7838,1.956224,1007.7
23.246013641,-7.063857,-40.81501,-11.91483,-0.63424,-0.5032865,0.4032483,45.09946,18.78917,1.958158,1007.7
23.278186321,-33.17179,-56.08474,-8.605328,-0.7155229,-0.4761299,0.4736386,45.09946,18.78917,1.958158,1007.696
23.312833786,-43.73782,-52.35608,-8.298892,-0.7054654,-0.6226885,0.2313368,45.07712,19.90983,0.1674538,1007.696
23.345006466,-32.25033,-46.43758,-12.58898,-0.6736959,-0.702627,0.3340112,45.05427,20.26822,-1.619531,1007.696
23.379654408,-8.599616,-38.56598,-10.1375,-0.619868,-0.6119223,0.4239086,45.05427,20.26822,-1.619531,1007.696
23.411827087,-15.66411,-34.71895,-7.440875,-0.6661713,-0.6440399,0.4462479,45.03667,19.87004,-2.956511,1007.698
23.446475029,1.229249,-24.77587,-7.808597,-0.6288133,-0.6289876,0.4710874,45.02615,21.3832,-3.856516,1007.7
23.478647232,-16.0327,-14.89197,-7.686023,-0.6231963,-0.6132762,0.4350145,45.02615,21.3832,-3.856516,1007.7
23.513295174,-3.009449,-3.528447,-4.008801,-0.6504428,-0.6469165,0.4610194,45.02641,21.76433,-3.858377,1007.702
23.545467854,13.57676,1.561464,-2.905635,-0.6235785,-0.6880934,0.4257253,44.26501,22.15052,-4.30265,1007.702
23.580115795,11.30384,7.184041,-5.724838,-0.662223,-0.681254,0.4695222,44.26501,22.15052,-4.30265,1007.703
23.612288475,20.82555,13.33928,-4.43781,-0.6571395,-0.6501073,0.4205676,44.26558,21.7702,-4.237035,1007.703
23.646935463,11.97957,15.88424,-5.969986,-0.6182311,-0.6518711,0.40573,43.88763,21.77557,-4.235102,1007.703
23.679108620,11.05812,15.41076,-1.128311,-0.6279606,-0.6759734,0.4210461,43.88763,21.77557,-4.235102,1007.699
23.711281300,15.91112,16.53527,-2.5992,-0.6082445,-0.6453896,0.3714683,44.27079,22.15621,-3.85637,1007.699
23.745929241,9.952369,6.00034,-9.892355,-0.6348564,-0.6238468,0.5044441,44.27053,21.77507,-3.854508,1007.699
23.778101444,6.020821,-3.706002,-20.61758,-0.6796896,-0.7265302,0.503534,44.27053,21.77507,-3.854508,1007.699
23.812749386,-6.203831,-19.74514,-39.80042,-0.7791846,-0.7550362,0.5823112,44.27053,21.77507,-3.854508,1007.699
23.844922066,-49.38942,-38.44761,-67.07315,-0.7617649,-0.7857231,0.5794857,43.51491,22.16694,-3.852502,1007.701
23.879570008,-58.0511,-49.57439,-93.36529,-0.6326724,-0.8802713,0.4237438,43.51491,22.16694,-3.852502,1007.705
23.911742687,-49.57371,-51.46831,-116.3479,-0.6629851,-0.9802343,0.4072966,41.99974,24.47035,-4.238458,1007.705
23.946390152,-68.37141,-37.6782,-147.6043,-0.5755058,-0.9602042,0.3545895,39.72209,26.77799,-5.130579,1007.703
23.978562832,-110.4512,-22.23091,-174.5706,-0.2607348,-0.777589,0.3835238,39.72209,26.77799,-5.130579,1007.705
24.013210297,-258.8671,19.968,-198.8402,0.01120188,-0.5453001,0.3433774,35.57862,30.27861,-4.233493,1007.706
24.045383453,-458.8846,61.81181,-222.1906,0.3151606,-1.003874,-0.1399368,31.10365,35.35381,0.1645775,1007.706
24.080030441,-424.8521,129.2827,-209.9945,0.4152442,-1.106882,-0.7822972,31.10365,35.35381,0.1645775,1007.706
24.112203598,-382.8337,184.1472,-191.0568,0.3489435,-1.259746,-0.7583568,24.86402,38.73795,14.33573,1007.706
24.146851063,-177.349,187.6983,-150.5461,0.2214937,-1.261644,-0.7089832,15.92344,36.3279,29.44183,1007.706
24.179024220,-44.29069,162.1896,-126.0313,0.1949014,-0.7562553,-0.4592309,15.92344,36.3279,29.44183,1007.708
24.211196899,-4.176628,129.046,-97.53281,0.2864118,-0.5500671,-0.412595,5.811326,28.94601,37.05428,1007.706
24.245844364,-4.238058,112.6517,-77.30808,0.4033006,-0.5280926,-0.5089405,-2.506174,24.87164,37.11729,1007.706
24.278017044,-5.896679,98.32896,-56.40921,0.4033785,-0.428444,-0.4898037,-7.815434,23.78635,35.8111,1007.706
24.312664509,26.96859,77.08154,-26.99143,0.4995722,-0.3248259,-0.6493888,-7.815434,23.78635,35.8111,1007.706
24.344837666,6.143682,100.578,14.99018,0.5785159,-0.2469068,-0.816737,-12.75176,23.8334,34.05112,1007.705
24.379484654,1.106388,144.9076,63.83593,0.5251298,-0.3232237,-0.8028899,-15.47766,23.85482,32.72614,1007.703
24.411657810,-35.99759,206.8151,94.41815,0.6737856,-0.3389701,-1.049745,-15.47766,23.85482,32.72614,1007.703
24.446305275,-155.7254,302.8724,114.2139,0.4709282,-0.4008405,-0.7692842,-18.15162,24.62624,30.50455,1007.697
24.478478432,-46.9322,-28.68208,183.7746,-3.710373,-1.974374,-10.07234,-20.83155,23.86826,27.90788,1007.697
24.513125420,272.076,116.5579,48.94318,4.743609,-2.368234,-0.4301324,-20.83155,23.86826,27.90788,1007.701
24.545299053,73.59428,-114.382,32.02797,-0.5131726,0.2292811,-0.004433539,-22.67688,22.41523,31.43148,1007.695
24.579946041,-4.422349,-44.12936,29.88292,0.7737977,-0.3898967,-0.09866676,-22.35409,25.02176,27.01748,1007.695
24.612118721,-66.40563,-10.98576,11.74196,0.8851253,-1.053027,-0.2931522,-22.35409,25.02176,27.01748,1007.695
24.646766663,31.69873,-27.32082,-9.892355,0.4051874,-1.006895,-0.2849196,-20.46285,27.28172,26.99664,1007.695
24.678938866,41.89618,-22.17173,-3.886227,0.6969436,-0.6314806,-0.06812929,-20.06861,25.76887,28.34099,1007.695
24.711112023,-11.97829,-21.22477,-1.618607,0.554937,-0.7806072,-0.1118956,-20.06861,25.76887,28.34099,1007.695
24.745759487,8.908051,-22.17173,7.880881,0.5616919,-0.8178712,-0.2192697,-19.31748,27.27698,27.8834,1007.695
24.777932644,14.62108,-22.11254,17.44166,0.4854714,-0.7504367,-0.1466666,-18.93376,27.2773,28.32774,1007.695
24.812579632,20.33411,-31.40459,16.64493,0.43983,-0.9820006,-0.1814077,-18.93376,27.2773,28.32774,1007.695
24.844752312,67.08266,-47.20699,15.54176,0.3119128,-1.05247,-0.2126071,-18.17814,26.88543,28.32574,1007.695
24.879400254,152.1024,-66.08701,29.88292,0.33098,-0.988255,-0.1814076,-16.67164,27.62054,27.868,1007.695
24.911572933,201.1852,-75.14232,40.79201,0.3521937,-0.9272951,-0.06735114,-16.67164,27.62054,27.868,1007.695
24.946220875,142.7035,-76.08928,59.23941,0.3114083,-0.6403345,0.108915,-15.19853,30.2272,24.72328,1007.693
24.978393078,88.21472,-81.65266,80.56728,0.2137357,-0.7733071,0.04848018,-13.29945,35.09817,20.29004,1007.695
25.013041019,118.0699,-85.02621,109.7399,0.279935,-0.8375458,-0.056779,-13.29945,35.09817,20.29004,1007.695
25.045213699,167.3371,-78.33831,153.4989,0.2044225,-0.7051154,0.0105693,-9.919007,38.1397,18.47232,1007.697
25.079861641,167.7057,-70.881,185.3681,0.07419185,-0.7595743,0.1029154,-5.450443,40.67581,13.14447,1007.697
25.112033844,186.1348,-55.67044,220.2404,0.07262006,-0.754346,0.08754921,-5.450443,40.67581,13.14447,1007.699
25.146681786,165.8013,-20.92884,248.126,-0.09370936,-0.6582987,0.2248529,0.8962641,43.1737,6.9144,1007.697
25.178854466,120.4043,9.433071,258.7287,-0.2523951,-0.7562387,0.2621582,9.497508,43.34121,-0.2086773,1007.697
25.213502407,77.89441,38.49291,276.3181,-0.3318258,-0.5218808,0.4528112,18.12058,41.6258,-5.537325,1007.695
25.245675087,-16.70843,39.7358,265.7767,-0.7014844,-0.8437035,0.4637293,18.12058,41.6258,-5.537325,1007.697
25.277847290,3.993618,32.87033,245.0617,-0.7456198,-1.138063,0.4062845,27.61742,36.90572,-6.456226,1007.695
25.312495232,24.32709,39.08476,214.2956,-0.7696512,-0.8611551,0.5485714,35.18386,31.02919,-5.574121,1007.691
25.344667912,-11.24112,18.19245,172.6204,-0.8749057,-1.130324,0.6972364,35.18386,31.02919,-5.574121,1007.693
25.379315853,44.16911,0.851244,60.40386,-0.7201953,-1.906386,0.551543,41.98766,23.69671,-5.127296,1007.693
25.411488533,66.46835,-2.403932,32.02797,-0.539743,-0.6124958,0.8420138,45.38578,18.69366,-5.120512,1007.693
25.446135998,-42.87779,-13.41234,21.67046,-0.5821039,-0.332063,0.4851494,45.38578,18.69366,-5.120512,1007.695
25.478308678,-2.825158,0.910429,34.17301,-0.6666548,-0.4921928,0.3732763,46.12278,16.37906,-6.452057,1007.697
25.512956143,15.60397,9.314701,28.84104,-0.8258252,-0.4171964,0.6178255,46.13408,16.0093,-5.557634,1007.698
25.545129299,6.205112,-3.824372,13.33543,-0.9659147,-0.4644435,0.6948991,46.13408,16.0093,-5.557634,1007.698
25.579776287,3.870757,-15.72056,0.5877256,-0.9333993,-0.3685396,0.6269425,47.26109,14.46297,-6.002274,1007.698
25.611949444,-8.599616,-17.25937,-0.6380149,-0.8626274,-0.2620481,0.634872,46.87108,13.69471,-6.889179,1007.7
25.646596909,-52.89095,-31.10867,7.206724,-0.8505514,-0.1409201,0.6776919,46.87108,13.69471,-6.889179,1007.7
25.678770065,-67.7571,-57.26844,16.39978,-0.8983245,-0.1827447,0.7621427,46.49289,13.31894,-6.885385,1007.7
25.713417053,-103.3867,-97.63262,17.74809,-0.983935,-0.3451042,0.9900708,46.47003,13.67734,-8.672368,1007.702
25.745590210,-103.3253,-130.3027,6.103558,-0.9081497,-0.5443906,0.8132369,46.47003,13.67734,-8.672368,1007.702
25.780237675,-120.5873,-146.2827,-13.26314,-0.8208651,-0.4902041,0.7208073,46.06294,13.27315,-10.89998,1007.704
25.812410355,-127.836,-165.1035,-9.402059,-0.6356693,-0.4255798,0.6603261,44.49475,14.00085,-15.29501,1007.705
25.844583512,-149.7053,-149.893,-4.682959,-0.4464732,-0.4298883,0.4122234,44.49475,14.00085,-15.29501,1007.705
25.879230499,-137.112,-119.5903,7.206724,-0.317388,-0.5892787,0.3451169,41.8051,14.75684,-18.72794,1007.707
25.911403656,-141.105,-91.77331,19.46413,-0.2015457,-0.5055041,0.2685708,38.3763,17.06354,-20.9531,1007.707
25.946051121,-120.0344,-65.79108,44.04022,-0.2924923,-0.7135228,0.1737145,38.3763,17.06354,-20.9531,1007.707
25.978224277,-41.21917,-55.61126,62.67148,-0.4004889,-0.7330619,0.339887,37.23248,19.35507,-21.85102,1007.707
26.012871265,-33.90895,-35.13324,59.91356,-0.3798312,-0.8827733,0.1991622,36.0939,20.89003,-22.29894,1007.707
26.045043945,-70.09145,-13.23479,54.39773,-0.5663556,-0.5238101,0.3031538,36.0939,20.89003,-22.29894,1007.707
26.079691887,-102.5881,-12.4062,35.58261,-0.5670547,-1.177299,-0.1610905,35.71571,20.51426,-22.29515,1007.707
26.111864567,122.9229,4.81664,28.77976,-0.8240772,-1.262222,0.3052551,36.47107,19.74126,-22.2953,1007.707
26.146512508,126.9773,-15.60219,5.184252,-0.709043,-0.3988161,0.6848493,36.47107,19.74126,-22.2953,1007.709
26.178684711,-33.41751,18.48838,-41.88418,-0.6254776,-0.8445251,0.2171936,36.0808,18.59186,-23.18034,1007.709
26.245505333,76.54294,38.49291,-111.0159,-0.6771975,-0.981261,0.5168346,36.44539,15.90718,-24.06181,1007.707
26.280153275,-14.92695,30.85804,-155.2039,-0.5520156,-1.058871,0.3521109,36.45797,17.44309,-23.17669,1007.707
26.312325478,102.5894,31.62745,-168.1355,-0.4596293,-1.340587,0.4487002,35.70916,19.36518,-22.73585,1007.707
26.344498158,151.3038,23.9334,-175.6125,-0.2406982,-0.7535585,0.4915029,35.70916,19.36518,-22.73585,1007.705
26.379146099,107.4424,35.41529,-175.1835,-0.1071576,-0.7714141,0.6539894,32.3158,22.84938,-22.28891,1007.705
26.411318779,145.7136,36.36225,-156.0006,-0.05467705,-0.5031636,0.7299391,29.6437,25.14615,-24.45419,1007.705
26.445966721,33.78736,67.61194,-141.9046,0.1875567,-0.5045658,0.5782474,26.96974,25.91757,-26.67577,1007.705
26.478138924,99.45648,81.5796,-102.3745,-0.0131279,-0.4045835,0.5741963,26.96974,25.91757,-26.67577,1007.704
26.512786865,-2.579437,94.24519,-79.26927,-0.03474059,-0.2447679,0.8287652,24.32494,27.09855,-26.66782,1007.702
26.544959545,-41.83347,100.9923,-64.4991,-0.1059791,-0.7389104,0.7786022,23.58665,27.50747,-25.32697,1007.7
26.579607487,-6.572414,105.076,-44.27438,-0.107124,-0.5795187,0.739439,23.58665,27.50747,-25.32697,1007.697
26.611779690,-83.79044,98.50652,-32.44598,-0.289903,-0.5272272,0.8567734,24.37188,29.43002,-23.17249,1007.697
26.646427155,-132.6276,91.34512,-7.502162,-0.1535708,-0.4786735,0.5059701,24.80259,30.61921,-19.16348,1007.697
26.678600311,-135.6991,91.46349,24.91867,-0.2455478,-0.7216658,0.5959229,24.80259,30.61921,-19.16348,1007.695
26.713247776,-144.1151,65.12617,54.58159,-0.3369864,-0.7958492,0.6101425,26.38358,32.95113,-13.95452,1007.697
26.745420933,-48.52939,51.69117,75.72561,-0.3004904,-0.9408596,0.144923,27.97566,33.38957,-7.779946,1007.697
26.780067921,-6.818135,61.0424,91.16994,-0.3617882,-0.6677238,0.1516027,27.97566,33.38957,-7.779946,1007.697
26.812240601,-46.19503,71.6957,107.3497,-0.3472854,-0.4973333,0.2271001,29.89977,33.01571,-5.110071,1007.697
26.846888542,28.25863,63.52817,120.7103,-0.4631678,-0.7212299,0.1342736,33.33327,30.33275,-2.500521,1007.697
26.879060745,72.4271,40.44602,99.68884,-0.8525378,-1.057415,0.5361589,33.33327,30.33275,-2.500521,1007.693
26.911234379,58.54382,9.314701,77.44165,-0.7553073,-0.476167,0.4431615,37.12794,27.24705,-1.166132,1007.693
26.945881367,32.68162,12.98417,74.56116,-0.6090719,-0.6847155,0.1176201,39.38671,22.63555,-1.601686,1007.691
26.978054523,40.91329,18.31082,67.32928,-0.73972,-0.6406094,0.4031005,39.38671,22.63555,-1.601686,1007.691
27.012701988,14.2525,4.93501,51.27209,-0.6633893,-0.6619298,0.2050747,40.14131,20.71915,-1.596251,1007.691
27.044874191,24.7571,23.34155,50.47536,-0.6281111,-0.6722416,0.4013163,42.02343,18.01869,-2.039175,1007.691
27.079522133,25.00282,13.22091,37.85023,-0.6851243,-0.6027705,0.435679,42.02343,18.01869,-2.039175,1007.691
27.111694813,14.12964,12.62906,40.24043,-0.6550848,-0.5639856,0.4492144,42.4119,16.50015,-1.141105,1007.689
27.146342754,-1.227968,10.67596,55.5009,-0.8317835,-0.5176933,0.4218428,43.16649,14.58375,-1.135669,1007.689
27.178514957,21.19413,-0.9243064,76.15462,-0.7567574,-0.3857197,0.4010228,43.16649,14.58375,-1.135669,1007.689
27.213162899,6.205112,-2.048822,100.6694,-0.8819516,-0.3843382,0.3106225,43.92712,13.05416,-0.685812,1007.687
27.245335579,17.26259,-1.516157,120.2813,-0.8681427,-0.2865184,0.1642902,45.05362,10.74557,-1.126731,1007.687
27.279983521,-22.9129,17.18631,129.0453,-0.9349643,-0.2165966,0.2508041,45.05362,10.74557,-1.126731,1007.687
27.312156200,-42.44778,30.20701,113.1107,-0.8322718,-0.4871142,0.2326737,45.05079,6.553104,-1.106263,1007.689
27.346803665,-37.28762,36.77655,96.80835,-0.886728,-0.2886226,0.5090759,46.18704,1.587948,-0.6415939,1007.689
27.378976345,-29.24023,34.05404,80.26085,-0.7667878,-0.1544373,0.489301,45.82908,-3.021068,1.168102,1007.689
27.411149025,-35.50614,36.89492,78.23838,-0.9018541,-0.05126295,0.6268538,45.82908,-3.021068,1.168102,1007.687
27.445796967,-22.05288,34.40915,67.81959,-0.8686293,-0.1232926,0.4341141,45.83858,-6.058766,2.075548,1007.683
27.477969170,-1.166537,57.66886,56.35891,-0.9556621,-0.1486074,0.3682016,45.09137,-9.086538,2.923109,1007.685
27.512617111,7.740872,62.40366,20.077,-0.9962691,-0.2199565,0.2161625,45.09137,-9.086538,2.923109,1007.685
27.544789791,24.69567,69.20993,-7.686023,-0.9363345,0.09975009,0.108825,44.36836,-11.70963,5.617685,1007.685
27.579437256,-23.89579,85.54499,-25.2754,-0.9596903,0.1525998,0.1494846,44.01854,-12.81923,7.856606,1007.685
27.611610413,-1.105107,80.15916,-29.81064,-0.9318721,0.1780931,0.1373852,44.01854,-12.81923,7.856606,1007.685
27.646257401,-20.51712,72.52429,-36.30706,-1.087647,-0.04158658,-0.0008241618,43.68626,-12.38807,11.36317,1007.683
27.678430557,4.055048,65.12617,-57.32851,-0.9031028,-0.1931149,-0.2086451,43.71618,-10.83511,13.58713,1007.683
27.713078022,10.0138,74.71413,-93.73301,-1.000599,-0.3076257,-0.1407175,43.71618,-10.83511,13.58713,1007.683
27.745251179,29.67153,60.03626,-121.4347,-0.8843855,-0.3275189,-0.06484597,42.99073,-8.509146,15.81124,1007.683
27.779898167,10.19809,31.68663,-132.2825,-0.9288319,-0.05188611,0.08774294,42.27627,-5.791492,18.86229,1007.685
27.812070847,3.317883,-39.33538,-92.50727,-1.236763,-0.2203922,-0.1214067,42.27627,-5.791492,18.86229,1007.687
27.846718788,-9.521072,-67.15234,-50.21922,-1.110642,0.06281201,0.115931,41.9072,-1.206837,19.28817,1007.687
27.878891468,-1.473689,-65.37679,-19.94343,-0.8315183,-0.5354542,-0.1191095,42.27016,2.264463,17.93034,1007.687
27.913538933,-32.61891,-28.14941,-23.00778,-0.7851148,-0.5337849,0.001453179,42.27016,2.264463,17.93034,1007.687
27.945711613,-28.07306,-8.144877,-37.5328,-0.5824869,-0.8017676,-0.3790884,42.60373,3.738962,14.41447,1007.688
27.977884293,-1.903702,26.00488,-55.73505,-0.7408031,-0.6794599,-0.230075,44.11549,3.717488,14.40674,1007.688
28.044704437,10.38238,-26.25549,-32.99757,-1.183009,-0.3441254,0.2959292,43.36667,5.639577,14.84758,1007.688
28.079352379,-18.61277,-23.82891,-22.82392,-0.8263758,-0.3803129,0.3019431,42.9958,7.556299,15.2865,1007.688
28.111525059,-3.869475,-37.91494,-15.89848,-0.8294121,-0.608492,0.1670585,42.9958,7.556299,15.2865,1007.69
28.146173000,-11.17969,-32.88421,-26.31728,-0.6893656,-0.5438383,0.01831084,42.99028,7.931747,14.83835,1007.684
28.178345680,-15.35696,-28.50452,-31.71054,-0.7438957,-0.6394963,-0.2109187,43.71201,8.649168,12.15308,1007.686
28.212993145,-4.790932,6.9473,-29.93321,-0.7771325,-0.3962193,-0.218725,43.71201,8.649168,12.15308,1007.686
28.245165825,-17.19987,22.39459,-18.28868,-0.9301663,-0.5185149,-0.2520452,43.32906,9.792252,11.70315,1007.686
28.279813290,11.48813,52.04628,-13.87601,-0.7511157,-0.4610442,-0.1110523,43.33561,10.94134,12.14385,1007.686
28.311986446,7.556581,51.51361,-6.215134,-0.9040501,-0.624056,0.1777486,43.33561,10.94134,12.14385,1007.686
28.346633434,-4.60664,9.610626,-10.56651,-0.8328302,-0.5374671,0.2486518,42.60258,10.59368,13.9347,1007.688
28.378806591,-2.702297,13.10254,-13.81472,-0.6980981,-0.7347202,0.05875263,41.48661,11.38911,15.27562,1007.688
28.413454056,-0.7979547,-6.250957,-15.04047,-0.6669139,-0.7804113,0.1332769,41.87033,11.38942,15.71997,1007.688
28.445626736,0.9220968,-14.18175,-21.35303,-0.7250831,-0.6993812,-0.03373013,41.87033,11.38942,15.71997,1007.688
28.477799893,6.757986,-4.889702,-9.58592,-0.7321346,-0.694265,-0.004220187,41.8711,12.53282,15.71439,1007.688
28.512446880,-6.879566,-5.422367,-0.1477187,-0.8024617,-0.6794598,-0.01790189,41.48764,12.91364,15.26818,1007.69
28.544620037,8.6009,-2.403932,11.98711,-0.8209929,-0.6551779,-0.02813279,41.48764,12.91364,15.26818,1007.69
28.579267502,-10.62682,-14.30012,22.28333,-0.7872366,-0.5866387,0.00682124,41.47634,13.28341,14.37376,1007.69
28.611439705,12.65531,-5.599922,23.99937,-0.775124,-0.6311922,-0.09825297,41.85403,12.8969,14.37368,1007.69
28.646087647,-3.808045,-22.34928,31.23124,-0.7873047,-0.6317845,0.1949115,41.85403,12.8969,14.37368,1007.69
28.678260327,-22.79004,-43.06404,22.22205,-0.7732831,-0.6720348,0.08262495,41.85351,12.13464,14.37741,1007.688
28.712908268,-22.54432,-30.93111,24.42838,-0.6314643,-0.768954,-0.1836331,42.58577,11.33889,12.59213,1007.69
28.745080948,-6.388123,-11.2225,22.95749,-0.5874726,-1.030084,-0.2811503,42.58577,11.33889,12.59213,1007.686
28.779728413,14.55965,15.52913,-8.850475,-0.8746467,-1.143552,-0.1372162,44.08468,9.400381,11.70114,1007.686
28.811901093,2.089275,6.118711,-72.83414,-0.802815,-1.345394,-0.1443705,44.08416,8.638114,11.70486,1007.686
28.846549034,62.04536,-1.930452,-101.3326,-0.5800425,-0.9001647,0.01772716,44.08416,8.638114,11.70486,1007.686
28.878721714,18.98264,6.651375,-104.5195,-0.2990496,-0.5120743,0.1089206,42.96268,9.80899,12.59764,1007.686
28.913368702,36.61316,13.57602,-90.97509,-0.08795812,-0.6926069,-0.00346935,42.57549,13.23319,11.69027,1007.686
28.945541859,41.5276,42.39912,-77.36937,0.03705312,-0.5925702,0.7134041,42.57549,13.23319,11.69027,1007.686
28.980189323,46.44203,35.29692,-51.93525,0.02832258,-0.8230636,-0.04033382,41.4445,17.44176,11.6756,1007.686
29.012362480,57.13092,43.52364,-30.79123,-0.1248581,-0.5594201,0.1869168,39.94637,20.52368,12.56101,1007.682
29.044535160,-7.49387,33.8173,-9.953642,-0.2344819,-0.7354777,-0.0554755,39.94637,20.52368,12.56101,1007.683
29.079182148,58.97383,24.28851,29.27005,-0.7632425,-0.8070031,-0.1672932,38.81961,22.45113,13.00379,1007.683
29.111355305,34.03308,34.23159,54.21387,-0.7913399,-0.3436027,-0.07645077,38.06398,22.843,13.0058,1007.683
29.146002770,49.2064,24.28851,79.64798,-1.296561,-0.8328303,-0.1466237,38.06398,22.843,13.0058,1007.685
29.178175926,54.61227,44.29305,58.07495,-1.189502,-0.3804224,0.1795287,38.81935,22.07,13.00565,1007.685
29.212822914,-238.4108,60.15463,-178.6768,-6.510709,-2.248316,1.952354,39.5792,19.39701,13.46109,1007.687
29.244995594,416.2531,34.5867,-63.57979,1.036215,1.232213,-0.4343002,39.5792,19.39701,13.46109,1007.685
29.279643536,-33.41751,15.17402,-0.8218759,-1.689342,0.1487313,-0.3821323,39.60129,17.89522,15.25366,1007.687
29.311816216,-54.91815,-7.789768,-41.14874,-0.638751,-1.400501,-0.5131572,36.91964,24.37227,12.1116,1007.685
29.346463680,37.59605,45.00327,9.35177,-0.8448974,-0.1955146,0.2732734,36.91964,24.37227,12.1116,1007.685
29.378636360,-21.31571,19.31697,0.4651515,-0.61702,-1.015304,-0.1457928,36.94827,24.01956,14.34486,1007.687
29.413284302,-5.773818,39.61743,9.780779,-0.7535582,-0.3525303,0.3010107,36.1992,25.56052,14.78757,1007.687
29.445456982,-44.35212,-2.167192,4.510095,-0.7983735,-0.8994477,0.28487,36.1992,25.56052,14.78757,1007.687
29.480103970,-30.28455,-23.35543,8.493752,-0.6536844,-0.7234789,0.2864166,36.58818,24.80425,15.68192,1007.685
29.512277126,-19.59566,-21.22477,10.08721,-0.7162386,-0.7996927,0.3707219,36.2202,23.67678,16.51824,1007.685
29.544449806,-8.538186,-35.84346,11.68068,-0.7031401,-0.6876031,0.2490959,36.2202,23.67678,16.51824,1007.687
29.579097748,-3.07088,-13.47153,23.20264,-0.7058661,-0.7405975,0.2988124,36.9703,23.66036,16.06809,1007.683
29.611270428,11.05812,-19.98188,29.88292,-0.5647684,-0.8150359,0.05202641,37.33699,22.88217,15.24107,1007.683
29.645917416,25.67855,15.58831,40.30172,-0.608101,-0.6982276,0.06544372,38.46452,22.09811,14.79271,1007.683
29.678090573,21.37843,24.46606,39.01469,-0.5790544,-0.7240646,-0.1823061,38.46452,22.09811,14.79271,1007.683
29.712738037,19.35122,38.49291,39.32112,-0.6587061,-0.6895844,0.02067921,39.22014,21.70624,14.7907,1007.683
29.744911194,6.143682,47.48903,35.03103,-0.6950365,-0.779139,0.1542758,39.22432,20.56771,15.17881,1007.685
29.779558182,11.54956,29.91109,25.65412,-0.5307155,-0.6876404,-0.022433,39.22432,20.56771,15.17881,1007.685
29.811730862,-9.643933,31.98256,22.46719,-0.6572137,-0.8191997,0.1449166,39.60809,19.42544,15.6925,1007.685
29.846378803,0.3692232,-9.565318,24.55095,-0.7624216,-0.6835796,0.1031544,39.25796,19.07729,17.86394,1007.685
29.878551483,-34.27753,1.383909,32.39569,-0.5752842,-0.6905052,0.01796521,39.25796,19.07729,17.86394,1007.685
29.913198948,-9.459642,14.70054,40.60815,-0.7179331,-0.7594972,-0.0829744,39.62961,18.30396,17.41945,1007.685
29.945371628,-7.432439,35.47448,48.63675,-0.6408152,-0.6065381,-0.2135368,40.01808,16.78543,18.31751,1007.682
29.980019569,4.485061,54.53205,46.79814,-0.7529703,-0.6310501,-0.1914844,40.01808,16.78543,18.31751,1007.682
30.012192249,3.993618,55.77494,30.67966,-0.7166999,-0.5846997,-0.1369748,40.40654,15.2669,19.21558,1007.684
30.046839237,-3.685184,40.09091,23.99937,-0.7864286,-0.7221954,0.05245011,40.42703,12.62089,20.94998,1007.684
30.079012394,-0.7365243,-5.718292,-5.847412,-0.6594251,-0.80451,0.2231422,40.42703,12.62089,20.94998,1007.684
30.111185074,-12.65402,-17.61448,-17.55323,-0.634813,-0.698499,0.1389546,40.44411,12.25681,22.29068,1007.684
30.145833015,4.669352,-44.48447,2.855345,-0.8801053,-0.7208959,0.2866227,40.06013,11.87536,21.8482,1007.684
30.178005695,16.2797,-63.06857,0.7715867,-0.841136,-0.5662622,-0.0291398,40.06013,11.87536,21.8482,1007.686
30.212652683,-18.73563,21.98029,3.652077,-1.341118,-0.4743466,-0.4541422,39.66594,12.24562,20.57318,1007.682
30.244825840,15.84969,32.33767,-75.95977,-1.25175,-1.674464,-0.6210378,41.53856,12.58286,19.22281,1007.682
30.279473305,105.5995,36.30307,-111.3837,-0.8040119,-0.4658309,-0.07348419,41.53856,12.58286,19.22281,1007.682
30.311645508,50.43501,3.573755,-106.3581,-0.3584073,-0.3340726,-0.07221791,40.42182,12.23489,20.56931,1007.682
30.346293449,59.83386,-11.93272,-50.95466,0.3759695,0.004968216,-0.07000934,38.90185,17.19972,19.6603,1007.684
30.378466129,-262.3687,-6.783623,-121.9863,0.2911404,-1.392564,-1.591807,38.90185,17.19972,19.6603,1007.685
30.413114071,146.5122,48.37681,151.8441,1.282795,1.320059,-0.4021369,37.00946,21.79449,19.20136,1007.681
30.445286751,-540.2798,79.74487,242.4876,-2.888264,-3.732355,1.799314,36.24884,23.32407,18.7515,1007.681
30.479934216,428.4778,60.09544,-152.446,4.656768,-2.344765,2.118239,38.17641,19.52569,21.88441,1007.681
30.512106896,111.0668,-19.15329,-8.97305,-0.2875368,1.460494,0.8736203,38.17641,19.52569,21.88441,1007.681
30.546754360,-179.5605,-86.6834,-35.38776,-2.264094,-1.223995,-0.5755839,37.35799,20.99842,16.97174,1007.68
30.578927517,136.6833,51.92791,-23.80451,0.1076514,-0.7613456,-0.7351265,37.34221,23.26817,15.62174,1007.678
30.611099720,5.467947,71.2814,13.33543,-1.120643,-0.1038913,-0.2969776,37.34221,23.26817,15.62174,1007.678
30.645747662,-0.7979547,53.22998,23.44779,-1.109021,-0.7678972,-0.1025304,36.97659,24.42831,16.51065,1007.678
30.677920342,28.68864,55.71575,59.23941,-1.243356,-0.2995961,0.1778055,35.85433,24.45579,17.40901,1007.681
30.712567330,-31.94317,31.39071,80.62857,-1.299866,-0.2943903,0.1870517,35.85433,24.45579,17.40901,1007.677
30.744740963,-48.65225,3.100274,107.411,-1.302723,-0.2628048,0.06394692,36.63281,23.70552,19.19399,1007.679
30.779387951,-69.04714,-13.41234,137.1965,-1.081768,-0.3643951,-0.1905561,37.78165,20.27627,20.54377,1007.679
30.811560631,-55.04101,-7.434658,157.8502,-1.029562,-0.4187475,-0.2816252,37.78165,20.27627,20.54377,1007.681
30.846208573,-38.51623,-15.66137,175.4396,-0.86239,-0.2624235,-0.6732799,40.43595,16.05759,21.44327,1007.677
30.878380776,-48.9594,2.212499,176.8492,-0.8568876,-0.5307459,-0.4692475,41.93152,9.164344,20.57646,1007.679
30.913028717,-26.59873,-0.5100113,155.3987,-0.7643467,-0.4899308,-0.2779388,41.93152,9.164344,20.57646,1007.68
30.945201397,-60.56975,24.76199,147.125,-0.5472589,-0.4756361,-0.2355026,42.68855,2.298889,21.05237,1007.679
30.979849339,-92.57499,13.87195,96.37934,-0.7871593,-0.8106828,-0.2822982,42.67836,-4.249588,20.63803,1007.679
31.012022018,-59.52543,-13.70827,81.73174,-0.8230843,-0.4121718,0.01196805,42.67836,-4.249588,20.63803,1007.673
31.046669006,-90.24063,-38.44761,63.77464,-0.9619061,-0.1975497,0.752492,41.91862,-9.955853,20.66981,1007.671
31.078842163,-162.0528,-109.8839,69.90334,-1.009394,0.06702195,0.6645003,40.75886,-14.15496,18.91096,1007.671
31.113489628,-158.6741,-157.8829,87.92173,-0.8201291,-0.3527221,0.8000177,40.75886,-14.15496,18.91096,1007.671
31.145662785,-196.761,-178.361,54.45902,-0.7041553,-0.4739359,0.9545861,40.6757,-18.80733,12.74911,1007.671
31.177834988,-250.6354,-204.1064,10.76137,-0.2302767,-0.770115,0.1133815,40.93556,-23.88033,3.909513,1007.667
31.212482452,-110.3284,-153.5033,-38.94241,-0.4155725,-1.677689,-0.1854273,40.93556,-23.88033,3.909513,1007.667
31.244655609,1.35211,-119.9454,-129.5859,-0.1869904,-1.327233,-0.8546503,40.78595,-25.55104,-7.558832,1007.667
31.279302597,4.239339,-18.62062,-150.7299,0.6664589,-0.537612,-1.070594,39.95681,-24.08886,-13.3003,1007.665
31.311475277,-252.7855,52.34221,-251.9761,0.0285445,-0.6177142,-1.04313,39.95681,-24.08886,-13.3003,1007.665
31.346123219,-45.15071,83.59189,-315.8985,0.3080117,-2.031743,-1.888362,40.69215,-20.311,-15.1079,1007.658
31.378295899,314.4629,163.3733,-265.2141,-0.7505518,-0.09900629,-0.6840622,43.73339,-11.19538,-14.27547,1007.654
31.412943840,293.1466,112.7109,-158.7585,-0.8762195,1.384974,-0.6769215,43.73339,-11.19538,-14.27547,1007.651
31.445116043,226.3103,233.8627,-18.96284,-0.3741091,0.8472506,-1.351681,45.30957,-0.1079414,-9.938112,1007.649
31.479763985,1039.71,-60.93791,354.2751,-12.56004,5.164884,6.377063,46.1371,4.585852,-4.673005,1007.636
31.511936665,-1078.349,-261.4567,130.0872,-10.50186,1.065874,0.142422,46.1371,4.585852,-4.673005,1007.636
31.546583653,451.9442,-149.9522,127.3293,-0.6333287,-2.347636,-1.791567,48.49297,-0.3744705,2.416626,1007.645
31.578756809,-208.1256,-68.80952,360.9554,-0.8457088,-1.843924,1.962595,49.44397,-9.711575,-11.18795,1007.652
31.613404274,40.91329,-125.8047,269.9442,-1.008239,0.7764986,1.214034,46.74176,-16.58556,-15.15745,1007.659
31.645576954,-169.6087,44.58897,131.0678,-1.171736,1.119174,1.801604,46.74176,-16.58556,-15.15745,1007.664
31.680224896,-114.8128,58.02397,88.59589,-1.184232,-0.4912398,0.9189171,40.6251,-27.99458,-19.85226,1007.666
31.712397099,136.4376,-18.67981,115.6848,0.2370231,-0.3942446,0.3135956,37.95564,-29.12314,-21.61826,1007.666
31.744569779,67.45124,-16.07567,84.48965,0.1848164,0.216845,-0.09732692,37.95564,-29.12314,-21.61826,1007.671
31.779217720,-82.80755,-4.120297,14.68374,0.1873782,-6.675289E-05,-0.152159,37.22762,-30.60851,-19.37555,1007.673
31.811390400,-38.02479,40.9195,-9.402059,0.2384891,-0.1043681,-0.1751858,34.94611,-34.01787,-20.23976,1007.678
31.846037865,68.24983,79.74487,22.28333,0.06513368,0.5508764,-0.09924037,34.94611,-34.01787,-20.23976,1007.68
31.878210545,20.45697,79.09383,75.7869,-1.222612,1.186828,1.289307,35.70328,-32.12294,-20.25293,1007.68
31.912858486,-93.43501,1.679834,96.93092,-1.470344,0.5507592,1.036699,35.74136,-34.37076,-17.18156,1007.683
31.945031166,-617.7436,-81.8894,-45.86784,-1.516734,-0.9137251,-0.5824097,35.74136,-34.37076,-17.18156,1007.685
31.979678154,169.3029,-37.73738,-72.34383,-0.9643242,-0.1041889,0.7099043,33.75927,-36.78357,-24.1734,1007.684
32.011851311,173.2958,-58.15622,-44.88725,-0.8066615,0.6965235,0.7916722,33.32899,-28.76773,-28.67365,1007.688
32.046498775,-7.5553,-71.47285,-7.257013,-0.4371488,0.01421438,0.6683654,33.32899,-28.76773,-28.67365,1007.688
32.078670979,132.9975,-51.52749,12.0484,-0.5897462,0.1219361,0.6918853,34.10567,-32.18593,-26.87565,1007.691
32.113318920,67.14409,-41.76197,-3.273357,-0.5861072,0.6026028,0.7763078,32.97134,-32.93209,-26.86613,1007.693
32.145491600,-93.49644,-18.67981,-33.91687,-0.4392163,0.568399,0.9674551,32.97134,-32.93209,-26.86613,1007.699
32.180139542,-129.0647,2.153314,-36.30706,-0.8433999,-0.2519218,0.8275758,31.45774,-35.64207,-26.84506,1007.698
32.212312222,0.06207109,5.467675,-30.23965,-0.7192074,-0.1304206,0.7392128,31.42466,-33.32586,-29.53422,1007.7
32.244484425,-44.22926,10.97188,-29.44291,-0.5390963,0.03841786,0.7201261,31.42466,-33.32586,-29.53422,1007.7
32.279132366,-46.68648,27.01102,-11.30196,-0.5941645,-0.1671282,0.6543574,32.5498,-30.30346,-30.38371,1007.704
32.311305046,-13.26833,30.56212,-6.153847,-0.6322085,-0.1481369,0.7638009,34.05129,-28.43063,-31.29331,1007.707
32.345952988,7.495151,29.79272,4.20366,-0.6910008,-0.1281568,0.6102744,34.05129,-28.43063,-31.29331,1007.709
32.378125668,9.276634,35.59285,13.51929,-0.6965171,-0.08623195,0.6304334,34.4413,-27.66236,-30.40641,1007.709
32.412772656,17.99975,30.44375,13.21285,-0.8398294,-0.04427233,0.6292247,35.96982,-27.28646,-29.14091,1007.709
32.444945812,9.460925,22.21703,18.29967,-0.8402665,-0.04470723,0.6354911,35.96982,-27.28646,-29.14091,1007.712
32.479593277,21.43986,23.5191,20.75116,-0.7689487,-0.03048983,0.6368709,35.59689,-28.41881,-28.68712,1007.714
32.511765480,26.60001,19.73126,22.83492,-0.8138283,0.008916724,0.6197805,36.37589,-28.40681,-26.90586,1007.716
32.546413422,18.98264,20.44148,23.50907,-0.7259179,0.09071481,0.6466265,36.37589,-28.40681,-26.90586,1007.718
32.578586102,10.81239,22.39459,23.87679,-0.8850049,0.06353187,0.543775,36.38063,-29.92566,-26.45214,1007.718
32.613234043,17.26259,16.4169,17.62552,-0.8127761,0.0665259,0.6009656,36.01925,-31.04663,-25.10578,1007.719
32.645406246,17.13973,14.4638,14.19345,-0.7975971,0.1134035,0.5843405,36.01925,-31.04663,-25.10578,1007.721
32.680054188,12.10243,12.27395,9.290483,-0.8013422,0.1218254,0.5410649,36.04103,-31.78697,-23.38069,1007.719
32.712226868,8.478039,13.45765,5.122965,-0.7881029,0.1285877,0.5453351,35.66835,-32.53819,-22.92876,1007.719
32.746873856,8.109456,11.20862,3.468216,-0.7754992,0.08686113,0.5554775,36.04629,-32.54355,-22.93069,1007.719
32.779047489,7.986595,9.255516,2.855345,-0.7599092,0.1307648,0.531112,36.04629,-32.54355,-22.93069,1007.719
32.811219692,5.467947,10.97188,1.997327,-0.8572974,0.09904213,0.5717651,35.30723,-33.27803,-21.58426,1007.721
32.845867157,10.50524,8.900406,0.8941607,-0.8526291,0.1297365,0.5898087,36.06285,-33.6699,-21.58627,1007.722
32.878040314,1.35211,10.55759,-1.741181,-0.9021679,0.1519595,0.6073241,36.06285,-33.6699,-21.58627,1007.724
32.912687302,-0.7365243,11.14944,-1.005737,-0.8674386,0.06150911,0.5445584,35.70225,-33.64748,-20.24549,1007.724
32.944859982,11.11955,12.92499,0.03614238,-0.8262255,0.07456325,0.5645254,36.82451,-33.67495,-21.14385,1007.724
32.979507923,15.41967,12.80662,3.774651,-0.8430081,0.0976835,0.5306507,36.82451,-33.67495,-21.14385,1007.726
33.011680603,19.04407,10.4984,8.309891,-0.847205,0.1056197,0.5500352,36.84184,-33.6579,-19.80501,1007.726
33.046328545,23.40563,6.00034,9.842067,-0.8577715,0.147414,0.5499964,37.23737,-33.26508,-18.46996,1007.724
33.078500748,10.44381,1.206354,7.942168,-0.8919926,0.1648989,0.5923939,37.23737,-33.26508,-18.46996,1007.728
33.113148689,-8.599616,-11.34087,4.755243,-0.9140748,0.0918777,0.6132059,36.48727,-33.24865,-18.01982,1007.724
33.145321369,11.18098,-15.36545,-0.2702928,-0.8501908,0.04852056,0.5708004,36.49228,-34.38637,-17.56795,1007.724
33.179968357,36.79745,-18.02877,2.671484,-0.8323719,0.1545633,0.5493364,36.49228,-34.38637,-17.56795,1007.724
33.212141514,32.37447,-13.53071,4.81653,-0.8185709,0.1908879,0.548061,36.10882,-34.00555,-18.01416,1007.724
33.246788979,45.09056,-10.98576,10.45494,-0.7815441,0.1370095,0.5087114,36.11955,-33.995,-17.18535,1007.725
33.278961659,40.23756,-1.101861,12.47741,-0.7920996,0.2348705,0.5409466,36.11955,-33.995,-17.18535,1007.725
33.311134815,33.23449,3.277829,12.10969,-0.807741,0.1711311,0.5106831,36.12976,-34.7467,-16.35283,1007.725
33.345781803,48.77639,10.61677,10.88395,-0.7503821,0.1754767,0.4817457,35.76313,-35.1111,-15.45647,1007.727
33.377954483,45.52057,16.8312,8.984048,-0.7158845,0.2655582,0.4783105,35.76313,-35.1111,-15.45647,1007.727
33.412602425,20.27268,22.39459,9.903354,-0.7691307,0.273026,0.4682649,35.03558,-35.89773,-13.21717,1007.729
33.444774628,22.5456,25.88651,11.74196,-0.7773019,0.2388846,0.4415497,35.0524,-36.64294,-11.8746,1007.727
33.479422569,16.64828,25.05791,12.5387,-0.7801033,0.3023244,0.4840328,35.0524,-36.64294,-11.8746,1007.729
33.511595249,10.93526,21.50681,16.7675,-0.8280751,0.2598731,0.4870225,35.82453,-37.01857,-10.60152,1007.729
33.546242714,11.05812,13.10254,14.62245,-0.8082982,0.2561786,0.4612615,34.69572,-38.14018,-10.14386,1007.727
33.578415871,-2.886589,2.034944,19.03512,-0.8597489,0.3528428,0.5637584,34.69572,-38.14018,-10.14386,1007.727
33.613062859,-0.7979547,-11.87353,22.46719,-0.8914755,0.2698575,0.5450544,34.71331,-37.74199,-8.806877,1007.727
33.645235539,-3.930906,-15.36545,22.65105,-0.8372154,0.3895604,0.5561388,33.95692,-38.49352,-8.799288,1007.727
33.679883480,38.7018,-29.09637,30.98609,-0.8724121,0.2747021,0.4302005,33.57346,-38.11271,-9.245495,1007.727
33.712055683,111.1897,-30.45763,42.7532,-0.7822196,0.248137,0.316352,33.57346,-38.11271,-9.245495,1007.728
33.746703625,147.065,-20.27781,39.87271,-0.7508561,0.4308536,0.3016598,32.4449,-38.85318,-8.789692,1007.728
33.778876305,114.6912,-9.151023,29.82164,-0.7581626,0.4903438,0.3325844,30.98856,-41.06247,-4.37174,1007.728
33.813523293,93.68202,1.739019,21.24145,-0.6833773,0.5003137,0.2259288,30.98856,-41.06247,-4.37174,1007.728
33.845696926,87.35469,11.32699,14.62245,-0.6937651,0.5123267,0.2034708,29.52276,-41.37665,-0.7918987,1007.728
33.877869129,112.1112,10.20248,8.12603,-0.6780704,0.5026867,0.1593829,29.19548,-42.0832,3.166527,1007.724
33.912517071,124.3358,17.00875,1.261883,-0.6454747,0.537734,0.1304477,29.19548,-42.0832,3.166527,1007.726
33.944689751,118.8685,16.53527,-5.847412,-0.65059,0.6114929,0.1248376,28.86954,-42.02667,7.184988,1007.726
33.979336739,70.09275,17.89653,-17.36937,-0.5862288,0.681204,0.1426457,28.93254,-41.58381,12.02846,1007.726
34.011509895,65.60833,9.610626,-20.31115,-0.6105828,0.5493898,0.1538362,28.93254,-41.58381,12.02846,1007.726
34.046157360,95.52494,-4.179482,-23.3755,-0.5901278,0.6696223,0.1488526,29.3404,-40.03622,14.25048,1007.726
34.078330040,46.87204,-12.99805,-39.37141,-0.5316964,0.7262388,0.1641981,29.38079,-38.85384,17.30511,1007.726
34.112977982,-29.3631,-16.78589,-65.60226,-0.5074109,0.5374217,0.2419448,29.38079,-38.85384,17.30511,1007.728
34.145150185,-4.176628,-34.95569,-87.35916,-0.5387007,0.2436636,0.1448611,30.9059,-36.19601,18.17691,1007.726
34.179798126,49.51355,-31.7597,-109.7289,-0.4360511,0.3951506,0.09165018,33.16276,-35.09619,17.26717,1007.728
34.211970806,69.84702,-18.38388,-110.7095,-0.5536587,0.3926478,-0.3719206,33.16276,-35.09619,17.26717,1007.728
34.246617794,33.91022,-5.008072,-56.96079,-1.266978,1.446802,0.3548572,35.79233,-33.18163,15.90517,1007.728
34.278790951,-220.166,4.757455,-62.53791,-1.242463,-0.1843247,-0.294576,38.09195,-28.61182,18.10265,1007.732
34.313438416,26.90716,24.58443,-86.86886,-1.464429,-0.3532617,-0.3782474,38.09195,-28.61182,18.10265,1007.733
34.345611096,-15.97127,15.29239,-61.37346,-1.652438,0.8176005,0.08575704,39.55907,-27.53456,14.58284,1007.731
34.377784252,-62.71981,7.716706,-56.65435,-0.828598,-0.06221106,-0.1166813,41.08234,-26.40208,15.39832,1007.731
34.412431240,12.65531,8.959591,-48.13546,-0.7784766,0.3544686,0.07137399,41.08234,-26.40208,15.39832,1007.731
34.444603920,-35.07613,9.788181,-56.71564,-0.9068564,0.04424929,0.04302247,41.82851,-24.89884,14.55821,1007.733
34.479251862,-2.948019,7.775891,-48.62576,-0.9581574,0.2720968,0.0998455,42.96362,-23.00927,14.5431,1007.733
34.511424065,-16.27842,-1.397786,-60.82187,-1.093275,-0.01140618,0.06984909,42.96362,-23.00927,14.5431,1007.734
34.546072006,-22.54432,1.916574,-52.36427,-1.24674,0.1114838,-0.01735771,43.72548,-21.4906,14.91432,1007.734
34.578244686,-12.22401,-8.914283,-53.34486,-1.276292,-0.08160004,0.1018261,44.47795,-19.21941,14.51676,1007.734
34.612891674,-14.37407,-7.553028,-42.06804,-0.8932121,0.03735637,0.1021243,44.47795,-19.21941,14.51676,1007.736
34.645065308,-4.668071,-1.397786,-37.59409,-0.7827843,-0.000297894,0.1369334,44.47295,-18.0817,14.0649,1007.738
34.679712296,-0.06078974,6.00034,-34.10073,-1.034086,-0.0492516,0.04681281,46.35789,-16.58969,13.6015,1007.74
34.711884976,2.212136,3.337014,-29.44291,-1.064726,-0.05294813,0.1772081,46.35789,-16.58969,13.6015,1007.738
34.746532917,23.09848,1.916574,-27.60431,-0.9405503,0.03238187,-0.07003084,46.36496,-14.67834,14.03848,1007.74
34.778705120,-2.149424,-5.777477,-20.80145,-0.9917854,-0.03420435,0.1371581,46.73815,-13.16486,13.58282,1007.74
34.813353062,18.85978,-0.0957162,-27.72688,-0.8804108,-0.23329,0.07229961,47.1279,-12.77772,14.47159,1007.74
34.845525742,20.08839,0.6736889,-26.50114,-0.9422117,0.06386358,0.2980098,47.1279,-12.77772,14.47159,1007.74
34.880172730,0.2463623,-2.403932,-28.83005,-0.9184464,-0.1707324,0.1035362,47.51208,-10.87255,14.84288,1007.74
34.912346363,-20.57855,3.63294,-40.4133,-0.9983051,-0.1218587,0.1586683,47.5079,-9.734022,14.45477,1007.74
34.944518566,-32.00461,-2.285562,-37.59409,-1.018442,-0.1363466,0.09222078,47.5079,-9.734022,14.45477,1007.74
34.979166031,-8.968199,-3.824372,-36.55221,-1.135009,-0.2676488,0.04740005,47.50842,-8.971756,14.45105,1007.74
35.011339188,-28.93308,-7.848953,-48.07417,-1.069624,-0.3240736,0.07379875,47.51497,-7.82267,14.89174,1007.74
35.045986176,-1.842272,-4.712147,-39.55527,-0.8593624,-0.1782086,0.05327733,47.51497,-7.82267,14.89174,1007.741
35.078158855,-1.53512,-3.528447,-31.95568,-0.9019125,-0.2168066,0.1189081,47.51022,-6.303821,14.43802,1007.743
35.112806797,0.3692232,2.449239,-34.77489,-0.8786662,-0.3529298,0.105519,48.26712,-4.790024,14.42671,1007.743
35.144979477,10.50524,7.894261,-20.49501,-0.8653296,-0.07680587,0.1071889,48.26712,-4.790024,14.42671,1007.739
35.179626942,32.80448,10.26166,-12.89542,-0.9035732,-0.3407719,0.1554976,47.88995,-3.641255,14.42306,1007.743
35.211799622,10.75096,10.73514,-15.59205,-0.8599057,-0.2987025,0.1631489,47.8965,-2.49217,14.86376,1007.743
35.246447086,18.61406,9.255516,-21.16917,-1.023008,-0.4357002,0.04207755,47.8965,-2.49217,14.86376,1007.743
35.278620243,18.06118,8.486111,-27.54302,-1.000437,-0.3114973,0.1127808,47.51934,-1.343401,14.86011,1007.741
35.313267231,17.63117,6.533005,-27.54302,-0.9769707,-0.2772411,0.1012762,48.28094,-0.2058649,15.23319,1007.741
35.345439911,8.723761,-0.4508263,-32.38469,-0.9556121,-0.3649766,0.1302376,48.28094,-0.2058649,15.23319,1007.743
35.380087853,2.703579,-1.812082,-35.75548,-0.8608081,-0.3290208,0.0703635,47.5311,0.1916904,15.68148,1007.741
35.412260532,-5.528097,-1.456972,-28.46232,-0.8194101,-0.2809814,0.09543722,47.14871,2.160564,15.22752,1007.743
35.444432736,7.065138,-6.546883,-32.81371,-0.98075,-0.5159541,0.1735715,47.14871,2.160564,15.22752,1007.744
35.479080677,15.84969,-22.88195,-40.71973,-0.8845774,-0.2063922,-0.03010565,47.14948,3.303964,15.22194,1007.744
35.511253357,-4.238058,-17.25937,-22.21105,-0.8216779,-0.1556057,0.113362,46.38416,5.209811,14.38769,1007.746
35.545900345,-34.15467,-32.41073,-14.8566,-0.9247236,-0.7526705,0.1026533,46.38416,5.209811,14.38769,1007.748
35.578073502,-21.80716,-38.68435,-33.67172,-0.9019933,-0.7143231,0.1176993,47.51875,6.337106,14.37631,1007.748
35.612720966,11.85671,-35.13324,-26.62371,-0.8298342,-0.1782027,0.1990477,47.11744,5.938601,12.59498,1007.748
35.644893646,-41.64918,-40.57827,-13.20185,-0.7742542,-0.6174195,0.1148962,47.11744,5.938601,12.59498,1007.748
35.679541111,-10.93397,-36.61287,-26.56243,-0.9764329,-0.9056886,0.1789942,47.10139,7.827215,11.24683,1007.748
35.711713791,27.70576,-30.75356,-9.708494,-0.7509497,-0.1961963,0.2453992,47.462,7.804791,9.906059,1007.75
35.746361733,4.485061,-26.37386,-8.298892,-0.7557858,-0.9458489,0.1486483,47.462,7.804791,9.906059,1007.75
35.778534413,54.12083,-18.91655,-8.789188,-0.8124962,-0.5367115,0.1708664,47.44017,9.687719,8.111633,1007.75
35.813181400,40.66757,-10.63065,-3.457218,-0.7107573,-0.4167043,0.3150242,47.81315,9.677479,7.727173,1007.751
35.845354557,40.66757,-16.96345,7.69702,-0.7008945,-0.5054864,0.1377885,47.80186,10.04724,6.83275,1007.751
35.880002022,49.75927,-11.28168,14.25473,-0.845547,-0.499378,0.4592362,47.80186,10.04724,6.83275,1007.747
35.912174702,7.802303,-29.80659,10.6388,-0.7677696,-0.4293643,0.2730359,48.16824,10.0305,5.938253,1007.747
35.946822166,0.9220968,-33.77199,12.78384,-0.9247653,-0.5328714,0.2818415,47.77271,9.637684,4.603209,1007.747
35.978994846,11.4267,-34.65976,14.68374,-0.8548594,-0.3518054,0.2667759,47.77271,9.637684,4.603209,1007.747
36.011167526,11.91814,-30.1617,23.14135,-0.9531808,-0.5734897,0.3463597,48.511,9.22876,3.26236,1007.747
36.045815468,43.30908,-31.99644,31.16995,-0.9239911,-0.3851998,0.3606536,49.25481,8.444386,2.369652,1007.747
36.077987671,42.9405,-24.6575,21.05759,-1.154839,-0.57252,0.2161815,49.25481,8.444386,2.369652,1007.747
36.112635136,85.02034,-21.04721,-8.97305,-1.431573,-0.3489285,0.3941269,49.23175,7.279057,0.6538658,1007.749
36.144808292,31.14586,-39.80886,-35.32647,-1.672449,0.07753952,0.1531066,49.5808,7.245265,-1.579472,1007.745
36.179455280,-13.39119,-74.60965,-76.2662,-1.421867,-0.267078,-0.0005285135,49.5808,7.245265,-1.579472,1007.745
36.211627960,-11.85543,-112.1921,-106.0517,-1.514261,-0.1288043,0.4362371,49.18604,7.995845,-2.920101,1007.745
36.246275902,-117.9457,-119.2352,-100.8423,-1.322894,0.1962378,0.2872293,48.01491,11.40317,-5.991256,1007.745
36.278448582,-178.7619,-91.06309,-61.92504,-0.9980032,0.02207318,0.06682611,48.01491,11.40317,-5.991256,1007.745
36.313096523,-149.1524,-66.38293,27.6153,-0.5645645,-0.1902662,0.06440514,45.35561,16.75956,-7.342611,1007.745
36.345268726,-187.3007,-42.8273,119.4845,-0.3268345,-0.2484379,0.1012313,42.33466,20.61385,-7.345748,1007.747
36.379916191,-270.1089,-24.42076,193.2741,-0.2676592,-0.6864668,-0.07837985,42.33466,20.61385,-7.345748,1007.747
36.412089348,-279.5077,-26.55142,206.9411,-0.4638667,-1.164478,-0.2573836,41.99005,19.89024,-4.726163,1007.745
36.446736336,-140.6136,-34.48221,211.599,-0.1125118,-1.47262,-0.3996083,44.28901,14.93741,-2.035892,1007.743
36.478909016,-61.49121,-24.77587,169.7399,-0.1922724,-1.471197,-0.07735866,44.28901,14.93741,-2.035892,1007.742
36.511082173,-108.6083,13.63521,119.5458,0.3376232,-0.8459944,0.01780498,46.17382,7.66903,-2.010207,1007.74
36.545729637,-119.1129,36.06633,158.8921,-0.02518121,-0.5698054,-0.02569671,45.79121,0.7504728,-1.97447,1007.736
36.577901840,-46.1336,30.97641,160.1791,-0.5050796,-1.140671,0.2859286,45.79121,0.7504728,-1.97447,1007.736
36.612549782,82.87027,16.59446,103.2435,-1.087985,-1.453434,1.39787,46.1834,-3.811443,-0.6152325,1007.738
36.644722462,-87.47626,-27.7943,2.54891,-1.347406,-1.132775,0.4524313,45.4347,-10.26861,0.3128281,1007.738
