Time (s),Gyroscope X (deg/s),Gyroscope Y (deg/s),Gyroscope Z (deg/s),Accelerometer X (g),Accelerometer Y (g),Accelerometer Z (g),Magnetometer X (uT),Magnetometer Y (uT),Magnetometer Z (uT),Barometer (hPa)
0.000000000,-3.064445,6.512151,-6.084237,-0.3482089,0.7454624,0.5692338,17.9145,-2.463387,-14.42626,1006.709
0.032776356,-3.809894,5.507576,-4.495923,-0.3632444,0.7405536,0.5817922,17.9145,-2.463387,-14.42626,1006.707
0.065552712,6.191551,0.9574391,-2.724341,-0.3700701,0.7506709,0.5740914,18.64338,-2.459188,-13.99208,1006.707
0.098328590,10.47788,-3.060863,-0.5251366,-0.3608598,0.7489888,0.5312309,18.64265,-2.465132,-14.4272,1006.711
0.133625984,12.15515,-4.065439,0.4522877,-0.3478544,0.7939281,0.5345019,18.64265,-2.465132,-14.4272,1006.71
0.166402817,6.750638,-3.00177,1.307534,-0.3376862,0.8041704,0.5243537,18.6284,-1.742202,-14.87377,1006.71
0.199179173,2.340063,-1.819917,1.124267,-0.3211514,0.7930897,0.5219244,18.64265,-2.465132,-14.4272,1006.71
0.231955051,4.390049,-0.697156,1.612979,-0.3274294,0.7764012,0.5108931,18.64265,-2.465132,-14.4272,1006.71
0.267252445,-0.5796135,1.548366,0.6355547,-0.319667,0.782928,0.529638,18.27858,-2.46426,-14.42673,1006.71
0.300033569,3.271874,2.434756,1.002089,-0.3056082,0.7922889,0.5281464,18.28534,-2.828697,-14.421,1006.71
0.332805634,-0.4553719,3.61661,0.1468426,-0.3152777,0.7772038,0.5416702,18.28534,-2.828697,-14.421,1006.71
0.365581989,-0.5796135,4.503,0.3301096,-0.3351847,0.7770578,0.5446059,18.27182,-2.099823,-14.43246,1006.71
0.398358345,-4.617464,7.280356,0.8799108,-0.340473,0.7566251,0.5542764,17.91522,-2.457443,-13.99114,1006.711
0.433655262,-5.300792,9.998619,-0.2196915,-0.34783,0.7867332,0.5503976,17.91522,-2.457443,-13.99114,1006.711
0.466431618,-9.587127,11.65321,0.8799108,-0.3556363,0.8042716,0.5604982,18.27327,-2.087935,-13.56223,1006.711
0.499207974,-7.971986,10.1759,0.7577327,-0.3472786,0.7549332,0.5292643,18.2793,-2.458316,-13.99161,1006.711
0.531984806,-5.362913,9.880434,-0.8916707,-0.3609199,0.7748213,0.5340803,18.2793,-2.458316,-13.99161,1006.713
0.567281723,-5.425034,7.694005,0.3301096,-0.364851,0.796285,0.5436845,18.28679,-2.816809,-13.55077,1006.713
0.600058079,-1.697788,4.384815,-0.4640476,-0.3599236,0.760068,0.5124389,18.99539,-1.7193,-13.13379,1006.713
0.632834435,1.159768,1.252903,-1.319294,-0.3667685,0.7820078,0.5239747,18.63131,-1.718427,-13.13332,1006.715
0.665610790,-0.8902174,-0.4016926,-0.4640476,-0.3628731,0.7776636,0.5249347,18.63131,-1.718427,-13.13332,1006.713
0.698387146,-1.014459,-1.819917,-0.5251366,-0.3599753,0.7835055,0.5210682,18.63807,-2.082864,-13.12759,1006.713
0.733684540,-10.82954,-1.406268,0.4522877,-0.3634265,0.818021,0.5860082,18.99466,-1.725244,-13.5689,1006.719
0.766460895,-32.01273,-0.697156,2.223869,-0.3755855,0.8282176,0.5961303,18.99466,-1.725244,-13.5689,1006.719
0.799237251,-56.42619,0.6619757,4.05654,-0.371802,0.8822347,0.6552474,19.00215,-2.083737,-13.12806,1006.721
0.832013607,-72.14275,-23.62512,21.28364,-0.5543916,0.9092554,0.7682784,18.62986,-1.730315,-14.00354,1006.721
0.867311478,-92.39412,-13.93392,37.41114,-0.452806,0.8692656,0.7786877,18.62986,-1.730315,-14.00354,1006.721
0.900087357,-93.20169,-11.39293,39.24381,-0.4362363,0.6041552,0.5956491,19.3498,-1.37951,-14.88044,1006.717
0.932863712,-117.1803,-0.9926193,34.53996,-0.3241647,0.871318,0.7090634,18.99789,-2.118551,-15.67657,1006.719
0.965640068,-183.5874,15.96698,38.99946,-0.382124,0.5392632,0.7241421,18.99789,-2.118551,-15.67657,1006.719
0.998416424,-150.9119,18.86252,28.06452,-0.3532451,0.2041759,0.5488816,19.73739,-2.867002,-16.97139,1006.719
1.033714294,-187.6874,45.74969,29.04195,-0.3995753,0.5375543,0.7795427,20.07089,-1.438996,-19.10818,1006.713
1.066490173,-173.8345,44.74512,27.69799,-0.4690337,0.1477106,0.8327634,20.07089,-1.438996,-19.10818,1006.717
1.099266529,-91.95927,16.32154,25.43769,-0.3351468,0.2559115,1.103289,20.04385,0.01875162,-19.1311,1006.717
1.132042885,-69.28519,-3.474512,17.80157,-0.355027,0.2359797,1.062451,21.10831,1.467937,-19.59054,1006.717
1.167340756,-34.87028,-19.96137,18.7179,-0.1849419,0.1667904,0.9937984,21.10831,1.467937,-19.59054,1006.717
1.200117111,24.08233,-26.87521,16.39652,-0.1713746,0.1442258,0.8142523,21.45814,2.189995,-20.03758,1006.717
1.232892513,2.837029,-5.720034,2.468225,-0.07265649,0.2579652,0.6626992,21.09937,1.814543,-20.9016,1006.717
1.265669346,3.520358,16.14426,-3.640676,-0.02356209,0.2460565,0.712181,21.09937,1.814543,-20.9016,1006.716
1.298445702,27.49898,24.12177,-14.20908,0.07150767,0.06342815,0.599592,20.75339,0.7042727,-22.18928,1006.716
1.333743095,16.8142,36.41305,-36.56765,-0.04672366,-0.01703585,0.7270733,21.11071,1.067837,-22.19548,1006.714
1.366519928,50.85639,21.81716,-42.49329,-0.1283917,0.2424787,0.8140023,21.11071,1.067837,-22.19548,1006.708
1.399296284,172.551,15.90789,-27.28213,-0.1505723,0.1310641,0.5773928,21.11216,1.079725,-21.32525,1006.708
1.432071686,280.5169,6.630337,-44.81467,-0.174384,0.09924702,0.3729185,21.8425,1.095811,-20.02086,1006.708
1.464848518,334.9347,-13.10662,-38.21706,-0.4608868,0.9613036,0.5763962,21.8425,1.095811,-20.02086,1006.708
1.500145912,109.1878,-15.88398,-36.56765,-0.4336077,1.195249,0.9177457,21.15771,-1.066139,-18.30725,1006.706
1.532922268,64.83356,-28.76618,-11.94878,-0.5805259,0.8805866,0.8092993,20.49404,-4.314607,-16.07919,1006.706
1.565699101,87.63189,-49.03497,4.117629,-0.5870978,0.9906321,0.8134813,20.49404,-4.314607,-16.07919,1006.706
1.598474503,121.2392,-73.14478,6.133566,-0.4204508,0.7379621,0.7682188,18.68177,-4.663642,-15.26304,1006.708
1.633772373,12.40363,-50.45319,-1.258205,-0.3585768,0.8452482,0.7135165,18.68114,-4.668737,-15.63599,1006.708
1.666548729,5.756706,-32.90267,5.27832,-0.2170043,0.6900494,0.4972832,17.60025,-5.412825,-16.92846,1006.708
1.699325085,-6.915933,-17.77494,12.18138,-0.173422,0.9794995,0.6762915,17.60025,-5.412825,-16.92846,1006.71
1.732101917,-62.07918,2.552942,24.58245,-0.1507339,0.826075,0.6480686,17.60025,-5.412825,-16.92846,1006.714
1.764877319,15.19906,4.089351,3.812184,-0.4648454,0.541891,0.3609062,17.22193,-4.689022,-17.37456,1006.714
1.800175190,27.49898,-2.883585,-4.312656,-0.3051663,1.056288,0.7409908,17.22193,-4.689022,-17.37456,1006.716
1.832951546,-35.49149,14.84422,-13.29274,-0.4347497,0.593523,0.6057702,16.85036,-4.329656,-17.81493,1006.716
1.865727901,1.967338,-8.26102,-9.321955,-0.5504957,0.7074289,0.8061196,17.94259,-4.332274,-17.81634,1006.716
1.898504257,-28.40972,-7.197351,-3.274142,-0.3034179,0.9436744,0.7936248,17.94259,-4.332274,-17.81634,1006.714
1.933801651,-32.69605,-1.288083,-8.772154,-0.3697665,0.6256021,0.5882387,17.94259,-4.332274,-17.81634,1006.712
1.966578007,13.33544,-1.406268,10.4098,-0.374018,0.7961212,0.6712673,17.93438,-3.979725,-18.6923,1006.718
1.999354362,21.16266,5.921225,22.19998,-0.2733613,0.7138454,0.5551444,17.93438,-3.979725,-18.6923,1006.718
2.032130718,8.055174,12.00777,22.68869,-0.2465863,0.6873622,0.5666735,18.28639,-3.239836,-17.834,1006.716
2.064907074,14.57786,7.043985,25.13225,-0.2742017,0.6754745,0.641368,17.95684,-5.055204,-17.36977,1006.715
2.100204468,-9.525005,-0.519878,17.00741,-0.2370982,0.7986177,0.6555353,17.95684,-5.055204,-17.36977,1006.715
2.132980824,-57.358,6.216688,9.065839,-0.1927659,0.7163991,0.5453222,17.96215,-5.431529,-18.23426,1006.715
2.165757179,-26.11125,4.503,4.911786,-0.1953987,0.6035755,0.5729361,17.6116,-6.159531,-18.22233,1006.713
2.198533535,-7.226536,-0.8744341,0.5744657,-0.2082506,0.7221609,0.6921656,17.6116,-6.159531,-18.22233,1006.713
2.233831406,-1.014459,-1.465361,0.8188218,-0.240024,0.5903008,0.6086828,18.33903,-6.16722,-18.65839,1006.711
2.266607285,13.08696,-6.310961,2.895848,-0.1906956,0.8820672,0.6235296,17.6116,-6.159531,-18.22233,1006.711
2.299383640,-22.50825,0.3074196,6.805545,-0.2021312,0.7934483,0.6405379,17.6116,-6.159531,-18.22233,1006.713
2.332159996,-39.59146,2.73022,5.828121,-0.1866681,0.637851,0.7288249,17.97505,-6.165498,-18.59575,1006.711
2.364936352,19.17479,-0.697156,10.59306,-0.2034053,0.6861695,0.4832973,17.25293,-6.534133,-19.0242,1006.711
2.400234223,-29.03093,14.60785,10.4098,-0.2074116,0.7776867,0.6915985,17.25293,-6.534133,-19.0242,1006.713
2.433009625,-8.531074,0.425605,17.37395,-0.3052964,0.717868,0.8218885,17.61098,-6.164625,-18.59529,1006.711
2.465786457,-28.65821,-3.238141,15.54128,-0.2405704,0.8206778,0.6102622,17.96891,-5.795966,-18.22853,1006.713
2.498562813,-109.4773,14.37148,8.516038,-0.1974647,0.7046772,0.8264663,17.96891,-5.795966,-18.22853,1006.713
2.533860207,-85.18811,-6.783702,9.676729,-0.2625389,0.5176311,0.9015136,17.96008,-5.448512,-19.47744,1006.711
2.566637039,-141.7801,-0.9926193,6.255744,-0.1748321,0.7796989,0.8017501,18.30918,-4.732398,-20.35959,1006.711
2.599412441,-106.0607,-5.129107,30.75244,-0.2673533,0.7086563,0.922417,18.30918,-4.732398,-20.35959,1006.709
2.632188797,-46.79747,-22.20689,75.10307,-0.1737124,0.7385928,0.9125226,18.63196,-2.552592,-20.82956,1006.709
2.664965630,-28.47184,-22.38417,119.5759,-0.06076095,0.8144184,0.8948113,18.23262,-0.7414222,-21.72796,1006.709
2.700263023,3.147633,-3.119956,158.6118,0.01938232,0.7619218,0.673274,18.23731,-1.122842,-22.9654,1006.709
2.733039379,28.30655,34.69936,182.0699,0.006185283,0.5755917,0.5787578,18.23731,-1.122842,-22.9654,1006.709
2.765815258,109.6848,55.14543,187.8123,0.01646147,0.3218397,0.4958404,18.26821,-2.968802,-24.6772,1006.709
2.798591614,181.8691,65.60484,171.807,-0.02435132,0.3337353,0.5045837,18.33655,-6.607229,-24.18479,1006.709
2.833889484,193.9205,94.67844,117.0101,0.1271712,0.2964972,0.3603533,18.33655,-6.607229,-24.18479,1006.709
2.866665840,156.0269,108.6834,68.99417,-0.04134499,0.5326174,0.4792935,18.45011,-12.46415,-21.54364,1006.709
2.899442196,243.2444,91.42834,57.87597,-0.07602212,0.6291895,0.5408444,19.27863,-17.52131,-18.04563,1006.709
2.932218552,392.5828,57.50914,32.34076,-0.1489621,0.8284671,0.2894463,19.27863,-17.52131,-18.04563,1006.708
2.964994431,364.442,31.62654,3.751095,-0.1905342,1.136105,0.1745171,21.17772,-21.14926,-12.02248,1006.706
3.000292301,154.9087,35.29029,-44.38705,-0.1555598,1.372997,0.3699914,22.70921,-24.31551,-3.394869,1006.706
3.033068657,-170.1072,48.64523,-96.49598,-0.7256692,1.423489,0.542151,22.70921,-24.31551,-3.394869,1006.704
3.065845013,-14.12194,-5.660941,-52.14536,-0.2885959,0.9740269,0.4479261,25.36253,-26.47951,-1.250457,1006.704
3.098621368,48.12308,-20.43411,-14.45343,-0.3387354,1.120621,-0.1230709,27.86843,-24.31598,-2.531303,1006.704
3.133918762,16.56572,0.6619757,4.423073,-0.1688319,1.154671,-0.05324642,27.86843,-24.31598,-2.531303,1006.707
3.166695118,-27.35367,7.339449,-2.17454,-0.1391747,0.9539787,0.0466276,28.94037,-23.22529,-2.549902,1006.707
3.199471474,-37.41723,1.607459,-11.09354,-0.1291963,1.052681,0.08063186,28.56954,-22.85998,-2.555163,1006.705
3.232247829,-35.61573,-5.779127,-10.66591,-0.1053047,1.015025,0.09988641,28.56954,-22.85998,-2.555163,1006.707
3.265024185,-24.49611,-7.847371,-8.283442,-0.09249853,0.9411896,0.1124827,28.56881,-22.86592,-2.990274,1006.707
3.300321579,3.271874,-6.547331,-3.274142,-0.1147959,0.9279707,0.1294032,29.65428,-22.5041,-2.997414,1006.708
3.333097935,15.26118,-6.015497,-1.624739,-0.1182573,0.953738,0.1269658,29.65428,-22.5041,-2.997414,1006.708
3.365874291,17.31117,-4.774551,-1.930184,-0.1125698,1.00515,0.08932856,28.91718,-22.15575,-4.307539,1006.71
3.398650646,5.383981,-1.22899,-4.251567,-0.1164873,1.014704,0.06718082,28.91864,-22.14387,-3.437315,1006.71
3.433948517,-5.984121,1.489273,-5.717703,-0.1547592,0.9869687,0.1168936,28.91864,-22.14387,-3.437315,1006.71
3.466723919,22.83992,3.262054,-4.373745,-0.1450484,0.979463,0.07644755,28.55456,-22.14299,-3.436846,1006.71
3.499500752,37.37618,-4.715458,8.638216,-0.146627,1.087165,0.3679942,29.64607,-22.15156,-3.873367,1006.71
3.532277107,50.85639,-48.50314,30.87462,-0.005836165,1.15162,0.642902,29.64607,-22.15156,-3.873367,1006.71
3.565053463,-86.61689,-79.4677,91.71928,0.09492317,2.089724,0.740891,29.27741,-21.76841,-2.573292,1006.708
3.600351334,-402.1283,-52.40325,61.11368,-0.3682788,1.191794,0.4121661,28.56808,-22.87187,-3.425386,1006.708
3.633126736,-63.07311,-134.483,48.83479,-0.129068,0.2061357,0.2109124,25.3145,-24.77366,-9.794865,1006.708
3.665903568,97.75758,-155.8745,81.88395,0.08080303,1.219221,0.3845848,25.3145,-24.77366,-9.794865,1006.707
3.698679924,24.14445,-130.1101,99.66086,0.1133725,1.172577,0.2213962,21.97349,-24.79538,-11.96612,1006.707
3.733977318,-4.803826,-129.6965,106.8694,0.04374066,1.058835,0.2674621,18.02949,-28.06571,-11.90938,1006.707
3.766754150,0.1037151,-129.3419,112.0008,0.09096184,0.9641317,0.03932739,18.02949,-28.06571,-11.90938,1006.705
3.799530506,11.59606,-119.1189,112.1841,0.1732089,0.8828652,0.02048169,13.34432,-30.67126,-12.23516,1006.705
3.832305908,-5.487155,-106.6503,103.7538,0.2257091,0.8604828,0.0304995,7.492207,-32.47934,-12.19891,1006.705
3.865082741,-30.95667,-92.64536,91.23057,0.268875,0.6565123,-0.0771205,7.492207,-32.47934,-12.19891,1006.703
3.900380135,-13.6871,-80.70864,74.79762,0.414633,0.6116157,-0.1250534,2.780211,-33.55536,-11.7405,1006.701
3.933156490,-7.164416,-60.43986,58.73121,0.4737994,0.6342052,-0.169513,-1.280011,-33.92194,-12.59975,1006.7
3.965933323,-0.2690096,-36.56641,43.70331,0.5637211,0.5853699,-0.2264534,-1.280011,-33.92194,-12.59975,1006.7
3.998708725,1.28401,-9.856523,27.39254,0.5821705,0.6067055,-0.1220738,-4.557435,-33.92003,-13.03063,1006.702
4.031485081,-56.55043,8.580395,10.16544,0.5346116,0.6567439,0.1971064,-6.753968,-33.17403,-12.16905,1006.696
4.066782951,-56.61255,6.275781,2.346047,0.5424711,0.635999,0.286171,-6.753968,-33.17403,-12.16905,1006.696
4.099559307,-44.1884,7.871283,-1.808006,0.5563192,0.7486482,0.360098,-7.121679,-33.20288,-14.34414,1006.694
4.132335663,-29.65214,5.980317,-4.251567,0.596662,0.7258799,0.3292295,-7.124482,-33.22581,-16.02242,1006.694
4.165111542,-13.56286,3.498424,-3.701766,0.6275546,0.598007,0.3235726,-7.124482,-33.22581,-16.02242,1006.694
4.200409412,12.65211,-3.356327,-7.306018,0.6569171,0.7008124,0.293985,-6.77538,-32.50969,-16.90458,1006.691
4.233185768,1.221889,-1.169897,-12.9873,0.6792421,0.6851645,0.188056,-7.146946,-32.15033,-17.34495,1006.693
4.265962124,2.712788,-4.006346,-13.72036,0.6749727,0.6371984,0.1592567,-7.146946,-32.15033,-17.34495,1006.689
4.298738480,9.483952,-5.424571,-10.48265,0.6865801,0.8562876,0.1338682,-7.146219,-32.14439,-16.90984,1006.689
4.331515312,7.433967,0.780161,-7.733641,0.7260386,0.7742511,-0.01436116,-7.136551,-32.48505,-15.16366,1006.688
4.366812229,33.02773,5.212112,0.2079316,0.7192801,0.7273257,-0.170717,-7.136551,-32.48505,-15.16366,1006.688
4.399588585,85.02282,8.639487,6.622278,0.7306025,0.8318489,-0.3518934,-6.039011,-32.86399,-16.02956,1006.688
4.432364941,65.45477,20.45802,3.201293,0.720867,0.8056238,-0.5395618,-6.036208,-32.84106,-14.35127,1006.688
4.465141296,114.965,55.73635,11.08178,0.7430519,0.5256206,-1.260272,-6.036208,-32.84106,-14.35127,1006.684
4.500438690,152.1133,240.2237,-9.138688,0.7422578,0.9581869,-1.809193,-6.377095,-33.90973,-12.59317,1006.684
4.533215046,94.65154,489.8903,-25.63272,0.30577,0.8834412,-1.036904,-6.345067,-35.32672,-9.586625,1006.686
4.565991402,-160.3542,268.0563,125.6848,1.129675,2.392441,1.215973,-6.345067,-35.32672,-9.586625,1006.683
4.598767758,-34.00059,-43.71663,-59.23168,-1.00757,0.1391111,2.835556,-4.482036,-37.50072,-8.311419,1006.683
4.631544113,59.80178,-45.84396,17.92375,0.5693994,0.2426676,-0.20814,-2.286126,-38.25181,-9.545954,1006.683
4.666841984,99.86968,74.35056,-19.40164,0.973613,1.277374,0.3198025,-2.649476,-38.245,-9.110373,1006.683
4.699617863,-52.45046,62.11837,-42.982,0.2387513,0.5645732,0.4655842,-2.649476,-38.245,-9.110373,1006.681
4.732394218,29.48684,30.97652,-41.27151,0.4801819,0.7278099,0.466691,-1.542372,-38.96545,-8.292257,1006.681
4.765170574,2.340063,30.85834,-46.40299,0.24165,0.9886467,0.5121116,0.2638694,-38.24603,-8.67902,1006.681
4.800468445,-61.02313,8.875858,-60.14801,0.06522219,1.092165,0.6924033,0.2638694,-38.24603,-8.67902,1006.681
4.833244801,-85.12599,-27.8207,-59.47604,0.06475244,1.066139,0.5923205,2.879748,-38.61757,-8.738816,1006.681
4.866020679,-74.3791,-47.55765,-68.33394,-0.007185011,0.8199145,0.2198068,4.305483,-37.19218,-10.87702,1006.681
4.898797035,-107.4273,-47.55765,-72.61017,0.07654155,0.9743973,0.4124015,4.305483,-37.19218,-10.87702,1006.68
4.931573391,-121.2803,-51.10321,-85.98866,-0.02408914,0.8217028,0.4273111,6.815235,-35.41687,-13.89258,1006.681
4.966871262,-104.3834,-56.77611,-103.1547,0.0253303,0.6416157,0.3148267,8.960911,-33.64067,-16.90767,1006.683
4.999647617,-134.0772,-43.30298,-131.4389,0.1008343,0.767233,0.428541,8.960911,-33.64067,-16.90767,1006.683
5.032423973,-132.1514,-29.59348,-150.8041,0.1040941,0.6282087,0.4634009,10.3435,-29.97981,-19.95143,1006.683
5.065199852,-58.16557,-27.7616,-171.2079,0.08797495,0.6695192,0.4701159,13.23213,-25.64257,-22.13742,1006.683
5.100497246,-71.77002,-27.70251,-177.3168,0.0739075,1.108552,0.6572186,13.23213,-25.64257,-22.13742,1006.685
5.133273602,-90.8411,-20.25683,-169.8028,0.1148346,0.825183,0.5506863,15.32797,-20.91607,-22.64985,1006.685
5.166050434,-60.58828,-19.60681,-161.2503,0.1341095,0.8917313,0.5722016,16.69599,-16.11519,-22.29206,1006.685
5.198826790,-51.76713,-11.15656,-143.168,0.1334717,0.773689,0.6874265,16.69599,-16.11519,-22.29206,1006.685
5.231602192,48.37156,-27.22977,-115.4336,0.07749192,0.8220578,0.636462,17.70636,-11.75051,-22.79734,1006.685
5.266900063,63.28055,-30.59805,-92.34193,0.1163145,1.049319,0.7029368,17.64696,-8.458689,-21.97869,1006.684
5.299676418,67.629,-14.82031,-61.49197,0.1469573,0.7948046,0.5559509,17.64696,-8.458689,-21.97869,1006.684
5.332452774,143.1679,-16.00216,-46.40299,0.03847223,0.6467679,0.409616,17.28361,-8.451872,-21.5431,1006.682
5.365229607,141.18,-8.26102,-32.78014,0.03091727,0.978358,0.4765248,16.92161,-8.434017,-20.29946,1006.682
5.400526524,82.47587,5.448483,-21.96738,-0.0963866,1.009303,0.4570443,16.92161,-8.434017,-20.29946,1006.68
5.433302879,22.46719,15.37605,-17.93551,-0.1212946,1.061901,0.4165897,16.59414,-10.2324,-18.59205,1006.684
5.466079235,-13.9977,10.35318,-3.090875,-0.2198683,1.093357,0.5761068,15.86889,-10.20688,-16.85066,1006.685
5.498855591,17.06269,2.96659,6.866634,-0.2961058,0.8865904,0.560233,15.86889,-10.20688,-16.85066,1006.685
5.531631947,44.8928,-12.39751,13.95296,-0.374811,0.9246621,0.6667432,16.59101,-9.838246,-16.42222,1006.685
5.566929817,-35.18089,-12.22023,16.33543,-0.2471648,1.168276,0.7368335,15.85682,-9.466121,-15.9919,1006.687
5.599705696,-31.9506,-11.80658,22.44433,-0.3403302,0.7219895,0.6862214,16.20061,-8.373682,-16.00956,1006.685
5.632482052,39.79889,-29.23892,30.14155,-0.2240236,0.8476744,0.830646,16.20061,-8.373682,-16.00956,1006.685
5.665258408,-13.31437,-15.47033,34.66214,-0.2686504,1.197527,0.6266086,15.83508,-8.384697,-16.87931,1006.687
5.700556278,-51.08381,6.275781,48.40717,-0.1967802,0.9997234,0.6710215,15.10475,-8.400784,-18.18371,1006.687
5.733332634,-56.36407,2.789312,54.63824,-0.1626948,0.5873321,0.8592932,15.10475,-8.400784,-18.18371,1006.687
5.766108513,14.32937,-4.242717,62.64091,-0.2803278,0.7788394,0.5247372,15.85184,-9.506878,-18.97552,1006.685
5.798884869,-22.44613,15.49424,60.74715,-0.1124441,0.859143,0.6647756,15.86391,-10.24764,-19.83429,1006.687
5.831661224,-38.47329,11.47594,58.12032,-0.1119156,0.8163756,0.5372779,15.86391,-10.24764,-19.83429,1006.689
5.866959095,-211.9145,29.79467,47.18539,-0.07428066,1.199365,0.9375858,14.8033,-12.08504,-21.10956,1006.689
5.899735451,-252.1688,-9.38378,52.56122,-0.1768572,0.6147407,0.8255902,14.45067,-12.83002,-22.34081,1006.689
5.932511806,-76.24272,-30.89352,36.67807,0.08830398,0.7867967,0.7356501,14.45067,-12.83002,-22.34081,1006.689
5.965287685,-149.2346,-25.16153,40.95431,0.1102166,0.3444762,0.6967931,14.74142,-9.233227,-25.81731,1006.691
6.000585556,-78.78967,-32.6663,36.12827,0.06896207,0.3540248,0.7888166,15.08762,-8.54089,-28.43991,1006.691
6.033361912,-38.90813,-38.98921,33.92907,0.1741073,0.2685927,0.9138501,15.08762,-8.54089,-28.43991,1006.689
6.066138268,-30.52183,-42.00294,34.35669,0.2077191,0.4448119,1.000631,13.97045,-7.413091,-30.57005,1006.689
6.098914623,-26.98094,-44.30756,40.09906,0.2072322,0.4351893,0.9481784,11.33887,-6.330509,-31.82704,1006.689
6.131690979,-4.928068,-44.13028,42.17609,0.280592,0.381853,0.7540961,11.33887,-6.330509,-31.82704,1006.689
6.166987896,-87.79718,-27.22977,48.04063,0.2842324,0.2836225,0.7715645,10.6025,-5.976214,-32.70206,1006.687
6.199764729,2.89915,-21.61596,49.26241,0.3496783,0.07895774,0.5372945,9.171052,-7.448303,-33.98259,1006.685
6.232541084,-3.623532,24.94907,39.61035,0.494621,0.3228607,0.2078131,9.171052,-7.448303,-33.98259,1006.685
6.265317440,1.967338,79.43253,25.13225,0.2152639,0.3570307,1.11531,7.692383,-6.368484,-35.24108,1006.685
6.300615311,31.22622,54.73178,39.18272,0.2339148,0.168845,0.5754612,9.162941,-7.094905,-34.79639,1006.684
6.333390713,34.70499,48.70433,51.46162,0.2701626,0.5074478,0.8978586,9.162941,-7.094905,-34.79639,1006.686
6.366167545,123.2892,63.35931,64.59576,0.0414583,0.496922,0.8497995,9.885684,-6.721175,-33.995,1006.684
6.398943901,55.32909,68.91402,60.13626,-0.002134459,0.6588685,0.8679505,11.74849,-8.966955,-33.5269,1006.684
6.431720257,-18.15979,70.39134,50.60637,0.01745574,0.3808138,0.8509941,11.74849,-8.966955,-33.5269,1006.684
6.467018128,-39.03237,51.54078,33.50145,0.02451505,0.1298927,1.179163,12.60785,-12.58944,-31.73017,1006.68
6.499793530,-13.6871,23.94449,8.882572,-0.01341932,-0.08451682,0.9985839,14.79834,-12.96506,-32.16237,1006.68
6.532569885,10.41576,3.439332,-9.993934,0.1132823,0.1398037,1.026827,14.79834,-12.96506,-32.16237,1006.68
6.565346718,-14.74315,9.762248,-3.090875,0.1271963,0.4085395,0.9941378,16.25611,-12.95666,-31.29402,1006.682
6.600644112,11.90666,16.617,1.002089,0.0724751,0.539188,0.93727,16.26277,-13.32195,-31.35045,1006.68
6.666197300,8.179416,36.29486,15.17474,-0.05787936,0.4027982,0.8111866,16.99165,-13.31775,-30.91628,1006.684
6.698972702,5.259739,37.654,15.4191,-0.09560901,0.5461658,0.8120227,17.73332,-14.04837,-30.90576,1006.683
6.731749058,12.77635,37.47672,18.1681,-0.07439069,0.4162689,0.877152,18.09209,-13.67291,-30.04174,1006.683
6.767046928,28.80351,37.06307,21.16146,-0.07684701,0.422369,0.8468229,18.09209,-13.67291,-30.04174,1006.683
6.799823284,3.147633,39.13131,16.39652,-0.09627267,0.4196346,0.8271372,19.19857,-14.39846,-29.59657,1006.683
6.832599640,-18.59464,31.21289,10.89851,-0.09644929,0.3133384,0.9500451,19.2278,-15.83838,-28.26832,1006.681
6.865376472,13.45968,16.20335,-1.869095,-0.1066119,0.3057087,0.9857015,19.2278,-15.83838,-28.26832,1006.681
6.898151875,-22.01128,4.384815,-14.02581,-0.08450748,0.3952133,0.9431543,21.0563,-16.19614,-27.45688,1006.681
6.933449745,22.34295,-4.30181,-16.59155,-0.1581616,0.3111032,0.8428511,21.06161,-16.57247,-28.32137,1006.679
6.966226101,-2.69172,-9.679244,-14.51452,-0.03105008,0.5514175,0.7892377,21.06161,-16.57247,-28.32137,1006.679
6.999002457,-35.67785,-0.9335268,-5.412258,-0.0441133,0.3606209,0.9628465,21.41227,-15.84361,-28.27114,1006.677
7.031778812,7.496088,-6.606424,-2.968697,-0.07476325,0.3766132,0.9181284,21.40478,-15.48512,-28.71198,1006.677
7.099852562,-15.24012,4.266629,6.805545,-0.07833574,0.2364895,0.8731,21.41154,-15.84956,-28.70625,1006.676
7.132628918,-2.256875,24.59451,13.46425,-0.08152871,0.5740507,0.9529862,21.39656,-15.13257,-29.58793,1006.676
7.165405273,-6.294725,51.77715,23.1774,-0.1623376,0.2565234,0.983501,21.39656,-15.13257,-29.58793,1006.674
7.198181629,55.63969,82.44625,27.33145,-0.2619685,0.5048219,1.019946,22.11265,-14.39356,-28.73012,1006.674
7.233479500,54.70788,102.1241,14.62494,-0.5004856,0.1506895,1.088918,23.27367,-14.74972,-27.91781,1006.672
7.266255379,126.9543,105.256,-22.21174,-0.525308,0.1778568,1.103377,23.27367,-14.74972,-27.91781,1006.672
7.299031735,78.12741,137.2252,-65.52384,-0.3924341,0.8137015,0.8402425,24.77563,-16.89822,-24.83953,1006.672
7.331808090,-19.02948,158.5576,-87.08826,-0.4187249,0.05728182,1.005589,27.36119,-18.28056,-18.85265,1006.672
7.367105961,78.50014,112.5244,-102.0551,-0.3983202,0.224295,0.8348871,27.36119,-18.28056,-18.85265,1006.674
7.399882317,34.76711,108.1516,-104.3765,-0.2513596,0.882063,0.6958777,31.00081,-17.879,-15.5065,1006.674
7.432658196,9.483952,121.2701,-76.58096,-0.5386416,0.6025625,0.6998685,33.88002,-15.64077,-11.25568,1006.676
7.465434551,21.03842,100.6468,-49.27417,-0.3075473,0.7948485,0.5483643,33.88002,-15.64077,-11.25568,1006.676
7.498210907,7.68245,102.7741,-24.96074,-0.4994742,0.5967862,0.3122881,36.82667,-13.76712,-6.999211,1006.676
7.533508778,-49.15806,97.21942,-7.428195,-0.7154894,0.3914025,0.4531863,37.87583,-11.18387,-4.492219,1006.672
7.566285133,-8.841677,73.87782,-21.60085,-0.9924591,0.07439412,0.5140098,37.87583,-11.18387,-4.492219,1006.67
7.599061489,-12.32044,58.21825,-44.38705,-0.9188372,0.3398241,0.4243833,38.60366,-10.76853,-0.6450422,1006.669
7.631837368,-9.711368,56.56365,-43.5318,-0.8681552,0.2254089,0.2290027,39.32786,-10.38291,1.026576,1006.669
7.667135239,-17.60071,74.40965,-57.64336,-1.074965,0.1975726,0.1866939,39.66915,-8.89122,3.551697,1006.669
7.699911594,-7.847744,72.75505,-50.37377,-0.8397944,0.3529861,0.2609943,39.66915,-8.89122,3.551697,1006.667
7.732687950,35.01559,52.72263,-32.10816,-0.9005879,0.3534752,0.05415224,40.37379,-7.406348,5.641237,1006.667
7.765464306,10.78849,72.45959,-9.932845,-0.8406227,0.7395902,0.4568092,39.62848,-6.215738,8.172544,1006.665
7.798240662,-71.02457,48.29068,31.66877,-0.8111529,0.177855,0.3959716,39.62848,-6.215738,8.172544,1006.664
7.833537579,-44.00203,1.962015,1.612979,-1.201239,-0.3665638,0.3880902,39.5982,-4.364683,10.25729,1006.664
7.866314411,23.27477,-24.03876,-14.20908,-0.9851709,0.2674703,0.465084,38.89033,-5.456248,10.27542,1006.664
7.899090767,41.911,4.207537,34.11234,-0.5541674,1.22385,-0.2878226,38.89033,-5.456248,10.27542,1006.664
7.931867123,-49.22018,97.69216,89.76443,-0.4764668,1.040801,-0.1596888,39.63066,-6.197906,9.477879,1006.664
7.967164993,-73.63364,114.0017,99.53868,-1.237045,-0.1891147,0.5250958,39.2776,-6.526656,12.03259,1006.662
7.999940395,18.80207,9.58497,23.42176,-1.620033,-0.2034807,0.7407131,39.2776,-6.526656,12.03259,1006.662
8.032716751,-68.16702,-78.52222,-29.60351,-1.27685,0.1315003,1.153847,37.89283,-10.20535,13.77101,1006.662
8.065493584,-16.17193,-125.9736,-52.51189,-0.787921,-0.2029574,0.3757919,37.18892,-11.68428,12.11658,1006.666
8.098269939,-0.6417342,-67.76735,-18.42422,-0.2943769,1.27874,0.00944139,37.18892,-11.68428,12.11658,1006.668
8.133567333,-111.5273,54.25904,63.37398,-0.5681468,0.6111431,-0.06207008,38.99008,-11.00647,8.684039,1006.666
8.166344166,-26.04913,35.34938,31.79095,-1.381341,-0.4532653,0.04303028,39.71678,-11.0201,7.812876,1006.668
8.199119568,42.15948,-8.792854,14.56385,-0.8498582,0.4398212,-0.05681142,39.71678,-11.0201,7.812876,1006.668
8.231895924,-12.32044,39.60405,26.47621,-0.9700138,0.1661767,0.1682006,39.74528,-12.46596,8.706019,1006.666
8.267193794,18.49146,35.94031,-18.30204,-1.179099,0.08008795,0.1563108,39.03137,-13.18715,9.153531,1006.668
8.299970150,59.30482,43.2678,-15.36977,-0.846273,0.3654785,-0.03600933,39.03137,-13.18715,9.153531,1006.668
8.332746506,15.32331,52.07261,-15.91957,-0.8804247,0.4682389,0.1444274,38.68965,-14.2626,10.41437,1006.668
8.365523338,-14.30831,60.34558,4.178718,-0.7421638,0.497728,0.01649421,38.29467,-12.41577,12.12663,1006.668
8.398298740,8.303658,49.41344,29.65284,-1.025894,0.2363134,0.4459732,38.29467,-12.41577,12.12663,1006.668
8.433596611,3.023391,58.98645,21.65018,-0.9838548,0.4572069,0.08307508,39.02563,-12.39459,13.80398,1006.668
8.466372967,-77.67149,59.04555,22.38324,-0.9216581,0.6806593,0.2741728,37.57972,-12.72582,15.98715,1006.668
8.499149323,-89.3502,52.30898,32.76838,-0.9885979,0.05688329,0.3725067,37.57972,-12.72582,15.98715,1006.668
8.531926155,23.33689,-11.15656,28.1867,-1.087788,0.3671307,0.6322097,36.13828,-13.44016,16.80855,1006.669
8.567223072,-10.14621,-67.94463,-17.93551,-0.9941864,0.1529854,0.3314594,34.72327,-15.61735,17.27992,1006.669
8.599999428,22.83992,-91.04987,-51.29011,-0.9436559,0.4806776,-0.02199248,35.82091,-15.99544,16.47618,1006.668
8.632775784,-27.72639,-55.35789,-40.84389,-0.6094192,0.8128485,-0.07238479,35.82091,-15.99544,16.47618,1006.669
8.665552139,44.14735,1.725644,0.8188218,-0.790728,0.7921566,-0.588906,37.26537,-15.6761,13.42279,1006.668
8.698328495,13.77029,72.04594,3.995451,-0.9373953,0.616783,-0.4881706,37.98,-14.94897,13.41039,1006.666
8.733626366,-44.93385,115.1245,1.429712,-1.191457,0.1791042,0.192293,37.98,-14.94897,13.41039,1006.666
8.766402245,-2.505358,68.79585,-34.85716,-1.350633,-0.2243673,0.4248137,37.9776,-14.54887,16.01533,1006.666
8.799178600,51.167,-2.410844,-56.17723,-1.064662,0.2058908,0.4600704,36.53159,-14.88095,18.13634,1006.668
8.831954956,-40.46115,-17.59766,-55.62743,-0.8142522,0.2779709,0.5089481,36.53159,-14.88095,18.13634,1006.668
8.867252827,1.346131,-72.08111,-69.37245,-1.021584,0.09450931,0.6401654,36.50454,-13.4232,18.11342,1006.666
8.900029182,54.95636,-113.0323,-52.38971,-0.5314398,0.3305981,0.1726889,36.8319,-11.62566,16.34385,1006.666
8.932805538,-33.62786,-69.65831,-27.89302,-0.6767194,0.7567244,0.06215936,36.8319,-11.62566,16.34385,1006.664
8.965581417,-32.69605,-16.06125,37.35006,-0.5377803,0.9018593,-0.1054214,39.34842,-10.21478,13.33402,1006.664
8.998357773,-77.11241,7.694005,24.76571,-1.173137,-0.217282,-0.03050483,40.04818,-8.769819,12.5021,1006.664
9.033655643,-28.3476,4.916649,-5.228991,-1.272358,-0.2828011,0.3322946,40.04818,-8.769819,12.5021,1006.664
9.066431999,54.39727,-0.8744341,-7.672552,-1.03287,0.3743708,-0.2839628,39.71718,-10.59708,12.0961,1006.67
9.099208355,-34.06271,24.47633,-29.72569,-1.090593,0.1672316,-0.1655801,39.72998,-11.33189,11.67245,1006.67
9.131984711,65.95174,-6.665517,-44.99794,-1.184114,-0.230039,0.3194904,39.72998,-11.33189,11.67245,1006.668
9.167282105,27.00201,3.380239,-53.12278,-1.1493,0.005346392,0.1582783,39.71718,-10.59708,12.0961,1006.668
9.200058460,103.7212,23.8854,-15.00323,-0.9002978,0.7994443,-0.1794997,40.41225,-8.770692,12.50163,1006.668
9.232834816,-4.741705,64.60026,40.4656,-0.5647711,1.036602,-0.02709855,40.41225,-8.770692,12.50163,1006.667
9.265611172,-86.24416,72.63686,37.83877,-1.256715,-0.5558038,0.2060709,40.75136,-7.296834,13.72141,1006.667
9.298387528,36.69286,-0.697156,-26.12144,-1.331465,-0.6681106,0.7450612,40.3823,-6.847009,15.45564,1006.665
9.333684445,160.6859,-39.1074,-40.04973,-1.066096,0.3092436,-0.01422327,40.3823,-6.847009,15.45564,1006.665
9.366461277,78.50014,26.07183,4.789608,-0.629213,1.276607,-0.5953143,39.31897,-8.356936,15.91604,1006.665
9.399237633,-75.37302,137.5206,49.07915,-0.9842451,0.4733059,-0.6832762,40.36347,-5.741811,16.30868,1006.665
9.432013989,-19.77493,160.9804,25.37661,-1.294928,-0.2720075,-0.1196668,40.36347,-5.741811,16.30868,1006.665
9.464790344,98.19242,108.6243,4.972875,-1.267643,-0.3218457,-0.1754943,38.89862,-4.968688,19.28272,1006.663
9.500088215,97.94394,103.6014,3.140204,-0.6892011,0.4729662,-0.03606252,36.3924,-6.715137,24.41168,1006.665
9.532863617,-48.9717,102.4196,13.40316,-0.8652193,0.3601255,-0.08264841,36.3924,-6.715137,24.41168,1006.663
9.565640450,80.67436,22.99901,46.75776,-1.252804,1.05946,1.215931,33.39704,-5.209504,27.37622,1006.663
9.598416805,-62.94887,-65.75819,22.6276,-1.403306,0.1761719,0.9360224,30.47984,-4.820254,28.67958,1006.663
9.633714199,-1.88415,-128.9283,18.84008,-1.141052,0.02804796,0.2612359,29.75772,-5.18889,28.25114,1006.665
9.666491032,-8.717436,-133.242,11.87593,-0.8246288,0.07454498,0.1237086,29.75772,-5.18889,28.25114,1006.663
9.699267387,-98.66832,-136.0194,-64.42424,-1.044827,-0.1441493,-0.4540364,32.32156,-6.329067,25.28142,1006.663
9.732043743,44.8928,-129.1646,-64.42424,-1.10905,0.07505391,-0.6520541,35.6657,-7.191214,20.56546,1006.663
9.764819622,92.53943,-66.5264,7.905148,-0.7015926,1.175547,-0.1227744,35.6657,-7.191214,20.56546,1006.665
9.800117016,-79.473,48.99979,61.11368,-0.4079027,0.8519631,-0.9234879,37.81628,-5.724664,17.12003,1006.665
9.832893372,-135.9408,56.9773,42.48153,-1.397128,-0.3299913,0.1396356,39.62605,-4.976377,18.84667,1006.665
9.865670204,42.71857,-47.26219,39.36599,-1.011246,-0.1976861,0.4918405,39.62605,-4.976377,18.84667,1006.667
9.898446560,4.452169,-59.43528,-11.88769,-1.089706,0.2598857,0.1303156,38.22351,-7.96101,18.02512,1006.667
9.933743477,4.079445,-30.1844,-7.733641,-1.109017,0.02761069,0.229872,38.98267,-9.807867,16.37454,1006.668
9.966519833,63.28055,-5.306385,30.75244,-0.9713219,0.247771,-0.1433603,38.98267,-9.807867,16.37454,1006.668
9.999296188,8.614261,6.03941,11.20395,-0.8231646,0.4448975,-0.05928919,38.59758,-8.719626,15.92271,1006.668
10.032073021,-39.34298,20.22165,14.93038,-1.015363,0.2163467,0.01323403,39.33311,-9.080714,16.30045,1006.668
10.064849377,30.66714,7.516727,19.20662,-0.9219503,0.3321186,-0.04973904,39.33311,-9.080714,16.30045,1006.67
10.100146771,6.688518,17.79885,19.51206,-0.9245145,0.4350371,0.1854978,38.99005,-10.16721,16.75323,1006.672
10.132922649,4.079445,11.83049,14.56385,-0.8544383,0.3193244,-0.07972432,38.26407,-10.14763,18.0595,1006.672
10.165699005,-11.45075,6.03941,-8.100174,-1.042806,0.1561432,0.2136364,38.26407,-10.14763,18.0595,1006.672
10.198475361,62.03813,-11.39293,5.095053,-0.9603695,0.1955162,0.1734284,38.63419,-10.51889,17.62965,1006.674
10.233773232,14.7021,-2.11538,-1.746917,-1.002745,0.2360487,0.09981952,37.90676,-10.5112,18.0657,1006.674
10.266549587,43.46402,-17.77494,-11.03245,-1.055964,0.1396235,0.02499865,37.90676,-10.5112,18.0657,1006.674
10.299325943,51.41548,-12.81116,-2.235629,-1.039233,0.2548409,0.04452115,37.90676,-10.5112,18.0657,1006.674
10.332101822,47.31551,1.19381,15.90781,-1.023796,0.320572,0.1632818,38.62139,-9.784067,18.0533,1006.674
10.364878178,-20.95523,6.571244,22.74978,-1.01184,0.2339873,0.3747017,38.62139,-9.784067,18.0533,1006.674
10.400176048,-92.89108,-33.90724,-18.79075,-1.09955,0.0244049,0.7381725,38.59507,-8.320375,18.46549,1006.674
10.432952404,69.86535,-109.8413,-17.93551,-1.328959,0.2533886,0.3941978,38.25731,-9.783195,18.05377,1006.674
10.465728760,-26.17337,-154.4563,11.93702,-1.449864,0.9211636,0.6856647,38.25731,-9.783195,18.05377,1006.676
10.498505116,-9.462885,-187.9028,34.96758,-1.072609,0.6884305,0.4526229,38.97903,-9.837585,14.19898,1006.676
10.533802509,-21.32795,-157.2337,58.54794,-0.6056385,0.4612347,-0.002547711,40.7909,-9.911577,9.099611,1006.676
10.566578865,-24.86884,-107.3594,55.9822,-0.4858371,0.5343975,0.07888936,41.89356,-11.08817,3.210305,1006.678
10.599355221,2.650667,-91.5817,74.12565,-0.5503609,0.5291911,0.1782108,41.89356,-11.08817,3.210305,1006.678
10.632131577,2.588546,-80.35409,58.54794,-0.4121576,0.3936294,0.128507,41.21161,-14.06646,-1.466985,1006.676
10.664907932,-19.52645,-41.5302,40.83213,-0.2925482,0.04101316,-0.2953249,40.52652,-16.65059,-3.974447,1006.676
10.700205803,60.17451,39.84042,-33.26885,-0.1186654,-0.2431629,-0.6077127,40.52652,-16.65059,-3.974447,1006.676
10.732981682,71.16988,130.3704,-92.09756,-0.7201281,0.0850839,-0.6578053,39.81044,-17.3896,-4.832271,1006.675
10.765758038,25.88384,75.35513,87.44305,-0.8725574,0.1075787,-2.563189,39.83112,-18.05989,-0.531852,1006.675
10.798534393,342.4513,131.0795,83.77771,-0.1678567,0.8163047,-0.7367538,39.83112,-18.05989,-0.531852,1006.675
10.833832264,-72.39123,-3.888161,44.06985,-0.6168317,0.1193183,0.289218,40.88133,-15.88777,-1.437865,1006.673
10.866608620,-25.86277,19.8671,37.28897,-0.7552942,0.5887435,0.4438374,39.82436,-17.69545,-0.5375822,1006.673
10.899384975,35.76104,21.22623,16.5187,-0.939851,0.2683699,0.8202202,39.82436,-17.69545,-0.5375822,1006.675
10.932160854,29.11412,-8.970132,25.55987,-0.610649,0.4537521,0.6786023,39.48169,-18.84863,-0.5189669,1006.681
10.964937210,-19.65069,-0.9926193,14.99147,-0.6913872,0.4605753,0.4260686,39.49521,-19.5775,-0.5075071,1006.681
11.000235081,20.78993,-18.48405,13.76969,-0.5944357,0.7275621,0.3922223,39.49521,-19.5775,-0.5075071,1006.679
11.033011436,1.905218,-9.324688,15.11365,-0.7155797,0.6117231,0.3387717,38.77528,-19.9283,0.369386,1006.679
11.065787792,9.670314,-18.24768,-10.727,-0.6096991,0.6286885,0.4800154,38.4165,-20.30376,-0.4946373,1006.679
11.098564148,-46.11414,-3.060863,-1.624739,-0.7335648,0.6582562,0.5385094,38.4165,-20.30376,-0.4946373,1006.677
11.133861065,-19.46433,4.562093,-8.222352,-0.6433293,0.5082568,0.6415328,38.43003,-21.03263,-0.4831774,1006.677
11.166637898,-1.635667,0.07104887,-22.88372,-0.786586,0.8780715,0.4150752,38.7731,-19.94614,-0.9359496,1006.677
11.199414253,45.57613,-1.938102,21.10037,-0.6875426,1.017085,0.04542633,38.7731,-19.94614,-0.9359496,1006.677
11.232190609,-26.23549,36.88579,35.33412,-0.753329,0.7184076,0.1071655,39.87281,-20.30725,-0.4965169,1006.679
11.264966965,-5.487155,20.22165,10.16544,-0.5817663,0.7202868,0.4514107,39.14466,-20.3055,-0.4955771,1006.679
11.300263882,-12.5068,19.57163,9.737819,-0.7416396,0.1730773,0.5358902,39.14466,-20.3055,-0.4955771,1006.679
11.333040714,41.16555,2.789312,-6.51186,-0.7304037,0.3570748,0.5774647,38.80232,-21.38605,0.3923059,1006.679
11.365817070,10.47788,14.07601,-26.12144,-0.723066,0.5175854,0.4679363,38.43887,-21.38008,0.7657285,1006.679
11.398593426,26.00808,12.71688,-21.23431,-0.7240295,0.6939684,0.3396305,38.43887,-21.38008,0.7657285,1006.679
11.433891296,-37.78996,27.9628,-21.90629,-0.6281521,0.4532513,0.6276202,38.79764,-21.00463,1.629752,1006.679
11.466667652,40.35798,-7.611,-47.93021,-0.6948528,0.317585,0.5991012,39.14965,-20.26474,2.488046,1006.681
11.499444008,13.83241,0.7210684,-50.25159,-0.8057378,0.5745432,0.4935587,39.14965,-20.26474,2.488046,1006.679
11.532219887,35.38832,9.703156,-31.25291,-0.760856,0.8403162,0.2076042,39.85752,-19.17318,2.469916,1006.681
11.564996243,-66.42764,40.13589,-45.60883,-0.9523597,0.6791701,0.02682789,40.19342,-17.65556,2.445571,1006.681
11.600293636,9.297589,26.19001,-50.00724,-1.018793,0.2678681,0.2124483,40.90878,-16.92249,2.868283,1006.683
11.633070469,58.80785,28.31735,-42.37111,-0.854427,0.6124741,0.4036024,40.90878,-16.92249,2.868283,1006.683
11.665846825,8.676382,52.36807,-29.29806,-0.6513945,0.5863937,0.4012347,41.256,-15.80203,4.901864,1006.681
11.698623180,-24.99308,44.74512,-31.49727,-0.7803423,0.3381288,0.644521,41.93224,-12.87045,6.160419,1006.681
11.733920097,44.70643,13.66236,-42.18784,-0.8288998,0.1614431,0.7888296,41.93224,-12.87045,6.160419,1006.681
11.766696453,33.33833,-1.288083,-56.97139,-0.8001454,0.331533,0.8404921,42.29309,-12.47801,8.267619,1006.683
11.799472809,131.1164,-22.02961,-34.49063,-0.6422925,0.5244097,-0.188843,41.88917,-10.28458,8.66882,1006.683
11.832249641,-52.45046,28.37644,-38.5225,-0.8608458,0.3910323,0.08432716,41.88917,-10.28458,8.66882,1006.685
11.865025997,-13.12801,22.70355,-41.76022,-1.02571,-0.05882381,0.3771015,42.95363,-8.83539,8.209379,1006.685
11.900322914,56.88211,-2.469936,-36.26221,-1.035371,0.3464651,0.4689349,42.91943,-6.946521,8.614885,1006.685
11.933099270,20.16873,10.82592,-18.72966,-0.8316597,0.3314695,-0.1115665,42.91943,-6.946521,8.614885,1006.685
11.965875626,-22.75673,10.53045,-58.19317,-1.00719,0.03431533,-0.04908802,42.52227,-5.11752,9.021817,1006.685
11.998651981,47.81247,4.384815,-56.54376,-1.247211,-0.07559544,0.1225303,42.88031,-4.748012,9.450729,1006.685
12.031428814,63.96387,35.64484,3.201293,-1.051251,0.379869,-0.1014914,42.88031,-4.748012,9.450729,1006.685
12.066726208,-58.16557,67.4958,-30.82529,-0.966431,0.2443237,-0.08464063,43.19779,-2.191881,9.845261,1006.685
12.099502087,7.558208,45.6906,-33.02449,-0.9912024,0.3041189,0.20944,43.18707,-1.440081,11.51209,1006.685
12.165054798,-27.41579,68.97312,9.126928,-0.8503709,0.5096131,0.2448984,41.72076,-0.6788464,13.61591,1006.685
12.200352669,-25.11732,50.35892,28.00343,-0.8614156,0.2669851,0.3165318,41.70412,0.4441838,15.77428,1006.685
12.233129025,25.38687,3.202961,-0.6473146,-1.076119,-0.01943546,0.7790987,41.70412,0.4441838,15.77428,1006.685
12.265905380,55.88817,-62.68538,-30.82529,-1.054222,-0.268041,0.6518606,40.99302,-0.2540746,17.90008,1006.685
12.298682213,83.4698,-87.44521,-51.47337,-1.063342,-0.3159738,0.6336627,40.63424,-0.6295266,17.03605,1006.687
12.331457615,117.2014,-86.677,-57.4601,-0.9703979,-0.2065004,0.5759953,40.63424,-0.6295266,17.03605,1006.687
12.366755486,117.6983,-74.32664,-48.23566,-0.9989607,0.1299727,0.3897502,41.68841,1.155225,14.45748,1006.687
12.399531841,180.254,-59.13982,-19.03511,-1.086567,0.3558599,0.0603661,41.9848,4.448324,10.98575,1006.686
12.432308197,93.47124,-67.64916,23.7272,-1.339818,1.115769,0.2427389,41.9848,4.448324,10.98575,1006.686
12.465084553,-64.87462,-116.3415,118.6595,-1.575408,0.9921927,0.475019,42.65316,7.315372,7.520237,1006.686
12.500381947,-69.22307,-147.8379,171.9292,-1.142657,0.5222254,0.3789099,43.36884,7.631362,4.094833,1006.687
12.533158302,-118.547,-125.6782,154.5188,-0.4298823,0.5002864,0.1490869,44.5342,3.120039,-1.306837,1006.687
12.565934658,-96.68045,-101.2729,146.9437,-0.4431551,0.412291,0.398115,44.5342,3.120039,-1.306837,1006.683
12.598711014,-58.97314,-90.34075,125.135,-0.1896728,0.1636145,0.1923471,44.27718,-3.139051,-5.933027,1006.687
12.631487370,-71.02457,-40.93927,87.87067,-0.1751733,0.4091697,0.2574078,42.91104,-8.344271,-9.206549,1006.687
12.666785240,-11.26439,-15.47033,67.77239,-0.2586512,0.3873734,0.2350147,42.91104,-8.344271,-9.206549,1006.686
12.699561596,-24.68248,-10.8611,37.6555,-0.5075082,0.5521875,0.5622011,41.51122,-11.65638,-11.76377,1006.684
12.732337475,-70.5276,3.912073,53.72191,-0.8403205,1.046358,0.5867952,41.1796,-13.48873,-12.54271,1006.684
12.765113831,-92.39412,-1.760824,53.59973,-0.7488605,0.3411768,0.4846297,41.1796,-13.48873,-12.54271,1006.682
12.800411701,-31.51576,19.51254,6.377922,-0.5399598,0.2400152,0.1839169,39.73609,-14.22005,-12.96449,1006.682
12.833188057,-61.27161,74.64602,-12.43749,-0.9469585,0.2472876,0.03805596,39.75565,-15.31931,-13.38241,1006.682
12.865964413,-18.34616,64.12752,5.767032,-1.120291,0.267808,0.1857328,39.75565,-15.31931,-13.38241,1006.682
12.898740768,-32.88242,72.93233,-2.968697,-1.045704,0.2735123,-0.2043557,40.109,-14.56838,-11.71605,1006.68
12.931516647,-112.9561,99.70132,-9.01651,-2.412806,-0.05709395,0.8227602,40.48275,-14.90992,-9.970343,1006.682
12.966814518,57.56543,64.60026,50.72855,-1.244713,1.469621,0.8663062,40.48275,-14.90992,-9.970343,1006.682
12.999590874,142.2982,-32.42992,11.02069,-0.8073333,0.3677895,0.1795449,41.19593,-14.19468,-10.85297,1006.682
13.032367229,11.16121,24.23996,50.91182,-0.7195241,0.5062184,0.7201786,40.15103,-16.74312,-10.81145,1006.682
13.065143585,9.794556,32.8084,14.93038,-0.4413021,0.2099219,1.271124,40.15103,-16.74312,-10.81145,1006.68
13.100441456,69.4305,3.439332,-26.97668,-0.6177328,0.3987313,0.8293682,39.43857,-17.45241,-9.493711,1006.68
13.133217335,35.20195,21.04895,-4.251567,-0.7446652,0.5713211,0.2368529,39.46809,-18.95986,-8.661772,1006.679
13.165993691,-1.262942,2.021107,-16.16393,-0.4252824,0.6640353,0.4386089,39.46809,-18.95986,-8.661772,1006.679
13.198770046,65.01993,-25.04334,-26.18252,-0.6272883,0.8334153,0.2453254,39.46239,-18.51685,-7.363121,1006.679
13.231546402,-32.26121,33.16295,18.04592,-0.5625454,1.173893,0.2427332,40.54786,-18.15504,-7.370261,1006.677
13.266844273,5.197619,10.76682,22.26107,-0.7613283,0.5768531,-0.06829926,40.54786,-18.15504,-7.370261,1006.677
13.332396984,-60.83677,40.13589,17.6183,-0.8352819,0.1901016,0.785432,40.192,-18.50671,-6.493838,1006.675
13.365172863,8.365778,16.20335,-23.0059,-0.8394192,0.140675,1.036787,40.192,-18.50671,-6.493838,1006.673
13.400470257,0.1658359,-3.829068,-31.8638,-0.7205184,0.6204823,0.2035076,40.19915,-18.93783,-6.922265,1006.672
13.433247089,-18.84312,24.88998,-46.8917,-0.8369676,0.1041881,0.8996483,40.18658,-18.13124,-5.691504,1006.67
13.466023445,46.38369,0.780161,-51.96209,-0.7084217,0.5007332,0.5483143,40.18658,-18.13124,-5.691504,1006.67
13.498799801,38.55648,10.64864,-71.75493,-0.7532012,0.5451534,0.5464282,41.61657,-16.67104,-5.281191,1006.67
13.531576157,38.12163,21.40351,-64.48533,-0.9247842,0.3964915,0.4560818,41.60378,-15.93622,-4.85754,1006.67
13.566873074,-4.120498,37.00397,-60.82,-0.7950648,0.7689415,0.4205548,43.0217,-13.73525,-3.588464,1006.67
13.599649906,29.73532,30.74015,-47.74694,-0.9020579,0.564383,0.05865147,43.0217,-13.73525,-3.588464,1006.674
13.632426262,10.78849,37.12216,-23.67787,-0.8983605,0.6640318,0.1663175,43.34052,-11.16809,-2.385868,1006.674
13.665202618,-12.81741,57.86369,-28.13737,-0.9747404,0.3631253,0.4105213,44.03705,-9.329813,-1.110122,1006.674
13.700500488,9.173348,45.21786,-30.45876,-0.8739535,0.2591512,0.4657955,44.03705,-9.329813,-1.110122,1006.674
13.733276844,-8.28259,60.81833,-25.63272,-0.9158659,0.1175042,0.4579253,44.01957,-8.213576,0.5509756,1006.674
13.766052246,48.4958,28.25826,-20.68451,-0.6335291,0.3420079,-0.02492586,44.74387,-7.827109,2.284753,1006.674
13.798829079,9.235469,50.94985,-14.02581,-0.8768827,0.2725177,0.5004404,44.74387,-7.827109,2.284753,1006.674
13.831605434,-3.002324,37.77218,-33.81865,-0.9216528,0.1059578,0.485394,44.01311,-7.426961,4.766315,1006.672
13.866902828,13.70817,18.50797,-34.91825,-0.887341,0.1814785,0.5184128,44.36399,-6.626333,5.623653,1006.672
13.899679661,34.51863,3.084776,-1.746917,-0.7875701,0.4525713,0.3011548,44.36399,-6.626333,5.623653,1006.672
13.932456017,-17.97343,8.403116,-28.80935,-0.9411561,0.2772643,0.1395643,44.32487,-4.427824,6.459496,1006.672
13.965231419,-1.88415,-7.492815,-29.42024,-0.9794581,0.2798734,0.2806903,44.31874,-4.058291,6.826719,1006.671
14.000529289,7.496088,8.580395,-9.260866,-0.9811354,0.2289509,0.5941375,44.31874,-4.058291,6.826719,1006.669
14.033305645,20.35509,0.07104887,16.94632,-0.8397223,0.6814004,0.002007927,44.67606,-3.694727,6.820519,1006.669
14.066082001,-67.91853,29.14465,11.87593,-0.9837041,0.585324,0.01645372,44.29169,-2.600543,6.8038,1006.667
14.098858833,-33.87635,27.1355,20.36731,-0.9409075,0.1993269,0.277832,44.29169,-2.600543,6.8038,1006.667
14.131635189,26.3808,23.1172,38.81619,-0.948386,0.2937076,0.3417286,44.29846,-2.964981,6.809529,1006.667
14.166932106,-17.97343,30.85834,27.94234,-0.9256704,0.2977888,0.1308322,43.95008,-3.67515,8.126795,1006.667
14.199708462,-15.11588,31.74473,26.96492,-1.063513,0.1010774,0.3042645,43.95008,-3.67515,8.126795,1006.667
14.232484818,-14.37043,28.43554,9.982175,-1.173673,-0.1200709,0.3621411,43.60847,-4.749757,9.449789,1006.667
14.265261173,9.111227,10.47136,-10.78809,-1.082398,-0.1174716,0.3460357,43.63759,-6.190523,10.71589,1006.669
14.300559044,56.81998,-6.192775,-25.87708,-1.071128,0.05492768,0.4006244,43.63759,-6.190523,10.71589,1006.671
14.333335400,22.15659,1.548366,-27.22104,-0.9356148,0.2203337,0.280676,42.91837,-6.535383,12.02789,1006.671
14.366111755,2.277942,8.69858,-16.71373,-0.8768963,0.2945328,0.5846455,44.34618,-5.093013,11.13287,1006.668
14.398887634,71.97746,-28.76618,14.38058,-0.8606249,0.2429853,0.856654,44.34618,-5.093013,11.13287,1006.668
14.431663990,38.86708,-63.51267,3.567827,-0.7618808,0.3005505,0.4712436,43.24116,-4.355577,11.55793,1006.668
14.466961861,32.28228,-57.13066,-25.32728,-0.9159146,0.343025,0.460955,42.86075,-3.648757,9.86865,1006.67
14.499738217,44.95492,-51.63505,-15.67521,-0.9936883,0.4951189,0.01372519,44.31488,-3.670079,8.561437,1006.67
14.532514572,-8.344711,-56.067,-1.685828,-1.037972,0.9715542,0.152707,44.31488,-3.670079,8.561437,1006.67
14.565291405,-26.98094,-29.47529,37.04461,-0.8529201,0.7450883,0.1415381,44.29107,-2.605638,6.430847,1006.67
14.600588322,-25.61429,-40.23016,58.91448,-0.8829274,0.5039223,0.1660409,44.2942,-2.999794,4.261018,1006.67
14.633364678,-9.959851,-48.08949,57.6927,-0.6794912,0.3275701,0.265466,44.2942,-2.999794,4.261018,1006.668
14.666141033,-15.4886,-39.8756,56.95963,-0.5420017,0.4864451,0.1845131,44.69011,-4.838985,3.108181,1006.672
14.698917389,-3.188686,-9.38378,50.9729,-0.5451676,0.3839839,0.162051,43.99358,-6.677257,1.832436,1006.666
14.731693745,-19.09161,-4.360902,38.2053,-0.7883332,0.6174487,0.5492907,43.99358,-6.677257,1.832436,1006.666
14.766991615,-16.6689,0.07104887,29.89719,-0.6479573,0.3607372,0.3746104,44.39863,-8.931435,1.432189,1006.671
14.799767971,-7.040174,-4.242717,23.48285,-0.7722161,0.5553935,0.430931,43.33136,-10.40355,0.2133427,1006.672
14.832543850,-5.922,0.9574391,30.75244,-0.954894,0.5678933,0.2768284,43.33136,-10.40355,0.2133427,1006.671
14.865320206,-2.070512,12.18505,25.68205,-0.6227437,0.3139049,0.05307151,43.34623,-11.12138,1.032867,1006.669
14.900618076,-32.26121,81.32349,-17.01917,-0.3309149,0.06534086,-0.1826319,42.63836,-12.21295,1.050997,1006.667
14.933394432,-69.47155,26.42639,65.63427,0.05626972,0.7594565,0.6245726,42.63836,-12.21295,1.050997,1006.667
14.966170788,153.4799,-61.91717,10.9596,-1.234312,0.862721,0.286674,42.65479,-12.91805,2.802903,1006.667
14.998947144,-72.70184,26.60366,-11.70443,-1.125434,0.1844785,0.1853893,43.01211,-12.55448,2.796704,1006.667
15.031723022,-2.381116,16.14426,-21.66194,-0.8978704,0.5004666,0.3875079,43.01211,-12.55448,2.796704,1006.667
15.067020893,-32.88242,31.27199,-19.0962,-0.8137608,0.4553502,0.3820814,42.64876,-12.54767,3.232285,1006.667
15.099797249,11.47182,8.107653,-31.314,-0.8266177,0.3516113,0.3976719,42.63648,-11.8086,3.966731,1006.667
15.132573605,6.937001,6.334873,-14.57561,-0.7620967,0.7578143,0.2515354,42.63648,-11.8086,3.966731,1006.667
15.165349960,-49.5929,46.04515,-9.199777,-0.8444284,0.4452988,0.1641125,42.62972,-11.44417,3.961001,1006.665
15.198126316,-6.915933,21.93534,-33.02449,-1.122722,-0.05802698,0.608384,42.981,-10.71022,4.384183,1006.665
15.233424187,7.744571,6.984893,-28.44282,-0.8889729,0.2322642,0.3994437,42.981,-10.71022,4.384183,1006.665
15.266200543,13.95665,0.8392537,-40.04973,-0.8714689,0.2327817,0.4528326,43.69781,-9.96526,5.677118,1006.665
15.298976421,-24.43399,3.380239,-12.86512,-0.9470666,0.9537481,0.2844114,43.30742,-8.500696,6.08978,1006.665
15.331752777,-91.89716,34.64027,17.80157,-0.6149206,1.10528,0.03404983,43.30742,-8.500696,6.08978,1006.665
15.367050648,-9.400764,18.86252,14.31949,-1.028624,0.07801813,0.02791482,44.00667,-6.989897,5.629853,1006.665
15.399827004,17.43541,21.16714,-0.2196915,-1.294914,-0.1975219,0.2961175,44.02277,-7.767623,6.512491,1006.668
15.432603359,18.86419,42.97234,-28.19846,-1.185106,-0.4121972,0.3900461,44.02277,-7.767623,6.512491,1006.668
15.465379715,64.3366,3.85298,-91.79212,-1.137843,-0.2597491,0.4739426,43.30949,-8.483713,7.332956,1006.668
15.498155594,26.81565,42.4405,-93.13608,-1.071386,-0.02889671,0.4633284,43.30492,-8.101444,8.632561,1006.669
15.533453465,75.45621,26.13092,-65.70712,-0.85837,0.8201264,0.2930669,43.60982,-4.738718,10.25785,1006.669
15.566229820,-11.76135,36.47214,-16.16393,-0.6210102,1.395086,-0.09634019,43.60982,-4.738718,10.25785,1006.669
15.599006176,-64.31553,27.1355,-0.7084036,-0.8732958,0.5714577,0.3411319,43.54969,-1.452842,10.6414,1006.671
15.631782532,-0.5796135,-18.01131,20.85602,-0.7855533,0.5784984,0.05739114,42.44612,-0.7035179,11.93668,1006.671
15.667080403,-51.39441,-3.415419,39.73252,-0.9548887,0.1447075,0.2144078,42.44612,-0.7035179,11.93668,1006.671
15.699856281,-13.00377,-8.911039,6.439011,-1.025987,-0.3672052,0.295254,43.18707,-1.440081,11.51209,1006.671
15.732632637,48.68216,-21.79324,-25.38837,-1.269154,-0.7994847,0.4081582,42.84931,-2.9029,11.10037,1006.671
15.765408993,73.77896,-24.92516,-32.10816,-0.9731104,-0.141273,0.2938253,42.84931,-2.9029,11.10037,1006.669
15.798185348,-11.82347,0.8983464,-32.04707,-0.8611854,0.588789,0.367552,42.83578,-2.174026,11.08891,1006.669
15.833483219,56.01242,-24.15695,18.96226,-0.8239985,1.004149,-0.03991291,43.52806,-0.3705688,9.816141,1006.671
15.866259575,-66.73824,7.103078,11.63158,-1.024697,0.62066,-0.2458445,43.52806,-0.3705688,9.816141,1006.673
15.899035931,-13.19013,3.025683,36.37263,-1.035137,0.2662387,-0.4927055,43.16398,-0.3696961,9.816611,1006.673
15.931812286,26.00808,38.12674,56.34874,-1.074832,0.2582232,-0.2668406,43.8989,-0.7358785,9.821402,1006.673
15.967109680,-6.667449,75.82787,25.31552,-1.20529,-0.1661605,0.005596506,43.8989,-0.7358785,9.821402,1006.673
15.999886036,89.68188,85.51907,12.18138,-1.290379,-0.3565615,-0.1676863,43.19914,-2.180843,10.65333,1006.673
16.032662392,186.2797,-6.192775,-22.02847,-0.7534245,-0.04572517,1.23326,42.86854,-3.585073,14.53056,1006.673
16.065438747,90.42732,-10.50654,2.77367,-0.4990311,1.285125,1.664358,42.86854,-3.585073,14.53056,1006.673
16.098215103,-42.57326,-27.8207,5.767032,-0.7188532,0.9975286,0.4927151,41.77849,-3.564623,15.83731,1006.673
16.133512020,-55.68074,-10.802,38.14421,-0.7123727,0.6496572,0.1167992,42.46463,-1.391634,14.93176,1006.675
16.166288853,-88.23203,-9.206503,14.74712,-0.9974388,0.07947784,0.270445,42.46463,-1.391634,14.93176,1006.675
16.199065208,-56.11559,-32.6663,24.39918,-0.9696358,-0.2143207,0.08068395,41.75602,-2.489144,14.51478,1006.673
16.231841564,28.12019,-32.31174,9.554551,-1.174187,0.06535206,0.2025321,42.14715,-3.947764,14.53723,1006.673
16.267139435,49.17913,-14.28847,6.377922,-0.9845507,0.5397832,0.05214514,42.14715,-3.947764,14.53723,1006.673
16.299915791,-41.76569,19.27617,12.36465,-0.86802,0.3750071,0.2398482,42.16463,-5.064002,12.87613,1006.671
16.332692146,-60.15344,31.68563,25.19334,-1.007703,0.1384504,0.4287484,43.25613,-5.072563,12.43961,1006.671
16.365468025,-70.217,-8.674668,34.78432,-1.130982,0.1554635,0.6422585,43.25613,-5.072563,12.43961,1006.669
16.398244381,-6.232604,-58.60798,-28.62609,-1.716273,0.1179265,0.08002865,42.54223,-5.793748,12.88712,1006.669
16.433541775,59.49118,-152.0926,13.1588,-1.370829,0.9185348,0.4226577,41.47744,-7.315562,12.4773,1006.669
16.466318607,-18.53252,-142.8741,47.79628,-1.019732,0.8906388,0.3313709,42.5539,-6.957537,7.745132,1006.669
16.499094963,21.97023,-144.056,47.79628,-0.5519655,0.5617157,0.02461116,42.5539,-6.957537,7.745132,1006.669
16.531871319,-24.80672,-73.08569,43.27569,0.03743308,0.3416065,-0.2590144,43.30254,-8.540605,3.168315,1006.669
16.567169190,16.13087,9.348599,7.966237,-0.5845665,0.3613725,-0.100645,43.7022,-10.76886,0.2186027,1006.669
16.599944592,66.57294,26.66276,6.744456,-0.5683015,0.7052065,0.08749203,43.7022,-10.76886,0.2186027,1006.672
16.632720947,35.38832,11.18047,14.44167,-1.115962,1.08191,0.07715192,43.35841,-11.8613,0.2362626,1006.674
16.665497780,-95.12743,-63.74904,53.35538,-0.6313516,0.7947094,-0.3433121,42.9754,-10.75607,1.027607,1006.675
16.698274136,-62.32766,-33.84815,-3.029786,-1.190522,0.4083737,0.2429696,42.9754,-10.75607,1.027607,1006.675
16.733571529,8.924865,-43.59844,22.87196,-1.418252,0.8595557,0.4729207,42.64981,-12.95881,-0.1807194,1006.674
16.766348362,-26.98094,-75.03574,45.90252,-0.9766685,0.7785192,0.475365,43.0117,-12.97751,-1.486524,1006.674
16.799124718,-73.44728,-44.18937,17.55721,-0.4028775,0.2258662,0.4358466,43.0117,-12.97751,-1.486524,1006.674
16.831900597,-34.43544,12.06686,4.911786,-0.1275433,-0.09788018,-0.155912,41.94154,-14.4734,-4.445818,1006.672
16.867197990,-2.008391,50.47711,-41.63804,-0.7314698,0.3621425,0.396949,42.3102,-14.85654,-5.745893,1006.672
16.899974346,18.55359,-5.601849,-16.34719,-0.9571592,0.7684205,0.6105965,42.3102,-14.85654,-5.745893,1006.672
16.932751179,0.5385605,2.552942,0.3911986,-0.3931748,0.8521266,0.4834973,41.9355,-14.10302,-4.016437,1006.672
16.965527534,-39.4051,21.40351,6.072477,-0.8909968,0.6496912,0.2664449,42.2793,-13.01058,-4.034096,1006.67
16.998303890,-67.67005,24.6536,2.346047,-0.6904123,0.2050574,0.170367,42.2793,-13.01058,-4.034096,1006.67
17.033601761,-63.57008,75.05967,-8.95542,-0.2019923,0.2157487,0.07003187,42.28002,-13.00463,-3.598984,1006.67
17.066377163,36.44437,151.762,-4.984635,-0.5591918,-0.1082198,-0.14332,42.65221,-13.35891,-2.78566,1006.669
17.099153519,109.1878,-83.66328,129.3501,-0.3329349,0.6857463,-3.485222,42.65221,-13.35891,-2.78566,1006.669
17.131930351,-55.18377,-25.16153,12.42574,-1.14191,0.1692062,0.1801564,42.65792,-13.3122,0.633075,1006.669
17.167227745,66.88355,1.311995,-0.8916707,-1.065361,0.2550676,0.2486801,41.94329,-14.03933,0.6454747,1006.673
17.200004101,-17.84919,42.4996,-34.18518,-1.144114,0.1156117,0.3901161,41.94329,-14.03933,0.6454747,1006.673
17.232780933,27.49898,45.21786,-48.60219,-1.172437,-0.0174249,0.4134892,42.67966,-14.39363,1.520489,1006.673
17.265557289,44.58219,34.10843,-15.61412,-0.8107147,0.5725976,0.2196786,42.29748,-13.28161,2.809103,1006.674
17.298332691,-17.2901,54.02267,-33.32994,-0.8384451,0.5508216,-0.00694417,42.29748,-13.28161,2.809103,1006.673
17.333630562,4.887015,33.75388,-34.18518,-0.9310998,0.3736554,0.3314585,43.00877,-12.16202,4.842215,1006.673
17.366406918,25.57323,17.73976,-4.190478,-0.7706199,0.5267818,0.5869315,42.62659,-11.05001,6.130829,1006.673
17.399183273,-0.8280966,-0.9335268,-11.21571,-0.7038346,0.3500904,0.2414218,42.62659,-11.05001,6.130829,1006.673
17.431960106,-51.51865,11.53503,-17.75224,-0.9857012,0.4925435,0.4743733,43.33582,-9.947405,6.920764,1006.673
17.464736462,-18.22191,-3.179049,-12.92621,-0.9799415,0.105654,0.4417288,42.97174,-9.946532,6.921234,1006.673
17.500033856,3.271874,-24.98425,-36.50657,-1.030058,0.1389803,0.3917358,43.32906,-9.582968,6.915034,1006.673
17.532809734,37.74891,-28.29344,-1.136027,-0.7747865,0.4717991,-0.3111967,43.32906,-9.582968,6.915034,1006.675
17.565586090,-35.86421,10.47136,-35.2237,-0.9739501,-0.06044966,-0.05913264,44.40641,-8.86775,6.0941,1006.675
17.598362446,12.27939,5.153019,-39.98864,-1.208642,0.04214559,0.1285191,43.65797,-7.772695,6.077849,1006.675
17.633660317,58.12452,14.25329,18.7179,-0.8890296,0.7576632,-0.1780194,43.65797,-7.772695,6.077849,1006.675
17.666436672,-48.41261,53.54993,-3.946121,-1.005076,0.54462,-0.2082302,44.00813,-6.97801,6.500076,1006.671
17.699213028,-4.493222,64.65936,52.1336,-0.7886136,0.8741906,0.2095444,43.99595,-6.238097,7.296681,1006.675
17.731989860,-90.09565,81.20531,38.02203,-0.7699718,0.409099,0.3319857,43.99595,-6.238097,7.296681,1006.675
17.764766216,18.11874,49.82709,34.78432,-1.202468,-0.231185,0.5270026,43.29357,-7.354739,9.926435,1006.673
17.800063133,48.24732,16.26244,25.07116,-0.9472039,0.04042973,0.5481304,41.87387,-9.150507,11.63525,1006.673
17.832839489,35.13984,-28.05707,-24.34985,-0.9567415,0.02135517,0.8283343,41.87387,-9.150507,11.63525,1006.673
17.865615845,87.44553,-74.14935,-16.2861,-0.8375366,0.3039005,0.6938071,41.16745,-10.23018,12.52361,1006.673
17.898392677,-7.847744,-68.29918,-23.37243,-0.4723336,0.8351247,0.3749229,42.24398,-9.521761,11.2054,1006.673
17.933690071,-20.20978,-44.42574,4.117629,-0.8004325,0.7710073,0.3738723,42.24398,-9.521761,11.2054,1006.673
17.966466427,-30.95667,-40.76199,35.82283,-0.6511694,0.627776,0.04833362,42.92804,-7.365754,9.056683,1006.675
17.999242306,13.45968,-46.61217,40.34342,-0.8650402,0.3664743,0.3399772,43.31553,-8.854094,6.903574,1006.675
18.032018662,6.377913,-38.57557,29.34739,-0.9930964,0.2735388,0.1565408,43.31553,-8.854094,6.903574,1006.675
18.064795017,0.6006812,-16.53399,29.22521,-0.9655553,0.393383,0.4783259,42.59882,-9.598206,5.672797,1006.675
18.100092888,41.84888,-14.34757,29.71393,-0.84842,0.2875226,0.1725429,42.98922,-11.06277,5.260136,1006.675
18.132869244,20.47933,-5.129107,19.2677,-0.9790581,0.300257,0.1997898,42.98922,-11.06277,5.260136,1006.675
18.165645599,18.86419,10.53045,22.74978,-0.9076045,0.4545611,0.10119,42.6319,-11.42633,5.266336,1006.675
18.198422432,-0.703855,21.52169,17.19068,-0.8406989,0.707071,0.1227933,43.01626,-12.52052,5.283056,1006.675
18.233719349,-31.88848,35.64484,41.87064,-0.7587813,0.7903796,0.2380003,43.01626,-12.52052,5.283056,1006.675
18.266495705,-62.82463,42.97234,54.14954,-0.6980295,0.6089236,0.475441,41.9518,-13.9697,5.742497,1006.675
18.299272060,-59.1595,22.52627,57.02072,-0.7265913,0.4085146,0.6861659,41.60405,-14.67478,7.432715,1006.675
18.332048416,-66.11703,-12.27932,58.91448,-0.7541552,0.3812698,0.793616,41.60405,-14.67478,7.432715,1006.675
18.364824772,-66.98672,-5.542756,22.13889,-0.7543632,0.4062934,0.4701037,40.5449,-16.50029,7.027663,1006.675
18.400122643,26.50504,-45.13485,-13.35383,-0.8855702,0.02678005,0.4021522,40.96211,-19.49438,5.830812,1006.675
18.432898998,36.07165,-56.42155,-9.993934,-1.005073,0.3976952,0.09524915,40.96211,-19.49438,5.830812,1006.675
18.465675354,-24.93096,-12.81116,-28.62609,-0.8940556,0.6655693,0.03200509,39.50904,-19.8842,3.725022,1006.675
18.498451233,17.62177,-21.91143,-30.09222,-0.841926,0.4520457,0.3609734,40.22836,-19.53849,2.475176,1006.679
18.533749104,25.57323,-45.60759,-36.44548,-0.9851922,0.5252474,0.6943051,40.21483,-18.80961,2.463716,1006.679
18.566525459,42.15948,-69.7765,-37.48399,-0.7361837,0.5552485,0.6469772,40.21483,-18.80961,2.463716,1006.678
18.599301815,51.85032,-82.89507,-27.03777,-0.583204,0.743813,0.6145603,41.28275,-17.68196,0.7037146,1006.678
18.632078171,24.2687,-71.60837,-18.24095,-0.4506863,0.5240304,0.4369547,41.25893,-16.61752,-1.426875,1006.678
18.664855004,15.44755,-59.37619,-17.20244,-0.5212584,0.6072436,0.5116078,41.25893,-16.61752,-1.426875,1006.678
18.700152397,13.33544,-56.36246,-21.90629,-0.5453905,0.7477187,0.5003819,42.3416,-16.27862,-3.112303,1006.676
18.732928276,13.77029,-65.81728,-9.383043,-0.6519589,0.8649883,0.6130967,42.32517,-15.57352,-4.86421,1006.676
18.765704632,-5.05231,-58.43071,-2.602163,-0.4656432,0.6910695,0.4526234,42.32517,-15.57352,-4.86421,1006.674
18.798480988,-3.49929,-41.41201,-12.13205,-0.4386888,0.5673749,0.3521413,41.94477,-14.8667,-6.553488,1006.674
18.833778858,-11.20227,-22.1478,-12.55967,-0.504939,0.4604623,0.3957821,41.57705,-14.89555,-8.728576,1006.674
18.866555214,-8.406832,6.512151,-26.61015,-0.2301496,0.2555121,0.2890584,41.57705,-14.89555,-8.728576,1006.672
18.899331570,-23.12946,34.81755,-58.86515,-0.417115,0.2667457,0.308258,41.92689,-14.17349,-9.175617,1006.672
18.932107925,21.2869,32.39474,-61.24762,-0.9236906,0.5691372,0.5583491,42.28566,-13.79804,-8.311594,1006.672
18.964884758,74.71077,28.14007,-38.5225,-0.6903655,0.4265199,0.3601709,42.28566,-13.79804,-8.311594,1006.672
19.000181675,-28.59608,89.95102,-57.33792,-0.3607584,0.4363917,0.1928231,42.96866,-11.2309,-7.047309,1006.672
19.032958031,55.51545,81.55986,-104.743,-5.905654,3.019153,1.743884,44.03207,-9.370571,-4.093745,1006.671
19.065734386,129.874,-51.57595,11.44831,0.7532635,-0.508914,0.8207454,44.03207,-9.370571,-4.093745,1006.672
19.098510742,7.558208,-16.17944,9.982175,-0.5487394,0.8323402,1.047089,45.88141,-7.535913,-2.881647,1006.672
19.133808613,41.35191,-18.77952,-18.60749,-0.9142885,0.06383963,0.4430802,44.38408,-8.630682,-3.235452,1006.672
19.166584969,26.13232,-8.201927,-16.2861,-0.9565343,0.2331686,0.2604891,44.38408,-8.630682,-3.235452,1006.672
19.199361324,6.937001,14.1942,-15.61412,-0.9956415,0.2883483,-0.02206067,43.64917,-8.2645,-3.240242,1006.672
19.232137203,30.17017,12.30323,-14.69779,-1.082163,0.1215538,-0.02064134,44.73526,-7.897586,-2.874429,1006.672
19.264913559,15.19906,18.68524,-17.81333,-0.9641196,0.3339556,0.1250925,44.73526,-7.897586,-2.874429,1006.671
19.300211430,-6.232604,33.5766,-22.88372,-0.900213,0.2360938,0.2632393,44.72995,-7.521262,-2.009935,1006.671
19.332987785,-13.31437,40.0177,-46.15863,-0.8516048,0.2645862,0.5201282,44.71748,-6.713816,-0.717015,1006.671
19.365764141,9.608193,27.37187,-46.21972,-0.9022031,0.3257564,0.622686,44.71748,-6.713816,-0.717015,1006.671
19.398540497,-3.437169,22.58536,-42.37111,-0.8571716,0.3519352,0.4810194,45.06948,-5.973927,0.1412783,1006.672
19.433838368,-21.94916,20.93077,-43.89834,-0.7930447,0.5267173,0.3944402,45.40111,-4.141576,0.9202228,1006.672
19.466614246,18.42934,7.575819,-18.85184,-0.7641268,0.609954,0.352849,45.36199,-1.943067,1.756066,1006.674
19.499390602,-39.52934,17.79885,-16.34719,-0.7129059,0.7403461,0.4820173,45.36199,-1.943067,1.756066,1006.674
19.532166958,-10.27046,8.284931,9.310195,-0.7294735,0.3493672,0.4484692,45.79424,-2.302577,2.19636,1006.674
19.564943314,-37.16875,5.034834,2.101691,-0.9375927,0.1308839,0.7973167,45.35804,-1.555703,3.428624,1006.672
19.600241184,13.70817,-23.32965,7.049901,-0.9822325,-0.1326499,0.5643593,45.35804,-1.555703,3.428624,1006.674
19.633017540,34.51863,-31.54354,-16.34719,-1.022933,-0.2200279,0.3046522,45.76792,-0.8388858,2.608551,1006.672
19.665793896,60.73359,-35.20728,-30.7642,-1.141385,-0.2327251,0.3020641,45.78748,-1.938141,2.190629,1006.672
19.698570251,25.32475,-28.70709,-34.55172,-1.034308,0.04535573,0.1704606,45.78748,-1.938141,2.190629,1006.672
19.733867645,-29.52789,-7.847371,-58.07099,-0.8679801,0.3508783,0.2018569,45.7569,-0.5092626,0.05431008,1006.671
19.766644001,-14.55679,-6.724609,-50.43486,-0.9276333,0.7262755,0.1874731,45.72913,0.9425406,-0.4037216,1006.671
19.799420357,2.153701,9.58497,13.28098,-0.7618027,1.221526,0.1179799,45.72913,0.9425406,-0.4037216,1006.671
19.832196712,-76.86392,25.30363,52.74449,-0.6950119,0.928773,0.2419727,45.69668,2.775765,0.3756928,1006.669
19.864973068,-75.93211,17.97613,62.64091,-0.6580386,0.5821853,0.7146233,45.68991,3.140202,0.3699629,1006.669
19.900270939,-11.82347,-5.897312,57.50943,-0.8840448,-0.3575094,0.678548,45.68991,3.140202,0.3699629,1006.671
19.933047295,38.9292,-23.80239,36.73917,-0.9247464,-0.0004195659,0.6001258,46.10277,0.6001577,1.279826,1006.671
19.965823650,-6.667449,-5.720034,30.69135,-0.8347864,0.0826559,0.2517627,46.14261,-1.592408,0.8790948,1006.672
19.998599529,39.98526,-1.819917,10.71524,-1.081941,0.08311597,0.2648636,46.14261,-1.592408,0.8790948,1006.677
20.031375885,28.55503,19.808,13.95296,-0.9244773,0.4310757,0.2461553,46.16154,-2.696757,0.08822036,1006.677
20.066673756,-0.2690096,36.94488,12.73118,-0.8004804,0.3651737,0.2854322,46.17715,-3.408649,1.342856,1006.678
20.099450111,-20.5825,38.71766,45.4138,-0.7427162,0.5967031,0.3826627,46.17715,-3.408649,1.342856,1006.678
20.132226467,-42.94598,30.79924,52.80558,-0.5819824,0.567398,0.2475443,46.54944,-3.762071,2.21834,1006.677
20.165002823,-19.21585,11.59412,39.61035,-0.6837137,0.5490652,0.6752625,45.85103,-5.195996,3.858329,1006.678
20.200300694,-8.096228,3.971166,39.73252,-0.7570916,0.5192648,0.4001425,45.85103,-5.195996,3.858329,1006.678
20.233076572,16.62784,4.443907,38.7551,-0.8446772,0.3717171,0.2990053,45.09673,-7.010347,4.323109,1006.678
20.265852928,-26.23549,8.462209,26.10967,-0.836818,0.3378341,0.3197362,45.13166,-8.893271,4.352714,1006.68
20.298629284,-25.86277,12.95325,22.0778,-0.9239377,0.2010954,0.2315784,45.13166,-8.893271,4.352714,1006.678
20.331405640,-3.623532,3.85298,6.439011,-0.7986792,0.2523767,0.4516677,45.16016,-10.33913,5.245857,1006.678
20.366703510,-8.220469,-0.7562487,-11.09354,-0.9494689,0.1424478,0.3732477,44.44625,-11.06032,5.693368,1006.682
20.399479866,1.097647,-6.370053,-35.46805,-0.902734,0.1341192,0.5902436,44.44625,-11.06032,5.693368,1006.682
20.432256222,59.30482,-19.48863,-42.982,-1.101548,0.1669468,0.297035,44.82167,-11.80789,4.399024,1006.684
20.465032578,56.50938,-25.87064,-53.06169,-0.8631917,0.5554336,0.0556846,45.16547,-10.71546,4.381363,1006.682
20.500329971,-27.47791,-2.942678,-57.58228,-0.9842968,0.4518239,0.1499935,45.50322,-9.252637,4.793085,1006.682
20.533106327,42.2216,-15.88398,-49.51853,-0.7402367,0.727327,0.1133787,45.50322,-9.252637,4.793085,1006.682
20.565882683,-0.08264726,5.684854,-41.14933,-0.9288601,0.6424731,0.2545116,46.61372,-7.013983,4.321151,1006.682
20.598659039,-12.94165,10.41227,-44.14269,-0.6932933,0.6293152,0.3204006,46.20834,-4.832432,3.852129,1006.682
20.631435394,29.11412,31.03561,-36.14003,-0.8818844,0.3363647,0.5128714,46.20834,-4.832432,3.852129,1006.684
20.666733265,21.16266,41.55411,-56.05505,-0.9034656,0.2323003,0.5621784,46.18275,-3.362797,4.699432,1006.686
20.699509621,78.37589,29.67648,-63.26355,-1.093207,-0.08922975,0.2179766,46.15861,-1.881273,6.416959,1006.684
20.732285976,67.00779,28.14007,-69.61681,-1.046911,0.05670156,0.276373,46.15861,-1.881273,6.416959,1006.684
20.765061855,62.65934,29.61739,-67.23434,-1.099405,0.009967419,-0.07771432,46.47671,0.6799521,7.184443,1006.684
20.800359726,41.66252,34.34481,-69.43354,-1.059573,0.2181319,-0.02709818,45.68803,4.034257,8.003082,1006.684
20.833136082,32.28228,43.91782,-58.86515,-1.064857,0.1891853,-0.05111011,45.68803,4.034257,8.003082,1006.684
20.865912437,34.51863,44.92239,-55.68852,-1.036587,0.1441202,-0.05207196,44.84801,6.975419,9.698707,1006.684
20.898688793,27.25049,45.98606,-47.56368,-1.016843,0.2381956,0.07530028,43.71053,9.54608,10.90318,1006.682
20.931465149,8.055174,48.1134,-31.92489,-0.9639679,0.2635894,0.09150289,43.71053,9.54608,10.90318,1006.682
20.966763020,34.51863,30.79924,-27.22104,-0.909247,0.1056572,0.006891469,42.57315,12.11759,12.16982,1006.682
20.999539375,85.20918,7.634912,-24.6553,-1.010294,0.1288061,0.02538799,42.1841,13.59319,13.39054,1006.682
21.032315254,108.5045,-5.483663,-6.450771,-0.9804946,0.05912229,0.05430405,42.1841,13.59319,13.39054,1006.682
21.065091610,78.12741,-11.57021,-8.588886,-0.941853,0.1507179,0.08247469,41.79163,15.04077,12.56003,1006.681
21.100389481,74.58652,-7.197351,0.6355547,-1.011093,0.071888,0.1058631,41.02563,16.90167,10.79092,1006.681
21.133165836,82.41374,-15.88398,8.943661,-0.9750774,0.04368761,0.1395155,41.02563,16.90167,10.79092,1006.681
21.165942192,48.62004,-27.99797,6.194655,-0.9591586,0.1174462,0.2914769,41.00931,17.60761,9.101169,1006.679
21.198718548,36.50649,-38.3392,13.89187,-0.9774826,0.05412772,0.2429982,41.36372,17.9474,7.354522,1006.679
21.231494904,60.60935,-50.68956,17.25177,-0.9322884,0.04092802,0.2515754,41.36372,17.9474,7.354522,1006.679
21.266792774,33.02773,-63.09903,14.8693,-0.9994027,0.1043821,0.3522436,42.09438,17.54641,4.810801,1006.679
21.299568653,80.05315,-72.90841,25.31552,-0.9999087,0.09193278,0.2434758,42.44827,17.88195,2.75336,1006.679
21.332345009,88.37734,-70.36742,22.01671,-0.942807,0.179269,0.2672768,42.44827,17.88195,2.75336,1006.681
21.365121365,92.60155,-65.16727,19.38988,-1.0224,0.158526,0.2516119,42.45067,17.48185,0.1484201,1006.681
21.400419235,114.8408,-68.47646,23.42176,-0.9220839,0.2280134,0.1781023,42.83474,15.96549,-4.055929,1006.683
21.433195591,42.09736,-35.79821,14.74712,-0.943974,0.2666161,0.2926601,43.2059,15.1831,-7.898785,1006.683
21.465971947,15.26118,-32.78448,14.68603,-1.028212,0.1632557,0.3084193,43.2059,15.1831,-7.898785,1006.683
21.498748303,44.27159,-49.86227,22.26107,-1.01087,0.2299351,0.3511188,42.84753,14.74096,-9.196965,1006.677
21.531524658,43.46402,-52.28507,10.77633,-0.9630121,0.09819882,0.2597452,42.87032,13.2484,-11.72256,1006.676
21.566822052,7.433967,-54.17603,0.3301096,-1.053235,0.2751656,0.3227508,42.87032,13.2484,-11.72256,1006.678
21.599598408,44.20947,-48.62132,-9.566311,-0.9698963,-0.1087833,0.05934559,42.51551,12.48558,-14.25914,1006.674
21.632374764,70.17595,-31.48444,-29.72569,-0.9588702,0.4017707,0.2756441,41.43327,11.73046,-16.35967,1006.674
21.665151119,19.05055,-22.50236,-35.04043,-1.102627,0.2142439,0.3061121,41.43327,11.73046,-16.35967,1006.68
21.700448990,106.4545,-31.07079,-42.61547,-1.110939,0.2188326,0.2055203,40.68941,12.44324,-17.67552,1006.678
21.733225346,82.47587,-40.46653,-48.84655,-1.059512,0.4731678,0.3681967,39.21667,13.15183,-19.42555,1006.678
21.766001701,87.38341,-49.68499,-55.74961,-0.9713906,0.3512672,0.2420546,39.21667,13.15183,-19.42555,1006.678
21.798778057,137.5149,-57.30795,-61.85851,-0.9345894,0.4020101,0.2808811,38.85437,12.74751,-22.40297,1006.678
21.831553936,112.1075,-59.84893,-75.17591,-0.8731206,0.266081,0.2005528,37.39381,12.71619,-24.94961,1006.676
21.866851807,212.9295,-71.72655,-78.84125,-0.8998408,0.2434112,0.05431635,37.39381,12.71619,-24.94961,1006.673
21.899628162,189.9448,-75.62667,-95.76291,-0.8618476,0.4360083,0.2498502,34.84705,12.3171,-27.92421,1006.673
21.932404518,162.4874,-70.5447,-99.97805,-0.9560264,0.2102839,0.1907249,32.27133,10.07899,-32.11326,1006.673
21.965180874,266.9124,-81.71322,-77.86382,-0.8733853,0.3862042,0.2456204,32.27133,10.07899,-32.11326,1006.673
22.000478745,155.8405,-68.53555,-81.28481,-0.7430317,0.5488502,0.5054827,29.38743,8.222181,-35.12663,1006.673
22.033255100,144.0997,-52.16688,-74.07631,-0.7840266,0.1911997,0.3212761,26.92326,3.461737,-37.16225,1006.67
22.066031456,186.466,-50.74866,-59.17059,-0.7224512,0.4600065,0.4516554,26.92326,3.461737,-37.16225,1006.674
22.098807812,111.7347,-45.25304,-50.00724,-0.7188216,0.596984,0.6045133,24.04953,1.198431,-38.80145,1006.669
22.131583691,57.44119,-32.6663,-38.33924,-0.7400443,0.5050737,0.4400764,23.05123,-3.907013,-39.15493,1006.673
22.166881561,114.7787,-35.03,-22.63936,-0.7941526,0.3902223,0.4480797,23.05123,-3.907013,-39.15493,1006.673
22.199657917,71.72897,-27.87979,-14.39234,-0.7834786,0.6280818,0.6017316,21.9314,-5.732378,-39.5599,1006.673
22.232434273,11.09909,-18.72042,-10.84918,-0.7013019,0.3411486,0.423384,20.88835,-8.335614,-39.08232,1006.673
22.265210629,37.87315,-17.89313,-10.23829,-0.6743236,0.4471458,0.505473,20.88835,-8.335614,-39.08232,1006.673
22.300508499,30.72926,-14.22938,-19.0962,-0.703356,0.3964644,0.4661466,19.83668,-10.51962,-39.04653,1006.673
22.333284855,42.34584,-16.59309,-21.17323,-0.684792,0.3534203,0.4873474,19.11456,-10.88825,-39.47497,1006.673
22.366061211,20.72781,-11.86567,-17.26353,-0.7165791,0.453692,0.5171161,19.11456,-10.88825,-39.47497,1006.673
22.398837090,28.49291,-13.16571,-10.97136,-0.7314999,0.3985492,0.5196414,19.13557,-11.97562,-39.02267,1006.671
22.431613445,49.36549,-11.33384,-7.733641,-0.6803692,0.3184159,0.4209617,18.77826,-12.33919,-39.01647,1006.671
22.466911316,16.93845,-3.297234,-14.57561,-0.7316041,0.4378343,0.4959958,18.06362,-13.06631,-39.00407,1006.671
22.499687672,30.97774,-4.124532,-11.76552,-0.8558885,0.4250014,0.4809063,18.06362,-13.06631,-39.00407,1006.669
22.532464028,75.02137,-16.00216,-7.79473,-0.9063836,0.4256511,0.4949846,18.07111,-13.42481,-38.56322,1006.669
22.565240383,50.42155,-17.53857,-2.78543,-0.8006722,0.5000806,0.5653818,18.09878,-14.87746,-38.16735,1006.667
22.598016739,14.76422,-12.39751,-5.106813,-0.758628,0.3558756,0.4389013,18.09878,-14.87746,-38.16735,1006.67
22.633314610,60.05027,-14.0521,-4.618101,-0.702973,0.4211276,0.3703176,18.12582,-16.33521,-38.14443,1006.668
22.666090489,40.29586,-2.174473,-9.810667,-0.6918691,0.4530516,0.395274,17.41264,-17.05045,-37.26181,1006.668
22.698866844,46.13521,-0.4607853,-13.35383,-0.8038982,0.3870767,0.3576115,17.41264,-17.05045,-37.26181,1006.668
22.731643200,30.72926,3.734795,-13.96472,-0.7713739,0.5953092,0.3567392,17.81125,-18.86756,-36.79852,1006.668
22.766941071,13.02484,8.757672,-8.711064,-0.8948793,0.4612944,0.3538646,17.83943,-20.38605,-36.77464,1006.668
22.799717426,34.76711,9.466784,0.6966437,-0.8630446,0.5471345,0.3329611,17.83943,-20.38605,-36.77464,1006.668
22.832493782,-47.54292,-15.7067,2.16278,-0.9409001,0.6899021,0.7160946,17.84088,-20.37416,-35.90442,1006.67
22.865270138,41.04131,-15.88398,11.02069,-0.7826827,0.4526035,0.3699778,18.22669,-21.45646,-35.01748,1006.67
22.898046494,-6.356845,-4.951829,9.921085,-0.8077875,0.4142511,0.4880288,18.22669,-21.45646,-35.01748,1006.67
22.933344364,11.16121,-19.90228,5.828121,-0.7432799,0.2388889,0.4765874,17.86938,-21.82002,-35.01128,1006.668
22.966120243,41.66252,-38.87103,-3.335231,-0.8090246,0.3570647,0.670554,17.51206,-22.18359,-35.00507,1006.67
22.998896599,78.93498,-59.43528,-15.36977,-0.8014492,0.2450073,0.7260615,17.51206,-22.18359,-35.00507,1006.67
23.031672955,40.79282,-82.36324,-16.04175,-0.9362389,0.8167256,0.9483901,16.0699,-22.90388,-34.61879,1006.67
23.066970825,22.34295,-95.6,5.828121,-0.804648,0.5617635,0.6856387,14.64677,-24.72766,-34.9612,1006.67
23.099747181,34.33226,-88.86343,24.82681,-0.5294511,0.7904815,0.5373446,14.64677,-24.72766,-34.9612,1006.67
23.132523537,-13.00377,-57.89887,38.7551,-0.4952384,0.6679672,0.3877446,12.11238,-25.44534,-34.57351,1006.67
23.165299892,-5.176551,-32.90267,42.05391,-0.426243,0.636407,0.3187938,8.422369,-26.18232,-35.80045,1006.668
23.198076248,-71.95638,5.271205,24.94898,-0.3928932,0.7014543,0.3176539,8.422369,-26.18232,-35.80045,1006.668
23.233374119,-35.11876,23.47175,5.522676,-0.5167879,0.2860788,0.1265105,6.608743,-26.54239,-35.79237,1006.668
23.266149998,-16.04769,17.03065,4.05654,-0.6774706,0.7707775,0.6132991,5.844602,-24.7363,-37.12541,1006.668
23.298926354,-14.49467,-10.8611,14.38058,-0.7329115,0.6007761,0.6064665,5.844602,-24.7363,-37.12541,1006.668
23.331702709,3.458237,-20.43411,17.12959,-0.5865066,0.4811207,0.523024,6.195157,-24.0083,-37.13734,1006.668
23.367000580,-25.98701,-12.33842,6.377922,-0.5556769,0.3825732,0.5322452,6.559235,-24.00917,-37.13781,1006.668
23.399776936,25.63535,-0.7562487,-0.2196915,-0.5196397,0.3097552,0.3830474,5.810796,-22.91411,-37.15406,1006.668
23.432553291,-11.0159,27.9037,-29.17589,-0.5000964,0.4678752,0.4053867,5.810796,-22.91411,-37.15406,1006.668
23.465329647,13.83241,34.75845,-24.6553,-0.790708,0.5919926,0.5334498,5.104378,-23.99379,-36.26571,1006.672
23.498106480,20.60357,39.36768,-14.75888,-0.6975811,0.6164255,0.4330688,6.183088,-23.26753,-36.27858,1006.674
23.533403874,-39.52934,54.96815,-14.33125,-0.6457558,0.4688523,0.4408701,6.183088,-23.26753,-36.27858,1006.672
23.566179752,-35.80209,64.00934,-16.89699,-0.6716754,0.3091714,0.2717329,8.37504,-23.63126,-35.84055,1006.672
23.598956108,-65.86855,-91.5817,118.7206,-0.770003,0.1313413,0.9418083,10.53922,-22.54319,-35.86056,1006.672
23.631732464,-63.07311,45.04058,42.84806,-0.9629615,0.9233052,0.4082049,10.53922,-22.54319,-35.86056,1006.672
23.667030335,10.47788,5.271205,32.15749,-0.7206104,0.06749102,0.3150544,9.796816,-21.81851,-36.30619,1006.672
23.699806690,41.28979,-3.00177,17.67939,-0.7433237,0.4887345,0.6158059,9.074695,-22.18715,-36.73464,1006.671
23.732583046,-32.63393,17.79885,35.4563,-0.8334708,0.3582673,0.3124771,9.074695,-22.18715,-36.73464,1006.671
23.765359402,-4.368981,11.83049,20.30622,-0.7086355,0.365056,0.4382876,8.724868,-22.9092,-36.2876,1006.671
23.798136234,-12.63104,2.612034,5.644854,-0.5398547,0.7134342,0.7463964,7.996713,-22.90746,-36.28666,1006.668
23.833433628,-23.37794,10.9441,7.782969,-0.5842949,0.6131407,0.7351003,7.996713,-22.90746,-36.28666,1006.668
23.866209507,0.1658359,9.939527,19.63424,-0.5119555,0.8242074,0.7437564,7.982464,-22.18453,-36.73323,1006.668
23.898985863,-22.19764,10.35318,20.30622,-0.504124,0.7605869,0.5503263,8.704584,-21.8159,-36.30479,1006.67
23.931762218,-51.02168,28.731,25.07116,-0.6050213,0.7067671,0.4962529,8.704584,-21.8159,-36.30479,1006.67
23.967060089,-30.45971,21.75806,38.63292,-0.5923567,0.6761745,0.4240647,8.703131,-21.82778,-37.17501,1006.672
23.999836445,-37.66571,27.72643,29.71393,-0.7773455,0.4586464,0.3920987,9.053684,-21.09978,-37.18694,1006.672
24.032612801,15.75815,-4.892736,12.24247,-1.094205,-0.0724814,0.2463541,9.053684,-21.09978,-37.18694,1006.668
24.065389156,-5.611396,-13.57936,-16.59155,-1.041588,0.1282007,0.6064668,9.031947,-20.01836,-38.07435,1006.67
24.098165989,48.74429,-15.05668,-28.68717,-0.6613839,0.5511729,0.6713554,9.025913,-19.64798,-37.64497,1006.67
24.133463383,16.193,4.916649,-32.71905,-0.5298443,0.9156587,0.3287272,9.025913,-19.64798,-37.64497,1006.668
24.166239262,-7.785624,53.07719,8.332771,-0.6131257,1.158555,-0.01128272,9.040162,-20.37091,-37.1984,1006.672
24.199015617,-31.82636,72.51868,42.35936,-0.5023177,0.945854,0.1553262,9.782566,-21.09558,-36.75277,1006.674
24.231791973,-88.97748,72.75505,22.0778,-0.7136088,0.6273445,0.481708,9.782566,-21.09558,-36.75277,1006.674
24.267089844,-20.52038,31.86291,-16.10284,-0.8302484,0.1085676,0.750885,11.22463,-20.37614,-37.20122,1006.672
24.299866200,71.232,-2.233566,-38.27815,-0.9933082,-0.09037107,0.9845507,13.44087,-18.86898,-37.66311,1006.672
24.332642555,82.60011,-7.020073,-50.49595,-0.7759308,0.2928448,0.5006517,13.44087,-18.86898,-37.66311,1006.672
24.365419388,2.774908,14.07601,-74.68719,-0.7686586,0.4993084,0.4858824,14.515,-17.76046,-36.37637,1006.672
24.398195744,22.46719,10.76682,-72.4269,-0.9242639,0.1854066,0.4973145,14.91546,-19.63236,-35.47701,1006.672
24.433493137,79.05923,-4.774551,-72.06037,-0.8283415,0.2842986,0.5253383,17.10732,-19.99694,-35.10115,1006.675
24.466269016,-4.617464,16.85337,-66.56236,-0.6807612,0.6921266,0.4430235,17.10732,-19.99694,-35.10115,1006.675
24.499045372,11.16121,9.939527,-38.33924,-0.703076,0.6690349,0.3709069,18.55228,-19.25373,-33.80915,1006.673
24.531821728,15.63391,-6.901887,-60.69781,-0.9403593,0.1629294,0.2258985,19.28044,-19.25547,-33.81009,1006.673
24.567119599,119.0029,-39.9347,-68.82265,-0.9856702,0.2167313,0.1729751,19.28044,-19.25547,-33.81009,1006.673
24.599895954,83.96677,-18.77952,-21.47867,-0.8937191,0.5425342,0.1284621,20.72355,-18.45746,-32.95416,1006.673
24.632672310,-36.36118,20.81258,-24.59421,-0.8144068,0.5200168,0.3670633,20.76066,-20.32256,-31.61922,1006.673
24.665449143,-0.8902174,-0.2835072,-18.24095,-0.8377766,0.3673224,0.499242,20.76066,-20.32256,-31.61922,1006.673
24.698225498,13.45968,1.075625,3.201293,-0.871516,0.4355927,0.3418138,21.4962,-20.68364,-31.24148,1006.673
24.733522892,23.21264,8.69858,-0.4640476,-0.8852717,0.4546939,0.09343502,21.50224,-21.05402,-31.67086,1006.675
24.766299725,5.32186,14.84422,0.3911986,-1.09453,0.1921447,-0.1502047,21.50224,-21.05402,-31.67086,1006.673
24.799075127,-0.6417342,29.26283,-11.94878,-1.100531,0.0312793,-0.3035024,21.50972,-21.41252,-31.23002,1006.675
24.831851482,4.762774,49.23616,-17.44679,-1.0583,-0.0316845,0.3968737,22.23933,-21.40237,-30.36073,1006.675
24.867149353,40.54434,43.38599,-29.23697,-0.9240171,0.06449829,0.4094069,22.23933,-21.40237,-30.36073,1006.675
24.899925709,38.30799,39.13131,-65.89038,-1.018324,0.1241824,0.4908908,23.76526,-21.75261,-29.05163,1006.675
24.932702064,37.18982,45.21786,-37.85052,-0.811305,0.7068481,0.6859172,25.58918,-21.72811,-26.94058,1006.673
24.965478897,-17.91131,25.42181,7.844059,-0.4304396,1.232574,0.6081663,25.58918,-21.72811,-26.94058,1006.675
24.998255253,-29.21729,2.021107,7.355346,-0.7744559,0.4825469,0.4637787,27.03269,-20.99678,-26.51881,1006.675
25.033552647,32.09592,-30.1844,21.03929,-0.960441,0.2631011,0.3673155,28.12565,-20.99346,-26.0851,1006.675
25.066329479,-61.64434,-0.04713649,10.34871,-0.9659403,0.06359025,0.04896781,28.12565,-20.99346,-26.0851,1006.675
25.099105835,-14.55679,-0.9926193,12.24247,-1.08118,0.02631587,0.5706121,27.39822,-20.98577,-25.64905,1006.679
25.131881237,-3.747773,-20.4932,6.439011,-0.8814108,0.3326449,0.4676279,26.66789,-21.00185,-26.95345,1006.678
25.167179108,-44.74748,-25.27971,9.615641,-0.7598259,0.4998236,0.6894767,26.66789,-21.00185,-26.95345,1006.678
25.199955463,8.241536,-48.0304,19.14553,-0.7748432,0.4861081,0.696272,26.30454,-20.99504,-26.51787,1006.678
25.232731819,-26.17337,-31.18898,44.55856,-0.6185507,0.6723341,0.4636043,25.93079,-20.6535,-28.26357,1006.679
25.298285008,9.608193,7.575819,42.6648,-1.191259,0.009947855,-0.2503053,24.49269,-21.7603,-29.48768,1006.679
25.333582401,-11.76135,33.51751,20.61166,-1.271983,-0.08501383,0.05858218,22.96145,-21.03374,-29.93229,1006.679
25.366359234,32.53076,25.30363,-0.8916707,-1.202745,-0.1941081,0.1158644,22.96145,-21.03374,-29.93229,1006.679
25.399135590,52.84426,7.871283,-25.7549,-1.036778,-0.08158447,0.4792106,22.98392,-22.10922,-28.60977,1006.679
25.431911945,77.56832,-20.78867,-38.70577,-0.9172063,-0.07615054,0.7667732,23.78908,-22.81705,-26.92104,1006.679
25.464687824,71.60473,-47.73493,-55.93287,-0.7307556,0.1419771,0.8131756,23.78908,-22.81705,-26.92104,1006.682
25.499985218,127.9483,-80.59045,-37.78944,-0.8896711,0.5496786,0.5207515,23.79729,-23.16961,-26.04508,1006.679
25.532762051,26.87777,-88.62706,-29.05371,-1.217477,1.844797,0.7857701,24.55322,-24.62315,-25.58799,1006.679
25.565538407,-26.23549,-84.78604,40.28233,-0.8276011,1.151978,0.2814225,24.21681,-26.07493,-25.19165,1006.679
25.598314762,-83.13812,-81.0041,68.99417,-0.706553,0.6556572,0.1321799,24.21681,-26.07493,-25.19165,1006.679
25.633612633,-22.63249,-59.61256,41.25975,-0.4897588,0.3403336,0.05175354,21.23925,-26.10262,-27.73633,1006.678
25.666388989,-5.176551,-32.54811,39.85471,-0.6059735,0.4211575,0.1178539,18.67969,-25.76689,-30.28728,1006.678
25.699165344,-34.80816,-27.46614,60.13626,-0.7843294,0.7840066,0.6130513,18.67969,-25.76689,-30.28728,1006.678
25.731941700,-9.02804,-18.83861,64.16814,-0.4771794,0.219027,0.3821207,16.49523,-25.76165,-30.28446,1006.678
25.764718056,-3.872015,-15.58851,33.86798,-0.3141696,0.4868962,0.3957712,13.95064,-26.14291,-31.95373,1006.678
25.800014973,9.608193,-4.833644,20.36731,-1.036365,0.5900717,0.6226059,13.95064,-26.14291,-31.95373,1006.68
25.832791805,-25.86277,-23.68421,34.35669,-0.7593192,0.6941118,0.6829249,12.15116,-27.22676,-31.56124,1006.68
25.865568161,-17.22798,-6.251868,24.70463,-0.6237936,0.404101,0.3480128,11.36098,-27.23591,-32.36828,1006.68
25.898344517,-48.59897,59.22282,4.728518,-0.3834584,0.138068,-0.0266557,11.36098,-27.23591,-32.36828,1006.678
25.933642387,-11.20227,103.4242,-48.78546,-0.6809434,0.08568379,0.08195386,10.26875,-27.23329,-32.36687,1006.677
25.966418743,-30.64607,111.7562,-51.71773,-0.8205498,0.8367703,0.2597382,11.33924,-26.15449,-33.25569,1006.677
25.999195099,26.31868,26.07183,171.5015,-0.302698,0.2330951,-0.2561187,11.33924,-26.15449,-33.25569,1006.677
26.031971455,178.9494,55.26361,32.6462,-0.7693492,0.1248528,0.2178485,16.12824,-25.78456,-32.02443,1006.677
26.064747810,32.28228,-10.38836,62.82418,-0.6428721,0.29517,0.5349905,14.26667,-23.59867,-32.42942,1006.677
26.100045681,130.9301,13.48509,69.72723,-0.7087209,0.7460638,0.1084621,14.26667,-23.59867,-32.42942,1006.677
26.132821560,88.06673,60.52287,24.33809,-0.6580912,0.5217463,0.2877466,12.86652,-26.49369,-31.13852,1006.677
26.165597916,27.8717,57.92279,1.55189,-0.6851272,0.5280071,0.6603753,12.21169,-30.08961,-27.66155,1006.675
26.198374271,101.7333,27.01731,4.423073,-0.7879677,0.4680923,0.5726203,12.21169,-30.08961,-27.66155,1006.675
26.233672142,105.6469,7.339449,-23.0059,-0.8700998,0.4208231,0.177207,12.24267,-31.58517,-25.95938,1006.675
26.266448498,-20.02342,40.845,-66.13474,-0.8299839,0.3702843,0.565647,12.99619,-32.63862,-22.89735,1006.677
26.299224854,60.17451,-42.12112,-63.93553,-1.108344,0.2452284,0.7065719,12.99619,-32.63862,-22.89735,1006.677
26.332001209,107.5727,-41.11655,-42.67656,-0.4613225,1.179233,-0.3019351,14.85319,-34.44225,-21.19276,1006.677
26.364777565,-54.0656,81.97351,-28.32064,-0.3486356,1.119092,-0.5413485,16.66223,-33.6999,-19.90124,1006.675
26.400075436,-23.62642,80.14164,16.27434,-0.5948078,0.7712295,-0.1917344,17.75519,-33.69658,-19.46754,1006.675
26.432851791,-52.94743,79.6098,1.490801,-1.020569,0.4229934,0.3200437,17.75519,-33.69658,-19.46754,1006.673
26.465628147,-8.841677,28.90828,10.71524,-1.22747,0.1280687,0.8110052,19.56954,-33.33056,-19.0405,1006.676
26.498404026,2.526425,-11.98386,9.921085,-0.6808692,0.4888999,0.2142018,20.64077,-32.24581,-19.49422,1006.674
26.533701897,-56.36407,15.31696,-23.25025,-1.02486,0.3463913,0.09537341,20.64077,-32.24581,-19.49422,1006.674
26.566478253,-67.98065,12.48051,-22.57827,-1.197229,0.1192966,0.003221704,19.55384,-32.61952,-20.3573,1006.672
26.599254608,46.13521,-15.35214,-26.73232,-0.9078586,0.3414914,0.02049222,20.62434,-31.54071,-21.24612,1006.672
26.632030964,35.6368,-8.320112,-34.1241,-0.8617356,0.7807123,0.1622039,20.62434,-31.54071,-21.24612,1006.672
26.664807320,-38.34904,19.45345,-26.36579,-0.840188,0.5180681,0.2578583,21.33366,-30.43726,-20.39403,1006.67
26.700105190,19.23691,-24.51151,-33.32994,-0.9298418,0.2523738,0.3287502,22.42589,-30.43987,-20.39544,1006.669
26.732881546,10.78849,-36.50732,-33.02449,-0.834438,0.5553048,0.2828193,22.42589,-30.43987,-20.39544,1006.67
26.765657902,-0.5796135,-22.02961,-31.92489,-0.8105646,0.3067374,0.2287435,23.13867,-29.65795,-20.8439,1006.67
26.798434257,41.41403,-48.0304,-27.52648,-0.8601147,0.4958884,0.1039032,23.55594,-29.30048,-21.28529,1006.67
26.833731651,19.85812,-25.69336,-6.450771,-0.8082083,0.5187854,0.1124101,23.55594,-29.30048,-21.28529,1006.674
26.866508007,61.78965,-22.38417,12.42574,-0.6859105,0.7162709,-0.07109507,23.54991,-28.9301,-20.85591,1006.674
26.899284363,22.71568,-10.09289,11.57049,-0.9639089,0.6357509,0.03029026,23.57019,-30.02341,-20.83872,1006.674
26.932060719,8.55214,10.64864,17.25177,-0.7663245,0.5104865,0.339526,23.57019,-30.02341,-20.83872,1006.674
26.964837074,20.10661,-11.03838,6.744456,-1.069203,0.05719821,0.3746229,22.78354,-30.00368,-19.53237,1006.674
27.000134945,31.78531,-16.23853,-6.634038,-0.7727316,0.3528843,0.3758809,22.44763,-31.5213,-19.50802,1006.676
27.032911301,-1.449304,-11.33384,-9.688489,-0.8752505,0.5975168,0.4489223,22.44763,-31.5213,-19.50802,1006.678
27.065687656,32.96561,-27.58433,6.744456,-0.6952263,0.5678126,0.02301632,20.98529,-31.14743,-19.07676,1006.68
27.098464012,42.09736,-8.438298,12.609,-0.7969244,0.4418879,-0.03335337,22.45574,-31.8747,-18.69423,1006.68
27.133761883,-0.7659758,9.289507,25.01007,-0.5805741,0.9651646,0.08472252,22.45574,-31.8747,-18.69423,1006.682
27.166538239,-64.75037,40.49044,42.60371,-0.838065,0.6618299,0.3375426,22.09239,-31.86788,-18.25865,1006.682
27.199314117,21.2869,19.0398,27.0871,-0.8993223,0.4454635,0.1136994,20.6496,-32.59327,-18.24531,1006.68
27.232090473,37.18982,30.26741,18.29028,-1.085582,0.307083,-0.1614705,20.6496,-32.59327,-18.24531,1006.68
27.300164700,14.76422,34.81755,-0.5251366,-0.9099298,0.4116925,0.1027042,19.94536,-33.65511,-16.05162,1006.682
27.332941055,42.96705,10.29408,-5.656614,-0.9747459,0.270084,-0.08225293,19.94536,-33.65511,-16.05162,1006.682
27.365717411,2.402184,24.47633,-6.51186,-0.7822268,0.6198254,0.1131589,21.04436,-34.02217,-16.0473,1006.682
27.398493767,15.44755,20.16256,-10.48265,-0.8698507,0.4772331,-0.04574907,21.40302,-33.64756,-15.24544,1006.68
27.433791638,-31.76424,20.81258,-24.77748,-0.9159722,0.5315263,0.2532041,22.13794,-34.01374,-15.24065,1006.68
27.466567993,10.85061,16.43972,-11.70443,-0.814223,0.624405,0.2499346,22.13794,-34.01374,-15.24065,1006.68
27.499344349,-30.89455,25.54,-4.373745,-0.7617046,0.6482807,0.5385911,22.84727,-32.91029,-14.38855,1006.682
27.532121182,-121.4045,18.74434,0.5133767,-0.7468345,0.5566691,0.7240182,23.63537,-32.91813,-14.82468,1006.682
27.564897537,-71.14881,-18.30677,-13.41492,-1.20353,0.2133798,0.5133383,23.63537,-32.91813,-14.82468,1006.682
27.600194454,40.66858,-71.54928,-21.53976,-1.286931,0.9610295,0.4093979,23.19283,-32.22305,-17.38411,1006.682
27.632970810,-109.0425,-99.20465,15.72454,-1.111925,0.8757303,0.3994841,23.58909,-30.7782,-18.2778,1006.682
27.665747166,-4.244739,-127.2737,39.42708,-0.5902244,0.7751212,0.2924988,23.58909,-30.7782,-18.2778,1006.682
27.698523998,-12.5068,-114.5687,40.40451,-0.4646311,0.8053465,0.07554253,22.05964,-30.45683,-21.7003,1006.682
27.731300354,-32.38545,-75.15393,30.14155,-0.295632,0.5681794,-0.05446852,19.14276,-30.48467,-24.24506,1006.682
27.766597748,-32.32333,-41.82566,25.43769,-0.5444847,0.7088125,0.1572275,19.14276,-30.48467,-24.24506,1006.682
27.799374580,0.1037151,-55.12152,27.94234,-0.6314315,0.5106301,0.1278881,15.49981,-30.49377,-25.54569,1006.68
27.832150936,31.35047,-56.71702,12.609,-0.3790953,0.5895548,0.1781949,14.04818,-30.8717,-26.78126,1006.68
27.864927292,-48.90958,-29.53438,-17.44679,-0.5749797,0.2832548,0.2806885,14.04818,-30.8717,-26.78126,1006.678
27.900225162,24.02021,-33.31631,-29.48133,-0.9870212,0.6502368,0.5304582,12.24059,-31.60216,-27.20256,1006.676
27.933001518,-10.08409,-42.77114,-5.473347,-0.8039179,0.8438842,0.5624645,11.43075,-30.5129,-27.65384,1006.674
27.965776920,-23.81278,-1.22899,4.423073,-0.5539804,0.4403661,0.2962869,11.43075,-30.5129,-27.65384,1006.679
27.998553753,-70.65185,23.82631,-10.05502,-0.6173084,0.1048021,0.2334031,10.70114,-30.52304,-28.52313,1006.679
28.031330109,5.818827,42.38141,-25.38837,-0.6014028,-0.0731896,0.1123304,10.32106,-29.74359,-29.34314,1006.679
28.066627502,15.50967,61.58654,-55.99396,-0.8337983,0.2485898,0.08929131,10.32106,-29.74359,-29.34314,1006.679
28.099404335,-95.06532,-66.76277,-55.62743,-3.353697,1.620303,3.499316,12.1886,-29.01923,-29.35702,1006.679
28.132180691,224.4218,45.27695,-1.502561,-1.105335,-0.06693425,0.3570853,14.71967,-27.9091,-27.69922,1006.679
28.164957047,-46.79747,22.58536,-26.97668,-0.592679,0.3357493,0.07655401,14.71967,-27.9091,-27.69922,1006.679
28.200254917,29.48684,32.57203,-17.9966,-0.8762677,0.5472758,0.08894186,14.00576,-28.63029,-27.25171,1006.679
28.233031273,13.58392,50.94985,-18.05769,-0.8172473,0.4478838,0.1529728,14.74816,-29.35496,-26.80607,1006.679
28.265807629,19.73388,45.45423,-25.14401,-1.007882,0.2104165,0.4122741,14.74816,-29.35496,-26.80607,1006.679
28.298583984,-12.63104,47.10883,-28.99262,-0.92958,0.1786842,0.5175545,16.94147,-29.70765,-25.55999,1006.679
28.331360340,2.09158,42.85415,-28.01519,-0.9200024,0.2125339,0.4009911,18.39247,-29.33482,-24.69737,1006.681
28.366657257,-16.29617,31.21289,-27.89302,-0.7609075,0.4970703,0.434843,19.47939,-28.96111,-23.83429,1006.681
28.399434090,-36.1127,26.60366,-30.94747,-0.8471348,0.4126542,0.4457647,19.47939,-28.96111,-23.83429,1006.681
28.432210446,-4.30686,-3.474512,-18.60749,-0.7545716,0.5106294,0.5561107,21.65033,-28.23747,-23.84857,1006.68
28.464986801,-20.83099,-4.419995,-3.640676,-0.7607517,0.4323258,0.4392725,22.36351,-27.52223,-24.73119,1006.68
28.500284672,-0.5174927,-5.660941,7.172079,-0.8941467,0.3545392,0.3395829,22.36351,-27.52223,-24.73119,1006.678
28.533061028,4.327928,5.507576,-20.62342,-1.136325,-0.1759769,-0.018139,22.35675,-27.15779,-24.73692,1006.678
28.565837383,58.31088,-2.647214,-35.10152,-1.238983,-0.03956335,0.2514615,22.34323,-26.42892,-24.74838,1006.678
28.598613739,19.4854,25.95364,-24.83857,-0.97581,0.3327754,0.03943964,22.34323,-26.42892,-24.74838,1006.678
28.631390095,-15.7992,36.05849,-52.08427,-0.8700466,0.6358204,0.3477663,23.07429,-26.40689,-23.00887,1006.678
28.666687966,-7.599261,38.4222,-6.572949,-0.8024215,0.8364388,0.6106083,24.21971,-26.05116,-23.4512,1006.676
28.699464321,-27.91276,20.39893,41.07648,-0.4675632,1.123766,0.6243033,24.21971,-26.05116,-23.4512,1006.676
28.732240677,-66.9246,6.216688,49.20132,-0.6018763,0.8584067,0.7270705,26.38452,-24.95799,-23.09826,1006.676
28.765017033,-32.57181,-30.30259,57.63161,-0.7199884,0.2615688,0.5583295,25.29166,-24.96047,-23.4698,1006.676
28.800314426,-3.002324,-33.4936,26.72056,-1.211831,-0.6329436,0.2652882,25.29166,-24.96047,-23.4698,1006.676
28.833090782,57.7518,-47.32128,17.19068,-1.315675,-0.4761825,0.1704699,24.21077,-25.70455,-24.76227,1006.676
28.865867138,-29.03093,-22.08871,-25.32728,-0.9419146,0.2336134,0.3769433,23.0511,-25.33735,-24.76651,1006.674
28.898643494,64.3366,-40.88018,-31.68054,-1.049088,0.01110219,0.585481,23.0511,-25.33735,-24.76651,1006.674
28.931419849,6.688518,-17.53857,-33.39103,-0.91022,0.5576836,0.2257134,21.24954,-26.43819,-25.61719,1006.674
28.966717720,-21.45219,24.23996,-10.727,-0.7250212,0.8825371,0.2127505,21.99195,-27.16286,-25.17156,1006.676
28.999494076,-41.08236,30.20832,12.67009,-0.5366364,1.331385,0.3772157,21.99195,-27.16286,-25.17156,1006.676
29.032270432,-29.27941,28.61281,52.19469,-0.4937003,1.010179,0.2201926,22.34323,-26.42892,-24.74838,1006.678
29.065046787,5.756706,22.17171,55.61567,-0.8296138,0.5048362,-0.04684883,23.49469,-26.44357,-25.62009,1006.678
29.133121014,-39.09449,54.43632,56.04329,-1.072558,-0.1724547,0.341763,22.3425,-26.43486,-25.18349,1006.678
29.165897369,14.7021,14.07601,26.5373,-1.069065,-0.1552895,0.6348782,21.27804,-27.88405,-24.72405,1006.68
29.198673248,15.26118,-17.24311,-0.09751347,-0.8903067,0.2346877,0.6795958,21.27804,-27.88405,-24.72405,1006.68
29.231449604,15.94451,-23.97967,-8.466708,-0.7772024,0.4366453,0.5899712,21.65106,-28.23153,-23.41346,1006.68
29.266747475,63.71539,-35.26637,-13.35383,-0.8202003,0.4618895,0.1394806,20.22179,-29.68578,-23.38866,1006.678
29.299523830,20.10661,-15.35214,-13.35383,-0.8371517,0.813961,-0.05884954,20.22179,-29.68578,-23.38866,1006.678
29.332300186,-18.40828,19.27617,1.735157,-0.8837475,0.7921411,-0.128985,20.57984,-29.31628,-22.95974,1006.68
29.365076542,-16.9795,33.93116,11.32613,-0.8129054,0.8045667,-0.1782706,20.23114,-30.09907,-22.51175,1006.678
29.400374413,-38.03844,50.47711,16.82414,-0.8416498,0.707381,0.1685245,19.85844,-29.67897,-22.95307,1006.678
29.433150768,-28.90669,58.21825,17.74048,-0.7968882,0.4732739,0.2077615,19.85844,-29.67897,-22.95307,1006.678
29.465927124,-21.94916,56.85912,17.0685,-0.8681529,0.2845538,0.5398731,21.67956,-29.67739,-22.52031,1006.677
29.498703957,-38.2248,42.67687,4.300896,-0.804513,0.3047601,0.707687,21.30934,-29.30698,-22.15262,1006.677
29.531480312,4.887015,9.112228,-14.20908,-0.842317,0.2519956,0.5894412,21.30934,-29.30698,-22.15262,1006.677
29.566777706,38.37011,-14.0521,-27.03777,-0.8731598,0.3326568,0.4594252,22.38743,-28.58582,-22.53844,1006.677
29.599554539,37.56255,-9.029224,-33.32994,-0.9766737,0.331422,0.2661651,22.39482,-28.94516,-22.15976,1006.677
29.632329941,13.02484,-2.529029,-42.85983,-0.9776338,0.3664484,0.4716561,22.39482,-28.94516,-22.15976,1006.677
29.665106297,-79.53512,10.05771,-37.9727,-1.126013,0.2906218,0.5318111,23.54314,-28.56566,-20.86164,1006.677
29.700404167,-6.915933,-31.95718,-47.4415,-1.363493,0.6860588,0.3912208,24.998,-28.58104,-21.73375,1006.677
29.733180523,-80.09421,-98.31826,-25.14401,-1.234979,0.9664538,0.4265954,24.998,-28.58104,-21.73375,1006.677
29.765956879,19.60964,-108.364,-7.977997,-0.7185205,1.009278,0.2207272,24.96139,-26.78178,-23.44068,1006.677
29.798735619,-26.8567,-87.74067,23.54394,-0.6002204,0.899396,0.3159219,23.83037,-24.99773,-26.45155,1006.681
29.831510067,-64.99886,-52.75781,36.67807,-0.5012902,0.5512641,0.3518327,23.83037,-24.99773,-26.45155,1006.681
29.866807461,-34.87028,-48.50314,39.24381,-0.5350271,0.4311768,0.2827776,21.21751,-25.0212,-28.62374,1006.679
29.899584293,5.943068,-51.81232,27.27036,-0.4571088,0.1065573,0.1531144,18.65941,-24.67358,-30.30446,1006.676
29.932360649,23.83385,-41.70748,19.8175,-0.4745422,0.1101807,0.2749348,18.65941,-24.67358,-30.30446,1006.676
29.965137005,-5.487155,-33.02085,12.609,-0.5630152,0.3907466,0.4557138,17.19416,-24.32348,-31.61365,1006.674
30.000434875,26.62929,-16.53399,11.08178,-0.5026144,0.2952192,0.3734016,15.39343,-25.41753,-31.96707,1006.674
30.033211231,-3.561411,11.23956,-9.810667,-0.6793671,0.2769796,0.2742065,15.39343,-25.41753,-31.96707,1006.674
30.065987110,-27.54003,33.34023,-20.98996,-0.6519052,0.1692942,0.3041481,13.58043,-25.7725,-31.58603,1006.674
30.131539822,3.023391,41.90867,-33.20776,-1.0792,0.1481206,0.2243247,14.30931,-25.76831,-31.15186,1006.674
30.166837692,45.2034,55.85454,-44.32596,-0.858006,0.1878652,-0.06940912,15.38875,-25.03611,-30.72962,1006.674
30.232390404,82.41374,79.96436,36.80025,-0.9996805,0.307107,-0.2613162,17.5679,-24.66502,-29.86794,1006.674
30.265166760,-63.57008,45.15876,17.37395,-0.7616508,-0.06458847,0.1410979,19.01673,-24.31001,-30.31067,1006.674
30.300464630,47.43975,22.93992,-4.801368,-0.9257845,0.1131579,-0.01522325,18.66014,-24.66763,-29.86935,1006.674
30.333240986,12.71423,35.34938,1.368623,-1.043742,0.1324398,0.1679449,18.66014,-24.66763,-29.86935,1006.674
30.366017342,27.31261,46.81336,-6.756217,-1.135058,-0.003635114,0.4605532,19.74706,-24.29393,-29.00627,1006.68
30.398793697,-30.45971,42.73597,-35.04043,-0.8735721,0.1186334,0.5694992,20.4698,-23.9202,-28.20488,1006.678
30.431570053,-24.68248,15.19878,-54.83327,-0.8696217,0.1095949,0.6657757,20.4698,-23.9202,-28.20488,1006.678
30.466867924,-18.03555,-0.3425999,-49.15199,-0.6993377,0.7839759,0.6465451,21.57701,-24.6398,-27.3246,1006.678
30.499644280,-28.96881,-2.588122,6.988812,-0.4443451,1.285696,0.2095517,22.99275,-22.45667,-27.36086,1006.678
30.532420159,-58.8489,11.35775,69.29961,-0.5694867,1.212506,0.1305342,24.50298,-22.09587,-27.36855,1006.674
30.565196514,-137.6802,22.34899,77.05792,-0.6933017,0.6463596,0.3901724,24.50298,-22.09587,-27.36855,1006.678
30.600494385,30.48077,-20.96595,46.69667,-1.247019,-0.4650381,0.6400993,23.40046,-21.75769,-29.48627,1006.678
30.633270741,79.86679,-44.36665,53.2332,-1.046632,-0.03238722,0.4218778,22.21759,-20.32095,-31.24815,1006.678
30.666047096,1.532493,-9.265595,36.25045,-0.9482246,0.06591441,0.5721625,22.21759,-20.32095,-31.24815,1006.678
30.698823452,79.36983,-58.01706,22.81087,-0.9582037,0.005595657,0.7349774,20.43392,-22.115,-29.4767,1006.678
30.731599808,69.1199,-58.37161,-1.624739,-0.7467444,0.5206994,0.7341808,19.7403,-23.92949,-29.012,1006.676
30.766897678,29.052,-37.86645,11.87593,-0.7237581,0.5860761,0.3725251,19.7403,-23.92949,-29.012,1006.676
30.799674034,-56.30195,-9.029224,10.53198,-0.6627429,0.8228903,0.1751465,17.96048,-26.11175,-28.97527,1006.681
30.832450390,4.576411,-3.474512,25.13225,-1.043741,0.5193476,0.05616722,15.79557,-27.20577,-29.39037,1006.681
30.865226746,-6.170483,8.69858,24.46027,-0.8530532,0.6046181,0.1826659,15.79557,-27.20577,-29.39037,1006.679
30.898003578,18.61571,15.37605,7.294257,-0.9176322,0.433387,0.3602183,15.7678,-25.75397,-29.84841,1006.679
30.933300972,27.43686,11.35775,9.493463,-0.7195503,0.4391218,0.3164173,15.05389,-26.47515,-29.40089,1006.677
30.966077328,-10.58106,21.93534,-0.8916707,-0.8404543,0.4725032,0.4995711,15.05389,-26.47515,-29.40089,1006.677
30.998854160,18.05662,9.112228,4.117629,-0.6875461,0.4781139,0.4221822,15.43284,-27.19386,-28.58184,1006.677
31.031629562,-9.959851,11.65321,1.124267,-0.7319481,0.5824745,0.4948158,15.79026,-26.82944,-28.52588,1006.677
31.066927433,12.58999,0.8392537,10.53198,-0.7369704,0.6106359,0.2781725,15.79026,-26.82944,-28.52588,1006.677
31.099703789,-23.37794,5.153019,12.73118,-0.6617904,0.6544169,0.320288,15.80441,-27.55322,-28.14147,1006.677
31.132480145,-31.51576,11.06229,13.03662,-0.7975748,0.5716578,0.2788564,14.70542,-27.18617,-28.14579,1006.679
31.165256500,-17.47647,11.18047,11.75376,-0.7285318,0.5519572,0.3745133,14.70542,-27.18617,-28.14579,1006.679
31.198033333,14.01877,10.82592,4.361984,-0.8901386,0.4857998,0.2301064,15.79557,-27.20577,-29.39037,1006.679
31.233330727,-13.43861,18.38978,2.956937,-0.8911693,0.4949597,0.1477822,15.77529,-26.11246,-29.40756,1006.679
31.266107082,-9.711368,14.13511,-3.151964,-0.8555953,0.4694735,0.2921447,15.77529,-26.11246,-29.40756,1006.679
31.298883915,10.47788,8.580395,-11.39898,-0.8856379,0.4414082,0.2845565,16.15361,-26.83626,-28.96146,1006.681
31.331660271,-2.132633,8.994043,-16.10284,-0.8037773,0.538469,0.3463117,16.87574,-26.46763,-28.53302,1006.681
31.366957665,8.427898,9.289507,-19.27946,-0.871219,0.4791142,0.1564233,16.50479,-26.10316,-28.60044,1006.681
31.399734497,5.011257,6.630337,-25.2051,-0.7524633,0.6147525,0.3985435,16.50479,-26.10316,-28.60044,1006.682
31.432510853,5.259739,3.380239,-28.44282,-0.8713555,0.5456781,0.2034967,17.24044,-26.4634,-28.16054,1006.682
31.465287209,22.40507,-1.997195,-40.47735,-0.8828233,0.4616046,0.1738062,17.95507,-25.73627,-28.17294,1006.684
31.498063564,37.31406,-0.1062292,-35.71241,-0.9547932,0.5199672,0.2485,17.95507,-25.73627,-28.17294,1006.684
31.533360481,-3.188686,13.54418,-45.85318,-0.8499826,0.5480019,0.2318429,19.0473,-25.73889,-28.17435,1006.684
31.566137314,6.06731,11.00319,-53.61149,-0.95557,0.4361168,0.2380383,20.14171,-25.72368,-26.87042,1006.682
31.598913670,2.961271,17.14883,-65.2184,-0.8540865,0.4561569,0.3364465,20.14171,-25.72368,-26.87042,1006.684
31.631690025,28.12019,27.0764,-72.18255,-0.90138,0.3345539,0.3458879,21.21511,-24.6211,-26.0188,1006.684
31.666987896,55.01848,31.1538,-76.3366,-0.8562004,0.5216482,0.3016948,22.65176,-23.52618,-25.66491,1006.684
31.699764252,39.86102,50.47711,-63.38573,-0.7503582,0.5026468,0.1734302,22.65176,-23.52618,-25.66491,1006.684
31.732540607,12.21727,56.68184,-50.31268,-0.779927,0.5016819,0.2803641,26.34936,-23.14684,-23.93497,1006.684
31.765316963,-6.978054,59.87284,-36.01785,-0.7736122,0.3689486,0.6560113,28.15227,-22.03497,-22.27623,1006.684
31.798093319,-3.312928,34.87664,-32.04707,-0.8604219,0.1158325,0.6411951,28.15227,-22.03497,-22.27623,1006.682
31.833391190,42.78069,4.680278,-43.47071,-1.027611,-0.07031438,0.4079304,30.32612,-21.28756,-20.55006,1006.687
31.866167545,48.06096,-10.21108,-43.5318,-1.149094,0.1707123,0.4054484,31.75684,-19.82141,-19.70464,1006.687
31.898943901,67.87749,-44.42574,-21.17323,-1.279199,0.2791338,-0.02570648,31.75684,-19.82141,-19.70464,1006.687
31.931720257,-17.16586,-73.49934,4.545251,-1.189992,0.4030122,0.3118112,32.84906,-19.82403,-19.70605,1006.685
31.967018127,19.73388,-76.69034,38.99946,-0.9510407,0.1446712,0.1344927,32.1127,-19.46973,-20.58106,1006.685
31.999794483,-72.39123,-54.88514,33.25709,-0.7414978,0.03182879,0.1144299,32.1127,-19.46973,-20.58106,1006.682
32.032570839,-1.88415,-57.6625,30.50808,-0.9413232,0.1488895,0.1691213,30.66024,-19.85446,-22.3139,1006.682
32.065347195,-2.132633,-55.2397,43.7644,-0.8765386,0.2879841,0.2727321,28.46403,-19.52554,-25.30043,1006.682
32.098123074,-50.02775,-45.84396,47.36865,-0.7987651,0.2591112,0.2995474,28.46403,-19.52554,-25.30043,1006.682
32.133420944,12.21727,-49.21225,51.82815,-0.8157008,0.2447436,0.3549659,27.02666,-20.6264,-26.08942,1006.682
32.166197300,16.193,-40.52562,34.78432,-0.7605731,0.1270028,0.306395,24.83253,-20.2805,-27.83278,1006.682
32.198973656,-24.37187,-32.31174,21.58909,-0.7564563,0.2342052,0.3091119,24.83253,-20.2805,-27.83278,1006.681
32.231750011,-2.070512,-14.40666,25.68205,-0.6565906,0.07088743,0.1661567,22.62192,-22.09136,-27.36612,1006.681
32.299824238,-27.10518,84.80996,-33.69647,-0.3612896,-0.03256074,-0.2170704,21.52761,-22.10573,-28.60789,1006.682
32.332600594,-88.85323,-24.5706,-155.2636,-8.84572,1.863418,1.288085,20.436,-22.09801,-28.23353,1006.682
32.365376949,48.93065,-37.57099,33.7458,0.02247197,-0.5839053,0.4403905,22.61588,-21.72098,-26.93674,1006.682
32.398153782,-42.75962,7.043985,9.249106,-1.10936,0.1803513,0.2729652,22.61588,-21.72098,-26.93674,1006.682
32.433451176,40.23374,-12.51569,19.02335,-0.902737,0.1906119,-0.1809831,22.95822,-20.64043,-27.82463,1006.682
32.466227532,-73.1988,29.08556,-10.23829,-1.062367,-0.181558,0.281101,22.24359,-21.36756,-27.81223,1006.682
32.499004364,55.63969,0.2483269,-46.64734,-1.242754,-0.571684,0.9175143,21.51616,-21.35987,-27.37617,1006.684
32.531780720,72.4123,-28.41162,-40.41626,-0.7692857,0.4319541,0.8864784,21.51616,-21.35987,-27.37617,1006.682
32.567078114,25.38687,-32.37083,30.32482,-0.3319685,1.541987,0.9304602,22.95291,-20.26411,-26.96013,1006.682
32.599854946,-50.71108,-43.30298,79.3793,-0.3662496,1.555315,0.3668468,21.88096,-21.3548,-26.94153,1006.682
32.632630348,-81.02602,-33.4936,98.56126,-0.7145697,0.5269629,-0.01490381,21.88096,-21.3548,-26.94153,1006.682
32.665406704,-77.29877,-27.70251,70.76575,-1.133131,-0.2361994,0.2827953,21.1628,-22.1108,-29.04253,1006.682
32.698183536,59.11845,-48.32586,64.65685,-1.190909,-0.4073202,0.4680331,17.8704,-21.3919,-30.3551,1006.682
32.733480930,21.2869,-40.76199,24.09374,-0.7903212,0.2788243,0.8131106,17.8704,-21.3919,-30.3551,1006.687
32.766257286,35.82316,-21.08413,8.027326,-1.08466,0.01996081,0.3612376,15.6927,-21.7511,-30.34655,1006.687
32.799034119,58.31088,-29.06164,-6.878395,-0.9781905,0.3405712,0.1828793,14.2702,-23.5698,-30.31602,1006.687
32.831810474,-18.53252,16.97156,-4.251567,-0.7334224,0.778666,0.4141362,14.2702,-23.5698,-30.31602,1006.687
32.867107868,4.265807,18.68524,4.545251,-0.6489865,0.5992374,0.424315,13.20646,-25.01304,-29.42146,1006.685
32.899884701,32.03379,7.162171,19.08444,-0.7052302,0.7273243,0.2110121,13.55702,-24.28504,-29.43339,1006.687
32.932661057,-22.32189,25.18544,24.58245,-0.7169715,0.5864592,0.3494031,13.55702,-24.28504,-29.43339,1006.685
32.965437412,25.82172,-0.2835072,23.23849,-0.8162155,0.26247,0.3833407,13.55161,-23.90956,-28.63106,1006.685
32.998213768,18.67783,-7.906463,9.554551,-0.6407427,0.4248866,0.55597,14.29328,-24.64018,-28.62054,1006.687
33.033511639,47.99884,-13.40208,0.6355547,-0.7805696,0.3886169,0.410985,14.29328,-24.64018,-28.62054,1006.685
33.066287994,28.98988,-12.10204,-5.473347,-0.739989,0.4599675,0.3270243,13.22206,-25.72493,-28.16683,1006.685
33.099064350,16.193,-5.483663,-15.12541,-0.8936613,0.3798019,0.4699927,12.50816,-26.44612,-27.71932,1006.685
33.131840706,34.82923,-17.53857,-22.02847,-0.84005,0.5040669,0.4855632,12.50816,-26.44612,-27.71932,1006.685
33.164617062,9.173348,-12.04295,-23.0059,-0.7396754,0.5355779,0.3437573,13.25056,-27.17079,-27.27369,1006.685
33.199914932,24.2687,-18.0704,-35.04043,-0.7668218,0.5168674,0.3472194,12.90146,-27.88691,-26.39153,1006.685
33.232690811,39.92313,-22.32508,-26.06035,-0.7882751,0.7067301,0.08079105,12.90146,-27.88691,-26.39153,1006.685
33.265467167,2.277942,-11.03838,-23.5557,-0.683641,0.85526,0.3027081,13.62285,-27.52421,-26.3982,1006.685
33.298243523,-4.244739,-8.379205,-18.5464,-0.7347497,0.7200634,0.3930477,13.26553,-27.88778,-26.392,1006.685
33.333541393,5.446102,-7.670093,-21.05105,-0.6773354,0.6976279,0.5296522,13.26553,-27.88778,-26.392,1006.685
33.366317749,0.1658359,-3.888161,-26.36579,-0.6713858,0.4672556,0.6623597,13.25201,-27.15891,-26.40346,1006.685
33.399094105,17.9945,-21.3205,-39.74429,-0.7307168,0.2971348,0.643021,13.62358,-27.51827,-25.96309,1006.685
33.431870461,24.76566,-41.35292,-60.2702,-0.6924577,0.1387973,0.6600166,13.62358,-27.51827,-25.96309,1006.683
33.464646816,67.629,-61.73989,-81.22372,-0.7609699,-0.04484636,0.6681576,14.70832,-27.1624,-26.40534,1006.683
33.499944687,128.6937,-73.97208,-111.0963,-0.9051788,-0.0601216,0.6059457,15.07375,-27.15223,-25.59775,1006.687
33.532721043,184.1055,-78.81768,-125.9409,-0.9223327,0.1564536,0.323582,15.79732,-26.7717,-24.29908,1006.687
33.565497399,131.7376,-61.62171,-114.9449,-0.8953896,0.6523291,0.2308306,15.79732,-26.7717,-24.29908,1006.687
33.598274231,3.085512,-24.15695,-86.3552,-0.8773165,1.015795,0.2283145,17.28639,-28.18624,-20.85931,1006.685
33.633571625,5.073377,-7.729185,-41.8824,-0.9196312,0.8163453,0.10308,18.76371,-29.2771,-20.40889,1006.685
33.666347981,-8.096228,-16.23853,-43.77616,-0.8694308,0.5681527,0.2814389,18.76371,-29.2771,-20.40889,1006.685
33.699124813,43.96098,-21.67506,-35.59023,-0.7965524,0.3724548,0.417305,20.55029,-27.45928,-20.43988,1006.685
33.731901169,25.82172,-14.70212,-31.55836,-0.7673087,0.1728896,0.6798786,21.64179,-27.46784,-20.8764,1006.685
33.764677525,39.79889,-19.37044,-36.56765,-0.7323272,0.1583462,0.6475663,21.64179,-27.46784,-20.8764,1006.685
33.799975395,26.87777,-20.5523,-51.16793,-0.7468885,0.1618514,0.678884,21.63045,-26.72113,-19.58253,1006.685
33.832751751,72.1017,-23.32965,-51.901,-0.8214081,0.2238368,0.5071213,22.73548,-27.45857,-20.00759,1006.685
33.865528107,39.42617,-16.53399,-34.73499,-0.8872217,0.3318365,0.49845,22.73548,-27.45857,-20.00759,1006.685
33.898304462,-0.8902174,-15.76579,-38.82795,-0.9527643,0.1273754,0.5210564,23.88443,-27.07397,-18.33652,1006.685
33.933601379,57.00635,-22.38417,-25.87708,-0.9962482,0.2395012,0.5185837,23.87913,-26.69765,-17.47203,1006.685
33.966377735,49.42761,-32.01628,-17.56897,-0.671694,0.2649285,0.002718449,23.87913,-26.69765,-17.47203,1006.685
33.999154568,37.1277,-39.99379,-58.31535,-0.9181463,0.2985969,0.6583855,24.60655,-26.70533,-17.90808,1006.685
34.031930923,80.86073,-42.77114,-61.43089,-0.7383144,0.4204607,0.5971237,24.97136,-26.70026,-17.47344,1006.684
34.064707279,23.33689,-15.35214,-50.25159,-0.8270309,0.5815553,0.687106,24.97136,-26.70026,-17.47344,1006.684
34.100005150,-23.93703,2.848405,-31.80271,-0.7996452,0.492375,0.6467412,26.05901,-26.32061,-16.17524,1006.682
34.132781506,22.28083,-1.879009,-35.40696,-0.8007715,0.3177024,0.4631269,27.13626,-25.60624,-17.05833,1006.68
34.165557861,12.46575,-10.62473,-45.97536,-0.8048391,0.2112735,0.5716034,27.13626,-25.60624,-17.05833,1006.684
34.198334217,14.26725,-8.497391,-42.85983,-0.7600324,0.1632382,0.6139293,27.48006,-24.51381,-17.07599,1006.684
34.233632088,40.29586,-13.99301,-40.66062,-0.8061826,0.1695913,0.6024765,28.93106,-24.14097,-16.21338,1006.684
34.266408444,12.90059,-6.665517,-36.62875,-0.7825508,0.04302674,0.6536356,28.93106,-24.14097,-16.21338,1006.686
34.299184799,24.82778,-10.62473,-51.04575,-0.8634576,-0.08612823,0.3878291,29.63893,-23.04941,-16.23151,1006.684
34.331961155,45.88673,-21.14322,-66.07365,-0.7838314,-0.04616664,0.5757924,30.36032,-22.68671,-16.23818,1006.684
34.364737511,40.4201,-24.74788,-65.7682,-0.8081203,0.1630797,0.5789042,30.36032,-22.68671,-16.23818,1006.684
34.400035381,39.30193,-24.21604,-58.37643,-0.7807351,0.2966405,0.6320691,31.0682,-21.59515,-16.25631,1006.684
34.432811737,24.14445,-13.63845,-29.35915,-0.8276564,0.4253103,0.631505,32.14004,-20.5053,-16.33707,1006.686
34.465588093,8.800624,-14.0521,1.002089,-0.7837777,0.3360133,0.5545177,33.5694,-19.0502,-16.29971,1006.686
34.498364449,-22.01128,-32.25265,-0.8305817,-0.7006701,0.1151436,0.6302273,33.5694,-19.0502,-16.29971,1006.686
34.533662319,1.159768,-35.20728,-13.59819,-0.8228558,-0.1467617,0.7247774,32.84053,-19.0544,-16.73388,1006.686
34.566438675,35.76104,-36.27095,-20.07362,-0.7475761,-0.1751748,0.6105589,32.45359,-17.91136,-17.62178,1006.692
34.599215031,8.179416,-30.36168,-40.59953,-0.9005051,-0.1886903,0.6017961,32.45359,-17.91136,-17.62178,1006.692
34.631990910,39.98526,-30.65714,-48.5411,-0.9168178,-0.08474271,0.5111821,32.45286,-17.9173,-18.05689,1006.692
34.664767265,46.50794,-25.45699,-51.65664,-0.9763981,0.05642079,0.5014835,32.43726,-17.20541,-19.31153,1006.692
34.700065136,34.39439,-21.73415,-46.3419,-0.9613449,0.2555601,0.4746727,32.43726,-17.20541,-19.31153,1006.692
34.732841492,24.82778,-29.17983,-43.34854,-0.9087431,0.1862725,0.4630997,32.78782,-16.47741,-19.32346,1006.692
34.765617847,29.30048,-45.66669,-42.31002,-0.8230464,0.09269661,0.4909564,32.41698,-16.1121,-19.32872,1006.69
34.798394203,32.84137,-64.33997,-50.67922,-0.7695976,0.07300006,0.4658286,32.41698,-16.1121,-19.32872,1006.692
34.833692074,29.92169,-83.01326,-57.88772,-0.7246833,0.006951724,0.6492205,33.49423,-15.39773,-20.21181,1006.692
34.866468430,52.40941,-103.9321,-57.27683,-0.6942217,0.05721333,0.6264484,32.72937,-13.59758,-21.97997,1006.692
34.899245262,63.03206,-119.7689,-48.84655,-0.6211057,0.1591853,0.7045833,32.72937,-13.59758,-21.97997,1006.692
34.932021618,56.94423,-129.9328,-22.21174,-0.5511063,0.3433199,0.7652726,32.34751,-12.90265,-24.53947,1006.69
34.964797974,26.50504,-135.9603,12.24247,-0.4592927,0.3341259,0.8035777,30.52963,-13.29753,-27.0799,1006.689
35.000095844,-38.2248,-134.2466,37.22788,-0.4183251,0.2605018,0.8127373,30.52963,-13.29753,-27.0799,1006.695
35.032872200,-65.93067,-138.2649,34.41778,-0.4180073,0.1169645,0.7624099,27.24722,-13.33638,-30.49441,1006.693
35.065648556,-77.36089,-136.6694,14.8693,-0.2117267,-0.05185741,0.7506225,23.24269,-13.74387,-34.33735,1006.693
35.098424912,-74.25485,-114.9233,-19.34056,-0.04489722,-0.1354963,0.9193108,23.24269,-13.74387,-34.33735,1006.693
35.133722782,-48.10201,-80.47227,-57.21574,0.1585879,-0.3191622,1.087582,18.76681,-11.59333,-37.78475,1006.691
35.166499138,27.37473,-37.4528,-95.824,0.3583791,-0.3872521,1.211402,15.0759,-9.056471,-39.49845,1006.691
35.199275494,49.6761,11.12138,-142.5571,0.2258367,-0.6143677,1.13841,15.0759,-9.056471,-39.49845,1006.691
35.232051849,123.0407,21.16714,-146.589,0.1913805,-0.2299852,1.055118,13.58248,-7.187887,-40.83151,1006.691
35.264828205,125.9604,28.61281,-119.3433,0.2922894,0.009887789,1.039595,13.93449,-6.447998,-39.97322,1006.685
35.300126076,192.616,56.44547,-7.79473,0.4494765,1.143972,0.2562629,13.93449,-6.447998,-39.97322,1006.69
35.332902432,-36.79602,149.0437,7.172079,0.1325465,0.1647585,0.810131,16.88412,-8.320921,-38.7042,1006.69
35.365678787,52.9685,140.1798,25.31552,0.1851619,0.06335368,0.6623809,18.81704,-14.12061,-36.00419,1006.688
35.398455143,6.688518,121.3292,-1.56365,-0.3469241,0.2513468,0.8111377,18.81704,-14.12061,-36.00419,1006.688
35.433752537,-39.28086,65.54575,-9.077599,-0.4619519,0.2890899,1.124239,22.09872,-14.08771,-33.0248,1006.688
35.466528893,-89.6608,-6.724609,-9.077599,-0.4052505,0.1817869,1.384201,26.91622,-15.16364,-30.9004,1006.688
35.499305248,-33.50362,-39.81651,-8.222352,-0.3370079,-0.001448098,1.006447,28.7028,-13.34582,-30.9314,1006.688
35.532081604,35.07771,-40.40744,-10.54374,-0.1571393,0.1129112,0.9865932,28.7028,-13.34582,-30.9314,1006.688
35.564857960,29.61108,-23.44784,-19.82927,-0.2820197,-0.06732145,0.9226586,27.5671,-11.18035,-32.70481,1006.69
35.600155831,59.98814,-4.774551,-8.40562,-0.272643,0.1730302,1.436368,26.8586,-12.27701,-33.05964,1006.69
35.632932186,-34.06271,13.42599,-9.627399,-0.4435509,-0.06459793,1.2985,26.8586,-12.27701,-33.05964,1006.691
35.665708542,6.440034,6.216688,-22.63936,-0.3806133,-0.2462974,1.007882,26.48776,-11.9117,-33.0649,1006.691
35.698484898,112.6666,-31.54354,-13.04838,-0.2233381,0.4204766,1.17113,27.58,-11.91432,-33.06631,1006.693
35.731261730,73.71684,-35.0891,-11.33789,-0.2205656,0.2127151,0.8469984,27.58,-11.91432,-33.06631,1006.695
35.766559124,105.1499,-31.72081,-9.260866,-0.2959056,0.226035,0.7518473,27.23693,-13.00082,-32.61353,1006.695
35.799335480,163.1086,-38.51647,-2.357807,-0.2237197,0.3069195,0.8102803,26.18661,-15.17378,-31.76968,1006.701
35.832112312,207.1523,-47.73493,-7.428195,-0.2684119,0.2930972,0.6972871,26.18661,-15.17378,-31.76968,1006.701
35.864888668,167.3328,-49.44862,-9.199777,-0.2730129,0.6056472,0.754109,25.51618,-18.05781,-29.54734,1006.701
35.900186062,222.434,-59.67165,-7.733641,-0.2788462,0.5898346,0.6583558,25.23248,-22.08658,-26.56142,1006.701
35.932962894,161.245,-62.15354,-9.688489,-0.2779795,0.865514,0.7994586,25.23248,-22.08658,-26.56142,1006.697
35.965739250,105.0257,-65.52183,-1.991273,-0.2826688,0.9857545,0.7266028,23.8624,-26.41472,-23.445,1006.697
35.998515606,87.56977,-68.06281,-1.380383,-0.28432,0.8422863,0.6185166,23.13794,-29.66389,-21.27902,1006.698
36.031291962,94.46518,-71.3129,2.468225,-0.2127188,0.9559631,0.6306908,23.13794,-29.66389,-21.27902,1006.704
36.066589832,84.33949,-74.32664,4.728518,-0.1693331,0.8736178,0.57343,22.07607,-31.16193,-19.9484,1006.706
36.099366188,65.01993,-74.62209,7.11099,-0.1403868,0.9436612,0.525601,21.00619,-32.23565,-18.68662,1006.702
36.132142544,53.21698,-79.94044,9.493463,-0.1181006,0.955188,0.4754691,21.00619,-32.23565,-18.68662,1006.702
36.164918900,28.74139,-86.7361,13.64752,-0.07589377,0.9645495,0.4402155,20.2877,-32.57456,-16.9395,1006.706
36.200216770,24.45506,-91.64079,17.00741,-0.04227391,0.9151155,0.4349153,19.59263,-34.40094,-17.34503,1006.702
36.232993126,21.22478,-98.0228,10.83742,-0.05091456,0.8645708,0.3907267,19.59263,-34.40094,-17.34503,1006.708
36.265769482,-11.94772,-99.79558,1.55189,-0.03546759,0.9031789,0.3911132,17.39319,-33.67872,-18.22389,1006.71
36.298545837,-49.46866,-97.31369,-6.817306,-0.02128549,0.8563778,0.3675634,15.56459,-33.32181,-19.09749,1006.71
36.331321716,-52.94743,-89.74982,-16.65264,0.009983558,0.7853991,0.4186205,15.56459,-33.32181,-19.09749,1006.71
36.366619587,-18.96736,-82.89507,-30.27549,0.03331154,0.8010749,0.5436956,14.09726,-32.9887,-21.64986,1006.71
36.399395943,37.87315,-105.9412,-26.67124,-0.1088158,0.5091789,0.4116168,12.96093,-30.82833,-23.79623,1006.71
36.432172299,126.5195,-122.9599,-61.00326,0.09115183,0.08268619,0.1234496,11.77454,-28.93075,-22.95412,1006.71
36.464948654,256.6004,-75.86304,-79.20779,0.56929,0.8990514,-1.280159,11.77454,-28.93075,-22.95412,1006.71
36.500246525,-158.9876,-19.54772,-87.51589,-0.08068042,1.495416,0.1645692,10.70009,-29.62219,-20.39274,1006.71
36.533022881,-49.84139,-33.90724,-60.82,0.01224252,1.032292,0.270465,12.61536,-31.51557,-20.80067,1006.711
36.565799236,-69.65791,-57.83978,-50.98466,-0.16808,1.292187,0.1804863,12.61536,-31.51557,-20.80067,1006.711
36.598575592,-141.6559,-11.51112,-63.75226,0.1225461,0.7581629,0.0785532,12.53092,-27.09942,-22.17572,1006.715
36.631351948,-52.88531,6.275781,-79.32996,0.1884682,0.4053755,0.1150307,12.85766,-25.30697,-24.31824,1006.715
36.666649819,-17.16586,0.3074196,-95.33529,-0.06319121,0.9613296,0.5923005,12.85766,-25.30697,-24.31824,1006.715
36.699426174,-94.38198,-13.81573,-86.11085,-0.00522036,1.093551,0.6261404,14.23679,-21.32459,-26.06144,1006.714
36.732202530,-20.14766,-15.7067,-69.06701,-0.09781396,0.990049,0.4214559,15.65253,-19.14145,-26.0977,1006.712
36.764979362,43.15342,-25.63427,-54.16129,-0.03517332,1.019911,0.5781862,15.65253,-19.14145,-26.0977,1006.714
36.800276756,-72.70184,-26.63884,-48.5411,-0.09641842,1.250245,0.5765403,15.96067,-16.17204,-26.58008,1006.714
36.833053112,-21.57644,-14.93849,-33.63538,-0.1088356,0.8967728,0.258441,15.57631,-15.07785,-26.5968,1006.714
36.865829945,74.89713,-4.774551,-17.50788,-0.1102724,1.115276,0.3746046,15.57631,-15.07785,-26.5968,1006.714
36.898606300,-0.4553719,5.38939,-5.228991,-0.1287242,1.573752,0.6314859,15.17697,-13.26668,-27.4952,1006.714
