Time (s),Gyroscope X (deg/s),Gyroscope Y (deg/s),Gyroscope Z (deg/s),Accelerometer X (g),Accelerometer Y (g),Accelerometer Z (g),Magnetometer X (uT),Magnetometer Y (uT),Magnetometer Z (uT),Barometer (hPa)
0.005336285,-3.930708,-0.7177569,-0.2800289,-0.4813479,-0.07394341,0.8521748,36.361,8.20655,-30.14502,1008.039
0.039983749,-3.132113,-0.7177569,0.7005635,-0.4755289,-0.07594038,0.84873,36.361,8.20655,-30.14502,1008.039
0.072155476,-1.473492,-0.1850918,1.068286,-0.4856446,-0.06271287,0.8580914,36.36703,8.593369,-29.7006,1008.038
0.106802464,0.5537118,-0.1850918,1.313434,-0.4910165,-0.05688695,0.8548156,36.37204,7.455653,-29.24873,1008.036
0.138974667,0.6765727,-0.4218318,1.497295,-0.4905146,-0.04962327,0.8529428,36.37204,7.455653,-29.24873,1008.036
0.173621655,-1.104909,-0.7769418,0.7005635,-0.4919724,-0.04815971,0.8529685,36.37256,8.217919,-29.25245,1008.04
0.205793858,0.6151423,-0.5993868,0.2102673,-0.4826301,-0.05055954,0.8625015,36.36678,8.212234,-29.69873,1008.038
0.240440846,0.3694206,-0.1850918,-0.709038,-0.4802408,-0.05883831,0.8604829,36.36678,8.212234,-29.69873,1008.038
0.272612572,0.3079902,0.2292033,-1.015473,-0.491488,-0.05977099,0.8581702,36.36678,8.212234,-29.69873,1008.038
0.307260037,0.6765727,0.5251284,-0.1574548,-0.4920344,-0.06804239,0.8552151,36.36652,7.831101,-29.69687,1008.038
0.339431763,0.3694206,0.2292033,0.8231376,-0.5017167,-0.06212043,0.8616203,36.36652,7.831101,-29.69687,1008.038
0.374079228,1.536598,-0.6585718,2.110165,-0.4866608,-0.06854746,0.8561248,36.37256,8.217919,-29.25245,1008.038
0.406250954,0.9837248,-0.3034618,2.600461,-0.489492,-0.05006926,0.8587136,36.74998,7.450284,-29.25067,1008.038
0.438423634,0.7994335,-0.4810168,2.232739,-0.4807777,-0.05404472,0.8523335,36.74998,7.450284,-29.25067,1008.038
0.473070145,0.1236989,-0.7177569,2.232739,-0.4851957,-0.05356304,0.8490047,36.37281,8.599052,-29.25431,1008.042
0.505242348,1.536598,-0.2442768,2.355313,-0.4904802,-0.04814123,0.8563287,36.36652,7.831101,-29.69687,1008.042
0.539888859,0.0008381084,-0.7769418,2.171452,-0.4811766,-0.04622424,0.8591497,36.36652,7.831101,-29.69687,1008.036
0.572061539,0.6151423,0.1108333,1.987591,-0.4792472,-0.04673794,0.8567174,36.74472,8.206865,-29.70067,1008.038
0.606708050,1.045155,0.4067584,1.497295,-0.4855539,-0.04957398,0.8625369,36.74446,7.825732,-29.69881,1008.042
0.638880730,1.78232,0.05164829,1.19086,-0.4860239,-0.0423017,0.8611552,36.74446,7.825732,-29.69881,1008.038
0.673527241,1.536598,-0.4218318,1.619869,-0.4875504,-0.0486377,0.8567792,36.73868,7.820047,-30.14509,1008.044
0.705699921,-1.16634,-0.7769418,1.987591,-0.4821548,-0.04186924,0.8567847,35.98832,7.455336,-29.69308,1008.044
0.740346432,-1.16634,-1.191237,2.4166,-0.4797998,-0.05259715,0.8518543,36.36652,7.831101,-29.69687,1008.044
0.772519112,-0.3677444,-1.013682,2.232739,-0.4821243,-0.04329217,0.8611106,36.36652,7.831101,-29.69687,1008.044
0.807165623,0.1236989,-0.5993868,1.497295,-0.4792267,-0.04865366,0.8600755,36.36626,7.449968,-29.69501,1008.044
0.839337826,1.168016,-0.3626468,0.3328413,-0.4821769,-0.04720857,0.8567409,36.3723,7.836786,-29.25059,1008.044
0.873984337,0.8608639,0.05164829,-0.586464,-0.4869821,-0.03019149,0.857408,36.3723,7.836786,-29.25059,1008.044
0.906157017,-0.9206181,-0.1850918,-1.015473,-0.4894519,-0.03939429,0.8583192,36.73842,7.438914,-30.14323,1008.042
0.938328743,0.9837248,-0.4218318,-0.709038,-0.4841084,-0.04718026,0.8591692,35.60435,7.073886,-30.13556,1008.042
0.972976208,0.1236989,-0.1850918,-0.586464,-0.4777935,-0.04627101,0.8552617,35.60435,7.073886,-30.13556,1008.042
1.005147934,-0.3677444,-0.3626468,-0.46389,-0.4802533,-0.05207974,0.8557189,36.36626,7.449968,-29.69501,1008.042
1.039795399,0.4922814,-0.5402018,-0.03488077,-0.4851206,-0.05301115,0.8576846,35.98807,7.074203,-29.69122,1008.042
1.071967125,-0.2448835,-0.7769418,0.5167025,-0.4832096,-0.05015666,0.8514242,35.98807,7.074203,-29.69122,1008.046
1.106614113,-0.4291748,-0.8361269,0.8231376,-0.4840519,-0.04035889,0.8625988,36.73239,7.052096,-30.58765,1008.046
1.138786316,-0.5520356,-1.132052,1.006999,-0.4801847,-0.042346,0.8591724,36.7442,7.444599,-29.69695,1008.046
1.173432827,-0.5520356,-0.7177569,0.5167025,-0.4767831,-0.04479389,0.8586385,36.7442,7.444599,-29.69695,1008.044
1.205605507,-0.5520356,-0.4810168,0.1489803,-0.4781537,-0.04083316,0.867842,35.60461,7.45502,-30.13742,1008.042
1.240252495,0.1236989,-0.3034618,0.2715543,-0.4787371,-0.04236816,0.8572307,36.36023,7.063149,-30.13943,1008.042
1.272424221,-0.5520356,-0.06672174,0.2715543,-0.4767629,-0.04284123,0.8601004,36.36023,7.063149,-30.13943,1008.041
1.307070732,-0.3063139,0.2292033,0.3941284,-0.4787633,-0.04771119,0.8567049,35.98254,7.449651,-30.13936,1008.039
1.339243412,0.06226853,0.2292033,0.5167025,-0.4826444,-0.04912183,0.8601035,35.97703,7.825099,-30.5875,1008.037
1.373889923,1.290877,-0.2442768,0.4554154,-0.4802169,-0.04817812,0.8581606,35.97703,7.825099,-30.5875,1008.037
1.406062603,-0.2448835,-0.007536724,0.3941284,-0.4801284,-0.03165625,0.860706,35.97677,7.443966,-30.58564,1008.037
1.440709114,-1.719213,-0.3626468,0.02640625,-0.4855073,-0.04614668,0.8664207,36.36601,7.068834,-29.69315,1008.035
1.472881794,0.1236989,-0.3034618,0.2102673,-0.4817028,-0.05351007,0.8581305,36.36601,7.068834,-29.69315,1008.035
1.505053520,0.6151423,0.1700183,0.02640625,-0.4801622,-0.04571051,0.8634825,35.9828,7.830784,-30.14122,1008.035
1.539700985,0.06226853,-0.06672174,-0.2800289,-0.4816525,-0.04427651,0.8596522,36.74395,7.063466,-29.69509,1008.035
1.571872711,0.0008381084,-0.06672174,-0.5251769,-0.4748456,-0.04336603,0.8562222,36.74395,7.063466,-29.69509,1008.034
1.606519699,0.1236989,-0.2442768,-0.5251769,-0.48358,-0.04424449,0.8625624,36.36626,7.449968,-29.69501,1008.034
1.638691902,-1.104909,-0.1259068,-0.709038,-0.4787858,-0.04241249,0.8514468,36.73842,7.438914,-30.14323,1008.036
1.673338890,-0.5520356,-0.1259068,-0.709038,-0.4816443,-0.04620331,0.8615643,36.73842,7.438914,-30.14323,1008.034
1.705510616,0.06226853,-0.4218318,-0.647751,-0.475317,-0.04818425,0.8605248,36.35497,7.819731,-30.58944,1008.034
1.740158081,-0.5520356,-0.1259068,-0.4026029,-0.476299,-0.04866842,0.860048,36.36601,7.068834,-29.69315,1008.032
1.772329807,-0.6748964,0.05164829,-0.5251769,-0.4767951,-0.04964044,0.8595627,36.36601,7.068834,-29.69315,1008.032
1.806977272,-0.7977573,-0.2442768,-0.586464,-0.4758233,-0.04771487,0.8581234,36.37204,7.455653,-29.24873,1008.032
1.839148998,-1.043479,-0.3626468,-0.647751,-0.4831125,-0.04039706,0.8582518,36.36626,7.449968,-29.69501,1008.032
1.873795986,-2.026366,-0.4218318,-0.46389,-0.4821747,-0.05155864,0.859115,35.9828,7.830784,-30.14122,1008.032
1.905968189,-1.350631,-0.5402018,-0.2800289,-0.4826096,-0.05440944,0.8668076,35.9828,7.830784,-30.14122,1008.032
1.940615177,0.2465598,-0.5402018,-0.586464,-0.4758576,-0.0511311,0.8556857,36.36074,7.825416,-30.14315,1008.031
1.972787380,-0.7363268,-0.4810168,-0.46389,-0.4792249,-0.04526698,0.8586574,35.9828,7.830784,-30.14122,1008.031
2.007434368,-1.903505,-0.4810168,-0.46389,-0.4792546,-0.05931755,0.8619158,35.9828,7.830784,-30.14122,1008.031
2.039606094,0.1851293,-0.1259068,-0.1574548,-0.4753286,-0.06173464,0.8657153,35.98254,7.449651,-30.13936,1008.031
2.071778774,0.430851,0.1700183,-0.1574548,-0.4791821,-0.04764593,0.8649033,35.9828,7.830784,-30.14122,1008.031
2.106425285,0.06226853,0.05164829,-0.2187418,-0.4753612,-0.05789582,0.8599632,35.9828,7.830784,-30.14122,1008.029
2.138597965,-0.1220227,-0.06672174,-0.3413159,-0.477793,-0.05594195,0.860002,36.36652,7.831101,-29.69687,1008.029
2.173244476,-0.4291748,-0.5402018,-0.3413159,-0.4806964,-0.05397083,0.8619733,36.36652,7.831101,-29.69687,1008.029
2.205417156,-0.8591877,-0.3626468,-0.09616779,-0.4767991,-0.04964413,0.8590807,36.36652,7.831101,-29.69687,1008.027
2.240063667,-0.613466,-0.2442768,-0.1574548,-0.4767603,-0.05492805,0.8662667,36.36074,7.825416,-30.14315,1008.025
2.272235870,0.5537118,-0.007536724,-0.03488077,-0.4748469,-0.05739073,0.8628545,35.98858,7.836469,-29.69494,1008.025
2.306882382,0.7380031,0.1108333,0.2715543,-0.4733465,-0.05736485,0.8671787,35.98858,7.836469,-29.69494,1008.025
2.339055061,2.273763,0.2292033,0.8231376,-0.4811273,-0.05778502,0.8706219,36.35522,8.200865,-30.5913,1008.025
2.373701573,10.25972,-3.440268,4.255211,-0.5049852,-0.07937789,0.8875365,36.36626,7.449968,-29.69501,1008.025
2.405874252,12.47121,-6.044408,7.258275,-0.4637301,-0.04690534,0.8450033,36.36626,7.449968,-29.69501,1008.029
2.440520763,5.406714,-5.926038,11.24193,-0.5221921,-0.04660064,0.9727991,35.97677,7.443966,-30.58564,1008.025
2.472693443,-17.07682,-21.78762,9.587182,-0.5900916,0.06478287,1.085211,36.35471,7.438598,-30.58757,1008.029
2.507339954,-187.0548,-36.28795,2.477887,-0.6531303,0.4312997,1.304274,36.35471,7.438598,-30.58757,1008.029
2.539512634,-348.8011,-73.04184,-27.24632,-0.5542021,-0.06084283,1.119508,35.97625,6.681699,-30.58192,1008.029
2.571684360,-398.4368,-95.11785,-48.88064,-0.596053,-0.5355403,0.8402817,34.48415,10.15043,-29.25209,1008.029
2.606331348,-379.7006,-101.8649,-124.2024,-0.6231187,-1.326879,0.6735045,34.48415,10.15043,-29.25209,1008.028
2.638503551,-190.7406,-108.8488,-178.5027,-0.3291633,-1.443745,0.751256,33.02974,19.36946,-25.33624,1008.028
2.673150539,-85.14171,-111.8672,-204.4271,-0.1538085,-1.061032,0.643361,28.50115,29.7871,-20.51762,1008.028
2.705322266,-29.24004,-108.2569,-230.3515,0.0001048828,-1.089553,0.5057659,28.50115,29.7871,-20.51762,1008.028
2.739969730,27.76739,-101.6282,-238.9317,0.180934,-0.794705,0.3368455,21.35356,36.3968,-18.28111,1008.028
2.772141457,68.25003,-91.3892,-226.6743,0.2746462,-0.558652,0.1663253,13.40759,39.92837,-19.1498,1008.026
2.806788921,64.13419,-75.1725,-210.6171,0.3347134,-0.3448013,0.2422378,2.79716,41.19366,-21.33264,1008.024
2.838960648,17.56994,-51.97198,-196.5211,0.4397552,-0.3369898,0.25289,2.79716,41.19366,-21.33264,1008.024
2.873607635,24.75729,-29.60004,-163.4261,0.4130321,-0.4069427,0.4169245,-5.541083,39.38417,-23.00216,1008.024
2.905779839,87.35489,-56.41086,-124.8153,0.3813536,-0.2714605,0.5306429,-11.97286,37.94522,-23.40812,1008.022
2.940426826,90.67213,-65.34779,-80.2596,0.5779812,-0.08633164,0.4946664,-11.97286,37.94522,-23.40812,1008.025
2.972599030,40.42205,-43.86363,-46.36787,0.589569,-0.1498876,0.5687442,-17.7246,34.57939,-24.70088,1008.023
3.007246017,46.25794,-34.03892,-17.62426,0.5924573,-0.1412714,0.6179522,-21.51761,31.57263,-25.55922,1008.021
3.039417744,16.70991,-21.43251,-2.915371,0.6726868,-0.0999014,0.6214007,-21.51761,31.57263,-25.55922,1008.021
3.074065208,-19.22688,-11.13432,5.971247,0.7663113,-0.2478447,0.5682155,-22.28029,30.05315,-25.99419,1008.019
3.106236935,-25.49278,-6.162778,11.36451,0.8326338,-0.298915,0.4712577,-23.40281,29.69949,-25.09397,1008.018
3.138409615,-41.64898,-0.5993868,11.54837,0.8702832,-0.2849736,0.4151094,-23.40281,29.69949,-25.09397,1008.018
3.173056126,-68.80122,4.194599,7.503423,0.8659053,-0.3477656,0.3890866,-22.6409,30.07557,-24.65341,1008.014
3.205228806,-61.98245,8.396735,4.07135,0.882617,-0.4371245,0.330354,-23.00048,31.62253,-23.32008,1008.014
3.239875317,-38.57747,18.51737,-0.709038,0.888158,-0.4466278,0.297448,-23.00048,31.62253,-23.32008,1008.014
3.272047520,-38.14745,34.73406,-11.98585,0.8635036,-0.5125036,0.299063,-22.60551,32.39567,-22.05065,1008.012
3.306694031,-49.57351,49.41195,-25.65286,0.8741806,-0.5521885,0.1950063,-22.21499,33.92621,-21.16747,1008.014
3.338866711,-83.17593,80.95757,-38.64571,0.8821291,-0.4862965,0.1217294,-22.21499,33.92621,-21.16747,1008.014
3.373513222,-138.5247,127.7137,-62.97666,0.7825771,-0.5718411,0.1050832,-22.20369,33.55644,-20.27304,1008.014
3.405685902,-170.5914,174.7658,-98.82957,0.5331254,-0.9347714,0.2128686,-21.80212,34.33608,-18.49358,1008.014
3.440332413,-111.6796,200.4521,-120.8316,0.6994889,-0.6644291,0.192819,-21.80212,34.33608,-18.49358,1008.014
3.472505093,-56.26942,114.5155,-14.92763,-2.782482,-0.3126299,1.524788,-21.78954,35.87199,-17.60846,1008.012
3.507151604,-51.90786,-72.27244,-34.47819,1.773601,-0.1824072,0.8914536,-22.16253,35.88223,-17.224,1008.018
3.539324284,-55.10225,117.4747,27.66685,0.9191751,-0.7412869,0.8793948,-22.16253,35.88223,-17.224,1008.016
3.573970795,122.9231,-39.60231,53.34612,-0.214671,-0.05805617,0.7553455,-22.53025,35.13589,-16.38954,1008.016
3.606142998,-7.309381,-79.37464,57.26849,0.7088551,-0.1305688,0.7591442,-21.41186,35.48549,-17.60853,1008.016
3.638315201,-12.65383,-44.63304,76.14488,0.60044,-0.66705,0.5446173,-21.41186,35.48549,-17.60853,1008.016
3.672962189,76.0517,-30.25108,84.66378,0.3700687,-0.6340623,0.5827068,-20.64581,35.86562,-16.84921,1008.016
3.705133915,179.3777,-32.44093,115.246,0.3882825,-0.4803455,0.701412,-19.89881,37.36968,-17.62557,1008.016
3.739781380,265.7488,-30.36945,148.5862,0.3975379,-0.2976548,0.6690918,-19.89881,37.36968,-17.62557,1008.015
3.771953106,244.1867,-0.9544969,172.5494,0.4595659,-0.09295617,0.6923724,-17.69391,37.27575,-22.48251,1008.015
3.806600571,124.5203,43.55263,187.9324,0.4050672,-0.009851893,0.6709122,-13.94494,34.46309,-29.56588,1008.016
3.838772297,38.27198,82.73312,198.8415,0.398686,-0.1905597,0.5215082,-13.94494,34.46309,-29.56588,1008.015
3.873419285,-13.39099,129.9628,201.5994,0.3271709,-0.3035299,0.4282182,-9.102814,30.51455,-34.86402,1008.015
3.905591488,-25.9228,161.0941,188.913,0.1664702,-0.648175,0.6355822,-1.934289,29.25778,-35.78774,1008.016
3.940238476,177.3504,161.39,165.5627,0.1442349,-0.9431068,0.4550184,6.7641,29.13999,-35.38594,1008.016
3.972410679,283.9936,164.8819,98.7598,0.02328008,-0.6140282,0.9432695,6.7641,29.13999,-35.38594,1008.016
4.007057667,236.0779,161.9819,52.91711,0.09290215,-0.1959373,1.0121,15.42582,24.79643,-37.57761,1008.02
4.039230347,77.52602,181.6313,30.79249,-0.2397743,-0.1280988,1.286648,22.21048,14.77896,-38.4566,1008.02
4.073876858,69.90865,136.118,9.648469,-0.5269698,-0.4845596,1.138897,22.21048,14.77896,-38.4566,1008.02
4.106049538,148.0481,103.2111,2.048878,-0.4348039,-0.2100008,1.114272,28.28751,9.009359,-35.8457,1008.022
4.140696049,104.1254,96.64159,-9.534369,-0.4954373,0.1252647,0.9956563,32.53543,7.072167,-33.62658,1008.022
4.172868252,42.87926,95.57626,-17.19525,-0.6268174,0.106028,0.9340637,32.53543,7.072167,-33.62658,1008.02
4.205040455,77.03458,61.42651,-1.199334,-0.9575688,-0.04418254,1.194745,35.58419,2.864363,-31.45394,1008.02
4.239687443,172.6203,-13.67927,3.826202,-0.8420538,0.5034084,1.029,37.88046,2.479443,-29.23228,1008.022
4.271859169,-54.97939,-2.374937,-26.14315,-0.4178024,0.5702488,0.8433965,37.88046,2.479443,-29.23228,1008.022
4.306506634,-106.4581,26.68491,-25.28514,-0.5664873,-0.01365471,0.6216245,37.48835,-1.401416,-30.10399,1008.022
4.338678360,46.81081,5.437484,-17.74683,-0.677532,0.06442991,0.6681303,37.87309,0.1234348,-29.66708,1008.028
4.373325825,53.69102,-1.368792,-15.17278,-0.5269026,0.4588698,0.8063824,37.87309,0.1234348,-29.66708,1008.028
4.405497551,-14.31245,9.994731,-8.798924,-0.4709599,0.4052379,0.8112023,38.26392,2.098626,-28.78607,1008.028
4.440145016,-46.07198,16.62345,-11.7407,-0.505762,0.1214892,0.8140078,37.87994,1.717176,-29.22856,1008.03
4.472316742,-12.53097,22.06847,-10.26981,-0.5343761,0.04546462,0.7558081,37.87994,1.717176,-29.22856,1008.03
4.506963730,-0.3063139,27.27676,-12.84387,-0.5434005,0.1801305,0.7782105,39.03135,2.099259,-27.89738,1008.03
4.539135933,-19.34974,29.76253,-14.06961,-0.5759546,0.1659146,0.802015,38.65393,2.866894,-27.89916,1008.03
4.573782921,-12.16238,28.57882,-12.66001,-0.6369916,0.05548331,0.7929982,38.65393,2.866894,-27.89916,1008.032
4.605954647,27.46023,23.01543,-13.02773,-0.6732254,0.04201153,0.7850312,39.42683,3.634667,-26.63167,1008.033
4.640602112,48.59229,13.01317,-12.90516,-0.7147194,0.1161904,0.74747,40.189,4.391881,-26.19297,1008.033
4.672773838,31.20749,14.25605,-16.88881,-0.6403576,0.2397854,0.709717,40.189,4.391881,-26.19297,1008.033
4.707421303,-14.80389,24.7318,-15.47921,-0.5375497,0.2729419,0.7326491,40.58401,4.022434,-24.85421,1008.033
4.739593029,-46.56342,36.21369,-11.61813,-0.5384388,0.1082409,0.6483957,40.58401,4.022434,-24.85421,1008.033
4.771765709,-43.30761,55.68556,-8.124767,-0.4355146,0.07681704,0.5421003,40.58401,4.022434,-24.85421,1008.035
4.806412220,-55.65512,80.24734,-2.057352,-0.5435947,0.1316344,0.7204546,41.36378,5.177837,-23.07853,1008.035
4.838584423,-57.19088,86.69851,-0.7703251,-0.7194396,0.001382652,0.6477576,42.14798,5.575846,-20.91661,1008.035
4.873231411,-5.527899,88.94754,-10.08595,-0.8301584,0.009758117,0.5924659,42.14798,5.575846,-20.91661,1008.035
4.905403614,-11.54808,94.80685,-14.80505,-0.7195781,0.2260041,0.6968467,42.94482,6.36717,-17.80024,1008.035
4.940050125,-39.00748,95.69463,-15.60178,-0.8854492,-0.1321593,0.4693839,45.25729,6.759947,-14.37097,1008.037
4.972222805,5.652436,100.3702,-20.99504,-0.8726912,0.04036356,0.5685331,45.25729,6.759947,-14.37097,1008.037
5.006870270,-1.473492,87.94139,-14.25347,-0.9762641,-0.1926444,0.4350287,45.69296,7.954015,-9.979431,1008.037
5.039041996,28.44312,89.65776,-5.734574,-0.9526259,0.01968368,0.4158326,46.11655,8.374448,-6.476736,1008.037
5.073688984,21.25576,85.33725,2.232739,-0.994875,-0.07265081,0.3108718,46.15752,9.17651,-3.356493,1008.037
5.105861187,22.11579,84.92296,3.642341,-0.9923028,0.04061243,0.2717756,46.15752,9.17651,-3.356493,1008.037
5.140508175,7.8025,88.11895,3.887489,-1.063173,-0.007456742,0.2238406,46.94724,9.19907,-0.7464314,1008.037
5.172679901,6.20531,88.76998,3.642341,-1.007184,0.02647946,0.191786,46.61945,7.730255,3.215715,1008.037
5.207327366,1.84375,87.40873,4.868081,-1.091406,-0.08837937,0.09715305,46.61945,7.730255,3.215715,1008.039
5.239499092,15.78846,82.14127,9.342034,-0.9794165,0.02685579,0.06958411,45.90453,8.543053,6.339827,1008.039
5.271671772,9.583983,81.54942,11.73223,-0.9492269,0.005889391,0.01369962,45.18852,8.973906,9.402044,1008.042
5.306318283,14.00697,79.30038,13.14183,-0.9772311,0.04405802,-0.02717637,45.18852,8.973906,9.402044,1008.042
5.338490963,3.31808,80.36572,13.7547,-1.011414,-0.002661898,-0.06532051,44.86125,8.267359,13.36047,1008.042
5.373137474,10.38258,78.17587,14.73529,-1.000915,0.05751489,-0.1227623,43.37838,8.317257,15.59961,1008.044
5.405309677,4.362397,79.65549,16.81905,-1.060677,-0.0221467,-0.1691334,43.37838,8.317257,15.59961,1008.044
5.439956665,-2.76353,80.54327,17.9835,-1.053219,0.08287719,-0.2035231,42.28919,7.23463,19.11748,1008.044
5.472128868,3.993815,80.30653,18.4738,-1.105835,0.06826459,-0.2441225,40.43994,7.301266,22.25112,1008.046
5.506775379,7.003905,74.68395,19.8834,-1.139402,0.1342928,-0.263509,40.43994,7.301266,22.25112,1008.046
5.538948059,16.83277,71.3104,25.15409,-1.182236,0.07523863,-0.396146,38.9497,6.201267,23.9858,1008.044
5.573594570,23.77441,69.71241,32.99883,-1.128293,0.1221177,-0.3875869,37.47755,6.261723,27.05375,1008.044
5.605767250,14.80557,51.48342,25.27666,-1.09999,0.1301972,-0.3916403,37.47755,6.261723,27.05375,1008.042
5.640413761,21.68577,3.070084,2.232739,-1.059238,0.1543634,-0.3156655,35.61071,5.930171,28.8504,1008.042
5.672586441,40.36062,-26.28568,-6.22487,-1.046799,0.20098,-0.3679352,32.97669,5.979121,29.7565,1008.042
5.707232952,53.38387,-47.82903,-4.324973,-1.023014,0.230653,-0.2811526,32.97669,5.979121,29.7565,1008.042
5.739405155,32.80468,-65.2886,1.619869,-1.003489,0.24596,-0.1717947,33.72757,7.1061,29.30077,1008.047
5.774051666,-3.869278,-80.97263,10.9355,-0.9522541,0.2451804,-0.1139573,32.9496,8.61863,27.51207,1008.047
5.806224346,-57.98948,-105.8303,19.63825,-1.050114,0.37242,0.08417863,32.9496,8.61863,27.51207,1008.045
5.838396549,-192.8292,-110.3876,4.439072,-1.071734,0.4149832,-0.01215064,35.19547,9.326759,25.77538,1008.045
5.873043537,-291.8551,-102.5752,-10.39239,-1.023979,0.2249024,-0.3351749,37.0503,7.742086,23.15922,1008.045
5.905215263,-261.5085,-103.6405,-9.840804,-0.935731,0.2040816,-0.334724,37.0503,7.742086,23.15922,1008.043
5.939862728,-211.8112,-98.60976,-11.98585,-0.9379253,0.1003871,-0.3133864,38.54741,3.13564,22.28125,1008.043
5.972034454,-160.0254,-96.59748,-24.30454,-0.9076042,0.04130094,-0.2770425,40.00378,-1.955256,18.28149,1008.041
6.006681919,-126.3615,-91.56675,-45.38728,-0.8483355,0.00970225,-0.1192782,40.00378,-1.955256,18.28149,1008.039
6.038854122,-90.73188,-88.37076,-59.11557,-0.8098935,-0.0738374,0.02427421,41.46782,-5.451598,14.78401,1008.038
6.073500633,-40.91182,-85.4707,-56.11251,-0.7742028,0.04440888,0.1492719,43.30031,-5.915611,10.37716,1008.034
6.105673313,-40.78896,-80.08486,-54.2739,-0.7376194,0.1553213,0.2679347,43.30031,-5.915611,10.37716,1008.034
6.140319824,-60.07811,-72.62755,-51.02568,-0.7369544,0.07814614,0.2682563,43.6394,-4.81656,7.309427,1008.032
6.172492504,-54.18079,-61.26403,-46.2453,-0.6950877,-0.02798087,0.1913168,45.10596,-3.35898,3.724005,1008.035
6.207139015,-24.44847,-41.08194,-35.76522,-0.6798009,-0.0936395,0.1838849,45.44583,-1.116529,0.6506977,1008.033
6.239311695,0.6765727,-23.32643,-24.18197,-0.6977744,-0.1268412,0.2098068,45.44583,-1.116529,0.6506977,1008.033
6.273958206,29.48744,-3.025972,-7.450611,-0.7665019,-0.1839717,0.2470911,45.44082,0.02118647,0.1988335,1008.031
6.306130409,60.57122,7.27222,5.971247,-0.8395286,-0.1404136,0.2466856,45.05214,1.222108,-0.6976852,1008.031
6.338302612,60.69408,22.3644,13.81599,-0.7798618,-0.07389465,0.2881292,45.05214,1.222108,-0.6976852,1008.029
6.372949600,50.86522,42.78323,25.39923,-0.823166,-0.04023419,0.3452047,45.05761,0.7831372,-0.2492352,1008.029
6.405121803,35.20046,53.5549,28.46358,-0.9111693,0.01030644,0.3594565,45.44741,1.233794,0.6392231,1008.028
6.439768791,25.18731,61.78162,23.74448,-0.9915538,0.04609177,0.4164136,45.44741,1.233794,0.6392231,1008.03
6.471940518,44.84504,55.68556,15.04173,-1.076926,0.1740535,0.5903389,45.10224,-0.3155963,3.262838,1008.03
6.506587982,46.50366,36.92391,10.13877,-1.084965,0.2168443,0.6582466,44.75242,-1.425204,5.501757,1008.03
6.538759709,43.30928,21.83173,4.929368,-1.030481,-0.1208148,0.3363529,44.75242,-1.425204,5.501757,1008.032
6.573407173,112.4799,20.47048,4.377785,-0.9131438,-0.2530253,0.1355843,45.14769,-1.413518,6.838665,1008.032
6.605578899,145.2838,23.48891,4.193924,-0.8897855,-0.05791401,0.1495068,44.77553,-1.402464,7.286879,1008.032
6.640225887,114.4457,33.19525,-0.586464,-0.8340499,0.05204621,0.2829251,44.77553,-1.402464,7.286879,1008.03
6.672398567,63.39703,43.55263,-5.673287,-0.8240721,0.05844486,0.3638607,44.78678,-0.6296399,8.111965,1008.03
6.707045078,38.702,48.93847,-8.06348,-0.8792824,-0.01436104,0.3912496,44.05452,0.1661036,9.897234,1008.032
6.739217758,50.55807,48.52417,-6.83774,-0.9762202,-0.09685779,0.393884,44.05452,0.1661036,9.897234,1008.03
6.773864269,96.44659,38.16679,-3.160519,-1.04465,-0.200549,0.3729417,43.7063,1.406819,12.12468,1008.03
6.806036949,153.9455,24.3175,-0.2187418,-1.076933,-0.2453926,0.3275653,42.96718,1.814932,13.40177,1008.03
6.840683460,201.4926,5.851779,-3.037945,-1.097982,-0.1781311,0.2873463,42.96718,1.814932,13.40177,1008.03
6.872855663,218.0174,-14.50786,-7.205462,-1.035437,-0.08987381,0.2542323,43.34615,3.334098,13.3924,1008.03
6.905027866,201.984,-27.88368,-10.02466,-0.9664796,0.005183931,0.2259346,42.95953,6.377976,12.55064,1008.03
6.939674854,163.59,-37.64921,-9.595656,-0.9096624,0.06070406,0.2239341,42.95953,6.377976,12.55064,1008.03
6.971847057,124.8889,-42.56157,-4.753982,-0.8946416,0.0953112,0.2525172,42.93219,8.636353,10.30807,1008.032
7.006494045,71.62871,-42.62075,2.600461,-0.9507886,0.1226073,0.2942361,42.89411,10.88417,7.236694,1008.032
7.038665771,22.05436,-42.62075,8.913025,-0.9917718,0.1034758,0.3045828,42.89411,10.88417,7.236694,1008.032
7.073313236,-24.93991,-44.15956,12.95797,-1.041396,0.0492171,0.3489425,43.24997,12.3806,5.442196,1008.032
7.105484962,-52.89075,-48.59843,14.79658,-1.044827,0.06614552,0.3389921,43.60479,12.35249,3.65514,1008.034
7.140132427,-99.33214,-53.80672,8.851738,-0.9631732,0.05915238,0.3029866,44.34917,11.1878,2.828047,1008.032
7.172304153,-119.4199,-51.38013,3.45848,-0.9346372,-0.05623783,0.2121171,44.34917,11.1878,2.828047,1008.03
7.206951141,-111.5568,-41.79216,-1.934778,-0.950413,-0.1215875,0.2247395,43.95942,10.80066,1.93928,1008.03
7.239123821,-99.57786,-20.24881,2.171452,-1.239686,-0.1229164,0.1806738,43.95313,10.03271,1.496721,1008.032
7.273770332,-101.7279,-20.95903,-1.505769,-1.172917,-0.06001677,0.1979214,43.95313,10.03271,1.496721,1008.03
7.305943012,-121.0785,-0.4810168,-4.079824,-0.9101358,-0.0978535,0.2443214,44.71479,10.02766,1.939133,1008.03
7.340589523,-105.7209,12.4805,-11.12783,-0.8860776,-0.1331022,0.2206703,44.34814,9.663261,2.835489,1008.028
7.372762203,-80.78015,17.03775,-19.83059,-0.7806225,-0.134549,0.2269043,44.34814,9.663261,2.835489,1008.027
7.407408714,-30.03863,31.18296,-36.37809,-0.8553624,-0.2874645,0.1757312,44.74811,9.298687,4.556786,1008.027
7.439580917,114.3228,72.37573,-82.22078,-0.9729453,-0.7589321,-0.1740981,44.00379,9.320793,5.453213,1008.025
7.471753121,518.4121,45.32818,-91.1074,-1.42248,-0.745661,-0.1905201,44.00379,9.320793,5.453213,1008.025
7.506400108,766.7753,-66.05801,-110.5354,-1.34774,0.3598103,-0.4843175,44.02818,11.2492,7.229033,1008.023
7.538572312,615.4108,-120.0939,-102.8132,-0.9708751,0.9306041,0.009957046,41.99428,17.60913,-4.268718,1008.023
7.573219299,273.059,-130.6288,-87.18504,-0.7333461,0.6989078,0.4555361,41.99428,17.60913,-4.268718,1008.023
7.605391025,69.97009,-97.01177,-96.92967,-0.4487566,0.6976127,0.4080439,39.18408,19.38914,-17.07911,1008.025
7.640038490,-175.0144,-37.17573,-101.4036,-0.4521018,0.6049237,0.345133,36.07508,17.44358,-23.55729,1008.025
7.672210216,-280.6747,-8.470993,-93.31374,-0.4589302,0.1980198,0.1938684,36.07508,17.44358,-23.55729,1008.019
7.706857681,-206.0982,0.1108333,-67.81834,-0.4147626,-0.2703268,0.1013893,33.84964,21.32611,-20.50408,1008.021
7.739029407,-35.8131,4.845634,-45.63243,-0.4419962,-0.4213879,0.06955007,31.21942,28.6784,-14.85143,1008.021
7.773676395,117.7015,-8.885288,-36.19423,-0.5299852,-0.2929797,0.04781172,31.21942,28.6784,-14.85143,1008.019
7.805849075,172.4974,-19.24266,-28.22691,-0.4575961,-0.09403177,0.08733636,29.72731,32.14713,-13.5216,1008.021
7.840495586,164.3886,-17.5263,-7.757046,-0.4949618,0.08805563,0.1986001,28.92469,31.35012,-17.08426,1008.021
7.872668266,96.63088,-8.530178,9.342034,-0.5314351,0.1632307,0.29355,28.92469,31.35012,-17.08426,1008.021
7.907314777,-3.869278,13.48665,34.46971,-0.5800853,0.1374587,0.3819974,28.10614,30.15655,-21.85639,1008.022
7.971659183,-55.28654,56.6917,86.74754,-1.084198,-0.3917524,0.2888305,28.08808,27.85351,-23.12031,1008.024
8.006306171,0.430851,10.29066,102.4983,-1.069717,-0.002586943,0.6625613,30.00559,27.47314,-20.96047,1008.024
8.038478374,-99.51643,17.86634,108.0754,-1.132274,0.1453135,0.2893687,33.12047,26.69546,-18.74114,1008.026
8.073125362,-268.3886,29.40742,71.48707,-1.251539,0.2708977,0.3218829,33.12047,26.69546,-18.74114,1008.029
8.105297565,-345.6681,-0.7177569,41.21128,-1.422526,-0.3509257,0.07783431,35.42484,23.65235,-15.7414,1008.029
8.139944553,-179.9903,-15.57319,-3.834676,-1.253404,-0.6052386,0.0008957363,38.15678,24.4615,-9.128204,1008.033
8.172116280,-85.69458,-5.570928,-13.33416,-1.025144,-0.2600252,0.2257416,38.15678,24.4615,-9.128204,1008.037
8.206763744,-70.39841,10.76414,1.865017,-1.212546,-0.1875377,0.1895279,39.35359,24.88824,-4.290535,1008.038
8.238935471,-91.53047,23.42973,7.013127,-1.087162,-0.2516104,0.3329115,39.37665,26.05357,-2.574749,1008.04
8.273582935,-78.13864,25.61958,11.11936,-1.200965,-0.1829909,0.3461071,39.40528,25.70086,-0.341486,1008.044
8.305754662,-106.2738,27.75024,8.177581,-1.217096,-0.214368,0.3580489,39.40528,25.70086,-0.341486,1008.044
8.340401650,-48.65205,22.30521,5.29709,-1.260622,-0.305558,0.2747994,40.57847,25.34261,2.714785,1008.047
8.372573853,-5.405038,23.01543,9.709756,-1.26446,-0.2044124,0.2337351,39.85071,24.23837,4.955637,1008.051
8.407220841,18.67568,4.017044,8.484015,-1.451126,-0.1624656,0.7067362,39.85071,24.23837,4.955637,1008.054
8.439393520,-1.964935,14.0785,4.990655,-1.238442,-0.3108978,0.4779522,40.25227,25.01801,6.735104,1008.054
8.474040032,19.96572,4.845634,20.06726,-1.444263,-0.2707528,0.7048154,40.25124,23.49347,6.742546,1008.054
8.506212711,-71.62702,7.62733,19.82211,-1.265187,-0.2835989,0.4760168,40.25124,23.49347,6.742546,1008.061
8.538384438,-2.7021,8.633475,5.971247,-1.327626,-0.6345223,0.1840247,40.63496,23.49379,7.186893,1008.063
8.573031425,114.9371,-4.209673,4.377785,-1.261902,-0.03956992,0.400396,41.02311,22.73671,8.017488,1008.065
8.605203628,-10.62662,-8.234253,-8.921498,-1.300008,0.1045346,0.5581074,41.02311,22.73671,8.017488,1008.068
8.639850616,-8.292267,-13.02824,-22.1595,-1.182145,-0.3476167,0.2843244,40.62263,22.33902,6.299913,1008.07
8.672022819,37.9034,-5.748483,-22.34336,-1.217063,-0.3129857,0.4097735,40.61711,22.71447,5.851774,1008.07
8.706669807,40.11489,-12.02209,-9.227934,-1.1187,-0.2634144,0.4184224,40.61711,22.71447,5.851774,1008.072
8.738841534,-11.60951,-10.06899,-19.09515,-1.137919,-0.1078185,0.3789145,39.84467,23.85155,4.511217,1008.073
8.773488998,-63.27249,-8.175068,-27.00117,-1.174685,-0.2001125,0.3457207,39.83363,24.60245,3.614935,1008.073
8.805660725,-57.12945,-11.01595,-29.94295,-1.165901,-0.4805136,0.3071772,39.83363,24.60245,3.614935,1008.073
8.840308189,-17.13825,-8.648548,-37.41996,-1.065266,-0.424412,0.4088845,38.33394,25.39756,4.511509,1008.073
8.872479916,-39.31463,-3.558638,-28.7785,-1.07682,-0.419262,0.250939,37.95677,26.54633,4.50786,1008.073
8.907126904,-15.29533,3.188454,-30.55582,-1.027106,-0.4026027,0.1773485,37.95677,26.54633,4.50786,1008.077
8.939299583,-18.244,1.412904,-41.28105,-0.9559224,-0.4722023,0.2614244,37.20115,26.9382,4.509869,1008.077
8.973946095,39.19344,-2.493307,-56.6028,-0.8319859,-0.3718396,0.3271293,36.45182,28.09802,4.954435,1008.076
9.006118774,34.34044,-6.162778,-60.09616,-0.7729663,-0.176871,0.3455379,36.45182,28.09802,4.954435,1008.076
9.038290501,-3.316404,-1.013682,-63.40567,-0.7737793,-0.176197,0.3065091,35.30144,29.24047,3.615812,1008.074
9.072937965,-22.85128,1.768014,-81.91434,-0.7032063,-0.464738,0.133326,34.54107,31.15119,3.164095,1008.072
9.105109692,46.62652,-3.617823,-87.61404,-0.614724,-0.3311989,0.2613311,34.54107,31.15119,3.164095,1008.07
9.139756680,47.11796,-17.5263,-96.8071,-0.4929139,-0.2749898,0.3276558,31.891,33.08875,2.722048,1008.069
9.171928883,8.416805,-23.4448,-106.6743,-0.4150632,-0.2963414,0.2525254,29.16772,35.77892,1.447796,1008.065
9.206575871,29.18028,-30.72456,-106.7356,-0.306833,-0.3974822,0.1725978,29.16772,35.77892,1.447796,1008.065
9.238748074,46.68795,-30.66537,-101.7101,-0.2562527,-0.2872273,0.2149688,26.12238,37.70479,-0.3311615,1008.06
9.273395062,-11.48665,-25.75302,-92.82344,-0.171193,-0.3445376,0.2021346,22.3159,40.39799,-2.556251,1008.058
9.305566788,-19.59546,-15.51401,-76.58237,-0.1019416,-0.6175798,0.2127334,22.3159,40.39799,-2.556251,1008.055
9.340214253,-41.46469,2.478234,-68.98279,-0.00367538,-0.6295095,0.2396741,18.53753,41.97621,-2.544354,1008.049
9.372386456,-56.69944,34.85243,-61.75092,-0.01478064,-0.8188676,0.2873806,15.90402,42.78743,-1.641977,1008.049
9.407033444,-2.087796,58.64481,-56.66409,-0.1405726,-0.8713343,0.3261998,13.66605,43.99146,0.5954475,1008.052
9.439205647,36.36764,77.11053,-57.15439,-0.2424843,-0.7615439,0.3989098,13.66605,43.99146,0.5954475,1008.048
9.473852158,18.79854,93.56397,-53.04816,-0.3899822,-0.646802,0.3289321,11.02098,44.79131,0.6052628,1008.046
9.506024838,-21.25409,110.5501,-49.24836,-0.4806267,-0.8772364,0.2228023,8.369372,44.44207,0.1743793,1008.043
9.540671349,-2.76353,115.5808,-42.69065,-0.6384673,-0.9917042,0.1944115,8.369372,44.44207,0.1743793,1008.045
9.572844028,21.50148,104.3948,-39.56501,-0.6491972,-1.00273,0.1423648,6.119582,45.2536,1.521103,1008.045
9.605015755,23.83584,92.2619,-42.50679,-0.6164823,-0.9245742,0.1648758,4.596526,45.64484,0.6344166,1008.043
9.639663219,5.529575,77.87994,-49.00321,-0.6145666,-1.037214,0.09885937,4.596526,45.64484,0.6344166,1008.04
9.671834946,48.408,58.17133,-46.91945,-0.5258386,-0.98841,0.06469384,3.462964,46.04208,0.6383572,1008.036
9.706481934,30.53175,47.69558,-46.42916,-0.4751742,-0.852933,0.1048619,0.4331541,45.31708,0.2112694,1008.034
9.738654137,11.48833,45.03226,-45.81629,-0.3939762,-0.9774016,0.1295881,0.4331541,45.31708,0.2112694,1008.034
9.773301125,36.24478,41.42197,-40.36174,-0.3800361,-0.9921715,0.1115023,-0.7232628,46.07271,-1.571773,1008.033
9.805473328,47.48655,38.46272,-39.19729,-0.3410964,-0.8247325,0.1346913,-2.625031,45.32592,-2.450944,1008.031
9.840120316,32.98897,42.19138,-41.83263,-0.2171664,-0.9506485,0.2510687,-2.625031,45.32592,-2.450944,1008.029
9.872292995,50.31234,41.65871,-35.76522,-0.1911375,-0.9332557,0.3203771,-4.537015,45.33083,-4.162642,1008.032
9.906939507,48.34657,51.30587,-39.74887,-0.143017,-0.9470971,0.1299062,-6.449826,45.33493,-5.938095,1008.032
9.939111710,36.55193,63.32042,-37.7264,-0.1374702,-0.9101725,0.07521094,-6.449826,45.33493,-5.938095,1008.032
9.973758698,10.07543,73.14514,-34.53947,-0.170968,-0.9175842,0.09956238,-6.478407,44.54506,-8.102022,1008.03
10.005930901,15.11272,67.87768,-36.68452,-0.1735093,-1.029815,0.08371887,-7.635594,44.15729,-9.879482,1008.028
10.040577412,49.63661,68.82464,-43.30352,-0.1138477,-0.9018874,0.0948208,-7.635594,44.15729,-9.879482,1008.026
10.072750092,24.75729,73.38188,-49.00321,-0.1191007,-0.9162632,0.1154773,-8.787262,43.39407,-11.2088,1008.026
10.107397556,21.1329,76.28194,-47.1646,-0.09960208,-1.043037,0.1161782,-9.949917,42.23916,-13.36507,1008.026
10.139569283,34.4633,86.87606,-45.38728,-0.159072,-0.9938415,0.1002687,-9.949917,42.23916,-13.36507,1008.025
10.171741009,37.41196,96.04974,-48.75806,-0.1553073,-0.8200896,0.2901278,-10.73443,42.60261,-15.59446,1008.025
10.206388474,-3.930708,106.1704,-45.93886,-0.248807,-0.8001412,0.3620186,-11.50842,41.45289,-16.92385,1008.025
10.238560200,-16.0325,123.6891,-47.28718,-0.2053971,-1.05265,0.249154,-11.50842,41.45289,-16.92385,1008.027
10.273207188,35.63047,154.347,-47.83876,-0.2380917,-1.12253,0.166943,-12.2873,39.15571,-18.56643,1008.027
10.305379868,68.25003,173.5821,-54.21261,-0.2608861,-0.9550097,0.1608248,-11.54901,38.74678,-19.90728,1008.027
10.372199059,55.28821,189.2661,-61.3219,-0.2094325,-0.8481632,0.07639363,-10.46136,37.54261,-23.41399,1008.029
10.406845570,43.67786,194.4744,-59.11557,-0.253575,-1.049721,0.03128191,-8.624386,35.17862,-27.36527,1008.029
10.439018250,64.99422,191.0417,-62.73151,-0.26011,-1.036324,0.002051369,-5.631044,33.20158,-29.60284,1008.029
10.473664761,43.86215,198.6174,-65.24428,-0.2253544,-0.9401674,-0.03170218,-5.631044,33.20158,-29.60284,1008.029
10.505837441,36.61336,211.2238,-69.90209,-0.2594955,-1.072404,-0.08163773,-1.87579,31.60062,-31.39986,1008.027
10.540484429,54.30532,215.7218,-71.37298,-0.2883149,-1.046695,-0.0392229,1.892362,30.77411,-32.24428,1008.027
10.572656155,44.53789,216.9055,-70.3311,-0.3099094,-1.075714,-0.03974264,1.892362,30.77411,-32.24428,1008.027
10.607303619,43.80072,218.2668,-67.26675,-0.3440585,-1.105999,-0.02376769,6.799026,29.55523,-32.71012,1008.031
10.639475346,54.79676,211.3421,-67.26675,-0.3932116,-1.080524,0.03811491,11.3503,28.74479,-31.45452,1008.031
10.671648025,60.44836,198.6174,-66.59259,-0.3823168,-1.034531,0.09285837,11.3503,28.74479,-31.45452,1008.031
10.706294537,48.83802,187.9049,-64.57012,-0.3926837,-1.036039,0.07944669,15.53074,28.70847,-29.69067,1008.031
10.738467216,63.88847,175.8903,-60.4026,-0.423279,-1.02608,0.09234625,18.94928,28.29608,-28.36737,1008.031
10.773113728,79.4918,164.0533,-58.25755,-0.3814016,-0.8963653,0.1349588,18.94928,28.29608,-28.36737,1008.031
10.839932442,36.30621,160.5022,-47.28718,-0.3036358,-0.861775,0.1388564,24.28557,27.88445,-24.88609,1008.031
10.872105122,21.7472,159.9696,-40.72947,-0.2816799,-0.8623711,0.1386466,24.28557,27.88445,-24.88609,1008.031
10.906751633,21.9315,163.2839,-34.72334,-0.2728215,-0.9676902,0.08226572,26.21567,29.03999,-21.84114,1008.029
10.938924313,34.89331,162.8104,-32.63958,-0.3026499,-0.9632455,0.0729407,28.52426,29.80984,-18.7325,1008.029
10.973571301,45.82792,160.0879,-33.25245,-0.3075027,-1.063183,-0.04978378,28.52426,29.80984,-18.7325,1008.031
11.005743504,108.1184,158.1348,-34.53947,-0.297199,-1.139587,-0.006165856,29.7024,29.45646,-15.2937,1008.031
11.040390491,102.8354,141.0304,-35.02977,-0.340687,-0.8059846,0.174366,30.92258,29.84333,-13.51656,1008.03
11.072562695,44.23073,127.8913,-31.1074,-0.3354079,-0.8592471,0.1314617,30.92258,29.84333,-13.51656,1008.03
11.107209682,46.13507,122.8606,-27.24632,-0.335769,-0.9784963,0.088066,31.70074,29.85452,-11.79906,1008.03
11.139381409,52.95385,122.683,-22.46593,-0.3876155,-0.8865442,0.1457018,32.48025,30.62879,-10.02153,1008.026
11.174028873,30.53175,117.6523,-16.33723,-0.4500129,-0.77938,0.2180214,32.48025,30.62879,-10.02153,1008.024
11.206200600,5.775297,113.0358,-7.389324,-0.4457113,-0.8379585,0.1774924,32.50336,30.65153,-8.236407,1008.024
11.238373280,11.30404,109.8399,4.010063,-0.4906572,-0.9238193,0.1550319,32.9267,30.69083,-4.731851,1008.022
11.273019791,23.40582,104.6908,8.422729,-0.5131887,-0.8067977,0.1465669,32.9267,30.69083,-4.731851,1008.02
11.305192471,25.80161,96.70078,7.503423,-0.5416795,-0.6516764,0.1654636,33.33848,30.71876,-2.119856,1008.02
11.339838982,18.85997,81.84534,4.745507,-0.5293557,-0.5931123,0.1518534,32.99496,30.3771,0.5616226,1008.019
11.372011185,19.53571,72.25736,2.661748,-0.5223569,-0.6824174,0.1568359,32.99496,30.3771,0.5616226,1008.019
11.406658650,31.45321,61.54488,10.01619,-0.5370929,-0.6524883,0.1890321,34.15189,30.38373,2.340944,1008.019
11.438830376,21.44005,52.13446,15.59331,-0.5461584,-0.6222732,0.1990058,33.40673,30.40503,3.173618,1008.019
11.473477841,6.758183,44.02611,13.08054,-0.5742164,-0.6852195,0.2006766,33.80175,30.03558,4.512386,1008.023
11.505649567,19.59714,33.49118,7.993719,-0.5822769,-0.6274195,0.2007463,33.80175,30.03558,4.512386,1008.021
11.540296555,26.96879,16.86019,-3.283093,-0.5521916,-0.5378556,0.2532599,33.42933,29.6655,4.962463,1008.021
11.572468758,4.116676,5.023189,-8.798924,-0.454696,-0.6148007,0.2199039,33.81254,28.90355,5.41053,1008.021
11.607115745,-30.89866,11.88865,-2.608936,-0.4889036,-0.9095398,0.1826073,33.81254,28.90355,5.41053,1008.021
11.639287949,6.32817,-1.250422,-0.46389,-0.6958272,-1.025102,0.2954093,33.81305,29.66582,5.406809,1008.019
11.673934936,65.42423,-28.65308,4.68422,-0.7099883,-0.9404159,0.2533416,33.44615,28.92029,6.305025,1008.021
11.706106663,67.88145,-31.90826,-11.98585,-0.65176,-0.7584054,0.4162506,33.44615,28.92029,6.305025,1008.023
11.738279343,9.645413,-23.32643,-18.66614,-0.6113667,-0.8457119,0.3871979,33.02854,30.02926,3.177412,1008.023
11.772926331,35.63047,-30.07352,-26.69474,-0.5755975,-0.8109394,0.3876328,32.63435,30.39952,1.902397,1008.023
11.805098534,50.74236,-42.38401,-23.44652,-0.5417742,-0.6698413,0.4535504,32.63435,30.39952,1.902397,1008.023
11.839745522,8.416805,-53.45161,-35.58136,-0.4335596,-0.8309962,0.4589241,31.84983,30.76297,-0.3269978,1008.024
11.871917725,46.3808,-56.6476,-44.3454,-0.3759161,-0.9959751,0.3133903,31.00863,31.89526,-2.113513,1008.028
11.906564713,58.42116,-59.25174,-54.76419,-0.3398339,-0.8710861,0.481819,31.00863,31.89526,-2.113513,1008.028
11.938736439,30.40889,-63.3355,-57.15439,-0.3544939,-0.7767733,0.4918913,29.83596,33.01579,-5.173502,1008.03
11.973383903,-0.613466,-58.42315,-64.01854,-0.320346,-0.9466116,0.4564325,28.29113,34.14737,-7.785279,1008.03
12.005555630,27.33737,-53.51079,-71.06654,-0.2384852,-1.009102,0.5881854,28.29113,34.14737,-7.785279,1008.03
12.040203094,8.539666,-48.12495,-71.7407,-0.1517687,-0.8516511,0.6686862,25.25708,35.70348,-8.669812,1008.032
12.072374821,9.522552,-48.12495,-67.14417,-0.1046341,-0.925534,0.6223293,22.58968,37.62398,-10.4507,1008.026
12.107021809,15.54273,-43.27179,-60.58646,-0.01419054,-0.8407619,0.6588162,22.58968,37.62398,-10.4507,1008.026
12.139194489,-22.91271,-32.67767,-49.12579,0.1405764,-0.8453326,0.6693844,19.92754,38.78791,-11.78159,1008.026
12.173841000,-51.47785,-18.2957,-35.27492,0.2718853,-1.006941,0.6938188,16.52082,39.59281,-12.21419,1008.028
12.206013680,-21.31552,-11.72617,-32.14928,0.2303906,-1.040599,0.7083884,16.52082,39.59281,-12.21419,1008.034
12.240660191,4.79241,-15.1589,-37.84898,0.1242153,-0.8725665,0.6519606,15.01561,40.76337,-11.76575,1008.035
12.272832871,9.09254,-18.59163,-45.81629,0.1061254,-0.7220805,0.5169641,13.51041,41.93393,-11.31732,1008.035
12.305004597,-0.1834531,-16.22423,-53.59974,0.1011912,-0.7181997,0.4505262,13.51041,41.93393,-11.31732,1008.037
12.339651585,42.20353,-15.09972,-59.29943,0.09231553,-0.7994044,0.3626977,11.23121,41.95477,-12.19828,1008.039
12.371823788,76.78886,-16.7569,-53.7836,0.1537765,-0.5981601,0.3782432,9.725743,42.7442,-11.74798,1008.037
12.406470776,30.16317,-18.17733,-41.64877,0.2119724,-0.4809029,0.4524128,9.725743,42.7442,-11.74798,1008.037
12.438642979,-20.63978,-17.58549,-23.75296,0.2569279,-0.6072454,0.4625197,7.412965,43.11287,-15.24473,1008.037
12.473289967,-41.89471,-16.10586,-2.486362,0.233927,-0.758994,0.4701594,4.766616,42.00705,-15.22561,1008.037
12.505462647,-44.29049,-17.05282,14.55143,0.2561248,-0.915042,0.5159017,4.766616,42.00705,-15.22561,1008.037
12.540109158,-37.8403,-13.44253,32.32467,0.2578562,-0.9525617,0.6240261,4.023065,43.17256,-14.33476,1008.037
12.572281837,-35.8131,-10.12817,37.90179,0.2110723,-0.9127308,0.7867428,4.424373,43.57106,-12.55343,1008.037
12.606928348,-32.68015,-3.440268,30.91507,0.2188441,-0.9258214,0.7306504,5.185719,44.32747,-12.1785,1008.035
12.639100552,-25.49278,5.792594,18.04479,0.2398703,-0.9615217,0.5204902,5.185719,44.32747,-12.1785,1008.035
12.673747063,-4.606443,14.78872,11.30322,0.2459638,-0.9829834,0.3848145,5.971004,45.10742,-9.954684,1008.037
12.705919743,20.27287,13.48665,10.26134,0.2405605,-0.8882465,0.3928759,7.488282,44.7105,-9.514278,1008.035
12.740567207,19.65857,6.384444,10.20005,0.2665896,-0.7944496,0.4252183,7.488282,44.7105,-9.514278,1008.035
12.772738934,-3.193543,-2.138197,13.08054,0.2786371,-0.7414936,0.4395204,7.471206,45.07458,-10.85498,1008.035
12.807385921,-27.58142,-9.240398,13.99985,0.3202181,-0.8083398,0.4838893,8.238385,44.69408,-9.964426,1008.034
12.839558125,-15.60249,-10.83839,16.14489,0.3310261,-0.8866656,0.5303787,8.238385,44.69408,-9.964426,1008.034
12.871730328,-7.06366,-5.452558,14.91915,0.3005918,-0.8475462,0.5483371,8.621844,44.31326,-9.518219,1008.039
12.906376839,-11.1795,1.472089,5.726099,0.2577102,-0.9381129,0.4834027,9.000041,44.68903,-9.522014,1008.039
12.938549519,14.80557,7.15385,4.132637,0.1942034,-0.9073943,0.4606306,9.000041,44.68903,-9.522014,1008.039
12.973196030,19.16713,2.478234,0.7005635,0.1717928,-0.8193142,0.5386857,9.005561,44.31358,-9.073873,1008.038
13.005368710,-16.33965,-1.013682,-3.099232,0.1749269,-0.833611,0.5120287,10.1336,44.29179,-9.525954,1008.038
13.040015221,-27.70428,0.9394235,-9.227934,0.1398572,-1.009767,0.4308918,10.1336,44.29179,-9.525954,1008.038
13.072187901,13.20838,2.241494,-12.66001,0.1231015,-0.9948431,0.4041792,9.761182,43.9217,-9.075879,1008.038
13.106834888,20.45716,4.668079,-16.70495,0.1137735,-0.8919226,0.4639186,9.389279,44.31389,-8.629526,1008.038
13.139007092,0.7994335,7.98244,-16.39852,0.130814,-0.8659305,0.4466219,9.389279,44.31389,-8.629526,1008.038
13.173654079,10.75116,10.23147,-10.8214,0.123596,-0.8918769,0.4132174,9.005818,44.69471,-9.075733,1008.038
13.205825806,22.36151,11.82947,-7.511898,0.1107515,-0.8035378,0.4680495,8.621587,43.93213,-9.516358,1008.038
13.240473270,-3.746417,12.77643,-6.960314,0.1100505,-0.7762031,0.4875613,8.621587,43.93213,-9.516358,1008.036
13.272644997,-10.87234,12.95398,-5.550713,0.1109632,-0.8439278,0.4547005,8.232863,45.06952,-10.41257,1008.038
13.307292461,2.028042,9.521251,-4.141111,0.0942244,-0.8507864,0.4986621,7.860187,44.31831,-9.960632,1008.038
13.339464188,0.9222943,5.023189,-3.221806,0.09918305,-0.8483212,0.5068302,7.860187,44.31831,-9.960632,1008.038
13.371636868,-9.828027,3.484379,0.9457116,0.1211238,-0.8291048,0.4952159,7.482505,44.70481,-9.960559,1008.038
13.406283379,-19.16545,3.070084,3.948776,0.09869334,-0.8855178,0.4665221,7.866221,44.70513,-9.516212,1008.039
13.438455582,-11.67094,1.590459,4.868081,0.1064751,-0.9034724,0.4720855,7.866221,44.70513,-9.516212,1008.038
13.473103047,-7.247951,2.359864,5.971247,0.1077649,-0.9162108,0.4575085,8.249682,44.32431,-9.070004,1008.038
13.505274773,2.212333,2.596604,5.726099,0.1074693,-0.9029772,0.4740083,8.261754,45.09795,-8.181165,1008.038
13.539922238,4.546689,2.359864,5.113229,0.1130181,-0.8738251,0.4814269,8.261754,45.09795,-8.181165,1008.038
13.572093964,1.290877,2.419049,5.235803,0.1257529,-0.8593384,0.4799815,7.878036,45.09763,-8.625512,1008.039
13.606740951,-0.9820485,1.649644,6.461544,0.1427022,-0.8759833,0.4724561,8.633401,44.32463,-8.625658,1008.039
13.638913155,2.519485,-0.2442768,7.258275,0.1388187,-0.8730438,0.4734805,8.633401,44.32463,-8.625658,1008.043
13.673560142,0.3079902,-1.723902,7.748571,0.1477103,-0.848811,0.4745613,8.639693,45.09258,-8.183099,1008.043
13.705732346,-4.299291,-1.783087,8.484015,0.1620067,-0.8381113,0.4865661,9.395314,44.70071,-8.185106,1008.045
13.740379333,-5.896482,-2.374937,9.096886,0.1681949,-0.8619794,0.4795637,9.401093,44.70639,-7.738826,1008.045
13.772552013,-2.210657,-0.8953119,7.687284,0.1596962,-0.8945218,0.4711806,9.401093,44.70639,-7.738826,1008.045
13.807198524,-1.043479,1.886384,3.642341,0.1369263,-0.884102,0.485939,9.395314,44.70071,-8.185106,1008.045
13.839371204,-5.159317,1.827199,-1.812204,0.102995,-0.9151194,0.470094,9.778518,43.93876,-7.737038,1008.045
13.874017715,6.881044,1.116979,-5.244278,0.1116064,-0.9332119,0.4582965,9.778518,43.93876,-7.737038,1008.047
13.906189918,13.88411,1.235349,-5.428139,0.119287,-0.846845,0.4594188,10.15672,44.31453,-7.740832,1008.047
13.938362122,-2.272087,2.655789,-4.753982,0.1285575,-0.8333524,0.4526955,9.389537,44.69502,-8.631387,1008.045
13.973009109,-5.405038,4.372154,-2.73151,0.1223415,-0.8950641,0.4397128,9.389537,44.69502,-8.631387,1008.045
14.005180836,0.9837248,5.437484,-1.873491,0.1010961,-0.8758923,0.4574211,9.400578,43.94413,-7.735104,1008.043
14.039828300,-1.473492,5.259929,-3.160519,0.08502925,-0.8985065,0.4728086,9.773253,44.69534,-8.187039,1008.045
14.072000027,5.775297,4.490524,-3.099232,0.09386715,-0.8960832,0.4780481,9.773253,44.69534,-8.187039,1008.045
14.106647491,9.706844,4.076229,-1.996065,0.07909694,-0.8333024,0.4902714,9.394799,43.93844,-8.181384,1008.045
14.138819695,-6.572217,3.957859,-1.199334,0.08835202,-0.8372323,0.4901527,9.767476,44.68966,-8.63332,1008.045
14.173466206,-1.104909,2.419049,-0.46389,0.09462564,-0.8948352,0.4515413,9.767476,44.68966,-8.63332,1008.047
14.205638886,4.362397,2.596604,1.987591,0.1041311,-0.8695232,0.4670852,9.01686,43.94381,-8.179451,1008.047
14.240285397,-4.053569,1.531274,3.826202,0.1028897,-0.8490036,0.483654,9.773253,44.69534,-8.187039,1008.049
14.272458077,-11.85523,0.8210535,4.500359,0.09816584,-0.9068284,0.4721354,9.773253,44.69534,-8.187039,1008.049
14.307104588,1.413738,-0.7769418,4.561646,0.1044024,-0.9229153,0.4671246,9.772996,44.31421,-8.185179,1008.05
14.339277268,3.932385,-1.309607,3.090758,0.1031879,-0.873357,0.4728464,10.15589,44.31371,-7.804586,1008.052
14.373924255,-1.043479,-0.5993868,1.497295,0.1115582,-0.8718799,0.4809745,10.15589,44.31371,-7.804586,1008.054
14.406096459,0.3079902,0.7026834,0.6392765,0.1265629,-0.8710999,0.4658989,9.772738,43.93307,-8.183318,1008.054
14.438268662,1.78232,1.708829,0.8844246,0.1281523,-0.8642231,0.4775088,9.772996,44.31421,-8.185179,1008.054
14.472915173,0.2465598,2.596604,1.558582,0.1305636,-0.8623271,0.4731639,9.772996,44.31421,-8.185179,1008.054
14.505087853,2.765207,2.774159,2.600461,0.1295149,-0.8691583,0.4678154,10.15646,43.93339,-7.738972,1008.054
14.539734364,0.6151423,3.188454,4.132637,0.1282205,-0.8467526,0.4771702,9.779033,44.70103,-7.740759,1008.056
14.571907043,-6.879368,3.070084,4.868081,0.1213008,-0.8661414,0.4761109,9.779033,44.70103,-7.740759,1008.056
14.606553554,-1.104909,4.076229,5.480951,0.1191976,-0.8860954,0.467772,10.52336,44.67892,-8.637188,1008.054
14.638726234,3.133789,5.259929,5.29709,0.1095756,-0.8656117,0.4742967,10.15119,44.68998,-8.188973,1008.054
14.673373222,-5.773621,6.561999,5.542238,0.09064671,-0.8605879,0.4841547,10.15119,44.68998,-8.188973,1008.053
14.705544949,-5.220747,5.437484,5.848673,0.09722209,-0.9000242,0.4726823,10.52862,43.92234,-8.187186,1008.053
14.740192413,7.065335,6.266075,5.603525,0.09720706,-0.8840801,0.4631738,10.91285,44.68492,-7.746561,1008.053
14.772364140,-0.0605923,7.7457,6.461544,0.1066798,-0.8549293,0.4729658,10.91234,43.92265,-7.74284,1008.051
14.807011604,-2.394948,8.45592,8.238868,0.1090175,-0.8845322,0.4751099,10.91234,43.92265,-7.74284,1008.051
14.839183330,-1.104909,8.633475,9.342034,0.09596619,-0.8751656,0.4854309,11.29523,43.92216,-7.362247,1008.049
14.873830318,1.966611,8.159995,10.75164,0.1041689,-0.8936672,0.4832738,11.67317,43.91679,-7.364181,1008.051
14.906002521,5.468145,10.1131,12.22252,0.1085332,-0.8767892,0.4718043,11.67317,43.91679,-7.364181,1008.051
14.940649509,7.249627,13.84176,14.79658,0.08118808,-0.8882751,0.4753387,11.67869,43.54134,-6.916039,1008.049
14.972822189,8.293944,13.19072,17.00291,0.05873414,-0.8582253,0.5182119,12.80647,43.13842,-7.366261,1008.047
15.004993916,2.826637,11.65191,20.00598,0.073792,-0.865134,0.5131944,12.80647,43.13842,-7.366261,1008.047
15.039641380,10.07543,12.06621,23.98963,0.1062492,-0.863579,0.4839845,13.18441,43.13305,-7.368195,1008.047
15.071813107,8.785388,14.96627,28.64745,0.09295113,-0.8036995,0.4985802,13.92931,42.73062,-8.199009,1008.047
15.106460094,3.072359,17.09693,32.50853,0.09630299,-0.8269861,0.5022129,13.92931,42.73062,-8.199009,1008.047
15.138632298,12.8398,24.90936,36.49218,0.1192531,-0.7704346,0.3602751,15.44576,42.33289,-7.822357,1008.047
15.173279285,-3.869278,53.31816,45.13366,0.1086936,-0.8000901,0.2213133,16.57412,41.54964,-8.206964,1008.047
15.205451489,21.62434,68.88382,37.53407,-0.003942147,-0.9224235,0.5240515,16.57412,41.54964,-8.206964,1008.047
15.240098476,46.19651,64.6225,39.98555,-0.04904814,-0.7944703,0.785807,17.72366,40.40637,-6.932096,1008.046
15.272270203,9.645413,56.09985,44.58207,-0.1909451,-0.7399147,0.6564769,20.36321,39.98198,-7.390053,1008.046
15.306917667,-2.64067,67.34501,40.23069,-0.2323032,-0.9821631,0.4977339,20.36321,39.98198,-7.390053,1008.044
15.339090347,0.6151423,77.58401,38.88238,-0.4056313,-0.975619,0.5423031,22.26318,38.06084,-6.497857,1008.044
15.373736858,-32.1887,78.76772,35.0213,-0.5457656,-1.04556,0.5088122,23.79779,37.68097,-4.718609,1008.044
15.405909062,-33.29445,65.62865,25.0928,-0.5863932,-1.105955,0.5814753,23.79779,37.68097,-4.718609,1008.042
15.440555573,-2.824961,38.87701,15.89975,-0.6278998,-1.207248,0.5111375,24.96494,36.93589,-2.10676,1008.042
15.472728253,25.06445,21.77255,14.06114,-0.5891353,-1.032232,0.5098087,26.87672,35.40726,-0.323864,1008.04
15.507374764,10.87402,10.1131,12.28381,-0.6451287,-1.011975,0.4569962,26.87672,35.40726,-0.323864,1008.04
15.539547444,24.32728,3.425194,8.667877,-0.5796583,-0.9894622,0.397285,27.63812,35.02107,0.120409,1008.04
15.571719170,23.03724,5.674224,6.216395,-0.5250656,-0.8916636,0.4004738,28.00977,34.24775,-0.3240833,1008.04
15.606366634,3.19522,7.804885,0.8231376,-0.5003964,-0.8770327,0.4254282,28.00977,34.24775,-0.3240833,1008.04
15.638538837,-6.940799,8.69266,-6.041009,-0.4635488,-0.932562,0.4236626,27.62553,33.48517,-0.7647076,1008.043
15.673185825,-10.3809,9.876361,-14.74377,-0.4400937,-0.949091,0.4353575,28.76513,33.47475,-0.3242302,1008.043
15.705358028,-6.510786,6.621184,-25.77543,-0.4352846,-0.9632032,0.4337503,28.76513,33.47475,-0.3242302,1008.043
15.740004539,9.153971,-0.5402018,-38.09412,-0.3864339,-0.9295492,0.4234499,28.77695,33.86725,0.5664711,1008.041
15.772177219,21.01004,-6.636259,-47.77747,-0.3569444,-0.8685742,0.4188574,27.6376,34.25881,0.1241302,1008.041
15.806823730,25.31017,-13.02824,-59.42201,-0.3134175,-0.819379,0.4063249,27.24862,35.01507,-0.7702179,1008.039
15.838996410,27.3988,-17.28956,-68.9215,-0.2605223,-0.761438,0.401007,27.24862,35.01507,-0.7702179,1008.036
15.873643398,40.85206,-22.73458,-79.21772,-0.2457123,-0.7357269,0.4087927,24.9702,36.17931,-1.656757,1008.034
15.905815601,59.40405,-30.19189,-88.2882,-0.2349555,-0.6937281,0.4490446,23.8096,38.07347,-3.827909,1008.034
15.940462589,49.8209,-35.6961,-99.87144,-0.1649044,-0.6343146,0.3939328,23.8096,38.07347,-3.827909,1008.034
15.972634315,32.92754,-32.02663,-108.3291,-0.1268582,-0.657656,0.2868635,20.75193,38.84458,-6.493843,1008.032
16.007281780,53.87531,-32.5593,-113.8449,-0.1017625,-0.6334121,0.2998432,16.94576,40.77632,-8.651457,1008.03
16.039453506,47.85513,-34.57159,-113.7836,-0.02086184,-0.5266336,0.3515425,16.94576,40.77632,-8.651457,1008.03
16.071626186,17.32421,-32.20419,-108.5742,0.05876015,-0.5298584,0.362341,13.14402,41.95066,-10.42282,1008.03
16.106272697,8.969679,-25.27954,-98.64571,0.127646,-0.6210021,0.3575727,8.591926,42.7603,-11.74218,1008.029
16.138445377,16.64848,-17.58549,-89.02364,0.1440921,-0.5961462,0.4443841,8.591926,42.7603,-11.74218,1008.023
16.173092365,-0.3677444,-10.77921,-79.03386,0.2095453,-0.5481698,0.6027467,4.796279,43.17888,-12.99979,1008.021
16.205264092,-26.72139,-4.505598,-63.28309,0.271982,-0.6138235,0.6893468,1.016625,42.85143,-12.97859,1008.021
16.239911556,-33.78589,4.904819,-45.08084,0.2148,-0.72722,0.6759315,1.016625,42.85143,-12.97859,1008.019
16.272083283,-24.14131,12.18458,-35.94908,0.2224266,-0.7699777,0.6750259,-1.234247,43.28102,-11.69376,1008.019
16.306730747,-8.537989,15.73568,-27.49147,0.2541859,-0.7217423,0.6563292,-3.49585,43.70004,-11.23774,1008.019
16.338902474,-3.439265,15.14383,-16.4598,0.2876642,-0.6906534,0.6181951,-3.49585,43.70004,-11.23774,1008.019
16.373549461,-8.292267,18.399,-8.676351,0.33954,-0.6888036,0.5767564,-4.618112,43.72752,-10.33937,1008.018
16.405721665,-22.35983,19.997,-4.38626,0.3411775,-0.7065453,0.6059968,-5.00183,43.7272,-10.78372,1008.018
16.440368652,-14.43531,13.96013,-0.1574548,0.3851466,-0.7555587,0.6355484,-5.00183,43.7272,-10.78372,1008.018
16.472540856,7.495348,15.32138,4.806794,0.3365081,-0.6850525,0.6206775,-4.612077,44.11434,-9.894953,1008.014
16.507187843,-6.879368,11.94784,-0.2800289,0.3043476,-0.6007086,0.585523,-4.234138,44.10897,-9.896887,1008.012
16.539360523,-11.24093,19.28678,-4.753982,0.3399289,-0.6579478,0.5500152,-4.234138,44.10897,-9.896887,1008.012
16.574007034,-3.623556,16.68264,-6.408731,0.3972967,-0.6342887,0.5708829,-3.856456,43.72247,-9.89696,1008.012
16.606179714,-6.940799,17.2153,-5.795861,0.3474144,-0.5780821,0.5891637,-3.850163,44.49042,-9.454401,1008.012
16.638351440,-28.7486,13.48665,-10.45367,0.4559058,-0.7021967,0.5514602,-3.850163,44.49042,-9.454401,1008.016
16.672998428,-2.149226,20.58885,-5.060417,0.3703634,-0.7082267,0.5955886,-3.844642,44.11497,-9.00626,1008.012
16.705170631,-12.22381,17.86634,-3.650815,0.3725539,-0.6577655,0.6576802,-4.222324,44.50147,-9.006186,1008.01
16.739817619,-32.43442,16.74182,-1.750917,0.4055957,-0.7180219,0.669889,-4.222324,44.50147,-9.006186,1008.012
16.771989345,-30.59151,14.43361,-1.07676,0.4020424,-0.8090408,0.6976098,-4.588964,44.13708,-8.109831,1008.014
16.806636810,-27.76571,14.01931,-0.7703251,0.3965329,-0.8923168,0.7210746,-3.822099,44.51803,-7.286753,1008.014
16.838808536,-36.4274,12.06621,-1.444482,0.3314564,-0.9578426,0.6160658,-3.822099,44.51803,-7.286753,1008.014
16.873456001,-24.07988,9.639621,-3.099232,0.2897529,-1.001845,0.6107902,-3.426824,44.52972,-5.949844,1008.012
16.905628204,3.379511,5.259929,-2.976658,0.2195897,-0.9728673,0.6097558,-3.031293,44.92254,-4.614798,1008.008
16.940274715,14.0684,3.484379,-5.489426,0.1123683,-0.8957678,0.5308979,-3.408717,45.69017,-4.616585,1008.008
16.972447395,25.61732,0.7026834,-11.80199,0.1189094,-0.8902261,0.4354467,-3.408717,45.69017,-4.616585,1008.008
17.007093906,36.79765,1.649644,-16.15337,0.1352763,-0.8905129,0.4087816,-3.420531,45.29767,-5.507285,1008.007
17.039266586,15.72703,3.010899,-13.57931,0.1160069,-0.7553099,0.431284,-3.815805,45.28598,-6.844193,1008.007
17.073913574,-22.91271,4.194599,-8.308628,0.2289242,-0.8358942,0.3765461,-3.815805,45.28598,-6.844193,1008.007
17.106085777,-2.7021,12.83561,3.703628,0.2510607,-0.8721103,0.415083,-3.821584,45.2803,-7.290474,1008.005
17.138257504,3.010928,13.30909,10.75164,0.2184165,-0.6969612,0.5108214,-4.560385,44.92696,-5.945904,1008.005
17.172904968,-19.34974,14.90709,10.56777,0.2037517,-0.6620942,0.4910017,-4.560385,44.92696,-5.945904,1008.005
17.205077171,-21.00836,20.47048,2.600461,0.2455311,-0.7369061,0.4466152,-3.820758,45.28111,-7.22672,1008.007
17.239723682,-12.5924,28.87475,-5.550713,0.2976857,-0.7850939,0.4626012,-4.187709,45.67817,-6.39784,1008.007
17.271896362,-7.493672,28.10534,-6.286157,0.3049867,-0.7827297,0.4591786,-4.187709,45.67817,-6.39784,1008.007
17.306542873,-10.68805,23.5481,-8.369916,0.2749816,-0.8282906,0.5111389,-3.810027,45.29167,-6.397913,1008.005
17.338715553,-9.643736,13.36828,-10.14724,0.2680037,-0.8627228,0.5104381,-3.425795,46.05425,-5.957287,1008.005
17.373362064,4.239536,0.8802385,-13.27288,0.242775,-0.9083648,0.4919813,-3.425795,46.05425,-5.957287,1008.005
17.405534744,23.40582,-6.103593,-12.41486,0.244653,-0.8630236,0.5193295,-3.41501,44.92222,-5.059144,1008.003
17.440181732,29.85602,-18.11815,-7.695759,0.217042,-0.8163142,0.5792581,-3.425795,46.05425,-5.957287,1008.003
17.472353459,34.77045,-30.19189,-2.976658,0.2359864,-0.7749386,0.6068965,-3.425795,46.05425,-5.957287,1008.003
17.507000923,32.19037,-36.99817,8.913025,0.3124021,-0.7402373,0.6243035,-4.960355,45.29153,-7.667199,1008.003
17.539172650,-0.7977573,-41.96972,19.82211,0.4621724,-0.8798056,0.6863433,-4.221809,45.26374,-9.009908,1008.003
17.573820114,9.829705,-33.80218,53.28483,0.3551011,-1.004739,0.7812664,-4.221809,45.26374,-9.009908,1008.003
17.605991840,34.40187,-30.60619,56.2266,0.1887707,-0.9365901,0.6995123,-4.594228,44.89366,-8.559834,1008.005
17.640638828,31.33035,-25.0428,36.49218,-0.005052332,-0.8065215,0.5100754,-2.715571,45.61772,-9.465785,1008.005
17.672811031,24.75729,-17.99978,3.274619,0.04784999,-0.6890951,0.4768099,-2.715571,45.61772,-9.465785,1008.005
17.704983234,19.16713,-16.63853,-14.55991,0.2177027,-0.6580324,0.523199,-1.215884,44.8226,-10.36236,1008.005
17.739630699,20.5186,-17.23038,-13.02773,0.1686961,-0.6362925,0.6043294,-1.227183,45.19237,-11.25678,1008.005
17.771802425,-6.019342,-29.95515,0.3941284,0.2008763,-0.6360312,0.6589793,-1.227183,45.19237,-11.25678,1008.005
17.806449890,-29.73148,-36.64306,17.30935,0.2111093,-0.8144206,0.5692071,-1.238997,44.79986,-12.14748,1008.007
17.838621616,-7.800825,-32.91441,26.25725,0.1589186,-0.8798294,0.487697,-1.243691,45.17612,-12.53187,1008.005
17.873269081,13.39267,-32.67767,30.17962,0.1961909,-0.7140561,0.5455918,-1.243691,45.17612,-12.53187,1008.005
17.905440807,8.662527,-32.20419,35.08258,0.2182293,-0.595694,0.6138419,-1.6109,45.19205,-11.70113,1008.005
17.940087795,-12.16238,-31.02048,39.49525,0.2977598,-0.5975512,0.6130844,-1.238739,45.181,-12.14934,1008.003
17.972259998,-14.86532,-23.14888,39.43396,0.3435155,-0.6636124,0.5730709,-1.238739,45.181,-12.14934,1008.001
18.006906986,-14.98818,-11.48943,37.04377,0.3862702,-0.6557767,0.5467086,0.6507025,44.77302,-12.15715,1008.001
18.039078712,-22.23697,3.484379,30.60863,0.360409,-0.6633831,0.5507432,1.412616,45.14911,-11.7166,1008
18.073726177,-18.91973,15.43975,16.69648,0.3677799,-0.749411,0.5403252,3.691552,44.74713,-10.83378,1008
18.105898857,-15.66392,30.29519,2.477887,0.3429274,-0.7637624,0.5515249,3.691552,44.74713,-10.83378,1008
18.140545368,-17.56826,42.42812,-10.51496,0.326897,-0.8544893,0.5461064,3.703366,45.13963,-9.943081,1008.004
18.172717571,-5.773621,53.67327,-12.47615,0.3359702,-1.005627,0.6537077,4.471059,45.5214,-9.056248,1008.004
18.207364082,26.7845,71.01448,-4.753982,0.1032313,-1.239342,0.5970767,4.471059,45.5214,-9.056248,1008.005
18.239536762,52.09383,68.82464,-1.812204,-0.1413983,-1.054578,0.6071485,4.470801,45.14026,-9.054387,1008.005
18.271708489,17.75423,62.6102,-5.121704,-0.1064628,-0.9897268,0.6680892,4.831922,45.88011,-10.39888,1008.005
18.306355953,18.49139,53.02223,-9.10536,-0.1868898,-0.9736944,0.5552199,4.831922,45.88011,-10.39888,1008.007
18.338527680,49.32946,41.48116,-17.80812,-0.12109,-0.7250931,0.4833915,4.825629,45.11216,-10.84144,1008.007
18.373175144,16.58705,38.81783,-22.64979,0.03064627,-0.6296813,0.4914382,5.185977,44.7086,-12.18036,1008.007
18.405347347,-4.053569,41.7179,-11.98585,0.04985977,-0.7823437,0.4707204,5.185977,44.7086,-12.18036,1008.005
18.472166538,-26.65996,42.01382,-4.018538,-0.1099218,-0.8480259,0.5362577,4.425145,44.71446,-12.55902,1008.005
18.506813049,-5.343608,32.48503,-4.937843,-0.1749195,-0.9536538,0.5181594,4.425145,44.71446,-12.55902,1008.004
18.538985729,12.77837,19.87863,-5.795861,-0.2002278,-0.8171747,0.5763967,5.192012,45.09542,-11.73594,1008.004
18.573632717,-5.896482,4.372154,-7.389324,-0.1797321,-0.7370415,0.595664,5.197791,45.1011,-11.28966,1008.002
18.605804920,-8.537989,-7.464849,-3.283093,-0.08442347,-0.8630312,0.5580681,5.197791,45.1011,-11.28966,1008.002
18.640451908,6.758183,-10.95676,1.987591,-0.03854111,-0.8004224,0.5870761,4.820109,45.48761,-11.28959,1008.002
18.672624111,-10.93377,-11.90372,7.074414,-0.004322506,-0.826205,0.6646281,4.441913,45.11184,-11.28579,1008
18.707271099,-2.64067,-13.67927,12.09995,-0.01366214,-0.8687373,0.6190567,4.441913,45.11184,-11.28579,1008
18.739442825,8.539666,-12.31802,10.4452,0.00048777,-0.7020154,0.5961992,4.825887,45.49329,-10.8433,1007.998
18.771615505,-5.343608,-7.938329,2.784323,0.01731773,-0.5950871,0.6889856,4.825372,44.73102,-10.83958,1007.998
18.806262016,-19.71832,-10.06899,0.3941284,0.0659675,-0.6389495,0.634186,4.825372,44.73102,-10.83958,1007.997
18.838434696,-32.12727,1.649644,-3.528241,0.1035568,-0.7947581,0.5949548,5.575473,44.7146,-11.28973,1007.997
18.873081207,-10.56519,4.135414,-1.996065,0.06411941,-0.8964756,0.5968943,4.831664,45.49897,-10.39702,1007.997
18.905253887,2.028042,4.490524,-2.363787,0.01025877,-0.8485378,0.610324,4.831664,45.49897,-10.39702,1007.997
18.939900875,9.706844,-0.3626468,-5.366852,-0.01922475,-0.8350752,0.637702,5.593579,45.87506,-9.956472,1007.995
18.972072601,18.55282,-9.299583,-4.079824,0.008538158,-0.7695333,0.6577454,4.842963,45.12921,-9.502602,1007.995
19.006720066,14.55985,-18.05896,-0.8928991,0.01781389,-0.7400782,0.6439236,4.842963,45.12921,-9.502602,1007.997
19.038891792,10.38258,-18.35489,4.132637,0.02945734,-0.7319778,0.6318318,4.831664,45.49897,-10.39702,1007.995
19.073539257,8.478236,-20.48555,10.07748,0.05876685,-0.7272604,0.6330432,4.447433,44.73639,-10.83765,1007.995
19.105710983,-3.439265,-16.99364,13.99985,0.06346194,-0.7037953,0.6577749,4.064229,45.49834,-11.28572,1007.995
19.140357971,-3.500695,-16.16504,12.3451,0.07444599,-0.7596796,0.6562476,4.064229,45.49834,-11.28572,1007.991
19.172530651,-0.7363268,-12.25883,11.60965,0.07832745,-0.7631044,0.6552191,5.197791,45.1011,-11.28966,1007.991
19.207177162,3.25665,-11.31187,6.706692,0.07026381,-0.7947302,0.6400917,5.197534,44.71997,-11.2878,1007.993
19.239349842,2.765207,-8.885288,5.787386,0.09264749,-0.7697543,0.6203268,5.197534,44.71997,-11.2878,1007.993
19.273996353,5.713866,-10.18736,3.335906,0.07148436,-0.8036631,0.6154246,5.198049,45.48224,-11.29152,1007.993
19.306169033,6.881044,-11.72617,2.232739,0.09222654,-0.7692073,0.6280472,5.947633,44.70355,-11.73795,1007.991
19.338340759,3.809524,-12.08128,2.661748,0.07790764,-0.7765425,0.6117324,5.947633,44.70355,-11.73795,1007.991
19.372988224,3.010928,-11.37106,3.948776,0.07303202,-0.7736129,0.610838,5.936902,44.69299,-12.56675,1007.991
19.405159950,5.591005,-10.48328,2.723035,0.05061598,-0.7613834,0.6087379,5.941855,44.69786,-12.18423,1007.991
19.439806938,-0.3677444,-8.944473,3.274619,0.06744352,-0.7501293,0.6313277,5.941855,44.69786,-12.18423,1007.994
19.471979141,0.7994335,-7.819959,3.213332,0.0893795,-0.7893918,0.5893474,6.320312,45.45476,-12.18988,1007.992
19.506626129,-3.992139,-4.209673,4.868081,0.1202367,-0.7555913,0.5864461,5.564174,45.08437,-12.18415,1007.992
19.538798809,-9.336584,-2.493307,6.093822,0.1305341,-0.7483436,0.5888197,5.564174,45.08437,-12.18415,1007.992
19.573445320,-5.58933,-0.4810168,5.664812,0.1322395,-0.7746903,0.5721986,5.186234,45.08973,-12.18222,1007.992
19.605618000,-6.572217,2.892529,2.906896,0.1483202,-0.7868805,0.5753221,5.570209,45.47119,-11.73973,1007.992
19.640264511,-10.56519,5.674224,1.865017,0.1599341,-0.8368354,0.5878159,5.570209,45.47119,-11.73973,1007.992
19.672436714,-6.572217,6.976295,1.865017,0.1636475,-0.8897371,0.5907192,6.325574,44.69818,-11.73988,1007.99
19.707084179,3.19522,7.568145,1.497295,0.1533437,-0.8926385,0.5854893,6.326089,45.46045,-11.7436,1007.99
19.739255905,5.099562,7.50896,0.9457116,0.1447542,-0.8261691,0.5764775,6.326089,45.46045,-11.7436,1007.99
19.773903370,0.6151423,6.561999,-0.46389,0.1644273,-0.7574598,0.5614364,6.331353,44.70387,-11.2936,1007.99
19.806075096,-4.729304,6.561999,-2.792797,0.1931122,-0.7417422,0.5410543,6.70955,45.07963,-11.29739,1007.99
19.838247776,-5.527899,7.86407,-3.466954,0.2145441,-0.75204,0.5412514,6.70955,45.07963,-11.29739,1007.988
19.872894287,-1.964935,9.935546,-3.405667,0.2299997,-0.781761,0.5365242,6.325831,45.07932,-11.74174,1007.988
19.905066967,2.089472,11.7111,-3.405667,0.2084998,-0.7937691,0.5390358,6.703771,45.07395,-11.74367,1007.99
19.939713478,-2.456378,13.54583,-2.670223,0.1963923,-0.7912068,0.5488099,6.703771,45.07395,-11.74367,1007.992
19.971885681,-13.2067,15.61731,1.497295,0.1843545,-0.6919044,0.5781788,5.959704,45.47718,-10.84911,1007.991
20.006533146,-58.35806,16.56427,11.8548,0.1801793,-0.631723,0.574858,7.087489,45.07426,-11.29933,1007.987
20.038704872,-61.73673,15.67649,21.66072,0.1927904,-0.9489276,0.4868113,7.087489,45.07426,-11.29933,1007.991
20.073352337,-20.63978,28.04616,36.12446,0.1474008,-0.8820126,0.5118865,6.744475,45.49487,-8.621571,1007.991
20.105524063,-28.01143,32.48503,49.79147,0.003583869,-0.6975249,0.6140413,7.900838,45.88183,-6.907866,1007.991
20.140171051,-70.21412,16.09079,54.75572,-0.06409919,-0.6646541,0.6159078,9.051991,45.88278,-5.574824,1007.991
20.172343254,-107.3181,12.00702,55.61374,-0.02657535,-0.9456546,0.4551452,9.051991,45.88278,-5.574824,1007.992
20.206990242,-59.27951,12.8948,55.7976,-0.05457282,-0.9205361,0.4213916,11.36477,45.5141,-2.078077,1007.991
20.239161968,-55.96227,12.77643,55.36859,-0.06619918,-0.896668,0.3619289,13.28939,45.9025,0.5880775,1007.991
20.273809433,-42.93902,21.29907,54.75572,-0.02951214,-0.9416674,0.2778297,13.28939,45.9025,0.5880775,1007.991
20.305982113,-20.63978,31.12378,50.95592,-0.06973249,-0.9551575,0.2019379,16.35202,45.13627,3.636538,1007.989
20.340628624,-6.756507,39.88316,45.25623,-0.1077873,-0.8829834,0.2843459,17.49059,43.60131,4.084457,1007.989
20.372800827,-7.555103,44.67715,44.64336,-0.1460942,-0.9327485,0.1633112,17.49059,43.60131,4.084457,1007.989
20.404973030,30.59318,51.00994,42.31445,-0.228268,-0.931585,0.1983095,19.39711,42.82926,5.417353,1007.989
20.439620018,14.12983,50.06298,42.5596,-0.3105693,-0.7555602,0.2496926,20.92042,42.81915,6.302177,1007.989
20.471792221,-29.91577,49.88543,44.09177,-0.3901733,-0.8818036,0.1293767,20.92042,42.81915,6.302177,1007.989
20.506439209,-1.842074,48.22824,44.58207,-0.5225511,-0.9296605,0.1952873,22.0595,42.04647,6.74638,1007.991
20.573258400,-5.835052,32.66259,38.51466,-0.790589,-0.8728367,0.1529489,23.59303,41.28465,8.463734,1007.991
20.605430603,-31.08295,28.57882,27.54428,-0.8230678,-0.7782185,0.191146,23.98201,40.52838,9.358082,1007.991
20.640077591,-44.29049,26.21143,14.55143,-0.8981881,-0.8865455,0.1311859,25.51585,39.00512,11.14291,1007.994
20.672249794,-7.493672,18.51737,8.177581,-0.7844749,-0.6932644,0.1548543,25.51585,39.00512,11.14291,1007.994
20.706896305,-42.20186,22.30521,6.461544,-0.7232515,-0.5758935,0.1827246,26.28856,38.24916,12.48161,1007.994
20.739068985,-51.35499,22.48277,12.46767,-0.7254065,-0.7273881,0.1737838,25.92712,38.27078,13.75863,1007.996
20.773716450,-67.69547,19.52352,17.0642,-0.7549669,-0.8144657,0.06633784,25.92712,38.27078,13.75863,1007.996
20.805888176,-43.24617,4.727264,21.17043,-0.7849998,-0.7091786,0.0419401,25.57756,37.5423,15.99569,1007.999
20.840535164,-36.24311,-2.907602,6.95184,-0.8343775,-0.9560448,0.03458167,26.73816,35.64814,18.16684,1007.999
20.872707367,-4.545012,-7.879144,4.990655,-0.7320375,-0.7832282,0.1666373,26.73816,35.64814,18.16684,1008.001
20.907354355,-6.449356,-10.77921,2.294026,-0.7769986,-0.6753036,0.2228945,26.38282,34.91399,19.95761,1008.001
20.939526081,-15.2339,-2.493307,0.3328413,-0.762741,-0.7632126,0.1617868,26.371,34.52148,19.06691,1008.001
20.971698761,23.9587,6.443629,4.132637,-0.8055873,-0.8305359,0.08981368,26.371,34.52148,19.06691,1008.001
21.006345272,65.66995,15.85405,2.661748,-0.775154,-0.7483552,0.1292492,26.76049,34.52748,19.95754,1008.001
21.038517952,64.99422,17.39286,4.316498,-0.7784258,-0.7017845,0.1238796,27.49904,34.49969,18.61483,1008.001
21.073164940,47.73227,16.62345,8.60659,-0.7070315,-0.7029344,0.08368001,27.49904,34.49969,18.61483,1008.005
21.105337143,24.75729,14.8479,9.587182,-0.6696063,-0.6941073,0.1195535,26.72768,36.01872,17.33617,1008.007
21.139984131,-9.213723,5.97015,11.91609,-0.6420711,-0.7360874,0.1064185,26.71035,36.00166,15.99733,1008.007
21.172155857,-21.62267,-2.434122,14.30628,-0.6169091,-0.7987509,0.05312919,26.71035,36.00166,15.99733,1008.007
21.206803322,-24.87848,-6.044408,13.69341,-0.5859091,-0.8092716,0.03058122,27.46045,35.98524,15.54718,1008.003
21.273622513,-34.58449,-12.96905,3.519767,-0.5103744,-0.8044603,0.07377802,27.85495,34.85353,16.88967,1008.009
21.305794716,-43.79905,-12.08128,-0.8316121,-0.4784755,-0.8179575,0.04348513,27.85495,34.85353,16.88967,1008.009
21.340441704,-44.41335,-5.748483,-7.818333,-0.4660995,-0.8569896,0.02521389,28.24863,33.721,18.16841,1008.009
21.407260418,-21.6841,9.817176,-15.60178,-0.4545667,-0.8717177,0.01100687,28.64364,33.35155,19.50718,1008.012
21.439433098,-16.89253,17.39286,-14.37604,-0.4463069,-0.8940358,0.0174938,28.28278,32.99284,20.84981,1008.012
21.471604824,-14.74246,24.61343,-12.66001,-0.4777415,-0.926948,0.009321791,28.66624,32.61203,21.29602,1008.014
21.506252289,-2.886391,29.8809,-15.47921,-0.5031353,-0.9596838,-0.03505509,28.66624,32.61203,21.29602,1008.014
21.538424015,18.73711,29.58497,-22.28207,-0.5511146,-0.9736115,-0.0467722,27.53268,33.00927,21.29996,1008.014
21.573071480,30.53175,21.77255,-31.96542,-0.5937187,-0.9068406,-0.0385942,26.03825,33.04779,22.64654,1008.012
21.605243683,21.9315,13.13154,-40.48432,-0.5749537,-0.8931916,-0.0188948,26.03825,33.04779,22.64654,1008.012
21.639890194,15.11272,1.176164,-45.38728,-0.5430432,-0.8631943,-0.01075126,25.28233,34.20112,22.58107,1008.01
21.672062874,2.212333,-7.287293,-47.90005,-0.4992234,-0.8925171,-0.008509891,24.13277,35.34438,21.3062,1008.01
21.706709385,-1.903505,-14.21194,-47.47104,-0.482235,-0.9183143,-0.006953086,24.13277,35.34438,21.3062,1008.009
21.738882065,1.045155,-19.95288,-48.20648,-0.4686097,-0.9430793,0.000427604,22.25591,37.28827,22.19913,1008.009
21.773529053,-9.336584,-22.14273,-50.41282,-0.4452924,-1.004706,0.01753596,21.48848,37.28763,21.31043,1008.009
21.805701256,-12.5924,-17.28956,-59.60587,-0.3841116,-1.070088,0.01257007,21.48848,37.28763,21.31043,1008.009
21.840348244,-32.68015,-7.346478,-77.44039,-0.3421546,-1.051447,0.002210256,19.59904,37.69561,21.31824,1008.014
21.872519970,-47.91489,1.708829,-96.56194,-0.3077652,-1.165418,-0.08966612,18.08805,38.86048,21.32039,1008.014
21.907167435,-22.60555,4.194599,-116.2964,-0.2392351,-1.182453,-0.114546,18.08805,38.86048,21.32039,1008.01
21.939339161,-32.61871,14.43361,-139.6467,-0.1392271,-1.240448,-0.2065732,15.46476,38.91999,23.0553,1008.013
21.971511841,3.379511,26.03387,-167.1033,-0.07362439,-1.382712,-0.1707622,11.69769,40.12844,23.96162,1008.014
22.006158829,52.33955,27.21757,-204.9174,0.1216576,-1.303928,-0.02492504,11.69769,40.12844,23.96162,1008.014
22.038331032,62.72129,39.88316,-231.1482,0.244294,-1.245851,-0.09355249,6.028853,40.59011,23.98877,1008.014
22.072978020,89.81211,51.24668,-256.0308,0.2986054,-1.144514,-0.009355941,-2.313112,41.824,21.85808,1008.013
22.105150223,113.0942,47.39965,-274.9072,0.3641535,-0.9566628,0.03447904,-2.313112,41.824,21.85808,1008.009
22.139797211,153.5769,44.44041,-284.5292,0.3881317,-0.7536596,0.002188911,-11.4304,41.1451,18.33797,1008.007
22.171968937,177.4119,30.6503,-277.8489,0.4029909,-0.4093811,0.09405842,-21.76178,39.32355,13.55448,1008.006
22.206616402,119.1758,5.378299,-247.4506,0.4155832,-0.03740711,0.2512473,-21.76178,39.32355,13.55448,1008.004
22.238789082,-24.5099,1.353719,-209.2688,0.5330557,-0.06712737,0.2494242,-30.92044,34.79515,7.05652,1008.004
22.273435593,-88.1518,13.84176,-163.5487,0.5411907,-0.3113304,0.05790925,-38.51249,28.39482,4.895428,1008.002
22.305607796,-69.9684,22.95625,-109.7999,0.5372348,-0.148024,0.1470164,-38.51249,28.39482,4.895428,1008
22.340254307,-98.6564,12.06621,-65.91843,0.5458133,-0.1338221,0.2318853,-42.66368,20.46144,5.848335,1007.999
22.372426987,-87.47607,-0.3034618,-45.57114,0.7155727,-0.2806856,0.1789626,-44.93466,15.53892,5.884129,1007.997
22.407074452,-64.56252,-11.84454,-31.16869,0.9527658,-0.1498986,0.2347035,-45.67552,12.13651,7.243586,1007.997
22.439246178,-76.91003,-16.28341,-25.83672,1.03372,-0.1228233,0.2732133,-45.67552,12.13651,7.243586,1007.995
22.473893166,-69.41552,-21.66925,-23.26266,1.10284,-0.07980488,0.231471,-45.6655,9.861074,8.147312,1007.993
22.506065369,-20.82407,-2.848417,-20.7499,1.090542,-0.04457088,0.2607962,-46.02797,8.358151,9.431776,1007.992
22.538237572,-21.80696,-5.215818,-13.51803,1.016879,0.06845141,0.2672353,-46.02797,8.358151,9.431776,1007.99
22.572884083,-112.4168,8.21918,-9.840804,1.049761,-0.02327004,0.1013285,-45.65079,7.209383,9.435425,1007.992
22.605056763,-168.8099,12.8948,-8.002193,1.04106,-0.2096969,0.02709087,-46.02322,6.839302,9.8855,1007.992
22.639703274,-136.3132,16.20916,-12.16971,1.044258,-0.390692,-0.02745106,-46.02322,6.839302,9.8855,1007.992
22.671875954,-90.11757,19.16841,-21.1789,1.032818,-0.3430337,0.04004651,-46.0245,4.933635,9.894804,1007.992
