Time (s),Gyroscope X (deg/s),Gyroscope Y (deg/s),Gyroscope Z (deg/s),Accelerometer X (g),Accelerometer Y (g),Accelerometer Z (g),Magnetometer X (uT),Magnetometer Y (uT),Magnetometer Z (uT),Barometer (hPa)
0.000000000,3.108018,0.2041892,0.2296915,-0.1557429,0.3332089,0.9371589,-0.7751018,-6.19866,-50.9621,1006.981
0.032775879,1.617119,1.09058,0.5351366,-0.1474934,0.3357229,0.9385797,-0.7751018,-6.19866,-50.9621,1006.981
0.065551281,0.6853076,1.740599,1.512561,-0.1489022,0.3167603,0.9448693,-1.139179,-6.197788,-50.96164,1006.979
0.098327637,2.983777,1.563321,1.879095,-0.157695,0.3401115,0.9515941,-0.766991,-6.552059,-50.14831,1006.979
0.133625031,2.48681,2.036062,1.084938,-0.1562016,0.3204919,0.9299588,-0.766991,-6.552059,-50.14831,1006.979
0.166401386,2.673172,1.740599,0.4129586,-0.1654728,0.3409203,0.9371704,-1.133145,-6.568169,-51.39102,1006.979
0.199177265,1.67924,0.9723942,1.207116,-0.1630095,0.3283615,0.9492176,-1.132418,-6.562225,-50.95591,1006.977
0.231952667,3.853467,0.1450966,1.634739,-0.162521,0.3258869,0.9429625,-1.132418,-6.562225,-50.95591,1006.981
0.264729500,0.6853076,0.7951161,1.512561,-0.1581787,0.3345793,0.9270541,-0.4042633,-6.56397,-50.95684,1006.981
0.300026417,-2.607093,0.9723942,1.023849,-0.1600983,0.3283524,0.9443972,-0.7533647,-7.280084,-50.07469,1006.983
0.332802296,-3.352543,0.6769307,0.4740476,-0.157684,0.3362421,0.9554508,-0.7533647,-7.280084,-50.07469,1006.983
0.365578652,-4.781321,2.86336,-0.6255547,-0.1416512,0.322374,0.9029652,-1.496495,-6.561352,-50.95544,1006.983
0.398354053,-1.240436,6.290735,-1.175356,-0.1673683,0.3234515,0.948754,-1.50253,-6.190971,-50.52605,1006.983
0.433651924,-5.340408,2.981545,-0.9920889,-0.1669314,0.3418889,0.9381352,-1.50253,-6.190971,-50.52605,1006.983
0.466427803,-3.725267,3.277009,-2.274958,-0.1600993,0.3222737,0.9107109,-1.132418,-6.562225,-50.95591,1006.983
0.499203682,-6.893427,5.049789,-2.580403,-0.1513258,0.3122597,0.9309224,-0.7683406,-6.563097,-50.95638,1006.983
0.531980038,-3.10406,5.227067,0.9016707,-0.1664642,0.3522142,0.9515967,-0.7683406,-6.563097,-50.95638,1006.983
0.564755916,-5.899495,2.449711,3.528498,-0.1781412,0.3633688,0.958828,-0.05443501,-5.841912,-51.40389,1006.981
0.600053310,-7.949481,1.97697,3.711766,-0.178951,0.2880941,0.9209157,-0.7811364,-5.828279,-50.53272,1006.981
0.632829189,-6.582823,3.277009,1.695828,-0.1818435,0.2838506,0.9445158,-0.7811364,-5.828279,-50.53272,1006.984
0.665605068,-6.707065,3.040638,-0.01466453,-0.1978322,0.273153,0.966231,-0.4230936,-5.458771,-50.10381,1006.984
0.698381424,-0.3707456,-0.5049229,-0.1368426,-0.1891054,0.2810988,0.977751,0.2981961,-5.096929,-50.17264,1006.984
0.733678341,-0.3707456,-1.686777,-0.4422877,-0.1954412,0.2842142,0.9431034,0.2981961,-5.096929,-50.17264,1006.984
0.766454220,4.164071,-2.86863,-0.07575354,-0.1804153,0.2945305,0.9377572,0.7216035,-5.108985,-50.98125,1006.982
0.799230576,1.368636,-2.100425,-0.4422877,-0.1697923,0.3189442,0.9338443,-0.07326537,-4.736713,-50.55085,1006.986
0.832006454,0.4368245,-0.2685522,-0.1979316,-0.1649204,0.3131772,0.9391364,-0.07326537,-4.736713,-50.55085,1006.986
0.864782810,-1.116195,0.2632819,0.1686025,-0.1663734,0.3127182,0.9449169,0.2780162,-4.002769,-50.12767,1006.986
0.900079727,-0.246504,0.02691119,-0.3201096,-0.1707073,0.2955688,0.9353258,0.2921616,-4.726548,-49.74326,1006.984
0.932855606,0.5610661,0.08600387,-0.4422877,-0.1784661,0.2931392,0.9454564,0.2968466,-5.107967,-50.98071,1006.983
0.965631962,1.120153,-0.03218149,-0.5644657,-0.1741268,0.3063321,0.946389,0.2968466,-5.107967,-50.98071,1006.983
0.998407841,0.6853076,0.02691119,-0.3811986,-0.1702406,0.3053804,0.9449371,-0.06577742,-5.095207,-50.11001,1006.983
1.033705711,0.4989453,0.08600387,-0.5644657,-0.1755783,0.303371,0.942546,0.7283648,-5.473422,-50.97552,1006.983
1.066481113,-0.246504,0.617838,-0.4422877,-0.174129,0.3068024,0.9439815,0.7283648,-5.473422,-50.97552,1006.981
1.099256992,-0.6192287,0.1450966,-0.3811986,-0.177021,0.2980216,0.9454457,-0.07326537,-4.736713,-50.55085,1006.981
1.132033348,-0.1843832,-0.09127417,-0.1979316,-0.1809237,0.3062921,0.948812,0.2914349,-4.732491,-50.17837,1006.981
1.164809227,-0.246504,0.2041892,0.2907805,-0.1750799,0.2985249,0.9454403,0.2914349,-4.732491,-50.17837,1006.981
1.200106144,2.176206,-0.03218149,0.9627597,-0.1794657,0.3048097,0.9439971,-0.07253867,-4.73077,-50.11574,1006.981
1.232882977,2.176206,0.02691119,0.2907805,-0.1687812,0.3024034,0.935311,-0.06650412,-5.101151,-50.54512,1006.981
1.265658379,0.8716699,0.6769307,0.4740476,-0.1702515,0.3087461,0.9386743,-0.06650412,-5.101151,-50.54512,1006.981
1.298434734,0.8716699,0.7951161,0.2907805,-0.1692774,0.3103157,0.9531106,-0.07326537,-4.736713,-50.55085,1006.981
1.333732128,0.9337907,1.09058,0.5351366,-0.1731511,0.3043921,0.9463896,-0.06650412,-5.101151,-50.54512,1006.981
1.366507530,1.67924,0.9723942,0.4740476,-0.1780266,0.3136386,0.9512009,-0.06650412,-5.101151,-50.54512,1006.981
1.399284363,0.6231868,0.7360234,0.3518696,-0.1833558,0.3072158,0.9444842,0.2840508,-4.373149,-50.55705,1006.981
1.432059765,0.8716699,0.3223746,0.4740476,-0.1741268,0.3053212,0.9410956,0.3043345,-5.46646,-50.53986,1006.983
1.464836597,0.7474284,0.44056,-0.07575354,-0.179001,0.3130731,0.9410955,0.3043345,-5.46646,-50.53986,1006.983
1.500133514,1.492878,0.6769307,0.1075135,-0.1780181,0.3066997,0.9338822,0.7290915,-5.467478,-50.54041,1006.986
1.532909393,0.1262206,0.9133015,0.5351366,-0.1760963,0.3175074,0.9449328,-0.429232,-5.08924,-49.73659,1006.986
1.565685749,0.4368245,0.5587453,0.4129586,-0.183345,0.303343,0.9478595,-0.429232,-5.08924,-49.73659,1006.986
1.598461151,0.5610661,0.3223746,-0.07575354,-0.1780221,0.3111833,0.9483164,0.2914349,-4.732491,-50.17837,1006.984
1.633759022,-0.3086248,0.1450966,0.1075135,-0.1814177,0.3081759,0.9401457,0.3049574,-5.461366,-50.16691,1006.984
1.666534901,0.3747037,-0.09127417,-0.1368426,-0.1872478,0.3095917,0.9406388,0.3049574,-5.461366,-50.16691,1006.981
1.699310780,-0.3707456,0.08600387,-0.3811986,-0.1751107,0.3106704,0.9410899,0.3050612,-5.460516,-50.10475,1006.979
1.732087135,-0.06014168,-0.09127417,-0.1368426,-0.1819137,0.313566,0.9454339,-0.06588125,-5.096056,-50.17217,1006.979
1.764863014,-1.985886,-0.2094595,-0.2590206,-0.1746116,0.3053305,0.9430221,-0.06588125,-5.096056,-50.17217,1006.977
1.800160408,-1.240436,-0.6231083,-0.4422877,-0.1833359,0.2989397,0.9449779,-0.05912,-5.460493,-50.16644,1006.977
1.832936287,-0.3086248,-1.214035,-0.5644657,-0.1814044,0.3028286,0.9415979,0.7290915,-5.467478,-50.54041,1006.981
1.865712166,-0.3707456,-1.273128,-0.5644657,-0.1765552,0.3057981,0.9425447,0.7290915,-5.467478,-50.54041,1006.981
1.898488522,-0.6192287,-0.9776644,-0.1368426,-0.173164,0.309746,0.9459002,0.2989228,-5.090985,-49.73753,1006.981
1.931264400,-0.7434703,-0.4458303,-0.3201096,-0.1741256,0.3053413,0.9439837,0.3043345,-5.46646,-50.53986,1006.981
1.966561794,-0.246504,-0.4458303,-0.07575354,-0.1809278,0.3067323,0.9420723,-0.06650412,-5.101151,-50.54512,1006.98
1.999337673,0.4989453,-1.391313,0.2296915,-0.1717087,0.3072092,0.9295343,-0.06650412,-5.101151,-50.54512,1006.98
2.032113552,-0.9298326,-0.4458303,0.1686025,-0.1940475,0.3110228,0.9445038,0.2981961,-5.096929,-50.17264,1006.98
2.064889908,-0.3707456,-0.3867376,0.2907805,-0.1789201,0.2804959,0.9488462,0.2847775,-4.367206,-50.12194,1006.984
2.100186825,1.244395,-1.036757,-0.07575354,-0.1687671,0.299088,0.9487941,0.2847775,-4.367206,-50.12194,1006.984
2.132963181,0.5610661,-0.4458303,0.04642449,-0.1702434,0.3053369,0.9386795,-0.05912,-5.460493,-50.16644,1006.982
2.165739059,-0.246504,0.1450966,0.2907805,-0.1721819,0.3033592,0.9367616,0.2975733,-5.102023,-50.54559,1006.984
2.198514938,-0.1843832,0.44056,0.3518696,-0.1823902,0.3086514,0.939666,0.2975733,-5.102023,-50.54559,1006.984
2.231291294,0.1262206,0.02691119,0.2296915,-0.1779896,0.2970428,0.9459308,0.2914349,-4.732491,-50.17837,1006.982
2.266588211,0.4989453,-0.2094595,-0.07575354,-0.1770014,0.290246,0.9478642,0.7223302,-5.103042,-50.54614,1006.982
2.299365044,2.114086,-0.2685522,-0.01466453,-0.1750826,0.2984813,0.9391826,0.7223302,-5.103042,-50.54614,1006.98
2.332140446,2.114086,0.9723942,0.4740476,-0.1688167,0.3180117,0.938657,-0.07264251,-4.731619,-50.1779,1006.979
2.364916325,-0.4328664,0.7951161,0.3518696,-0.1809212,0.3043105,0.9440013,0.290812,-4.737586,-50.55132,1006.979
2.400214195,-0.06014168,0.2632819,0.2296915,-0.1799308,0.2970434,0.9483422,0.290812,-4.737586,-50.55132,1006.979
2.432990074,0.6853076,0.617838,-0.2590206,-0.1731528,0.3048691,0.9449448,-0.4305816,-5.100278,-50.54465,1006.979
2.465766430,0.312583,1.267858,-0.01466453,-0.1784684,0.2941133,0.945455,0.2989228,-5.090985,-49.73753,1006.979
2.498541832,1.741361,-0.1503668,0.2907805,-0.1760651,0.3053686,0.9502459,0.2989228,-5.090985,-49.73753,1006.979
2.531318664,1.617119,0.5587453,0.8405817,-0.1809477,0.3160192,0.9468719,0.2981961,-5.096929,-50.17264,1006.977
2.566615581,1.617119,1.208765,0.5962256,-0.1765512,0.2977779,0.9098241,-0.07191581,-4.725675,-49.74279,1006.977
2.599391460,1.617119,0.8542088,0.6573147,-0.1727015,0.3225232,0.9617648,-0.07191581,-4.725675,-49.74279,1006.979
2.632167816,4.03983,-1.036757,0.7794927,-0.1765503,0.305875,0.9536158,0.2981961,-5.096929,-50.17264,1006.979
2.664943695,3.356501,-0.09127417,0.9016707,-0.1877443,0.314468,0.9420767,0.3049574,-5.461366,-50.16691,1006.979
2.700240612,0.312583,-1.036757,0.6573147,-0.1664384,0.3374628,0.9314016,0.3049574,-5.461366,-50.16691,1006.979
2.733016968,-1.054074,0.3814673,-0.07575354,-0.1828459,0.2944668,0.9315053,-0.06577742,-5.095207,-50.11001,1006.979
2.765792847,2.362569,-1.154942,0.4129586,-0.1814285,0.3135633,0.94447,-0.03873244,-6.552955,-50.08709,1006.979
2.798569202,0.1262206,0.44056,-0.5033767,-0.1756218,0.3168336,0.9174951,-0.03873244,-6.552955,-50.08709,1006.979
2.831345081,-1.364678,2.095155,-0.2590206,-0.176086,0.3111024,0.9343524,0.7290915,-5.467478,-50.54041,1006.979
2.866642475,0.6853076,0.2632819,0.2296915,-0.1760793,0.3117134,0.9521618,0.3117186,-5.825803,-50.16118,1006.977
2.899418354,1.430757,0.02691119,-0.01466453,-0.1813802,0.2910831,0.9334324,0.3117186,-5.825803,-50.16118,1006.976
2.932194233,2.611052,0.1450966,-0.3201096,-0.1833996,0.3247152,0.9396442,0.3043345,-5.46646,-50.53986,1006.976
2.964970589,0.8716699,0.08600387,-1.358623,-0.1838304,0.3023314,0.9430485,0.7290915,-5.467478,-50.54041,1006.976
3.000267506,3.108018,-0.9776644,-1.725157,-0.1799984,0.325788,0.9497432,-0.05974287,-5.465588,-50.53939,1006.98
3.033043861,3.356501,-1.09585,-0.6866437,-0.172726,0.3266855,0.9299887,-0.05974287,-5.465588,-50.53939,1006.978
3.065819740,0.4368245,-0.682201,-0.9309998,-0.1814219,0.3101307,0.9411056,0.3043345,-5.46646,-50.53986,1006.978
3.098595619,2.983777,-2.041333,-1.053178,-0.1843002,0.2955023,0.9420972,0.3117186,-5.825803,-50.16118,1006.977
3.131371975,6.648902,-3.577742,-0.4422877,-0.1828744,0.3101855,0.9507362,0.3117186,-5.825803,-50.16118,1006.977
3.166668892,15.15945,-5.823265,-0.1368426,-0.1590725,0.303959,0.9372109,-0.04549369,-6.188518,-50.09282,1006.975
3.199445725,14.47612,-6.82784,-1.236445,-0.1868722,0.3583888,0.9535611,-0.766991,-6.552059,-50.14831,1006.975
3.232221127,15.34581,-9.959752,-0.1979316,-0.2106641,0.3602254,0.9661303,-0.766991,-6.552059,-50.14831,1006.973
3.264997482,15.53217,-15.219,3.833944,-0.1810831,0.3765378,0.9650728,-0.03207499,-6.918241,-50.14352,1006.971
3.300294876,21.49577,-16.51904,8.721066,-0.1596752,0.3511195,0.92607,-0.7540914,-7.286027,-50.5098,1006.971
3.333070278,29.13662,-17.58271,12.87512,-0.1573759,0.4102507,0.951969,-0.7540914,-7.286027,-50.5098,1006.971
3.365847111,37.52293,-20.30097,17.09026,-0.1360095,0.4074198,0.9394072,-0.3760914,-8.082458,-50.93297,1006.971
3.398622513,56.53189,-20.30097,21.97738,-0.09329098,0.4086064,0.9186055,-1.797868,-9.895208,-50.46733,1006.974
3.431399345,65.16667,-24.96929,26.80341,-0.1241856,0.5516024,0.9978879,-1.797868,-9.895208,-50.46733,1006.974
3.466696262,61.37731,-30.40582,32.9734,-0.1168186,0.5155897,0.9931111,-2.498355,-11.34612,-50.07051,1006.974
3.499472141,66.40909,-41.33797,37.61617,-0.07467774,0.5623101,1.007382,-3.198738,-12.79618,-49.61155,1006.974
3.532248497,58.27127,-51.44282,36.51657,-0.05225548,0.5118138,0.9327934,-3.198738,-12.79618,-49.61155,1006.974
3.565023899,66.78181,-65.74324,36.21112,-0.01537949,0.5228095,0.9288386,-4.594196,-16.07262,-49.5581,1006.972
3.600321770,88.08924,-80.69369,36.76093,0.07967172,0.5515245,0.811599,-6.75765,-17.15475,-49.10297,1006.97
3.633097649,102.9361,-94.69865,42.992,0.1580157,0.6840947,0.8011047,-6.75765,-17.15475,-49.10297,1006.974
3.665873527,87.59227,-105.2762,52.15536,0.2382892,0.8134509,0.7463254,-8.899367,-19.3183,-47.76044,1006.974
3.698649883,68.58331,-113.7265,64.7397,0.2101233,0.8020561,0.6823883,-12.90012,-22.6263,-46.02438,1006.974
3.731425762,59.01672,-121.2313,75.43027,0.3037965,0.7966302,0.5599084,-12.90012,-22.6263,-46.02438,1006.976
3.766723156,53.73645,-118.5721,81.17265,0.3830275,0.7460606,0.4765211,-16.86077,-24.77361,-43.80927,1006.974
3.799499035,38.0199,-109.8264,81.90571,0.4291882,0.7292623,0.4567012,-21.5685,-25.81482,-40.80235,1006.977
3.832275391,5.095883,-104.8626,78.48473,0.4850048,0.7354185,0.4344168,-21.5685,-25.81482,-40.80235,1006.971
3.865051269,-13.35399,-99.78062,73.78087,0.5259511,0.6437776,0.3040088,-27.11313,-24.30902,-38.26963,1006.971
3.900348186,-13.1055,-93.93045,66.3891,0.5765274,0.6181304,0.3371415,-31.1287,-23.54762,-36.59764,1006.975
3.933124542,-21.24333,-88.31664,62.41831,0.5998299,0.6111785,0.2899232,-35.24407,-20.58757,-34.08972,1006.973
3.965900421,-36.46291,-81.3437,53.74367,0.6461195,0.5367905,0.2528607,-35.24407,-20.58757,-34.08972,1006.972
3.998676777,-29.94024,-69.11152,45.8021,0.69919,0.4571402,0.1512875,-37.83889,-17.95183,-32.82216,1006.973
4.031452656,-12.42218,-49.9655,39.44884,0.7676531,0.4511123,0.1126253,-40.43268,-15.37768,-31.6158,1006.973
4.066749573,6.089815,-22.90105,36.27221,0.8413798,0.4727086,0.04791541,-40.43268,-15.37768,-31.6158,1006.972
4.099525929,27.33512,3.158823,33.76756,0.8293877,0.4031784,0.009058348,-42.28397,-13.52736,-29.90166,1006.972
4.132301807,59.76217,28.45049,29.79678,0.8690393,0.4575018,-0.07102363,-43.03772,-12.05597,-29.05342,1006.972
4.165078163,73.67722,56.16496,25.15401,0.8438101,0.423763,-0.1999179,-43.03772,-12.05597,-29.05342,1006.97
4.200375557,121.8208,100.4845,21.42758,0.9528316,0.4740881,-0.4481536,-42.32318,-11.32969,-29.12797,1006.97
4.233151913,131.0768,193.4964,12.50858,1.037346,0.4292147,-0.6292784,-41.1985,-13.16554,-29.9088,1006.97
4.265927792,142.3207,306.3043,10.43156,0.982581,0.5945475,-0.6009974,-41.1985,-13.16554,-29.9088,1006.97
4.298703194,273.3955,163.0045,-304.0547,-0.9995955,0.8662624,-7.753111,-36.80678,-14.66857,-32.44003,1006.968
4.331479549,-261.8371,85.94768,44.7025,2.119782,0.6091498,0.4822354,-27.95778,-17.63487,-34.5811,1006.972
4.366776943,106.2906,-6.709655,-27.81017,0.0494304,0.5779323,0.6532629,-27.95778,-17.63487,-34.5811,1006.971
4.399553299,3.480743,22.95487,-8.38386,0.7010297,0.7262889,0.2625534,-27.57415,-18.735,-34.99949,1006.971
4.432329178,-18.57213,13.55914,0.04642449,0.60059,0.7412448,0.5029687,-27.53777,-20.60604,-34.09966,1006.971
4.465105533,-6.831306,0.7360234,3.895033,0.6037163,0.4354741,0.4422891,-27.53777,-20.60604,-34.09966,1006.969
4.500402450,7.332231,9.481741,-0.1368426,0.7412364,0.6109954,0.5139027,-26.83175,-19.45968,-34.55386,1006.967
4.533178329,-18.26153,11.60908,-6.856635,0.7025507,0.5363889,0.4775234,-26.46113,-19.89676,-35.35571,1006.965
4.565954685,-0.7434703,9.304462,-13.02662,0.6650974,0.5598173,0.4597665,-26.46113,-19.89676,-35.35571,1006.965
4.598730564,-4.470717,12.61365,-14.24841,0.6383327,0.5829249,0.4530561,-26.83197,-19.53145,-35.36097,1006.964
4.631506920,-18.51001,17.34107,-15.28692,0.5922339,0.57291,0.4690655,-25.73163,-19.88747,-34.54858,1006.962
4.666803837,-26.15087,19.29113,-21.518,0.5951877,0.5599285,0.4897766,-25.73163,-19.88747,-34.54858,1006.96
4.699579716,-36.33867,23.5458,-31.90313,0.5621665,0.5621384,0.497072,-25.74046,-19.54002,-35.79749,1006.964
4.732356071,-20.74636,21.06391,-35.75174,0.4956033,0.3735636,0.4941446,-24.6583,-19.13529,-37.11092,1006.964
4.765131950,34.23053,18.10927,-37.82877,0.459639,0.61925,0.6387495,-24.6583,-19.13529,-37.11092,1006.964
4.797908306,-8.260084,15.33192,-49.98548,0.415437,0.638344,0.7062162,-23.57355,-18.77941,-37.55317,1006.963
4.833205223,-18.69637,8.358979,-63.48615,0.4472627,0.5255436,0.6957207,-22.39986,-19.94132,-37.90947,1006.961
4.865981579,-11.61461,1.740599,-71.18336,0.393525,0.663467,0.7033421,-22.39986,-19.94132,-37.90947,1006.961
4.898757458,-38.76138,-0.5049229,-70.32812,0.4474319,0.8549774,0.6533453,-21.30908,-19.95583,-38.7811,1006.961
4.931533813,-80.00958,5.640716,-67.15149,0.4616821,0.7683254,0.572092,-20.19729,-21.0577,-39.20043,1006.961
4.966831207,-125.6062,16.45468,-64.8912,0.376102,0.8308941,0.6376659,-19.47204,-21.08322,-40.94182,1006.961
4.999606609,-189.2179,21.53665,-73.26039,0.4245961,0.6525297,0.6339688,-19.47204,-21.08322,-40.94182,1006.965
5.032383442,-172.2589,26.97318,-74.2989,0.3824778,0.4041277,0.6830606,-18.06314,-18.88605,-44.39777,1006.963
5.065158844,-92.12313,20.94572,-71.06119,0.2680955,0.3312207,0.7720124,-16.35653,-13.10528,-47.84837,1006.962
5.097935200,-47.27193,9.422647,-75.82613,0.2294378,0.4656582,0.820519,-16.35653,-13.10528,-47.84837,1006.962
5.133232594,-74.6672,19.88205,-87.24978,0.2512529,0.474883,0.7901275,-14.97075,-9.488173,-49.648,1006.96
5.166008949,-50.25373,28.33231,-89.26572,0.1967393,0.3233968,0.7832647,-13.9016,-8.420405,-51.34489,1006.96
5.198784828,-23.16907,23.13215,-91.52601,0.1925299,0.4774005,0.8725759,-13.9016,-8.420405,-51.34489,1006.958
5.231560230,-39.50683,21.41846,-94.39719,0.1058527,0.5794119,0.8682954,-12.85397,-6.199438,-53.12208,1006.964
5.266858101,-57.89458,26.14588,-94.76373,0.1138793,0.4678304,0.851597,-10.61912,-5.869252,-55.24411,1006.964
5.299633980,-35.77959,21.71393,-86.88324,0.09783573,0.4901185,0.9242871,-10.61912,-5.869252,-55.24411,1006.964
5.332410336,-44.7871,18.22746,-84.74512,0.07978851,0.5205206,0.9055108,-8.465952,-4.451554,-57.81836,1006.962
5.365186215,-56.21732,18.87748,-79.3082,0.09149757,0.5002699,0.9209172,-7.42999,-1.556507,-59.17094,1006.961
5.397962570,-45.96739,18.99566,-69.9005,0.1082464,0.387973,0.8608766,-7.42999,-1.556507,-59.17094,1006.961
5.433259487,-41.92954,26.02769,-58.35468,0.06692666,0.4126646,0.8893376,-4.55398,0.2357697,-60.88165,1006.961
5.466035843,-23.8524,30.87329,-47.17538,0.04226152,0.3756147,0.9140015,-3.530488,3.938262,-60.94131,1006.961
5.498811722,-7.079789,29.1596,-37.95094,0.01950594,0.3527181,0.9405649,-3.530488,3.938262,-60.94131,1006.963
5.531587601,17.64428,29.80962,-30.55917,-0.01148431,0.3139001,0.9286628,-1.394079,6.47814,-61.41935,1006.963
5.566885471,31.31085,29.45507,-24.51136,-0.02323095,0.3456855,0.8910965,0.4721155,7.191467,-62.24129,1006.963
5.599660873,30.68964,29.75053,-22.73978,-0.06842907,0.3648835,0.904653,0.4721155,7.191467,-62.24129,1006.966
5.632437229,29.19874,20.59117,-13.63752,-0.09081716,0.3931824,0.9388401,3.018373,7.166678,-63.61208,1006.966
5.665213108,38.76535,1.740599,-6.4901,-0.071458,0.4267,0.9729203,4.863729,5.687585,-64.83469,1006.966
5.697989464,31.31085,-3.223186,-11.4994,-0.1580008,0.4691869,0.9533257,4.863729,5.687585,-64.83469,1006.967
5.733286858,-4.222234,-11.79163,-10.9496,-0.1000532,0.408605,0.9966022,5.995579,3.420622,-66.04394,1006.967
5.766062260,-7.638876,-19.53277,-11.74376,-0.1499391,0.3566399,1.00787,7.476753,1.941554,-67.32822,1006.967
5.798839092,15.03521,-15.75083,-7.589703,-0.1584963,0.2937658,1.081633,7.476753,1.941554,-67.32822,1006.967
5.831614494,15.03521,-5.232338,-2.213869,-0.110589,0.3456493,0.9909457,6.747145,1.93141,-68.19751,1006.967
5.866912365,-0.4949871,8.358979,2.123451,-0.09676532,0.4351803,0.8920988,5.655536,1.939124,-67.82315,1006.966
5.899688244,-6.707065,12.49547,2.489985,-0.04678579,0.4577984,0.9328619,5.655536,1.939124,-67.82315,1006.964
5.932464600,-13.72671,9.304462,1.451472,-0.1369188,0.3775657,0.9197184,5.669162,1.211098,-67.74953,1006.964
5.965240479,-2.607093,3.217916,0.4740476,-0.1490907,0.3870543,0.8980718,6.390556,1.57379,-67.7562,1006.964
5.998016834,-4.7192,2.981545,-0.4422877,-0.1568253,0.3764156,0.9183233,6.390556,1.57379,-67.7562,1006.964
6.033313751,-7.266152,3.867935,-0.4422877,-0.1654474,0.3317203,0.9448861,6.376307,2.29672,-68.20277,1006.964
6.066089630,2.548931,2.86336,-0.1979316,-0.135887,0.354277,0.9313038,7.103735,2.289032,-68.63882,1006.964
6.098865986,-0.9919534,5.108881,-0.5033767,-0.1223613,0.3846095,0.9345956,7.111223,1.930538,-68.19798,1006.966
6.131641865,-8.384326,7.354403,1.756917,-0.1058563,0.3942786,0.9744949,7.111223,1.930538,-68.19798,1006.966
6.166939259,-12.04945,8.477165,3.40632,-0.1159779,0.3595075,0.9591677,7.4753,1.929665,-68.19845,1006.966
6.199715138,-19.31758,10.84087,4.200478,-0.1033428,0.3511861,0.9379704,7.469162,2.299198,-67.83123,1006.966
6.232491493,-12.91914,12.08182,5.605525,-0.09896103,0.3503958,0.959141,7.469162,2.299198,-67.83123,1006.964
6.265267372,-13.85095,9.89539,8.598887,-0.1207705,0.3442906,1.017928,8.183171,3.02123,-68.21658,1006.968
6.298043728,-1.861644,7.886238,8.354531,-0.1366775,0.2919346,1.00216,8.534052,3.82186,-67.35925,1006.968
6.333341122,2.921656,2.86336,6.460771,-0.130757,0.2601107,1.041184,8.534052,3.82186,-67.35925,1006.968
6.366116524,10.99736,-3.51865,5.666614,-0.1129692,0.33981,1.064608,8.892095,4.191368,-66.93033,1006.97
6.398892879,-24.34937,1.445136,-2.580403,-0.03544107,0.1833552,0.9549099,7.815463,3.482094,-65.67429,1006.97
6.431668758,34.97598,5.108881,-4.107629,-0.1206502,0.268885,0.8899992,7.815463,3.482094,-65.67429,1006.97
6.466966629,21.37153,15.33192,-1.969513,-0.1175605,0.3974281,0.8811337,7.067751,4.583094,-65.25542,1006.968
6.499742508,18.82458,35.54161,-1.358623,-0.1366789,0.437872,0.6967565,7.081273,3.85422,-65.24397,1006.974
6.532518864,0.4989453,55.75131,0.3518696,-0.2468938,0.4320419,0.6912504,7.081273,3.85422,-65.24397,1006.974
6.565294742,-16.0873,72.23817,9.393044,-0.2603876,0.3996827,0.7466878,7.090614,3.440931,-64.36706,1006.974
6.598071098,40.87745,82.93395,7.316017,-0.4520327,0.1115744,0.6585247,9.645917,3.070385,-64.36462,1006.974
6.633368015,99.6437,60.18326,10.55374,-0.7686769,0.8844433,1.380153,9.645917,3.070385,-64.36462,1006.974
6.666143894,-4.160113,53.09214,-1.602979,-0.405844,0.08662724,0.6574899,13.34664,3.055571,-64.8045,1006.976
6.698920250,98.58765,57.22863,-6.795546,-0.4576555,0.2601837,0.8142752,17.79213,-0.9458761,-63.44178,1006.976
6.731696129,101.6316,61.4833,-10.52198,-0.4553291,0.5000509,0.776362,17.79213,-0.9458761,-63.44178,1006.976
6.766993523,91.50588,69.16535,-12.53791,-0.3993836,0.6471174,0.7062101,20.3495,-1.299439,-62.19616,1006.976
6.799769402,93.30738,74.36551,-13.6986,-0.441518,0.580797,0.6048427,23.3394,-5.291451,-60.39644,1006.976
6.832545757,55.04099,92.2115,-21.94562,-0.4714299,0.7108471,0.6422638,23.3394,-5.291451,-60.39644,1006.976
6.865321636,18.26549,106.0392,-22.6176,-0.5207666,0.6260377,0.6222915,28.20609,-8.973236,-57.79586,1006.976
6.898097992,35.41082,103.1436,-30.74244,-0.5345747,0.5059342,0.5969931,32.63409,-11.85845,-54.77204,1006.974
6.933394909,70.07421,106.7483,-38.07312,-0.5705151,0.6873326,0.4615423,32.63409,-11.85845,-54.77204,1006.976
6.966171741,11.24584,112.1848,-41.79955,-0.6527963,0.7993839,0.5650614,38.16236,-11.81903,-50.92532,1006.978
6.998947144,-7.452514,104.6801,-36.97352,-0.6629927,0.5659485,0.4166965,43.27327,-12.13795,-46.69937,1006.978
7.031723022,24.60181,103.38,-35.07976,-0.7959554,0.5125908,0.3275591,43.27327,-12.13795,-46.69937,1006.978
7.067020893,57.4637,89.90688,-31.04788,-0.7925448,0.4951179,0.2621121,47.27103,-11.36603,-42.86215,1006.977
7.099796772,23.48363,84.88401,-38.01203,-0.8189296,0.5529472,0.2052869,52.05909,-10.58411,-38.15573,1006.977
7.132573128,27.52148,74.18823,-49.98548,-0.9813344,0.4283672,0.1350996,56.06278,-10.18342,-34.81005,1006.975
7.165348530,37.95778,70.76086,-41.55519,-0.6883594,0.8164534,0.4009756,56.06278,-10.18342,-34.81005,1006.977
7.198125362,-9.5025,66.388,-36.05718,-0.9657742,0.1783098,-0.05325418,58.61027,-9.778387,-31.40034,1006.975
7.233422279,-13.72671,69.87447,-32.26966,-0.9100379,0.4655668,0.1459458,60.81943,-7.489706,-28.01983,1006.975
7.266198635,-7.452514,62.78334,-33.43036,-0.8945006,0.4671976,0.1516828,60.81943,-7.489706,-28.01983,1006.975
7.298974514,1.927723,50.55115,-30.92571,-0.947989,0.4690965,-0.001266196,62.62452,-6.36,-25.05575,1006.973
7.331750870,10.43827,42.33727,-30.13155,-0.9174647,0.5092294,0.06021522,62.95228,-4.139436,-22.54209,1006.971
7.367047787,9.506458,29.51416,-35.93501,-0.9473361,0.3843293,-0.0752697,62.95228,-4.139436,-22.54209,1006.971
7.399823665,7.704956,22.36395,-38.98946,-0.9308996,0.4252552,-0.02290193,64.39184,-3.020746,-20.44776,1006.971
7.432600021,13.79279,16.63195,-39.17273,-0.9409271,0.3490199,-0.04779406,65.08764,-1.188418,-19.60713,1006.974
7.465375900,3.29438,18.40474,-40.33342,-0.9413466,0.3192369,-0.05785677,65.08764,-1.188418,-19.60713,1006.974
7.498152256,9.133734,22.48213,-38.68401,-0.9242854,0.3239564,0.1100909,65.42758,0.292232,-17.89007,1006.974
7.533449173,-2.669214,29.51416,-34.04125,-0.9431137,0.2492228,-0.03849258,65.40054,1.749981,-17.91299,1006.974
7.566226005,-22.6721,37.55076,-37.52332,-0.964877,0.2079729,-0.06100281,65.40054,1.749981,-17.91299,1006.974
7.599001408,-15.96306,42.1009,-35.32412,-0.939844,0.2926885,-0.09536655,65.37702,3.236598,-15.82251,1006.974
7.631777763,-25.21906,45.05553,-38.68401,-0.9721741,0.1980995,-0.141358,66.07377,5.146649,-13.73966,1006.972
7.664553642,-9.440379,50.90571,-43.2046,-0.9477329,0.3412627,-0.1045669,66.07377,5.146649,-13.73966,1006.972
7.699851513,-7.204031,57.70137,-48.45826,-0.9697044,0.1841266,-0.1225697,65.68555,6.629044,-12.02166,1006.972
7.732627392,18.63821,60.59691,-57.0718,-0.9818707,0.1952202,-0.1235203,66.01332,8.849607,-9.507998,1006.972
7.765403748,46.15772,67.9835,-57.74379,-0.96462,0.1049075,-0.03437318,66.01332,8.849607,-9.507998,1006.972
7.798179150,101.9422,69.87447,-64.2803,-1.120086,-0.07297117,-0.073208,65.61969,10.70748,-6.987666,1006.972
7.833476543,164.6842,88.42957,-52.97884,-1.233456,0.5336285,0.44698,65.22607,12.56535,-4.467335,1006.972
7.866252899,222.208,-66.51144,44.82467,-1.817495,0.7197137,0.5939375,65.22607,12.56535,-4.467335,1006.976
7.899028778,115.3603,-87.66663,103.409,-1.715254,0.4585947,-0.1688699,62.26685,15.12933,-4.068574,1006.978
7.931805134,54.41978,-184.3423,164.6202,-1.836721,0.1740834,0.3160969,57.12762,13.61432,-9.13602,1006.978
7.964581013,-58.26731,-202.0701,187.0399,-1.747108,0.5866203,-0.1401056,57.12762,13.61432,-9.13602,1006.978
7.999878407,-101.1306,-222.8707,144.7663,-1.233791,-0.7156739,-0.3992956,49.94032,8.10663,-13.32963,1006.978
8.032654285,16.52611,-164.5462,64.43425,-0.5213168,-0.3175067,-0.1686065,45.23463,2.891577,-17.90418,1006.976
8.065430641,56.40765,-87.48934,48.91764,-0.9684043,-0.4163441,-0.3970067,40.16139,1.000093,-23.8362,1006.976
8.098206520,156.9812,-75.78899,58.87515,-0.947242,0.523683,-0.2068917,40.16139,1.000093,-23.8362,1006.976
8.133504391,-59.01276,-75.84808,49.58962,-1.070641,0.4044737,0.09828264,37.27219,-0.4803939,-25.98508,1006.975
8.166279793,-3.911629,-89.4985,56.98139,-1.033703,0.3906813,0.1015853,36.25225,-4.503565,-27.16381,1006.979
8.199056625,-16.83275,-90.32579,76.10226,-0.8011598,0.8475331,0.2433097,36.25225,-4.503565,-27.16381,1006.979
8.231832027,-93.42767,-83.47104,85.81541,-0.8098095,0.4109609,0.2974193,32.91124,-4.525286,-29.33506,1006.977
8.264608383,-41.37046,-102.7353,84.59363,-0.7451639,0.1781531,0.2894337,30.38476,-6.017683,-32.29248,1006.977
8.299905777,18.38973,-98.65786,85.50996,-0.5687314,0.3085726,0.271971,30.38476,-6.017683,-32.29248,1006.975
8.332681656,36.8396,-80.28004,74.39176,-0.4987266,0.2867144,0.3363404,27.83051,-6.058277,-35.70792,1006.972
8.365458012,47.27589,-68.52059,60.58564,-0.477668,0.4295999,0.4073167,24.965,-8.674132,-36.47116,1006.968
8.398233414,21.12304,-50.91098,47.81804,-0.4628531,0.525012,0.3825882,24.965,-8.674132,-36.47116,1006.967
8.433531284,-0.246504,-28.1603,37.55508,-0.4127238,0.4777374,0.3878356,21.30193,-10.86971,-37.73734,1006.965
8.466307163,-2.855577,-11.49616,29.79678,-0.4550414,0.5297866,0.4995334,19.14316,-12.33327,-38.51966,1006.965
8.499083519,-8.073722,-6.414191,26.62015,-0.4808477,0.5678579,0.5423784,19.14316,-12.33327,-38.51966,1006.963
8.531859398,-13.41611,3.572472,24.23767,-0.4536295,0.557387,0.5447364,18.41636,-12.32048,-37.71066,1006.961
8.564635754,-23.5418,12.31819,23.50461,-0.490212,0.6403765,0.616421,18.0658,-13.04848,-37.69873,1006.961
8.599932671,-24.34937,12.67275,28.26955,-0.4974858,0.6364262,0.617407,18.0658,-13.04848,-37.69873,1006.96
8.632709026,-11.61461,16.57286,33.27885,-0.471668,0.5990394,0.6029612,18.41501,-12.33152,-38.51873,1006.96
8.665484905,-3.97375,21.00481,37.06637,-0.5072602,0.6666781,0.6371204,17.68009,-11.96534,-38.52351,1006.958
8.698261261,2.548931,21.59574,33.76756,-0.5184671,0.6801212,0.6226858,17.68009,-11.96534,-38.52351,1006.962
8.733558655,1.430757,21.41846,21.42758,-0.5434217,0.7678539,0.6620845,18.77295,-11.96286,-38.15197,1006.962
8.766335010,-10.43431,17.51834,17.51788,-0.5595425,0.8030757,0.6336693,18.43061,-13.04341,-37.26409,1006.96
8.799110413,-9.191895,13.61823,16.96808,-0.492284,0.6812654,0.5456042,18.43061,-13.04341,-37.26409,1006.959
8.831887245,4.8474,11.31361,14.89106,-0.4436382,0.6320422,0.4825046,19.52284,-13.04603,-37.2655,1006.959
8.864662647,20.00487,8.772629,13.97472,-0.4149507,0.6116754,0.460806,19.88692,-13.0469,-37.26597,1006.957
8.899960041,19.63214,6.231643,10.37047,-0.4175327,0.6693535,0.4236603,19.88692,-13.0469,-37.26597,1006.957
8.932736397,0.5610661,4.222491,3.100875,-0.4225281,0.726732,0.4163653,20.63005,-13.76563,-36.38522,1006.957
8.965512276,-8.073722,3.986121,-5.451587,-0.4484093,0.7893938,0.4235526,20.28553,-14.86402,-36.80268,1006.955
8.998288631,-2.979818,-1.450406,-12.78227,-0.4849467,0.8437909,0.4457,20.28553,-14.86402,-36.80268,1006.955
9.033585548,0.1262206,-2.395889,-11.37722,-0.4616491,0.8468641,0.4393824,20.27949,-14.49364,-36.37329,1006.955
9.066361904,2.983777,-1.273128,-6.673368,-0.4610756,0.8053069,0.4158569,20.63681,-14.13007,-36.37949,1006.955
9.099137783,11.49432,-2.336796,-4.718519,-0.4580287,0.7442787,0.3909108,20.63681,-14.13007,-36.37949,1006.953
9.131914139,18.20337,-4.050484,-6.123566,-0.4487889,0.7369967,0.3831981,20.63681,-14.13007,-36.37949,1006.952
9.164690018,14.22764,-8.896084,-10.33871,-0.4483139,0.7418878,0.3855965,20.27273,-14.1292,-36.37902,1006.952
9.199987888,11.1216,-10.60977,-11.62158,-0.4809487,0.7839709,0.3832036,20.28022,-14.48769,-35.93818,1006.954
9.232763290,6.027695,-13.74168,-15.59236,-0.4760949,0.7945905,0.4337191,20.28022,-14.48769,-35.93818,1006.952
9.265539646,-0.7434703,-14.86444,-13.02662,-0.505784,0.8311416,0.4727247,20.64502,-14.48262,-35.50354,1006.951
9.298315525,-9.5025,-11.73253,-10.52198,-0.5123441,0.7347909,0.4926213,20.64284,-14.50045,-36.80888,1006.951
9.333613396,10.00342,-13.56441,-11.01069,-0.4987169,0.7293345,0.5320688,20.64284,-14.50045,-36.80888,1006.949
9.366389275,10.31403,-13.03257,-9.483461,-0.5031469,0.7591742,0.5561025,19.9229,-14.85126,-35.93198,1006.949
9.399165630,3.977709,-13.50531,-4.229807,-0.4766608,0.6418086,0.5258908,19.54988,-14.50378,-37.24258,1006.947
9.431941032,14.47612,-10.01884,-2.946937,-0.4458653,0.555353,0.5230599,19.54988,-14.50378,-37.24258,1006.945
9.464717865,21.12304,-6.236913,-9.116928,-0.4556149,0.5784166,0.5596318,18.82246,-14.49609,-36.80653,1006.944
9.500014782,14.47612,2.981545,-16.99741,-0.476621,0.6404129,0.6053175,19.18653,-14.49696,-36.807,1006.944
9.532790661,7.145868,7.472589,-17.54721,-0.5228772,0.7097684,0.6890796,19.18653,-14.49696,-36.807,1006.944
9.565567017,0.6853076,2.567896,-10.09435,-0.4826007,0.7208158,0.6884861,19.19933,-15.23178,-37.23065,1006.942
9.598342895,-4.781321,-1.509498,-1.786246,-0.4591556,0.6519411,0.6312522,19.91614,-14.48682,-35.93771,1006.944
9.633640289,-3.041939,-8.659713,0.5351366,-0.4465725,0.660992,0.5869235,19.91614,-14.48682,-35.93771,1006.944
9.666416168,-9.750982,-10.84614,0.9627597,-0.4276872,0.6770076,0.5560474,19.91541,-14.49276,-36.37283,1006.944
9.699192524,-9.688862,-9.191547,0.5351366,-0.4524044,0.6563157,0.5518049,19.54458,-14.12745,-36.37809,1006.944
9.731968403,-1.861644,-10.60977,-2.397136,-0.4796805,0.6891196,0.5393048,19.54458,-14.12745,-36.37809,1006.944
9.764744759,0.1883414,-13.15076,-4.718519,-0.5118759,0.7506878,0.5368815,19.54385,-14.1334,-36.8132,1006.944
9.800041676,-3.663147,-16.8736,-5.87921,-0.495313,0.7284291,0.5378385,19.17228,-13.77403,-37.25357,1006.944
9.832818508,1.865602,-17.34634,-6.429011,-0.4777755,0.6991591,0.5099221,19.17228,-13.77403,-37.25357,1006.944
9.865593910,7.642835,-16.99178,-5.634854,-0.4909227,0.7171634,0.5234042,18.80748,-13.7791,-37.68821,1006.944
9.898370266,12.98522,-14.92354,-6.001389,-0.4496448,0.7110124,0.4997289,18.80748,-13.7791,-37.68821,1006.942
9.933667660,6.027695,-4.464133,-3.618917,-0.3875023,0.7144029,0.4923559,18.80748,-13.7791,-37.68821,1006.946
9.966444015,0.2504622,6.999847,1.146027,-0.3704293,0.6844496,0.5068014,18.06653,-13.04254,-37.26362,1006.944
9.999219894,-1.426799,13.8546,3.589587,-0.3879119,0.6878065,0.520316,18.09357,-14.50029,-37.2407,1006.943
10.031996250,-8.197964,15.56829,3.895033,-0.4001485,0.7286122,0.5198022,18.09357,-14.50029,-37.2407,1006.943
10.064772129,-12.42218,15.09554,2.001273,-0.4331392,0.7206916,0.5410722,18.09285,-14.50623,-37.67581,1006.943
10.100069523,-11.49036,7.354403,-0.5644657,-0.4598927,0.7444804,0.5622797,18.79999,-13.42061,-38.12906,1006.941
10.132845402,-8.632809,-3.282279,-3.557827,-0.448331,0.7845607,0.568931,18.43737,-13.40785,-37.25836,1006.939
10.165621758,-12.04945,-9.48701,-6.856635,-0.4600575,0.8116097,0.5506263,18.43737,-13.40785,-37.25836,1006.943
10.198397636,5.841332,-15.75083,-8.139503,-0.3616253,0.8466375,0.4266301,19.17083,-13.78592,-38.12379,1006.943
10.233694553,11.30796,6.17255,2.917608,-0.1674826,1.094942,0.4609347,18.80748,-13.7791,-37.68821,1006.943
10.266470909,26.65179,49.48748,44.45814,-0.08096965,1.083814,0.5777172,18.80748,-13.7791,-37.68821,1006.945
10.299246788,-39.38259,54.62855,51.05575,-0.1100455,0.7228492,0.953311,18.80145,-13.40872,-37.25883,1006.943
10.332023144,16.58823,41.92362,83.92165,-0.1093485,0.8483881,1.005589,19.17374,-13.76214,-36.38335,1006.943
10.364799023,-31.12053,37.01893,114.8327,-0.6825015,1.598403,1.340364,19.17374,-13.76214,-36.38335,1006.94
10.400096893,-154.4303,-45.00171,157.5339,-0.9940225,0.7960191,0.841696,20.65168,-14.84791,-35.55997,1006.94
10.432872295,-11.42824,-146.1684,144.583,-0.7655721,-0.01366855,0.3244293,19.94849,-16.32089,-36.77929,1006.94
10.465649128,-21.92665,-156.746,114.0996,-0.35412,0.6521445,-0.09633482,19.94849,-16.32089,-36.77929,1006.94
10.498424530,-180.7074,-133.0498,69.6879,-0.2633109,0.3676336,-0.4970957,14.46134,-15.26119,-40.20816,1006.938
10.531200886,-219.2844,-69.34789,-30.00937,0.2104192,-0.1424347,-0.3857747,7.500671,-16.3607,-41.86026,1006.938
10.566498279,-93.05495,-6.118728,-81.5685,0.02333502,-0.7811049,-0.8142244,7.500671,-16.3607,-41.86026,1006.938
10.599274635,-40.62501,-4.523226,-171.4305,0.286903,-1.031948,-1.273691,3.000372,-9.449706,-43.70393,1006.938
10.632050514,50.94102,49.90113,-227.0215,2.067093,-1.314073,-1.541274,2.889612,-3.569862,-44.66679,1006.938
10.664826870,311.5377,271.0851,-217.3694,3.27933,0.182568,-0.6924691,2.889612,-3.569862,-44.66679,1006.936
10.700123787,459.0745,191.1917,-203.3189,-1.756724,3.736794,0.5006755,3.955525,-2.108788,-44.25601,1006.935
10.732900143,24.2912,122.0533,-51.14617,0.251979,4.038521,0.7130319,14.37915,-10.47681,-36.86392,1006.936
10.765676022,-249.3508,217.8425,-11.13286,-0.3535776,2.136547,1.359953,14.37915,-10.47681,-36.86392,1006.936
10.798452377,-668.2933,127.8444,-64.83011,-1.735069,-0.5452256,0.1311343,21.79695,-17.35488,-32.10254,1006.942
10.831228256,-19.56606,123.2943,-233.3136,-1.830767,-1.394773,-1.176181,26.15582,-13.32697,-29.99573,1006.946
10.866526127,485.9728,283.199,-52.00142,-1.178748,5.000599,-0.06386797,26.15582,-13.32697,-29.99573,1006.949
10.899301529,-1617.561,316.1728,-33.30818,-6.183414,-1.642316,2.98915,28.73518,5.067116,-26.0611,1006.955
10.932078361,824.0963,-119.3994,34.6839,-3.461756,-0.07587375,0.5037268,24.45918,1.570325,-11.5142,1006.955
10.964853764,-310.2292,-157.396,305.3694,-8.786821,0.6715363,-1.388074,24.45918,1.570325,-11.5142,1006.96
11.000151634,274.7622,120.6942,139.4516,-1.760364,0.7756943,0.5210319,11.63333,23.76276,0.9608598,1006.967
11.032927513,35.16234,58.35139,-31.23115,-0.2300831,0.4873882,0.5756003,16.21328,12.81618,5.354876,1006.972
11.065703869,31.43509,174.173,-31.59768,-1.881143,0.4533526,-0.8635548,21.725,9.858723,3.280268,1006.977
11.098479748,-85.04137,-25.7375,56.18723,-1.283453,0.3142577,0.4079576,21.725,9.858723,3.280268,1006.982
11.131256104,65.47727,-14.27352,15.56304,-0.3754663,0.1042491,0.2833733,10.46013,24.85883,0.9451578,1006.982
11.166553021,14.414,10.84087,-10.03326,-0.3801222,-0.01087056,0.1232644,24.9222,16.74916,-3.174063,1006.986
11.199329376,3.604984,23.30943,-23.22849,-0.7804638,0.7943503,0.6250606,24.9222,16.74916,-3.174063,1006.991
11.232105255,-14.16156,14.15006,-18.83008,-0.8050326,0.2658269,0.432408,30.49048,10.8265,-4.393812,1006.995
11.264881611,-1.426799,3.74975,-2.824759,-0.9504512,0.3599622,0.4167261,31.55036,12.65796,-3.553648,1006.998
11.300178528,0.4368245,-2.63226,-0.5033767,-1.062557,0.5448353,0.4523342,31.55036,12.65796,-3.553648,1006.998
11.332954407,-2.731335,5.404345,-7.223169,-0.8829346,0.3760368,0.546028,34.11773,11.54665,-4.40997,1007.002
11.365730763,0.3747037,-6.650562,6.399682,-0.9076347,0.3192411,0.3926178,33.38427,11.92472,-3.544537,1007.007
11.398506641,2.42469,1.208765,-1.54189,-0.8689566,0.4078729,0.484814,33.38427,11.92472,-3.544537,1007.01
11.431282997,0.4989453,-4.995967,2.123451,-0.904178,0.2934001,0.3844654,33.01947,11.91965,-3.979179,1007.014
11.466580391,-1.985886,-2.809538,-2.030602,-0.8649309,0.343437,0.458908,33.0127,12.28409,-3.984909,1007.014
11.499356747,0.2504622,-2.573167,1.57365,-0.8328238,0.3082668,0.4054537,33.0127,12.28409,-3.984909,1007.017
11.532132149,2.797414,-0.3867376,-2.030602,-0.8622181,0.4317503,0.4785043,31.92796,11.92821,-3.542658,1007.023
11.564908981,-1.861644,-3.695928,-3.37456,-0.8837823,0.2981477,0.4123289,32.65612,11.92647,-3.543597,1007.025
11.600205898,-3.476784,-5.409616,-1.725157,-0.8853512,0.3489136,0.4305479,32.65612,11.92647,-3.543597,1007.027
11.632982254,-1.48892,-5.94145,-2.885848,-0.8376317,0.291798,0.424263,32.66215,11.55608,-3.972979,1007.027
11.665758133,0.1262206,-4.523226,-6.001389,-0.8513974,0.3718716,0.469423,32.29204,11.92734,-3.543127,1007.027
11.698534489,-5.029804,-3.51865,-8.32277,-0.8205457,0.2580086,0.4473788,32.29204,11.92734,-3.543127,1007.027
11.731310368,-3.352543,0.2632819,-4.962875,-0.8546134,0.2943893,0.4671406,32.64936,12.2909,-3.549328,1007.028
11.766607761,1.989844,4.813418,-4.718519,-0.7919653,0.2849638,0.4371618,33.01874,11.91371,-4.41429,1007.03
11.799383640,-2.35861,2.745174,-4.04654,-0.819187,0.2979067,0.440095,33.01874,11.91371,-4.41429,1007.03
11.832159996,0.2504622,2.922452,-2.641492,-0.8230065,0.2701004,0.4382205,33.3903,11.55434,-3.973919,1007.03
11.864935875,1.927723,3.09973,-1.175356,-0.8380424,0.2631631,0.4392294,32.65612,11.92647,-3.543597,1007.032
11.900233746,6.400419,2.272433,2.18454,-0.86487,0.3150923,0.4449911,32.65612,11.92647,-3.543597,1007.032
11.933009624,3.356501,2.272433,-2.15278,-0.8528017,0.3438846,0.4386614,33.38427,11.92472,-3.544537,1007.034
11.965785980,1.430757,1.97697,-4.474163,-0.8741025,0.3194555,0.4531896,32.65612,11.92647,-3.543597,1007.034
11.998561382,-1.426799,0.2632819,-2.702581,-0.8987727,0.2742416,0.4244345,32.65612,11.92647,-3.543597,1007.034
12.031338215,0.7474284,2.981545,-2.519314,-0.8128521,0.2882088,0.4386505,33.02092,11.93154,-3.108956,1007.035
12.066635132,0.9959115,0.7360234,-3.618917,-0.8507493,0.2951111,0.4262146,32.65008,12.29685,-3.114216,1007.035
12.099411488,-0.5571079,-2.454982,-1.480801,-0.9124916,0.3272642,0.4316076,31.91444,12.65709,-3.554117,1007.035
12.132187367,-1.737403,3.572472,-3.863272,-0.8802713,0.2569931,0.4431897,31.91444,12.65709,-3.554117,1007.037
12.164963722,-0.805591,-0.2094595,1.451472,-0.8836824,0.2648576,0.4576268,31.91516,12.66303,-3.119006,1007.037
12.200260639,1.120153,-4.345948,0.5351366,-0.8906369,0.3244809,0.4253022,31.92869,11.93415,-3.107546,1007.035
12.233036995,0.8095492,-10.3734,-2.458225,-0.9455826,0.3677835,0.4850561,31.92869,11.93415,-3.107546,1007.035
12.265812874,-3.10406,-18.52819,0.9627597,-1.025112,0.3182257,0.4578818,30.4392,13.76493,-2.761364,1007.037
12.298589230,9.692821,-22.07375,0.1075135,-0.9993916,0.333873,0.5059335,29.73205,12.6793,-2.308122,1007.035
12.331365109,12.23977,-23.72835,6.094237,-1.067372,0.3398515,0.5368928,29.73205,12.6793,-2.308122,1007.041
12.366662979,29.19874,-13.80078,0.5962256,-1.079465,0.3313922,0.5956604,30.46562,12.30208,-3.111397,1007.041
12.399438381,51.74859,-18.35091,1.940184,-1.126188,0.4071035,0.7535437,30.84031,11.54856,-4.840854,1007.039
12.432215214,58.08491,-19.71004,13.36383,-1.218979,0.3707227,0.4659643,30.84031,11.54856,-4.840854,1007.039
12.464990616,17.3958,-42.93347,38.41033,-1.288432,0.3400696,0.2736306,30.49975,10.06281,-6.930863,1007.041
12.500288486,-120.3881,-56.4066,69.93227,-1.359328,0.6909615,-0.02950666,31.63891,7.08611,-11.17539,1007.041
12.533064365,-213.1344,-131.1588,57.16465,-1.207726,0.5964108,0.7597095,31.63891,7.08611,-11.17539,1007.041
12.565840721,-226.1176,-97.5351,35.90568,-1.145512,0.3529132,0.688206,32.8412,0.3584442,-18.71824,1007.039
12.598616600,49.82285,-143.3319,84.47145,-0.6865777,0.1220009,0.6889096,35.55427,-6.353724,-29.30978,1007.036
12.631392956,118.839,-102.4398,96.44489,-0.6115234,0.2082652,0.6770489,35.55427,-6.353724,-29.30978,1007.036
12.666689873,201.3975,-66.68872,106.0359,-0.3740865,0.161657,0.4127698,38.54772,-11.64584,-38.18323,1007.034
12.699466228,142.0101,-18.82365,95.10094,-0.4024174,0.4340738,0.399911,35.73695,-17.52164,-41.87948,1007.034
12.732242107,66.28484,-7.536952,66.51128,-0.4605053,0.5813668,0.4994687,35.73695,-17.52164,-41.87948,1007.033
12.765018463,17.76852,6.231643,35.66132,-0.3682334,0.3424315,0.3474996,32.50285,-23.035,-41.35316,1007.035
12.800315857,8.450405,15.21373,14.21908,-0.4020405,0.4960258,0.4835737,32.89001,-24.10625,-39.65815,1007.032
12.833092213,-35.53111,14.74099,-12.90445,-0.375728,0.6643599,0.495773,32.89001,-24.10625,-39.65815,1007.03
12.865867615,-75.47477,15.03645,-39.90579,-0.3778264,0.5331103,0.5344847,32.54694,-25.19275,-39.20538,1007.026
12.898644447,-73.1763,14.03188,-54.99478,-0.3552419,0.4462613,0.6250581,33.63845,-25.20131,-39.6419,1007.026
12.931419849,-69.07632,9.127185,-62.38655,-0.4115708,0.4487738,0.6338523,33.63845,-25.20131,-39.6419,1007.025
12.966717720,-40.50077,1.799692,-68.61762,-0.3632971,0.37708,0.7017179,33.24057,-23.37825,-39.67008,1007.027
12.999493599,-15.71458,8.713535,-77.04791,-0.4382261,0.2473148,0.7612987,33.20884,-21.53909,-38.45555,1007.025
13.032269955,25.59574,5.699809,-77.59771,-0.4989885,0.2594057,0.682,33.20884,-21.53909,-38.45555,1007.024
13.065045834,49.63648,-6.82784,-80.34672,-0.4343025,0.4252414,0.7090342,33.52518,-18.92221,-38.06198,1007.024
13.100343227,68.14847,-7.359674,-87.43304,-0.420849,0.4625259,0.5914938,34.21423,-16.72545,-37.22707,1007.02
13.133119106,61.99852,2.804267,-88.83809,-0.3929614,0.5796842,0.596546,34.2135,-16.73139,-37.66219,1007.014
13.165895462,32.42903,6.940755,-80.04128,-0.3605779,0.6311585,0.5357401,34.2135,-16.73139,-37.66219,1007.015
13.198671341,3.23226,5.28616,-64.52466,-0.3644103,0.6172936,0.5776486,34.20601,-16.3729,-38.10303,1007.013
13.231447697,-19.3797,13.67732,-55.48349,-0.3362288,0.6036742,0.5463138,34.1797,-14.90921,-37.69083,1007.013
13.266744614,-39.07199,38.79171,-61.40913,-0.2954496,0.3922459,0.489735,34.1797,-14.90921,-37.69083,1007.011
13.299521446,-12.23581,60.53782,-48.39717,-0.3427865,0.5048348,0.5585123,34.52567,-13.79894,-36.40316,1007.011
13.332296848,-7.700997,77.43833,-48.51934,-0.4892651,0.418266,0.4723451,35.21075,-11.21481,-33.89569,1007.011
13.365073204,-5.464649,104.1482,-36.54589,-0.3874477,0.2859286,0.5098493,35.21075,-11.21481,-33.89569,1007.011
13.397849083,40.38049,118.3896,-2.336047,-0.6481417,0.2760428,0.592314,36.70422,-9.731829,-31.80718,1007.011
13.433146953,22.92455,115.7304,11.34789,-0.7423996,0.2839479,0.5116568,38.85914,-7.880065,-29.29013,1007.011
13.465922832,32.11842,112.2439,27.78084,-0.7456888,0.42251,0.4103698,38.85914,-7.880065,-29.29013,1007.011
13.498699188,26.27907,114.9031,30.16331,-0.8836029,0.4408591,0.4833549,42.14082,-7.847161,-26.31074,1007.013
13.531475067,-25.46754,122.8806,36.69983,-0.9738549,0.3926077,0.3767794,46.52294,-8.169424,-22.4568,1007.013
13.566772461,4.785279,97.8844,37.67726,-0.9015748,0.4638557,0.5902252,46.52294,-8.169424,-22.4568,1007.015
13.599548340,-22.98271,96.93891,-3.130204,-0.9768927,0.4648927,0.4796891,49.85283,-7.32922,-18.18457,1007.015
13.632324696,-26.89632,34.95068,-11.68267,-1.265406,-0.2858818,0.6514256,52.40313,-6.901263,-13.09657,1007.015
13.665100574,126.9768,7.177125,4.750278,-1.218733,-0.06081023,0.8839548,52.40313,-6.901263,-13.09657,1007.015
13.697876930,125.3617,58.76503,-15.53127,-1.455723,0.6599619,0.3212,54.21425,-6.141938,-10.56186,1007.017
13.733173847,-67.39906,62.01514,-28.54324,-1.274103,0.7177842,-0.4071369,54.97203,-7.650283,-9.668705,1007.017
13.765950680,-73.1763,33.47337,6.216415,-1.186747,1.166328,-0.3050086,54.97203,-7.650283,-9.668705,1007.017
13.798726082,-161.1393,10.42722,-13.94296,-1.09619,0.2217704,-0.4405066,52.78113,-7.207983,-8.802346,1007.021
13.831502438,-64.2309,10.6045,-1.419712,-1.005,-0.3669012,-0.5269621,52.05577,-7.183311,-7.123119,1007.019
13.866799831,118.7769,-13.97805,26.80341,-0.8632548,0.05442585,0.4988113,52.05577,-7.183311,-7.123119,1007.019
13.899576187,91.13316,-5.350523,34.50063,-0.8992602,0.6651453,0.3275742,53.4918,-6.093491,-7.142189,1007.017
13.932352066,-0.246504,0.2632819,22.95481,-0.9450526,0.735678,0.3699363,54.63852,-9.078288,-7.531915,1007.017
13.965128422,-108.9579,36.66437,-24.75572,-0.8615991,0.4727078,-0.07608761,54.63852,-9.078288,-7.531915,1007.017
13.997904778,-93.30343,8.181702,-18.40246,-0.8248414,0.3424536,-0.01099464,56.86428,-11.2642,-7.065243,1007.019
14.033201694,-19.87667,0.6769307,1.879095,-1.151087,0.2693796,-0.2517543,54.26986,-8.695147,-6.231839,1007.017
14.065977573,-62.61576,3.158823,0.2907805,-0.9628279,0.3263252,-0.2734666,54.26986,-8.695147,-6.231839,1007.024
14.098753929,14.53824,-28.33758,15.25759,-0.9312239,0.184827,0.1420869,54.26914,-8.701091,-6.666951,1007.022
14.131530285,9.009492,-23.90562,10.55374,-1.037556,0.3780096,0.1049831,54.99053,-8.338399,-6.673621,1007.022
14.166827679,13.35795,-37.20148,2.612163,-1.148787,0.6674566,0.4696829,55.37271,-9.450414,-7.962236,1007.022
14.199604034,11.61856,-33.0059,-12.0492,-1.278117,0.3162437,0.4069792,55.37271,-9.450414,-7.962236,1007.024
14.232379437,13.17158,-19.53277,-1.664068,-1.342349,0.3297302,0.1823153,54.64997,-9.824144,-8.763631,1007.028
14.265156269,36.90172,-25.91478,-14.73712,-1.282255,0.1576787,0.09193609,54.28975,-10.21148,-10.49788,1007.028
14.297931671,45.84711,-22.78286,-9.239106,-1.331046,0.2293767,-0.04476299,54.28975,-10.21148,-10.49788,1007.028
14.333229542,28.45329,-45.35627,6.277504,-1.19804,0.4521147,-0.04156327,53.53247,-8.768973,-11.76303,1007.028
14.366005421,-17.08123,-50.08368,23.19916,-1.063441,0.63002,0.02620272,52.79923,-8.808835,-14.80788,1007.026
14.398781776,-62.4294,-51.38372,12.87512,-1.020679,0.4404591,0.1703141,52.79923,-8.808835,-14.80788,1007.026
14.431557655,-68.393,-25.67841,15.01323,-1.047437,0.4505324,0.1101922,52.08783,-9.929272,-16.90315,1007.024
14.466855049,-61.99455,-45.41536,28.575,-1.182142,0.3305851,0.1126179,50.6362,-10.3072,-18.13871,1007.023
14.499630928,-60.06881,-53.2156,31.81271,-1.03603,0.3710296,0.2200355,50.6362,-10.3072,-18.13871,1007.023
14.532407284,-56.46581,-43.34712,33.46212,-0.9561207,0.4674231,0.2582096,50.28347,-11.05303,-19.43212,1007.023
14.565183163,-63.48545,-48.60637,40.12082,-1.046958,0.4984245,0.343098,49.20726,-12.17854,-21.96203,1007.021
14.597959518,-58.39155,-46.77449,51.05575,-0.9264024,0.4606296,0.4362532,49.20726,-12.17854,-21.96203,1007.023
14.633256912,-60.06881,-27.03754,43.29745,-0.9067643,0.5687079,0.4061992,48.84642,-12.57098,-24.06923,1007.02
14.666033268,-70.87783,-19.76914,40.91498,-0.8823395,0.5307921,0.5275017,48.87877,-14.40505,-24.9108,1007.02
14.698808670,-61.06274,-2.809538,38.28815,-0.8918995,0.4573089,0.4775735,48.87877,-14.40505,-24.9108,1007.018
14.731585503,-41.86742,-2.041333,38.77686,-0.8408594,0.4414299,0.5140598,48.89833,-15.5043,-25.32873,1007.016
14.766882420,-30.93417,9.599926,22.77154,-0.8176614,0.4818399,0.4840995,48.53353,-15.50937,-25.76337,1007.013
14.799658775,-24.34937,14.15006,2.978697,-0.7673236,0.346904,0.4899598,48.53353,-15.50937,-25.76337,1007.011
14.832434654,4.101951,6.113457,-2.213869,-0.6891396,0.3436333,0.4859284,49.65956,-17.33418,-25.73613,1007.011
14.865211010,17.58216,2.095155,-10.09435,-0.656482,0.29231,0.4902605,49.2909,-16.95103,-24.43605,1007.012
14.897986889,36.90172,1.031487,-14.55385,-0.580525,0.2027551,0.4776999,49.2909,-16.95103,-24.43605,1007.01
14.933284283,73.55298,0.9133015,-11.13286,-0.5206497,0.1293307,0.4227934,50.37565,-16.59516,-24.8783,1007.008
14.966060162,77.28022,-7.005118,-6.245744,-0.5524203,0.2187472,0.4323612,50.01084,-16.60023,-25.31294,1007.005
14.998836517,77.90143,-5.05506,-15.16474,-0.5106711,0.2164161,0.3971263,50.01084,-16.60023,-25.31294,1007.005
15.031612873,81.56656,1.563321,-21.94562,-0.58074,0.2781889,0.3996062,51.12408,-17.69022,-24.86205,1007.001
15.066910267,52.49404,-1.745869,-29.64284,-0.65631,0.4227836,0.4823617,51.49493,-18.05553,-24.85679,1007
15.099685669,16.71247,-4.818689,-32.26966,-0.6231591,0.3594611,0.4414628,51.86431,-18.43272,-25.72175,1007
15.132462502,-6.769186,14.97736,-36.17936,-0.6679845,0.4360002,0.5059562,51.86431,-18.43272,-25.72175,1006.997
15.165238857,-36.09019,36.66437,-42.77698,-0.7608102,0.2617036,0.4867032,51.48671,-17.70298,-25.73274,1006.992
15.198014736,-22.48574,24.60947,-27.19928,-0.8267596,0.1993837,0.3589113,51.45436,-15.8689,-24.89117,1006.992
15.233312130,-19.44182,-1.33222,-13.63752,-0.7674572,0.1776288,0.3809461,51.45436,-15.8689,-24.89117,1006.988
15.266088009,-7.576756,-0.682201,-3.130204,-0.7513238,0.1360389,0.4040759,51.0444,-13.30508,-24.06059,1006.986
15.298864365,14.66248,4.872511,7.193839,-0.8023757,0.1603213,0.3853873,51.01736,-11.84734,-24.08351,1006.981
15.331640244,24.78817,-1.09585,20.2058,-0.8036292,0.271064,0.3433449,51.01736,-11.84734,-24.08351,1006.981
15.366938114,8.388284,-4.818689,23.38243,-0.8179616,0.3796638,0.3591001,51.02412,-12.21177,-24.07778,1006.981
15.399713516,-8.943413,-10.31431,14.34125,-0.8895555,0.4807682,0.4163996,49.94468,-12.94397,-24.50002,1006.98
15.432489872,-29.81599,-17.34634,8.354531,-0.8556116,0.4985179,0.4066651,49.94468,-12.94397,-24.50002,1006.977
15.465265751,-41.61894,-25.67841,13.24165,-0.7486471,0.4414831,0.4108296,50.3148,-13.31523,-24.92987,1006.975
15.498042107,-44.7871,-19.65095,11.89769,-0.7067661,0.3917147,0.4175444,48.87056,-14.0525,-25.78676,1006.971
15.533339500,-36.83564,-3.341372,2.367807,-0.74261,0.3604661,0.4494464,48.87056,-14.0525,-25.78676,1006.971
15.566115856,-20.74636,9.068091,-0.3201096,-0.7479361,0.3586375,0.4730485,48.49899,-13.69313,-26.22713,1006.968
15.598891735,-0.6813495,11.31361,7.865819,-0.7291861,0.4366896,0.4685541,48.49223,-13.3287,-26.23286,1006.966
15.631668091,8.326163,13.67732,10.00393,-0.7549446,0.4467159,0.4705255,48.49223,-13.3287,-26.23286,1006.963
15.666965008,12.48826,13.26367,10.1872,-0.7603799,0.4830845,0.4541173,48.48692,-12.95237,-25.36837,1006.961
15.699741363,8.015559,14.38643,7.621462,-0.7546114,0.5074778,0.4531041,48.50721,-14.04568,-25.35118,1006.961
15.732517242,-1.054074,16.86833,3.284142,-0.7483036,0.5049313,0.4295063,48.50721,-14.04568,-25.35118,1006.961
15.765293598,-8.011601,18.87748,-0.6866437,-0.7565003,0.4774817,0.4141635,49.24285,-14.40592,-24.91127,1006.959
15.798069954,-8.011601,23.01396,-0.1368426,-0.760817,0.4515089,0.3964025,49.60838,-14.39491,-24.04152,1006.96
15.833367348,-12.4843,40.26903,-6.856635,-0.8135958,0.3872133,0.3889228,49.60838,-14.39491,-24.04152,1006.958
15.866143703,-5.899495,49.01474,-10.09435,-0.8649498,0.3300042,0.3482151,49.23962,-14.01261,-22.8036,1006.957
15.898919106,-1.613161,50.78752,-8.200592,-0.8524785,0.3863033,0.3047781,50.68459,-13.2694,-21.51161,1006.957
15.931695938,-4.470717,41.03723,-15.04256,-0.8717515,0.3167524,0.2717147,50.68459,-13.2694,-21.51161,1006.953
15.964471340,32.61539,26.91408,-11.01069,-0.9253445,0.3993558,0.3083008,50.31051,-12.51078,-19.4092,1006.953
15.999769211,34.29265,23.84126,-21.27364,-0.956436,0.4109827,0.3367574,51.38599,-11.39122,-17.3144,1006.951
16.032545090,25.53362,29.39598,-37.82877,-0.8975455,0.3272338,0.1990745,51.38599,-11.39122,-17.3144,1006.95
16.065321445,26.58967,28.86414,-37.15679,-0.8671135,0.383599,0.1435607,51.3889,-11.36744,-15.57395,1006.95
16.098097324,19.75639,29.04142,-36.54589,-0.9162416,0.4273102,0.1850085,52.46968,-10.6242,-14.34365,1006.948
16.133394718,17.02307,22.30485,-41.98282,-0.9301904,0.3782507,0.2207363,52.0822,-9.135864,-12.19054,1006.95
16.166170597,15.71854,24.49128,-46.74776,-0.8946745,0.3457885,0.2024092,52.0822,-9.135864,-12.19054,1006.952
16.198946953,20.37759,31.46422,-51.94033,-0.9179075,0.3012929,0.1351407,52.42806,-8.026443,-10.96502,1006.95
16.231722832,13.66855,34.12339,-54.56716,-0.9154029,0.2706908,0.1438454,52.03196,-6.118871,-9.253709,1006.95
16.264499188,19.01094,39.61901,-51.20726,-0.9279975,0.2468098,0.08662924,52.03196,-6.118871,-9.253709,1006.948
16.299796105,24.78817,42.27818,-42.53262,-0.9692269,0.2390714,0.1440208,52.35151,-3.545758,-7.616,1006.948
16.332572937,26.40331,42.51455,-36.66808,-0.9856347,0.1930393,0.1277627,51.58497,-1.339559,-6.344106,1006.948
16.365349293,28.70178,40.80086,-27.26037,-0.9958277,0.1859417,0.09987863,51.58497,-1.339559,-6.344106,1006.948
16.398125172,23.79424,38.0235,-24.14482,-1.00938,0.1652995,0.08935193,51.9323,-0.2182508,-4.248366,1006.948
16.433422565,25.09877,30.45964,-17.6083,-1.050571,0.1334055,0.1049013,51.91347,0.8869481,-3.395333,1006.948
16.466198444,23.60787,28.62777,-12.53791,-1.063665,0.1249598,0.09676191,51.91347,0.8869481,-3.395333,1006.948
16.498974800,16.33974,27.26864,-5.390498,-1.057311,0.1039531,0.07993083,52.25933,1.99637,-2.169816,1006.947
16.531750679,5.65497,25.1413,-0.6255547,-1.047035,0.07394298,0.09439255,52.98895,2.006512,-1.300533,1006.947
16.564527035,-3.849509,24.314,3.589587,-1.014891,0.02975703,0.07512844,52.98895,2.006512,-1.300533,1006.948
16.599823952,-6.707065,16.80923,7.74364,-1.010976,0.0156255,0.06936411,51.89213,2.391399,0.0004823208,1006.948
16.632600307,-8.073722,12.2,3.650676,-0.9667199,-0.01676719,0.05053486,52.98571,2.39982,0.807137,1006.948
16.665376186,-18.94486,11.25452,-5.451587,-0.9599099,-0.03268705,-0.005776624,52.98571,2.39982,0.807137,1006.953
16.698152542,-27.95237,7.472589,-3.37456,-0.9410302,-0.01474009,-0.03906241,53.34448,2.775272,1.671161,1006.951
16.733449936,-37.022,0.08600387,3.223053,-0.989728,0.03972807,-0.06213437,53.3399,3.157541,2.970766,1006.951
16.766226292,-45.84315,-3.932299,0.5962256,-0.9770564,0.02086616,-0.0582851,53.3399,3.157541,2.970766,1006.949
16.799002171,-47.08557,-5.586894,1.634739,-0.9576122,0.00722071,-0.0828601,52.60498,3.523722,2.965975,1006.949
16.831778526,-41.55682,-5.29143,7.804729,-0.9386881,0.008689126,-0.1045685,52.97031,3.533039,3.711411,1006.947
16.864554882,-29.31903,-3.577742,11.16463,-0.9805796,0.05374622,-0.1584495,52.97031,3.533039,3.711411,1006.946
16.899851799,-16.27366,2.154248,2.734341,-1.003153,0.150371,-0.1739452,52.61372,3.175419,4.152723,1006.946
16.932628155,-22.6721,-6.177821,-7.345347,-1.056776,0.2350278,-0.1922374,53.34259,3.179617,4.586895,1006.948
16.965404034,-25.84026,-9.014269,-11.62158,-0.9966007,0.2486162,-0.2015464,53.34259,3.179617,4.586895,1006.948
16.998180389,-26.58571,0.1450966,-12.96554,-0.9426004,0.2072252,-0.1953544,52.97925,3.186434,5.022476,1006.946
17.033477783,-9.005533,18.7002,-7.834059,-0.9487945,0.1625502,-0.1687975,52.61444,3.181363,4.587834,1006.945
17.066254139,10.56251,31.22785,-2.397136,-0.9317925,0.1607841,-0.1630588,52.61444,3.181363,4.587834,1006.945
17.099029541,31.86994,37.01893,4.444833,-0.8346983,0.1754353,-0.1339481,52.96645,3.921252,5.446128,1006.941
17.131806374,48.64255,48.71928,-0.6255547,-0.9449922,0.1936251,-0.1871451,52.23975,3.934885,6.317291,1006.941
17.164581776,53.17736,47.83289,0.3518696,-0.9067049,0.2296856,-0.160334,52.23975,3.934885,6.317291,1006.941
17.199879646,52.3698,50.66934,1.084938,-0.9728698,0.2796715,-0.1766187,52.21969,5.099974,7.107211,1006.941
17.232655525,42.18199,47.83289,0.5351366,-0.9102029,0.27357,-0.1488392,52.58595,5.116933,8.412076,1006.945
17.265431881,35.28658,54.39218,1.329294,-0.9134685,0.2124858,-0.1742515,52.59478,4.769478,9.660982,1006.945
17.298208237,31.37297,52.79667,5.422258,-0.9119604,0.1834989,-0.212239,52.59478,4.769478,9.660982,1006.945
17.333505154,29.69571,46.35557,-2.458225,-0.9589254,0.1205623,-0.2413958,53.31087,5.508495,10.51881,1006.945
17.399057388,41.00169,34.06429,-1.358623,-1.059386,0.08062919,-0.3301493,52.57813,5.892509,11.81935,1006.945
17.431833744,14.28976,29.51416,13.42492,-1.009488,0.1216721,-0.3712453,52.57886,5.898453,12.25446,1006.945
17.464609623,-20.12515,34.65522,6.52186,-1.143311,0.02811087,-0.4275875,53.30088,6.26624,12.62075,1006.945
17.499907493,-38.76138,34.47794,-6.673368,-0.9963574,-0.1082314,-0.4599818,53.30088,6.26624,12.62075,1006.945
17.532683372,-16.46003,36.19163,-16.01999,-0.8869944,-0.1571172,-0.4774966,52.93295,6.655324,14.35593,1006.945
17.565459728,13.79279,40.4463,-16.26434,-0.9182332,-0.09122117,-0.4890744,53.67888,5.959519,16.91496,1006.947
17.598235130,27.95633,38.25988,-12.29356,-0.893587,-0.03072526,-0.4338675,53.67888,5.959519,16.91496,1006.95
17.633533001,0.9959115,53.50579,-80.22454,-0.172975,-0.4328711,-0.3680613,53.65256,7.42321,17.32716,1006.95
17.666308880,70.07421,24.19582,-33.67471,-0.7672411,-0.0614708,-0.3845405,53.28993,7.435971,18.19785,1006.95
17.699085236,75.78932,33.59155,-1.053178,-0.8652937,0.1094325,-0.4837261,53.28993,7.435971,18.19785,1006.95
17.731861591,59.14096,14.85917,2.428896,-0.9328759,0.1463839,-0.481696,53.98428,9.256411,18.16826,1006.95
17.764637470,32.86387,28.86414,6.827305,-0.8512486,0.1175684,-0.5213178,54.32735,10.34291,17.71549,1006.95
17.799935341,14.22764,28.33231,8.293442,-0.8543724,-0.02262681,-0.647216,54.32735,10.34291,17.71549,1006.95
17.865487575,12.23977,17.22288,24.23767,-0.797955,-0.06265037,-0.657398,55.77545,10.69197,16.83765,1006.95
17.898262978,11.49432,20.70935,28.39173,-0.8447995,0.02479109,-0.7036294,55.77545,10.69197,16.83765,1006.954
17.966336727,34.60325,-48.01544,13.05838,-1.147705,-0.3804101,-0.477023,58.78183,8.856707,16.42736,1006.956
17.999113083,63.98638,-68.28423,19.53382,-0.9514339,-0.4499297,-0.6246804,58.78183,8.856707,16.42736,1006.956
18.031888962,92.49982,-65.80233,27.47539,-0.7621132,-0.3774074,-0.368673,64.64192,6.609423,13.03548,1006.956
18.064665318,42.61683,-84.00288,35.7835,-0.8469386,-0.03334039,-0.3757294,70.57309,3.537564,7.107435,1006.956
18.099962235,4.03983,-108.6445,29.73569,-0.8980823,-0.1483748,-0.2575011,70.57309,3.537564,7.107435,1006.956
18.132738590,-25.03269,-103.5035,9.454133,-0.8555371,-0.2120047,0.06645034,78.66406,-1.693289,-0.8411686,1006.956
18.165514946,-13.85095,-74.66623,36.02785,-0.9972173,0.1597037,0.1105114,97.46865,-9.679565,-17.40257,1006.956
18.198290825,-59.63396,10.84087,-7.895148,-1.660585,0.3877092,-0.9732481,97.46865,-9.679565,-17.40257,1006.956
18.233588696,-31.74174,-56.34751,38.65468,-0.9830429,0.03700275,-0.3220815,133.3132,-11.58414,-43.84342,1006.956
18.266364574,-29.31903,-44.52897,14.58561,-0.9357521,0.2338378,0.05152779,141.8358,1.318801,-62.83397,1006.956
18.299140930,-35.46898,-56.11114,-2.091691,-1.006618,-0.0456588,-0.2742461,144.3331,3.901565,-64.55662,1006.957
18.331916809,0.1262206,-74.37077,7.865819,-1.010761,-0.1022486,-0.07246046,144.3331,3.901565,-64.55662,1006.957
18.364693165,1.803482,-60.07035,38.10488,-1.020675,0.175328,-0.1359137,141.7824,3.050581,-73.92784,1006.957
18.399990082,-19.25546,-51.67919,21.3054,-0.9958149,0.1467382,-0.07479662,140.9937,5.915177,-77.8266,1006.962
18.432766437,-19.50394,-59.83398,15.50195,-1.013551,0.03702567,-0.1419798,140.9937,5.915177,-77.8266,1006.963
18.465542793,-20.24939,-65.80233,16.90699,-0.9924927,0.1975966,0.02090984,139.2245,2.980269,-79.51884,1006.963
18.498318672,-23.35543,-56.82025,10.37047,-0.9834893,0.07853372,-0.02225463,138.8074,2.133934,-83.73268,1006.963
18.533616543,-3.414664,-57.82483,10.55374,-1.063596,0.0421815,-0.1808592,138.8074,2.133934,-83.73268,1006.963
18.566392422,-1.178316,-58.47485,15.62412,-0.9442753,0.1699814,0.1941273,137.7276,0.9795566,-88.37599,1006.963
18.599168777,1.306515,-47.18814,15.92957,-0.9899302,0.1648725,0.144663,135.5168,1.608374,-96.09233,1006.963
18.631944179,-6.707065,-46.53812,11.47007,-0.9602648,0.1567449,0.2009243,135.5168,1.608374,-96.09233,1006.965
18.664721012,8.82313,-52.92013,11.65334,-0.9719226,0.1515296,0.165339,134.8067,0.4989767,-97.37954,1006.963
18.700017929,-2.482852,-42.57891,9.637401,-0.974358,0.1655378,0.221643,131.9191,-0.9687734,-98.59604,1006.965
18.732794285,-14.41004,-37.55604,11.83661,-1.017407,0.08241444,0.1564052,131.9191,-0.9687734,-98.59604,1006.965
18.765570164,23.17303,-51.02917,19.77818,-0.9107873,0.1952652,0.2878753,130.8749,-3.51127,-98.11941,1006.963
18.798346519,-7.328272,-36.61055,21.06105,-0.9208741,0.1342665,0.2128987,127.6747,-7.495241,-96.80897,1006.963
18.831122875,15.09733,-34.89687,26.62015,-0.9635462,0.125219,0.2938824,127.6747,-7.495241,-96.80897,1006.963
18.866419792,11.18372,-42.87438,33.95083,-0.9638562,0.252209,0.2758814,125.1492,-11.91108,-95.86566,1006.963
18.899196148,22.05486,-45.8881,35.47805,-0.9429116,0.238755,0.3470935,121.271,-18.42059,-92.77374,1006.963
18.931972027,21.49577,-48.01544,36.51657,-0.9547353,0.2935794,0.2608751,121.271,-18.42059,-92.77374,1006.963
18.964748383,20.12911,-50.20187,43.60289,-0.8650132,0.356794,0.3486562,115.5008,-24.24557,-88.81965,1006.963
19.000045776,8.388284,-56.28842,38.41033,-0.8882687,0.3503403,0.4291085,107.6153,-30.34623,-83.17977,1006.963
19.032822132,8.698888,-68.99333,40.97607,-0.8898508,0.4008985,0.4174834,107.6153,-30.34623,-83.17977,1006.963
19.065598011,4.661037,-78.92091,39.63211,-0.8662405,0.2755105,0.427725,99.62218,-33.96237,-78.01408,1006.963
19.098374367,17.14731,-104.0944,48.85655,-0.8094048,0.4768879,0.4624261,91.23471,-36.07613,-74.11497,1006.963
19.131150723,-9.999466,-119.163,51.54446,-0.7870655,0.4826793,0.4979851,91.23471,-36.07613,-74.11497,1006.967
19.166447640,-45.71891,-125.0723,46.59626,-0.7052517,0.3931379,0.5503945,82.88475,-37.1205,-71.97357,1006.967
19.199223995,-49.44616,-120.5222,48.30675,-0.6363043,0.417407,0.6657212,76.26611,-36.72237,-70.66543,1006.967
19.231999874,-59.19912,-109.5309,52.70516,-0.5460317,0.6478119,0.7022247,67.43449,-34.87316,-70.24761,1006.967
19.264776230,-68.57936,-81.93463,39.87646,-0.3858533,0.4881183,0.7978764,67.43449,-34.87316,-70.24761,1006.967
19.300073624,-92.74434,-84.65289,18.25095,-0.6207548,0.4389326,0.8009145,58.23734,-33.03496,-70.69955,1006.967
19.332849979,-39.32047,-51.85646,4.383744,-0.4658162,0.226731,0.8461149,54.22002,-32.70762,-74.11884,1006.967
19.365625382,-45.65679,-39.32882,-3.008026,-0.4309895,0.07188304,0.8087194,54.22002,-32.70762,-74.11884,1006.967
19.398402214,-13.66459,-33.59682,-7.589703,-0.4267108,0.1220147,0.8688039,50.98494,-35.29753,-77.49324,1006.967
19.431177616,20.75032,-36.13781,-2.580403,-0.4687615,0.2211534,0.7479324,48.08834,-36.41867,-80.02081,1006.967
19.466475487,14.28976,-38.61971,14.46343,-0.4181286,0.398937,0.8991733,48.08834,-36.41867,-80.02081,1006.967
19.499251842,7.580714,-31.76495,25.15401,-0.3200332,0.3877989,0.8604486,46.21375,-37.20078,-84.23371,1006.972
19.532027721,9.817061,-40.15611,32.17925,-0.2609292,0.4574025,0.9232618,44.01961,-36.85488,-85.97707,1006.97
19.564804077,-8.819171,-53.62925,42.19785,-0.2577406,0.558197,0.9861607,44.01961,-36.85488,-85.97707,1006.97
19.600100994,-26.58571,-98.89423,37.9827,-0.3724553,0.4018084,0.9770413,42.55301,-36.51583,-88.09431,1006.97
19.632877827,-10.06159,-134.3499,21.3054,-0.2426109,0.3185976,0.9715638,42.14015,-33.97578,-89.00418,1006.97
19.665653229,10.37615,-124.8359,30.52984,-0.0938082,0.4737806,1.186627,42.14015,-33.97578,-89.00418,1006.969
19.698429584,-35.90383,-192.1425,41.83131,-0.006295995,0.2019582,1.073709,42.10769,-31.65285,-83.50739,1006.967
19.731205463,72.74541,-101.1398,30.10222,-1.642974,0.5318282,-1.000945,37.33199,-27.79334,-68.64046,1006.96
19.766503334,-114.5487,-119.9312,74.88047,-0.06355157,0.7905568,1.038781,37.33199,-27.79334,-68.64046,1006.965
19.799279213,78.64688,-88.84848,55.08763,-0.03647667,0.1767778,0.7806693,13.35952,-17.43569,-66.16048,1006.965
19.832055569,-64.29303,-81.28461,40.54844,0.09872833,0.2919091,0.7854701,-5.17511,-5.183187,-57.43817,1006.963
19.864831924,-37.64321,-68.4615,12.32532,0.2318446,0.4279644,0.5798892,-5.17511,-5.183187,-57.43817,1006.962
19.900128841,-27.64177,-73.72075,21.3054,0.4420817,0.2830364,0.8477275,-13.25331,-4.388268,-54.02048,1006.96
19.932905197,-6.707065,-73.95712,30.71311,0.4317044,0.1629564,0.8917369,-16.93174,-2.169144,-52.30972,1006.958
19.965681076,38.57898,-97.47601,42.93092,0.4252765,0.2363646,1.020165,-16.93174,-2.169144,-52.30972,1006.958
19.998457432,58.76823,-109.2945,50.93357,0.5510994,0.2060366,0.990068,-20.61558,0.4254546,-49.79662,1006.958
20.031233311,102.6255,-106.8127,48.91764,0.6602724,0.2274182,0.9219049,-25.40356,0.4836464,-46.3717,1006.958
20.066531181,122.1314,-116.0311,78.42364,0.6641657,0.19172,0.756361,-25.40356,0.4836464,-46.3717,1006.958
20.099306583,194.6885,-133.2862,92.04649,0.8269098,0.3493681,0.6787195,-29.37035,-1.294125,-43.78937,1006.956
20.132083416,205.5596,-122.5313,103.5312,0.8552324,0.4455292,0.4652641,-32.95808,-3.789757,-40.32582,1006.956
20.164859772,150.7691,-113.7265,109.0903,0.8161699,0.554962,0.5605015,-32.95808,-3.789757,-40.32582,1006.96
20.200156689,125.2375,-89.79396,100.2324,0.9224881,0.2675965,0.08076477,-36.94168,-7.796912,-36.40274,1006.959
20.232933044,82.74685,-60.72036,111.4728,0.9928871,0.5170741,0.2925023,-40.54294,-9.563669,-32.95066,1006.957
20.265708923,58.45763,-41.81071,92.41302,0.8703209,0.4234841,0.4286781,-43.45203,-9.527818,-30.83351,1006.955
20.298485279,84.67259,-33.47864,93.32935,0.9185699,0.1119831,0.2600752,-43.45203,-9.527818,-30.83351,1006.955
20.331261158,151.5767,-41.63343,84.2271,0.8433041,0.1360665,0.3820019,-45.3241,-6.518349,-28.76455,1006.955
20.366559029,231.4019,-67.04327,54.23238,0.6762725,0.04329009,-0.08197617,-46.87947,-4.31026,-27.49164,1006.955
20.399334431,218.108,-69.93882,71.52058,0.7424458,0.002025549,-0.002164875,-46.87947,-4.31026,-27.49164,1006.955
20.432110786,282.9,-59.18396,51.84991,0.8783446,0.1643407,-0.3570141,-49.75196,-6.073667,-23.66754,1006.954
20.464887619,168.1008,-4.759596,19.22838,0.9638837,0.3430735,-0.3213842,-52.65065,-6.372533,-19.36909,1006.952
20.500184536,20.43971,50.01932,-5.329409,0.9371744,0.1629935,-0.2011904,-52.65065,-6.372533,-19.36909,1006.952
20.532960892,3.356501,70.22902,-37.27896,0.8008074,-0.06876852,-0.1673037,-53.00651,-6.72421,-18.49267,1006.95
20.565736771,-28.6357,87.425,-72.34406,0.7816079,0.06436833,-0.04904381,-52.25444,-8.279257,-21.01825,1006.95
20.598513126,-108.3988,92.92062,-81.75176,0.8123176,0.6498644,0.06456499,-52.25444,-8.279257,-21.01825,1006.947
20.631289005,-433.4768,135.1128,-59.8819,1.001428,0.7448546,-0.02026502,-49.69881,-9.066885,-24.86392,1006.947
20.666586399,-656.6767,185.4007,-55.72785,0.8536871,0.5496699,-0.2458604,-46.41108,-10.24362,-30.3831,1006.947
20.699362278,-577.7212,184.987,-24.57245,0.9168454,-0.2791287,-0.2308016,-46.41108,-10.24362,-30.3831,1006.947
20.732138634,-75.16416,152.4269,43.05309,0.4510369,-1.411181,-0.04507311,-40.37366,0.6647696,-35.72319,1006.943
20.764914989,506.4106,62.96062,43.48072,0.6790675,-0.4853371,0.09788051,-34.418,16.43102,-36.78762,1006.943
20.800212383,510.0757,10.30904,-28.29888,0.6054534,-0.008639039,0.8704036,-34.418,16.43102,-36.78762,1006.943
20.832988739,665.4398,-56.93843,-97.45164,0.1859634,-0.461632,-1.363844,-32.54425,13.01551,-41.89663,1006.947
20.865764618,689.232,-2.986816,-89.14353,1.236123,3.003631,0.3805992,-32.56198,-5.207619,-37.31975,1006.947
20.898540974,-335.6366,93.39336,-50.77964,0.6312665,1.135299,0.6115711,-32.56198,-5.207619,-37.31975,1006.947
20.931316853,-206.3632,96.76163,-87.31087,0.7323388,-0.3280123,-0.4550862,-34.37468,-27.40917,-26.33626,1006.947
20.966614246,269.9789,121.1669,-43.63222,0.5851975,0.8342947,0.244855,-28.86779,-27.54468,-35.29425,1006.946
20.999390125,288.8636,61.95604,-60.55388,-0.06978834,0.5295373,0.9111471,-28.86779,-27.54468,-35.29425,1006.944
21.032166481,149.4646,-3.51865,-92.93105,0.5059582,1.556517,0.6117148,-23.78528,-26.41689,-31.89929,1006.944
21.064942837,-55.90672,30.99148,-87.98284,0.466166,1.036806,0.09368453,-19.21393,-33.3132,-24.5226,1006.946
21.100240231,57.33946,18.81838,-71.5499,0.2153082,0.7678187,0.1649638,-19.21393,-33.3132,-24.5226,1006.95
21.133016586,91.63012,8.004423,-44.854,0.3667223,1.4239,0.1982738,-16.62555,-35.51187,-24.92662,1006.951
21.165792465,-31.30689,37.19621,-19.92968,0.6570958,1.159683,-0.1153832,-13.33035,-36.20784,-21.93576,1006.953
21.198568821,-170.8923,59.53324,-22.92305,0.3782497,1.049266,0.100132,-13.33035,-36.20784,-21.93576,1006.953
21.231344223,-110.2003,61.83786,-36.79025,0.2208692,0.5293674,0.4671237,-12.56985,-38.04366,-22.77827,1006.951
21.266642094,124.989,-2.395889,-36.66808,0.08960038,0.6433846,0.7021678,-10.78284,-36.64207,-26.59523,1006.951
21.299418449,93.68011,-25.85568,-28.66541,0.1101284,0.7411009,0.4415551,-8.578987,-34.46677,-27.06762,1006.951
21.332194328,222.0838,-52.80195,-43.26569,0.16088,0.5459359,-0.01989701,-8.578987,-34.46677,-27.06762,1006.953
21.364970684,233.3276,-66.92509,-37.76768,0.2543375,1.023543,-0.2283054,-8.152307,-37.31351,-21.92523,1006.953
21.400267601,125.5481,-39.03335,-15.65345,0.2310267,1.239474,-0.1756258,-8.46367,-39.39991,-14.6178,1006.953
21.433044433,77.96355,-32.41497,-16.87523,0.2068041,1.228528,-0.1096053,-8.46367,-39.39991,-14.6178,1006.957
21.465819836,36.90172,-22.78286,-15.71454,0.3501465,1.153996,-0.2840859,-8.415317,-41.52285,-9.921508,1006.959
21.498596668,-50.44009,4.754325,-12.84336,0.184163,1.148321,-0.1301292,-7.684981,-41.50677,-8.617113,1006.961
21.531373024,-38.63714,-14.56898,-12.90445,0.15165,0.9736087,0.06853222,-7.684981,-41.50677,-8.617113,1006.958
21.566669941,9.444337,-0.7412937,4.811368,0.408861,1.166501,-0.3073494,-7.69923,-40.78384,-9.063684,1006.958
21.599446297,-49.01131,24.72765,0.2907805,0.2912307,1.059058,-0.068153,-8.427385,-40.78209,-9.062745,1006.961
21.632222176,-9.254017,21.41846,8.110175,0.2547725,0.875278,-0.0480537,-8.427385,-40.78209,-9.062745,1006.961
21.664998531,27.02452,18.7002,9.087599,0.2214026,1.015992,-0.08380741,-8.066215,-40.80674,-10.80366,1006.961
21.697774410,8.07768,36.60528,16.72373,0.2813241,1.109967,-0.2294624,-6.973257,-40.80341,-10.36996,1006.961
21.733071804,-42.79923,46.53285,9.148688,0.2201454,0.9468712,-0.006682366,-6.973257,-40.80341,-10.36996,1006.961
21.765847683,11.05948,33.35518,-9.911085,-0.002653614,0.523955,0.09749489,-6.603144,-41.17466,-10.79981,1006.959
21.798624039,81.00747,-1.568591,-14.49276,0.2435267,0.9244835,0.0375812,-6.604493,-41.1857,-11.60787,1006.959
21.831400871,30.06844,-7.123303,-3.191293,0.2537309,0.8701215,-0.2280728,-6.604493,-41.1857,-11.60787,1006.959
21.866697788,42.11987,-8.423342,-7.589703,0.2394819,0.965381,-0.09965895,-6.971076,-40.78558,-9.064625,1006.957
21.899474144,37.83353,-4.700504,-5.390498,0.2460047,1.062157,-0.1984994,-6.228672,-41.51026,-8.618993,1006.957
21.932250023,29.44723,-3.991391,-10.03326,0.1683966,0.8329871,-0.1426134,-6.228672,-41.51026,-8.618993,1006.957
21.965026379,96.22706,-4.40504,-4.229807,0.2818068,1.101844,-0.2775875,-6.596707,-41.12202,-6.945964,1006.959
21.997802258,27.5836,-0.3276449,1.390383,0.2234194,0.9722179,-0.1477673,-5.871784,-40.73046,-4.839234,1006.959
22.033099651,64.60758,-0.9776644,-3.557827,0.2173117,0.8728235,-0.2159564,-5.871784,-40.73046,-4.839234,1006.959
22.065875530,51.87283,-6.000543,-5.634854,0.1794053,0.8669509,-0.3145368,-5.862843,-41.07706,-3.528169,1006.961
22.098651886,59.88641,-3.223186,-9.178017,0.1977484,0.8896518,-0.4339922,-5.129705,-41.03805,-0.5454862,1006.961
22.131428242,49.0774,7.70896,-2.946937,0.1031333,1.085944,-0.3180555,-5.129705,-41.03805,-0.5454862,1006.959
22.166725636,35.41082,-4.050484,4.750278,0.2668048,0.8787529,-0.2632562,-4.77697,-40.29222,0.7479193,1006.959
22.199501991,25.53362,0.1450966,3.650676,0.2352369,0.8516192,-0.4152507,-5.151767,-39.53954,2.415217,1006.959
22.232277870,41.80927,-4.759596,-0.7477328,0.1753646,0.7089084,-0.4144123,-5.151767,-39.53954,2.415217,1006.957
22.265054226,34.47901,1.858784,-6.734457,0.03774582,1.025331,-0.271117,-5.521152,-39.16235,3.28018,1006.957
22.297829628,3.667105,-1.214035,14.40234,0.06781527,1.023505,-0.3597561,-4.796334,-38.77164,5.324751,1006.96
22.333127499,-17.88881,-3.636835,48.91764,0.06690169,1.191073,-0.4249903,-5.159684,-38.76482,5.760333,1006.962
22.365903854,-107.7776,-9.546103,93.57372,0.1435424,1.407664,-0.5376558,-5.159684,-38.76482,5.760333,1006.962
22.398679733,-250.469,23.95945,81.417,0.4396656,1.206951,-0.6911287,-7.353712,-38.41807,4.079134,1006.962
22.431456089,-389.6816,35.24615,12.14205,0.3125153,-0.689665,-0.8294889,-10.67005,-40.3367,-3.533443,1006.962
22.499529838,-58.76427,16.21831,-14.00405,0.2105103,0.4969318,-0.05267346,-11.758,-41.13853,-9.052708,1006.963
22.532305241,-23.35543,3.277009,-37.88985,0.4873216,0.4427439,-0.2636034,-12.13237,-40.80209,-11.17137,1006.963
22.565082073,44.6047,19.29113,-55.23914,0.3242023,0.8105868,-0.3995149,-12.13237,-40.80209,-11.17137,1006.963
22.597858429,13.29583,37.84623,-22.80087,0.3705564,1.385756,-0.1087866,-10.26555,-40.08367,-11.62037,1006.963
22.633155346,-75.97173,34.59613,10.30938,0.3563678,1.214253,-0.1710715,-7.695376,-41.17205,-10.7984,1006.963
22.665931702,-172.2589,48.89656,12.87512,0.3186143,1.075936,0.435261,-7.695376,-41.17205,-10.7984,1006.966
22.698707580,-19.81455,7.531682,39.50993,0.339881,1.476118,0.1756348,-7.349077,-40.47886,-13.35884,1006.967
22.731483936,-144.6152,25.9686,44.21378,0.1637011,0.8496066,0.2920424,-7.004233,-39.79756,-16.78951,1006.967
22.766780853,-34.22657,-23.37379,18.61749,0.08255269,0.7000301,0.451791,-7.004233,-39.79756,-16.78951,1006.967
22.799557686,-31.12053,-27.80574,14.15799,0.4068149,0.6613015,0.02555652,-7.759004,-38.7543,-20.59744,1006.967
22.832334042,17.27155,-3.75502,6.888394,0.5991901,0.845647,0.1095421,-9.97342,-37.31509,-22.35799,1006.967
22.865109444,-8.819171,31.16875,6.705127,0.3820843,1.066701,0.08132349,-9.97342,-37.31509,-22.35799,1006.969
22.897886276,-56.40368,22.54122,8.293442,-0.02948407,0.7743374,0.06589265,-9.965206,-37.66764,-21.48204,1006.969
22.933183193,-33.79172,4.990696,3.711766,0.3089783,0.821958,0.3437265,-9.974873,-37.32698,-23.22821,1006.969
22.965959549,-73.23842,11.84545,3.833944,0.5378869,1.119526,0.2065097,-9.974873,-37.32698,-23.22821,1006.969
22.998735428,-109.1442,15.80466,23.81005,0.4822629,1.031522,0.2250661,-11.5007,-36.97589,-24.47516,1006.969
23.031511784,-99.08066,30.10509,28.39173,0.2122975,0.8713459,0.48829,-9.280823,-35.92872,-27.47887,1006.971
23.066808701,-63.9203,31.93696,12.9973,0.3353332,0.5651599,0.3637869,-9.280823,-35.92872,-27.47887,1006.971
23.099585056,-48.88707,22.83669,16.8459,0.3434465,0.8807362,0.6304478,-9.319612,-34.14729,-30.49115,1006.971
23.132361889,-55.65823,18.16837,23.87114,0.5014836,0.7780182,0.5873865,-8.635659,-31.99214,-32.70202,1006.973
23.165137291,-42.67499,24.19582,24.72639,0.3117076,0.5105,0.4462382,-8.635659,-31.99214,-32.70202,1006.973
23.197913647,27.64573,25.61404,17.64006,0.4100066,0.6606441,0.6277335,-9.736728,-31.64206,-33.94952,1006.973
23.233211041,22.24122,10.24995,6.338593,0.6053166,0.3675184,0.4033975,-9.744943,-31.28951,-34.82547,1006.973
23.265987396,48.08346,18.81838,7.682551,0.2783273,0.8854216,0.5420247,-9.75065,-30.8465,-33.52682,1006.972
23.298763752,58.20915,17.93199,-1.053178,0.4311065,0.5071633,0.3131042,-9.75065,-30.8465,-33.52682,1006.972
23.331539631,102.4391,32.17333,-1.236445,0.3848877,1.01048,0.6080114,-9.363087,-31.98445,-32.26597,1006.972
23.366837025,74.23631,7.236218,0.5962256,0.44815,0.7171776,0.4470472,-8.975197,-33.04976,-30.13585,1006.97
23.399612903,73.18025,12.90912,7.682551,0.4003902,1.196423,0.4339227,-8.975197,-33.04976,-30.13585,1006.968
23.432389259,-21.30545,16.04103,11.89769,0.4833009,0.850246,0.4900858,-9.308595,-34.47692,-27.9369,1006.967
23.465165138,10.06555,17.8729,8.659976,0.292563,0.8000565,0.4357386,-9.301833,-34.84135,-27.93118,1006.967
23.497941494,24.72605,27.91866,1.207116,0.5012502,0.8304309,0.3504782,-9.301833,-34.84135,-27.93118,1006.967
23.533239365,5.717091,27.85956,0.9016707,0.3441164,0.7548108,0.3808092,-8.566191,-35.20159,-27.49127,1006.967
23.566015243,-29.19479,22.12757,20.08362,0.6357548,1.301337,0.6700363,-8.19473,-35.56181,-27.11306,1006.965
23.598791599,-46.96133,26.32315,47.75695,0.2715625,0.8975039,0.6768038,-8.19473,-35.56181,-27.11306,1006.963
23.631567478,-27.76601,-7.655138,56.55376,0.3670425,0.9051248,0.3270972,-7.117369,-34.84659,-27.93399,1006.965
23.666864872,-99.08066,11.37271,17.21244,0.1779671,0.4253106,0.613235,-7.497875,-34.14062,-29.68543,1006.963
23.699640751,38.39262,-9.546103,-10.58306,-0.04022212,0.2137457,0.2179106,-7.497875,-34.14062,-29.68543,1006.963
23.732417107,66.22272,2.272433,-16.81414,0.5375166,1.155179,0.6416079,-7.898562,-32.34049,-31.3919,1006.961
23.765193462,-85.78681,-5.350523,-16.44761,0.148487,0.7838379,0.6580125,-9.332408,-33.41248,-30.0675,1006.961
23.797969341,-86.59438,-22.01466,-14.98147,0.1414938,0.7191236,0.9556082,-9.332408,-33.41248,-30.0675,1006.963
23.833267212,-50.62645,-60.60218,2.123451,0.2566018,0.8548698,0.6571677,-8.235595,-33.79736,-31.36851,1006.963
23.866043091,-25.15693,-87.43025,14.6467,0.3684222,0.8201082,0.776814,-7.203562,-30.8645,-34.40033,1006.963
23.898819447,-159.3999,-104.6262,1.756917,0.3627346,0.9682034,0.7886382,-7.203562,-30.8645,-34.40033,1006.963
23.931594849,-242.5175,-134.7635,12.87512,0.3851735,0.5558288,0.9933039,-9.761772,-30.51773,-36.14322,1006.963
23.966892719,-63.05061,-158.4597,-5.757032,0.2521362,-0.08813862,0.858846,-12.80153,-27.27653,-39.54753,1006.965
23.999669075,111.3224,-200.12,-16.75306,0.547359,0.745163,0.9204296,-12.80153,-27.27653,-39.54753,1006.965
24.032444954,-68.95209,-209.9294,-11.19395,0.6657556,0.9398294,0.6863949,-17.66976,-19.97644,-39.65602,1006.965
24.065221310,-86.47015,-199.8245,-26.40512,0.7404845,0.430539,0.05832687,-23.87347,-22.10138,-36.19484,1006.964
24.097997189,-25.09481,-165.9644,-28.78759,0.8956825,0.4865428,-0.05909654,-23.87347,-22.10138,-36.19484,1006.962
24.133295059,-95.72614,-114.3765,-23.47285,0.774202,0.7614492,0.1179184,-30.09307,-20.23549,-34.1021,1006.96
24.166070461,-120.326,-105.3944,-27.44363,0.9094081,0.5856467,-0.322102,-35.24127,-20.56464,-32.41143,1006.96
24.198847294,-53.29765,-36.07872,-22.80087,0.9094786,0.3412707,-0.375165,-35.24127,-20.56464,-32.41143,1006.96
24.231623650,-33.48112,-30.99675,-25.54987,0.6891906,0.5586283,0.04959097,-38.55144,-18.66197,-31.56658,1006.959
24.266920567,-28.07661,-22.01466,-38.62292,0.7777507,0.4501442,-0.1088236,-39.31195,-16.82616,-30.72407,1006.959
24.299696922,39.57291,-8.60062,-21.27364,0.5331067,0.4534349,0.0982559,-40.40491,-16.82948,-31.15777,1006.959
24.332472801,120.1436,-24.55564,-23.96156,0.7187924,0.3631269,0.05559175,-40.40491,-16.82948,-31.15777,1006.959
24.365249157,185.3083,-29.51943,-45.09836,0.7892321,0.7435378,-0.02457335,-39.65294,-17.89567,-29.02812,1006.959
24.398025513,-21.36757,6.054365,-29.15413,0.7387944,0.9794593,0.2741163,-39.59129,-20.81926,-25.12749,1006.959
24.433322906,56.09704,-0.03218149,-26.64948,0.5795996,0.4918235,0.0297344,-39.59129,-20.81926,-25.12749,1006.957
24.466099262,29.63359,-9.782474,-27.68799,1.093485,0.9243355,0.4654215,-38.45318,-23.38482,-25.95901,1006.957
24.498874664,56.15916,-17.16906,-36.36263,1.050243,0.6437291,0.01683647,-37.68904,-25.19092,-24.62596,1006.957
24.531651497,-40.0038,24.13673,-47.29756,0.836791,0.7682711,0.04314857,-37.68904,-25.19092,-24.62596,1006.955
24.564426899,-33.97808,21.83211,-59.3321,0.6933934,0.6045355,-0.0775677,-36.20216,-26.62329,-22.49152,1006.955
24.599724769,8.574646,12.61365,-65.01337,0.6360261,0.6767135,0.1453301,-32.87434,-26.28978,-24.17985,1006.955
24.632501125,64.98031,3.690657,-65.9908,0.4265718,0.7646758,0.2294512,-32.87434,-26.28978,-24.17985,1006.955
24.665277004,10.81099,-15.10081,-73.07713,0.4625375,0.9533952,0.2199356,-30.30479,-27.38325,-23.73083,1006.955
24.698053360,-17.88881,-21.95557,-80.95761,0.4007312,0.5627891,0.01416675,-28.06489,-30.29294,-22.87975,1006.955
24.733350277,68.89392,-22.84196,-86.27235,0.3942796,0.8287675,0.02966611,-28.06489,-30.29294,-22.87975,1006.955
24.766126633,7.953439,-20.83281,-67.39584,0.3477052,1.022457,0.06366134,-25.4732,-32.53453,-21.97748,1006.955
24.798903465,64.79395,-31.88314,-44.91509,0.3812919,0.964924,-0.05570933,-23.25212,-34.33902,-20.27336,1006.955
24.831678867,32.73963,-31.82404,-23.47285,0.3172037,0.9508545,-0.1108927,-23.25212,-34.33902,-20.27336,1006.955
24.864455700,36.15627,-15.75083,-13.57643,0.4344645,0.8575753,-0.07829765,-21.70591,-35.78257,-18.94706,1006.959
24.899752617,23.17303,-18.82365,-16.56979,0.2908148,1.040445,-0.01276735,-21.31053,-37.20638,-16.3761,1006.955
24.932528973,20.56396,-17.10997,-12.47682,0.4435061,0.9270025,-0.1207836,-21.31053,-37.20638,-16.3761,1006.955
24.965304852,68.95604,-21.12827,-6.001389,0.3550942,0.7125098,-0.2526251,-20.92472,-38.28868,-15.48916,1006.957
24.998081207,13.29583,-15.39628,-17.97483,0.300695,1.378543,-0.01137492,-20.91588,-38.63613,-14.24025,1006.957
25.033379078,42.18199,-4.464133,-8.628216,0.2726738,0.6430749,-0.3331937,-20.91588,-38.63613,-14.24025,1006.956
25.066154480,-48.51435,14.20916,-21.33473,0.2749321,1.152617,-0.1818567,-20.16526,-39.71335,-12.91867,1006.954
25.098930836,-130.5759,60.41963,-40.63886,0.4467768,1.166459,-0.2188687,-19.42358,-40.44397,-12.90815,1006.954
25.131706715,-345.638,90.37963,-43.14351,0.4090604,1.084758,-0.2961553,-19.42358,-40.44397,-12.90815,1006.954
25.164483070,-619.9633,128.9081,-58.17141,0.6087322,1.051168,-0.2537371,-18.36015,-39.42291,-18.02377,1006.954
25.199780464,-900.9977,217.6653,-57.43834,0.02443576,0.7594682,0.0340173,-15.91766,-35.25957,-33.01393,1006.952
25.232556820,-676.6796,181.8551,-1.297534,0.2986009,0.2265698,0.04379743,-15.91766,-35.25957,-33.01393,1006.949
25.265333176,-625.8027,178.3686,96.13945,-0.4367021,1.040867,0.7827231,-8.559532,-17.8385,-46.10554,1006.949
25.298109055,-401.2982,61.18784,159.3055,0.05748394,-0.241889,0.2044061,-2.190225,12.21986,-41.48922,1006.949
25.333406448,-447.3297,39.26445,195.7756,-0.7350147,-0.739736,0.7240186,4.442676,32.18507,-28.56973,1006.947
25.366182327,-192.2618,-34.18775,155.3958,-0.5804908,-1.428153,0.5754676,4.442676,32.18507,-28.56973,1006.953
25.398958683,-55.90672,-34.83777,73.23107,-0.4232118,-1.846269,0.4226517,11.30223,39.66303,-18.06513,1006.951
25.431735039,-42.61287,-12.38255,28.14737,-0.5847258,-1.287686,0.5391638,15.6363,41.88588,-14.68641,1006.951
25.464510918,21.62001,-22.19194,-13.6986,-0.4396189,-1.497817,0.3335948,15.6363,41.88588,-14.68641,1006.951
25.499808788,229.7867,-13.50531,-52.06251,-0.4956346,-1.379286,0.5670095,16.38474,40.79082,-14.67016,1006.95
25.532584667,436.3383,-85.12564,-73.50475,-0.6568497,-1.328699,0.8214746,15.64807,40.72295,-19.76625,1006.95
25.565361023,673.267,-185.7014,-105.6987,-0.4301598,-1.422381,0.174128,15.64807,40.72295,-19.76625,1006.948
25.598137379,894.8518,-223.1071,-76.68137,-0.5841841,-0.2554442,-0.3432853,13.15895,36.10826,-33.36818,1006.948
25.633434296,898.8896,-301.7594,17.70115,-0.3337084,1.083946,0.05988989,5.750165,18.76253,-45.89269,1006.948
25.666210651,537.4089,-316.0008,48.42892,0.05101832,0.9835295,-0.1348601,5.750165,18.76253,-45.89269,1006.95
25.698986530,461.8078,-234.7483,68.46613,0.2537449,0.8551429,-1.331813,-3.115775,-15.89524,-36.32014,1006.948
25.731762886,344.8344,-113.8447,125.0956,0.8069708,1.271459,-0.9611783,-14.09482,-33.98466,-19.42069,1006.943
25.764539242,259.9774,-48.25181,119.9031,0.3220465,1.076444,-0.5467259,-14.09482,-33.98466,-19.42069,1006.943
25.799836636,63.4273,-22.42831,90.15273,0.2748335,0.9470119,-0.4024917,-20.13959,-40.34288,-5.634625,1006.943
25.832612991,-11.92521,21.9503,46.29081,0.528229,0.671207,-0.9374698,-25.31309,-38.78022,1.124422,1006.948
25.865388870,-49.63252,110.4711,41.22042,0.3029833,0.6732672,-0.7906048,-25.31309,-38.78022,1.124422,1006.948
25.898165226,-68.02027,130.5036,29.36915,0.2761873,0.5706365,-0.4587283,-27.1679,-36.95876,0.7251682,1006.947
25.933462143,-73.23842,123.2943,38.22706,0.4004319,0.8470204,-0.224535,-28.64708,-36.30282,-4.878705,1006.947
25.966238499,-146.8515,101.6663,37.06637,0.6987054,0.8122197,-0.1245854,-28.64708,-36.30282,-4.878705,1006.947
25.999014854,-196.2375,90.49781,22.83263,0.7857665,0.5641724,-0.03969837,-29.39654,-35.63589,-9.551137,1006.947
26.031790733,-127.0971,80.21568,11.10354,0.6542597,0.3623272,0.1582761,-30.17876,-33.55791,-17.66522,1006.948
26.064567089,-69.44905,64.43794,-12.41573,0.4269281,0.4353684,0.3594331,-30.17876,-33.55791,-17.66522,1006.948
26.099864483,-53.60825,44.76007,-42.77698,0.4449224,0.4137341,0.3083986,-30.23543,-31.08327,-23.29963,1006.948
26.132640839,-72.74146,53.03305,-91.64819,0.7337033,0.4494363,0.1926144,-29.54854,-29.25389,-27.12186,1006.952
26.165417194,-78.82928,93.62972,-130.9895,0.4184443,0.7373036,0.3652558,-29.54854,-29.25389,-27.12186,1006.952
26.198193073,-143.5591,67.03802,-161.6562,0.09857219,0.8950603,0.3932143,-27.73917,-28.92863,-29.67845,1006.952
26.233490467,-171.3893,63.9652,-164.5885,0.2923316,0.8641195,0.2633151,-22.20494,-30.0997,-34.39245,1006.952
26.266266346,-136.5395,82.93395,-153.959,0.1400121,0.8207256,0.3696414,-22.20494,-30.0997,-34.39245,1006.952
26.299042702,-101.9382,66.91983,-146.8727,0.008336776,0.900113,0.5979995,-17.14414,-28.72975,-39.95409,1006.952
26.331819058,-93.30343,49.3693,-141.3136,0.06624974,0.8511126,0.625855,-11.37547,-26.26822,-45.53385,1006.952
26.364594936,-96.53371,50.43297,-138.0759,0.01955071,0.8605108,0.4926143,-11.37547,-26.26822,-45.53385,1006.952
26.399892807,-109.4548,62.96062,-132.9444,-0.002733498,1.079342,0.6810312,-6.623478,-24.52206,-50.29275,1006.952
26.432668686,-172.3832,75.66555,-122.1927,-0.1268643,1.04265,0.8768138,-1.589724,-21.69435,-55.8773,1006.954
26.465445042,-140.7637,63.55154,-97.63491,-0.07944479,0.7177036,0.9469885,5.648206,-16.61872,-61.06499,1006.955
26.498221397,-63.36121,54.2149,-67.51802,-0.1436138,0.5200326,0.8237287,5.648206,-16.61872,-61.06499,1006.955
26.533518314,83.18169,-37.08329,10.55374,-0.5943636,0.5772212,1.885633,12.45933,-7.857939,-63.38802,1006.955
26.566294670,128.9026,-81.75735,-13.57643,0.1513108,0.6481152,0.8180225,17.81699,-2.421455,-64.7242,1006.957
26.599070549,65.85,-65.32959,-4.535252,0.05283735,0.9937774,0.7065405,17.81699,-2.421455,-64.7242,1006.959
26.631846905,-28.20085,-36.13781,-7.650792,0.179787,0.4491707,0.4702303,15.71584,-6.771632,-63.34728,1006.959
26.664623260,21.12304,-35.78326,-5.329409,-0.07931547,0.4045343,0.6663449,12.50705,-10.47568,-63.78207,1006.965
26.699920654,69.57725,-48.84274,-12.0492,-0.1087138,0.5522054,0.8558486,12.50705,-10.47568,-63.78207,1006.965
26.732697010,61.00459,-65.09322,-13.02662,-0.1966009,0.9818245,0.9685296,11.71687,-10.48483,-64.58911,1006.967
26.765472889,-23.72816,-60.24763,-10.33871,-0.1131361,0.7493448,0.7048957,9.947667,-13.41974,-66.28137,1006.962
26.798249245,-9.626741,-50.7337,-10.76633,-0.1281092,0.7034838,0.6414607,9.947667,-13.41974,-66.28137,1006.968
26.833546162,-29.56751,-42.93347,-7.650792,-0.1304666,0.713663,0.8474737,7.418683,-14.51288,-66.69601,1006.97
26.866322517,-39.38259,-35.60598,-9.300195,-0.09768641,0.5804019,0.6950052,4.86203,-14.15338,-67.50651,1006.97
26.899098873,-37.20836,-30.16945,-8.139503,-0.07118632,0.6930779,0.8276283,4.86203,-14.15338,-67.50651,1006.97
26.931874752,-32.92203,-29.93308,-6.245744,-0.06072661,0.565433,0.7392253,3.013144,-12.70315,-68.3973,1006.97
26.964651108,-33.54324,-26.03296,-4.65743,-0.01812202,0.6431366,0.8660867,1.520849,-10.89531,-69.72941,1006.972
26.999948502,-36.7114,-22.13284,-4.596341,-0.01006307,0.519433,0.8571081,1.520849,-10.89531,-69.72941,1006.972
27.032724857,-19.81455,-23.13742,-6.734457,0.01048644,0.4533407,0.8533081,-0.7459284,-9.807656,-70.55177,1006.972
27.065501213,1.927723,-23.90562,-8.444948,0.04952177,0.5657268,0.789025,-1.150974,-7.553478,-70.15152,1006.97
27.098277092,-37.95381,-8.482435,-5.146142,0.04052191,0.6949488,0.8923444,-1.150974,-7.553478,-70.15152,1006.974
27.133574486,-40.99773,0.44056,-1.236445,0.0158508,0.4497068,0.8845894,-2.615498,-7.197438,-71.0256,1006.974
27.166350365,-13.35399,1.622414,-0.1979316,-0.008708795,0.3658153,0.8968081,-3.72874,-6.107453,-71.47649,1006.974
27.199126720,13.73067,-0.09127417,-1.786246,-0.03421619,0.4661312,0.8553202,-3.72874,-6.107453,-71.47649,1006.972
27.231903076,8.82313,0.617838,-1.419712,-0.01554464,0.5717462,0.8223843,-3.38422,-5.009071,-71.05904,1006.972
27.264678955,-2.35861,1.09058,0.5351366,-0.01265042,0.5856149,0.8522008,-3.390358,-4.63954,-70.69181,1006.972
27.299976826,-1.364678,0.617838,1.207116,-0.02449734,0.4638038,0.8591516,-3.020869,-5.015888,-71.49461,1006.972
27.332752705,9.941303,-1.154942,-0.4422877,-0.005122406,0.4834235,0.8557066,-3.020869,-5.015888,-71.49461,1006.972
27.365529060,8.761008,-1.450406,-0.3811986,-0.0009331767,0.5579147,0.8469199,-3.756512,-4.655649,-71.93452,1006.972
27.398305416,-2.420731,-0.2685522,0.04642449,-0.005341351,0.5744573,0.8497936,-3.38422,-5.009071,-71.05904,1006.972
27.431081295,-10.18583,1.031487,0.2907805,-0.002326084,0.5326341,0.8551444,-3.38422,-5.009071,-71.05904,1006.972
27.466378689,-4.594958,0.7360234,0.5962256,-0.01287742,0.4800433,0.8692082,-3.377459,-5.373508,-71.05331,1006.971
27.499154568,0.4368245,1.32695,0.1075135,-0.005222529,0.5263087,0.8594931,-3.020869,-5.015888,-71.49461,1006.969
27.531930923,-5.961616,2.922452,-0.01466453,-0.004750113,0.5351997,0.8768076,-3.020869,-5.015888,-71.49461,1006.971
27.564707279,-9.750982,4.045213,0.8405817,-0.012496,0.5238797,0.8691412,-3.382766,-4.997183,-70.18881,1006.971
27.600004673,-11.42824,3.74975,2.245629,-0.01197355,0.5067809,0.8609827,-3.026904,-4.645507,-71.06523,1006.971
27.632781029,-12.29793,2.331526,2.612163,-0.01294204,0.5027727,0.8460688,-3.026904,-4.645507,-71.06523,1006.972
27.665556908,-9.750982,1.622414,3.100875,-0.02316399,0.5169454,0.8653261,-3.404503,-3.915761,-71.07623,1006.972
27.698333263,-11.42824,0.617838,3.039786,-0.02312556,0.5018877,0.871125,-1.961717,-3.190377,-71.08956,1006.972
27.731109619,-11.98733,-0.3867376,2.001273,-0.0220959,0.4785654,0.8778968,-1.961717,-3.190377,-71.08956,1006.972
27.766406536,-6.955548,-0.4458303,1.268205,-0.01478077,0.4669979,0.8865614,-3.067471,-2.458885,-71.09962,1006.972
27.799182892,-7.825239,0.02691119,1.57365,-0.002665937,0.4788413,0.8942166,-3.067471,-2.458885,-71.09962,1006.972
27.831958771,-6.210098,1.09058,2.917608,0.01045755,0.4771365,0.9134426,-3.067471,-2.458885,-71.09962,1006.972
27.864735126,7.704956,4.340677,5.788792,0.04982192,0.4678849,0.9364684,-3.445798,-1.735082,-71.54572,1006.974
27.900032997,47.15165,5.758901,16.72373,0.06758303,0.5476694,0.9021294,-3.080994,-1.730011,-71.11108,1006.974
27.932808876,34.41689,6.881662,31.07965,0.1636889,0.7802452,0.9636467,-3.080994,-1.730011,-71.11108,1006.974
27.965585232,-10.12371,11.25452,45.61883,0.1128228,0.7357079,0.9936787,-3.051873,-3.170776,-69.84497,1006.972
27.998361111,5.592849,-6.532377,70.54315,0.1219012,0.5966052,1.010233,-3.368621,-5.720963,-69.8044,1006.972
28.031137466,44.97742,-25.50113,93.69589,0.1858221,0.664629,0.9801347,-3.368621,-5.720963,-69.8044,1006.971
28.066434860,73.24237,-33.30136,111.9615,0.2413284,0.5785572,0.8626805,-4.443697,-6.4175,-67.61597,1006.971
28.099210739,162.3236,-43.34712,132.9761,0.2617146,0.5599139,0.7485775,-7.653537,-9.710409,-64.63775,1006.971
28.131987095,218.108,-46.83359,146.5379,0.3125906,0.8015904,0.7023631,-7.653537,-9.710409,-64.63775,1006.969
28.164762974,207.0505,-45.59264,153.3799,0.3439144,0.8839988,0.6087805,-12.37099,-13.27281,-59.41508,1006.971
28.200060844,160.3978,-43.22894,151.0585,0.4024316,0.9863612,0.6205214,-16.94135,-21.23538,-51.63643,1006.967
28.232837200,90.88467,-51.14735,147.271,0.3516893,0.8755665,0.5774862,-16.94135,-21.23538,-51.63643,1006.966
28.265613079,86.10137,-58.35666,148.1262,0.3854054,0.7452974,0.363878,-21.94588,-25.503,-44.72362,1006.964
28.298389435,80.26202,-59.59761,145.255,0.4315194,0.7388789,0.2959063,-26.37436,-25.06341,-39.99956,1006.964
28.331165314,67.83787,-67.57511,143.6667,0.4685174,0.6876305,0.2357256,-26.37436,-25.06341,-39.99956,1006.968
28.366462708,56.53189,-65.32959,142.6893,0.5176694,0.6321704,0.185631,-30.39099,-23.89087,-34.91456,1006.966
28.399239063,5.592849,-60.18853,128.9442,0.5026732,0.6122174,0.2059138,-33.71003,-21.29121,-31.96682,1006.966
28.432014942,-50.87494,-60.484,110.1899,0.5419068,0.4357557,0.1367706,-37.45568,-18.63572,-29.4546,1006.966
28.464791298,-44.7871,-52.44739,82.33334,0.7282755,0.2293249,-0.07660355,-37.45568,-18.63572,-29.4546,1006.966
28.500088692,-12.73278,-14.98263,55.14872,0.8334745,0.304843,-0.0591565,-40.4458,-14.22578,-27.34404,1006.966
28.532865047,-13.04338,50.31478,32.30143,0.9291794,0.2755776,-0.1103637,-41.6043,-10.56775,-26.59186,1006.966
28.565641403,-4.222234,112.3621,16.54046,1.088603,0.1571141,-0.3883091,-41.6043,-10.56775,-26.59186,1006.966
28.598417282,42.36835,212.8197,12.14205,0.9923398,0.3150305,-0.8865281,-41.28962,-8.034548,-27.87562,1006.966
28.631193638,218.6671,320.8411,37.61617,0.9487327,0.4358304,-1.112365,-38.76362,-7.315576,-32.61539,1006.966
28.666490555,-323.9579,-266.8356,-244.6151,0.0879458,-1.218686,-5.12672,-38.76362,-7.315576,-32.61539,1006.965
28.699266910,301.7847,580.5535,-0.01466453,2.26229,0.1150508,1.607584,-31.01665,-10.00953,-37.24618,1006.966
28.732043266,-125.0471,-45.9472,-0.3201096,-0.2338383,0.8868918,0.8089489,-31.75905,-9.284854,-37.69181,1006.965
28.764819145,-107.2806,63.9652,13.05838,1.212281,-0.4748902,0.258819,-31.75905,-9.284854,-37.69181,1006.965
28.800117016,42.43047,-5.94145,-1.236445,0.9144083,0.5157573,0.6878884,-26.60933,-12.22445,-38.52278,1006.963
28.832892895,5.095883,-7.596045,3.650676,0.6770841,0.428235,0.5037403,-27.76917,-8.577467,-38.57867,1006.963
28.865669250,-36.40079,-3.459557,3.161964,0.7199069,0.389129,0.5017723,-27.76917,-8.577467,-38.57867,1006.967
28.898445606,-48.57647,8.240794,-0.2590206,0.7719212,0.1662175,0.5313479,-27.03353,-8.937705,-38.13877,1006.966
28.931221485,-35.53111,9.363555,-6.612278,0.7772996,0.1582571,0.5708188,-27.41258,-8.219847,-39.01998,1006.966
28.966518879,4.164071,7.118033,-14.30949,0.7059001,0.1618774,0.5469146,-27.41258,-8.219847,-39.01998,1006.966
28.999295712,19.44578,6.586199,-22.43433,0.6768826,0.3230652,0.5785104,-27.44752,-6.336922,-39.04958,1006.966
29.032071114,1.492878,9.363555,-26.89383,0.6739869,0.3132133,0.5660167,-26.34176,-7.068414,-39.03954,1006.964
29.064847469,-21.05696,13.0273,-40.33342,0.6123503,0.31217,0.6301855,-26.34176,-7.068414,-39.03954,1006.964
29.100144863,3.791347,7.236218,-49.00806,0.5122567,0.1385642,0.6489764,-26.69182,-7.862249,-39.3996,1006.964
29.132921219,35.41082,-2.750445,-57.86596,0.512638,0.4162613,0.8006673,-25.95086,-8.598812,-39.82419,1006.968
29.165697575,25.4715,-11.67344,-69.83941,0.5282375,0.3744112,0.7169364,-25.95086,-8.598812,-39.82419,1006.968
29.198473454,63.86214,-23.25561,-69.96159,0.6332386,0.501383,0.5696806,-25.5665,-9.692996,-39.80747,1006.964
29.231249809,43.1138,-21.36464,-71.61098,0.6387385,0.6311865,0.5290375,-25.16051,-11.86945,-38.9655,1006.968
29.266546726,18.32761,-21.24645,-69.53396,0.5865929,0.7121401,0.5367411,-25.16051,-11.86945,-38.9655,1006.966
29.299323082,-6.644944,-15.04172,-69.96159,0.5863507,0.5972361,0.4724123,-25.83457,-14.7832,-38.91872,1006.965
29.332099438,-18.44789,-17.22815,-74.66544,0.5153113,0.6701238,0.5336039,-25.79255,-16.95794,-38.01411,1006.965
29.364875317,-37.70533,-23.55107,-70.63356,0.6025434,0.7378986,0.5097081,-25.79255,-16.95794,-38.01411,1006.963
29.400173187,-32.98415,-21.83738,-70.69466,0.5809441,0.6300132,0.4998134,-25.40361,-18.43439,-39.297,1006.961
29.432949066,-20.8706,-21.30555,-76.5592,0.5280723,0.6152821,0.5461717,-25.39009,-19.16326,-39.28554,1006.961
29.465725422,-43.42044,-17.16906,-81.26305,0.4674496,0.8007855,0.6105384,-25.0074,-20.34111,-40.94615,1006.963
29.498501778,-103.9882,-8.127879,-87.06651,0.4786077,0.7936486,0.5513152,-25.0074,-20.34111,-40.94615,1006.961
29.531277656,-129.085,2.154248,-98.49016,0.4498887,0.6190634,0.5535718,-24.98857,-21.44631,-41.79919,1006.961
29.566575050,-86.40802,7.236218,-103.0107,0.4317082,0.5019193,0.5388693,-23.57178,-19.67432,-45.24845,1006.961
29.599351883,-43.79317,16.04103,-110.708,0.3803419,0.6415013,0.4319185,-23.57178,-19.67432,-45.24845,1006.961
29.632127285,-98.83218,38.25988,-115.6562,0.2992179,0.8827406,0.5516064,-22.09471,-17.83579,-48.26363,1006.961
29.664903641,-147.9697,55.27857,-117.0612,0.2802958,0.6777513,0.582286,-19.19383,-17.51909,-51.25675,1006.959
29.700201034,-129.582,58.88322,-112.0519,0.1901734,0.6194084,0.7053349,-19.19383,-17.51909,-51.25675,1006.959
29.732977390,-122.0032,57.05135,-107.5313,0.1251814,0.5902213,0.7185298,-15.98432,-14.29881,-55.10423,1006.959
29.765753746,-106.1003,64.26067,-93.35868,0.09281904,0.5350382,0.8062976,-11.71576,-9.253862,-58.60883,1006.958
29.798529625,-72.12025,61.77877,-75.52068,0.02111428,0.4884407,0.9153256,-11.71576,-9.253862,-58.60883,1006.96
29.831305981,-44.41438,49.42839,-61.22586,0.02524464,0.3978612,0.9818803,-6.658036,-4.138182,-61.24517,1006.96
29.866602898,12.48826,36.428,-49.43568,0.009613768,0.4291137,0.9423986,-3.087782,-0.5263138,-63.04762,1006.96
29.899379253,44.16985,27.62319,-30.07046,0.01679343,0.451288,0.8306722,-3.087782,-0.5263138,-63.04762,1006.96
29.932156086,51.31374,14.44553,-12.11029,-0.08628966,0.778544,1.159675,0.1462708,1.635472,-64.3294,1006.962
29.964931488,42.24411,-1.864055,-14.85929,0.1450797,0.4336632,0.9435146,3.131639,0.8875833,-65.192,1006.962
30.000229359,34.16841,-0.09127417,-10.09435,-0.01451137,0.5651521,0.9234777,3.131639,0.8875833,-65.192,1006.962
30.033005238,15.28369,-4.109577,-3.863272,-0.04895514,0.5547507,0.9399413,4.61354,-0.5855422,-66.04118,1006.962
30.065781593,8.574646,-8.955176,-5.390498,-0.07596033,0.4756121,0.9381992,4.65338,-2.778108,-66.44192,1006.962
30.098557949,17.14731,-14.27352,-6.429011,-0.0822281,0.4499896,0.9031132,4.65338,-2.778108,-66.44192,1006.962
30.131333828,20.81244,-15.63265,-6.917724,-0.07713291,0.5537776,0.9039075,5.407231,-4.24864,-67.228,1006.962
30.166631699,4.03983,-10.43249,-5.818121,-0.03631141,0.537472,0.8913199,4.320929,-4.617252,-67.71813,1006.962
30.199408054,-0.8677118,-4.995967,-3.618917,-0.05621022,0.5369494,0.910141,4.320929,-4.617252,-67.71813,1006.96
30.232183456,-4.657079,0.1450966,-1.114267,-0.06043697,0.4724781,0.8890682,4.326341,-4.992728,-68.52046,1006.96
30.264960289,-11.17976,6.349828,0.4129586,-0.04549018,0.524493,0.926982,3.234109,-4.990109,-68.51906,1006.962
30.297735691,-23.29331,11.37271,-0.07575354,-0.03427888,0.4995001,0.8913723,3.234109,-4.990109,-68.51906,1006.964
30.333033562,-44.53862,15.50919,2.917608,-0.03476944,0.5034592,0.9009947,3.598913,-4.985038,-68.08441,1006.964
30.365809918,-24.84633,16.69105,5.727703,-0.06168048,0.3813417,0.8819882,3.942707,-3.8926,-68.10207,1006.965
30.398585796,-29.56751,14.80008,4.6281,-0.08945476,0.4275826,0.9113474,4.637781,-2.066216,-67.69655,1006.965
30.431362152,-13.04338,15.62738,5.422258,-0.1006738,0.4468968,0.9007549,4.637781,-2.066216,-67.69655,1006.965
30.466659069,-0.805591,13.0273,4.200478,-0.07481185,0.3864591,0.8632385,4.961291,0.1195321,-67.7314,1006.965
30.499435902,15.03521,15.21373,5.177902,-0.09253067,0.4831043,0.8448431,5.318504,0.4822474,-67.79977,1006.967
30.532212257,-22.85847,20.23661,7.010572,-0.06613436,0.6305247,0.9312034,5.318504,0.4822474,-67.79977,1006.967
30.564987659,-50.50221,25.55495,9.209777,-0.1084794,0.4583834,0.8810202,6.040625,0.850883,-67.37132,1006.967
30.597764492,-26.95844,32.82335,11.10354,-0.1635074,0.2943171,0.7466168,6.761395,1.20848,-67.75094,1006.969
30.633061886,6.524661,38.20078,9.942845,-0.2581688,0.3095692,0.8825623,6.761395,1.20848,-67.75094,1006.969
30.665837765,-16.83275,35.00978,3.345232,-0.3723014,0.3370338,0.9771386,7.832616,2.29323,-68.20465,1006.969
30.698614120,21.86849,36.25072,-1.725157,-0.3618875,0.2202892,0.8453967,10.01708,2.287994,-68.20747,1006.969
30.731389999,91.63012,37.01893,7.438195,-0.3594115,0.2129824,0.9123111,10.01708,2.287994,-68.20747,1006.97
30.766687870,134.5556,29.2187,-7.284258,-0.3487949,0.4352918,0.8609265,11.90022,2.300469,-66.96673,1006.97
30.799464226,105.3588,30.45964,-19.19662,-0.2017614,0.673461,0.8250794,14.53063,-2.07294,-66.46614,1006.969
30.832240105,86.4741,45.23281,-17.18068,-0.1894455,0.5833802,0.7433544,14.53063,-2.07294,-66.46614,1006.969
30.865016460,77.34235,51.7921,-20.29622,-0.233045,0.7457267,0.7489895,16.44785,-7.16159,-65.08294,1006.967
30.897792816,22.30334,66.80165,-16.69197,-0.309883,0.7902127,0.7250367,19.06793,-10.84988,-63.34968,1006.971
30.933089733,-7.017669,73.00638,-17.42503,-0.2995777,0.5318649,0.6815977,19.06793,-10.84988,-63.34968,1006.971
30.965866089,31.55933,77.32014,-18.76899,-0.3454938,0.6418818,0.6589168,22.38811,-13.02058,-61.57908,1006.967
30.998641968,16.09126,85.59312,-19.92968,-0.4462004,0.7077137,0.5815572,26.07957,-12.27171,-59.48192,1006.971
31.031418324,-16.33578,96.34799,-23.1674,-0.4872442,0.6104378,0.5798756,26.07957,-12.27171,-59.48192,1006.969
31.066716194,-11.17976,104.8573,-23.65611,-0.5096282,0.6352638,0.6049222,29.74488,-13.33893,-56.92092,1006.969
31.099492073,-11.92521,108.7575,-22.0678,-0.5910464,0.5739024,0.633608,34.8327,-12.58746,-54.39045,1006.969
31.132268429,15.28369,112.6576,-15.83672,-0.5337871,0.5662113,0.5092925,34.8327,-12.58746,-54.39045,1006.969
31.165044785,13.60643,119.5714,-13.33207,-0.6741678,0.5915106,0.5341368,39.61254,-11.45299,-50.55997,1006.969
31.197820663,27.5836,112.8348,-15.34801,-0.7714233,0.4036124,0.3151498,43.98717,-11.41676,-47.14688,1006.969
31.233118057,45.16378,100.7799,-28.78759,-0.7599884,0.7134544,0.3834903,43.98717,-11.41676,-47.14688,1006.968
31.265893936,2.300448,92.92062,-35.20194,-0.7079359,0.6704454,0.3694722,49.15283,-11.36459,-42.42947,1006.969
31.298670292,7.580714,83.46578,-30.31482,-0.7824479,0.5512263,0.3342079,53.16474,-11.31645,-38.20784,1006.969
31.331446648,4.8474,70.87904,-35.81283,-0.84352,0.4660448,0.134716,53.16474,-11.31645,-38.20784,1006.969
31.366744042,9.817061,57.76046,-36.05718,-0.8413604,0.5932042,0.2081676,56.77887,-9.444402,-33.95222,1006.971
31.399520397,14.47612,50.43297,-33.30818,-0.8746894,0.5168648,0.1963276,58.30687,-9.77766,-31.39994,1006.971
31.432296276,-0.246504,46.35557,-28.54324,-0.861618,0.5097958,0.07452276,60.11124,-8.653898,-28.87098,1006.971
31.465072632,4.350433,45.23281,-22.31215,-0.8503127,0.4665755,0.1491721,60.11124,-8.653898,-28.87098,1006.971
31.497848987,-10.49643,47.89198,-18.46355,-0.9089118,0.3927334,0.1065812,61.55038,-7.468524,-26.34249,1006.971
31.533145904,14.66248,38.90989,-19.8075,-0.8879267,0.5390111,0.03506947,63.36089,-6.714294,-24.18074,1006.971
31.565922260,-1.178316,34.8325,-22.92305,-0.877535,0.4532389,0.0149569,63.36089,-6.714294,-24.18074,1006.971
31.598699093,2.300448,28.80505,-24.02265,-0.9168815,0.4592354,0.01407846,63.34413,-5.592113,-22.08453,1006.971
31.631474495,9.630699,21.71393,-27.32146,-0.9347622,0.4154622,-0.02576618,64.05273,-4.494603,-21.66755,1006.971
31.666772365,6.089815,17.28197,-28.90977,-0.918343,0.4748099,0.08433726,64.05273,-4.494603,-21.66755,1006.971
31.699548244,4.474675,18.93657,-30.07046,-0.9333443,0.4477036,0.05649472,63.67721,-3.747875,-20.43536,1006.971
31.732324600,8.574646,19.11385,-30.92571,-0.9282603,0.3391756,-0.00785624,64.7581,-3.003787,-19.14289,1006.973
31.765100956,8.82313,16.21831,-27.81017,-0.9409379,0.3523856,-0.05405681,64.7581,-3.003787,-19.14289,1006.971
31.797876835,-2.296489,29.9869,-27.13819,-0.936864,0.2922428,0.04711014,65.08982,-1.170587,-18.30179,1006.971
31.833174229,7.394351,29.1596,-28.78759,-0.9347063,0.3931025,-0.01947491,65.06413,0.2981997,-17.51665,1006.971
31.865951061,-6.769186,33.237,-28.23779,-0.9283028,0.3390131,-0.1012401,65.06413,0.2981997,-17.51665,1006.969
31.898726463,-6.644944,34.35976,-28.66541,-0.9540681,0.3681322,-0.0150591,64.68943,1.051722,-15.78719,1006.969
31.931503296,4.971642,32.88244,-24.14482,-0.9428719,0.3535108,-0.02998583,65.01501,3.254454,-14.57886,1006.969
31.966800213,-3.849509,36.90074,-28.42106,-0.9375165,0.3532726,-0.0006351061,65.01501,3.254454,-14.57886,1006.968
31.999576569,10.18979,37.55076,-25.24443,-0.9205504,0.3327548,-0.1700838,65.36808,4.072915,-12.41619,1006.968
32.032352924,-12.04945,46.59194,-37.15679,-0.9866386,0.1541222,-0.144627,65.70792,5.552717,-10.76129,1006.968
32.065128803,10.93524,45.64646,-34.22451,-0.9452221,0.2723609,-0.2806474,65.70792,5.552717,-10.76129,1006.968
32.097905159,-5.961616,57.22863,-42.96024,-0.9627964,0.3399554,-0.1343736,66.06138,6.304493,-9.032775,1006.972
32.133203030,9.133734,57.70137,-51.81815,-0.9496112,0.07504449,-0.2846719,66.03255,8.167437,-6.077803,1006.972
32.165978432,23.35939,62.13332,-62.93635,-0.9594772,0.1599322,-0.1822464,66.03255,8.167437,-6.077803,1006.972
32.198755264,55.10311,72.17908,-68.98416,-1.019105,0.1372099,-0.08627971,65.64497,9.654926,-3.986852,1006.972
32.231530666,121.0754,74.36551,-72.6495,-1.114639,-0.1647374,-0.3190585,64.50362,12.6138,-1.04766,1006.97
32.266828537,123.6844,89.61142,-62.26437,-1.144384,0.1841263,0.1575158,64.50362,12.6138,-1.04766,1006.972
32.299604893,64.60758,76.78831,-28.29888,-1.553839,0.132879,0.7044283,64.09575,15.1946,1.026099,1006.972
32.332380772,76.9075,-45.82901,32.4236,-1.650041,-0.0163892,-0.1943022,60.39517,18.56183,2.283608,1006.972
32.365157127,39.63504,-93.28043,36.76093,-0.8924538,-0.4439051,-1.160104,60.39517,18.56183,2.283608,1006.972
32.397933483,51.99707,-55.34293,52.70516,-1.249582,0.1914375,-0.4858264,54.14227,18.55304,0.5512276,1006.972
32.466007233,124.1814,-104.4489,45.92427,-0.9724982,-0.3368122,-0.4414021,46.16462,16.31598,-4.501079,1006.974
32.498783588,138.3449,-93.81226,46.47408,-0.9299856,-0.05093872,-0.495365,46.16462,16.31598,-4.501079,1006.972
32.531559467,85.23168,-69.64336,42.80873,-0.904987,-0.1152486,-0.3181862,43.93518,15.12061,-7.898769,1006.972
32.566856861,70.81966,-66.80691,31.81271,-0.8974316,-0.1907385,-0.1168812,43.24116,12.88309,-11.7173,1006.97
32.599632740,126.6041,-71.00249,32.4236,-0.9700853,-0.07436717,-0.1741663,43.24116,12.88309,-11.7173,1006.97
32.632409096,109.8315,-71.12067,30.2244,-0.9993635,0.189322,-0.1802706,42.53579,11.39227,-14.24195,1006.97
32.665185451,52.24556,-74.66623,35.7835,-0.9245244,0.1717168,-0.1404685,41.48518,8.797131,-17.61916,1006.97
32.697961330,44.66682,-70.47065,42.68656,-0.8694177,0.0693082,-0.1553671,41.48518,8.797131,-17.61916,1006.97
32.733259201,55.72432,-62.55224,51.84991,-0.8500563,0.1139756,-0.05872665,40.79261,6.571494,-20.56747,1006.973
32.766035557,66.03636,-61.78403,59.6693,-0.81357,0.0936353,-0.01594134,40.09473,4.722185,-22.65128,1006.971
32.798811436,90.01498,-55.10656,66.14474,-0.7859412,0.1249306,0.03882119,40.09473,4.722185,-22.65128,1006.969
32.831587791,83.11958,-49.31548,69.50464,-0.8492252,0.207771,0.1211593,39.41223,2.089205,-24.28756,1006.967
32.864363670,62.93033,-43.11075,69.32137,-0.8264717,0.2387177,0.1316486,36.93515,-1.937269,-25.96169,1006.967
32.899661064,39.44867,-30.99675,63.27356,-0.8575636,0.2412467,0.1124641,36.93515,-1.937269,-25.96169,1006.966
32.932437420,24.22908,-24.61474,55.69852,-0.8444044,0.2274733,0.1471117,36.27254,-5.596876,-27.14662,1006.964
32.965213299,18.57609,-11.49616,46.3519,-0.8828108,0.2587549,0.2092513,34.79786,-7.835507,-26.73638,1006.962
32.997992516,8.636767,-7.005118,34.92825,-0.9047605,0.3070292,0.2438886,34.79786,-7.835507,-26.73638,1006.96
33.033287525,-13.9752,-1.036757,24.48203,-0.9491571,0.404404,0.2924647,34.10217,-9.666986,-27.51485,1006.959
33.066063404,-39.63107,-3.695928,18.18986,-0.9335508,0.375292,0.2895834,33.76503,-11.12471,-27.55362,1006.959
33.098839760,-48.70071,-4.759596,15.07432,-0.9000342,0.3702109,0.2890302,33.76503,-11.12471,-27.55362,1006.957
33.131616116,-42.9856,-5.94145,12.4475,-0.8655223,0.3508635,0.2668349,33.40033,-11.12893,-27.9261,1006.961
33.164391995,-30.80993,-6.355099,10.43156,-0.8417763,0.3725548,0.2758918,33.02055,-10.41702,-29.24243,1006.959
33.199689865,-23.35543,-8.186972,10.67591,-0.804438,0.3932951,0.271921,33.02055,-10.41702,-29.24243,1006.958
33.232465267,-15.03125,-3.51865,11.71443,-0.8166038,0.4023736,0.2613463,32.63619,-9.322833,-29.25915,1006.958
33.265241623,-5.52677,-0.3867376,12.69185,-0.8711397,0.4682358,0.272929,32.27138,-9.327905,-29.69379,1006.954
33.298018456,-4.346475,2.686082,10.06502,-0.95959,0.4991285,0.2692413,32.27138,-9.327905,-29.69379,1006.952
33.333315373,3.729226,1.681506,6.888394,-0.9435807,0.5025709,0.2547573,31.90055,-8.962595,-29.69905,1006.952
33.366091728,8.326163,2.036062,5.727703,-0.9077032,0.5191919,0.2204705,32.6287,-8.96434,-29.69999,1006.952
33.398868084,6.027695,3.454287,8.232353,-0.8538146,0.5225236,0.2145613,31.90127,-8.956651,-29.26394,1006.952
33.431643963,-3.725267,6.645291,13.11947,-0.8260761,0.4928985,0.1933603,31.89451,-8.592214,-29.26967,1006.951
33.464420318,-12.85702,7.531682,18.92293,-0.8284261,0.4536851,0.160211,32.27283,-9.316017,-28.82357,1006.951
33.499717235,-14.65852,9.363555,21.61085,-0.8677869,0.4650121,0.1554737,32.64295,-9.68727,-29.25342,1006.949
33.532494068,-18.38577,7.177125,17.82333,-0.9182993,0.4674125,0.141149,32.64295,-9.68727,-29.25342,1006.949
33.565270424,-15.65246,1.681506,12.56967,-0.9139426,0.4687527,0.1185126,32.28636,-10.04489,-28.81211,1006.949
33.598045826,-10.93128,-2.573167,9.087599,-0.8813576,0.4440753,0.1025876,32.27959,-9.680454,-28.81784,1006.949
33.633343697,-2.172248,-4.464133,11.53116,-0.8356819,0.4308194,0.1024993,32.27959,-9.680454,-28.81784,1006.949
33.666120052,2.735293,-5.232338,13.73036,-0.8361815,0.4412036,0.1255901,32.28032,-9.67451,-28.38273,1006.949
33.698895931,2.48681,-5.350523,13.11947,-0.8304007,0.4602328,0.1236223,31.92228,-10.04402,-28.81164,1006.951
33.731672287,3.604984,-2.277704,6.399682,-0.9178596,0.4818533,0.1160954,31.92228,-10.04402,-28.81164,1006.951
33.764448643,2.735293,-5.823265,-0.07575354,-0.8430955,0.5009592,0.1823172,32.29312,-10.40933,-28.80638,1006.951
33.799746036,-0.246504,-7.773323,-2.397136,-0.8134733,0.4997319,0.1803233,32.30592,-11.14415,-29.23003,1006.949
33.832522392,-0.4949871,-3.932299,-3.252382,-0.8431457,0.5244202,0.194316,32.30592,-11.14415,-29.23003,1006.949
33.865298271,-1.861644,-3.932299,-5.085053,-0.8456247,0.5528985,0.2303811,31.20692,-10.77709,-29.23435,1006.949
33.898074627,-1.054074,-3.991391,-6.062477,-0.8145435,0.552224,0.2360847,31.92759,-10.42034,-29.67613,1006.947
33.933372021,-1.116195,-0.2094595,-3.37456,-0.7348937,0.5546643,0.2811401,31.92759,-10.42034,-29.67613,1006.947
33.966147900,-4.781321,7.70896,0.6573147,-0.7183548,0.545669,0.2984435,31.17915,-9.325287,-29.69238,1006.947
33.998924255,-12.7949,11.72726,3.40632,-0.7480872,0.5961898,0.3152855,31.92228,-10.04402,-28.81164,1006.949
34.031700611,-28.69782,10.89997,3.40632,-0.7878993,0.5939095,0.3153834,31.92228,-10.04402,-28.81164,1006.947
34.064476490,-32.79779,4.872511,3.650676,-0.8266768,0.5673696,0.3275494,31.90948,-9.3092,-28.38799,1006.947
34.099774361,-27.70389,-6.414191,5.727703,-0.8741382,0.5103202,0.3051239,32.27283,-9.316017,-28.82357,1006.947
34.132550240,-12.17369,-16.75541,8.110175,-0.912008,0.5166435,0.3494895,32.27283,-9.316017,-28.82357,1006.947
34.165326595,-17.51608,-33.0059,12.50858,-1.046141,0.5920022,0.4916958,32.25786,-8.59903,-29.70525,1006.945
34.198102951,-13.35399,-62.19768,32.72905,-1.126144,0.5471783,0.5155398,31.50154,-7.078798,-29.72819,1006.947
34.233399868,68.64544,-101.317,68.5883,-1.148483,0.3590544,0.5943383,31.50154,-7.078798,-29.72819,1006.947
34.266176224,131.8223,-117.1539,111.5339,-1.224316,0.8212984,0.6915379,30.42718,-8.259101,-31.82203,1006.949
34.298953056,55.10311,-135.8863,148.1873,-0.9674992,1.051988,0.7088729,27.18149,-10.09636,-33.46744,1006.949
34.331728458,10.93524,-149.3594,200.7849,-0.3413884,0.7600197,0.693387,27.18149,-10.09636,-33.46744,1006.947
34.364504814,26.90028,-142.1501,203.7783,0.2175483,0.5199552,0.588449,22.8714,-16.66344,-34.66392,1006.947
34.399802685,-64.54151,-120.9358,209.2763,0.5417151,0.6398333,-0.2823212,16.00562,-19.65196,-36.72159,1006.943
34.432578564,-287.493,-56.34751,170.3015,0.01241636,-0.1919295,-1.45241,7.271064,-23.30497,-38.8285,1006.94
34.465354919,-354.4592,-92.33495,81.417,0.6673163,-1.643233,-2.929075,7.271064,-23.30497,-38.8285,1006.94
34.498131275,277.3712,109.9984,-35.81283,1.296211,0.3145325,-2.164301,0.5391715,-17.46701,-44.00962,1006.938
34.533428192,-181.3286,336.3234,-63.91377,0.9593573,-0.8049901,-1.312211,-1.429236,-9.439089,-43.69822,1006.939
34.566205025,637.0506,280.4217,-110.6469,-0.4869961,1.621945,0.007936898,-1.429236,-9.439089,-43.69822,1006.935
34.598980427,-214.5011,179.4914,-106.2485,-0.6191685,4.181191,1.405637,9.56155,-9.401729,-39.05048,1006.935
34.631757259,-446.4601,185.0461,-22.6176,-0.7492263,-0.3317612,0.4370272,20.38692,-19.98102,-33.36493,1006.935
34.664533615,171.5174,97.8253,-52.91775,-1.692753,0.9296045,0.510531,20.38692,-19.98102,-33.36493,1006.935
34.699830532,-684.4447,227.5337,-125.1861,-0.4900374,-0.1362715,0.1521144,26.42764,-8.625827,-32.68135,1006.939
34.732606888,452.8624,339.8689,-140.0918,-1.111367,-1.008775,-2.844462,29.32528,-7.426111,-28.84942,1006.942
34.765383244,-610.8937,352.6329,-123.781,-9.380518,1.529842,3.409292,29.32528,-7.426111,-28.84942,1006.945
34.798159122,229.7867,145.3949,-56.27765,-2.805019,-3.193634,-2.417886,34.56435,5.505051,-19.67199,1006.949
34.833456993,132.7541,42.98729,-28.29888,-2.030627,0.6835904,0.4881165,37.8263,9.916998,-16.32632,1006.949
34.866232395,141.3889,36.66437,-27.0771,0.2324879,1.804786,0.6427964,37.8263,9.916998,-16.32632,1006.956
34.899009228,-127.9047,-0.5640156,-10.03326,-1.235126,0.1797422,0.2665254,39.31787,8.10321,-15.42933,1006.959
34.931785583,62.99245,-0.3276449,9.02651,-1.502065,0.3870504,0.5628836,39.68871,7.737901,-15.42407,1006.96
34.964561462,-11.24188,10.78178,1.512561,-1.330358,-0.06344007,-0.06068959,39.68871,7.737901,-15.42407,1006.966
34.999858856,17.45792,-24.9102,9.270866,-0.6047056,1.187491,0.4979344,39.33202,7.379431,-15.04491,1006.966
35.032635212,-194.4982,-2.159518,16.23501,-0.2991568,-0.7046436,-0.5671175,38.96732,7.375209,-15.4174,1006.971
35.065411091,92.06497,23.78217,-17.11959,-1.30803,0.1184411,-0.1967607,38.96732,7.375209,-15.4174,1006.974
35.098187447,-31.6175,-8.836991,-0.01466453,-1.118294,0.4747646,0.318272,39.32598,7.749813,-14.61553,1006.976
35.133485317,-95.78826,-45.65173,15.44086,-1.058342,0.09845354,-0.07938916,38.97012,7.398136,-13.73911,1006.98
35.166261196,-32.05234,-38.20605,13.97472,-0.7723193,0.2885883,-0.1159749,38.97012,7.398136,-13.73911,1006.981
35.199037552,-43.10984,-17.10997,16.23501,-1.023922,0.2236703,0.4464689,38.59034,8.11005,-15.05543,1006.981
35.231813431,-39.32047,-32.35588,24.78748,-0.98098,0.5384666,0.4189363,38.21212,8.834702,-15.43938,1006.983
35.264589787,-18.01305,-20.0646,21.61085,-0.9158311,0.006402679,-0.04059813,38.21212,8.834702,-15.43938,1006.987
35.299887180,-25.40542,-17.87817,14.21908,-0.9931791,0.311644,0.1733312,37.86011,8.094814,-16.29767,1006.988
35.332663059,-40.3144,-22.54649,14.28017,-0.9446052,0.3512176,0.4128745,38.22346,8.087997,-16.73325,1006.99
35.365439415,-42.61287,-32.11951,18.43422,-0.8025569,0.1978906,0.1850846,38.22346,8.087997,-16.73325,1006.99
35.398216247,-1.55104,-14.4508,4.383744,-0.6688426,0.1018536,0.08141942,38.58754,8.087124,-16.73372,1006.994
35.433513164,-0.3707456,-6.355099,1.818006,-0.8381543,0.5245717,0.4903414,37.13726,7.720234,-17.16122,1006.994
35.466289520,-4.470717,-21.6601,12.69185,-0.8200312,0.4352423,0.3696112,37.49385,8.077854,-17.60254,1007
35.499065876,-12.73278,-6.886933,3.895033,-0.7926662,0.1078331,0.1096231,37.49385,8.077854,-17.60254,1007.001
35.531841755,-2.544973,-2.514074,-0.7477328,-0.946435,0.2979012,0.3821521,37.86469,7.712545,-17.59727,1007.001
35.564618111,4.8474,-6.946025,6.338593,-0.9355527,0.4309209,0.447391,37.49989,7.707473,-18.03192,1007.001
35.599915028,1.865602,1.97697,5.238991,-0.8172709,0.2732633,0.2557661,37.49989,7.707473,-18.03192,1007.003
35.632691383,6.276177,10.07267,1.756917,-0.8872393,0.3047853,0.320387,37.14122,7.332871,-18.83378,1007.003
35.665468216,1.803482,5.049789,3.833944,-0.9734428,0.4172224,0.3440087,37.49926,7.702379,-18.40487,1006.997
35.698243618,-1.116195,2.567896,5.177902,-0.914863,0.2755888,0.2872826,37.49926,7.702379,-18.40487,1006.997
35.731019974,14.22764,7.05894,1.268205,-0.9226553,0.2711188,0.2141408,37.14194,7.338814,-18.39867,1006.997
35.766317844,-1.613161,2.390618,1.57365,-0.9247137,0.3354589,0.2939548,37.52017,6.614162,-18.01473,1007.001
35.799093723,8.326163,2.745174,2.18454,-0.8913424,0.3962971,0.317852,37.52017,6.614162,-18.01473,1007.003
35.831870079,-2.607093,1.149672,2.428896,-0.8886912,0.2972702,0.2920015,37.14194,7.338814,-18.39867,1007.005
35.864646435,-3.041939,2.745174,3.100875,-0.8959622,0.2867977,0.2655596,37.14933,6.979472,-18.01999,1007.005
35.899943829,0.4989453,4.517955,1.512561,-0.9378775,0.3673477,0.3430368,37.14933,6.979472,-18.01999,1007.005
35.932720184,-2.296489,1.031487,4.383744,-0.9209024,0.3681891,0.3035236,37.87748,6.977726,-18.02093,1007.005
35.965496540,0.3747037,2.272433,3.100875,-0.8697714,0.2915988,0.2240931,37.5134,6.978599,-18.02046,1007.006
35.998272419,2.238327,6.349828,-0.07575354,-0.9110904,0.3258988,0.3035641,37.5134,6.978599,-18.02046,1007.006
36.031048775,3.356501,5.581623,3.100875,-0.9371176,0.4615428,0.3703307,37.89173,6.254797,-17.57435,1007.008
36.066345692,0.1262206,8.181702,1.818006,-0.9174291,0.3279598,0.2573653,38.25581,6.253925,-17.57482,1007.008
36.099122047,-7.514635,12.31819,0.3518696,-0.9558279,0.3467309,0.2713876,38.25581,6.253925,-17.57482,1007.006
36.131898403,-9.378258,8.536258,1.268205,-0.9465756,0.3421719,0.3050678,38.60782,6.993813,-16.71653,1007.008
36.164674282,-10.49643,5.817994,1.207116,-0.8829778,0.3405001,0.268336,37.89318,6.266685,-16.70413,1007.006
36.199972153,-9.316137,10.89997,-2.274958,-0.9233018,0.3534609,0.289592,37.89318,6.266685,-16.70413,1007.008
36.232748509,-4.222234,13.20458,-2.213869,-0.9267372,0.3680166,0.2857274,38.23698,7.359123,-16.72179,1007.008
36.265524387,-4.284354,14.15006,-2.885848,-0.890678,0.3132254,0.2775412,38.24519,7.006573,-15.84584,1007.008
36.298300743,-8.135842,15.27282,-3.985451,-0.8979333,0.2989572,0.2655459,38.24519,7.006573,-15.84584,1007.008
36.331077099,-2.544973,17.57744,-1.908424,-0.9695213,0.3870172,0.2679898,38.60324,7.376082,-15.41693,1007.01
36.366374016,2.176206,20.05933,-2.336047,-0.9192879,0.2822718,0.2030447,38.60386,7.381176,-15.04397,1007.012
36.399150371,2.673172,22.48213,-1.175356,-0.9150031,0.3213842,0.2193419,38.60386,7.381176,-15.04397,1007.018
36.431926250,-1.861644,21.35937,-1.725157,-0.933436,0.3149559,0.2275784,38.61208,7.028627,-14.16802,1007.018
36.464702606,1.865602,18.7002,1.268205,-0.9514713,0.3374618,0.193892,38.9776,7.039643,-13.29827,1007.018
36.500000477,4.288313,21.59574,-0.1368426,-0.9017963,0.2669315,0.1471884,38.95877,8.144842,-12.44523,1007.018
36.532776356,5.592849,24.01854,-0.4422877,-0.9111891,0.3445562,0.1851212,38.95877,8.144842,-12.44523,1007.018
