Time (s),Gyroscope X (deg/s),Gyroscope Y (deg/s),Gyroscope Z (deg/s),Accelerometer X (g),Accelerometer Y (g),Accelerometer Z (g),Magnetometer X (uT),Magnetometer Y (uT),Magnetometer Z (uT),Barometer (hPa)
0.020501137,-0.1795266,-0.04487023,-0.2296997,0.07910242,-0.7347988,0.6756892,-13.02905,42.98915,-17.68861,1008.455
0.052672863,0.1276255,0.1326848,0.1380225,0.07855975,-0.737264,0.670372,-12.65637,43.74036,-18.14055,1008.455
0.087320328,0.80336,0.2510549,-0.1071256,0.07372084,-0.7372024,0.6752377,-12.65637,43.74036,-18.14055,1008.455
0.119492054,0.496208,0.0734998,0.07673546,0.0771465,-0.7338256,0.6747515,-13.04035,43.35892,-18.58304,1008.454
0.154139042,0.004764684,-0.1632403,-0.04583859,0.07284615,-0.7303355,0.6839784,-13.02853,43.75142,-17.69234,1008.455
0.186311245,0.1890559,-0.1040552,-0.1071256,0.07764679,-0.7367183,0.677615,-13.02853,43.75142,-17.69234,1008.455
0.220954418,0.4347776,-0.1040552,-0.1071256,0.07617876,-0.7347804,0.6761987,-12.65663,43.35923,-18.13869,1008.454
0.253126144,-0.05666573,-0.2816103,-0.1071256,0.07717498,-0.7347668,0.6785995,-13.40673,43.37566,-17.68854,1008.454
0.285298824,-0.8552611,0.1326848,0.1380225,0.07857991,-0.7343442,0.6713598,-13.40673,43.37566,-17.68854,1008.454
0.319945335,1.601955,0.4286099,0.07673546,0.08351843,-0.7357659,0.679014,-13.02828,44.13255,-17.6942,1008.452
0.352118015,1.294803,0.4877949,0.01544843,0.07488865,-0.7162393,0.6879315,-13.02879,43.37029,-17.69047,1008.452
0.386764526,-2.20673,-0.1040552,-0.1684126,0.0717789,-0.7318643,0.6738538,-13.02879,43.37029,-17.69047,1008.452
0.418932915,-2.391021,-0.3407953,-0.1071256,0.07610212,-0.7454886,0.6722552,-12.65059,43.74605,-17.69427,1008.456
0.453579426,1.540525,0.01431479,-0.1071256,0.08199408,-0.7445178,0.6760641,-13.02905,42.98915,-17.68861,1008.456
0.485751152,0.9262209,0.2510549,0.3218835,0.078592,-0.732399,0.6718578,-13.02905,42.98915,-17.68861,1008.454
0.520398617,0.8647904,0.3102399,0.1993095,0.07427555,-0.7318249,0.6805788,-13.04009,43.74005,-18.5849,1008.454
0.552570343,0.4347776,0.1326848,0.1993095,0.07915724,-0.7342654,0.6819592,-13.02905,42.98915,-17.68861,1008.454
0.587217808,0.4347776,0.1326848,0.07673546,0.08154641,-0.7377087,0.6775704,-12.65689,42.9781,-18.13683,1008.454
0.619385719,0.3733472,-0.04487023,0.1993095,0.07285006,-0.7274305,0.6830384,-12.65689,42.9781,-18.13683,1008.454
0.654032707,-0.4252482,0.01431479,-0.1071256,0.07376322,-0.7318446,0.6776914,-12.65085,43.36492,-17.69241,1008.454
0.686204433,-0.1180961,-0.04487023,-0.1684126,0.07660612,-0.7416079,0.6722825,-12.65059,43.74605,-17.69427,1008.454
0.720851898,0.6190688,-0.1632403,-0.1071256,0.0771625,-0.7289754,0.6743093,-12.65059,43.74605,-17.69427,1008.458
0.753023624,-0.1180961,0.1326848,-0.1684126,0.0777318,-0.7308381,0.6848926,-13.40673,43.37566,-17.68854,1008.458
0.785196304,-0.3023874,0.1326848,0.01544843,0.07815074,-0.7318705,0.6771683,-13.02853,43.75142,-17.69234,1008.458
0.819839001,0.3733472,0.1918698,0.01544843,0.07480823,-0.7327538,0.6863502,-13.02853,43.75142,-17.69234,1008.458
0.852011204,-0.240957,0.01431479,0.1380225,0.0767111,-0.7289397,0.6786519,-13.03431,43.74573,-18.13862,1008.456
0.886657715,0.06619509,0.0734998,0.1380225,0.07914697,-0.7318569,0.6795691,-13.41225,43.7511,-18.13668,1008.456
0.918830395,0.3733472,-0.04487023,0.01544843,0.0722995,-0.7347385,0.6791272,-13.41225,43.7511,-18.13668,1008.455
0.953476906,-0.4252482,0.01431479,0.01544843,0.07228511,-0.7313666,0.6757811,-12.65034,44.12719,-17.69613,1008.459
0.985649586,-0.1180961,0.01431479,-0.2296997,0.06978069,-0.7381831,0.6714103,-13.41277,42.98884,-18.13296,1008.459
1.020291805,0.7419296,-0.04487023,-0.04583859,0.07083158,-0.7347348,0.678659,-13.41277,42.98884,-18.13296,1008.459
1.052464485,0.3733472,-0.1040552,0.01544843,0.07524118,-0.7294213,0.6781796,-12.65637,43.74036,-18.14055,1008.457
1.087110996,-1.162413,-0.1040552,-0.04583859,0.07956415,-0.7382101,0.6742108,-13.40673,43.37566,-17.68854,1008.455
1.119283199,0.9262209,0.1918698,0.07673546,0.07712071,-0.7459383,0.6775439,-13.40673,43.37566,-17.68854,1008.455
1.153930187,0.9876512,0.1918698,0.1993095,0.06709764,-0.7161852,0.6899327,-13.02879,43.37029,-17.69047,1008.455
1.186101913,-2.575313,-0.3999803,-0.2296997,0.07189642,-0.7259546,0.6849873,-13.03483,42.98347,-18.13489,1008.455
1.220745087,-1.961009,-0.5183503,-0.3522737,0.0761627,-0.7386636,0.6761668,-13.03483,42.98347,-18.13489,1008.455
1.252917290,0.3119168,-0.2816103,-0.1684126,0.0747009,-0.7391379,0.6766586,-12.65637,43.74036,-18.14055,1008.453
1.287564278,-0.3023874,0.0734998,0.3218835,0.08156627,-0.7289864,0.6757141,-12.65689,42.9781,-18.13683,1008.453
1.319736481,0.6804992,0.3694249,0.1380225,0.07177333,-0.7420244,0.678108,-12.65689,42.9781,-18.13683,1008.456
1.351908684,1.417664,0.1326848,0.01544843,0.07624342,-0.7279516,0.6805924,-13.02853,43.75142,-17.69234,1008.456
1.386555195,0.1890559,-0.2224253,0.07673546,0.07821364,-0.7303625,0.6839281,-13.03457,43.3646,-18.13675,1008.456
1.418724060,-0.6709699,-0.04487023,0.01544843,0.07425945,-0.734741,0.6800729,-13.03457,43.3646,-18.13675,1008.456
1.453370571,-0.4252482,-0.3999803,0.07673546,0.07325696,-0.7313752,0.67529,-13.02879,43.37029,-17.69047,1008.456
1.485542774,-0.4866786,-0.2224253,0.01544843,0.07275902,-0.7347668,0.6757486,-12.65663,43.35923,-18.13869,1008.456
1.520189762,-0.6709699,-0.04487023,-0.1071256,0.07608189,-0.7474413,0.6707932,-13.02853,43.75142,-17.69234,1008.456
1.552361965,0.6190688,0.2510549,-0.1071256,0.07809798,-0.7328856,0.6713763,-13.02853,43.75142,-17.69234,1008.456
1.587008476,-0.240957,-0.1040552,0.01544843,0.07959224,-0.7314146,0.6742666,-13.02879,43.37029,-17.69047,1008.456
1.619177341,-0.4866786,-0.3407953,0.07673546,0.07371894,-0.739622,0.6761817,-13.02879,43.37029,-17.69047,1008.456
1.653823852,0.1890559,0.0734998,0.01544843,0.07523721,-0.7313592,0.6786457,-13.02879,43.37029,-17.69047,1008.456
1.685996056,0.004764684,0.1326848,0.01544843,0.07329348,-0.7303749,0.6791539,-13.02879,43.37029,-17.69047,1008.456
1.720642567,-0.3023874,0.0734998,0.01544843,0.07566653,-0.7367343,0.6742594,-13.01889,43.38003,-16.92542,1008.456
1.752815247,-0.1180961,0.01431479,-0.1684126,0.07284018,-0.7327588,0.6844404,-13.01889,43.38003,-16.92542,1008.454
1.787461758,-0.240957,-0.1632403,-0.1071256,0.07031529,-0.7366924,0.6762376,-12.65689,42.9781,-18.13683,1008.454
1.819630623,-0.05666573,-0.4591653,-0.04583859,0.07716676,-0.73284,0.6766875,-12.65085,43.36492,-17.69241,1008.454
1.854277134,-1.039552,-0.1632403,0.01544843,0.0810563,-0.7352903,0.676149,-12.65085,43.36492,-17.69241,1008.452
1.886449337,0.496208,0.0734998,-0.04583859,0.07961475,-0.7347791,0.6785766,-13.41225,43.7511,-18.13668,1008.454
1.918621540,-0.1795266,0.1326848,0.1380225,0.07188258,-0.7332208,0.6868556,-13.03406,44.12687,-18.14048,1008.454
1.953268528,-2.20673,-0.2224253,-0.4135607,0.07377722,-0.7274798,0.6772453,-13.03406,44.12687,-18.14048,1008.454
1.985440731,-1.162413,-0.2816103,-0.2296997,0.07808217,-0.7416042,0.6737146,-12.65111,42.98379,-17.69055,1008.454
2.020083904,0.7419296,0.1918698,-0.2296997,0.08051372,-0.7396897,0.6717797,-13.03457,43.3646,-18.13675,1008.454
2.052255631,0.1276255,-0.04487023,0.2605965,0.0780737,-0.7348419,0.6694325,-13.03457,43.3646,-18.13675,1008.454
2.086902142,0.6190688,0.1326848,0.1380225,0.07560583,-0.7416251,0.6693996,-12.64616,42.98866,-17.30802,1008.454
2.119074821,0.7419296,0.1326848,0.07673546,0.07764654,-0.7318828,0.6752449,-13.41251,43.36997,-18.13482,1008.454
2.153721809,-0.1180961,-0.1040552,-0.1071256,0.07761414,-0.7338465,0.6723371,-13.41251,43.36997,-18.13482,1008.453
2.185893536,0.1276255,0.0734998,0.1380225,0.07565429,-0.7357783,0.6723394,-13.03457,43.3646,-18.13675,1008.451
2.220536232,0.06619509,-0.04487023,-0.1071256,0.06987995,-0.7327735,0.680612,-13.02853,43.75142,-17.69234,1008.455
2.252708912,-0.3023874,-0.3407953,-0.1684126,0.07524534,-0.7313518,0.6796096,-13.02853,43.75142,-17.69234,1008.455
2.287355423,-0.5481091,-0.1040552,-0.1071256,0.07763249,-0.7352806,0.675217,-12.65034,44.12719,-17.69613,1008.455
2.319528103,0.1890559,-0.1040552,0.01544843,0.07818741,-0.7337714,0.6824542,-13.03483,42.98347,-18.13489,1008.455
2.354174614,-0.05666573,-0.2224253,-0.1684126,0.07717077,-0.7318692,0.6766955,-13.03483,42.98347,-18.13489,1008.455
2.386346817,-0.6095394,-0.1632403,-0.1071256,0.07959644,-0.7343122,0.6761706,-12.65085,43.36492,-17.69241,1008.453
2.418514728,0.06619509,-0.04487023,0.01544843,0.07033169,-0.7395789,0.6795877,-13.40647,43.75679,-17.6904,1008.453
2.453162193,0.4347776,0.3694249,0.01544843,0.07958005,-0.7314257,0.6728206,-13.40647,43.75679,-17.6904,1008.453
2.485333919,-0.1795266,0.1326848,-0.04583859,0.06980693,-0.7347742,0.6728842,-13.40699,42.99453,-17.68668,1008.451
2.519981384,0.2504863,-0.1040552,0.01544843,0.07131141,-0.7347447,0.6776903,-12.65085,43.36492,-17.69241,1008.454
2.552153110,-0.3023874,-0.1040552,-0.2296997,0.0756746,-0.7357598,0.6747493,-12.65085,43.36492,-17.69241,1008.454
2.586800098,0.2504863,-0.2816103,-0.1684126,0.07913879,-0.7308972,0.678131,-12.65085,43.36492,-17.69241,1008.455
2.618968010,-1.715287,-0.5183503,-0.2909867,0.07232598,-0.7361652,0.6829712,-13.02879,43.37029,-17.69047,1008.455
2.653615475,-39.61785,11.08191,-11.99681,0.07566543,-0.6434438,0.6870784,-13.40699,42.99453,-17.68668,1008.454
2.685787201,-300.5742,0.724535,-57.77821,0.006550774,-0.479155,0.8616336,-13.40699,42.99453,-17.68668,1008.454
2.720434666,-386.3311,37.36006,-150.4442,0.1668707,-2.932371,-0.1867458,-13.35034,43.81201,-13.3551,1008.452
2.752606392,-318.4505,65.76886,-236.6137,0.3353128,-2.335963,0.3477628,-15.48597,45.5605,1.631657,1008.45
2.787253380,-360.6532,108.1453,-304.9488,0.236056,-2.174654,-0.4505824,-15.48597,45.5605,1.631657,1008.448
2.819421291,-187.7266,161.4118,-310.8936,0.1209087,-1.555395,-0.2829329,-23.28329,42.00159,12.65663,1008.448
2.854068756,-40.04787,171.5325,-283.0081,0.05420257,-0.7689427,-0.180873,-32.70535,29.97364,15.4422,1008.445
2.886324406,79.80287,180.1143,-234.2848,0.3846467,-0.5214801,-0.2927761,-32.70535,29.97364,15.4422,1008.445
2.920971870,121.4527,171.3549,-214.673,0.5055265,-0.2047678,-0.05655933,-40.32381,17.45325,11.58951,1008.44
2.953143597,100.6278,157.9791,-190.8323,0.5829006,-0.1088609,0.2196951,-43.44961,10.15883,4.117323,1008.442
2.985315323,106.0951,138.2705,-168.0336,0.5553028,-0.04231304,0.2715932,-43.44961,10.15883,4.117323,1008.442
3.019958496,94.66903,123.0008,-148.1766,0.5847625,0.2525328,0.3826809,-45.42453,2.48423,-2.019968,1008.44
3.052130699,33.91435,112.7026,-129.1776,0.5423917,0.1426044,0.387954,-45.49167,-4.120284,-6.833357,1008.44
3.086777687,33.54577,101.3982,-108.8916,0.5625717,0.1581358,0.4009077,-45.49167,-4.120284,-6.833357,1008.437
3.118949890,16.28382,94.94707,-88.48302,0.5842913,0.3623207,0.3315344,-43.65701,-9.91448,-10.76789,1008.433
3.153596878,59.65369,118.3251,-59.18781,0.6024183,0.1981813,-0.0454655,-42.19926,-14.17877,-14.70792,1008.431
3.185768604,33.54577,189.7023,-36.5729,0.6453662,0.7070953,-0.1751846,-42.19926,-14.17877,-14.70792,1008.431
3.220411778,-578.4854,64.52598,3.570096,-3.58268,-2.877563,13.76498,-39.60006,-16.92814,-18.15117,1008.43
3.252584457,481.5578,37.1825,-58.08465,1.36468,0.8877259,2.817147,-36.66945,-18.96691,-25.23408,1008.432
3.287230969,110.9481,71.80573,40.58746,-0.03891534,1.672501,1.146824,-36.66945,-18.96691,-25.23408,1008.428
3.319403172,-83.41774,12.56154,9.88266,0.7175779,0.2703954,1.022648,-34.3624,-20.48386,-22.11427,1008.427
3.354050159,-18.24007,-22.00251,25.756,0.5340897,0.3985954,0.7863454,-33.61486,-24.31161,-22.54581,1008.427
3.386222839,-34.33484,-23.54132,23.05937,0.554472,0.07358146,0.6976799,-33.61486,-24.31161,-22.54581,1008.425
3.420865059,42.14603,-16.4983,21.71105,0.7503598,0.1361409,0.6910658,-33.61409,-23.16821,-22.5514,1008.423
3.453037739,1.786247,-3.832711,23.30452,0.6751021,0.3340847,0.7570238,-35.11905,-21.61652,-22.10482,1008.421
3.485209465,-9.63981,-2.471456,27.90104,0.5919438,0.26271,0.8261373,-35.11905,-21.61652,-22.10482,1008.424
3.519856930,4.427754,-8.981807,41.56805,0.553213,0.2632594,0.7464913,-35.48626,-21.60059,-21.27408,1008.422
3.552028656,46.69188,-7.561367,64.12167,0.5002065,0.277269,0.7037214,-36.24136,-20.44646,-21.27579,1008.422
3.586676121,138.3461,-19.04326,97.5231,0.3480769,0.2718522,0.7214843,-36.24136,-20.44646,-21.27579,1008.422
3.618844032,190.009,-14.48601,125.4087,0.3499431,0.3476475,0.7326958,-36.98491,-19.28095,-20.38495,1008.418
3.653491020,247.7536,-14.5452,148.5752,0.3421746,0.3927314,0.6574659,-38.07803,-18.84392,-17.25704,1008.417
3.685662746,209.2368,3.447046,169.7805,0.4206561,0.7036444,0.554703,-38.07803,-18.84392,-17.25704,1008.415
3.720310211,135.2131,28.42312,186.8796,0.4702932,0.4499933,0.4865967,-40.29403,-16.8565,-13.36573,1008.415
3.752481937,109.3509,67.30767,195.6436,0.5495036,0.479798,0.3742795,-42.54253,-14.1393,-12.02831,1008.417
3.787129402,26.84986,98.0247,207.7172,0.5248195,0.3215334,0.417067,-44.06199,-8.412189,-12.94104,1008.415
3.819297314,0.2504863,117.4966,221.5068,0.5287395,0.2137675,0.354928,-44.06199,-8.412189,-12.94104,1008.415
3.853944302,5.533502,141.1114,247.4312,0.4492165,0.1396738,0.4514592,-43.70831,-1.58558,-15.20787,1008.414
3.886116028,38.15305,156.4995,265.0818,0.3325403,-0.03882096,0.707018,-41.50265,6.764074,-20.48858,1008.414
3.920763493,52.95778,145.9646,259.7498,-0.03546015,-0.4128118,0.9406564,-41.50265,6.764074,-20.48858,1008.412
3.952935219,48.41193,132.0561,245.47,-0.1087821,-0.4933907,1.08142,-36.26857,15.01213,-25.40193,1008.412
3.987582684,-3.61963,111.4005,214.2749,-0.2173537,-0.5409787,1.134579,-29.51246,21.34441,-29.42114,1008.412
4.019750595,-39.37213,79.73653,168.0645,-0.2073851,-0.7478049,1.259547,-29.51246,21.34441,-29.42114,1008.414
4.051922798,-59.64417,56.9503,119.8316,-0.1109812,-0.8479871,1.107437,-21.60757,25.39004,-32.1599,1008.414
4.086569309,-70.94736,48.60521,81.58847,-0.05234035,-0.6760906,1.091919,-16.30203,29.51871,-31.31488,1008.414
4.118741989,-86.36639,41.62138,49.16764,-0.002852141,-0.7161396,0.9026655,-16.30203,29.51871,-31.31488,1008.414
4.153388500,-53.00968,51.62365,29.80094,0.08401469,-0.498812,0.5652831,-12.4581,31.75093,-31.34571,1008.416
4.185561180,-3.68106,73.8772,27.59461,-0.03122067,-0.4850966,0.3182416,-9.787352,34.78517,-29.58901,1008.418
4.220203400,-141.1009,-10.52062,59.70901,-0.6029438,-0.5531662,4.909722,-9.787352,34.78517,-29.58901,1008.419
4.252376080,-259.293,-69.52808,-40.3727,0.5354012,-1.603557,-0.4708394,-7.16463,35.10598,-31.38953,1008.419
4.287022591,158.1266,38.66213,14.9082,-0.2570201,-0.6877994,0.2593915,-5.547633,38.23509,-23.44286,1008.421
4.319195271,89.7546,0.54698,-14.69344,-0.1377945,-0.06794504,0.9073405,-5.547633,38.23509,-23.44286,1008.427
4.353841781,-137.0465,-4.720487,-12.42582,0.0840539,-0.08283443,1.007813,-6.336637,40.49852,-26.12784,1008.429
4.386014461,-126.9719,0.3102399,-0.2909867,0.01132735,-0.9852711,0.6294308,-6.721899,38.2114,-26.56102,1008.429
4.420656681,-17.38004,0.4877949,5.163558,-0.008320142,-0.8805426,0.8541253,-6.721899,38.2114,-26.56102,1008.429
4.452829361,-6.261137,-1.997976,-1.761875,-0.01188436,-0.7785527,0.6708755,-6.668611,40.16824,-22.5538,1008.429
4.487475872,4.243463,2.67764,-3.661773,0.006960471,-0.5762392,0.6087436,-7.028754,42.09551,-21.28608,1008.43
4.519648552,24.57693,4.8083,2.283068,-0.04230529,-0.6597069,0.768057,-7.028754,42.09551,-21.28608,1008.432
4.554295063,-0.1180961,0.842905,0.1380225,-0.03604022,-0.654082,0.8721569,-7.79619,42.09488,-22.17477,1008.432
4.586467743,-11.48272,0.1918698,-1.026431,-0.009141546,-0.602345,0.7378545,-7.040568,41.70301,-22.17678,1008.434
4.618635654,-16.52002,-1.938791,-1.945736,-0.004243892,-0.6391044,0.7577498,-7.040568,41.70301,-22.17678,1008.434
4.653282642,-22.97021,-4.187821,-3.72306,0.04184827,-0.6193053,0.7743529,-6.656851,41.70332,-21.73243,1008.434
4.685454369,-62.46997,0.1326848,-5.37781,0.01955448,-0.717627,0.7241043,-7.017199,42.10688,-20.39352,1008.436
4.720101833,-68.12157,1.02046,-5.868106,-0.01344702,-0.6897332,0.7323543,-7.017199,42.10688,-20.39352,1008.438
4.752273560,-60.56562,-3.891896,-8.809882,-0.009089,-0.700387,0.6753498,-7.005642,42.11825,-19.50096,1008.439
4.786921024,-82.49628,1.2572,-11.81295,-0.07014517,-0.9133523,0.7136878,-6.976806,43.28926,-17.33889,1008.439
4.819088936,-36.05489,5.222596,-24.49936,0.06695233,-1.276996,0.5373368,-7.686771,44.10693,-13.83225,1008.439
4.853735924,147.9906,17.35552,-17.6965,-0.02504829,-1.156775,0.3324087,-7.686771,44.10693,-13.83225,1008.439
4.885907650,191.9134,10.13495,-21.18986,-0.005497721,-0.4376666,0.5690323,-8.076267,44.10093,-14.72288,1008.439
4.920555115,94.54617,8.477772,-21.74145,0.0839999,-0.2490071,0.7331504,-8.917938,42.88462,-21.28013,1008.439
4.952726841,35.14296,7.885921,-8.564734,0.04489264,-0.2522598,0.7267405,-8.917938,42.88462,-21.28013,1008.443
4.987374306,-29.23611,8.773697,5.469994,0.04751706,-0.3537657,0.9721809,-10.09344,39.81268,-24.31965,1008.443
5.019542217,-100.3111,-2.589826,3.876531,0.01842656,-0.54297,1.02825,-10.09369,39.43155,-24.31779,1008.443
5.054189205,-120.4603,-9.632842,-3.906921,-0.04245342,-0.8464245,0.7245852,-10.09369,39.43155,-24.31779,1008.442
5.086360931,-60.13561,-13.12476,-13.52898,-0.04045666,-0.8028349,0.650698,-9.291386,40.99001,-20.82261,1008.442
5.118533611,-38.57354,-14.19009,-17.6965,-0.05811962,-0.6370447,0.6753656,-10.00553,42.94621,-17.70408,1008.442
5.153180122,-77.2747,-28.27612,-17.45135,-0.01370697,-0.5159969,0.7916289,-10.00553,42.94621,-17.70408,1008.442
5.185352802,-141.7766,-24.48828,-15.61274,0.153139,-0.6961615,0.6984529,-10.36175,43.35382,-16.0464,1008.442
5.219995976,-126.419,-20.81881,-2.926329,0.09174205,-0.932536,0.5331973,-11.43284,43.43165,-11.19526,1008.442
5.252167702,-112.1057,-19.45755,2.405642,0.1904673,-0.9883872,0.4036038,-11.43284,43.43165,-11.19526,1008.442
5.286815167,-73.77316,-9.928767,1.486337,0.1339059,-0.9439847,0.2714658,-11.36933,44.63677,-6.355515,1008.442
5.318986893,-71.74596,-7.916477,-0.7812829,0.03356381,-0.9307072,0.2291316,-11.31212,45.07394,-1.958323,1008.44
5.353634357,-55.22118,-0.3407953,-6.542263,0.08956527,-1.083826,0.1728807,-11.31212,45.07394,-1.958323,1008.44
5.385806084,-17.56433,8.832882,-10.52592,0.1005269,-1.099111,0.1490345,-11.28323,45.10237,0.2730808,1008.438
5.420449257,18.61818,13.03502,-6.051967,0.1002091,-1.026493,0.250374,-11.63832,44.74934,2.061996,1008.436
5.452620983,26.84986,17.65145,-4.887514,0.1525065,-0.9329031,0.2728295,-11.63832,44.74934,2.061996,1008.436
5.487268448,13.82661,26.11491,5.040984,0.04272988,-0.8786988,0.3075587,-12.02807,44.36221,1.173231,1008.436
5.519440174,28.32419,19.0127,9.085928,0.06931093,-0.9579264,0.3731734,-12.41756,44.3562,0.2826023,1008.436
5.554087639,48.22764,19.0127,12.45671,0.1002678,-0.8626969,0.4686235,-12.41756,44.3562,0.2826023,1008.436
5.586259365,7.437845,14.45546,15.95008,0.05174747,-0.7998202,0.4715227,-12.43464,44.72028,-1.0581,1008.436
5.620902538,7.499275,3.210305,19.56601,0.05638641,-0.9741111,0.4690785,-11.69476,45.45557,-2.340775,1008.436
5.653074264,38.89022,4.45319,28.63649,-0.02263897,-0.9103439,0.4419036,-11.69476,45.45557,-2.340775,1008.436
5.685246944,22.18114,-6.673592,31.21054,0.03714093,-0.8949056,0.4053231,-10.95647,45.04665,-3.681625,1008.436
5.719893455,26.84986,-0.1632403,40.83261,-0.07811639,-0.9543412,0.3654206,-9.839726,45.39462,-5.028129,1008.436
5.752066135,52.40491,-2.826566,42.42607,-0.2365842,-1.023069,0.4145327,-9.839726,45.39462,-5.028129,1008.436
5.786712646,55.78358,-14.07172,39.60686,-0.4228677,-0.8403521,0.5744271,-8.711429,45.75396,-5.482072,1008.436
5.818881035,5.472072,-29.81493,27.83976,-0.459876,-1.004918,0.5473877,-6.47712,46.45072,-8.111326,1008.435
5.853527546,10.87795,-44.43363,24.71412,-0.5440437,-0.8789474,0.4007558,-5.343301,46.43462,-8.117127,1008.435
5.885700226,26.29698,-28.7496,33.66203,-0.5979508,-0.9465876,0.4064851,-5.343301,46.43462,-8.117127,1008.435
5.920346737,4.427754,-26.32302,47.75804,-0.4564991,-0.6887538,0.4477788,-3.843356,46.02064,-9.015564,1008.437
5.952519417,-8.22691,-20.81881,73.80502,-0.2098229,-0.749202,0.4469067,-1.959693,45.60698,-9.469652,1008.437
5.987166405,-51.65821,-22.29844,84.71411,-0.2090463,-1.104811,0.5953156,-1.959693,45.60698,-9.469652,1008.438
6.019334316,0.2504863,-7.679737,85.93985,-0.003154607,-1.251723,0.3704636,0.6861429,45.95053,-9.48505,1008.438
6.053981781,12.72086,10.31251,96.91023,-0.03438989,-0.8673958,0.5908232,4.470801,45.14026,-9.054387,1008.438
6.086153507,15.36237,17.11878,96.72637,0.07273078,-0.9917523,0.3318927,4.470801,45.14026,-9.054387,1008.438
6.120800495,50.25484,30.19867,100.8939,0.1023092,-0.7862214,0.442243,8.627879,44.70008,-9.073799,1008.44
6.152972698,28.26276,32.74363,104.5098,0.2771095,-0.5752337,0.4095754,13.13953,43.85065,-10.87841,1008.44
6.185144424,58.17936,43.5153,126.4506,0.4240323,-0.2200607,0.2997907,13.13953,43.85065,-10.87841,1008.44
6.219787598,-14.98425,24.04343,114.7448,0.2486149,-0.3838877,1.22407,17.2898,41.88025,-11.33666,1008.444
6.251960278,41.77744,12.56154,112.232,-0.3139615,-2.237735,1.086306,22.19017,39.89341,-12.24505,1008.444
6.286606789,31.27285,-37.80491,87.1656,0.4953283,-0.05952848,0.5183126,22.19017,39.89341,-12.24505,1008.444
6.318779469,-16.33572,-15.3146,93.66202,-1.136063,-0.8971346,0.05234234,25.9688,38.69633,-12.25881,1008.444
6.353425979,41.47029,0.4877949,83.67223,-1.362925,-0.1316612,0.792927,28.98473,35.97976,-12.70754,1008.444
6.385598183,9.649341,3.387861,59.58644,-0.7628582,-0.4271663,0.6243858,28.98473,35.97976,-12.70754,1008.444
6.420240879,16.40669,40.61523,51.92556,-0.4928758,-0.4048132,0.8018367,31.29731,33.64361,-13.98339,1008.443
6.452413559,16.46812,60.73814,52.35457,-0.4374621,-0.2809729,0.6577407,33.1915,31.71679,-13.53747,1008.443
6.487060070,-14.61567,70.62203,46.40973,-0.8572763,-0.5883495,0.5583861,33.1915,31.71679,-13.53747,1008.443
6.519232750,14.68663,55.82578,47.63547,-0.8764161,-0.317592,0.472591,35.48065,30.5631,-11.82212,1008.447
6.553879261,16.0381,20.6107,48.92249,-0.7791309,-0.5450066,0.3126765,37.38666,29.02878,-10.48551,1008.445
6.586051464,-11.42129,-3.655156,52.90615,-0.9392439,-0.4049898,0.2391689,37.38666,29.02878,-10.48551,1008.445
6.620694637,21.6897,-26.85568,55.41892,-0.7437781,-0.2724,0.4389499,39.28085,27.10196,-10.03959,1008.445
6.652866840,15.79238,-41.59275,57.01238,-0.8092149,-0.4035354,0.3227995,40.03017,25.94213,-10.48416,1008.445
6.687513828,-10.31554,-49.34599,53.70288,-0.9037417,-0.3218439,0.5330608,40.03017,25.94213,-10.48416,1008.447
6.719686031,5.164919,-46.09081,51.37397,-0.8571405,-0.2537459,0.6450112,41.52254,22.85454,-11.81585,1008.447
6.751857758,0.6804992,-39.93557,52.41586,-0.6324404,-0.09124933,0.6505201,41.87768,22.06497,-13.53543,1008.447
6.786504745,-4.602516,-20.75962,46.40973,-0.8324284,-0.2217421,0.7828963,41.87768,22.06497,-13.53543,1008.447
6.818673611,30.04424,-22.89029,44.08082,-0.7546582,-0.1063543,0.690096,42.23096,19.75006,-15.31132,1008.448
6.853320122,20.03108,-14.5452,35.31678,-0.7569454,-0.07867715,0.7530054,42.58476,18.19742,-17.09094,1008.45
6.885492325,-11.72844,3.802156,33.17173,-0.6236775,-0.1642936,0.6252542,42.58476,18.19742,-17.09094,1008.45
6.920138836,18.49532,10.78599,40.83261,-0.6994797,-0.1356477,0.7664596,42.57853,16.28688,-17.46416,1008.45
6.952311516,20.64538,17.53308,39.60686,-0.7858753,-0.01378684,0.5889665,43.33389,15.51388,-17.4643,1008.448
6.986958027,26.05126,14.63301,36.72638,-0.8028321,-0.1909853,0.5732039,44.09947,13.98916,-16.63192,1008.448
7.019126892,14.99379,17.59226,34.02975,-0.834914,0.08045916,0.631171,44.09947,13.98916,-16.63192,1008.448
7.053773403,0.5576384,10.07577,29.80094,-0.8156575,0.04924913,0.4986662,44.85984,12.07845,-16.18021,1008.448
7.085945606,2.523412,12.3248,30.84282,-0.8491499,-0.1530735,0.6761326,45.24253,10.55423,-15.72842,1008.447
7.120592117,-25.42743,6.287926,31.94599,-0.8336552,0.05712862,0.5017911,45.24253,10.55423,-15.72842,1008.445
7.152764797,1.663386,-0.6367203,29.73965,-0.958956,-0.09298109,0.5301607,45.62573,9.792276,-15.28035,1008.445
7.187412262,-11.97416,-14.5452,21.15947,-0.816103,0.0536423,0.5015986,45.63048,8.273428,-14.82662,1008.447
7.219580174,6.577819,-7.679737,9.514937,-0.687652,0.04332005,0.6935967,45.63048,8.273428,-14.82662,1008.449
7.254227161,-26.71746,-1.583681,5.347419,-0.8384362,-0.01339552,0.6058482,45.99609,7.113289,-15.71554,1008.449
7.286398888,-1.961009,-15.19623,5.776429,-0.9488118,0.04513703,0.5090328,45.99583,6.732156,-15.71368,1008.449
7.353218078,14.44091,17.94737,-18.98353,-0.743097,-0.05536585,0.7636724,45.61238,7.112973,-16.15988,1008.449
7.385390758,-19.77583,11.02273,-28.29916,-0.8605371,0.01760838,0.4578542,46.00239,7.881241,-15.27298,1008.449
7.420033455,-2.575313,20.07804,-42.27259,-0.759367,0.02055805,0.5909303,46.00239,7.881241,-15.27298,1008.449
7.452205658,9.772202,27.29861,-48.64645,-0.7566651,-0.06384032,0.6629912,46.01445,8.654878,-14.38414,1008.449
7.486852169,6.70068,39.25398,-48.03358,-0.6788596,0.01683724,0.4749506,46.02126,10.1851,-13.9453,1008.451
7.519024849,-12.83419,61.32999,-45.39824,-0.7516677,-0.05776832,0.383435,46.02126,10.1851,-13.9453,1008.451
7.553671360,-15.90571,72.10165,-38.84052,-0.7787266,-0.1169044,0.5022538,45.66689,12.11806,-12.2313,1008.447
7.585844040,-85.75209,80.6243,-24.86708,-0.59946,0.06414767,0.4929157,45.32466,13.68207,-9.559128,1008.453
7.620486259,-38.38924,86.77954,-7.706717,-0.7181029,-0.3451606,0.3354446,45.32466,13.68207,-9.559128,1008.449
7.652658939,-51.41249,94.47359,3.999105,-0.7797285,-0.02738815,0.3396033,45.37083,14.87014,-6.058219,1008.455
7.687306404,2.830564,86.48361,26.06243,-0.797313,-0.398064,0.2846556,45.42252,15.68276,-2.109171,1008.455
7.719478130,0.6804992,86.60198,34.64262,-1.00132,-0.2230639,0.3135479,45.42252,15.68276,-2.109171,1008.455
7.754125118,3.260576,69.97099,42.54865,-1.04461,-0.09051857,-0.02428311,45.469,16.10937,1.459215,1008.455
7.786297321,-8.22691,64.88109,34.58133,-1.194288,-0.314101,0.2167521,46.26295,13.85081,4.52672,1008.455
7.818465233,24.39264,59.61362,33.84589,-1.121464,0.02268823,0.0670192,46.26295,13.85081,4.52672,1008.455
7.853112221,11.73797,62.21777,30.10738,-1.009519,-0.127076,0.1042639,46.66272,11.96252,6.319212,1008.456
7.885284901,18.12674,67.13012,30.53638,-0.9661813,-0.03549868,0.04870258,46.31786,10.85778,8.940659,1008.456
7.919931412,4.120602,66.0056,28.33005,-0.9703683,-0.2093005,0.04104282,46.31786,10.85778,8.940659,1008.455
7.952104092,22.79545,59.08096,29.49451,-0.9326449,0.1412347,-0.1111412,46.34045,10.11826,10.7295,1008.455
7.986750603,2.707703,58.31155,17.7274,-1.02992,-0.1553433,0.01312335,45.99532,8.632387,13.35281,1008.453
8.018918991,11.49225,63.10554,17.7274,-1.005493,-0.01423743,-0.05197522,45.99532,8.632387,13.35281,1008.455
8.053565502,6.76211,64.23005,21.89491,-1.10122,-0.1056386,-0.1332934,45.27386,8.296101,16.03622,1008.453
8.085738182,-2.20673,70.38529,24.59155,-1.075766,-0.1299095,-0.0542011,45.30719,7.56713,18.65387,1008.453
8.120384693,14.93236,79.73653,32.68143,-1.110808,0.1232567,-0.1655389,43.8238,6.854762,20.89673,1008.453
8.152557373,-2.821034,73.58128,36.35865,-1.165489,0.008936214,-0.1712731,43.8238,6.854762,20.89673,1008.453
8.187203884,2.461981,68.66893,44.26468,-1.180621,0.09318551,-0.2706932,42.3462,6.148077,23.58587,1008.453
8.219372273,1.049082,63.81576,40.77132,-1.079504,0.1160258,-0.3278424,41.23312,3.89931,25.32421,1008.455
8.254019737,47.24475,59.02177,41.13904,-1.168261,0.1909519,-0.2989225,41.23312,3.89931,25.32421,1008.455
8.286191464,66.53391,57.66052,29.24936,-1.141012,0.1927536,-0.4254459,38.63243,3.219289,28.84795,1008.455
8.320838451,27.03415,23.80669,12.02771,-1.03667,0.1815152,-0.4308501,37.12645,3.246448,29.30197,1008.455
8.353010654,-30.58758,-5.785817,-13.52898,-1.076704,0.1249707,-0.173073,37.12645,3.246448,29.30197,1008.453
8.385182857,-35.93203,-26.73731,-21.68016,-0.9617328,0.1250758,-0.02231507,35.62676,4.041558,30.19854,1008.451
8.419825554,-45.69946,-38.16002,-14.57086,-0.9214159,0.2127145,-0.0870387,34.87062,3.671162,30.20427,1008.451
8.451998234,-62.46997,-44.07852,-14.50958,-0.8702896,-0.1220857,-0.2290917,34.87062,3.671162,30.20427,1008.455
8.486644745,4.550615,-41.35601,-0.2296997,-0.9225429,0.03563318,-0.07740206,35.6152,4.030189,29.30598,1008.455
8.518817425,-17.38004,-60.11766,2.773365,-0.9649054,0.04225237,-0.1275622,34.84648,2.123888,28.42659,1008.455
8.553463936,30.84283,-59.58499,-0.4748478,-1.023937,0.09344681,-0.3246911,34.84648,2.123888,28.42659,1008.453
8.585636139,-3.189617,-70.11993,-9.177605,-1.025973,0.01597198,-0.2390329,34.82471,2.864228,26.70151,1008.452
8.620279312,78.38997,-55.91552,0.1993095,-1.05505,0.199761,-0.594408,36.69155,3.19578,24.90485,1008.452
8.652451515,21.01397,-54.55427,7.063456,-1.080064,0.5674297,-0.2643479,36.69155,3.19578,24.90485,1008.45
8.687098503,-76.96754,-69.70564,7.18603,-0.9993464,0.1360532,-0.3226413,38.18732,3.92033,23.61831,1008.45
8.719270706,-29.17468,-59.52581,7.124743,-1.007849,0.1886151,-0.3727385,38.54844,4.660174,22.27381,1008.448
8.753917694,-76.16895,-50.70724,6.757021,-0.9956765,0.1783751,-0.3710085,38.54844,4.660174,22.27381,1008.448
8.786089420,-78.31902,-41.94786,14.72433,-0.9656795,0.1663092,-0.279808,40.04209,3.478245,20.93282,1008.448
8.820732593,-102.7683,-40.11312,22.01749,-0.897895,0.1982542,-0.1847413,40.39589,1.925603,19.1532,1008.446
8.852904797,-84.52348,-34.54973,21.83363,-0.8872573,-0.0300582,-0.2021467,40.39589,1.925603,19.1532,1008.445
8.885139942,-52.08823,-27.92101,26.06243,-0.8515546,0.2424202,-0.09226567,41.1444,-0.4411423,18.71453,1008.441
8.919786453,-117.8188,-32.53744,18.40155,-0.7936738,0.1075637,-0.1078955,41.88827,-2.368105,17.89116,1008.439
8.951959133,-85.32208,-24.60665,17.78868,-0.743303,0.07988565,-0.1399237,41.88827,-2.368105,17.89116,1008.439
8.986605644,-71.31595,-16.67586,17.29839,-0.7756075,0.1514884,-0.127946,42.23577,-4.688698,15.66899,1008.436
9.018774033,-58.04698,-5.430707,12.82444,-0.8189896,0.06478137,-0.1962179,42.60665,-6.605419,15.23008,1008.438
9.053420544,-29.35897,8.536957,10.00523,-0.9153402,0.2066362,-0.1160655,43.33895,-8.543751,13.51414,1008.436
9.085593224,-73.036,14.51464,12.70186,-0.9975403,0.3620344,-0.1588433,43.33895,-8.543751,13.51414,1008.435
9.120240212,-84.40063,30.0803,14.84691,-0.9567208,0.2200634,-0.2269105,42.58751,-9.290407,13.90426,1008.433
9.152412415,-55.34404,45.23167,18.83056,-1.014037,0.2765738,-0.04805202,42.21458,-10.42275,14.35806,1008.433
9.187059403,-83.11059,44.16634,23.67224,-0.9860623,0.3475532,0.1108499,42.21458,-10.42275,14.35806,1008.431
9.219227314,-113.2115,41.9173,33.60074,-0.9467251,0.309949,0.1063169,41.46923,-11.92518,15.26193,1008.429
9.253874302,-122.1189,42.50916,40.03588,-0.9212867,0.2344432,0.150283,40.32809,-14.20156,14.83261,1008.428
9.286046505,-110.7543,40.67442,42.3035,-0.9202931,0.118844,0.2664466,40.32809,-14.20156,14.83261,1008.424
9.320693493,-98.16103,33.86814,37.40054,-0.830642,-0.001208142,0.3658402,39.57593,-17.23421,15.29765,1008.422
9.352865696,-40.78503,28.00883,28.88164,-0.8286741,-0.01481802,0.4905475,38.80721,-19.14051,14.41826,1008.422
9.387512684,-0.4252482,13.68605,17.84997,-0.8648469,0.1056022,0.5993637,38.80721,-19.14051,14.41826,1008.421
9.419680595,3.81345,-5.489892,3.876531,-0.8881243,0.07787938,0.5140384,37.2939,-21.40584,14.43716,1008.421
9.451853275,20.64538,-19.22081,-4.887514,-0.840863,0.1491825,0.4124834,36.54277,-22.91395,14.89475,1008.421
9.486500263,-3.251047,-33.78033,-18.1868,-0.8952842,0.1153708,0.3987344,36.54277,-22.91395,14.89475,1008.419
9.518671989,-6.199707,-45.79488,-35.1633,-0.9171094,0.005944216,0.2934421,37.28183,-22.17947,13.54832,1008.419
9.553319454,2.154829,-52.0685,-53.67198,-0.956638,0.06033663,0.2089454,38.03797,-21.80908,13.54259,1008.421
9.585491180,-21.86446,-55.26449,-71.69037,-1.014706,0.08577383,0.197165,38.03797,-21.80908,13.54259,1008.421
9.620134354,-44.10227,-57.987,-89.27975,-1.01155,-3.354275E-05,0.1496742,38.76682,-20.32289,11.36363,1008.421
9.652306557,-42.81223,-50.23376,-91.11835,-0.9932958,0.07452634,0.1371046,40.62917,-18.09136,9.111393,1008.419
9.686953545,-56.63408,-41.94786,-97.12449,-0.986802,0.0006824649,0.1325792,40.62917,-18.09136,9.111393,1008.419
9.719125271,-35.68631,-25.49442,-91.24093,-0.9371629,0.1177811,0.1176574,42.49234,-15.85901,6.922911,1008.419
9.753772736,-36.79205,-11.64513,-85.84767,-0.9862685,0.01422405,0.1895618,44.36073,-13.24066,5.115095,1008.416
9.785944462,11.55368,-1.22857,-72.73225,-1.00431,0.0380218,0.1798043,44.36073,-13.24066,5.115095,1008.416
9.820587635,-13.20277,2.914381,-65.43909,-1.004113,0.121337,0.2209773,45.10133,-10.21938,3.757498,1008.414
9.852759838,-35.56345,4.985856,-54.34614,-1.099671,-0.03188219,0.3059197,45.48159,-6.79455,3.738817,1008.414
9.887406826,-64.5586,-7.028702,-47.78843,-1.101562,-0.02549307,0.2520061,45.48159,-6.79455,3.738817,1008.414
9.919579506,-92.75516,-8.094031,-34.18271,-0.8962772,-0.02662224,0.1748893,45.48891,-4.502063,4.173933,1008.414
9.954226017,-90.48224,-9.100177,-23.64134,-0.9914199,-0.102985,0.1558676,45.48416,-2.983215,3.720211,1008.412
9.986398697,-55.4669,-1.938791,-21.61887,-0.8514539,-0.3019869,0.183287,45.48416,-2.983215,3.720211,1008.412
10.018566608,-24.87455,11.25947,-14.14185,-0.8695124,-0.1960728,0.2479526,45.48468,-2.220948,3.716488,1008.411
10.053213596,-19.96012,16.76367,-9.974336,-0.8827229,-0.2115131,0.2513225,45.48519,-1.45868,3.712767,1008.411
10.085385323,-2.083869,23.51077,2.528216,-0.8843206,-0.2575665,0.2577057,45.48519,-1.45868,3.712767,1008.411
10.120032787,15.79238,21.14336,18.09512,-0.9372928,-0.2793097,0.2363308,45.86916,-1.077231,4.155252,1008.414
10.152204514,18.43389,20.78825,29.9848,-0.8865311,-0.2428012,0.2197702,45.88072,-1.065861,5.047815,1008.414
10.186851978,-3.251047,24.1618,36.97152,-0.8452084,-0.2213893,0.1906411,45.88573,-2.203577,5.499678,1008.413
10.219019413,-21.68017,23.80669,42.3035,-0.8766371,-0.3302164,0.2199212,45.88573,-2.203577,5.499678,1008.414
10.253666878,27.64845,11.25947,44.87755,-1.014237,-0.3958063,0.3117623,45.51908,-2.567972,6.396032,1008.414
10.285839558,62.60236,-4.957227,39.9133,-1.086839,-0.2522461,0.3136233,45.15141,-4.456901,7.299831,1008.414
10.320486069,32.13287,-17.03097,28.82035,-1.028092,-0.1154788,0.2115367,45.15141,-4.456901,7.299831,1008.414
10.352658272,-16.64288,-20.81881,16.3178,-1.015303,-0.1531311,0.183633,44.39425,-6.351831,7.313002,1008.413
10.387335777,-36.4849,-20.22696,-1.149005,-1.058938,-0.2401427,0.2016388,45.52203,-6.754756,6.862782,1008.413
10.419504166,-52.88682,-19.99022,-16.10304,-0.9956927,-0.1995687,0.2168072,45.52203,-6.754756,6.862782,1008.413
10.454150677,-75.18607,-15.49216,-29.46361,-0.9478991,-0.2438007,0.1764726,44.37666,-6.750021,5.976023,1008.411
10.486323357,-68.42872,-9.692027,-36.26647,-0.9181805,-0.3184254,0.1485881,45.12098,-6.772127,5.079594,1008.411
10.518495083,-47.35809,-4.247006,-38.28894,-0.9353551,-0.3435723,0.149505,45.12098,-6.772127,5.079594,1008.409
10.553142548,-17.31861,-1.938791,-36.26647,-0.9246687,-0.3485063,0.1459907,45.48763,-6.407731,4.183237,1008.409
10.585314274,8.420732,0.3102399,-31.8538,-0.9191256,-0.3246789,0.1552933,45.10468,-5.264647,3.733309,1008.409
10.619957447,25.1298,0.3694249,-26.52183,-0.9070915,-0.2876928,0.17573,45.10468,-5.264647,3.733309,1008.409
10.652129173,27.03415,-0.04487023,-20.45442,-0.9009521,-0.2395907,0.1861912,45.86736,-3.745165,4.168278,1008.409
10.686776638,17.26671,0.1326848,-12.4871,-0.8969786,-0.2148849,0.1825018,45.4902,-2.596396,4.164629,1008.409
10.718948364,0.3119168,-0.1040552,-4.764939,-0.8890964,-0.2114711,0.1896864,45.4902,-2.596396,4.164629,1008.408
10.753595829,-7.981189,0.2510549,4.121679,-0.8878878,-0.2663538,0.1858487,45.49071,-1.834129,4.160908,1008.408
10.785768032,-8.411201,0.2510549,11.90513,-0.8844293,-0.26875,0.1920626,45.49097,-1.452996,4.159046,1008.408
10.820410728,-4.356795,1.198015,18.52413,-0.9021792,-0.2934904,0.1823843,45.49097,-1.452996,4.159046,1008.408
10.852583408,1.417664,1.49394,22.93679,-0.906504,-0.2890554,0.1882452,45.86312,-1.464049,3.710833,1008.408
10.887229919,2.400551,2.736825,25.14313,-0.9103322,-0.2933193,0.1993318,45.86788,-2.982898,4.164557,1008.408
10.919402599,4.734907,3.091935,24.65283,-0.9282888,-0.2989422,0.213913,45.86788,-2.982898,4.164557,1008.406
10.954049110,5.349211,3.15112,21.77234,-0.9449385,-0.292626,0.2039984,45.8621,-2.988583,3.718277,1008.406
10.986221313,3.260576,3.03275,18.27898,-0.9522478,-0.2872608,0.2026649,45.48917,-4.12093,4.172071,1008.406
11.020864487,2.154829,3.447046,13.43731,-0.9630616,-0.2954991,0.1973958,45.48917,-4.12093,4.172071,1008.406
11.053036690,0.6804992,3.861341,8.350484,-0.9459082,-0.292132,0.2044935,45.49417,-5.258646,4.623936,1008.404
11.085208893,-0.05666573,4.394005,3.263661,-0.9331463,-0.291644,0.2130545,45.11045,-5.258962,4.179588,1008.404
11.119855881,1.110512,4.630745,-1.578014,-0.9404819,-0.2916219,0.2111951,45.11045,-5.258962,4.179588,1008.404
11.152028084,0.9876512,3.683786,-4.581079,-0.9399778,-0.2887083,0.2116964,44.73829,-5.247909,4.627804,1008.404
11.186674595,-0.7324003,1.908235,-6.419689,-0.9364673,-0.275583,0.2165918,44.73804,-5.629042,4.629663,1008.402
11.218843460,-5.032529,0.606165,-7.093846,-0.933617,-0.2717996,0.2055105,44.73804,-5.629042,4.629663,1008.406
11.253489971,-5.032529,-0.2224253,-7.277707,-0.9317234,-0.2858858,0.2053767,45.11623,-5.253277,4.62587,1008.406
11.285662174,-3.312478,-0.5183503,-7.21642,-0.9259149,-0.2806388,0.1971717,45.11623,-5.253277,4.62587,1008.404
11.320309639,-3.865351,-0.8734604,-7.400281,-0.924844,-0.2713695,0.2039862,45.12226,-4.866459,5.07029,1008.404
11.352481365,-4.172503,-0.9326454,-7.64543,-0.9259028,-0.2796606,0.1981437,45.12226,-4.866459,5.07029,1008.404
11.387128830,-3.61963,-0.9918304,-7.155133,-0.9493011,-0.2630798,0.1931967,45.49417,-5.258646,4.623936,1008.404
11.419296741,-4.049643,-1.465311,-6.726124,-0.9428838,-0.2765846,0.2084495,45.11726,-3.728743,4.618427,1008.404
11.453943729,-2.636743,-1.524496,-6.419689,-0.9224066,-0.2650976,0.2006411,45.11726,-3.728743,4.618427,1008.403
11.486115456,-2.022439,-0.7550904,-5.37781,-0.9249132,-0.2694981,0.1948442,44.73303,-4.491326,4.177801,1008.403
11.520762920,0.8647904,-1.346941,-4.152069,-0.9253647,-0.2675282,0.1982387,45.11674,-4.49101,4.622149,1008.403
11.552934647,-0.1795266,-2.234716,-2.497319,-0.9214593,-0.262227,0.195836,45.11674,-4.49101,4.622149,1008.403
11.587582111,-1.715287,-2.057161,0.07673546,-0.922447,-0.2680358,0.1972433,45.11726,-3.728743,4.618427,1008.403
11.619750023,-1.162413,-1.879606,2.834651,-0.9298717,-0.2738975,0.1876242,45.49546,-3.352978,4.614632,1008.403
11.651922226,-1.100983,-1.820421,5.163558,-0.9205781,-0.2763416,0.1913734,45.49546,-3.352978,4.614632,1008.403
11.686569691,-0.7324003,-0.9918304,6.57316,-0.919232,-0.2783903,0.1783299,46.24504,-4.131667,4.168205,1008.403
11.718741417,0.80336,0.01431479,7.002169,-0.9206039,-0.2874872,0.1936917,45.11674,-4.49101,4.622149,1008.407
11.753388882,1.909107,0.1918698,7.002169,-0.9357063,-0.2844875,0.1953034,45.11674,-4.49101,4.622149,1008.407
11.785560608,-0.5481091,-0.1632403,6.205438,-0.9347855,-0.2801904,0.1866542,45.49494,-4.115245,4.618353,1008.407
11.820203781,-1.346704,0.606165,4.857123,-0.9303936,-0.2860151,0.1894572,45.11674,-4.49101,4.622149,1008.407
11.852375507,0.1276255,1.2572,3.0798,-0.9245258,-0.2899019,0.1927444,45.11674,-4.49101,4.622149,1008.407
11.887022972,0.9876512,2.08579,1.731485,-0.9195942,-0.2734379,0.1909061,45.49469,-4.496378,4.620214,1008.407
11.919194698,-0.05666573,3.210305,0.7508927,-0.9161842,-0.2836151,0.1951284,45.87211,-5.264014,4.622002,1008.407
11.953842163,1.479095,3.920526,0.6283187,-0.9191952,-0.2822255,0.184564,45.87211,-5.264014,4.622002,1008.407
11.986014366,1.909107,3.979711,0.8734667,-0.9245202,-0.2797419,0.1884901,45.49443,-4.877512,4.622074,1008.407
12.020657063,0.80336,3.742971,0.9960408,-0.9263828,-0.2738482,0.1962681,45.11097,-4.496695,4.175867,1008.405
12.052829742,-0.4866786,3.920526,0.9347538,-0.9304147,-0.2705601,0.1794628,45.11097,-4.496695,4.175867,1008.405
12.087476254,-1.776717,3.979711,-0.04583859,-0.9347208,-0.2752958,0.1919959,45.12226,-4.866459,5.07029,1008.405
12.119648457,0.9876512,3.979711,-0.5361348,-0.9366787,-0.2728738,0.1901062,45.50624,-4.485009,5.512775,1008.407
12.151820660,1.540525,4.334821,-1.149005,-0.9327264,-0.2699479,0.1944314,45.50624,-4.485009,5.512775,1008.405
12.186467648,2.953424,3.210305,-1.210292,-0.9527671,-0.2722961,0.1917071,45.12201,-5.247592,5.072151,1008.405
12.218635559,2.891994,1.789865,-1.271579,-0.953136,-0.2562276,0.198109,45.50573,-5.247276,5.516497,1008.405
12.253283024,-0.1180961,-0.6367203,-0.9651439,-0.948842,-0.2534372,0.1850779,44.75614,-4.468587,5.962925,1008.405
12.285454750,-2.575313,-2.412271,-0.6587088,-0.9504172,-0.2617517,0.1758661,44.75614,-4.468587,5.962925,1008.407
12.320101738,-1.530996,-3.004121,0.5670316,-0.9549041,-0.2642341,0.1657655,45.88418,-4.490377,5.510841,1008.409
12.352274418,-0.7324003,-3.773526,1.42505,-0.945702,-0.2662778,0.1584328,45.12201,-5.247592,5.072151,1008.409
12.386920929,1.110512,-3.832711,2.834651,-0.9515781,-0.2585301,0.1522855,45.12201,-5.247592,5.072151,1008.409
12.419089794,1.171942,-4.661302,2.895938,-0.9516128,-0.2571108,0.1474776,45.50021,-4.871827,5.068356,1008.409
12.453736305,-0.1180961,-4.720487,3.202374,-0.9580134,-0.2474596,0.1360489,44.74407,-5.242224,5.074085,1008.41
12.485908508,-0.9166915,-4.187821,3.753957,-0.9760315,-0.2415327,0.1377118,44.74407,-5.242224,5.074085,1008.409
12.520555973,-1.100983,-3.004121,4.489401,-0.9692916,-0.2411668,0.126566,45.12201,-5.247592,5.072151,1008.409
12.552727699,-0.1180961,-0.8734604,5.040984,-0.9570789,-0.232995,0.1241094,45.48865,-4.883197,4.175793,1008.409
12.587375164,9.403619,-11.40839,5.347419,-0.95408,-0.2754991,0.153133,45.48865,-4.883197,4.175793,1008.409
12.619542599,63.21666,-4.069451,9.45365,-0.912865,-0.4059884,0.1266087,45.1102,-5.640096,4.18145,1008.413
12.654190063,160.2153,2.381715,15.09206,-0.9169517,-0.3292851,0.1258331,45.48814,-5.645464,4.179516,1008.411
12.718534470,155.7309,13.15339,12.27285,-0.8900753,0.09351373,0.2741498,45.50547,-5.628409,5.518358,1008.413
12.753180981,67.45536,16.29019,9.943947,-0.8960353,0.1040493,0.3147802,45.13408,-4.473955,5.960991,1008.411
12.785353661,31.82572,20.07804,9.943947,-0.9344527,-0.05804168,0.2930764,45.13408,-4.473955,5.960991,1008.411
12.819996834,35.14296,20.96581,11.35355,-0.9763021,-0.07320014,0.3145499,45.15141,-4.456901,7.299831,1008.411
12.852168560,22.85688,17.47389,11.29226,-1.000615,-0.006787704,0.3509923,45.15668,-5.213483,7.749834,1008.411
12.886816025,-10.06982,11.25947,10.74068,-0.9549093,-0.003298373,0.3293866,45.15668,-5.213483,7.749834,1008.411
12.918987751,-15.04569,8.122662,10.6181,-0.9171555,-0.07723425,0.2701028,44.78947,-5.197557,8.580576,1008.411
12.953634739,1.417664,6.938961,8.779493,-0.8981621,-0.07349508,0.2636904,44.41731,-5.186503,9.02879,1008.411
12.985806942,0.9262209,6.583851,8.044049,-0.8841781,0.001197789,0.2656217,44.41731,-5.186503,9.02879,1008.415
13.020450115,-7.182594,6.051186,8.289197,-0.8885893,-0.004079802,0.2077794,44.41184,-5.953643,8.649984,1008.413
13.052621841,1.479095,9.010437,8.166623,-0.8906021,-0.03600356,0.1578891,44.80051,-5.948454,9.476858,1008.413
13.087269306,11.1851,12.50235,7.982761,-0.8830795,0.0004121135,0.1643851,44.80051,-5.948454,9.476858,1008.413
13.119441509,12.47514,14.6922,8.84078,-0.902086,0.01406954,0.160819,44.42231,-6.324219,9.480652,1008.413
13.154088020,16.0381,17.00041,9.821373,-0.9209172,0.02357166,0.1220311,44.42783,-6.699668,9.928793,1008.413
13.186260700,4.550615,19.78211,10.55682,-0.9447363,0.0798686,0.1058475,44.42783,-6.699668,9.928793,1008.413
13.218428612,-0.6709699,21.08418,10.18909,-0.9060286,0.03149956,0.08966359,44.06145,-6.68293,10.82329,1008.413
13.253076077,6.516388,27.77209,13.0083,-1.02809,0.03688359,0.07976095,43.70059,-7.04164,12.16592,1008.411
13.285247803,1.970538,25.10876,14.47919,-1.039234,0.06260429,0.1350249,43.70059,-7.04164,12.16592,1008.413
13.319894791,-5.032529,21.55766,15.21463,-0.9176053,0.03607019,0.04546534,43.32843,-7.030587,12.61414,1008.413
13.352066994,1.417664,24.99039,19.137,-0.9340602,0.08656831,0.0373592,42.95601,-7.400668,13.06421,1008.413
13.386713981,9.096467,29.84356,22.99808,-1.00155,0.03744567,0.04384997,42.59407,-8.141321,14.34496,1008.413
13.418882370,8.482162,32.98037,28.63649,-1.016292,0.0828805,0.009658133,42.59407,-8.141321,14.34496,1008.415
13.453528881,21.50541,40.97034,44.75498,-0.9195791,0.1275292,-0.1176421,42.60562,-8.129951,15.23752,1008.413
13.485701561,79.12714,56.89111,59.58644,-0.8831853,0.006305532,-0.141635,41.86656,-8.864428,16.58395,1008.413
13.520348072,157.9424,67.6036,69.82137,-1.026278,0.05028744,0.05671855,41.86656,-8.864428,16.58395,1008.417
13.552520752,122.497,54.40534,61.36376,-1.113945,0.1885471,0.2428002,39.63256,-10.32264,19.28068,1008.417
13.587167263,18.31103,31.79667,39.72944,-0.9934583,0.1473601,0.1405985,39.67244,-9.902527,22.33903,1008.417
13.619335651,-17.93291,22.32706,20.24017,-1.001979,-0.01126471,-0.0418615,39.67244,-9.902527,22.33903,1008.417
13.653983116,3.137716,16.23101,4.857123,-0.9048836,0.08640383,-0.09112626,37.78826,-10.25113,22.79684,1008.417
13.686154842,1.049082,14.39627,4.673262,-0.8920538,0.4064805,-0.05486728,37.42632,-10.99179,24.07758,1008.417
13.720802307,-59.88989,6.702221,12.64058,-0.8397751,0.3932224,-0.04100442,37.42632,-10.99179,24.07758,1008.419
13.752974033,-90.48224,20.01885,14.78562,-0.8927291,0.1144984,-0.3426118,37.79905,-11.38316,23.69498,1008.421
13.785146713,-7.551176,23.27402,25.63342,-1.017126,0.1822588,-0.1958106,37.0311,-12.14606,22.81001,1008.419
13.819788933,27.46416,15.4616,28.75906,-0.9483364,0.2516466,-0.4060322,37.0311,-12.14606,22.81001,1008.419
13.851961613,72.06264,31.91504,20.79175,-0.9017004,-0.06213103,-0.2793963,37.424,-14.42199,24.09433,1008.419
13.886608124,-0.4866786,7.826736,9.024641,-0.8218128,0.220785,0.2056361,36.67365,-14.7867,24.54634,1008.425
13.918780804,-17.38004,-5.904187,-19.04482,-0.9035603,-0.520982,0.01182193,36.67365,-14.7867,24.54634,1008.426
13.953427792,111.8081,-4.838857,-29.15718,-0.8595225,0.225314,0.01322554,36.30225,-13.63225,24.98897,1008.425
13.985599995,37.41589,-4.957227,-26.95084,-0.7038277,0.3337398,-0.6177887,36.30251,-13.25112,24.98711,1008.425
14.020243168,60.08371,29.72519,2.773365,-0.9997969,0.469715,-0.4215882,36.30251,-13.25112,24.98711,1008.426
14.052414894,-55.71262,12.62072,-7.400281,-0.8713886,0.4133774,-0.1542951,37.81607,-10.60465,24.96635,1008.426
14.087061882,21.87399,8.063477,-20.27056,-0.9515979,0.2681334,-0.22126,37.45046,-9.444515,25.85526,1008.426
14.119234085,-67.81441,-14.78194,-34.48914,-1.068176,0.1445209,-0.2129973,37.45046,-9.444515,25.85526,1008.428
14.153881073,-36.23918,-24.60665,-60.6587,-1.045276,0.162675,-0.1099134,38.2003,-9.842072,25.40697,1008.43
14.186053753,-74.51033,-33.83951,-77.14491,-1.101839,0.1456255,-0.1543522,39.32231,-10.25068,24.51047,1008.433
14.220696449,-42.38222,-52.30524,-64.0295,-1.203975,-0.1164284,-0.2770234,39.32231,-10.25068,24.51047,1008.433
14.252868652,-3.558199,-60.76869,-62.19088,-1.192948,0.04231864,-0.2030356,41.56812,-8.399961,22.70444,1008.433
14.287515163,-4.848238,-71.30363,-57.10406,-1.294319,0.05458593,-0.2511525,42.30222,-7.67036,20.97549,1008.435
14.319687843,29.73709,-77.51806,-56.12346,-0.8928416,0.07061335,0.07202902,42.30222,-7.67036,20.97549,1008.437
14.351860046,-0.240957,-62.7218,-51.7108,-1.19728,-0.344981,0.04975357,44.15328,-5.069062,17.82883,1008.439
14.386734962,4.427754,-63.07691,-41.10814,-1.008723,-0.2431511,-0.09335621,46.01042,-3.223535,15.19592,1008.44
14.418903351,-4.602516,-58.69722,-35.46974,-1.092263,-0.1554822,0.1438438,46.01042,-3.223535,15.19592,1008.44
14.453550815,24.63836,-66.33209,-40.06627,-1.069579,-0.00454299,0.1569265,47.11797,-0.5993173,13.00945,1008.442
14.485722542,11.49225,-63.01772,-52.44624,-1.33058,-0.276356,0.2400249,48.58955,-0.2794518,9.875887,1008.446
14.520370006,23.71691,-67.27905,-66.3584,-1.276083,-0.2745033,0.4525755,48.94622,2.423897,8.075497,1008.448
14.552541733,-5.09396,-97.16748,-69.91305,-0.4737172,0.1923054,-0.05330648,48.94622,2.423897,8.075497,1008.448
14.587188721,97.49483,-64.20143,-47.48199,-0.7520074,-0.3215849,0.4125932,48.53045,5.058218,5.004196,1008.448
14.619356632,-66.83153,-45.7357,-28.23787,-1.019222,-0.5617039,0.3215271,48.12022,7.317091,2.381035,1008.448
14.654004097,75.99419,-62.78098,-25.29609,-0.9454551,0.08471892,0.4828178,48.12022,7.317091,2.381035,1008.45
14.686176777,-14.12423,-69.46889,-30.99579,-0.9124596,-0.4859669,0.3298313,48.83194,10.30994,-1.207964,1008.45
14.720823288,8.236441,-51.59502,-18.12551,-0.8940133,-0.3083438,0.4646374,48.43196,10.67452,-2.929258,1008.45
14.752995491,10.20221,-41.0009,-9.974336,-0.7183544,-0.2759421,0.5625573,48.43196,10.67452,-2.929258,1008.452
14.787642002,22.18114,-34.13544,0.9347538,-0.9188874,-0.3860997,0.5620744,48.40384,11.78949,-5.166244,1008.452
14.819810867,9.710771,-38.2192,-2.06831,-0.6563748,-0.1510389,0.5605987,47.6251,12.15862,-6.949359,1008.452
14.851982594,17.94245,-27.21079,6.266725,-0.786504,-0.37551,0.5729764,47.6251,12.15862,-6.949359,1008.45
14.886630058,9.342189,-33.07011,0.9347538,-0.6553905,-0.2104031,0.4159823,47.98654,12.13701,-8.22638,1008.452
14.918801784,15.85381,-22.53518,4.857123,-0.7616042,-0.3350028,0.554762,47.59704,12.13101,-9.117008,1008.452
14.953448772,16.8367,-19.63511,0.01544843,-0.8529097,-0.1900084,0.4787253,47.59704,12.13101,-9.117008,1008.452
14.985621452,6.147806,-17.85956,-2.558607,-0.7666171,-0.1664085,0.5735507,47.20781,12.50614,-10.0095,1008.453
15.020264149,11.43082,-15.07786,-4.826226,-0.8163831,-0.3735292,0.5588115,47.20203,12.50046,-10.45578,1008.453
15.052436352,14.99379,-13.89416,-8.687308,-0.8720156,-0.2610659,0.5043458,47.20203,12.50046,-10.45578,1008.455
15.087083340,-9.88553,-13.95335,-4.458504,-0.6805963,-0.180737,0.5962479,47.18418,11.72114,-11.7909,1008.459
15.119255543,15.79238,-11.11247,4.611975,-0.6879195,-0.4305593,0.4843607,46.42252,11.72619,-12.23331,1008.459
15.153903008,26.60413,-8.153216,6.389299,-0.8369834,-0.2198222,0.5882268,46.42252,11.72619,-12.23331,1008.455
15.186074734,11.79941,-8.567512,-1.087718,-0.86733,-0.2270456,0.6390604,46.80097,12.48309,-12.23897,1008.459
15.220717907,5.533502,-8.745067,-11.75166,-0.863446,-0.2415901,0.6437243,46.41731,11.34018,-12.61398,1008.459
15.252889633,14.0109,-6.436852,-28.17658,-0.8879887,-0.1618849,0.7043783,46.41731,11.34018,-12.61398,1008.459
15.287537098,21.75113,3.861341,-43.62091,-0.8674916,-0.1818118,0.7141448,46.03988,12.10782,-12.61576,1008.457
15.319708824,28.81563,2.32253,-45.15309,-0.8662976,-0.2284871,0.7045909,45.65616,12.1075,-13.06011,1008.457
15.354356289,43.74322,3.447046,-43.74348,-0.6892704,-0.1032972,0.6880651,45.65616,12.1075,-13.06011,1008.457
15.386528492,78.20568,-5.016412,-28.85074,-0.6652049,-0.1478392,0.8441231,45.65771,14.3943,-13.07127,1008.457
15.418696403,120.4084,0.842905,-21.80273,-0.5513013,0.1345919,0.8473167,44.52415,14.79154,-13.06733,1008.456
15.453343868,119.6712,-3.359231,-3.171477,-0.4611744,0.0536954,0.9263027,44.52415,14.79154,-13.06733,1008.456
15.485515594,140.6804,3.683786,8.411771,-0.4632807,0.2561802,0.8099018,44.12361,15.53644,-14.85424,1008.456
15.520163059,128.8243,23.68832,8.289197,-0.5221152,-0.1303729,0.5575883,43.3441,14.76217,-16.63178,1008.456
15.552334785,157.4509,51.09098,1.057328,-0.5527377,-0.1402275,0.5187508,42.95312,11.32678,-17.4419,1008.456
15.586981773,152.045,65.41375,-10.70978,-0.5875024,-0.0812787,0.650665,42.95312,11.32678,-17.4419,1008.454
15.619149685,129.9915,61.6851,-23.88649,-0.6243935,-0.2350995,0.6323892,43.72948,8.670034,-15.71138,1008.454
15.653797150,146.8849,60.61977,-38.10508,-0.6842374,-0.2524557,0.5460446,43.73975,6.775736,-14.80951,1008.454
15.685969353,122.3127,56.71356,-54.40742,-0.7387978,-0.1539333,0.50977,43.73975,6.775736,-14.80951,1008.454
15.720616341,121.207,54.46453,-59.37168,-0.6497598,-0.105219,0.3382309,43.76209,5.655075,-13.01881,1008.452
15.752788544,109.4738,61.32999,-60.96514,-0.6021165,-0.04893073,0.1150847,43.77912,6.433585,-11.74744,1008.456
15.787435055,55.415,75.71194,-77.6965,-0.6392499,-0.1682297,0.1674676,43.77912,6.433585,-11.74744,1008.454
15.819603920,31.33428,56.35845,-74.63215,-1.362859,-0.3911286,0.6939054,43.81404,6.848828,-9.071618,1008.454
15.854250908,77.34566,38.18865,-70.89364,-1.30977,0.3481154,-0.02494076,43.45994,9.162926,-7.359481,1008.454
15.886422634,-77.15183,4.098081,-73.52898,-1.426938,-0.02440351,0.4984609,43.45994,9.162926,-7.359481,1008.452
15.918595314,-5.892555,1.434755,-73.34512,-0.9973377,-0.2118899,0.3174588,43.09985,9.947615,-6.022427,1008.451
15.953241825,-133.0535,-10.28388,-66.17454,-0.8296405,-0.01807728,0.3189378,42.3518,13.01311,-5.587164,1008.452
15.985414505,-1.469565,-9.928767,-65.43909,-0.7509459,-0.6533875,0.06039827,42.3518,13.01311,-5.587164,1008.451
16.020057201,-59.09129,-17.74119,-47.78843,-0.9730181,0.06053689,0.3503258,41.23737,16.09533,-4.257407,1008.451
16.052229404,-25.05884,-26.32302,-49.87219,-0.9525482,-0.5022759,0.3291069,40.47701,18.00605,-4.709124,1008.451
16.086876869,9.280758,-21.2331,-45.0918,-0.9163049,-0.1054749,0.3850599,40.47701,18.00605,-4.709124,1008.451
16.119048595,-18.48579,-11.94106,-47.11427,-0.7803267,-0.3214211,0.3526089,39.71638,19.53564,-5.158979,1008.451
16.153696060,-26.53317,2.4409,-45.39824,-0.7533039,-0.2431992,0.5689374,38.19961,20.69483,-5.603106,1008.451
16.185867786,-1.838148,15.81671,-42.82418,-1.000257,-0.4550651,0.3781412,38.19961,20.69483,-5.603106,1008.451
16.220510960,3.199146,22.20869,-38.71795,-0.7762231,-0.05351112,0.4791351,37.82848,22.23042,-5.162335,1008.451
16.252682686,-16.39715,26.64757,-33.14083,-0.8208225,-0.7335479,0.3206692,37.07285,22.62229,-5.160328,1008.451
16.287330151,1.601955,31.08644,-30.50549,-0.8545526,-0.1142808,0.478883,37.07285,22.62229,-5.160328,1008.455
16.319502831,-44.77801,38.89887,-29.09589,-0.823652,-0.5584291,0.3057513,36.71328,24.16924,-3.826996,1008.453
16.354149341,-23.40022,37.30087,-21.61887,-0.9056706,-0.3709505,0.2690202,35.21885,24.20777,-2.480418,1008.453
16.386321545,-46.86664,41.26627,-26.58312,-0.903676,-0.5482792,0.1855998,35.21885,24.20777,-2.480418,1008.453
16.420964241,-20.26727,37.06413,-11.13879,-0.8194583,-0.5633922,0.1683014,35.62037,26.13,-0.7702885,1008.451
16.453136921,-13.01848,39.72746,-1.761875,-0.8071259,-0.4004069,0.163264,34.13776,26.56103,1.46699,1008.45
16.485308647,7.192123,36.47228,10.67939,-1.018648,-0.6644788,0.1490827,34.13776,26.56103,1.46699,1008.45
16.519955635,4.919198,25.70061,9.637511,-0.9132443,-0.2415484,0.1761678,34.15535,26.95922,2.80397,1008.448
16.552128315,7.990719,21.85358,17.29839,-0.8489538,-0.6258235,0.1728819,33.78159,25.82606,3.194012,1008.448
16.586774826,9.833632,9.957397,17.84997,-0.9407548,-0.2618141,0.04804556,34.93274,25.82701,4.527054,1008.448
16.618943691,-20.69728,1.37557,19.01443,-0.8199155,-0.6706394,0.1076536,34.93274,25.82701,4.527054,1008.448
16.653590202,34.95867,-1.287755,30.16866,-0.785477,-0.2098637,0.1501728,34.93274,25.82701,4.527054,1008.452
16.685762405,2.769133,2.914381,27.1656,-0.9575415,-0.5887643,0.1250367,35.2981,24.28574,3.640001,1008.452
16.720409870,20.33823,-2.589826,34.02975,-1.059824,-0.3787285,0.1050687,35.2981,24.28574,3.640001,1008.452
16.752581596,-25.366,-7.028702,34.88777,-0.9025607,-0.4784485,0.05216921,35.68182,24.28605,4.084347,1008.452
16.787229061,35.51154,-0.1040552,50.3321,-0.9101202,-0.2757554,0.2741845,36.79702,22.34722,2.749008,1008.452
16.819396973,-9.70124,12.50235,54.19318,-1.018348,-0.3982436,0.05583884,36.79702,22.34722,2.749008,1008.452
16.854043961,59.03939,9.602287,69.39236,-0.9090959,-0.2297772,0.257684,37.56367,21.20446,3.643284,1008.452
16.886215687,3.75202,14.33709,70.74067,-0.8657654,-0.1826577,0.1646423,38.68625,20.41553,2.812397,1008.454
16.920863152,32.1943,7.175701,81.52718,-1.017101,-0.3443255,0.0620557,38.68625,20.41553,2.812397,1008.454
16.953035831,-8.841214,7.945107,75.39848,-1.064109,0.04090389,0.26329,39.82322,17.73636,3.202147,1008.454
17.019850731,-11.05271,8.655327,70.92453,-0.7812211,-0.01334603,0.2712891,40.94528,16.18516,2.374981,1008.454
17.052022457,33.66863,30.19867,76.7468,-0.7827784,0.1398303,0.2441285,42.07126,13.1143,1.937784,1008.454
17.086669922,3.444868,20.25559,67.98276,-1.031428,0.01472786,0.09985341,42.83716,10.82813,2.837643,1008.454
17.118841648,9.772202,7.353256,56.58337,-1.144696,0.1570394,-0.1495202,42.83716,10.82813,2.837643,1008.454
17.153488636,-0.4252482,-8.981807,39.30043,-0.9802154,0.01344436,0.1552769,43.60197,8.160021,3.675608,1008.455
17.185661316,6.76211,-10.69817,28.63649,-1.07434,0.2601017,0.04299077,43.96763,5.857295,2.856031,1008.457
17.220304012,-21.18873,-20.99636,13.31473,-0.9504887,-0.08479308,0.02356779,43.96763,5.857295,2.856031,1008.459
17.252476692,6.884971,-23.30458,12.57929,-0.8712039,0.3335698,0.1969048,43.58866,4.338129,2.865408,1008.459
17.287123203,-15.4757,-18.8657,8.289197,-1.048819,-0.07541389,0.1065025,44.33273,3.934889,1.97084,1008.459
17.319295406,9.833632,-29.99249,11.41483,-0.8598207,0.338011,0.2137052,44.33273,3.934889,1.97084,1008.459
17.353942871,-16.09,-23.95562,8.595633,-0.995792,0.02661395,0.1536028,44.70438,3.161568,1.526348,1008.459
17.386114597,7.806427,-30.93945,15.45978,-0.9411839,0.2902535,0.1364688,44.68152,3.519962,-0.2606373,1008.457
17.420757770,-9.455518,-26.91487,10.25038,-0.9854116,0.1122379,0.1860238,44.68152,3.519962,-0.2606373,1008.457
17.452929973,-7.919759,-26.91487,9.45365,-0.9802281,0.1753911,0.1334761,44.68126,3.138829,-0.2587757,1008.455
17.487576961,-2.20673,-19.45755,4.734549,-0.8397143,0.1624658,0.3103983,44.291,1.989427,-1.143821,1008.455
17.519748688,0.1890559,-14.1309,3.570096,-0.9738607,0.1729258,0.1955743,44.291,1.989427,-1.143821,1008.455
17.551921368,4.673476,-20.81881,3.69267,-0.8806719,0.1777656,0.1908887,44.65268,2.34895,-2.422702,1008.455
17.586568832,0.4347776,-13.18394,-6.664837,-1.037696,0.1911073,0.3722497,44.64665,1.962131,-2.867123,1008.455
17.618736267,-6.261137,-5.963372,-8.135725,-1.014356,0.1058433,0.345301,44.64665,1.962131,-2.867123,1008.455
17.653383732,19.84679,0.54698,-8.809882,-0.8887923,0.2295963,0.3610556,44.64061,1.575313,-3.311543,1008.459
17.685555458,-3.988212,10.96354,-15.24502,-0.9355307,0.09750481,0.3218428,44.26293,1.961815,-3.311469,1008.459
17.720202923,10.75509,1.316385,-8.748595,-0.9710535,0.1004155,-0.0161654,45.00725,1.939708,-4.207898,1008.461
17.752374649,-5.401112,-3.240861,-16.10304,-0.8669985,0.2868062,0.4297678,45.00725,1.939708,-4.207898,1008.461
17.787022114,21.32112,1.02046,-4.090782,-1.143687,0.05953133,0.4246919,45.0138,3.088794,-3.7672,1008.459
17.819190502,25.25266,-14.19009,-11.50651,-1.205645,0.2132957,0.119986,44.63586,3.094162,-3.765266,1008.461
17.853837013,37.90733,-20.58207,-41.35329,-1.151739,0.1927002,0.5053948,44.63586,3.094162,-3.765266,1008.461
17.886009693,106.8323,-47.57043,-59.00395,-1.241425,0.02012445,0.6016909,44.24637,3.088161,-4.655893,1008.461
17.920656681,98.53915,-113.9168,-64.39722,-0.8767411,0.2612764,1.141562,44.23083,5.739041,-6.00776,1008.461
17.952828407,-80.65337,-192.337,-81.68015,-0.5365356,-0.1468782,1.114778,44.23083,5.739041,-6.00776,1008.461
17.987475872,-199.8284,-216.3069,-122.1296,-0.2136936,-0.5212814,0.9216633,43.41928,7.599409,-10.41225,1008.461
18.019643784,-174.089,-203.227,-141.006,-0.2391667,-0.5977578,0.3660071,41.08596,11.75668,-15.71273,1008.461
18.054290771,-63.02283,-168.8997,-172.5688,-0.1842826,-0.9888418,0.291899,41.08596,11.75668,-15.71273,1008.461
18.086462975,43.80465,-119.5986,-156.5116,-0.2440242,-0.4391399,0.3500081,36.13332,19.40529,-19.16754,1008.459
18.118635178,-55.71262,-91.72246,-141.6801,-0.3528018,-0.1118526,0.4877172,30.03371,25.91441,-23.56728,1008.463
18.153282642,-47.35809,-47.21532,-132.1806,-0.4869453,-0.8797491,0.4595023,30.03371,25.91441,-23.56728,1008.46
18.185454369,63.52382,-11.29002,-128.0744,-0.6093953,-0.8168019,0.5498517,23.53727,30.56881,-24.44897,1008.46
18.220097542,52.52777,9.365547,-100.7404,-0.7269344,-0.06986212,0.7195402,18.23162,34.81938,-25.78121,1008.46
18.252269745,-6.138277,0.4877949,-87.625,-0.7720892,-0.5368533,0.6823716,18.23162,34.81938,-25.78121,1008.456
18.286916733,66.84106,5.459336,-67.09384,-0.9371212,-0.5744671,0.9226732,13.3071,35.25893,-26.65049,1008.454
18.319088459,29.42993,-3.595971,-59.67811,-0.9165127,-0.202193,0.872048,9.8849,37.57212,-28.36562,1008.452
18.353735924,-56.2655,2.736825,-43.25319,-0.6488255,-0.05519481,0.6577183,9.8849,37.57212,-28.36562,1008.451
18.385908127,-38.14352,6.169556,-32.52796,-0.9258152,-0.614435,0.7193164,6.849055,36.4603,-29.23713,1008.451
18.420550823,13.2123,3.861341,-28.91203,-0.7766713,-0.42013,0.8356885,4.222613,39.18287,-27.89777,1008.452
18.452723503,-17.44147,-4.010266,-26.15411,-0.6932929,-0.3238931,0.7807559,4.222613,39.18287,-27.89777,1008.452
18.487370014,4.489185,3.447046,-26.82827,-0.5502992,-0.4743873,0.6803351,2.337869,39.21459,-27.50557,1008.452
18.519542694,37.17016,4.8083,-24.56065,-0.4622316,-0.3847838,0.8383478,1.588536,40.37441,-27.06101,1008.452
18.554189682,2.031968,-14.24927,-27.99272,-0.4267392,-0.3962769,0.9444438,1.588536,40.37441,-27.06101,1008.452
18.586361408,-9.209796,-18.45141,-29.89262,-0.3154981,-0.4548027,0.8537533,0.4379549,39.99314,-28.32843,1008.452
18.618530273,-18.48579,-21.70658,-37.92122,-0.375415,-0.532746,0.9042798,-0.3181839,39.62274,-28.3227,1008.451
18.653176784,7.867858,-30.64352,-41.53715,-0.2644424,-0.5219568,0.8642914,-0.3181839,39.62274,-28.3227,1008.449
18.685349464,21.75113,-28.92716,-40.31141,-0.2240904,-0.5072304,0.7228104,-1.823906,40.03104,-27.87055,1008.449
18.719995975,30.04424,-32.715,-32.22152,-0.1601479,-0.3520117,0.9399111,-3.335665,40.05251,-27.86281,1008.449
18.752168179,9.833632,-43.90096,-14.387,-0.1193349,-0.3498102,0.6850528,-4.487589,38.90816,-29.19027,1008.449
18.786815643,-7.919759,-44.07852,13.80503,-0.04860668,-0.2884425,0.8839645,-4.487589,38.90816,-29.19027,1008.449
18.818983555,-47.54238,-46.68266,9.392364,-0.142666,-0.7605686,0.778766,-6.383837,37.78592,-29.6213,1008.449
18.853630543,3.81345,-38.33757,-12.11938,-0.155398,-0.8610908,0.7640781,-6.738408,38.19516,-27.83611,1008.449
18.885802746,-2.20673,-33.07011,-30.32163,-0.02228501,-0.5152825,0.8158148,-6.738408,38.19516,-27.83611,1008.447
18.920449734,-20.88157,-16.32075,-38.53409,0.06384389,-0.6878989,0.5793363,-7.505328,38.95679,-28.72852,1008.447
18.952622414,37.96876,0.2510549,-31.60866,0.1007587,-0.5328301,0.9485179,-8.250166,38.21663,-27.82837,1008.447
18.987268925,-10.19268,-3.359231,-18.24809,0.09323344,-0.3893231,0.7964954,-8.250166,38.21663,-27.82837,1008.447
19.019437313,23.71691,9.957397,-3.845634,0.2177909,-0.7706985,0.7044652,-9.767188,38.99469,-28.27064,1008.451
19.054083824,94.11616,16.88204,15.45978,0.2105519,-0.3003748,0.9513378,-10.15142,38.23211,-28.71126,1008.449
19.086256504,11.36939,9.602287,23.73353,0.08269642,-0.2957974,0.8330327,-10.15142,38.23211,-28.71126,1008.447
19.120903492,30.35139,13.98198,23.61095,0.0670879,-0.6380053,0.8833771,-9.431238,36.66272,-31.38537,1008.447
19.153075695,34.34436,7.057331,12.57929,-0.02062554,-0.5061857,1.24148,-8.687172,36.25948,-32.27994,1008.447
19.185247898,21.44398,0.01431479,2.589503,0.009506017,-0.4926473,0.8132948,-8.687172,36.25948,-32.27994,1008.447
19.219890595,48.10478,11.61458,8.963354,-0.03777827,-0.2565335,0.9376284,-7.942281,35.85706,-33.11075,1008.447
19.252063274,-1.469565,1.789865,1.241189,-0.1488346,-0.4206902,1.041905,-7.582447,34.69123,-34.44595,1008.447
19.286709786,19.60107,1.96742,-1.45544,-0.04770243,-0.3175267,0.8895003,-7.582447,34.69123,-34.44595,1008.447
19.318882465,0.3119168,1.84905,-2.803755,-0.08853571,-0.4071231,0.9518025,-7.2108,33.91791,-34.89044,1008.446
19.353529453,-0.7324003,-1.583681,-3.171477,-0.07187591,-0.3728103,0.943254,-7.216836,33.53109,-35.33486,1008.444
19.385701179,-2.268161,1.49394,-4.274643,-0.06219898,-0.4985874,0.8780209,-7.216836,33.53109,-35.33486,1008.446
19.420344353,22.42687,1.316385,-1.761875,-0.03568584,-0.408665,0.9117727,-7.222871,33.14428,-35.77928,1008.446
19.452516556,13.51946,-1.051015,0.5057446,-0.02719035,-0.3606887,0.970411,-7.222614,33.52541,-35.78114,1008.447
19.487163544,9.465049,-3.418416,-3.906921,-0.07357711,-0.4513195,0.8949047,-7.222614,33.52541,-35.78114,1008.447
19.519336223,14.50234,-5.726632,-4.397217,-0.0275369,-0.2966892,0.8981599,-7.612366,33.13828,-36.66991,1008.447
19.553982735,-0.5481091,-7.206257,-7.82929,-0.06970806,-0.3151163,0.9991393,-7.607103,32.38169,-36.2199,1008.447
19.586155414,-6.261137,-8.389956,-6.542263,-0.02167376,-0.2478712,0.8753716,-7.607103,32.38169,-36.2199,1008.449
19.620797634,-44.10227,-11.23084,-5.010087,-0.02801403,-0.3581275,0.9873097,-7.985042,32.38706,-36.21797,1008.449
19.652970314,-48.03382,-13.95335,-9.606614,-0.04637109,-0.4999228,0.9038901,-7.985042,32.38706,-36.21797,1008.449
19.685142040,-18.17864,-10.52062,-11.0775,-0.01566179,-0.4251161,0.8054104,-7.985042,32.38706,-36.21797,1008.451
19.719789505,-5.708264,-4.898042,-8.564734,0.03408061,-0.4641163,0.8783706,-8.722816,33.55825,-34.88084,1008.451
19.751962185,-7.735467,-3.595971,-5.071374,-0.005008174,-0.4079479,0.9616203,-9.089199,33.57499,-33.98635,1008.451
19.786608696,-19.10009,-5.075597,-3.171477,0.02589482,-0.419003,0.8696609,-9.839044,33.97255,-33.53806,1008.451
19.818777084,-13.14134,-2.057161,0.1993095,0.05527806,-0.4577024,0.8425578,-9.839044,33.97255,-33.53806,1008.453
19.853424072,-3.373908,-0.2816103,1.363763,0.01393568,-0.5308742,0.8943962,-9.449548,33.97855,-32.64743,1008.453
19.885596275,3.137716,0.4877949,-0.9651439,0.003192803,-0.4955267,0.8764719,-9.448776,35.12195,-32.65302,1008.453
19.920243263,7.437845,2.618455,-3.171477,-0.000123274,-0.4567334,0.8695927,-9.448776,35.12195,-32.65302,1008.453
19.952415466,-8.841214,2.55927,-6.480976,-0.01475031,-0.4131652,0.9081663,-9.832494,35.12163,-33.09736,1008.453
19.987062454,-36.73063,1.96742,-6.358402,-0.006344768,-0.3855432,0.9078336,-9.833319,35.12082,-33.16112,1008.455
20.019230366,-46.3752,2.32253,-5.929393,0.02018549,-0.4879536,0.8623978,-9.833319,35.12082,-33.16112,1008.455
20.053877354,-26.41031,2.32253,-4.029495,0.03231315,-0.5576764,0.8294159,-9.815213,36.28127,-31.82786,1008.455
20.086050034,-10.00839,2.914381,-2.619894,0.0212133,-0.5415502,0.8364004,-9.803143,37.05491,-30.93902,1008.455
20.120696545,-3.312478,2.32253,-1.210292,0.01930788,-0.5352117,0.8388804,-9.803143,37.05491,-30.93902,1008.459
20.152869225,-5.401112,0.842905,-1.578014,0.002326841,-0.5321357,0.8491862,-9.797108,37.44173,-30.4946,1008.457
20.187516213,-0.5481091,0.606165,-1.271579,0.003153367,-0.550652,0.8403499,-9.797108,37.44173,-30.4946,1008.457
20.219684124,3.076285,0.606165,-0.5974218,0.009212235,-0.5161632,0.8478076,-9.797108,37.44173,-30.4946,1008.457
20.251856804,0.80336,-0.04487023,-0.5361348,-0.005877783,-0.5160536,0.8522874,-10.54721,37.45815,-30.04445,1008.457
20.286503315,-1.039552,-0.5183503,-1.394153,0.01018217,-0.5185913,0.8482605,-9.791329,37.44741,-30.04832,1008.457
20.318675995,-1.899578,-0.6367203,-0.8425699,0.007752337,-0.5142179,0.8473553,-9.791329,37.44741,-30.04832,1008.459
20.353322506,-4.295364,-0.5775353,-1.149005,0.01156121,-0.5283473,0.8428653,-10.1753,37.06597,-30.4908,1008.459
20.385495186,0.2504863,-0.3407953,-0.4135607,0.01342679,-0.5501961,0.8431498,-10.16953,37.07165,-30.04452,1008.459
20.420138359,6.884971,0.54698,0.01544843,0.01122401,-0.4967757,0.8455387,-10.16953,37.07165,-30.04452,1008.457
20.452310085,2.523412,0.4877949,0.5057446,0.01768699,-0.4913797,0.8570908,-10.1753,37.06597,-30.4908,1008.457
20.486957550,-2.943895,-0.1040552,-0.4135607,0.01219581,-0.5359535,0.8640047,-10.16927,37.45279,-30.04638,1008.455
20.519129276,-2.698174,-0.04487023,-1.087718,0.008690313,-0.5273136,0.8491666,-10.16927,37.45279,-30.04638,1008.455
20.553776264,-2.391021,-0.1040552,-1.332866,0.007185481,-0.5205736,0.8410422,-10.1753,37.06597,-30.4908,1008.455
20.585948944,-3.558199,-0.04487023,-1.45544,0.008655658,-0.5249273,0.8438846,-10.16953,37.07165,-30.04452,1008.455
20.620591640,-3.61963,-0.1632403,-0.9651439,0.006754844,-0.5292233,0.8520609,-10.16953,37.07165,-30.04452,1008.459
20.652763843,-2.698174,-0.1632403,-0.6587088,0.007546373,-0.5385837,0.8346244,-10.55324,37.07133,-30.48887,1008.455
20.687410355,0.1276255,0.3102399,-0.4135607,0.007056607,-0.542935,0.8365211,-9.791329,37.44741,-30.04832,1008.453
20.719583034,1.970538,0.2510549,-0.5361348,0.004297159,-0.5364808,0.85347,-9.791329,37.44741,-30.04832,1008.453
20.751755238,0.7419296,-0.6367203,-0.4135607,0.007215877,-0.5190952,0.8439461,-9.791073,37.82854,-30.05018,1008.453
20.786402225,-0.5481091,-0.3407953,0.1993095,0.02090507,-0.5205907,0.847662,-10.16901,37.83392,-30.04824,1008.452
20.818570614,-1.223844,0.01431479,0.2605965,0.006612851,-0.5332209,0.8370873,-10.16901,37.83392,-30.04824,1008.456
20.853217125,-0.4866786,-0.2224253,-0.2909867,0.01398082,-0.5312793,0.8418546,-10.16953,37.07165,-30.04452,1008.454
20.885389805,1.171942,0.54698,-0.1684126,0.02079201,-0.5342335,0.8408026,-10.17556,36.68483,-30.48894,1008.454
20.920037270,3.322007,0.4286099,-0.2909867,0.01250051,-0.5274183,0.8380442,-9.791073,37.82854,-30.05018,1008.454
20.952208996,2.830564,0.4877949,-0.2909867,0.01210756,-0.5181416,0.8448723,-9.791073,37.82854,-30.05018,1008.456
20.986855984,1.294803,0.3694249,-0.2909867,0.007315335,-0.517554,0.8550439,-10.17505,37.4471,-30.49266,1008.454
21.019023895,-0.4866786,0.1326848,-0.5361348,0.005302924,-0.5243693,0.8511505,-9.791587,37.06628,-30.04646,1008.454
21.053671360,-0.4866786,0.0734998,-0.4748478,0.01064438,-0.5316736,0.8515224,-9.791587,37.06628,-30.04646,1008.454
21.085843563,-1.653857,-0.3407953,-0.4135607,0.008198295,-0.5273149,0.8486892,-10.1753,37.06597,-30.4908,1008.454
21.120490551,-0.6709699,-0.4591653,-0.3522737,0.007173637,-0.5273543,0.8429144,-9.797108,37.44173,-30.4946,1008.454
21.152662754,-0.1180961,-0.3999803,-0.1684126,0.009649823,-0.5244321,0.8458074,-9.797108,37.44173,-30.4946,1008.454
21.187309265,-0.5481091,-0.4591653,-0.4135607,0.01110581,-0.5292824,0.8471999,-10.16953,37.07165,-30.04452,1008.452
21.219478130,-0.6709699,-0.1632403,-0.2909867,0.01545863,-0.5259548,0.8409206,-9.791587,37.06628,-30.04646,1008.452
21.254125118,-0.6095394,-0.3407953,0.01544843,0.008177885,-0.5253992,0.8453312,-9.791587,37.06628,-30.04646,1008.456
21.286296845,0.3733472,-0.2224253,-0.2296997,0.007602856,-0.5307952,0.83758,-10.54695,37.83928,-30.04631,1008.456
21.318469524,-0.05666573,-0.3407953,-0.1071256,0.01794519,-0.5273752,0.8471518,-10.1753,37.06597,-30.4908,1008.454
21.353116035,-1.346704,-0.2816103,-0.1071256,0.01255533,-0.5268849,0.8443141,-10.1753,37.06597,-30.4908,1008.453
21.385288715,-0.1180961,0.1326848,-0.2296997,0.01830574,-0.5386156,0.8374157,-10.54772,36.69588,-30.04073,1008.453
21.419931888,0.3733472,0.4286099,-0.1071256,0.009631714,-0.5278336,0.8452976,-9.785809,37.07197,-29.60017,1008.453
21.452103615,0.1890559,0.01431479,-0.3522737,0.008621201,-0.5264094,0.8404987,-9.785809,37.07197,-29.60017,1008.453
21.486751079,-0.7938307,-0.5775353,-0.1684126,0.01358615,-0.5282906,0.8515229,-10.1753,37.06597,-30.4908,1008.453
21.518922806,-1.100983,-0.6959053,-0.2296997,0.01590194,-0.526965,0.8360882,-9.791073,37.82854,-30.05018,1008.453
21.553570270,-1.408135,-0.3999803,-0.04583859,0.01436359,-0.5400817,0.8335844,-9.791073,37.82854,-30.05018,1008.453
21.585742474,1.110512,0.0734998,0.1380225,0.02119103,-0.5430211,0.8344605,-10.16953,37.07165,-30.04452,1008.453
21.620385170,0.6804992,0.1326848,-0.1684126,0.01693037,-0.5211193,0.8395007,-10.16901,37.83392,-30.04824,1008.453
21.652557850,0.2504863,0.01431479,0.01544843,0.01548907,-0.5254435,0.8442986,-10.16901,37.83392,-30.04824,1008.453
21.687204361,0.1890559,0.01431479,-0.04583859,0.01547527,-0.5336767,0.8466408,-10.5535,36.6902,-30.48701,1008.453
21.719376564,-0.3023874,-0.1040552,-0.1684126,0.008155811,-0.5307385,0.8452874,-10.16901,37.83392,-30.04824,1008.453
21.754024029,0.9262209,-0.2224253,-0.2909867,0.01398664,-0.5259548,0.8399704,-10.16901,37.83392,-30.04824,1008.453
21.786195755,0.9262209,-0.2224253,-0.1071256,0.006740355,-0.5239171,0.8477668,-10.16953,37.07165,-30.04452,1008.453
21.820838928,-0.1180961,-0.4591653,-0.5361348,0.01499926,-0.5288277,0.8457212,-10.54721,37.45815,-30.04445,1008.453
21.853011131,0.2504863,-0.5183503,-0.1071256,0.01163997,-0.5190879,0.8477609,-10.54721,37.45815,-30.04445,1008.453
21.885183334,0.004764684,-0.2224253,0.07673546,0.01594521,-0.5390148,0.8470744,-10.16927,37.45279,-30.04638,1008.453
21.919830799,1.417664,0.1326848,0.01544843,0.01636998,-0.5347227,0.8374659,-10.5535,36.6902,-30.48701,1008.451
21.952002525,0.3733472,0.0734998,0.1380225,0.01408566,-0.5157098,0.8468019,-10.16953,37.07165,-30.04452,1008.449
21.986649990,-0.240957,0.0734998,0.07673546,0.01791494,-0.5317548,0.8456699,-10.16953,37.07165,-30.04452,1008.449
22.018817902,0.2504863,0.606165,-0.2296997,0.0154668,-0.5269145,0.8423586,-10.54772,36.69588,-30.04073,1008.449
22.053464890,-1.408135,0.2510549,-0.2909867,0.005278646,-0.5263256,0.8492066,-10.17505,37.4471,-30.49266,1008.447
22.085637569,-1.408135,-0.1632403,-0.4135607,0.01057307,-0.5273863,0.8409544,-10.17505,37.4471,-30.49266,1008.451
22.120284081,-1.223844,-0.2816103,-0.2909867,0.0184167,-0.5235241,0.8433231,-10.92541,37.08239,-30.04065,1008.45
22.152456760,-0.7938307,-0.04487023,-0.3522737,0.013017,-0.5293292,0.8423616,-9.791587,37.06628,-30.04646,1008.451
22.187103748,-0.3638178,0.1918698,0.01544843,0.01590444,-0.5361505,0.8408324,-9.791587,37.06628,-30.04646,1008.451
22.219271660,0.004764684,0.2510549,0.01544843,0.007663598,-0.5268714,0.8429138,-10.54721,37.45815,-30.04445,1008.45
22.253918648,0.9262209,0.3102399,-0.1071256,0.01933201,-0.5303541,0.8394022,-10.16349,37.45847,-29.6001,1008.45
22.286090851,-0.1180961,0.1326848,0.01544843,0.01558883,-0.5297049,0.8582405,-10.16349,37.45847,-29.6001,1008.45
22.320737839,-1.469565,-0.2224253,0.1380225,0.01109347,-0.5263922,0.8443318,-9.791329,37.44741,-30.04832,1008.448
22.352910042,-1.285274,-0.1040552,0.2605965,0.006588819,-0.5400128,0.8375135,-10.16978,36.69052,-30.04266,1008.45
22.385082245,0.5576384,-0.3407953,-0.2296997,0.01198451,-0.5351785,0.8384671,-10.16978,36.69052,-30.04266,1008.45
22.419725418,0.496208,-0.1040552,0.1380225,0.01152876,-0.529344,0.8394833,-10.1753,37.06597,-30.4908,1008.45
22.451897621,0.6190688,0.3102399,0.1993095,0.01302728,-0.5317376,0.8447517,-10.54747,37.07702,-30.04259,1008.45
22.486544609,-0.1795266,0.1326848,0.01544843,0.01103885,-0.530794,0.839958,-10.54747,37.07702,-30.04259,1008.45
22.518716335,0.4347776,0.01431479,-0.1071256,0.01889682,-0.5293365,0.8451987,-10.16927,37.45279,-30.04638,1008.448
22.553363800,1.417664,0.1326848,0.1380225,0.01457205,-0.5249014,0.8510596,-10.17505,37.4471,-30.49266,1008.448
22.585536480,-1.776717,-0.4591653,0.1380225,0.01110355,-0.5249323,0.8448257,-10.17505,37.4471,-30.49266,1008.45
22.620178699,0.004764684,-0.1040552,0.07673546,0.01974131,-0.5415502,0.8354501,-10.17505,37.4471,-30.49266,1008.45
22.652351379,1.294803,0.4877949,0.1380225,0.01017047,-0.5282733,0.8515549,-9.791329,37.44741,-30.04832,1008.448
22.686998367,-0.7324003,0.01431479,-0.3522737,0.007264725,-0.5209851,0.8506781,-9.791329,37.44741,-30.04832,1008.45
22.719170570,-0.9781219,0.2510549,-0.2909867,0.0149161,-0.5313212,0.8370255,-10.16978,36.69052,-30.04266,1008.45
22.753817558,0.9876512,0.4877949,-0.1071256,0.014965,-0.5341781,0.8442315,-10.92566,36.70125,-30.03879,1008.45
22.785989761,-0.3023874,0.2510549,-0.04583859,0.01113008,-0.527326,0.8491437,-10.92566,36.70125,-30.03879,1008.45
22.820632935,1.356234,0.3694249,0.3218835,0.005647075,-0.5327233,0.8380644,-10.16901,37.83392,-30.04824,1008.451
22.852805138,2.830564,-0.1040552,0.1380225,0.004280272,-0.5239233,0.8453797,-10.16401,36.69621,-29.59638,1008.451
22.887451649,1.294803,0.01431479,0.3831706,0.01448864,-0.5225595,0.8399937,-10.54721,37.45815,-30.04445,1008.451
22.919624329,2.523412,0.4877949,0.5670316,0.01304167,-0.5351095,0.8480977,-10.54721,37.45815,-30.04445,1008.451
22.951796055,3.506298,0.66535,0.3831706,0.01167041,-0.5185766,0.8511388,-10.16927,37.45279,-30.04638,1008.45
22.986443520,1.970538,0.4286099,0.01544843,0.01465246,-0.508387,0.8526409,-10.54747,37.07702,-30.04259,1008.45
23.018611908,0.4347776,0.4877949,-0.1071256,0.01418717,-0.5146502,0.8583777,-10.54747,37.07702,-30.04259,1008.454
23.053258419,-0.5481091,0.1326848,0.01544843,0.01419275,-0.5044903,0.8541234,-10.55324,37.07133,-30.48887,1008.454
23.085431099,-2.20673,0.2510549,0.01544843,0.00718137,-0.5196102,0.8400862,-10.17505,37.4471,-30.49266,1008.454
23.120078564,-0.6709699,0.01431479,0.07673546,0.007114901,-0.5307927,0.8375846,-10.17505,37.4471,-30.49266,1008.454
23.152250290,-0.240957,0.3102399,0.5670316,0.01117257,-0.5239024,0.8525455,-9.797365,37.0606,-30.49274,1008.454
23.186897278,-1.653857,0.3694249,0.2605965,0.01556225,-0.5263441,0.8534485,-10.55324,37.07133,-30.48887,1008.454
23.219065189,-0.240957,-0.04487023,0.01544843,0.01492843,-0.5342114,0.8398936,-10.55324,37.07133,-30.48887,1008.454
23.253712654,0.80336,0.961275,0.6896057,0.01359991,-0.5190903,0.8487065,-10.16953,37.07165,-30.04452,1008.454
23.285884380,-2.943895,-0.1040552,0.3831706,-0.002889071,-0.5169801,0.8599638,-10.17556,36.68483,-30.48894,1008.454
23.320531368,-3.742491,-0.1040552,0.1380225,0.006639184,-0.5317463,0.8395091,-10.17556,36.68483,-30.48894,1008.454
23.352704048,-0.05666573,0.1326848,0.1380225,0.006125289,-0.5409552,0.840884,-10.55299,37.45247,-30.49073,1008.454
23.387350559,1.417664,0.01431479,-0.2296997,0.01315062,-0.5205033,0.8540011,-9.797108,37.44173,-30.4946,1008.456
23.419519424,1.356234,0.4286099,-0.04583859,0.0134398,-0.5264894,0.833223,-9.797108,37.44173,-30.4946,1008.458
23.454166412,1.970538,0.4877949,0.6283187,0.01124511,-0.5122308,0.8555331,-10.16927,37.45279,-30.04638,1008.458
23.486338138,-1.838148,0.3694249,0.5057446,0.008720364,-0.5190657,0.8487523,-10.55324,37.07133,-30.48887,1008.456
23.518510818,-0.240957,0.78372,0.1993095,0.007603346,-0.5404662,0.8423203,-10.55324,37.07133,-30.48887,1008.458
23.553157329,0.8647904,0.3694249,-0.1684126,0.003008767,-0.5116518,0.8623627,-10.16375,37.07734,-29.59824,1008.458
23.585330009,-4.663947,-0.3407953,-0.2296997,0.005854996,-0.506905,0.8503253,-9.791073,37.82854,-30.05018,1008.459
23.619973183,-2.452452,0.3102399,-0.4748478,0.02365718,-0.5425259,0.8373336,-9.791073,37.82854,-30.05018,1008.459
23.652144909,1.724816,3.447046,0.6896057,0.008108919,-0.5273962,0.8380854,-9.413133,37.82318,-30.05211,1008.459
23.686792374,-39.925,-0.1632403,2.03792,0.03939101,-0.2216305,1.044682,-9.419682,36.6741,-30.49281,1008.459
23.718964100,-178.082,11.08191,11.72127,0.03092971,-0.07086612,0.9520139,-9.419682,36.6741,-30.49281,1008.461
23.753611565,-347.9985,-12.1778,-22.96719,-0.05016187,-0.5791805,1.071972,-10.14667,36.71326,-28.25754,1008.458
23.785783768,-660.8636,-47.45206,-141.3737,-0.06455374,-1.846908,0.3786617,-8.902147,40.61487,-19.93012,1008.458
23.820426464,-344.7427,-12.88802,-199.9028,0.1689537,-2.893838,0.216986,-8.902147,40.61487,-19.93012,1008.458
23.852599144,-210.7016,12.85746,-251.5678,0.01807088,-1.796366,0.3142015,-11.26508,46.32634,1.60603,1008.456
23.887246132,-106.6384,35.05184,-265.8477,0.1615929,-1.699051,-0.1919529,-18.35197,43.09226,13.96475,1008.454
23.919417858,46.87617,51.68283,-263.5801,0.2594377,-1.323988,-0.4606576,-18.35197,43.09226,13.96475,1008.455
23.954065323,61.06659,65.41375,-262.9059,0.4085878,-0.8985691,-0.3973282,-26.24262,34.49009,18.06468,1008.453
23.986237049,71.63262,66.65664,-253.4677,0.4059843,-0.6584841,-0.3586926,-32.69611,26.55481,16.35151,1008.451
24.018405914,65.91959,71.98328,-241.149,0.4506942,-0.3417667,-0.3598728,-32.69611,26.55481,16.35151,1008.451
24.053052902,62.17234,83.22844,-220.434,0.4768102,-0.1686227,-0.2974751,-38.03781,18.96263,12.90931,1008.449
24.085224628,58.79367,80.68349,-197.8191,0.4922537,0.1588159,-0.1859879,-41.87352,11.34329,9.01309,1008.446
24.119872093,13.08944,91.51434,-169.0142,0.6002318,0.2690996,-0.1658423,-43.42484,4.089122,6.378498,1008.444
24.152043819,-9.332657,102.9962,-140.148,0.5657287,0.4839584,-0.02011321,-43.42484,4.089122,6.378498,1008.442
24.186691284,-64.25145,109.8617,-108.2174,0.6237876,0.4048742,-0.04155091,-45.37013,-2.477179,2.467339,1008.442
24.218859673,-51.10534,125.4274,-73.52898,0.5054879,0.4101847,-0.1845211,-45.05301,-8.255587,-1.905736,1008.439
24.253506184,-52.51824,181.0613,-37.43092,0.5998563,0.3715736,-0.7250774,-45.05301,-8.255587,-1.905736,1008.435
24.285678864,-71.74596,329.4973,7.063456,0.4688499,0.5112876,-0.8191031,-43.23965,-11.40459,-7.638413,1008.432
24.320325852,-698.5818,354.7693,42.67122,-4.144227,-2.355618,8.764141,-42.24884,-13.08491,-18.60252,1008.43
24.352497578,1082.347,-116.2842,-134.387,2.258803,0.2490112,7.555089,-42.24884,-13.08491,-18.60252,1008.43
24.387145042,445.621,215.3294,-16.65462,0.9731671,2.577645,1.285586,-37.4415,-8.688303,-27.06557,1008.428
24.419312954,-265.4975,11.31865,6.205438,0.3841791,0.7409087,1.713595,-37.02748,-15.13315,-23.91191,1008.427
24.453959942,-63.32999,-47.09695,31.63955,0.9638343,-0.08444449,1.114307,-37.02748,-15.13315,-23.91191,1008.425
24.486132622,27.89417,-64.43817,51.06754,0.6887175,-0.007873039,0.8586715,-35.174,-17.4809,-26.5881,1008.425
24.520779133,4.673476,-48.57658,52.72229,0.7067483,0.3893962,0.8376784,-36.28817,-14.01754,-25.2602,1008.425
24.552951813,-59.76703,-38.27839,65.46999,0.7866164,0.01274595,0.826116,-36.28817,-14.01754,-25.2602,1008.425
24.585123539,-18.97723,-30.46597,78.76927,0.6241832,-0.1043003,0.7750928,-38.1482,-12.81887,-23.02471,1008.423
24.619766712,51.1763,-30.22923,95.07162,0.6981512,-0.02313409,0.7109659,-39.28048,-10.51596,-23.03007,1008.425
24.651939392,63.40096,-30.64352,112.2933,0.562859,-0.01390289,0.7508643,-39.28048,-10.51596,-23.03007,1008.425
24.686585903,71.50977,-34.25381,126.4506,0.489797,-0.02740073,0.7157668,-40.39021,-7.809997,-21.31593,1008.425
24.718758583,162.3039,-35.79262,146.0011,0.3837233,-0.2667756,0.6362173,-41.12721,-5.495404,-19.98438,1008.425
24.753405571,259.2411,-24.66584,169.9644,0.4817497,-0.05268786,0.6414055,-41.12721,-5.495404,-19.98438,1008.427
24.785577774,244.4978,-1.169385,184.4281,0.3527939,0.1986983,0.6793852,-42.24138,-2.032043,-18.65648,1008.425
24.820220947,235.099,16.23101,190.8633,0.434348,0.05000358,0.5838905,-42.22828,0.2661284,-17.77509,1008.424
24.852392673,186.6918,60.38303,193.2534,0.4675241,0.1426772,0.5380729,-42.22828,0.2661284,-17.77509,1008.424
24.887039661,129.8072,81.63045,189.0859,0.2889832,0.06428078,0.6422405,-42.61567,3.372717,-18.68091,1008.422
24.919212341,39.50452,102.937,177.2575,0.3496981,0.07818882,0.6596227,-40.00797,7.106679,-21.83702,1008.422
24.953858852,-171.3247,85.12236,141.7723,0.2661769,-0.2556477,0.8706936,-40.00797,7.106679,-21.83702,1008.422
24.986031532,-258.3101,87.37139,160.4036,0.5482462,-0.5615024,0.7286522,-37.02702,11.21153,-25.37945,1008.418
25.020674706,-78.19615,59.43607,187.7376,0.02010883,-0.4266475,0.8817019,-33.61015,16.89159,-24.53221,1008.418
25.052846432,-112.2286,24.99039,175.235,-0.1128976,-0.2236574,0.8094245,-33.61015,16.89159,-24.53221,1008.42
25.085019112,-77.2747,0.724535,171.3127,0.04222514,-1.077012,0.4596863,-28.66714,26.75401,-22.8206,1008.42
25.119665623,86.99023,31.44156,156.7877,-0.09175035,-0.9796534,0.7880527,-22.96638,32.03696,-20.70801,1008.42
25.151838303,66.96391,33.15792,134.7243,-0.08450418,-0.7894548,1.035855,-18.08366,36.88861,-23.37127,1008.422
25.186485291,59.83799,35.82125,96.29736,-0.06172564,-0.9380179,0.8565598,-18.08366,36.88861,-23.37127,1008.422
25.218653202,100.0135,43.57449,75.88878,-0.09660032,-0.795028,0.9347019,-13.13609,37.17064,-25.63,1008.424
25.253300667,72.7998,35.64369,46.83873,-0.06887817,-0.6720905,1.096445,-9.40864,35.9232,-29.59653,1008.425
25.285472870,34.83581,28.77823,29.37193,-0.0516645,-0.5758234,1.065747,-9.40864,35.9232,-29.59653,1008.425
25.320119381,13.3966,24.99039,14.4179,-0.03848597,-0.4898111,1.0244,-7.1767,34.33234,-32.27837,1008.427
25.352292061,-38.75783,17.29634,4.30554,-0.09847942,-0.5402606,1.0525,-4.931606,33.89707,-34.00948,1008.429
25.386939525,17.02099,-11.17165,-11.44522,-0.08240388,-1.107667,1.440019,-4.931606,33.89707,-34.00948,1008.431
25.419107437,33.05433,-7.206257,-13.22255,0.07277683,-0.2233962,0.8370961,-3.035872,34.25705,-33.57473,1008.432
25.453754425,22.18114,11.61458,1.363763,-0.09584036,-0.30411,0.9618779,-4.181249,34.26179,-34.46149,1008.432
25.485926151,-24.99741,-1.110201,1.42505,-0.06935239,-0.2934037,0.8566431,-4.181249,34.26179,-34.46149,1008.434
25.520573616,-34.64199,-0.8734604,0.9347538,-0.1424669,-0.4732971,0.8958483,-4.18202,33.11838,-34.45591,1008.436
25.552746296,-3.61963,-4.247006,-6.480976,-0.05232672,-0.5990786,0.8819202,-4.175728,33.88634,-34.01335,1008.436
25.587392807,-2.1453,-2.234716,-2.865042,-0.06664994,-0.2743553,0.9367869,-4.175728,33.88634,-34.01335,1008.438
25.619561195,-40.17073,-6.969517,-2.926329,-0.08534241,-0.4512726,0.8304269,-4.55341,34.27284,-34.01328,1008.439
25.651732922,-17.25718,-3.536786,-3.416625,-0.03278055,-0.5503111,0.861414,-4.169692,34.27316,-33.56893,1008.439
25.686380386,-1.285274,-1.524496,-1.332866,-0.0445694,-0.4720595,0.930613,-4.169692,34.27316,-33.56893,1008.441
25.718552589,0.06619509,-0.1632403,1.179902,-0.05435125,-0.4236741,0.9045932,-5.28623,35.4489,-32.29362,1008.443
25.753199577,-7.121163,-2.057161,1.486337,-0.07627013,-0.3925794,0.8944501,-4.908547,35.0624,-32.29369,1008.443
25.785371780,-20.69728,-2.412271,1.241189,-0.09179336,-0.4537562,0.8188986,-4.908547,35.0624,-32.29369,1008.445
25.820014954,-13.75565,-2.471456,0.07673546,-0.06652869,-0.5487628,0.8516197,-4.157932,35.80825,-32.74757,1008.445
25.852187157,0.5576384,-2.353086,-1.026431,-0.07175346,-0.5191082,0.8543229,-5.28623,35.4489,-32.29362,1008.448
25.886834145,-4.786808,-2.353086,-2.007023,-0.05646579,-0.490991,0.859714,-5.28623,35.4489,-32.29362,1008.45
25.919005871,-3.128186,-0.04487023,-2.436033,-0.09143785,-0.5259309,0.8380623,-4.518538,35.83067,-31.40679,1008.45
25.953653336,1.724816,-3.240861,-2.190884,-0.03129547,-0.4565242,0.8766332,-5.274417,35.8414,-31.40292,1008.45
25.985826015,-9.209796,-1.642866,-0.4748478,-0.02426671,-0.4636326,0.903501,-5.274417,35.8414,-31.40292,1008.45
26.020468235,-14.49281,-0.1040552,-2.374745,-0.03973093,-0.4634172,0.9214811,-4.896219,36.21717,-31.40672,1008.452
26.052640915,-7.366885,-0.6367203,-0.3522737,-0.02936464,-0.4748914,0.8248898,-5.268639,35.84709,-30.95664,1008.452
26.087287903,-16.70431,1.434755,3.141087,-0.06613708,-0.5000498,0.8746715,-5.268125,36.60936,-30.96036,1008.452
26.119460106,-11.11414,-1.465311,0.5670316,-0.0741055,-0.5982841,0.8450161,-5.268125,36.60936,-30.96036,1008.452
26.154107094,-7.305455,-4.779672,4.979697,-0.1074915,-0.3754527,0.8293307,-5.268125,36.60936,-30.96036,1008.452
26.186279774,-43.42654,-7.561367,3.324948,-0.0691491,-0.4484071,0.8977793,-5.261575,37.75844,-30.51966,1008.452
26.218447685,-39.24927,-7.383812,4.673262,-0.08174949,-0.5415561,0.895201,-5.261575,37.75844,-30.51966,1008.452
26.253094673,-34.02769,-11.88187,7.676326,-0.0880679,-0.4738016,0.8654526,-5.23872,37.40005,-28.73268,1008.452
26.285266876,-40.47788,-13.30231,11.23097,-0.03862289,-0.4883728,0.8330591,-5.221697,38.17855,-27.46132,1008.45
26.319913864,-51.71964,-13.59824,12.15028,-0.05352961,-0.7128441,0.7937517,-5.221697,38.17855,-27.46132,1008.452
26.352086544,6.76211,-3.655156,11.16969,0.01616938,-0.5995912,0.6706432,-5.209368,39.33332,-26.57434,1008.452
26.386733055,-7.858328,-0.1040552,1.670198,-0.01634982,-0.7723486,0.7172403,-4.81358,40.10728,-25.24115,1008.45
26.418901443,11.06224,3.624601,-1.026431,-0.001298218,-0.560802,0.7800578,-4.81358,40.10728,-25.24115,1008.453
26.453548908,-9.70124,3.210305,0.7508927,-0.03822841,-0.5595075,0.798247,-4.435383,40.48304,-25.24495,1008.455
26.485720634,-29.85042,2.79601,-0.5361348,-0.04087266,-0.6848882,0.7765121,-4.81358,40.10728,-25.24115,1008.455
26.520367622,-21.55731,0.1326848,-2.865042,-0.05117487,-0.6467222,0.8096989,-4.81358,40.10728,-25.24115,1008.455
26.552539825,-25.1817,0.961275,-7.400281,-0.04756888,-0.6658717,0.7834794,-4.429605,40.48873,-24.79866,1008.455
26.587186813,-26.84032,-1.642866,-9.484039,-0.04615445,-0.6523841,0.7710454,-4.412271,40.50578,-23.45982,1008.457
26.619355678,-43.30368,-5.904187,-14.93858,-0.009696616,-0.6092109,0.7913051,-4.412271,40.50578,-23.45982,1008.457
26.654002190,-104.4269,-14.01253,-21.98659,0.04860699,-0.6290771,0.7703533,-4.399686,42.04169,-22.5747,1008.459
26.686174393,-78.19615,-8.153216,-17.81908,-0.0468077,-0.8042232,0.5924239,-5.50544,42.08541,-20.40125,1008.46
26.718346596,-29.17468,-8.212401,-11.75166,-0.07630739,-0.6805589,0.6226386,-5.50544,42.08541,-20.40125,1008.46
26.752993584,-54.97546,-8.034846,-5.37781,-0.01955324,-0.7749652,0.6275967,-6.603561,43.66016,-17.72521,1008.462
26.785166264,-27.20891,-3.063306,-9.361465,0.01042608,-0.8546346,0.5750862,-6.954262,43.69232,-15.61938,1008.462
26.819808960,-24.87455,-3.418416,-14.387,0.01689969,-0.890295,0.5496679,-6.954262,43.69232,-15.61938,1008.462
26.851981163,-17.99434,-4.010266,-12.11938,0.03580826,-0.8233229,0.5606476,-6.942448,44.08483,-14.72868,1008.464
26.886628628,-21.25016,-0.5775353,-12.67097,0.06140941,-0.7923328,0.630554,-7.303053,44.10725,-13.38791,1008.464
26.918800354,-23.58451,-1.051015,-12.05809,-0.00323669,-0.8535987,0.5747402,-7.303053,44.10725,-13.38791,1008.464
26.953447819,-16.09,0.1918698,-10.95493,0.03739555,-0.7420157,0.594079,-8.047377,44.12936,-12.49148,1008.468
26.985620022,-21.49588,-3.773526,-9.116318,0.01781435,-0.8125383,0.5628324,-8.420363,44.1396,-12.10702,1008.468
27.020262718,-27.76178,-7.265442,-8.197012,0.08301369,-0.8115496,0.4812562,-8.420363,44.1396,-12.10702,1008.468
27.052435398,-35.56345,-1.465311,-3.968208,0.008246835,-0.9596914,0.4826606,-8.780412,44.98781,-10.77027,1008.466
27.087082386,-4.971099,-1.820421,-3.232764,0.09955644,-0.8093335,0.590534,-8.774677,44.92997,-10.32368,1008.466
27.119254112,-10.99128,0.78372,-1.45544,0.05792885,-0.8261871,0.5811435,-8.774677,44.92997,-10.32368,1008.465
27.153901577,-24.62883,-1.820421,-4.213356,0.06702243,-0.8732266,0.466437,-9.14106,44.94671,-9.429188,1008.463
27.186073303,-17.31861,0.842905,-1.945736,0.04823264,-0.9275554,0.5215943,-9.140802,45.32785,-9.431048,1008.463
27.220716476,-15.04569,-5.489892,-2.68118,0.07435272,-0.8264222,0.5612263,-9.88534,45.03234,-8.533069,1008.461
27.252889156,-8.718353,-2.589826,-5.561671,0.06504185,-0.9703656,0.3938367,-9.88534,45.03234,-8.533069,1008.461
27.285060883,2.031968,2.08579,-1.394153,0.06640856,-0.8105495,0.5373313,-9.123468,45.3449,-8.092207,1008.459
27.319708347,-21.18873,2.263345,-0.8425699,0.03517446,-0.9032046,0.523845,-9.117949,44.96945,-7.644066,1008.459
27.351880073,-12.95705,-10.10632,-0.2909867,0.08985103,-1.009842,0.5778856,-9.117949,44.96945,-7.644066,1008.459
27.386527538,1.847677,-1.997976,5.224845,0.05964913,-0.8819057,0.4061843,-9.867748,45.43053,-7.196088,1008.459
27.418695927,-53.31683,-2.293901,2.283068,0.02403985,-1.057698,0.4349513,-9.862581,45.75301,-6.815112,1008.457
27.453342438,24.33121,-4.779672,-3.906921,0.07923095,-0.8322133,0.5057031,-9.862581,45.75301,-6.815112,1008.457
27.485515118,7.683566,-4.957227,-0.1684126,0.0926403,-0.7314842,0.4847185,-9.479078,45.43572,-6.369215,1008.457
27.520162105,-15.90571,-1.938791,3.263661,0.07702855,-0.849319,0.4260528,-9.862839,45.37188,-6.813251,1008.457
27.552334309,8.973606,-0.7550904,9.637511,0.09457219,-0.882311,0.439113,-9.862839,45.37188,-6.813251,1008.461
27.586981296,-11.35986,-1.879606,13.19216,0.08724286,-0.8219118,0.5249933,-9.484858,45.43003,-6.815495,1008.461
27.619149685,-21.86446,2.20416,13.49859,0.06216246,-1.033617,0.3721341,-9.485415,44.60424,-6.811464,1008.461
27.653796196,11.61511,0.3102399,16.19522,0.05947677,-0.8647287,0.4935694,-9.485415,44.60424,-6.811464,1008.46
27.685968876,-7.858328,-1.702051,19.44343,0.01442347,-0.875734,0.4220812,-8.717722,44.98601,-5.924631,1008.458
27.720616341,3.076285,0.1326848,21.9562,0.03355346,-0.9521058,0.412597,-8.345002,45.80075,-6.376878,1008.46
27.752788067,13.58089,-5.608262,25.93986,-0.03372728,-0.8898924,0.5062816,-8.345002,45.80075,-6.376878,1008.458
27.784960747,26.48127,-12.1778,25.14313,-0.01688198,-0.7881948,0.4872009,-7.589166,45.72649,-6.380435,1008.458
27.819602966,19.90822,-10.40225,31.51698,0.01673571,-0.7811575,0.4773052,-6.088138,45.69445,-7.216978,1008.458
27.851775646,16.22239,-14.78194,33.23302,-0.02865293,-0.8858712,0.5274754,-6.088138,45.69445,-7.216978,1008.458
27.886422634,3.629159,-17.97793,34.39747,-0.004159851,-0.9071099,0.4325998,-5.343815,45.67235,-8.113406,1008.462
27.918594837,20.03108,-14.19009,35.6845,-0.01432299,-0.9190711,0.4485021,-3.459894,45.63982,-8.569356,1008.46
27.953241825,8.850745,-17.09015,41.56805,-0.1299789,-0.8117412,0.5709659,-3.459894,45.63982,-8.569356,1008.46
27.985414028,20.2768,-20.75962,38.13598,-0.07558093,-1.007013,0.4603987,-3.081656,46.07911,-8.573461,1008.46
28.020057201,55.72215,-24.60665,37.46182,-0.06798995,-0.8531026,0.5343786,-1.203557,45.97738,-9.475381,1008.458
28.052229404,41.71601,-22.47599,43.10023,-0.06310358,-0.7240828,0.5888986,-1.203557,45.97738,-9.475381,1008.458
28.086876869,26.41984,-17.26771,43.7131,-0.03887468,-0.8805521,0.6442586,0.2903528,45.17658,-10.81824,1008.458
28.119048595,24.69979,-28.39449,43.34538,-0.1283748,-0.8541751,0.6081972,1.39585,44.75173,-12.98983,1008.456
28.153696060,44.23466,-18.68815,53.33516,-0.09548797,-0.6796325,0.6045092,1.39585,44.75173,-12.98983,1008.458
28.185867786,11.12367,-12.29617,53.94803,-0.1402288,-0.740236,0.7104669,2.518413,45.16891,-13.89036,1008.458
28.220510960,12.22942,-26.91487,53.88674,-0.2156832,-0.9407076,0.5972125,4.012536,44.68572,-15.23477,1008.458
28.252683640,26.84986,-26.7965,48.00319,-0.2195503,-0.7739729,0.753345,4.012536,44.68572,-15.23477,1008.46
28.287330151,23.22546,-42.30297,43.83567,-0.3641736,-1.020854,0.6196272,6.27444,44.71135,-15.69296,1008.46
28.319502831,40.91742,-45.7357,85.75599,-0.457931,-0.8242288,0.6915311,7.389853,43.09013,-17.02985,1008.46
28.351675033,-20.57442,-64.61572,65.46999,-0.3094214,-0.6663222,0.808091,9.2699,43.43468,-17.80643,1008.46
28.386321545,11.92227,-44.1377,55.35763,-0.458743,-0.6195625,0.6700899,9.2699,43.43468,-17.80643,1008.46
28.418490410,-31.38618,-42.1846,47.20646,-0.1744952,-0.6700833,0.721969,11.14727,42.25307,-18.70308,1008.46
28.453136921,38.70592,-8.567512,62.34435,-0.009809028,-0.9605315,0.4249822,13.04827,41.85646,-17.81833,1008.46
28.485309124,68.92969,7.530811,64.9184,-0.2864484,-0.3101613,0.8725088,13.04827,41.85646,-17.81833,1008.46
28.519956589,-35.56345,-8.626697,61.30247,-0.002097329,-0.6423595,0.8406067,14.15294,41.43079,-20.05367,1008.46
28.552128315,21.01397,-3.063306,71.16968,-0.2323644,-0.6440192,0.7916498,16.80301,39.49324,-19.61163,1008.46
28.586775780,0.4347776,-7.975662,75.58234,-0.3765372,-0.3713621,0.8087389,16.80301,39.49324,-19.61163,1008.46
28.618944168,-45.26945,-23.65969,77.54353,-0.4104005,-0.7328546,0.6123109,19.05909,39.44965,-20.51579,1008.46
28.653590679,-40.29359,-27.03324,65.34741,-0.4901345,-0.621487,0.652051,21.34278,37.52883,-19.17925,1008.46
28.685763359,-61.42565,-28.03938,57.56396,-0.4792164,-0.6096942,0.5517905,21.34278,37.52883,-19.17925,1008.458
28.720410347,-58.84557,-21.29229,50.69982,-0.3092438,-0.4987336,0.5737731,23.23748,36.36427,-18.73705,1008.458
28.752582550,-89.49935,-18.56978,53.82545,-0.2218469,-0.599596,0.4535543,24.00987,36.36978,-17.46584,1008.456
28.787229538,-57.24838,-3.004121,60.19931,-0.01765106,-0.5404145,0.3918869,24.00987,36.36978,-17.46584,1008.456
28.819397449,-19.96012,13.27176,68.84077,0.1107749,-0.5598726,0.469094,25.92764,36.37054,-15.30786,1008.459
28.851570129,-22.35591,6.583851,59.83158,-0.1590468,-0.8950606,0.6365843,27.8226,35.58712,-14.86752,1008.457
28.886217117,-24.69026,8.655327,36.66509,-0.2414754,-0.9092689,0.881128,27.8226,35.58712,-14.86752,1008.457
28.918388844,-28.31466,6.998146,30.29124,-0.4756309,-0.7536606,0.641668,30.5422,34.79775,-13.9851,1008.457
28.953036308,-5.831125,25.7598,26.85916,-0.7537245,-0.5683906,0.4438325,31.68077,33.26279,-13.53718,1008.455
28.985208988,9.035036,35.93962,11.16969,-0.5796906,-0.7957672,0.5902359,31.68077,33.26279,-13.53718,1008.455
29.019851208,5.717793,28.30475,6.757021,-0.4636968,-0.3978341,0.8445199,33.21456,32.88211,-11.82168,1008.453
29.052023888,-46.86664,42.86427,23.79481,-0.4092031,-0.9635799,0.4016918,33.21404,32.11985,-11.81796,1008.45
29.086671352,48.47336,66.18316,33.2943,-0.4641571,-0.6456158,0.5609937,33.21404,32.11985,-11.81796,1008.45
29.118843079,17.451,65.70968,40.03588,-0.5857821,-0.5237778,0.5467451,34.3652,32.1208,-10.48492,1008.45
29.153490067,41.16314,71.86491,38.87142,-0.6204677,-0.812219,0.5075769,35.13738,30.60258,-9.142506,1008.448
29.185662270,42.0846,72.16084,40.64875,-0.6270529,-0.197606,0.6462191,35.13738,30.60258,-9.142506,1008.446
29.220305443,-31.57047,62.80961,43.65181,-0.8022258,-0.7036853,0.4287097,37.41028,29.81379,-8.704107,1008.445
29.252477646,13.88804,55.29312,40.15845,-0.8342224,-0.5433468,0.492508,38.9433,28.28971,-6.983031,1008.445
29.287125111,-3.251047,49.4338,43.65181,-0.7926357,-0.3117884,0.3349692,39.72152,27.15831,-5.196195,1008.445
29.319296837,-14.92282,54.40534,48.00319,-0.7450185,-0.6332285,0.3497089,39.72152,27.15831,-5.196195,1008.445
29.353944301,5.472072,55.94415,53.70288,-0.8420576,-0.3306372,0.5025288,40.12154,25.65115,-3.405563,1008.441
29.386116028,-23.03164,56.77274,45.73557,-0.9155733,-0.4006043,0.38262,42.02729,23.73569,-2.067086,1008.443
29.418284416,3.137716,54.28697,45.98072,-0.8812295,-0.4261609,0.300631,42.02729,23.73569,-2.067086,1008.443
29.452931881,9.52648,57.24622,49.47408,-0.8631849,-0.3634341,0.3270077,42.80443,22.22235,-0.342144,1008.443
29.485103607,14.31805,60.14629,50.51596,-0.8112229,-0.1801676,0.2080158,43.96636,21.09126,1.88904,1008.443
29.519751072,21.81256,62.69124,63.93781,-0.9336816,-0.4309151,0.2167313,43.96636,21.09126,1.88904,1008.443
29.551922798,0.5576384,58.9034,67.36989,-1.061731,-0.4304949,0.2516696,44.74324,19.19679,3.615845,1008.443
29.586569786,4.366324,61.86266,68.65691,-1.087559,-0.1885864,0.1970289,45.14827,16.55191,5.858339,1008.445
29.618738651,0.8647904,55.23393,58.7897,-1.040941,-0.1155626,0.192376,45.14827,16.55191,5.858339,1008.445
29.653385639,23.34832,47.71743,62.5895,-0.8923962,-0.05839126,-0.1030405,46.30861,14.27662,8.031351,1008.446
29.685557365,-9.148366,46.77048,54.00932,-0.9335034,-0.3408092,0.1943365,46.32414,11.62573,9.383219,1008.446
29.720204830,4.243463,45.23167,51.68041,-0.9356236,0.1290391,0.004947953,46.32414,11.62573,9.383219,1008.445
29.752376556,-7.981189,43.87041,53.51902,-0.9894012,-0.2744889,0.07249497,46.72969,9.743124,11.62199,1008.446
29.787024021,-8.595492,37.95191,53.94803,-1.002148,0.1234234,-0.01086559,46.36754,7.478745,12.97393,1008.445
29.819192409,-7.551176,30.02112,53.58031,-1.042561,-0.02906338,0.01572836,46.36754,7.478745,12.97393,1008.445
29.853838921,-10.06982,32.03341,38.07469,-0.9570668,-0.01578674,-0.0958198,46.01034,5.21924,14.7084,1008.443
29.886011600,-7.244024,29.72519,20.79175,-1.042153,0.06709161,-0.04035867,46.39804,2.557307,15.61205,1008.443
29.920658588,-6.322568,17.17797,10.31167,-0.9876461,0.01747271,-0.2085301,46.39804,2.557307,15.61205,1008.443
29.952830791,-7.059733,21.14336,16.56294,-0.9239221,0.07920144,-0.03027606,46.0314,2.192912,16.50841,1008.441
29.985002995,-17.13432,17.17797,8.289197,-1.027461,-0.04024933,-0.04041669,44.90285,1.452435,16.96421,1008.441
30.019646168,-13.2642,28.77823,26.92045,-0.8336145,-0.03519386,-0.2041356,44.90285,1.452435,16.96421,1008.441
30.051818371,-14.12423,39.19479,24.03996,-1.09673,-0.1273694,-0.05302054,44.91302,0.6372035,17.79705,1008.439
30.086465359,5.963515,40.02338,30.59767,-0.9833902,0.3251739,-0.08312329,44.17401,-1.23986,19.21281,1008.438
30.118637562,5.349211,38.07028,17.11453,-1.006085,0.09060416,-0.1152113,44.17401,-1.23986,19.21281,1008.439
30.153284550,1.479095,31.264,1.976633,-0.9876698,0.03482232,-0.161633,44.19578,-1.9802,20.93791,1008.439
30.185457230,8.11358,29.42927,23.61095,-0.9781569,0.1313004,-0.2958862,43.07853,-3.09044,22.28813,1008.439
30.220099449,-1.899578,32.80281,25.87857,-1.064756,-0.05714084,-0.1149179,43.07853,-3.09044,22.28813,1008.439
30.252272129,7.806427,35.11103,38.44241,-1.127528,0.15711,-0.2552377,42.71266,-2.311435,23.1789,1008.438
30.286919594,12.04513,36.59065,39.72944,-1.142721,0.1194068,-0.2448028,41.59432,-3.803621,24.46724,1008.442
30.319091320,12.29085,24.5761,42.11964,-1.150961,0.1277943,-0.3584086,41.59432,-3.803621,24.46724,1008.438
30.353738308,39.13594,20.78825,38.0134,-1.150395,0.2573845,-0.2956496,40.09887,-5.289627,25.82125,1008.438
30.385910988,57.62649,18.00656,19.56601,-1.225841,0.1791517,-0.2926985,38.97635,-5.643285,26.72148,1008.436
30.420553684,85.08588,1.73068,13.37602,-1.25587,0.2525644,-0.359293,38.23806,-5.234359,28.06233,1008.436
30.452725887,93.99329,-20.70044,-10.34206,-1.052693,0.299548,-0.3039256,38.23806,-5.234359,28.06233,1008.436
30.484898090,-7.244024,-49.34599,-16.7772,-1.130497,0.4034453,0.02734452,37.48764,-4.456483,28.445,1008.436
30.519545078,-2.943895,-63.19528,-23.58006,-1.117461,-0.01968348,-0.07507531,36.72309,-1.407235,27.60518,1008.436
30.551717758,9.280758,-63.37283,-31.73123,-1.048977,0.1319683,-0.12893,36.72309,-1.407235,27.60518,1008.436
30.586364746,-40.04787,-66.50964,-34.673,-0.9239287,0.0450114,-0.2469756,37.45008,-1.446397,25.36991,1008.436
30.618532658,-2.943895,-54.61345,-17.08363,-1.020315,0.2946694,-0.2232921,38.57864,-0.7059202,24.9141,1008.436
30.653180122,-95.4581,-60.17684,-0.5974218,-0.8945768,0.5520834,-0.3095851,38.57864,-0.7059202,24.9141,1008.433
30.685351849,-94.96665,-47.57043,12.08899,-0.9365299,0.3266278,-0.4310702,38.94059,0.03473592,23.63336,1008.437
30.719999313,-75.55464,-38.6335,9.514937,-0.9363611,0.3543074,-0.3662556,38.91066,-1.518222,21.4094,1008.437
30.752171516,-80.65337,-30.28841,13.9276,-0.8297442,0.292095,-0.3084774,38.91066,-1.518222,21.4094,1008.435
30.786818027,-19.53011,-13.83498,34.33618,-0.9109538,0.3453937,-0.1838884,40.03113,-4.213632,20.52406,1008.435
30.818986893,-78.13472,-12.88802,45.24527,-0.8757548,0.3921457,-0.1409335,40.0141,-4.992142,19.25269,1008.433
30.853633881,-118.4331,-11.88187,48.12576,-0.9117598,0.12021,-0.05463345,40.0141,-4.992142,19.25269,1008.432
30.885806084,-103.1369,-18.27385,40.89389,-0.9150987,-0.07993791,0.1095555,40.00627,-8.046894,18.8213,1008.432
30.920453072,-79.3019,-27.86183,23.12066,-0.919471,-0.1490859,0.2034981,40.35904,-11.12407,17.04913,1008.43
30.952625751,-76.96754,-36.14773,4.489401,-0.9405105,-0.1447177,0.2528944,40.35904,-11.12407,17.04913,1008.43
30.987272263,-77.76614,-51.18072,-18.55452,-0.9146785,-0.3131197,0.272473,39.95618,-13.80938,15.27896,1008.426
31.019440651,-37.71351,-57.21759,-37.18577,-0.9452401,-0.3282756,0.3015532,41.06065,-15.75876,13.11482,1008.423
31.051613331,-26.22602,-62.60343,-53.1204,-0.9425433,-0.1980115,0.327184,41.06065,-15.75876,13.11482,1008.423
31.086259842,-44.59372,-71.95467,-69.23889,-0.9524189,-0.2652842,0.3460015,41.41548,-15.78687,11.32776,1008.421
31.118432522,-27.70035,-74.02614,-82.29302,-0.9774747,-0.3542902,0.3691195,42.13277,-14.31205,8.256245,1008.418
31.153079510,3.690589,-77.10376,-91.91508,-1.001791,-0.3274964,0.3661933,42.13277,-14.31205,8.256245,1008.414
31.185251236,37.66161,-75.92006,-98.41151,-0.9720143,-0.2633218,0.3360785,43.23372,-11.69433,5.559732,1008.412
31.219894409,43.62036,-75.03229,-103.5596,-0.9250254,-0.2131721,0.3866634,45.09741,-8.69972,3.367529,1008.409
31.252066612,49.7634,-70.35667,-104.6015,-0.9751767,-0.2191069,0.4029885,45.09741,-8.69972,3.367529,1008.409
31.286713600,40.36454,-68.93623,-111.5269,-0.9339022,-0.1774662,0.4164426,45.06506,-5.303629,0.6730995,1008.404
31.318886280,37.23159,-56.15226,-122.6812,-0.8972896,-0.3085712,0.3070523,45.78363,-1.923146,-2.407725,1008.404
31.353532791,107.2008,-32.715,-123.294,-0.9097147,-0.1907993,0.3394691,45.78363,-1.923146,-2.407725,1008.402
31.385705471,101.2421,-27.09242,-125.4391,-0.8973801,-0.07862421,0.4173987,45.75813,3.066687,-4.663629,1008.398
31.420348644,91.29036,-24.60665,-119.3717,-0.8700928,-0.08798446,0.4170669,44.98222,7.628287,-6.467213,1008.398
31.452520370,96.75767,-25.37605,-108.5852,-0.8171054,-0.006748322,0.4114582,44.98222,7.628287,-6.467213,1008.397
31.487167835,77.03851,-25.37605,-89.46361,-0.8156834,0.08843201,0.4184956,44.21266,11.81525,-7.758901,1008.395
31.519340038,33.73006,-26.26383,-68.2583,-0.7685128,0.1300801,0.4367148,42.67433,15.2385,-9.999315,1008.395
31.551512241,-3.742491,-24.48828,-45.52081,-0.7043288,0.1005356,0.4233403,41.52446,17.14322,-11.34166,1008.393
31.586159229,-18.67008,-17.38608,-20.63828,-0.6690404,0.07974412,0.3934377,41.52446,17.14322,-11.34166,1008.393
31.618327141,-27.3932,-9.632842,-1.271579,-0.6932834,0.04426098,0.3711994,40.75362,19.42451,-12.62404,1008.393
31.652974605,-24.19882,2.4409,16.74681,-0.7002298,0.06011127,0.4080268,40.00346,20.58352,-12.24323,1008.393
31.685146809,-42.19793,11.96969,33.90717,-0.7690209,0.05514839,0.4124838,40.00346,20.58352,-12.24323,1008.391
31.719794273,-49.8153,24.63528,51.80299,-0.7703286,0.02777174,0.3862423,40.39296,20.58953,-11.3526,1008.39
31.751966000,-49.44672,37.53761,67.67632,-0.8084601,0.02838254,0.3779272,41.54334,19.44707,-10.01398,1008.39
31.786612987,-58.53842,46.17863,84.95926,-0.8452656,0.01383264,0.4186386,41.54334,19.44707,-10.01398,1008.39
31.818780899,-74.63319,51.56446,99.66814,-0.8880463,0.006977778,0.3833133,42.69873,17.16691,-8.223496,1008.386
31.853428364,-96.19527,56.89111,118.7897,-0.9210635,-0.009593529,0.3531188,44.24908,15.65988,-5.163578,1008.38
31.885601044,-112.2286,61.80347,137.7274,-1.041835,-0.02178342,0.3310093,44.24908,15.65988,-5.163578,1008.38
31.920247555,-152.2812,67.89952,156.849,-1.09592,-0.03252396,0.2880454,44.66463,11.50184,-2.02108,1008.38
31.952419758,-215.616,75.83031,173.4577,-1.186802,-0.01380241,0.2654298,46.59639,6.564927,1.499931,1008.38
31.987067223,-285.0938,68.373,190.4342,-1.297399,-0.1252035,0.2245735,46.59639,6.564927,1.499931,1008.38
32.019235134,-296.7656,52.45224,201.5272,-1.309914,-0.32559,0.2259302,46.2534,-0.3146474,4.595879,1008.382
32.053882122,-268.5076,36.11717,207.5333,-1.514871,-0.4571065,0.3482223,45.48608,-8.694532,4.194401,1008.384
32.086054802,-220.039,-2.412271,198.4016,-1.727412,-0.6680202,0.3031588,45.48608,-8.694532,4.194401,1008.384
32.118226528,-125.4361,-33.54359,170.5159,-1.362037,-0.7516048,0.2108545,42.4341,-17.82071,2.533163,1008.382
32.152873993,-67.87584,-27.5659,123.5701,-0.9597157,-0.6184916,0.1710839,39.34874,-25.07534,-1.815063,1008.382
32.185045719,-36.23918,-14.42683,71.0471,-0.6038609,-0.6525231,0.1414549,39.34874,-25.07534,-1.815063,1008.382
32.219688892,29.61423,4.867486,23.79481,-0.5737383,-0.6431229,0.1210073,35.52555,-30.01619,-4.895499,1008.382
32.251861572,57.62649,10.19414,-16.71591,-0.7478009,-0.5459273,0.1504247,32.87843,-32.26541,-4.870797,1008.384
32.286508083,73.96698,13.27176,-59.55554,-0.923952,-0.584654,0.1131892,32.87843,-32.26541,-4.870797,1008.384
32.318680763,98.72343,17.76982,-101.4146,-1.14802,-0.475777,0.05158963,32.90129,-32.6238,-3.083815,1008.384
32.353327751,83.48869,16.94123,-140.577,-1.165688,-0.361696,0.04257299,34.06395,-31.46889,-0.9275494,1008.384
32.385499477,71.50977,19.78211,-167.5433,-1.226476,-0.3916653,0.08241709,34.06395,-31.46889,-0.9275494,1008.384
32.420143127,74.94987,17.71063,-189.5453,-1.357494,-0.3815963,0.1078226,37.11815,-28.81548,1.275356,1008.382
32.452315330,72.55408,10.78599,-201.8027,-1.363853,-0.3119447,0.0723062,40.55185,-23.88064,3.465166,1008.38
32.486961841,74.45843,6.169556,-209.4636,-1.383881,-0.3901647,0.04967625,43.98574,-17.42207,5.583776,1008.38
32.519134521,103.2693,-0.1040552,-209.8313,-1.48684,-0.4162425,0.06343596,43.98574,-17.42207,5.583776,1008.38
32.553781509,124.2171,-15.07786,-204.8058,-1.538853,-0.355353,0.05815728,45.88661,-9.439428,5.981312,1008.379
32.585953712,124.7699,-35.25995,-195.1224,-1.533467,-0.3244146,0.04534809,47.39877,-0.319383,5.482637,1008.377
32.620596886,120.8384,-41.88868,-178.8201,-1.411116,-0.3401743,0.09468646,47.39877,-0.319383,5.482637,1008.375
32.652769566,114.9411,-48.28065,-159.3308,-1.347315,-0.288902,0.1128298,45.85913,8.498386,2.833336,1008.373
32.684941292,87.66596,-54.90938,-140.0867,-1.225569,-0.2380333,0.1159692,43.54412,15.33984,-1.20508,1008.373
32.719588280,59.40797,-45.97244,-116.246,-1.022083,-0.2352194,0.1714516,43.54412,15.33984,-1.20508,1008.373
32.751760483,46.26186,-34.31299,-93.63113,-0.8842599,-0.2434504,0.1999816,41.63021,21.05607,-3.39097,1008.372
32.786407471,42.20746,-16.37993,-66.29711,-0.8324676,-0.2455826,0.2086388,39.31892,24.85414,-6.968219,1008.372
32.818576336,30.22853,0.1918698,-35.89875,-0.8034472,-0.1966771,0.2121451,39.31892,24.85414,-6.968219,1008.37
32.853222847,7.929288,11.02273,-0.7199959,-0.7165254,-0.1752945,0.2086184,37.41452,27.53267,-8.246662,1008.366
32.885395050,-6.752581,23.03728,29.55579,-0.5489872,-0.201613,0.2396141,36.65916,28.30567,-8.246515,1008.366
32.920042515,-10.49984,35.58451,57.01238,-0.4370869,-0.208802,0.2606826,36.65916,28.30567,-8.246515,1008.362
32.952214241,-6.199707,44.75819,76.13393,-0.4180169,-0.1943545,0.2582138,37.4271,29.06857,-7.361544,1008.36
32.986861706,0.7419296,50.14402,93.96845,-0.4628794,-0.1776977,0.3122717,38.94805,26.77086,-6.529308,1008.36
33.019030094,13.08944,51.97876,115.9705,-0.6309568,-0.1896627,0.3518193,38.94805,26.77086,-6.529308,1008.36
33.053676605,22.67259,51.56446,138.8306,-0.7769059,-0.1585457,0.3905517,40.4869,24.10987,-4.292615,1008.36
33.085849285,11.92227,51.86039,162.6712,-1.086587,-0.1394206,0.405167,42.4024,19.53785,-2.048553,1008.36
33.120496273,-38.38924,43.9296,186.8183,-1.335446,-0.08884406,0.3833241,42.4024,19.53785,-2.048553,1008.36
33.152667999,-109.4642,31.55993,200.853,-1.391767,-0.08394999,0.4152199,45.05511,14.17496,-1.207232,1008.36
33.184840679,-168.4989,19.36782,201.0982,-1.316612,-0.1587518,0.393658,47.347,7.310772,1.046061,1008.36
33.219483852,-201.2413,11.73295,189.1472,-1.16302,-0.2490164,0.3056847,47.347,7.310772,1.046061,1008.358
33.251656056,-194.4839,11.49621,172.1707,-0.981185,-0.3849684,0.2908173,47.72502,-1.13737,1.531654,1008.358
33.286303043,-120.8289,12.62072,156.6651,-0.9684826,-0.6132627,0.4030505,46.57425,-9.136436,0.6839714,1008.358
33.318474770,-12.95705,9.069622,139.6273,-1.021445,-0.6732365,0.4594443,46.57425,-9.136436,0.6839714,1008.358
33.353122234,55.04641,9.069622,112.5997,-0.9605668,-0.5488887,0.3847094,45.04655,-15.6056,-0.1692238,1008.36
33.385294914,64.3224,15.34323,84.71411,-0.905174,-0.4226869,0.295099,42.4029,-21.27934,0.3185062,1008.36
33.419937134,58.60938,22.14951,54.19318,-0.8993642,-0.4024481,0.2797877,42.4029,-21.27934,0.3185062,1008.36
33.452109814,63.76954,30.02112,26.98174,-0.9025607,-0.3572597,0.2840461,40.53374,-25.0411,2.131905,1008.362
33.486756801,55.23071,38.42539,1.731485,-1.054554,-0.3354724,0.3049239,38.6703,-27.65458,4.322248,1008.362
33.518929005,50.56199,26.64757,-29.40232,-1.220641,-0.3735255,0.3615899,38.6703,-27.65458,4.322248,1008.362
33.553575992,24.08549,21.43929,-74.387,-0.887717,-0.2362547,0.2497192,37.93753,-27.6211,6.11124,1008.36
33.585748672,-2.452452,32.80281,-112.9978,-0.9221357,-0.2642928,0.1162953,38.72199,-26.84196,8.271299,1008.36
33.620391369,15.05522,43.87041,-147.3798,-1.127421,-0.2041313,0.1066568,39.87495,-24.17307,9.591314,1008.36
33.652563572,-2.882465,42.86427,-176.1234,-1.150409,-0.06096612,0.08925362,39.87495,-24.17307,9.591314,1008.36
33.687211037,-60.62705,43.87041,-199.4738,-0.9168594,-0.0671067,0.009903815,41.78507,-19.60926,10.89816,1008.36
33.719382763,-88.82362,64.70353,-200.9447,-0.9370614,-0.1198557,-0.04577249,44.06863,-13.15083,11.74748,1008.358
33.751555443,-95.15095,69.61589,-192.2419,-1.13274,-0.09514499,-0.1145968,44.06863,-13.15083,11.74748,1008.356
33.786202431,-80.65337,72.16084,-153.815,-1.259844,0.07066077,-0.2214578,44.85618,-7.798085,13.88521,1008.356
33.818370342,-100.0654,44.34389,-112.0172,-1.291858,0.2465694,-0.3416547,44.51176,-0.9038894,16.08506,1008.355
33.853017807,-120.706,36.64984,-69.85176,-0.8779147,-0.01981031,-0.3149373,44.51176,-0.9038894,16.08506,1008.353
33.885189533,-82.18913,38.3662,-26.70569,-0.9006839,-0.07035705,-0.2124757,43.40894,2.253231,18.30707,1008.355
33.919836521,-37.03778,17.53308,21.52719,-1.128395,0.1624205,-0.07058001,42.67611,3.429296,20.02672,1008.355
33.952009201,-25.55029,-13.71661,60.44445,-1.22551,-0.01416203,0.1308282,42.67611,3.429296,20.02672,1008.355
33.986655712,57.62649,-68.69949,101.7519,-1.176531,-0.3773265,0.2117271,42.68138,2.672714,20.47672,1008.359
34.018824577,137.6089,-93.97149,143.7948,-0.8646154,-0.4508851,0.3152141,42.65668,0.2996507,18.70308,1008.36
34.053471565,47.36761,-97.8777,174.4996,-0.7768871,-0.08956509,0.6499538,42.65668,0.2996507,18.70308,1008.364
34.085643291,-144.971,-112.2597,188.6569,-0.7180882,-0.1669343,0.5996035,44.1265,-3.191007,15.65187,1008.367
34.120290756,-203.2685,-148.4809,168.8612,-0.8235793,-1.240193,-0.1110155,44.8163,-8.218201,10.82686,1008.369
34.152463436,-60.13561,-143.5685,88.63648,-0.3572215,-2.576823,-0.9954314,44.8163,-8.218201,10.82686,1008.369
34.187109947,222.1986,-64.02387,6.144151,-0.4747543,-2.077354,-0.124064,43.19678,-16.30123,2.968132,1008.371
34.219278336,190.439,-65.74024,-81.31243,-0.4700254,-1.551877,-0.3964437,41.65883,-20.8761,1.213074,1008.369
34.251451016,153.0894,-47.15614,-124.4585,-0.2319907,-1.160015,-0.5993201,41.65883,-20.8761,1.213074,1008.369
34.286097527,188.5961,-15.84727,-147.0734,-0.4274872,-0.9293622,-0.3974926,42.04858,-20.48897,2.101841,1008.366
34.318269730,172.8699,-33.36603,-178.8814,-0.4606894,-0.7278275,-0.09041564,43.94688,-16.31766,2.517984,1008.366
34.352917194,231.7203,-21.88414,-187.6454,-0.2166993,-0.704197,-0.3937472,43.94688,-16.31766,2.517984,1008.364
34.385088920,335.4763,-41.77031,-171.7721,-0.2103431,-0.2240355,0.1307114,45.09504,-10.98734,3.314938,1008.364
34.419732094,314.1599,-37.98246,-155.6536,0.04241882,-0.07379975,-0.9327354,45.47292,-3.756039,2.895124,1008.366
34.451904297,192.9577,16.70449,-145.6638,-0.5809224,-0.7140765,-2.792233,45.47292,-3.756039,2.895124,1008.369
34.486551285,492.2467,286.9433,-97.79865,-9.402037,3.671418,1.363458,45.45448,3.145147,1.076199,1008.373
34.518723965,-10.99128,-24.13317,-219.8824,-4.406245,4.312314,3.855516,43.9571,7.370459,1.956026,1008.373
34.553370953,67.20963,-107.88,-244.8262,-4.913275,-3.905854,-1.928356,43.9571,7.370459,1.956026,1008.383
34.585543156,-464.7163,-301.8884,-181.8844,1.241523,0.4348096,1.910813,40.54012,10.06965,0.6215649,1008.392
34.620186329,377.6175,-348.467,-39.39211,3.814426,-0.7508314,-5.167873,38.20384,18.41371,-5.145661,1008.397
34.652358055,493.4138,201.5985,197.421,-5.518721,2.492844,2.722536,38.20384,18.41371,-5.145661,1008.401
34.687005043,-165.1816,-60.17684,88.0849,-2.869205,-1.474349,2.510867,32.44306,25.64076,-12.61127,1008.401
34.719177723,-64.37431,-24.96176,81.34332,-1.38158,-0.9763906,1.072445,35.08349,17.98051,-12.58759,1008.408
34.753824234,-65.72578,29.60682,77.29839,-0.6045499,0.4746036,0.9084566,36.9669,17.18571,-13.03982,1008.409
34.785996914,-233.738,38.66213,47.26775,-0.0881483,0.03685103,-0.2630356,36.9669,17.18571,-13.03982,1008.413
34.818164825,-158.3014,124.658,-13.83542,0.823203,-0.6483349,0.1566114,38.12249,16.42927,-11.32053,1008.414
34.852811813,64.13811,121.462,-33.99885,-0.6746498,-0.317459,0.5569872,39.69698,16.46952,-6.482936,1008.418
34.884984493,-21.7416,90.98167,-59.2491,-1.074639,-0.4181337,0.3357598,39.69698,16.46952,-6.482936,1008.418
34.919631004,-18.60865,32.4477,-61.94573,-1.289262,-0.3778119,0.3279729,40.87805,18.02342,-2.925936,1008.421
34.951803684,-79.36333,-17.85956,-60.41356,-0.297114,-0.703555,0.1415459,39.39513,19.21591,-0.7561321,1008.421
34.986450672,-18.73151,-8.389956,-29.34104,-0.4463684,-0.660306,0.303801,39.39513,19.21591,-0.7561321,1008.426
35.018618584,22.42687,-24.66584,-19.90283,-0.5827312,-0.708217,0.3601083,38.64683,21.90026,-0.3190117,1008.431
35.053266048,57.19648,-56.8033,-23.02847,-0.7107781,-0.5203565,0.5951756,37.50775,22.67295,-0.7632103,1008.431
35.085438252,47.12189,-80.71405,-21.86402,-0.7053123,-0.633524,0.7778335,37.50775,22.67295,-0.7632103,1008.435
35.152257443,42.45318,-110.9576,-6.787411,-0.2948523,-0.6896331,0.7528149,36.68388,23.37855,-6.054677,1008.439
35.186904907,41.83887,-86.45499,15.27592,-0.2191844,-0.4069101,1.084127,36.68388,23.37855,-6.054677,1008.443
35.219072819,-45.08516,-71.65874,26.73659,-0.2872175,-0.613909,0.695528,35.4931,23.33862,-10.44793,1008.443
35.253719807,-46.92807,-49.22762,25.57214,-0.2145352,-0.7934762,0.4301977,35.08131,23.31069,-13.05992,1008.446
35.285892487,8.236441,-0.5183503,25.93986,-0.2570773,-0.4856096,0.7358284,35.08131,23.31069,-13.05992,1008.45
35.320538998,17.63529,21.61684,25.69471,-0.3349997,-0.4130649,0.7776415,34.69735,22.92924,-13.50241,1008.453
35.352711677,-17.62576,24.39854,21.15947,-0.3387518,-0.4186356,0.6821947,35.07477,22.16161,-13.50062,1008.455
35.384883404,2.891994,27.47616,17.91126,-0.4404249,-0.5744417,0.679449,35.07477,22.16161,-13.50062,1008.459
35.419526577,4.550615,20.07804,12.76315,-0.523814,-0.5063123,0.7116367,35.83014,21.3886,-13.50077,1008.459
35.451699257,-3.68106,5.104226,5.960289,-0.5726519,-0.5177479,0.770802,36.22515,21.01915,-12.162,1008.46
35.486345768,-5.15539,-8.034846,-1.578014,-0.5083429,-0.4915681,0.7453538,36.22515,21.01915,-12.162,1008.462
35.518517971,-0.6095394,-15.3146,-5.439096,-0.4616228,-0.4991702,0.7337692,37.35268,20.2351,-12.61036,1008.464
35.553165436,-6.814011,-23.71888,-11.99681,-0.443165,-0.5075238,0.6694222,36.60201,20.63184,-12.22583,1008.466
35.585337162,1.847677,-27.86183,-15.36759,-0.4259999,-0.4727888,0.7789623,36.60201,20.63184,-12.22583,1008.466
35.619980335,-3.189617,-33.42522,-16.89977,-0.3731084,-0.4617574,0.7959117,36.59102,20.24015,-13.05277,1008.467
35.652152538,-16.21286,-35.55588,-15.36759,-0.323628,-0.5241324,0.7327578,35.81806,20.61497,-14.38961,1008.469
35.686799526,-9.63981,-25.43524,-8.503448,-0.289648,-0.5332069,0.7738179,35.81806,20.61497,-14.38961,1008.471
35.718972206,-29.4204,-24.36991,-1.271579,-0.2836618,-0.5785357,0.7531444,35.05165,22.13887,-15.28574,1008.471
35.753619194,-9.946961,-6.436852,6.082864,-0.3113882,-0.5391847,0.8028914,34.67924,21.76879,-14.83567,1008.471
35.785791397,11.36939,4.394005,7.982761,-0.3136006,-0.5679424,0.785805,33.91835,22.91724,-15.28366,1008.471
35.820438385,-2.943895,5.932816,6.021577,-0.3304436,-0.5555156,0.7499147,33.91835,22.91724,-15.28366,1008.473
35.852606297,2.216259,6.643036,5.163558,-0.3580382,-0.5426037,0.7700405,34.66768,21.75742,-15.72823,1008.473
35.884778976,2.830564,3.920526,2.344355,-0.3766123,-0.4850317,0.7967165,34.6795,22.14992,-14.83753,1008.474
35.919425964,-3.803921,1.079645,-0.2296997,-0.3557748,-0.5509969,0.7530803,34.6795,22.14992,-14.83753,1008.474
35.951598167,2.33912,0.66535,-0.04583859,-0.3528228,-0.5480883,0.7545227,34.67898,21.38765,-14.83381,1008.474
35.986245155,2.031968,-2.175531,-1.149005,-0.3682155,-0.5168593,0.7660097,34.67924,21.76879,-14.83567,1008.474
36.018417835,-0.1180961,-5.075597,-1.639301,-0.3498914,-0.5422968,0.7521331,34.67924,21.76879,-14.83567,1008.474
36.053060055,-0.1795266,-7.265442,-1.516727,-0.3337242,-0.5355492,0.7563758,34.30104,21.39302,-14.83187,1008.474
36.085232735,-2.329591,-8.034846,-0.9651439,-0.331509,-0.5536577,0.7383719,35.04588,22.13318,-15.73202,1008.474
36.119880199,-1.469565,-7.087887,-0.4135607,-0.3135732,-0.5476076,0.7792244,35.04588,22.13318,-15.73202,1008.474
36.152051926,-3.312478,-3.181676,0.4444576,-0.3178962,-0.5397859,0.7836673,34.6732,21.38197,-15.28009,1008.474
36.186698914,-1.346704,0.01431479,1.179902,-0.3103479,-0.5584365,0.7617531,34.66794,22.13855,-15.73009,1008.473
36.218871117,-1.408135,1.671495,1.118615,-0.3188418,-0.5682465,0.7429535,34.66794,22.13855,-15.73009,1008.473
36.253514290,-3.742491,1.73068,1.118615,-0.3376877,-0.556861,0.7596112,34.28974,21.76278,-15.7263,1008.473
36.285686493,-1.961009,1.96742,1.118615,-0.3405448,-0.54566,0.7626221,33.91154,21.38702,-15.7225,1008.473
36.320333481,-3.251047,0.4877949,0.8121797,-0.3437236,-0.563282,0.7412986,33.91154,21.38702,-15.7225,1008.473
36.352505684,-1.469565,-1.110201,0.4444576,-0.34112,-0.5491218,0.753923,35.05165,22.13887,-15.28574,1008.471
