Time (s),Gyroscope X (deg/s),Gyroscope Y (deg/s),Gyroscope Z (deg/s),Accelerometer X (g),Accelerometer Y (g),Accelerometer Z (g),Magnetometer X (uT),Magnetometer Y (uT),Magnetometer Z (uT),Barometer (hPa)
0.009998798,-0.2273053,0.2780056,0.03785548,0.06293237,0.4886462,-0.8724561,-3.464548,-11.26523,40.31143,1007.084
0.042556286,-0.4720638,-0.01948743,-0.08450561,0.06343465,0.4867221,-0.8753862,-3.470229,-10.90142,40.30882,1007.086
0.075118065,-0.4088631,-0.01923997,-0.08439163,0.05954593,0.4861832,-0.8749073,-3.470229,-10.90142,40.30882,1007.086
0.110184670,0.2065268,-0.018969,-0.02301379,0.06441177,0.4862533,-0.876361,-3.831018,-11.26788,40.31262,1007.086
0.142746449,0.4514471,0.04055183,-0.02313128,0.06044818,0.4915585,-0.8786932,-2.737288,-10.89613,40.30644,1007.088
0.175307751,0.0810407,-0.1376646,0.03777878,0.06196456,0.4871956,-0.8768277,-2.737288,-10.89613,40.30644,1007.09
0.207869530,-0.2876629,-0.1373084,-0.1456277,0.05854386,0.4886,-0.8748695,-3.102127,-10.89619,40.7537,1007.09
0.242931843,0.08203068,0.1006398,-0.08419231,0.06241881,0.4915421,-0.8695111,-3.102127,-10.89619,40.7537,1007.09
0.275493622,0.6954458,0.2194711,0.03805053,0.0677334,0.4935908,-0.877219,-3.102127,-10.89619,40.7537,1007.091
0.308055401,0.63118,0.04026428,0.09867239,0.06338067,0.4915768,-0.8743452,-2.735657,-10.89355,40.75251,1007.089
0.343122006,-0.4158387,-0.01944922,-0.2076232,0.06390468,0.4881862,-0.8753643,-3.107808,-10.53238,40.75109,1007.091
0.375683308,-0.5983976,-0.01922086,-0.08470429,0.06680575,0.4911156,-0.8700052,-3.107808,-10.53238,40.75109,1007.092
0.408245087,-0.3500224,-0.19738,-0.08435902,0.06245827,0.4881408,-0.869563,-3.099708,-11.26517,39.86417,1007.092
0.443307400,0.3273313,-0.1971291,-0.0229815,0.06530989,0.4940142,-0.8704429,-3.099708,-11.26517,39.86417,1007.094
0.475869179,0.8789329,-0.1378518,0.1604029,0.0639043,0.4877113,-0.8777884,-3.099708,-11.26517,39.86417,1007.094
0.508430958,0.5680604,0.09994356,0.2821863,0.061511,0.4852258,-0.8725069,-3.103758,-10.89878,40.30763,1007.094
0.543497086,-0.2321085,-0.07854602,-0.02382064,0.06051937,0.487148,-0.8705431,-3.468598,-10.89884,40.75489,1007.096
0.576058865,-0.4148571,-0.07869214,-0.2071296,0.0605323,0.4852219,-0.8744395,-3.468598,-10.89884,40.75489,1007.096
0.608620644,-0.290729,-0.1377217,-0.02332062,0.06734102,0.4867531,-0.8710391,-2.735657,-10.89355,40.75251,1007.092
0.641178608,0.2014408,0.04094648,-0.02332175,0.06143328,0.4920263,-0.8719197,-2.7446,-10.5349,39.85776,1007.093
0.676244736,-0.106791,0.1001917,-0.02344944,0.05806134,0.48811,-0.8753598,-2.7446,-10.5349,39.85776,1007.093
0.708806038,-0.04509824,0.04060095,-0.1458104,0.06730276,0.4901523,-0.8705038,-3.098077,-11.26259,40.31025,1007.095
0.741367817,0.07777362,0.0404354,-0.02364264,0.0664175,0.4818923,-0.8735292,-3.105389,-10.90136,39.86156,1007.095
0.776434422,0.1996574,-0.07861069,0.0373726,0.06539249,0.4857779,-0.8758858,-3.105389,-10.90136,39.86156,1007.095
0.808996201,-0.1702822,-0.07862583,-0.0241328,0.06394903,0.4833491,-0.8802719,-2.731607,-11.25994,40.30906,1007.097
0.841553688,-0.4153887,0.04039562,0.2206673,0.06489021,0.487702,-0.8729557,-3.096446,-11.26,40.75632,1007.097
0.876620293,-0.04517257,-0.07827702,-0.1464805,0.06140832,0.4939744,-0.8728567,-3.103758,-10.89878,40.30763,1007.095
0.909181595,0.139015,-0.3158817,-0.02394524,0.06093024,0.4930006,-0.8738379,-3.103758,-10.89878,40.30763,1007.095
0.941743374,0.3224905,-0.01808504,-0.08523896,0.0624088,0.4910848,-0.875802,-2.729976,-11.25736,40.75513,1007.093
0.976809978,-0.4772765,-0.01781914,-0.146352,0.06491599,0.4852768,-0.8739595,-2.741338,-10.52974,40.7499,1007.094
1.009371758,-0.2291632,-0.07724591,0.03776606,0.06249014,0.4842777,-0.8749392,-2.741338,-10.52974,40.7499,1007.094
1.041928768,-0.04378223,0.2201747,-0.08455641,0.058106,0.4851748,-0.8710543,-3.098077,-11.26259,40.31025,1007.096
1.074490547,0.324229,-0.01790042,0.2822746,0.06334805,0.4944901,-0.8738175,-2.741338,-10.52974,40.7499,1007.096
1.109557152,0.2612787,-0.01821347,-0.02398263,0.06441899,0.4862401,-0.8734609,-2.741338,-10.52974,40.7499,1007.096
1.142118931,-0.2307707,-0.07762013,-0.02409569,0.06443191,0.4843141,-0.8773574,-3.103758,-10.89878,40.30763,1007.094
1.174680710,-0.536676,0.1604335,0.03700998,0.06238581,0.4939805,-0.8714074,-3.107808,-10.53238,40.75109,1007.094
1.209746361,-0.04304664,-0.01804204,0.09829637,0.06391227,0.4886479,-0.8700401,-3.107808,-10.53238,40.75109,1007.094
1.242304325,0.448499,0.1008816,0.09820254,0.06241805,0.4905923,-0.8743594,-2.738919,-10.89871,39.86037,1007.094
1.274866104,0.4465936,-0.2559303,-0.2080602,0.06580412,0.4925804,-0.8743323,-3.098077,-11.26259,40.31025,1007.094
1.309932709,0.1378839,-0.07705443,-0.0243165,0.06439162,0.4881925,-0.8753647,-3.098077,-11.26259,40.31025,1007.091
1.342494488,-0.292714,-0.01733411,0.1591121,0.06831416,0.485816,-0.8758881,-3.109439,-10.53497,40.30502,1007.091
1.375055313,0.07687198,-0.01750615,0.03692822,0.05853657,0.4900402,-0.8709804,-2.372448,-10.89607,39.85918,1007.091
1.410121918,0.1378112,-0.07694736,-0.02433721,0.0643823,0.490112,-0.8700182,-2.372448,-10.89607,39.85918,1007.093
1.442679882,-0.0468116,-0.1361894,0.09831455,0.06582705,0.4911117,-0.8719379,-2.737288,-10.89613,40.30644,1007.093
1.475241661,-0.1688846,-0.0165603,-0.08497445,0.06195772,0.4876837,-0.8773035,-3.109439,-10.53497,40.30502,1007.093
1.507802963,0.01638578,-0.07591808,0.03746393,0.06196532,0.4881454,-0.8719794,-3.109439,-10.53497,40.30502,1007.089
1.542869091,0.5077806,0.04309706,0.03726116,0.06143923,0.4934423,-0.8627139,-3.11107,-10.53755,39.85895,1007.091
1.575430870,0.3829066,-0.01652229,0.03709023,0.05956329,0.4837735,-0.8792945,-2.7446,-10.5349,39.85776,1007.091
1.607992649,-0.04828447,-0.07617838,-0.02424095,0.06245466,0.4881473,-0.8710131,-2.7446,-10.5349,39.85776,1007.091
1.643055439,-0.4160215,0.04272617,-0.2075794,0.06343705,0.4867177,-0.8744195,-2.737288,-10.89613,40.30644,1007.092
1.675616265,0.01619279,-0.07613005,0.1597915,0.06438553,0.4896305,-0.8709924,-3.096446,-11.26,40.75632,1007.092
1.708178044,0.3237249,-0.07578208,-0.146185,0.05907906,0.4856646,-0.8691142,-3.096446,-11.26,40.75632,1007.09
1.743244648,0.3224583,-0.3726864,-0.02389312,0.06386762,0.4915831,-0.8743457,-2.376498,-10.52967,40.30264,1007.092
1.775806427,0.01445246,0.1035049,-0.08493752,0.06236738,0.4935385,-0.8810816,-2.729976,-11.25736,40.75513,1007.092
1.808368206,-0.1077351,-0.07504268,-0.08470647,0.06192953,0.4901132,-0.8772665,-2.729976,-11.25736,40.75513,1007.092
1.843430042,0.1384611,0.1629305,0.0988796,0.05999461,0.4895887,-0.8743723,-3.473491,-10.90659,39.41668,1007.093
1.875991821,0.1994817,0.1628073,0.2209713,0.06146387,0.4895924,-0.8709901,-2.738919,-10.89871,39.86037,1007.095
1.908553601,0.3213568,-0.01573955,-0.02417045,0.06193066,0.491538,-0.8699941,-2.738919,-10.89871,39.86037,1007.091
1.941115379,-0.1710337,-0.3130242,-0.02426424,0.06151183,0.4847487,-0.8744476,-2.739707,-10.52715,41.19598,1007.091
1.976181984,-0.3543828,-0.3127318,-0.1464991,0.06342781,0.4872102,-0.8758621,-3.098077,-11.26259,40.31025,1007.091
2.008743286,-0.0457839,-0.07444746,-0.08487532,0.06290937,0.4915419,-0.8680615,-3.098077,-11.26259,40.31025,1007.091
2.041300774,0.07728418,-0.01455142,-0.1457288,0.0579985,0.4939322,-0.8733374,-3.098077,-11.26259,40.31025,1007.091
2.076367378,0.3231125,0.1044184,0.09894066,0.06045946,0.4905867,-0.878708,-3.11107,-10.53755,39.85895,1007.088
2.108929157,0.2603063,0.04510896,0.03741499,0.0609564,0.4910504,-0.8724175,-3.11107,-10.53755,39.85895,1007.088
2.141490459,0.1980265,-0.01427641,0.09859626,0.06487285,0.4901118,-0.8685686,-2.729976,-11.25736,40.75513,1007.088
2.176557064,-0.1098238,-0.2526224,-0.1463077,0.06537349,0.4891419,-0.8676171,-3.107808,-10.53238,40.75109,1007.088
2.209118843,-0.1093569,-0.1336193,-0.08485746,0.06589109,0.4852874,-0.8734769,-3.107808,-10.53238,40.75109,1007.088
2.241676331,0.1370827,-0.073836,-0.02350418,0.06290983,0.4905899,-0.8724264,-2.366767,-11.25988,39.86179,1007.088
2.276742935,0.2594968,0.2236687,0.09861412,0.05948308,0.4920053,-0.8728849,-2.741338,-10.52974,40.7499,1007.088
2.309304237,0.3201207,0.1636863,0.1594115,0.05418232,0.4861266,-0.8778033,-2.741338,-10.52974,40.7499,1007.088
2.341866016,0.195645,0.3413684,0.1589728,0.06047953,0.4900744,-0.8729153,-2.731607,-11.25994,40.30906,1007.088
2.374427795,-0.2968124,0.162131,0.09714442,0.05613447,0.4870952,-0.8715064,-3.098077,-11.26259,40.31025,1007.084
2.409494400,-0.6025482,0.1022368,-0.1474844,0.07078593,0.4824508,-0.8769085,-3.098077,-11.26259,40.31025,1007.086
2.442051411,-0.6612335,-0.01660106,-0.02479145,0.06241362,0.491076,-0.8738686,-2.742969,-10.53232,40.30383,1007.086
2.474613190,-0.04428691,0.04264903,-0.1470123,0.06680455,0.4911178,-0.8704886,-3.83833,-10.90665,39.86394,1007.086
2.509679794,0.9381077,0.1017562,0.158632,0.05999499,0.4900637,-0.8719482,-2.728345,-11.25477,41.2012,1007.088
2.542241573,1.118827,0.3388732,0.2190694,0.06199997,0.4847528,-0.8739647,-2.728345,-11.25477,41.2012,1007.088
2.574802399,0.6227995,0.3969724,0.279184,0.06340848,0.4886723,-0.8768065,-2.738919,-10.89871,39.86037,1007.089
2.609869003,0.1902618,0.5141732,0.03333363,0.06291553,0.488677,-0.8792229,-3.098077,-11.26259,40.31025,1007.089
2.642426968,0.1289621,0.4529133,0.2773811,0.06691331,0.4809313,-0.8745111,-3.098077,-11.26259,40.31025,1007.091
2.674988747,0.4970219,0.510548,0.2149932,0.062447,0.4891126,-0.8695482,-2.737288,-10.89613,40.30644,1007.089
2.710055351,0.801667,0.5678815,0.3360454,0.05858452,0.4851965,-0.874438,-3.470229,-10.90142,40.30882,1007.09
2.742616177,0.9829814,0.2692253,0.1513652,0.06496832,0.4813764,-0.8711188,-3.470229,-10.90142,40.30882,1007.09
2.775177956,1.040656,-0.2670324,0.3339625,0.0658847,0.4848234,-0.8783177,-2.737288,-10.89613,40.30644,1007.09
2.807739735,0.7287384,0.0305845,0.08857122,0.06541429,0.4828844,-0.8807638,-2.737288,-10.89613,40.30644,1007.09
2.842802525,-0.3186698,-0.1471345,0.08816347,0.06107524,0.4798942,-0.8769382,-2.737288,-10.89613,40.30644,1007.092
2.875363350,-1.299551,-0.3244923,-0.03384607,0.06492689,0.4838301,-0.8763985,-3.102127,-10.89619,40.7537,1007.088
2.907925129,-1.232533,-0.4421874,-0.09413968,0.06043766,0.4934802,-0.8738301,-3.103758,-10.89878,40.30763,1007.088
2.942991734,-0.9201042,0.03498503,-0.03225872,0.06140915,0.4934973,-0.8747975,-3.103758,-10.89878,40.30763,1007.088
2.975553513,0.06625178,0.3911493,0.09004117,0.0629726,0.4861947,-0.8676597,-3.096446,-11.26,40.75632,1007.088
3.008114815,0.6182425,0.1520787,0.1504319,0.06639247,0.4852673,-0.8676772,-3.102127,-10.89619,40.7537,1007.09
3.043278694,1.106552,0.1510941,0.3329859,0.06341247,0.4891407,-0.8729324,-3.102127,-10.89619,40.7537,1007.085
3.075840473,0.97916,0.1500493,0.209748,0.06834077,0.4829137,-0.8788326,-3.473491,-10.90659,39.41668,1007.087
3.108402252,0.176586,0.1495687,0.02590929,0.0635329,0.4784572,-0.8745456,-2.737288,-10.89613,40.30644,1007.089
3.143468857,-0.3155204,-0.08798572,-0.2185028,0.06685694,0.4857903,-0.8744369,-2.737288,-10.89613,40.30644,1007.089
3.176029682,-0.2527261,-0.2064586,-0.1566049,0.06047878,0.4891246,-0.8777636,-2.748651,-10.16851,40.30122,1007.087
3.208591461,-0.4364327,0.1505409,0.02724801,0.05997251,0.4905804,-0.8787076,-2.742969,-10.53232,40.30383,1007.089
3.241149426,0.1175302,0.09076338,0.1496506,0.06582578,0.4925408,-0.8656322,-2.742969,-10.53232,40.30383,1007.085
3.276216030,0.3012878,0.03092147,-0.03404785,0.06439763,0.4881815,-0.8729479,-2.748651,-10.16851,40.30122,1007.086
3.308776856,0.2385133,-0.08794279,0.08847061,0.06538445,0.4862682,-0.8768451,-3.462917,-11.26265,40.7575,1007.086
3.341338635,-0.1305621,-0.2659898,-0.03373225,0.06397112,0.4823575,-0.8759366,-3.462917,-11.26265,40.7575,1007.088
3.376405239,-0.129642,-0.08716299,-0.03364184,0.0634487,0.4862208,-0.8720102,-2.376498,-10.52967,40.30264,1007.088
3.408967018,-0.0678177,-0.08678911,0.02756007,0.0639031,0.4877135,-0.8782717,-3.105389,-10.90136,39.86156,1007.088
3.441524506,-0.1902294,-0.02710345,0.1499425,0.06191382,0.4915687,-0.8767609,-3.105389,-10.90136,39.86156,1007.084
3.476590634,-0.7412888,0.03298137,0.02751875,0.06495268,0.481405,-0.8774022,-3.462917,-11.26265,40.7575,1007.084
3.509152413,-0.8605499,-0.2043867,-0.2169111,0.06297266,0.4847677,-0.8744488,-3.105389,-10.90136,39.86156,1007.084
3.541714192,-0.3653826,0.09316097,-0.03310048,0.06782113,0.4872476,-0.8715153,-3.105389,-10.90136,39.86156,1007.084
3.576780796,0.4963697,0.1522517,0.02809065,0.06486887,0.4896435,-0.8724427,-3.470229,-10.90142,40.30882,1007.086
3.609342098,0.6170536,-0.02656923,-0.09440348,0.05907064,0.48568,-0.8724976,-3.105389,-10.90136,39.86156,1007.087
3.641899586,0.6141716,0.09173601,0.08900365,0.06443793,0.4843031,-0.8749407,-3.105389,-10.90136,39.86156,1007.087
3.674461842,0.611147,0.09104496,-0.09495734,0.06586658,0.4862834,-0.8787789,-3.477541,-10.5402,39.86014,1007.087
3.709527493,0.9155038,0.3876954,0.149547,0.06539205,0.4867299,-0.8715209,-2.738919,-10.89871,39.86037,1007.089
3.742089272,0.4206719,0.02952812,0.08798745,0.06881675,0.4857938,-0.869605,-2.738919,-10.89871,39.86037,1007.09
3.774651051,0.4190151,-0.1492027,-0.09579676,0.06838694,0.4818782,-0.8648305,-3.103758,-10.89878,40.30763,1007.092
3.809717655,0.1109086,-0.03001461,-0.09547201,0.0663342,0.4877518,-0.8797236,-2.365136,-11.25729,40.30787,1007.092
3.842274666,-0.01310039,-0.1485184,0.0879007,0.06153806,0.4813715,-0.8798163,-2.365136,-11.25729,40.30787,1007.094
3.874836445,-0.564864,-0.5046117,-0.09578674,0.0789855,0.4884094,-0.8811759,-2.735657,-10.89355,40.75251,1007.09
3.909903050,-1.54497,-0.7992042,-0.6451051,0.06552,0.4779352,-0.8610209,-3.103758,-10.89878,40.30763,1007.091
3.942464828,-1.537881,-1.092082,-0.6423602,0.05804323,0.48957,-0.8758209,-3.103758,-10.89878,40.30763,1007.093
3.975025654,-1.040589,-1.028094,-0.3344167,0.04627702,0.4924165,-0.8941344,-2.733238,-11.26252,39.86298,1007.093
4.010092258,-0.2367836,0.8756099,0.5223832,0.05745658,0.4945017,-0.8931466,-3.109439,-10.53497,40.30502,1007.095
4.042650223,1.483032,1.881108,1.008774,0.06359072,0.4769248,-0.8581342,-3.109439,-10.53497,40.30502,1007.097
4.075212002,2.274315,0.9826254,1.004604,0.07815717,0.4805211,-0.8590602,-2.742969,-10.53232,40.30383,1007.097
4.107773304,0.8514186,-0.0305217,0.2672686,0.0769503,0.4966291,-0.877665,-3.107808,-10.53238,40.75109,1007.094
4.142839432,-1.914279,-0.3866763,-0.4051206,0.07753423,0.4897998,-0.870519,-3.102127,-10.89619,40.7537,1007.094
4.175401211,-1.169092,-1.097733,-0.5865107,0.06451552,0.4803565,-0.8619498,-3.102127,-10.89619,40.7537,1007.094
4.207962990,0.3710795,-0.9152068,-0.3393607,0.05609349,0.4885969,-0.881151,-3.477541,-10.5402,39.86014,1007.094
4.243024826,1.474551,0.2159626,0.334247,0.05903739,0.4847895,-0.8903961,-3.103758,-10.89878,40.30763,1007.094
4.275586605,2.143354,0.8086975,0.2107926,0.06206958,0.4798696,-0.8687221,-3.103758,-10.89878,40.30763,1007.096
4.308148861,1.520211,0.21173,0.2096453,0.07131101,0.4819119,-0.8638661,-2.737288,-10.89613,40.30644,1007.096
4.343214989,-0.5131415,-0.205062,-0.158049,0.07361386,0.4888431,-0.8850312,-2.738919,-10.89871,39.86037,1007.097
4.375776291,-2.230845,-0.02632423,-0.03544719,0.06925707,0.4877877,-0.8792425,-2.738919,-10.89871,39.86037,1007.099
4.408338070,-1.607461,-0.08525012,-0.09642545,0.06936044,0.481416,-0.8672554,-2.737288,-10.89613,40.30644,1007.095
4.443400383,-0.310627,-0.4408846,-0.0348027,0.06539889,0.4862418,-0.871045,-2.742969,-10.53232,40.30383,1007.095
4.475962162,0.3045045,-0.4391621,-0.03454559,0.06387409,0.4906201,-0.8762939,-2.742969,-10.53232,40.30383,1007.095
4.508523464,-0.1880301,-0.1408069,0.0268332,0.06144101,0.4896342,-0.8801736,-3.105389,-10.90136,39.86156,1007.095
4.541085243,-0.8011482,-0.08105065,0.1494104,0.0624418,0.4886464,-0.8739058,-3.116752,-10.17374,39.85634,1007.095
4.576151848,-0.6133775,-0.1400454,0.0273345,0.06542182,0.4847731,-0.8686506,-3.116752,-10.17374,39.85634,1007.091
4.608712673,0.06488239,-0.02097918,-0.1560871,0.06300566,0.4823294,-0.8725525,-3.107808,-10.53238,40.75109,1007.091
4.641270638,1.108789,0.2165635,0.08875173,0.06487457,0.4877306,-0.8792392,-2.731607,-11.25994,40.30906,1007.091
4.676337242,1.717402,0.2751867,0.2108376,0.06538723,0.4867387,-0.8734543,-2.731607,-11.25994,40.30906,1007.091
4.708899021,1.464793,0.2145842,0.08786716,0.06542302,0.4847709,-0.8681672,-2.737288,-10.89613,40.30644,1007.091
4.741460324,0.7221913,-0.2612048,-0.0958778,0.07176539,0.4834045,-0.8701277,-3.092396,-11.6264,40.31285,1007.091
4.776526451,-0.3249378,-0.7351781,-0.278978,0.06395985,0.4833293,-0.8759218,-3.092396,-11.6264,40.31285,1007.091
4.809088230,-0.8761827,-0.4948543,-0.4004698,0.0625184,0.4804212,-0.8817653,-3.107808,-10.53238,40.75109,1007.091
4.841646195,-1.363942,-0.4334123,-0.3382138,0.0610169,0.4838057,-0.8821956,-3.103758,-10.89878,40.30763,1007.091
4.876711846,-1.23465,0.04325513,0.02950731,0.06393122,0.4867109,-0.8715197,-3.103758,-10.89878,40.30763,1007.088
4.909273625,-0.9228294,-0.07562177,0.02961723,0.0723103,0.4790245,-0.8672948,-3.109439,-10.53497,40.30502,1007.09
4.941835880,-0.7348135,-0.5501531,-0.2758287,0.06778286,0.4906468,-0.8709801,-3.103758,-10.89878,40.30763,1007.092
4.976902008,-0.05542349,-0.2509864,-0.02999308,0.06386566,0.4906355,-0.8796772,-3.103758,-10.89878,40.30763,1007.092
5.009463310,1.173459,0.3440802,0.2756458,0.06347043,0.4847543,-0.8700991,-3.103758,-10.89878,40.30763,1007.092
5.042021275,2.150914,0.0460007,-0.03114831,0.06403511,0.4779601,-0.8706867,-3.470229,-10.90142,40.30882,1007.094
5.074583054,1.46577,-0.1321816,0.0299673,0.06485886,0.4891861,-0.8787336,-3.470229,-10.90142,40.30882,1007.094
5.109649181,-0.1983727,0.1058747,-0.09212159,0.06340367,0.4886811,-0.8787399,-3.481592,-10.1738,40.3036,1007.091
5.142210484,-0.7496319,-0.1917003,-0.2749218,0.06240076,0.4915751,-0.8767613,-3.105389,-10.90136,39.86156,1007.093
5.174772263,0.3592958,0.2249437,-0.09081729,0.06399083,0.4813703,-0.8725681,-3.105389,-10.90136,39.86156,1007.093
5.209838867,0.9709089,0.2837728,0.09241172,0.06600581,0.4765168,-0.8682937,-3.109439,-10.53497,40.30502,1007.093
5.242395878,0.8439351,-0.1328173,0.03100844,0.06200643,0.4837898,-0.8759129,-2.738919,-10.89871,39.86037,1007.095
5.274957657,-0.01924893,-0.3698823,0.03124645,0.06344523,0.4833735,-0.8870383,-2.738919,-10.89871,39.86037,1007.092
5.310024262,-0.5712322,0.2246847,-0.09096336,0.06796207,0.4750999,-0.8717008,-3.103758,-10.89878,40.30763,1007.092
5.342586041,-0.1999322,-0.01365098,-0.09038125,0.06891823,0.4770474,-0.8697385,-3.477541,-10.5402,39.86014,1007.092
5.375147343,-0.01494031,-0.1315682,-0.1512696,0.06152279,0.481875,-0.8836756,-3.477541,-10.5402,39.86014,1007.092
5.410213471,-0.07630546,-0.1898749,-0.08957887,0.06833025,0.4848354,-0.8739696,-2.742969,-10.53232,40.30383,1007.094
5.442771435,-0.3830527,-0.3077084,-0.08923292,0.06196577,0.4871934,-0.8763443,-2.742969,-10.53232,40.30383,1007.092
5.475333214,0.04869922,-0.06899679,-0.02757385,0.06238227,0.4925601,-0.8796464,-2.742969,-10.53232,40.30383,1007.088
5.507894516,0.2945521,0.1092981,0.09468794,0.06302588,0.4789632,-0.8803379,-3.115121,-10.17115,40.30241,1007.088
5.542960644,0.3540728,0.1085757,0.09459852,0.05910852,0.4818059,-0.875457,-3.103758,-10.89878,40.30763,1007.09
5.575522900,0.1684333,-0.01081006,0.03324402,0.06444236,0.4838194,-0.8754314,-3.103758,-10.89878,40.30763,1007.09
5.608083725,-0.2617485,-0.1294852,-0.2112284,0.06533086,0.4915978,-0.8733801,-2.742969,-10.53232,40.30383,1007.09
5.643146515,-0.07580523,0.1086525,-0.08843969,0.0663031,0.4925648,-0.8694993,-2.741338,-10.52974,40.7499,1007.09
5.675708294,0.2929542,-0.3072799,-0.02695655,0.06054155,0.4847294,-0.8729969,-2.741338,-10.52974,40.7499,1007.09
5.708270073,0.3528823,-0.008995768,-0.2101953,0.06245398,0.4857706,-0.8826503,-2.372448,-10.89607,39.85918,1007.09
5.743335724,0.105841,-0.0683438,-0.08783352,0.06105028,0.4818423,-0.8778752,-3.103758,-10.89878,40.30763,1007.09
5.775897503,0.1059305,0.169672,-0.1489626,0.0629344,0.4881669,-0.8739135,-2.742969,-10.53232,40.30383,1007.091
5.808459282,-0.01718941,0.1693161,-0.02672432,0.06541016,0.48527,-0.8710598,-2.742969,-10.53232,40.30383,1007.091
5.843521118,-0.1403227,0.05013347,0.2179222,0.06249825,0.4823604,-0.880769,-2.737288,-10.89613,40.30644,1007.087
5.876082897,-0.4463842,-0.1285137,-0.08802263,0.06053509,0.4856924,-0.8710487,-3.103758,-10.89878,40.30763,1007.087
5.908644676,-0.1985705,-0.06904957,-0.2104464,0.0663736,0.4857774,-0.8729865,-3.103758,-10.89878,40.30763,1007.087
5.941206455,-0.01364217,-0.1874503,-0.0265088,0.06003851,0.4857036,-0.8749151,-2.739707,-10.52715,41.19598,1007.087
5.976272583,0.3547138,0.0509788,-0.08736162,0.05963132,0.4784175,-0.8769593,-2.748651,-10.16851,40.30122,1007.087
6.008834362,0.4148722,-0.008206222,0.1575813,0.06394294,0.484787,-0.8758996,-2.748651,-10.16851,40.30122,1007.089
6.041461468,0.6590978,-0.3047751,-0.209432,0.06246766,0.4847943,-0.8816985,-3.109439,-10.53497,40.30502,1007.089
6.076527119,0.3491272,-0.4818427,0.03586252,0.07026605,0.4834558,-0.8855935,-3.468598,-10.89884,40.75489,1007.091
6.109088898,-1.496535,-0.1828845,-0.5754713,0.0639558,0.4842879,-0.8730069,-3.468598,-10.89884,40.75489,1007.089
6.141650677,-2.7816,-0.9545735,-0.4515934,0.06001152,0.488131,-0.8743946,-3.103758,-10.89878,40.30763,1007.085
6.176717281,-7.150049,-1.96575,-1.185986,0.06239722,0.4901547,-0.8850003,-2.365136,-11.25729,40.30787,1007.087
6.209278584,-15.21015,-2.62004,-1.981578,0.06334293,0.492597,-0.8849639,-2.365136,-11.25729,40.30787,1007.087
6.241836071,-21.36289,-3.27433,-2.348775,0.06135631,0.4997767,-0.8664842,-2.737288,-10.89613,40.30644,1007.087
6.276902676,-23.27024,-5.237201,-2.715971,0.05907783,0.4947035,-0.8264391,-2.729976,-11.25736,40.75513,1007.088
6.309463978,-27.45411,-6.367339,-2.83837,0.04051134,0.5306676,-0.8790439,-2.729976,-11.25736,40.75513,1007.09
6.342025757,-18.59416,-4.939796,-0.2067958,0.02355256,0.5649557,-0.8794712,-3.082664,-12.3566,39.87201,1007.09
6.374587536,-9.857257,-5.594087,4.933953,0.003534318,0.568598,-0.88278,-1.96784,-13.44268,39.4302,1007.09
6.409653664,16.47649,-1.608864,6.708736,-0.07097162,0.60848,-0.8888669,-1.96784,-13.44268,39.4302,1007.09
6.442211151,71.60509,-1.489902,-4.490754,-0.1373813,0.6065278,-0.9700398,-2.693469,-13.8092,39.88126,1007.092
6.474772930,133.5017,-17.01443,-5.89834,-0.04978329,0.6044364,-1.006893,-1.611101,-12.70983,39.86986,1007.09
6.509839535,67.6058,-33.37169,-0.6351916,-0.08647835,1.009952,-0.9378319,-1.611101,-12.70983,39.86986,1007.09
6.542400360,4.355586,4.577154,10.1359,0.02784323,0.7408795,-1.076426,-1.650026,-9.789008,41.63326,1007.09
6.574962139,58.31517,4.160787,18.70382,-0.1369592,0.5524884,-1.054972,-0.2419035,-6.079679,41.60196,1007.088
6.610028744,72.22037,-0.7761307,20.2338,-0.2134616,0.5421299,-0.9211611,-0.2419035,-6.079679,41.60196,1007.088
6.642585755,81.81865,-12.49388,19.9278,-0.2113741,0.4155538,-0.868956,-0.2573164,-4.985663,42.0402,1007.089
6.675147534,81.51101,-18.32301,20.295,-0.2345971,0.3831641,-0.760668,0.4431686,-2.794922,42.46822,1007.088
6.710214138,62.74514,-34.97767,13.93026,-0.2950807,0.3507533,-0.7538534,0.4431686,-2.794922,42.46822,1007.088
6.742775917,41.39511,-35.69144,11.11509,-0.1892056,0.2553127,-0.7312428,1.116878,1.217455,43.32927,1007.086
6.775337219,36.41139,-38.24912,12.33908,-0.1334376,0.1847576,-0.7666928,2.545411,3.405741,42.4167,1007.086
6.807898998,36.6575,-40.92577,18.09182,-0.08820006,0.1536258,-0.7382088,2.545411,3.405741,42.4167,1007.086
6.842961312,38.81096,-43.48344,24.45656,-0.05939893,0.1619555,-0.6709202,4.771226,5.604927,42.3937,1007.086
6.875522614,39.73388,-37.35691,25.43575,-0.0447363,0.01905403,-0.7325698,6.570964,7.492684,41.48213,1007.086
6.908084393,42.50261,-41.52057,34.30967,-0.06653747,0.06607068,-0.6607751,6.570964,7.492684,41.48213,1007.082
6.943150997,34.1964,-44.13773,36.63524,-0.06741644,-0.07901055,-0.7151924,8.747063,8.963806,41.46455,1007.082
6.975711823,63.85264,-52.88143,38.10403,-0.09845451,-0.1594396,-0.6458164,10.55506,10.4297,41.00209,1007.082
7.008273602,65.5754,-61.14929,44.16277,-0.09467052,-0.184337,-0.6109134,10.55506,10.4297,41.00209,1007.082
7.043336391,100.1538,-75.30575,50.09911,-0.09276938,-0.286372,-0.7178481,12.73195,11.52926,39.64891,1007.082
7.075898170,117.9353,-82.44346,48.07953,-0.09528268,-0.2263886,-0.6632757,15.63609,12.99793,38.29074,1007.083
7.108458996,93.81651,-87.20193,45.93755,-0.1697034,-0.2351193,-0.6667207,15.63609,12.99793,38.29074,1007.081
7.143525600,49.57827,-90.4139,34.37086,-0.198722,-0.3888425,-0.7183424,18.58343,15.18433,35.14286,1007.082
7.176087379,44.90218,-87.55882,20.5398,-0.2253054,-0.6081139,-0.8831099,21.11216,17.009,32.89112,1007.084
7.208648682,60.83779,-83.09775,13.25707,-0.2930582,-0.6122023,-0.9261274,21.11216,17.009,32.89112,1007.084
7.241206646,87.84834,-84.04945,3.28157,-0.3530919,-0.6321732,-0.8751362,23.3061,17.01713,31.54577,1007.086
7.276272774,121.5039,-86.42868,-6.693932,-0.5825735,-0.7114431,-1.09316,23.67009,16.64305,29.31684,1007.09
7.308834076,50.07049,-59.12693,-9.264307,-0.6261001,-0.6042863,-1.055714,23.67009,16.64305,29.31684,1007.087
7.341395855,54.50046,-58.53212,-14.40506,-0.7936302,-0.5428106,-1.15999,22.2163,14.78758,24.87393,1007.089
7.376462460,28.04366,-60.13811,-7.734322,-0.6792362,-0.2946842,-0.9968007,22.55831,14.75148,18.18166,1007.091
7.409024239,-21.97817,-51.45389,6.708736,-0.7448763,-0.240128,-0.8919789,22.55831,14.75148,18.18166,1007.091
7.441581249,-85.41298,-36.58366,24.82376,-0.788516,-0.266721,-0.9401969,24.35652,16.20187,15.04277,1007.092
7.476647854,-92.55016,-27.06671,39.75641,-0.7275813,-0.1463614,-0.9413196,26.19209,15.47457,12.81169,1007.094
7.509209633,-108.4242,-11.1853,48.38553,-0.6889035,-0.1509979,-0.8800389,28.04553,14.02998,12.37012,1007.096
7.541770935,-105.3479,3.387535,49.79311,-0.7682358,-0.3150181,-0.8428277,28.04553,14.02998,12.37012,1007.095
7.576837063,-68.73904,11.47694,39.45042,-0.9849826,-0.4911168,-0.8941262,29.53172,12.9543,13.26534,1007.095
7.609398842,-32.56089,7.551201,23.35497,-1.057642,-0.3692754,-0.7500845,30.28902,11.50694,13.71948,1007.101
7.641956329,-44.43569,-0.9545735,2.424778,-1.03288,-0.2723814,-0.7181774,30.28902,11.50694,13.71948,1007.099
7.674518109,-57.72562,-0.4192451,-16.05744,-1.00437,-0.3057938,-0.7699526,31.0439,10.42854,15.06315,1007.099
7.709584236,-55.38758,-9.281905,-29.76611,-0.9434988,-0.1249705,-0.7082807,30.31827,10.06203,15.51421,1007.1
7.742145539,-59.87908,-13.20765,-32.82607,-0.7335624,0.1080445,-0.5816672,30.31827,10.06203,15.51421,1007.1
7.774707318,-83.56715,-18.26353,-25.05375,-0.6397187,0.06201375,-0.6636674,30.33289,9.339567,16.41157,1007.1
7.809773922,-60.18672,-11.4827,-18.75021,-0.4937582,0.1620081,-0.6453646,29.61294,8.609236,16.86525,1007.102
7.842331410,-50.2808,-2.263154,-10.85549,-0.421178,0.07883529,-0.637036,29.61294,8.609236,16.86525,1007.102
7.874892712,-15.64084,7.49172,-3.327965,-0.4117153,0.02155297,-0.6248679,29.63162,7.520387,17.31915,1007.104
7.909959316,4.724751,15.64061,-5.163947,-0.4641021,-0.02653386,-0.5680291,28.90857,7.095814,18.21672,1007.104
7.942521095,26.32089,13.02345,-9.203108,-0.502865,-0.08441186,-0.5630742,28.90857,7.095814,18.21672,1007.101
7.975082397,32.28905,7.313277,-15.75144,-0.5843895,-0.06274442,-0.5384961,28.90857,7.095814,18.21672,1007.103
8.010148525,19.55287,-5.594087,-20.3414,-0.675683,-0.04590484,-0.5487853,28.53547,7.517613,18.21486,1007.105
8.042706490,14.63067,-15.28948,-24.13576,-0.7454887,-0.04411958,-0.6066959,28.53547,7.517613,18.21486,1007.105
8.075267792,6.447519,-15.28948,-27.01213,-0.9364368,-0.01467761,-0.6809859,28.52248,8.242651,17.76357,1007.105
8.107829571,5.278498,-17.84716,-31.96928,-0.9935265,-0.06556585,-0.768715,29.22943,9.698021,16.8586,1007.107
8.142895699,33.15044,-15.58689,-21.68778,-0.9271277,-0.08927707,-0.8145782,29.22943,9.698021,16.8586,1007.108
8.175457001,53.88519,-9.341386,-4.062358,-0.8162841,-0.121214,-0.8480421,28.8597,9.690208,15.96765,1007.108
8.208018780,52.65464,6.83743,6.341539,-0.7321242,-0.1042717,-0.805811,29.19692,11.13777,14.17173,1007.108
8.243081570,58.00753,19.50687,7.443129,-0.738827,-0.1059963,-0.7666774,29.19692,11.13777,14.17173,1007.108
8.275642395,49.82438,29.61863,6.463938,-0.707725,-0.133957,-0.7279804,28.82718,11.12995,13.28077,1007.108
8.308204174,40.53373,31.46254,5.913144,-0.7135016,-0.1289233,-0.6761767,29.1945,11.50674,15.06126,1007.104
8.343270779,42.87177,28.36953,9.952304,-0.7161303,-0.1105279,-0.6676762,29.1945,11.50674,15.06126,1007.106
8.375832081,24.84423,21.11285,12.03308,-0.7457826,-0.06492992,-0.6268316,28.82235,11.86791,15.05984,1007.108
8.408393860,28.35129,16.94919,15.52145,-0.7273208,-0.06318475,-0.6369737,28.44614,12.59547,15.50187,1007.108
8.443456173,9.708474,14.56995,16.25584,-0.7233312,-0.1217507,-0.6784747,28.44614,12.59547,15.50187,1007.108
8.476017475,20.84494,16.35438,20.7846,-0.7577738,-0.0887268,-0.6648865,28.06994,13.32302,15.94391,1007.108
8.508579254,2.140597,22.00507,19.80541,-0.874601,-0.1178526,-0.5806271,28.44778,12.59805,15.94795,1007.109
8.541141033,17.27635,15.16476,21.94739,-0.9927819,-0.1743031,-0.5828244,28.44778,12.59805,15.94795,1007.111
8.576206684,27.79755,10.3468,20.4174,-1.08612,-0.2266414,-0.5632309,28.061,13.68167,15.04916,1007.113
8.608768463,35.36543,-5.296682,8.911914,-1.214385,-0.2369298,-0.4859239,28.80367,12.95675,14.60593,1007.113
8.641326428,26.567,-16.53858,-0.8799891,-1.144058,-0.2896058,-0.4573094,28.80367,12.95675,14.60593,1007.111
8.676393032,35.48848,-25.99605,-6.020739,-0.8899886,-0.3221714,-0.4764198,28.80446,12.5852,13.27032,1007.111
8.708953858,66.86748,-28.73217,-4.796751,-0.6273365,-0.3519117,-0.5573676,28.78657,13.30248,11.48082,1007.112
8.741515637,99.53856,-31.88466,0.4051982,-0.3553944,-0.2813576,-0.5439858,28.78657,13.30248,11.48082,1007.112
8.776582241,79.48061,-27.18567,9.952304,-0.2004742,-0.1350502,-0.4249261,28.79788,11.82916,8.368757,1007.114
8.809143543,90.80166,-18.08508,22.74298,-0.1542751,-0.1861225,-0.4968062,28.78973,11.81625,6.138397,1007.114
8.841701031,89.57111,-24.03318,42.44918,-0.2127151,-0.2315242,-0.5129105,28.78973,11.81625,6.138397,1007.111
8.876767636,93.44734,-30.45712,63.74657,-0.3343922,-0.3552851,-0.4726275,28.39885,12.52056,2.565788,1007.113
8.909328938,82.61851,-51.51337,77.02684,-0.4436026,-0.5041544,-0.4327395,28.0258,11.76188,-2.334592,1007.115
8.941890717,77.51173,-57.63991,83.81998,-0.6714412,-0.5846336,-0.3820261,28.0258,11.76188,-2.334592,1007.115
8.974452019,78.55769,-63.2906,79.04642,-0.8140477,-0.7077886,-0.5336141,28.75053,11.00855,-7.68461,1007.115
9.009518147,94.43178,-68.94128,65.70496,-0.9710256,-0.6434464,-0.4909106,31.31897,9.540842,-13.03535,1007.117
9.042076111,90.6786,-62.81475,51.62909,-0.972951,-0.407411,-0.3534123,31.31897,9.540842,-13.03535,1007.112
9.074637413,49.63979,-52.82195,41.2864,-1.04932,-0.3719892,-0.3460309,33.58366,8.073507,-17.93903,1007.114
9.109703541,37.3343,-53.65469,37.85923,-1.063934,-0.3602803,-0.2912166,35.43558,6.191555,-20.60791,1007.114
9.142265320,32.53516,-53.77365,38.22643,-1.163835,-0.29919,-0.2249323,36.16847,5.451146,-23.72757,1007.118
9.174826622,23.05993,-61.7441,37.12484,-1.150541,-0.2156889,-0.1666327,36.16847,5.451146,-23.72757,1007.119
9.209893227,-10.65711,-63.82593,35.16646,-1.103427,-0.198209,-0.134992,36.52921,5.0719,-26.84865,1007.121
9.242450714,-31.88409,-61.38721,34.92166,-1.030099,-0.1930794,-0.1973402,36.52752,4.323615,-30.41201,1007.123
9.275012016,-36.92934,-57.75887,34.49326,-0.9688332,-0.1897377,-0.2220005,36.52752,4.323615,-30.41201,1007.123
9.310078621,-47.88123,-53.0004,32.16769,-0.9022503,-0.1263835,-0.1761442,35.79374,3.944178,-32.1913,1007.119
9.342640400,-56.43354,-39.20082,28.00613,-0.8731402,-0.1794965,-0.2755915,36.12933,5.389153,-34.4333,1007.12
9.375201702,-60.92505,-26.05553,25.19095,-0.8550615,-0.2240265,-0.2642039,36.12933,5.389153,-34.4333,1007.122
9.407763481,-33.4838,-14.45675,28.43452,-0.9303741,-0.1920724,-0.2394748,36.10902,6.47542,-35.33327,1007.122
9.442825794,-24.7469,-2.976925,27.45533,-0.9863048,-0.1439941,-0.1782652,36.46076,7.635299,-34.45059,1007.122
9.475387573,-17.91735,3.268573,21.33539,-1.003576,-0.1622937,-0.1582259,36.46076,7.635299,-34.45059,1007.118
9.507948876,-14.96404,8.443415,13.62427,-1.07408,-0.2673936,-0.01426489,36.82644,8.009506,-33.11617,1007.118
9.543015003,15.369,-5.950973,11.23749,-1.478583,-0.1997507,0.1950095,37.56264,8.019966,-32.22641,1007.122
9.575576306,12.2311,-31.34933,-3.266766,-1.303699,-0.1510483,0.2463383,37.56264,8.019966,-32.22641,1007.122
9.608138085,-9.118928,-16.30066,0.4663976,-0.8060979,-0.1127566,-0.2248501,37.93643,7.661384,-31.77891,1007.122
9.643200398,-10.78017,-1.133016,-1.859179,-0.8672588,-0.148044,0.08983221,36.4796,6.857375,-32.66064,1007.122
9.675761700,1.34074,1.722069,-1.79798,-1.186126,-0.1191132,0.08139721,36.4796,6.857375,-32.66064,1007.125
9.708323479,8.416398,0.2945262,-2.654772,-0.9806901,-0.01519622,-0.0569116,36.83376,7.648278,-32.66749,1007.124
9.743390083,6.447519,-0.3597641,-1.369584,-0.9580522,-0.1117776,-0.02215366,36.84933,6.865187,-31.76969,1007.126
9.775951386,3.494201,2.138435,-0.8187898,-0.9935567,-0.1132701,-0.009574365,36.84933,6.865187,-31.76969,1007.126
9.808513165,5.278498,-4.166544,0.03800179,-1.003312,-0.02739163,-0.005354494,36.83944,7.284467,-32.66488,1007.13
9.841070652,-2.53549,-3.27433,0.2827994,-1.005504,-0.08916657,-0.0004943185,36.83944,7.284467,-32.66488,1007.129
9.876136780,-3.642984,-1.549383,1.873984,-0.9546921,-0.155821,-0.05279821,36.83944,7.284467,-32.66488,1007.129
9.908698559,6.447519,-4.582911,4.321959,-0.992086,-0.05720227,0.062336,36.84107,7.287051,-32.2188,1007.132
9.941260338,-1.735633,-5.594087,3.403969,-1.01833,0.02453125,0.07569271,35.75397,6.490854,-32.20958,1007.132
9.976325989,-10.90322,-0.7761307,2.730775,-0.9755032,-0.09740671,0.08007494,35.75397,6.490854,-32.20958,1007.134
10.008887768,-9.426565,2.673764,5.178751,-1.01325,-0.08316672,0.04697562,36.48528,6.493564,-32.65804,1007.13
10.041445732,-7.888379,3.268573,5.790745,-0.9951447,-0.04177039,0.07997596,36.4796,6.857375,-32.66064,1007.13
10.076511383,-6.965466,8.621858,4.933953,-0.9657458,-0.07263726,0.005520007,36.4796,6.857375,-32.66064,1007.13
10.109073162,-2.966182,10.64421,3.832364,-0.984646,-0.02887399,0.05309347,36.4746,7.284404,-32.21762,1007.131
10.141634941,-5.981027,13.38033,1.935183,-0.9952461,-0.04348766,0.03016204,36.48449,6.865124,-31.32243,1007.131
10.176701069,-7.826851,15.75957,0.2827994,-0.9786462,-0.05476657,-0.006762698,36.48449,6.865124,-31.32243,1007.131
10.209262848,-2.412435,17.8414,-0.5739922,-0.983822,-0.02811166,-0.004900915,36.85096,6.867771,-31.32362,1007.133
10.241820335,-0.4435561,19.26895,-2.77717,-0.9943747,-0.005770114,-0.03161898,37.21243,7.297447,-30.88178,1007.133
10.274381638,0.5408832,16.05697,-4.551953,-0.9759203,-0.04628561,-0.04675622,37.21243,7.297447,-30.88178,1007.133
10.309448242,3.801838,13.85618,-5.959539,-0.9817363,-0.009369223,-0.05875519,38.32174,6.886107,-29.99016,1007.133
10.342009068,4.417113,12.36916,-8.040318,-0.9885578,-0.0569561,-0.08751047,38.31269,7.67953,-29.10367,1007.134
10.374570847,0.8485205,9.335629,-9.815102,-1.016577,-0.1223613,-0.1063662,38.31269,7.67953,-29.10367,1007.136
10.409637451,4.601696,9.573553,-8.713512,-0.9931616,-0.1149986,-0.05552192,39.40478,8.048697,-29.55592,1007.136
10.442194462,4.171003,11.2985,-5.89834,-0.9911343,-0.1227279,-0.05999219,39.40968,8.056446,-28.2177,1007.134
10.474756718,1.525323,9.930438,-3.81756,-0.9944038,-0.09502088,-0.07020061,39.40968,8.056446,-28.2177,1007.134
10.509822846,3.248091,9.692514,-2.103977,-0.9793125,-0.09814628,-0.08766443,40.12963,8.786777,-28.67137,1007.134
10.542384148,-1.058831,9.514071,-3.939959,-0.9761152,-0.04450263,-0.1182686,40.13857,8.428133,-27.77662,1007.135
10.574945927,-18.34805,13.26137,-7.183527,-1.025319,-0.2108688,-0.1197925,40.13857,8.428133,-27.77662,1007.134
10.610012531,-5.857972,3.744421,-1.79798,-0.9823649,-0.0371227,-0.04951047,40.86746,8.79982,-27.33554,1007.134
10.642569542,-4.073676,3.68494,1.139591,-1.007689,-0.1305557,-0.09586553,40.84879,9.88867,-27.78944,1007.134
10.675131321,-17.36361,1.008297,-1.002388,-0.9909445,-0.01052102,-0.04571271,40.84879,9.88867,-27.78944,1007.135
10.707693100,-22.77802,-1.192497,-1.185986,-0.9915331,-0.1390662,-0.1018115,40.86341,9.166212,-26.89207,1007.131
10.742758751,-22.53191,-1.96575,1.017192,-0.9777916,-0.1029929,-0.08628971,40.86341,9.166212,-26.89207,1007.131
10.775321007,-29.79215,-4.820835,1.384389,-0.9783337,-0.06347825,-0.1200061,41.57931,10.26294,-26.90229,1007.133
10.807881832,-20.80914,-4.52343,2.485978,-0.9724447,-0.1057594,-0.1037386,41.57931,10.26294,-26.90229,1007.133
10.842944145,-17.54819,-3.036406,4.566757,-0.9774061,-0.09566717,-0.09294559,40.83905,10.61887,-27.34859,1007.133
10.875506401,-19.27096,-2.976925,4.933953,-0.9809399,-0.09262913,-0.1296325,40.45554,11.70766,-27.35524,1007.135
10.908067227,-11.70308,-2.62004,5.23995,-0.9883286,-0.07639906,-0.08635719,40.45554,11.70766,-27.35524,1007.13
10.943133831,-8.688235,-1.311459,5.056352,-0.9686791,-0.09643459,-0.1127842,40.82933,11.34908,-26.90774,1007.132
10.975695610,-0.2589737,-1.192497,3.954763,-0.9838349,-0.04425897,-0.08732131,40.45717,11.71024,-26.90916,1007.132
11.008256912,-0.4435561,-2.144192,1.017192,-1.009268,-0.03820201,-0.1026724,40.45717,11.71024,-26.90916,1007.132
11.043319225,1.156158,-4.047582,-2.654772,-0.9822322,-0.06257261,-0.1166049,40.08502,12.07141,-26.91059,1007.132
11.075881004,5.586135,-5.356163,-4.368355,-0.9777603,-0.06838593,-0.1079971,40.82769,11.34649,-27.35381,1007.132
11.108442307,6.509047,-5.950973,-4.001159,-0.9925421,-0.08817956,-0.07299829,40.82769,11.34649,-27.35381,1007.13
11.141004086,6.632102,-4.939796,-2.287575,-0.9771852,-0.06521116,-0.05671127,40.09312,11.33862,-27.79751,1007.13
11.176070690,4.724751,-3.809659,-1.124787,-0.9761254,-0.07534321,-0.06991804,40.08744,11.70243,-27.80012,1007.13
11.208631516,3.371146,-2.322635,0.1604006,-0.990196,-0.08132751,-0.07676304,40.08744,11.70243,-27.80012,1007.13
11.241189480,2.32518,-1.549383,1.017192,-0.9809405,-0.07978649,-0.06853106,40.09312,11.33862,-27.79751,1007.131
11.276255131,2.32518,-0.5382069,1.384389,-0.9834849,-0.06915462,-0.06256588,40.46527,10.97746,-27.79609,1007.131
11.308816910,2.694344,0.05660246,1.996383,-0.9737101,-0.07384935,-0.07086434,40.46527,10.97746,-27.79609,1007.131
11.341378689,2.263652,0.2945262,1.996383,-0.9869533,-0.06718729,-0.07751719,40.0988,10.97481,-27.7949,1007.131
11.376444817,1.58685,0.7703737,2.608377,-0.984356,-0.0807698,-0.07579342,39.35855,11.33074,-28.2412,1007.133
11.409006596,1.894487,1.246221,2.608377,-0.9956884,-0.07068537,-0.08142915,39.35855,11.33074,-28.2412,1007.129
11.441564083,1.217685,1.424664,2.485978,-0.9914221,-0.05900157,-0.07352098,40.45959,11.34127,-27.7987,1007.131
11.476630211,0.2947734,0.7108927,1.996383,-0.9939035,-0.05704573,-0.08315628,39.7307,10.96958,-28.23978,1007.131
11.509191990,-0.4435561,1.305702,1.506787,-0.9888132,-0.0764098,-0.08539014,39.7307,10.96958,-28.23978,1007.131
11.541752815,0.1717185,0.53245,1.139591,-0.9850394,-0.06424645,-0.07747417,39.73233,10.97216,-27.79371,1007.131
11.574315071,0.4793558,0.3540072,0.7723945,-0.9870306,-0.06133881,-0.08129491,40.46527,10.97746,-27.79609,1007.131
11.609381199,0.1717185,-0.002878483,0.5887964,-0.9908052,-0.07302505,-0.08727007,40.46527,10.97746,-27.79609,1007.132
11.641938687,-0.07439134,-0.6571688,0.1604006,-0.9850635,-0.06277553,-0.08035196,40.10448,10.611,-27.79229,1007.132
11.674500466,-0.07439134,-0.5976879,-0.2067958,-0.989457,-0.05995898,-0.0711206,40.45796,11.33868,-28.24477,1007.128
11.709566593,0.3563008,-0.7166498,-0.3291946,-0.981541,-0.0710245,-0.07323056,40.45796,11.33868,-28.24477,1007.128
11.742127896,0.6024107,-0.5382069,-0.1455964,-0.9875345,-0.05846047,-0.07448323,40.10043,10.97739,-27.34882,1007.127
11.774689675,-0.1974463,-0.7761307,-0.2679952,-0.9860165,-0.06377763,-0.07649933,40.47501,10.24725,-28.23694,1007.127
11.809756279,-0.3820286,-0.7166498,-0.6351916,-0.9908573,-0.06579575,-0.07410856,40.47501,10.24725,-28.23694,1007.128
11.842313290,0.2332459,-1.133016,-0.390394,-0.9864277,-0.0701052,-0.07562871,40.1069,10.24202,-28.68182,1007.128
11.874875069,-0.566611,-0.5382069,-0.2679952,-0.9903289,-0.06967008,-0.0756183,40.09717,10.97223,-28.24097,1007.13
11.909940720,-0.6281385,-0.478726,-0.084397,-0.9874435,-0.06671214,-0.07654272,40.09717,10.97223,-28.24097,1007.132
11.942502499,-0.07439134,-0.1813213,0.3439988,-0.9864643,-0.0662333,-0.07218597,40.10448,10.611,-27.79229,1007.129
11.975064754,-0.2589737,-0.4192451,-0.084397,-0.9908673,-0.06625309,-0.08039942,40.84311,10.25248,-27.79205,1007.131
12.007625580,-0.566611,-1.073535,-0.1455964,-0.9900108,-0.05461154,-0.07297198,40.84311,10.25248,-27.79205,1007.131
12.042688370,-1.058831,-1.014055,-0.5739922,-0.9869155,-0.06963442,-0.07368755,40.46932,10.61106,-28.23955,1007.131
12.075250149,-0.3820286,-1.133016,-0.4515934,-0.9889768,-0.05946453,-0.07159691,39.73801,10.60835,-27.7911,1007.131
12.107810974,-1.243413,-1.37094,-0.7575904,-0.9856326,-0.05549764,-0.07927363,39.73801,10.60835,-27.7911,1007.129
12.142877579,-0.566611,-1.608864,-1.185986,-0.98984,-0.07014305,-0.07707612,40.10122,10.60583,-28.68443,1007.13
12.175438881,0.2947734,-1.96575,-1.124787,-0.9937621,-0.06729157,-0.07412857,39.73638,10.60577,-28.23717,1007.13
12.208000660,1.033103,-2.382116,-1.124787,-0.9845953,-0.05750329,-0.06287043,39.73638,10.60577,-28.23717,1007.13
12.243062973,1.525323,-1.846788,-1.185986,-0.9835207,-0.06575985,-0.06106392,39.73396,10.97474,-27.34764,1007.13
12.275624275,2.448235,-0.6571688,-1.185986,-0.9859297,-0.06678978,-0.05527678,40.10448,10.611,-27.79229,1007.132
12.308186054,2.32518,-0.3597641,-1.491983,-0.9893875,-0.06341528,-0.05908898,40.10448,10.611,-27.79229,1007.132
12.343252659,1.34074,-0.5382069,-1.736781,-0.9868504,-0.07260702,-0.06116517,39.72907,10.96699,-28.68585,1007.132
12.375813484,0.9715754,-0.3002832,-2.348775,-0.9879082,-0.06913704,-0.07899615,39.36586,10.96951,-27.79252,1007.132
12.408375263,0.8485205,-1.549383,-3.450364,-0.9865265,-0.05946134,-0.06531531,39.36586,10.96951,-27.79252,1007.132
12.440932751,-0.7511934,-1.727826,-4.919149,-0.9916719,-0.07751422,-0.06461902,39.73638,10.60577,-28.23717,1007.134
12.475998879,-0.6281385,-2.62004,-5.775941,-0.989755,-0.07695676,-0.07476328,38.99776,10.96428,-28.2374,1007.131
12.508560658,0.3563008,-3.214849,-6.387935,-0.985816,-0.07983901,-0.07094403,38.99612,10.9617,-28.68348,1007.131
12.541121960,1.033103,-3.452773,-6.999929,-0.9877803,-0.07793175,-0.06849616,38.99612,10.9617,-28.68348,1007.133
12.576188564,2.32518,-3.631216,-7.061129,-0.9924158,-0.097447,-0.06540578,39.35691,11.32816,-28.68727,1007.133
12.608749390,3.248091,-2.679521,-6.999929,-0.9802428,-0.0934823,-0.0474721,39.7177,11.69462,-28.69107,1007.135
12.641307354,2.940454,-2.322635,-6.93873,-0.9727041,-0.110462,-0.03275374,39.7177,11.69462,-28.69107,1007.135
12.676373959,3.125036,-0.7166498,-5.837141,-0.9751823,-0.1061338,-0.02978505,38.99208,11.3281,-28.24001,1007.135
12.708934784,9.708474,1.959992,-1.859179,-0.9646131,-0.1365907,-0.03509368,38.97908,12.05313,-28.69131,1007.135
12.741496563,9.646947,4.458192,-0.1455964,-0.9834741,-0.1100213,-0.05352182,38.97908,12.05313,-28.69131,1007.136
12.776563168,3.801838,7.253796,1.017192,-0.9853569,-0.1115923,-0.0342089,38.62397,11.32286,-28.6849,1007.136
12.809124470,7.185849,6.24262,1.139591,-0.9810519,-0.1090155,-0.05399219,38.98639,11.69191,-28.24262,1007.138
12.841682434,10.20069,3.625459,-0.2679952,-0.9834104,-0.08308335,-0.09854834,38.98639,11.69191,-28.24262,1007.138
12.876748085,6.385992,-0.002878483,-2.348775,-0.9803813,-0.09037565,-0.08947835,38.99612,10.9617,-28.68348,1007.138
12.909309864,1.771432,-1.014055,-4.368355,-0.9782822,-0.1001387,-0.07416126,40.08744,11.70243,-27.80012,1007.134
12.941871643,2.632817,-3.631216,-6.326736,-0.9835098,-0.0748163,-0.09987224,40.08744,11.70243,-27.80012,1007.134
12.974432945,4.294058,-4.582911,-8.285116,-1.008243,-0.1195005,-0.07056072,39.35123,11.69197,-28.68989,1007.137
13.009499073,9.400837,-7.140591,-8.95831,-0.9931384,-0.1207482,-0.0734946,38.98639,11.69191,-28.24262,1007.139
13.042056561,6.816684,-10.82841,-10.4271,-0.9801132,-0.1032313,-0.04085368,38.98639,11.69191,-28.24262,1007.139
13.074618340,-2.597017,-7.556958,-12.07948,-0.9958481,-0.1330637,-0.04516064,38.98476,11.68932,-28.6887,1007.137
13.109684467,-1.120358,-8.211248,-11.34509,-0.9936578,-0.1539324,-0.04548113,38.60935,12.04532,-29.58226,1007.142
13.142245770,6.201409,-8.389691,-10.2435,-0.9844817,-0.1460636,-0.03956942,38.60935,12.04532,-29.58226,1007.146
13.174807549,7.124321,-12.79128,-11.34509,-0.9718205,-0.1074306,-0.05542706,38.24125,12.04009,-30.02715,1007.147
13.209874153,3.678784,-13.32661,-10.54949,-0.978995,-0.1984936,-0.03699097,37.13779,12.39855,-29.58012,1007.147
13.242431164,10.01611,-9.043982,-7.550724,-0.9945904,-0.1910629,-0.005926434,37.13779,12.39855,-29.58012,1007.151
13.274992943,17.76857,-8.627615,-5.837141,-0.9899161,-0.1697161,0.01566331,37.86341,12.76507,-30.03118,1007.152
13.310059071,15.24595,-8.33021,-6.143137,-0.9799338,-0.1486865,0.01549113,36.764,12.75713,-30.02761,1007.152
13.342620850,12.96943,-6.129415,-0.390394,-0.9919386,-0.2104522,-0.009608441,36.764,12.75713,-30.02761,1007.153
13.375181675,11.92346,-6.129415,-1.308385,-0.984313,-0.1430424,0.0441007,36.3959,12.75189,-30.4725,1007.153
13.407743454,2.755872,-5.713048,-3.87876,-0.9776393,-0.1806849,0.004849825,35.67674,11.65001,-31.35443,1007.155
13.442806244,2.263652,-6.486301,-5.714742,-0.9956345,-0.1809594,0.01356379,35.67674,11.65001,-31.35443,1007.157
13.475367069,0.2947734,-5.594087,-7.061129,-0.9797252,-0.1652382,0.02200569,36.76884,12.01917,-31.80668,1007.156
13.507928848,-1.981742,-6.486301,-8.346315,-0.9709072,-0.2055925,0.05038413,35.31596,11.28355,-31.35063,1007.162
13.542995453,-2.597017,-4.761353,-11.10029,-0.97848,-0.1890262,0.01970806,35.31596,11.28355,-31.35063,1007.162
13.575556755,3.309619,-8.032805,-12.69147,-0.9759984,-0.1890802,0.03855654,35.67106,12.01381,-31.35704,1007.161
13.608118534,-4.012148,-7.675919,-17.28143,-0.9864305,-0.1836048,-0.01935508,35.6597,12.74144,-31.36226,1007.163
13.643180370,-15.3332,-7.973324,-16.48584,-0.9802371,-0.2972528,-0.01916141,35.6597,12.74144,-31.36226,1007.163
13.675742150,0.9100479,-8.508653,-11.40629,-0.9843618,-0.268824,0.0228467,34.9235,12.73098,-32.25203,1007.163
13.708303929,0.6024107,-5.296682,-8.346315,-1.044452,-0.2991551,0.00117338,35.27293,13.82506,-32.26105,1007.163
13.743369579,9.0932,5.350406,-9.203108,-0.9832432,-0.3712212,-0.007235817,35.27293,13.82506,-32.26105,1007.163
13.775931359,23.55215,14.03462,-8.468715,-1.022778,-0.4133652,-0.04409388,33.8184,13.08685,-32.25108,1007.163
13.808492661,45.64051,16.23542,-15.07825,-0.9619712,-0.3174481,-0.01465337,33.81272,13.45066,-32.25368,1007.163
13.841050625,29.64337,17.78192,-27.13453,-0.9226635,-0.200274,0.08763872,33.81272,13.45066,-32.25368,1007.161
13.876116753,-38.77516,7.253796,-39.9252,-0.9350463,0.2237515,0.4290999,33.08872,13.08672,-31.35655,1007.161
13.908678055,-199.6695,25.99029,-72.48328,-0.8461478,-0.3272251,-0.09708839,33.83871,12.00058,-31.3511,1007.16
13.941239834,-169.521,21.11285,-79.52122,-0.8402463,-0.7562335,-0.324059,33.83871,12.00058,-31.3511,1007.158
13.976305485,-93.84224,22.71884,-74.44167,-0.8945905,-0.6233421,-0.2059687,33.0701,14.92127,-28.69318,1007.153
14.008867741,-35.14504,16.65178,-60.7942,-0.9492739,-0.5696229,-0.2055797,32.97926,21.48795,-25.61767,1007.153
14.041425228,37.51889,7.015872,-30.86769,-0.9039504,-0.3501215,-0.1437861,32.97926,21.48795,-25.61767,1007.153
14.076491356,22.3216,-6.783706,-0.696391,-0.9899323,0.6118077,0.5443164,31.02323,25.91097,-23.85901,1007.153
14.109053135,-33.36074,-4.939796,5.423548,-1.10955,-0.521166,0.006549918,29.91324,26.25909,-25.19627,1007.153
14.141613960,-40.55946,6.302101,-3.87876,-0.9062248,-0.6003405,-0.2737627,29.56303,25.53657,-23.85165,1007.15
14.176680565,19.36828,19.62583,-7.673122,-0.7387792,-0.6455465,-0.3263353,29.56303,25.53657,-23.85165,1007.148
14.209242344,52.53159,21.5887,-9.019509,-0.7843027,-0.4066921,-0.07950876,30.28624,26.27207,-23.41317,1007.148
14.241799355,17.33788,19.14998,-7.550724,-0.8183709,-0.4028886,-0.05186538,30.29192,25.90825,-23.41056,1007.146
14.274361134,-5.734917,9.692514,-4.85795,-0.8405059,-0.4930233,-0.1726132,30.29192,25.90825,-23.41056,1007.146
14.309427261,-2.412435,1.78155,-0.1455964,-0.8594438,-0.5537148,-0.2397435,29.93276,25.54438,-22.96069,1007.146
14.341989040,11.73888,-2.382116,5.790745,-0.8406602,-0.530735,-0.2162089,29.55492,26.26936,-22.96473,1007.145
14.374549866,16.59955,-3.869139,11.17629,-0.8313483,-0.4903522,-0.199167,29.55492,26.26936,-22.96473,1007.145
14.409616470,21.39869,2.495321,14.72586,-0.8620443,-0.4023657,-0.1842605,30.31059,24.81941,-22.95666,1007.141
14.442174435,11.24666,11.5959,12.21668,-0.9053167,-0.5498484,-0.2594587,30.68517,24.08927,-23.84477,1007.142
14.474735737,31.98141,20.51805,5.851944,-1.024925,-0.5717154,-0.2823955,30.68517,24.08927,-23.84477,1007.142
14.509801865,42.01039,28.54797,-3.572763,-1.147729,-0.5679111,-0.2952701,30.326,23.72539,-23.3949,1007.142
14.542363644,61.5146,30.86773,-15.07825,-0.9806458,-0.5672722,-0.2775367,31.45056,21.90911,-24.27755,1007.142
14.574924946,88.77126,37.17271,-20.76979,-0.8704438,-0.4668241,-0.1417319,31.45056,21.90911,-24.27755,1007.142
14.609991551,11.98499,26.70406,-36.74283,-0.9316124,-0.2541609,0.1549814,30.73724,20.75434,-23.82083,1007.142
14.642548561,-80.24467,40.80104,-59.01941,-0.8399768,-0.735854,-0.3160143,30.76891,18.94045,-22.91563,1007.144
14.675110340,-64.86281,46.27329,-65.38416,-0.8237904,-0.7924011,-0.339128,30.76891,18.94045,-22.91563,1007.138
14.707671642,-53.4187,50.9128,-63.30337,-0.8021648,-0.7288662,-0.3546144,30.39355,20.04215,-20.69192,1007.136
14.742737770,-49.1733,46.45174,-59.20301,-0.7782555,-0.5994446,-0.3173765,29.63373,22.29327,-18.47528,1007.136
14.775299549,-66.83169,49.12838,-55.10265,-0.7515643,-0.6070151,-0.3924411,29.63373,22.29327,-18.47528,1007.135
14.807860851,-64.80128,48.4146,-49.53351,-0.7693446,-0.5872863,-0.399857,28.536,23.03362,-14.90836,1007.135
14.842923165,-64.73975,49.00941,-43.59717,-0.7627656,-0.5715428,-0.4228252,27.07423,23.40234,-12.22979,1007.135
14.875484467,-67.93918,47.34395,-34.78445,-0.7181301,-0.5160203,-0.4273384,27.07423,23.40234,-12.22979,1007.135
14.908046246,-67.87766,48.17668,-21.99378,-0.6932979,-0.4805531,-0.4601743,26.34297,24.14533,-8.664058,1007.135
14.943112850,-63.75531,45.08367,-8.591113,-0.7079304,-0.4792727,-0.4630409,25.62634,24.16586,-4.200961,1007.13
14.975674152,-65.90878,37.29167,3.648766,-0.6989363,-0.4625102,-0.4893796,25.62634,24.16586,-4.200961,1007.129
15.008235931,-71.63083,26.76354,16.31704,-0.6786209,-0.5075979,-0.5621101,24.89508,24.90886,-0.6352291,1007.127
15.043297768,-61.78643,20.75597,25.49695,-0.6432909,-0.5523415,-0.6672363,25.30301,23.11311,2.945212,1007.127
15.075859547,-59.87908,19.0905,29.35251,-0.6178206,-0.5342661,-0.7211233,25.30301,23.11311,2.945212,1007.127
15.108421326,-68.49293,21.52922,29.71971,-0.5671197,-0.5099878,-0.7841242,25.69389,22.4088,6.517822,1007.125
15.140982151,-66.52405,26.46614,29.96451,-0.558828,-0.4838017,-0.8538224,25.35683,21.27217,9.649782,1007.122
15.176048756,-63.75531,32.17631,30.14811,-0.5287118,-0.4452788,-0.9020847,25.35683,21.27217,9.649782,1007.12
15.208610058,-66.89321,37.23219,33.51407,-0.5221975,-0.3795331,-0.912689,26.49769,19.48172,13.22785,1007.114
15.241167545,-78.02969,42.34755,37.06364,-0.4870939,-0.3953265,-0.9724192,27.27535,17.69379,17.69925,1007.114
15.276234150,-77.8451,43.1208,40.06241,-0.4770759,-0.3824474,-0.9968845,27.27535,17.69379,17.69925,1007.111
15.308795452,-80.24467,46.51122,40.3684,-0.4428937,-0.3446607,-0.9789396,28.0457,16.26709,21.72196,1007.109
15.341357231,-76.86066,49.90163,40.3684,-0.3867487,-0.2663085,-0.9478289,28.82172,14.47657,25.74728,1007.107
15.376422882,-86.15131,52.04294,37.79803,-0.3568526,-0.2316087,-0.9047913,28.82172,14.47657,25.74728,1007.105
15.408984661,-87.68949,54.89803,35.96205,-0.366035,-0.1900579,-0.8770795,28.47235,14.1282,28.87359,1007.105
15.441542149,-93.22697,54.71959,32.41248,-0.2882322,-0.2158985,-0.8499963,28.13839,12.68581,31.56165,1007.104
15.476608276,-79.56787,56.74194,25.98655,-0.2650704,-0.1952317,-0.8395524,28.13839,12.68581,31.56165,1007.102
15.509170056,-69.23125,57.8126,17.41863,-0.2402761,-0.1829447,-0.7987852,25.98181,10.49998,33.81481,1007.098
15.541731358,-54.95688,61.08404,7.810325,-0.1741825,-0.1286292,-0.7970536,24.57116,7.594402,36.51689,1007.097
15.574293137,-56.86423,64.23653,-1.124787,-0.1941799,-0.002483576,-0.8062274,24.57116,7.594402,36.51689,1007.097
15.609358788,-69.90806,69.3519,-8.835911,-0.2045954,0.09321658,-0.826026,23.1379,5.709292,37.42728,1007.091
15.641916752,-58.89464,76.13272,-13.36467,-0.1692464,0.05271872,-0.9030515,20.60348,4.248436,39.6764,1007.087
15.674478531,-53.11106,82.08082,-16.54704,-0.1601502,0.1082394,-0.9022132,20.60348,4.248436,39.6764,1007.086
15.709544182,-39.0828,87.90995,-20.3414,-0.18738,0.2004458,-0.8437418,18.08122,1.688401,40.59515,1007.082
15.742106438,-52.3112,92.01414,-22.48338,-0.1839955,0.2095709,-0.8102528,14.38305,0.2139983,41.95589,1007.082
15.774667263,-55.38758,90.58659,-21.81018,-0.2020411,0.2231812,-0.7558895,11.10917,-1.262483,42.42311,1007.08
15.809733868,-50.52691,86.77981,-21.32059,-0.2944216,0.2540071,-0.7456626,11.10917,-1.262483,42.42311,1007.079
15.842290878,-38.15989,75.41895,-24.62535,-0.2978747,0.3143912,-0.6751317,6.748872,-3.471942,43.34518,1007.077
15.874852658,-42.09764,63.16587,-27.25693,-0.2840224,0.3820725,-0.6629948,4.216034,-5.675917,42.9231,1007.075
15.909919262,-37.60614,46.21381,-29.33771,-0.1795427,0.5311006,-0.6448706,4.216034,-5.675917,42.9231,1007.072
15.942480564,-34.1606,44.54834,-29.76611,-0.1478754,0.5604411,-0.7000419,1.252544,-7.577221,42.9463,1007.072
15.975042343,-33.05311,25.99029,-25.54335,-0.1456958,0.7794985,-0.5579728,0.1799071,-9.406797,42.51685,1007.072
16.007603168,-46.15845,22.65936,-24.19696,-0.1155859,0.7182652,-0.6855808,0.1799071,-9.406797,42.51685,1007.07
16.042665958,-43.08208,16.17594,-19.9742,-0.0567504,0.8180047,-0.6473793,-1.625671,-11.24167,42.08978,1007.07
16.075226784,-43.38972,11.95279,-16.11864,-0.002296395,0.8255274,-0.6492506,-1.598895,-13.0633,41.65676,1007.07
16.107788563,-49.23483,10.16836,-14.40506,-0.01369515,0.8010685,-0.6471958,-1.598895,-13.0633,41.65676,1007.07
16.142855167,-10.22642,3.68494,-10.48829,0.07493635,0.7575581,-0.6576127,-1.93454,-15.25398,40.78147,1007.065
16.175416470,-4.073676,5.885735,-0.7575904,0.02782018,0.8028066,-0.5901709,-1.913446,-16.71181,40.34584,1007.065
16.207978249,3.863366,-1.311459,0.2827994,0.01383441,0.705461,-0.5988932,-1.913446,-16.71181,40.34584,1007.065
16.243040085,7.185849,-8.33021,-1.920379,0.01754619,0.6806955,-0.5929908,-2.636656,-17.44731,39.90737,1007.064
16.275601864,-11.76461,-9.281905,-6.999929,-0.0193976,0.5447131,-0.6143647,-2.629344,-17.80853,40.35606,1007.064
16.308163643,15.98428,-20.64277,-11.10029,0.004298835,0.4788487,-0.5979909,-2.629344,-17.80853,40.35606,1007.067
16.343229294,39.73388,-34.56131,-12.87507,-0.09009247,0.5211236,-0.7587027,-3.008808,-17.08614,39.90595,1007.069
16.375791073,161.9274,25.336,14.60346,0.2562745,1.969901,-1.99323,-2.642337,-17.08349,39.90476,1007.071
16.408352375,36.41139,-17.96612,-0.5127928,0.0481085,1.14372,-1.428482,-2.642337,-17.08349,39.90476,1007.071
16.440910339,105.9374,16.41386,13.07347,0.03892919,0.7492077,-1.483796,-2.652069,-16.35329,40.34561,1007.071
16.475975990,106.3066,20.39908,19.00982,0.01716863,0.5008744,-0.8074528,-2.692626,-13.43506,41.66294,1007.072
16.508537769,88.40209,-0.8356116,6.28034,0.06121583,0.3257611,-0.7560287,-2.692626,-13.43506,41.66294,1007.068
16.541163445,31.61225,-10.11464,-2.593572,0.08776815,0.2965662,-0.9914209,-3.110228,-10.16341,41.64063,1007.07
16.576230049,14.93831,-3.750178,-1.308385,0.08356957,0.3621722,-1.002017,-3.904979,-6.103563,42.05992,1007.072
16.608791351,10.32375,2.554802,0.4663976,0.07199471,0.3285782,-0.9159939,-3.904979,-6.103563,42.05992,1007.072
16.641348839,0.1717185,1.067778,0.09920119,0.03233236,0.3470144,-0.9156743,-3.54824,-5.370712,42.49958,1007.072
16.676415444,-6.411719,1.484145,-0.4515934,0.05024475,0.3882874,-0.9624329,-3.937435,-3.918116,42.49032,1007.072
16.708976746,-7.273104,2.197916,0.4051982,0.09121431,0.3435721,-0.9515536,-3.937435,-3.918116,42.49032,1007.073
16.741538525,-3.827566,0.2945262,0.2827994,0.09379628,0.3423837,-0.8969526,-3.91471,-5.373359,42.50077,1007.072
16.776604176,-0.2589737,-2.441597,-0.8799891,0.05600102,0.3624195,-0.9222294,-3.909029,-5.737169,42.50338,1007.072
16.809165955,1.956015,-4.820835,-1.369584,0.06409563,0.3742771,-0.9413914,-3.909029,-5.737169,42.50338,1007.073
16.841723442,4.97086,-4.999277,-0.8799891,0.06896912,0.373382,-0.94431,-3.91471,-5.373359,42.50077,1007.072
16.874285221,8.416398,-5.475125,-0.5739922,0.07191844,0.3387054,-0.8989211,-3.920391,-5.009548,42.49815,1007.073
16.909351349,11.18513,-6.843186,-1.124787,0.06533402,0.31774,-0.9031017,-3.920391,-5.009548,42.49815,1007.069
16.941912651,10.26222,-7.140591,-1.614382,0.05434794,0.3299898,-0.9560756,-3.180138,-5.365482,42.94446,1007.069
16.974474430,6.016827,-6.664743,-1.920379,0.04649482,0.3352332,-0.955988,-3.194762,-4.643027,42.0471,1007.069
17.009540081,3.555729,-5.296682,-1.002388,0.03267042,0.3491951,-0.9663959,-3.194762,-4.643027,42.0471,1007.071
17.042098045,2.017542,-4.463949,-1.124787,0.03536434,0.329729,-0.9531609,-2.832342,-4.273986,42.48936,1007.073
17.074659348,6.016827,-3.809659,-0.8799891,0.01783067,0.3309339,-0.9478086,-2.826661,-4.637797,42.49198,1007.073
17.109725475,16.0458,-1.608864,0.09920119,0.01475338,0.3397411,-0.9694232,-2.826661,-4.637797,42.49198,1007.073
17.142286778,21.46022,-0.3597641,1.139591,0.03506908,0.3132017,-0.9534128,-2.830711,-4.271403,42.93544,1007.075
17.174848557,22.19855,0.3540072,1.384389,0.03424806,0.2948365,-0.9783445,-2.845336,-3.548948,42.03807,1007.075
17.209915161,16.96871,2.138435,1.751585,0.03427322,0.2886076,-0.9977746,-2.845336,-3.548948,42.03807,1007.075
17.242472172,15.92275,3.209092,1.873984,0.04173669,0.2784241,-0.9815023,-2.860748,-2.454933,42.47631,1007.07
17.275033951,8.354871,3.506497,1.26199,0.04094238,0.2633394,-0.9797981,-2.491016,-2.44712,43.36726,1007.07
17.307595253,3.617256,4.517673,0.4663976,0.07655473,0.2190314,-0.9669741,-2.491016,-2.44712,43.36726,1007.072
17.342661858,3.125036,3.744421,-0.2067958,0.05473824,0.3283257,-0.8038377,-2.504009,-1.722082,42.91597,1007.072
17.375222683,1.648378,-0.5382069,0.09920119,0.0629108,0.2597181,-0.9755242,-2.511321,-1.360854,42.46729,1007.072
17.407784462,7.985705,5.053001,0.9559928,0.01508628,0.3504367,-1.181463,-2.511321,-1.360854,42.46729,1007.074
17.442847252,18.13774,3.506497,3.403969,0.02793731,0.2453102,-1.006647,-2.872111,-1.727311,42.47109,1007.074
17.475408077,22.50619,-0.4192451,1.323189,0.03704624,0.1783216,-0.7862907,-2.877792,-1.363501,42.46848,1007.074
17.507969856,10.93902,0.9488165,-0.4515934,0.09244165,0.1859163,-0.801213,-2.893205,-0.269485,42.90672,1007.074
17.543035984,2.694344,3.625459,-0.4515934,0.06367048,0.2691586,-1.018402,-2.893205,-0.269485,42.90672,1007.074
17.575597763,1.771432,5.053001,0.6499957,0.06066369,0.2982329,-1.114147,-2.897255,0.09690857,43.35018,1007.076
17.608158589,1.83296,1.722069,1.323189,0.06600541,0.2408914,-0.9946662,-2.532415,0.09697199,42.90292,1007.076
17.643225193,1.83296,-2.084711,-0.5127928,0.07903844,0.182407,-0.9220977,-2.532415,0.09697199,42.90292,1007.076
17.675783158,1.217685,-3.095887,-1.308385,0.06094334,0.1899246,-0.9171318,-2.539728,0.4582,42.45423,1007.076
17.708344460,0.3563008,-1.37094,-1.002388,0.04124524,0.2366276,-0.9831063,-3.64319,0.8166528,42.90126,1007.077
17.740906239,-0.6896659,0.7703737,-0.084397,0.04861138,0.2674689,-1.010679,-3.64319,0.8166528,42.90126,1007.077
17.775971890,-0.8127208,1.246221,0.4663976,0.0567202,0.248917,-0.9693992,-2.900517,0.09174252,42.45803,1007.079
17.808533669,-0.2589737,0.2350453,0.2827994,0.0624968,0.2168289,-0.9505592,-2.895624,0.0994916,43.79625,1007.079
17.841094971,2.263652,-0.2408022,0.09920119,0.0625549,0.2095886,-0.9613041,-2.895624,0.0994916,43.79625,1007.079
17.876157284,3.555729,0.472969,-0.02319761,0.05451164,0.2242159,-0.9944262,-3.266988,0.08909559,42.45922,1007.081
17.908718586,1.771432,0.6514118,0.03800179,0.05391232,0.2344027,-0.9918532,-2.904568,0.4581361,42.90149,1007.083
17.941280365,-1.55105,0.1160834,0.03800179,0.05687843,0.2357864,-0.9671828,-2.904568,0.4581361,42.90149,1007.078
17.976346493,-2.104797,-0.06235942,-0.084397,0.06080204,0.2362616,-0.9536448,-3.265357,0.09167862,42.90529,1007.078
18.008907795,0.2947734,0.05660246,-0.02319761,0.06436104,0.2193849,-0.9727575,-3.266988,0.08909559,42.45922,1007.077
18.041469574,1.709905,-0.06235942,0.03800179,0.05937221,0.2252468,-0.9934483,-3.266988,0.08909559,42.45922,1007.077
18.076531410,1.83296,0.2350453,0.03800179,0.05548425,0.2256578,-0.9881211,-2.536466,0.463366,43.34637,1007.075
18.109093189,1.033103,0.2945262,-0.02319761,0.05210889,0.2265038,-0.97022,-3.637509,0.4528422,42.90387,1007.073
18.141654491,-0.3820286,0.3540072,-0.02319761,0.05606113,0.2235974,-0.9610841,-3.637509,0.4528422,42.90387,1007.073
18.174216270,-0.8127208,0.1755643,0.1604006,0.05844564,0.2256233,-0.9721731,-3.271038,0.4554896,42.90268,1007.075
18.209282875,0.2332459,0.05660246,0.09920119,0.06141652,0.2193886,-0.9819386,-3.2743,0.4503236,42.01054,1007.075
18.241843700,0.8485205,0.1755643,0.1604006,0.05455623,0.2227076,-0.9833315,-3.2743,0.4503236,42.01054,1007.077
18.274401665,0.4793558,0.2945262,0.1604006,0.05509783,0.2202361,-0.9727355,-3.272669,0.4529071,42.45661,1007.077
18.309467316,-0.3820286,-0.1218404,-0.2067958,0.06382171,0.224706,-0.9688087,-3.271038,0.4554896,42.90268,1007.077
18.342029095,-0.566611,-0.2408022,-0.2067958,0.05357739,0.2255576,-0.971686,-3.271038,0.4554896,42.90268,1007.078
18.374590397,-0.1974463,-0.002878483,-0.2679952,0.05405749,0.2260521,-0.9721623,-2.534046,0.09438896,42.45684,1007.078
18.409657002,0.7254656,0.1755643,0.09920119,0.05792695,0.2266262,-0.9803746,-2.91188,0.8193641,42.45281,1007.08
18.442217827,1.34074,-0.002878483,0.09920119,0.05269055,0.216825,-0.9776189,-2.91188,0.8193641,42.45281,1007.076
18.474775791,0.786993,0.05660246,-0.02319761,0.05797243,0.2232138,-0.9780099,-3.2743,0.4503236,42.01054,1007.076
18.509842396,-0.1974463,-0.002878483,-0.2679952,0.05604353,0.2226783,-0.9726992,-3.27835,0.8167176,42.454,1007.076
18.542403221,-0.6281385,0.2350453,0.03800179,0.05750361,0.2217476,-0.9775485,-3.27835,0.8167176,42.454,1007.079
18.574965477,-0.1974463,-0.1813213,0.03800179,0.05890122,0.2271138,-0.9779513,-2.906199,0.4555535,42.45542,1007.079
18.607526302,0.3563008,-0.002878483,-0.2067958,0.0603858,0.225187,-0.9774988,-3.27835,0.8167176,42.454,1007.079
18.642592907,0.4178283,-0.06235942,0.09920119,0.05892852,0.2265884,-0.9692586,-3.27835,0.8167176,42.454,1007.079
18.675149918,0.2332459,-0.1218404,-0.084397,0.05797807,0.2227279,-0.9780173,-2.904568,0.4581361,42.90149,1007.079
18.707711697,0.110191,-0.1218404,-0.084397,0.05745325,0.2265957,-0.9750576,-3.266988,0.08909559,42.45922,1007.079
18.742777825,0.04866357,-0.1218404,0.03800179,0.05987511,0.2271265,-0.9779521,-3.266988,0.08909559,42.45922,1007.079
18.775339604,0.110191,0.1755643,0.09920119,0.05990292,0.224222,-0.9804133,-2.898886,0.09432554,42.90411,1007.079
18.807900429,0.110191,-0.002878483,-0.084397,0.06089124,0.2242084,-0.974614,-3.266988,0.08909559,42.45922,1007.079
18.842967034,0.1717185,0.05660246,-0.02319761,0.05645319,0.2285332,-0.9764771,-3.266988,0.08909559,42.45922,1007.081
18.875524998,0.110191,-0.06235942,-0.084397,0.05698207,0.2237068,-0.9823518,-3.271038,0.4554896,42.90268,1007.077
18.908085823,-0.1359188,-0.1218404,0.03800179,0.0618519,0.2242452,-0.9799314,-2.908618,0.8245301,43.34496,1007.077
18.943152428,-0.07439134,-0.002878483,0.1604006,0.0594498,0.2213002,-0.9804574,-3.637509,0.4528422,42.90387,1007.075
18.975713730,0.110191,0.1755643,-0.02319761,0.05848314,0.2212743,-0.9775566,-3.637509,0.4528422,42.90387,1007.075
19.008275509,0.2332459,-0.002878483,-0.1455964,0.05456059,0.2236509,-0.9770332,-3.271038,0.4554896,42.90268,1007.075
19.040836811,0.1717185,0.2350453,-0.1455964,0.05993225,0.2232173,-0.973178,-3.271038,0.4554896,42.90268,1007.077
19.075899124,-0.07439134,0.1755643,-0.2067958,0.05938696,0.2271224,-0.978435,-3.275088,0.8218827,43.34614,1007.079
19.108459950,-0.01286389,-0.2408022,-0.02319761,0.05608661,0.2192704,-0.971301,-3.637509,0.4528422,42.90387,1007.079
19.141022205,-0.1359188,-0.1218404,-0.02319761,0.05167111,0.2216516,-0.9731939,-2.906199,0.4555535,42.45542,1007.079
19.176088333,0.04866357,0.05660246,0.03800179,0.05890768,0.2261508,-0.9798995,-2.906199,0.4555535,42.45542,1007.079
19.208649635,0.6024107,-0.06235942,-0.02319761,0.05995201,0.2208031,-0.9765984,-2.91188,0.8193641,42.45281,1007.08
19.241211414,0.4178283,-0.06235942,-0.2067958,0.05701064,0.2217522,-0.9799648,-2.904568,0.4581361,42.90149,1007.08
19.276273251,-0.1974463,-0.1218404,0.1604006,0.05603587,0.2236436,-0.9712343,-2.904568,0.4581361,42.90149,1007.08
19.308835030,-0.4435561,-0.002878483,-0.02319761,0.06092666,0.2217656,-0.971751,-3.63914,0.4502597,42.4578,1007.08
19.341396332,0.04866357,-0.1813213,0.03800179,0.05558522,0.2192904,-0.9771007,-2.906199,0.4555535,42.45542,1007.08
19.376462460,0.3563008,-0.002878483,0.09920119,0.05843398,0.2261202,-0.9745824,-2.906199,0.4555535,42.45542,1007.08
19.409023762,0.3563008,0.2350453,0.1604006,0.06035724,0.2271416,-0.9798858,-3.280769,1.185694,43.34353,1007.078
19.441585541,0.110191,-0.06235942,-0.02319761,0.05413402,0.2192538,-0.9732329,-3.271038,0.4554896,42.90268,1007.078
19.474142552,-0.1359188,-0.1218404,0.03800179,0.06098506,0.2164272,-0.9732826,-3.271038,0.4554896,42.90268,1007.078
19.509209156,-0.01286389,0.05660246,-0.02319761,0.06087358,0.2247162,-0.97944,-2.91188,0.8193641,42.45281,1007.078
19.541770935,-0.01286389,-0.002878483,0.09920119,0.05850284,0.2202871,-0.9741881,-2.90783,0.45297,42.00935,1007.08
19.574332237,-0.1359188,-0.002878483,-0.084397,0.05657159,0.2183291,-0.976633,-2.90783,0.45297,42.00935,1007.08
19.609398842,0.110191,-0.1813213,0.03800179,0.05700449,0.2246171,-0.9688035,-2.549459,1.188405,42.89508,1007.077
19.641959667,0.1717185,0.05660246,-0.02319761,0.05797281,0.2236887,-0.9755858,-2.910249,0.8219466,42.89888,1007.077
19.674517632,0.04866357,-0.002878483,-0.084397,0.05802596,0.2193112,-0.9746859,-2.910249,0.8219466,42.89888,1007.077
19.709583283,0.2332459,0.05660246,0.03800179,0.05406846,0.2231784,-0.9813904,-3.265357,0.09167862,42.90529,1007.081
19.742145062,0.1717185,0.1160834,-0.02319761,0.05843563,0.225166,-0.9784639,-2.91188,0.8193641,42.45281,1007.077
19.774706364,0.1717185,0.1160834,-0.02319761,0.05806339,0.2163891,-0.9732804,-2.91188,0.8193641,42.45281,1007.079
19.809772968,0.2332459,0.05660246,-0.02319761,0.05656874,0.2192855,-0.9732348,-3.266988,0.08909559,42.45922,1007.079
19.842334748,-0.01286389,0.05660246,0.09920119,0.05995163,0.2203282,-0.9790227,-2.542147,0.8271756,43.34377,1007.079
19.874891758,-0.1974463,-0.06235942,-0.02319761,0.06486091,0.2174652,-0.9766541,-2.542147,0.8271756,43.34377,1007.082
19.909958363,0.110191,-0.06235942,-0.1455964,0.05753496,0.2202635,-0.9717706,-2.898886,0.09432554,42.90411,1007.082
19.942519188,-0.1974463,-0.1218404,-0.02319761,0.0570895,0.2163764,-0.9732797,-2.904568,0.4581361,42.90149,1007.084
19.975080967,-0.07439134,0.1160834,0.03800179,0.05944093,0.2222677,-0.9794759,-2.904568,0.4581361,42.90149,1007.084
20.007642269,0.2947734,-0.06235942,-0.02319761,0.05747339,0.2246564,-0.9760539,-2.906199,0.4555535,42.45542,1007.084
20.042708874,-0.2589737,0.1160834,0.09920119,0.05605811,0.2197981,-0.980477,-2.530785,0.09955502,43.34899,1007.084
20.075265884,-0.4435561,0.1160834,0.09920119,0.05705327,0.2192963,-0.9742018,-2.530785,0.09955502,43.34899,1007.08
20.107827663,-0.5050836,0.1755643,0.03800179,0.05652927,0.2226869,-0.9731828,-3.266988,0.08909559,42.45922,1007.08
20.142893791,-0.1359188,0.05660246,-0.1455964,0.06290946,0.2188734,-0.9713137,-2.906199,0.4555535,42.45542,1007.08
20.175455570,0.2947734,0.05660246,-0.084397,0.05652446,0.2226957,-0.9751162,-2.906199,0.4555535,42.45542,1007.08
20.208016396,0.3563008,0.05660246,0.03800179,0.05989405,0.2251895,-0.9794318,-2.906199,0.4555535,42.45542,1007.08
20.243083000,-0.01286389,-0.06235942,-0.084397,0.06047316,0.2183689,-0.9742193,-3.271038,0.4554896,42.90268,1007.078
20.275640965,-0.01286389,0.2350453,-0.084397,0.05558161,0.219297,-0.9785507,-3.271038,0.4554896,42.90268,1007.08
20.308201790,0.2332459,-0.002878483,0.09920119,0.06342586,0.215021,-0.9776568,-2.178938,0.8246579,42.45043,1007.08
20.343268395,0.04866357,0.2350453,0.09920119,0.06187362,0.2227787,-0.9780203,-2.538097,0.4607825,42.9003,1007.08
20.375829697,-0.1359188,0.1755643,-0.084397,0.05947431,0.2203043,-0.9751555,-2.538097,0.4607825,42.9003,1007.08
20.408391476,0.2332459,0.53245,0.09920119,0.05946304,0.2212761,-0.9751407,-3.27835,0.8167176,42.454,1007.08
20.440952301,0.6024107,0.4134881,0.1604006,0.05704846,0.2193051,-0.9761351,-2.900517,0.09174252,42.45803,1007.082
20.476015091,1.09463,0.4134881,-0.02319761,0.06333288,0.222325,-0.980929,-2.900517,0.09174252,42.45803,1007.079
20.508575916,1.217685,0.53245,0.03800179,0.05511196,0.2183079,-0.9761485,-3.276719,0.8193002,42.90007,1007.079
20.541597366,1.34074,0.2350453,0.1604006,0.0595037,0.2178725,-0.9747093,-2.906199,0.4555535,42.45542,1007.079
20.576663971,0.9715754,0.05660246,-0.02319761,0.05900872,0.2183565,-0.9756682,-3.27835,0.8167176,42.454,1007.079
20.609224796,0.2947734,0.1755643,-0.02319761,0.06043534,0.220816,-0.9780489,-3.27835,0.8167176,42.454,1007.081
20.641786575,0.2947734,0.3540072,0.09920119,0.05560454,0.2178283,-0.9761562,-3.269407,0.4580731,43.34875,1007.081
20.676849365,0.04866357,0.2350453,0.09920119,0.06099159,0.2140372,-0.9820198,-2.908618,0.8245301,43.34496,1007.081
20.709410191,-0.1974463,0.1755643,0.2827994,0.0638677,0.2189146,-0.9775978,-2.908618,0.8245301,43.34496,1007.081
20.741971970,-0.566611,0.05660246,0.09920119,0.06734555,0.2136009,-0.974782,-3.272669,0.4529071,42.45661,1007.083
20.777038098,-1.30494,-0.3002832,0.03800179,0.05999749,0.2173907,-0.9742337,-3.263726,0.09426165,43.35136,1007.084
20.809599877,-1.612578,-0.3597641,-0.1455964,0.05993028,0.2222696,-0.9785095,-3.263726,0.09426165,43.35136,1007.084
20.842160702,-1.120358,-0.3002832,-0.2067958,0.05653295,0.2212533,-0.9785218,-3.635878,0.4554257,43.34994,1007.078
20.874718666,-0.2589737,0.2350453,0.1604006,0.05891453,0.2256627,-0.9794236,-2.904568,0.4581361,42.90149,1007.078
20.909784317,1.09463,0.3540072,0.2827994,0.05848067,0.2227057,-0.9717342,-2.904568,0.4581361,42.90149,1007.08
20.942346096,1.217685,0.2945262,0.1604006,0.05901955,0.2183367,-0.9713181,-3.272669,0.4529071,42.45661,1007.08
20.974907398,1.34074,0.1755643,0.09920119,0.05800911,0.2193419,-0.9814526,-3.648871,1.180464,42.89865,1007.082
21.009974003,0.5408832,0.472969,0.2827994,0.06242175,0.2179172,-0.9761615,-3.648871,1.180464,42.89865,1007.082
21.042534828,0.3563008,0.1755643,-0.1455964,0.06242499,0.2174357,-0.9771357,-3.27835,0.8167176,42.454,1007.082
21.075092793,0.04866357,0.1160834,-0.084397,0.06150546,0.2130432,-0.9757516,-2.906199,0.4555535,42.45542,1007.082
21.110159397,0.04866357,0.1755643,0.03800179,0.05803647,0.2173895,-0.979549,-2.906199,0.4555535,42.45542,1007.08
21.142720699,0.2947734,-0.002878483,-0.02319761,0.0589709,0.2208036,-0.9794978,-2.91188,0.8193641,42.45281,1007.076
21.175282478,0.2947734,-0.06235942,-0.084397,0.06148005,0.2159433,-0.9723237,-3.284031,1.180529,42.45139,1007.076
21.210348129,0.110191,0.05660246,0.2216,0.06340452,0.2169625,-0.9771438,-3.284031,1.180529,42.45139,1007.076
21.242909908,-0.1359188,0.1160834,-0.02319761,0.06836651,0.210674,-0.9695105,-3.276719,0.8193002,42.90007,1007.076
21.275466919,-0.1359188,-0.1218404,-0.02319761,0.05808353,0.2144499,-0.9742767,-3.631827,0.08903217,42.90648,1007.074
21.308028698,-0.5050836,-0.06235942,0.09920119,0.05705334,0.2178693,-0.9809909,-3.631827,0.08903217,42.90648,1007.076
21.343094826,-0.6896659,0.2350453,0.03800179,0.05801354,0.2188582,-0.9819434,-2.906199,0.4555535,42.45542,1007.076
21.375656605,-0.2589737,0.2350453,-0.02319761,0.05603511,0.2226937,-0.9760824,-2.919192,1.180592,42.00413,1007.076
21.408217430,0.110191,0.1755643,0.09920119,0.06001966,0.2149722,-0.9766875,-2.919192,1.180592,42.00413,1007.078
21.443284035,0.04866357,-0.002878483,-0.02319761,0.06244792,0.2159669,-0.9747412,-2.538097,0.4607825,42.9003,1007.08
21.475841045,0.04866357,0.3540072,0.03800179,0.06288336,0.2193967,-0.9795231,-3.64319,0.8166528,42.90126,1007.08
21.508402825,0.110191,0.472969,-0.1455964,0.06433578,0.2194311,-0.9829076,-3.64319,0.8166528,42.90126,1007.08
21.543468952,0.786993,0.2945262,0.2827994,0.06045827,0.2193473,-0.9756545,-3.637509,0.4528422,42.90387,1007.08
21.576030731,0.6024107,0.3540072,0.1604006,0.08814733,0.2236361,-0.9843165,-3.280769,1.185694,43.34353,1007.081
21.608592034,1.279213,-1.073535,-0.2067958,0.06210405,0.2095163,-0.9468034,-3.280769,1.185694,43.34353,1007.079
21.643658161,-0.566611,-1.192497,-0.3291946,0.05653776,0.2212445,-0.9765884,-2.91593,1.185758,42.89627,1007.081
21.676215649,0.4793558,-0.8356116,-0.084397,0.05116879,0.215966,-1.006633,-3.269407,0.4580731,43.34875,1007.081
21.708777428,-0.9357758,0.7108927,0.1604006,0.04775867,0.2140218,-1.016327,-3.269407,0.4580731,43.34875,1007.081
21.741338253,-0.1974463,1.484145,0.4663976,0.06012417,0.2100252,-0.957428,-2.543778,0.8245931,42.89769,1007.081
21.776404858,0.110191,0.7703737,0.3439988,0.06888428,0.2115752,-0.9525791,-2.913511,0.8167806,42.00674,1007.082
21.808966160,-0.6281385,0.3540072,-0.02319761,0.07699317,0.2186507,-0.9887322,-2.913511,0.8167806,42.00674,1007.082
21.841527939,-0.9973031,0.05660246,-0.1455964,0.07107091,0.2253773,-0.9886239,-2.904568,0.4581361,42.90149,1007.082
21.876590252,-0.8742483,-0.5976879,-0.4515934,0.06243885,0.2212152,-0.9533926,-2.904568,0.4581361,42.90149,1007.084
21.909151554,0.7254656,-0.7166498,-0.3291946,0.06048601,0.2178698,-0.9713266,-2.904568,0.4581361,42.90149,1007.084
21.941713333,2.940454,-0.06235942,0.1604006,0.05652225,0.2184192,-0.9964501,-2.906199,0.4555535,42.45542,1007.084
21.976778984,3.063509,0.6514118,0.3439988,0.06099964,0.2135469,-0.9810607,-2.906199,0.4555535,42.45542,1007.086
22.009340763,1.09463,0.2945262,-0.084397,0.06398273,0.212046,-0.9632015,-2.906199,0.4555535,42.45542,1007.088
22.041902065,-0.5050836,-0.2408022,-0.084397,0.06003417,0.2135189,-0.9776765,-3.276719,0.8193002,42.90007,1007.083
22.076964378,-1.674105,-0.3002832,-0.1455964,0.06337,0.2175011,-0.9887366,-3.637509,0.4528422,42.90387,1007.083
22.109525681,-1.920215,-0.478726,-0.084397,0.06147854,0.2140436,-0.9820202,-3.637509,0.4528422,42.90387,1007.083
22.142087460,-1.612578,-0.4192451,0.03800179,0.05615546,0.2134373,-0.9709067,-3.64724,1.183047,43.34472,1007.083
22.174648762,-0.7511934,-0.002878483,-0.1455964,0.06293081,0.2169319,-0.9718266,-3.273457,0.8244662,43.79221,1007.079
22.209714890,-0.3820286,-0.1813213,-0.02319761,0.06142412,0.2198503,-0.9766144,-3.273457,0.8244662,43.79221,1007.081
22.242276192,-0.3205011,-0.2408022,-0.084397,0.06434059,0.2194223,-0.9809743,-3.27835,0.8167176,42.454,1007.081
22.274834156,0.2947734,-0.06235942,-0.02319761,0.06238552,0.220837,-0.9770837,-3.271038,0.4554896,42.90268,1007.085
22.309899807,1.033103,-0.1813213,0.03800179,0.06582474,0.2184476,-0.9761567,-3.27835,0.8167176,42.454,1007.085
22.342461586,1.463795,-0.3597641,0.03800179,0.06101408,0.2135206,-0.9752606,-3.27835,0.8167176,42.454,1007.086
22.375022888,1.279213,-0.3002832,-0.1455964,0.06200931,0.2115918,-0.9757743,-2.91188,0.8193641,42.45281,1007.088
22.410089016,0.5408832,-0.1218404,-0.084397,0.05758051,0.2154242,-0.9761949,-3.2824,1.183112,42.89746,1007.088
22.442650318,-0.1974463,-0.06235942,-0.1455964,0.05615439,0.2105856,-0.9849682,-3.2824,1.183112,42.89746,1007.088
22.475208283,-0.7511934,-0.1813213,0.03800179,0.06388025,0.2165137,-0.9839184,-3.279981,0.8141341,42.00793,1007.088
22.510273934,-0.5050836,-0.1813213,-0.084397,0.06641271,0.2106596,-0.9719257,-2.91188,0.8193641,42.45281,1007.09
22.542835713,-0.8742483,-0.4192451,-0.2679952,0.06103092,0.2134898,-0.9684937,-2.91188,0.8193641,42.45281,1007.09
22.575397015,-1.489523,-0.7761307,-0.2679952,0.06043699,0.2198618,-0.9819304,-3.275088,0.8218827,43.34614,1007.09
22.607958794,-1.55105,-0.1813213,-0.084397,0.05748157,0.2213122,-0.9886728,-3.278583,0.8163486,42.39027,1007.085
22.643024445,-0.01286389,0.2350453,0.1604006,0.05799814,0.2222156,-0.9722247,-3.278583,0.8163486,42.39027,1007.087
22.675582409,0.9715754,-0.06235942,0.2827994,0.06248686,0.2149446,-0.9636391,-2.910482,0.8215775,42.83516,1007.085
22.708143711,0.2947734,-0.1813213,0.09920119,0.06151914,0.212067,-0.9747998,-2.899119,0.09395647,42.84038,1007.087
22.743209839,-0.9357758,-0.002878483,-0.1455964,0.05895684,0.2213049,-0.9828738,-2.899119,0.09395647,42.84038,1007.087
22.775771141,-0.9357758,-0.06235942,-0.2067958,0.06239801,0.219863,-0.9766151,-2.91188,0.8193641,42.45281,1007.089
22.808332920,0.7254656,-0.06235942,0.03800179,0.06389703,0.2179099,-0.9703625,-2.902937,0.4607186,43.34756,1007.089
22.843398571,1.279213,0.2350453,-0.084397,0.06142969,0.2207914,-0.9698328,-2.902937,0.4607186,43.34756,1007.087
22.875956536,1.771432,0.4134881,0.2216,0.06589847,0.2111787,-0.980618,-2.906199,0.4555535,42.45542,1007.085
22.908517838,2.140597,0.1160834,-0.084397,0.06829613,0.2146074,-0.9796014,-3.284031,1.180529,42.45139,1007.085
22.943583965,1.279213,-0.2408022,0.03800179,0.06437005,0.2155636,-0.987317,-3.284031,1.180529,42.45139,1007.083
22.976145267,0.4178283,0.2350453,0.03800179,0.06098595,0.2145231,-0.9820125,-2.904568,0.4581361,42.90149,1007.085
23.008707047,-0.2589737,0.1755643,0.09920119,0.06056811,0.2120125,-0.9656156,-2.917561,1.183176,42.4502,1007.085
23.041268349,-0.3820286,-0.1218404,-0.2679952,0.06393334,0.2135631,-0.9762294,-2.917561,1.183176,42.4502,1007.085
23.076330662,0.1717185,0.1160834,0.1604006,0.05947445,0.2174503,-0.9887336,-3.64319,0.8166528,42.90126,1007.085
23.108891964,-0.1359188,-0.002878483,-0.02319761,0.05569911,0.210997,-0.9699767,-3.284264,1.18016,42.38766,1007.085
23.141453743,-0.9357758,-0.2408022,-0.02319761,0.05905255,0.2158983,-0.9694218,-3.284264,1.18016,42.38766,1007.085
23.176519394,-0.5050836,-0.002878483,0.09920119,0.06041031,0.224191,-0.9721968,-2.187039,1.557446,43.33735,1007.083
23.209081173,0.110191,0.2350453,0.03800179,0.06339768,0.2174506,-0.9776197,-3.265357,0.09167862,42.90529,1007.086
23.241642475,0.4793558,0.1755643,0.1604006,0.05901277,0.2173978,-0.978583,-3.265357,0.09167862,42.90529,1007.086
23.276704788,0.5408832,0.05660246,-0.1455964,0.06295906,0.2130754,-0.9786527,-2.91188,0.8193641,42.45281,1007.086
23.309266090,0.3563008,-0.1218404,-0.084397,0.06244919,0.2145378,-0.9810469,-3.27835,0.8167176,42.454,1007.086
23.341827869,0.04866357,-0.002878483,-0.02319761,0.05911952,0.2076906,-0.9811482,-3.27835,0.8167176,42.454,1007.082
23.376893520,-0.1359188,-0.06235942,-0.084397,0.06002726,0.2154339,-0.9713634,-3.276719,0.8193002,42.90007,1007.082
23.409455299,0.2332459,0.05660246,-0.084397,0.05910659,0.2096167,-0.9772517,-3.276719,0.8193002,42.90007,1007.082
23.442016602,0.4178283,0.05660246,0.03800179,0.05421948,0.2100611,-0.982074,-3.276719,0.8193002,42.90007,1007.082
23.474574566,0.110191,-0.1218404,0.2216,0.05663608,0.2115527,-0.9825369,-2.910249,0.8219466,42.89888,1007.082
23.509640217,-0.2589737,-0.1218404,-0.1455964,0.05565483,0.2144071,-0.9718581,-3.276719,0.8193002,42.90007,1007.084
23.542201996,-0.1974463,0.05660246,0.03800179,0.05710769,0.2134895,-0.9796076,-3.276719,0.8193002,42.90007,1007.084
23.574763298,-0.07439134,-0.1218404,-0.02319761,0.05712543,0.2115547,-0.9815706,-2.547828,1.190987,43.34115,1007.084
23.609829426,0.1717185,-0.002878483,0.03800179,0.05954406,0.212567,-0.9834911,-2.910249,0.8219466,42.89888,1007.084
23.642390728,-0.01286389,-0.002878483,0.09920119,0.06148253,0.2145119,-0.9781461,-2.910249,0.8219466,42.89888,1007.084
23.674948692,-0.1359188,-0.1218404,0.03800179,0.06198955,0.214006,-0.9723538,-3.644821,0.8140702,42.45519,1007.084
23.710014343,-0.1974463,0.05660246,-0.1455964,0.06053239,0.2125534,-0.9776917,-2.910249,0.8219466,42.89888,1007.084
23.742576122,0.04866357,-0.06235942,0.09920119,0.06293125,0.2159799,-0.9761915,-2.910249,0.8219466,42.89888,1007.086
23.775137425,0.110191,-0.06235942,0.03800179,0.05855966,0.214476,-0.9786271,-3.276719,0.8193002,42.90007,1007.086
23.810204029,0.2332459,0.2350453,0.03800179,0.06097709,0.2154906,-0.981031,-3.2824,1.183112,42.89746,1007.082
23.842764855,0.110191,0.05660246,-0.1455964,0.05763689,0.2105651,-0.976269,-3.2824,1.183112,42.89746,1007.082
23.875322819,0.1717185,-0.002878483,0.09920119,0.06154087,0.2106005,-0.9728888,-3.648871,1.180464,42.89865,1007.082
23.907884121,0.2332459,-0.002878483,-0.084397,0.06002207,0.2149678,-0.9757209,-3.271271,0.4551206,42.83896,1007.083
23.942950249,-0.01286389,-0.1218404,-0.02319761,0.05861078,0.2105778,-0.9762698,-2.921611,1.549569,42.89366,1007.083
23.975511551,-0.2589737,0.1160834,-0.084397,0.0585513,0.2130644,-0.9887997,-2.921611,1.549569,42.89366,1007.085
24.008073330,-0.2589737,-0.06235942,-0.084397,0.06349427,0.21014,-0.9728976,-2.904568,0.4581361,42.90149,1007.081
24.043138981,-0.1974463,0.1755643,-0.084397,0.05614787,0.2129755,-0.9762308,-3.276952,0.8189311,42.83635,1007.083
24.075696945,-0.01286389,-0.002878483,0.09920119,0.05659135,0.2159149,-0.9800534,-3.276952,0.8189311,42.83635,1007.084
24.108258247,0.3563008,0.1160834,-0.02319761,0.05711731,0.213472,-0.9757408,-2.908851,0.8241611,43.28123,1007.084
24.143324375,0.1717185,-0.06235942,-0.1455964,0.06197029,0.2140411,-0.9800872,-2.904568,0.4581361,42.90149,1007.086
24.175885677,-0.1359188,0.2945262,-0.084397,0.06248219,0.2120994,-0.9791507,-2.904568,0.4581361,42.90149,1007.086
24.208447456,-0.3820286,-0.06235942,-0.02319761,0.05858576,0.2139527,-0.9704178,-3.282633,1.182743,42.83374,1007.086
24.243513107,-0.1974463,-0.1813213,-0.084397,0.05615027,0.2129712,-0.9752642,-3.278583,0.8163486,42.39027,1007.086
24.276071072,0.3563008,-0.002878483,0.03800179,0.061986,0.2125856,-0.9805928,-3.278583,0.8163486,42.39027,1007.086
24.308632374,0.5408832,-0.002878483,-0.02319761,0.05756924,0.216396,-0.97618,-3.284264,1.18016,42.38766,1007.082
24.341194153,0.110191,0.05660246,0.1604006,0.06147727,0.2154727,-0.9757146,-3.276952,0.8189311,42.83635,1007.085
24.376259804,-0.07439134,0.1160834,0.03800179,0.05952828,0.2154496,-0.9761963,-3.276952,0.8189311,42.83635,1007.085
24.408821583,-0.01286389,0.05660246,-0.1455964,0.06149628,0.2121087,-0.9839833,-2.910249,0.8219466,42.89888,1007.087
24.441382885,0.04866357,0.05660246,0.09920119,0.06003335,0.213996,-0.9757357,-3.643423,0.8162837,42.83754,1007.087
24.476445198,-0.2589737,-0.002878483,-0.02319761,0.0620166,0.2101517,-0.9796633,-3.643423,0.8162837,42.83754,1007.083
24.509006500,-0.3205011,-0.002878483,-0.084397,0.06346571,0.2120946,-0.9752846,-2.910482,0.8215775,42.83516,1007.083
24.541567803,-0.1974463,-0.1813213,-0.084397,0.05568106,0.2110299,-0.9772269,-3.282633,1.182743,42.83374,1007.084
24.576633930,-0.1359188,0.1755643,-0.084397,0.06046594,0.2183821,-0.9771193,-3.282633,1.182743,42.83374,1007.084
24.609195233,0.04866357,-0.06235942,0.03800179,0.06101452,0.2125685,-0.9796254,-3.643423,0.8162837,42.83754,1007.084
24.641757012,-0.01286389,-0.06235942,0.1604006,0.05707025,0.2164116,-0.9810132,-2.906199,0.4555535,42.45542,1007.086
24.676818848,-0.07439134,-0.002878483,-0.02319761,0.06100768,0.2130566,-0.9801013,-2.906199,0.4555535,42.45542,1007.086
24.709380627,0.110191,-0.002878483,0.1604006,0.063473,0.2106544,-0.9791737,-2.912113,0.818995,42.38909,1007.086
24.741941929,-0.1359188,0.1160834,0.03800179,0.05657888,0.2168889,-0.9805219,-3.276719,0.8193002,42.90007,1007.088
24.774503708,0.04866357,-0.1218404,-0.02319761,0.0609831,0.2154796,-0.9786142,-3.276719,0.8193002,42.90007,1007.088
24.809569359,-0.1359188,-0.2408022,-0.084397,0.06493217,0.2116277,-0.9752932,-2.916163,1.185389,42.83255,1007.086
24.842131138,-0.1974463,-0.2408022,-0.1455964,0.05955166,0.2130288,-0.9781668,-2.912113,0.818995,42.38909,1007.086
24.874688149,-0.07439134,0.1160834,-0.084397,0.057589,0.2139818,-0.9796005,-2.912113,0.818995,42.38909,1007.087
24.909754753,0.110191,-0.06235942,0.03800179,0.05465207,0.2144472,-0.9834576,-2.906199,0.4555535,42.45542,1007.087
24.942316055,-0.3205011,-0.3002832,-0.02319761,0.05613501,0.2134746,-0.9791235,-2.910482,0.8215775,42.83516,1007.087
24.974877834,-1.858688,-0.4192451,0.09920119,0.06344759,0.2135545,-0.9757457,-2.910482,0.8215775,42.83516,1007.087
25.009943485,-7.088521,-0.8356116,-0.2067958,0.06147462,0.2121483,-0.9926835,-3.278583,0.8163486,42.39027,1007.087
25.042505264,-12.31836,-2.084711,-0.3291946,0.05765645,0.2124318,-0.9593225,-3.271271,0.4551206,42.83896,1007.089
25.075062752,-22.65497,-3.27433,-0.9411886,0.05352596,0.227554,-0.9832566,-3.271271,0.4551206,42.83896,1007.089
25.110128880,-37.85225,-4.761353,-2.409974,0.05982767,0.2295912,-0.9856485,-3.272902,0.452538,42.39289,1007.089
25.142690182,-48.25039,-1.311459,-1.79798,0.03576371,0.2804871,-1.024486,-2.893205,-0.269485,42.90672,1007.089
25.175251484,-44.80485,5.112483,-0.8187898,0.03939643,0.3090791,-0.996017,-2.893205,-0.269485,42.90672,1007.085
25.210317612,-28.13091,19.32843,0.03800179,-0.03369653,0.387061,-1.039711,-2.505873,-1.725034,42.40617,1007.085
25.242878914,28.78199,8.443415,-15.32305,-0.2100763,0.4224738,-1.102806,-3.211806,-3.551595,42.03926,1007.085
25.275436878,93.75497,-22.07031,-20.0966,-0.07002482,0.475006,-1.13791,-3.211806,-3.551595,42.03926,1007.085
25.307997704,-96.36487,-23.73577,-3.327965,0.1503753,0.8501818,-1.034756,-3.204727,-3.913191,42.42422,1007.085
25.343064308,47.1787,-13.14817,6.157941,-0.04597529,0.5732567,-1.192022,-2.513974,-0.9922462,43.29309,1007.085
25.375625610,13.03096,-4.463949,13.80787,-0.1079794,0.5310037,-1.056778,-2.513974,-0.9922462,43.29309,1007.081
25.408187389,33.82724,-15.40844,15.82745,-0.2639562,0.5407245,-0.8640954,-1.756677,-2.439612,43.74723,1007.081
25.443253040,7.493486,-28.07788,10.4419,-0.2740569,0.40926,-0.8404723,-0.6797566,-0.9760599,43.79695,1007.081
25.475811005,-12.07225,-32.06311,8.483519,-0.2558764,0.3669222,-0.7768466,-0.6797566,-0.9760599,43.79695,1007.081
25.508371830,-2.843127,-44.73254,10.3807,-0.2688799,0.2619641,-0.8185557,0.4023786,0.1229434,43.72182,1007.079
25.543438435,6.262937,-51.097,16.43944,-0.1874047,0.2660699,-0.7402647,1.856899,0.8611512,43.71185,1007.079
25.575999737,14.44609,-55.43911,17.96943,-0.1942129,0.2260685,-0.7273338,1.856899,0.8611512,43.71185,1007.077
25.608561039,25.39798,-54.13053,16.99023,-0.1445421,0.145493,-0.7145931,3.751961,0.8774095,44.15178,1007.073
25.641122818,31.98141,-59.90018,16.99023,-0.1205731,0.1280635,-0.5548844,6.302864,1.618762,43.30981,1007.073
25.676184654,32.28905,-68.04907,23.72217,-0.1004428,0.1997278,-0.5455931,8.845432,3.092532,43.29105,1007.071
25.708746433,38.13416,-70.96364,25.00735,-0.1211293,0.08210481,-0.602956,8.845432,3.092532,43.29105,1007.071
25.741307259,68.0365,-85.53647,30.02571,-0.09755103,0.1684856,-0.5074024,11.74935,4.56083,41.86916,1007.071
25.776373863,28.16671,-90.53287,40.6132,-0.03367683,0.05037101,-0.6412279,13.93355,5.299166,40.96466,1007.073
25.808935166,60.28404,46.15433,16.43944,0.03783632,-1.134756,-2.93705,13.93355,5.299166,40.96466,1007.073
25.841496945,267.8777,2.138435,43.18358,0.2137059,-0.2146762,-1.916791,18.35734,7.14009,39.15285,1007.073
25.876558781,277.1068,5.707292,48.56913,-0.2074902,0.4854854,-0.7397979,18.31741,9.375839,37.79853,1007.075
25.909120560,115.9664,-15.11104,36.75764,-0.3440844,0.7399322,-0.01796967,18.31741,9.375839,37.79853,1007.072
25.941681385,-238.6163,7.194315,23.17137,-0.2260264,-0.3492372,-0.7418807,18.18506,16.9952,34.17513,1007.076
25.976747990,-67.81612,-37.23795,44.40757,-0.4493042,-0.7839275,-0.9111949,18.56211,16.64179,35.51476,1007.076
26.009309292,-2.7816,-71.49897,55.85185,-0.5981178,-0.07310316,-0.2258961,18.56211,16.64179,35.51476,1007.076
26.041870117,-63.81684,-114.7416,42.26559,-0.6903638,-0.5404648,-0.7414496,18.9994,11.9101,34.7191,1007.076
26.076932907,52.53159,-113.552,13.13467,-0.536271,-0.325585,-0.6343941,21.21256,10.45745,32.42833,1007.074
26.109493732,16.47649,-105.76,-4.245956,-0.7793947,-0.4073963,-0.866945,21.21256,10.45745,32.42833,1007.07
26.142055512,38.62638,-135.6194,-13.91546,-0.891411,-0.1599343,-0.8848135,23.4016,10.45783,29.74476,1007.07
26.174616814,-12.74905,-130.9204,-17.64862,-1.370325,-0.4693613,-1.435288,25.96116,10.09447,26.61655,1007.07
26.209683418,132.3327,-174.6389,10.5643,-0.8622149,0.5320874,-0.7872761,25.96116,10.09447,26.61655,1007.073
26.242244721,33.45807,-96.48096,2.118781,-1.027708,-0.222312,-1.554627,28.52713,8.250031,19.03806,1007.075
26.274802208,-12.25683,-59.06745,12.76748,-1.145472,0.3076108,-1.182929,31.43443,8.23246,12.33747,1007.075
26.309868336,-30.40743,-3.452773,8.483519,-0.8751961,-0.1781197,-1.112777,31.43443,8.23246,12.33747,1007.077
26.342430115,-42.71292,31.46254,1.629186,-0.8182048,-0.1944776,-0.9869204,31.79275,8.222191,10.10592,1007.077
26.374990940,-36.43712,50.85332,-1.79798,-0.8333225,-0.1546822,-0.8050323,32.16653,7.863612,10.55342,1007.077
26.410057545,-64.6167,46.03537,-4.429554,-0.8001407,-0.1244139,-0.6339706,32.16653,7.863612,10.55342,1007.078
26.442618847,-76.06081,34.19866,-2.532373,-0.8541201,-0.1262004,-0.6097769,31.82215,7.088206,13.23669,1007.082
26.475175858,-74.58414,18.13881,-6.143137,-0.846289,-0.08817837,-0.6121046,31.099,7.098411,15.9155,1007.085
26.510242462,-65.84724,13.7967,-13.24227,-0.8082175,0.09409015,-0.5064013,31.099,7.098411,15.9155,1007.085
26.542803288,-70.33875,6.540025,-16.66943,-0.7767077,0.05296327,-0.5631309,31.48336,6.383769,17.70382,1007.085
26.575365067,-55.69521,5.171963,-17.09783,-0.7168004,0.0988479,-0.5421869,30.76505,5.656019,18.60357,1007.087
26.607926369,-21.05525,1.067778,-13.67066,-0.6636996,0.1370141,-0.5532569,30.76505,5.656019,18.60357,1007.085
26.642992973,-17.67124,0.53245,-10.91669,-0.6040049,0.1581352,-0.5380076,30.41888,4.567106,19.50473,1007.085
26.675549984,-12.1953,3.863383,-9.753902,-0.6277439,0.1466635,-0.5415433,30.06298,4.208397,20.84675,1007.085
26.708111286,-14.84098,-0.7761307,-7.734322,-0.6573371,0.08239795,-0.6014672,30.06298,4.208397,20.84675,1007.086
26.743177414,-7.703796,-0.9545735,-9.692702,-0.6685028,0.1201833,-0.6061971,30.80729,3.486069,20.84959,1007.088
26.775738716,-5.857972,-2.857964,-11.03909,-0.7220871,0.1195222,-0.6143728,30.42945,4.211044,20.84556,1007.088
26.808300495,-8.749763,-3.393292,-11.40629,-0.7410541,0.1144748,-0.6274827,30.42945,4.211044,20.84556,1007.09
26.843366146,-4.258258,-3.155368,-12.81387,-0.7221166,0.1157712,-0.6443995,30.42782,4.208461,20.39949,1007.09
26.875924111,-2.720072,-1.549383,-12.75267,-0.7431091,0.1702364,-0.604878,30.41809,4.938666,20.84034,1007.088
26.908485413,0.04866357,1.722069,-12.63027,-0.694208,0.06168959,-0.6418678,30.41809,4.938666,20.84034,1007.092
26.943552017,17.33788,6.302101,-10.1211,-0.7096883,0.05464192,-0.6327762,29.6762,5.292017,19.94796,1007.091
26.976112843,33.5196,4.160787,-9.019509,-0.6969661,0.09887066,-0.5968272,30.39615,6.022349,19.49429,1007.093
27.008674145,38.0111,3.030649,-6.326736,-0.7105238,0.1341684,-0.5957922,30.39615,6.022349,19.49429,1007.093
27.041235924,53.4545,5.053001,-1.920379,-0.7781497,0.1217624,-0.626369,30.03536,5.655892,19.49809,1007.096
27.076297760,65.26776,9.276148,3.036772,-0.7782724,0.07067603,-0.7209234,30.37422,7.106032,18.14824,1007.098
27.108859539,74.00466,22.71884,8.422318,-0.7576895,0.1628606,-0.6276952,30.37422,7.106032,18.14824,1007.096
27.141420841,42.81025,42.88288,2.730775,-1.033399,0.09582642,-0.5714133,29.99707,7.894226,18.58984,1007.096
27.176486969,32.22752,35.38828,-5.041548,-1.19625,-0.06263751,-0.6055766,30.34486,8.985722,18.13475,1007.096
27.209048271,48.83994,27.00147,-13.79306,-1.270507,-0.1452762,-0.4951057,30.34486,8.985722,18.13475,1007.097
27.241609573,82.74156,9.751995,-22.29978,-1.235651,-0.2137737,-0.5087521,29.22599,10.43819,19.02001,1007.097
27.276671887,75.85049,-4.939796,-33.62167,-1.110794,-0.02867302,-0.349918,29.5762,11.16071,17.67539,1007.097
27.309233189,68.89788,-15.64637,-43.84196,-1.040615,-0.02501242,-0.3127099,29.5762,11.16071,17.67539,1007.099
27.341794968,57.33073,-17.49027,-47.75872,-0.8901225,-0.121916,-0.3742723,28.81969,12.23651,15.88564,1007.099
27.376860619,83.66447,-31.82518,-37.78322,-0.6402085,-0.1644657,-0.3476101,28.43044,12.94341,12.75911,1007.101
27.409422398,82.31087,-33.07428,-20.0966,-0.4758346,-0.184704,-0.342277,27.30499,13.63984,8.742804,1007.103
27.441983700,113.8129,-35.45352,-0.6351916,-0.4018295,-0.3504376,-0.3434268,27.30499,13.63984,8.742804,1007.1
27.474541187,129.0102,-39.61718,19.13221,-0.3618041,-0.4137688,-0.4092042,27.63242,15.0719,4.270451,1007.102
27.509607315,128.518,-46.7549,42.26559,-0.3510273,-0.5657753,-0.5101424,26.8645,16.12963,-0.6417961,1007.102
27.542168141,174.0483,-49.78843,58.42223,-0.3949973,-0.6135876,-0.5954204,26.8645,16.12963,-0.6417961,1007.105
27.574730396,162.1735,-51.92974,75.49686,-0.4209198,-0.6018248,-0.5845817,25.38794,14.9837,-8.212431,1007.105
27.609796047,149.0682,-50.38323,81.372,-0.4817892,-0.7836023,-0.6501352,25.00798,13.84128,-16.55133,1007.107
27.642357826,149.9296,-41.16369,82.71838,-0.5177479,-0.76096,-0.708727,25.00798,13.84128,-16.55133,1007.109
27.674914837,120.5809,-45.86268,79.23002,-0.5651078,-0.6857786,-0.5982911,27.21969,11.64072,-22.34173,1007.109
27.709981442,70.62065,-45.20839,62.33899,-0.6845382,-0.4960687,-0.3371583,30.53166,9.822239,-26.35402,1007.104
27.742542744,-52.12662,-47.82555,39.81761,-0.8086565,-0.629362,-0.3448727,30.53166,9.822239,-26.35402,1007.108
27.775103569,-37.05239,-33.9665,17.72463,-0.9554007,-0.7886366,-0.3684295,32.03173,7.215183,-28.12435,1007.11
27.810170174,-105.2863,-0.6571688,-15.07825,-1.189337,-1.153707,-0.3819908,33.52934,9.105898,-28.14279,1007.11
27.842731476,29.0281,-16.95495,-2.83837,-1.455038,-0.4450107,-0.3075998,33.52934,9.105898,-28.14279,1007.11
27.907850266,23.79826,-3.92862,-13.36467,-1.154207,0.0735748,-0.08922617,34.22903,11.6682,-26.37916,1007.111
27.942916870,-90.82739,39.0761,-28.35852,-0.8090304,-0.5303383,-0.4250522,34.22903,11.6682,-26.37916,1007.112
27.975477695,-24.25468,38.77869,-22.05498,-0.7722061,-0.4154293,-0.1536104,33.88045,10.94826,-24.58846,1007.116
28.008038998,-4.688951,41.51482,-11.16149,-0.8817429,-0.214516,0.02405958,33.49941,12.41377,-22.36736,1007.116
28.043105602,-6.350192,30.68929,7.259531,-0.9930601,-0.1749998,0.09920993,33.49941,12.41377,-22.36736,1007.118
28.075662613,9.646947,20.28012,26.17014,-1.162913,-0.004956488,0.1599733,34.23645,12.79838,-19.69591,1007.114
28.108224392,-6.965466,10.22784,30.3929,-1.229237,-0.002783729,0.1334848,34.24135,12.80613,-18.3577,1007.115
28.143290043,-38.95974,-2.798483,22.37578,-1.19398,-0.1575706,0.07260066,34.24135,12.80613,-18.3577,1007.117
28.175851345,-52.49578,-13.92142,15.39905,-1.143954,-0.2255326,0.09133397,34.99297,11.72257,-17.90617,1007.117
28.208413124,-33.36074,-24.68747,13.25707,-1.061382,-0.2677737,-0.001231774,35.71618,12.45807,-17.4677,1007.117
28.243478775,10.93902,-38.18964,18.33662,-1.049761,-0.2371172,-0.08246597,35.71618,12.45807,-17.4677,1007.116
28.276036739,32.90433,-44.37566,25.92535,-0.9760271,-0.1287359,-0.08475064,35.34644,12.45026,-18.35865,1007.118
28.308598042,39.61082,-47.76607,37.43084,-0.9272345,-0.012873,-0.09366439,35.7015,12.43482,-21.48235,1007.12
28.341159821,19.6144,-35.45352,47.22274,-0.9238734,-0.1220216,-0.2350287,35.7015,12.43482,-21.48235,1007.119
28.376225472,24.35201,-35.03715,52.73068,-0.8803017,-0.09292652,-0.202724,35.34555,11.33041,-23.25761,1007.119
28.408786774,36.10375,-29.74335,54.32187,-0.9357942,-0.1060511,-0.2541087,35.72496,9.862316,-25.92479,1007.119
28.441348553,4.540168,-19.45315,49.05872,-0.9130501,-0.1795774,-0.2654033,35.72496,9.862316,-25.92479,1007.121
28.476410389,3.986421,-19.63159,46.36595,-0.9133695,-0.1841701,-0.2185855,36.83084,9.134884,-27.26134,1007.121
28.508972168,2.263652,2.971169,41.5924,-0.9316525,-0.4779344,-0.3308426,37.58324,7.679771,-28.14542,1007.118
28.541533470,31.12003,-16.18169,35.77845,-0.9684263,-0.4042287,-0.08026022,37.58324,7.679771,-28.14542,1007.118
28.576599598,-21.85511,-8.865539,16.99023,-1.052305,-0.4402336,-0.09813013,37.60123,6.527704,-28.13716,1007.118
28.609160900,-36.68323,-0.3002832,10.7479,-1.087953,-0.7174619,-0.262323,38.35285,5.444148,-27.68563,1007.12
28.641722202,30.25864,-8.449172,-0.1455964,-0.9697505,-0.4624665,-0.102416,38.35285,5.444148,-27.68563,1007.122
28.676784516,27.42838,-8.627615,-11.83468,-0.9755186,-0.2764623,0.01788787,38.34553,5.805376,-28.13431,1007.119
28.709345818,25.27492,-15.28948,-24.62535,-0.9672035,-0.183313,0.07778956,38.36094,4.71136,-28.57255,1007.119
28.741907597,2.940454,-13.56453,-30.3781,-0.9817764,-0.1194719,-0.001462945,38.36094,4.71136,-28.57255,1007.119
28.774468422,3.617256,-8.568133,-28.78691,-0.9952128,0.01769442,-0.06364644,37.63206,4.339673,-29.01363,1007.119
28.809534550,13.5847,1.424664,-19.23981,-0.9352342,0.1465145,-0.216903,37.26233,4.33186,-29.90459,1007.121
28.842096329,34.62709,5.945215,3.22037,-0.9766163,0.4846273,-0.1947865,37.26233,4.33186,-29.90459,1007.125
28.874653340,-16.44069,-4.404468,5.913144,-1.247522,0.3319675,0.4247686,36.50502,5.779227,-30.35873,1007.125
28.909719944,-57.35645,25.87133,-5.286346,-0.8712265,-0.3921501,-0.1062721,36.15886,4.690315,-29.45756,1007.122
28.942280769,17.33788,3.328054,-0.390394,-1.037258,-0.2361337,0.05674949,36.15886,4.690315,-29.45756,1007.122
28.974842072,-1.735633,14.92684,-1.063587,-0.9933966,-0.1059526,0.0910795,36.51155,5.789558,-28.57444,1007.122
29.009908676,18.62996,14.03462,0.4051982,-0.9998804,-0.1171696,-0.02509581,36.87071,6.153433,-29.02431,1007.124
29.042469502,13.40012,16.53282,-1.247185,-0.9768156,-0.1742148,-0.02598838,37.23639,6.52764,-27.68989,1007.124
29.075027466,13.46165,14.86736,1.384389,-0.9713944,-0.09304473,-0.01170407,37.23639,6.52764,-27.68989,1007.121
29.110093117,2.140597,19.44739,1.567987,-0.9941472,-0.1962082,-0.04854252,37.62722,5.077627,-27.23457,1007.121
29.175216198,4.724751,10.22784,8.116322,-0.9718438,-0.1230832,-0.1397734,37.98801,5.444084,-27.23837,1007.123
29.207777500,-5.488808,7.313277,9.279111,-1.001239,-0.1007847,-0.1046017,38.73557,4.726923,-26.34338,1007.123
29.242844105,-16.93291,6.658987,10.0135,-0.9838108,-0.1421682,-0.1453702,39.0931,5.088213,-27.23932,1007.125
29.275401115,-18.53263,4.696116,9.952304,-0.984113,-0.1054699,-0.09405542,39.0931,5.088213,-27.23932,1007.122
29.307962418,-15.3332,2.43584,8.973113,-0.9606,-0.07836558,-0.1086493,39.4612,5.093443,-26.79444,1007.122
29.343028545,-3.950621,0.1160834,5.974343,-0.9251047,-0.03838761,-0.1409432,39.8293,5.098673,-26.34955,1007.122
29.375589848,1.83296,-2.501078,2.24118,-0.9577696,0.003533328,-0.1547735,39.8293,5.098673,-26.34955,1007.122
29.408151627,5.21697,-4.939796,-1.430784,-0.9743944,-0.07206832,-0.143343,39.46283,5.096027,-26.34837,1007.122
29.443217278,7.001266,-7.319034,-4.245956,-0.9895071,-0.07746512,-0.1753137,39.82604,5.093507,-27.2417,1007.121
29.475774765,13.5847,-12.7318,-7.85672,-0.9867412,-0.0552642,-0.1334072,39.82604,5.093507,-27.2417,1007.116
29.508336544,13.89234,-19.39367,-10.48829,-0.9945503,-0.01305898,-0.1385563,39.83009,4.727113,-27.68516,1007.118
29.543402195,8.724035,-26.70982,-15.44545,-1.0534,-0.02156668,-0.1463633,39.45794,5.088277,-27.68658,1007.12
29.575963974,-9.672674,-39.14133,-24.44176,-1.068977,0.09695825,-0.1769263,39.45794,5.088277,-27.68658,1007.12
29.608525276,-24.00857,-44.85151,-24.87015,-1.118782,0.0504813,-0.2520273,38.71605,5.441628,-28.57896,1007.122
29.641086102,-84.98228,-49.01517,-22.60578,-0.8772836,0.1738964,-0.08796292,37.23555,6.153498,-29.47157,1007.122
29.676148892,-55.94132,-47.29023,-15.01705,-0.9236483,0.2118989,-0.3464283,37.23555,6.153498,-29.47157,1007.119
29.708709717,-42.2207,-29.56491,-5.469944,-0.8795969,0.1383924,-0.4075311,35.00411,8.01214,-30.37007,1007.121
29.741271019,-18.34805,-13.74298,4.566757,-0.8158876,-0.05915735,-0.3888545,34.25007,9.464672,-29.93207,1007.121
29.776337624,14.32303,4.279749,6.769935,-0.9452931,-0.2685782,-0.1318678,34.25007,9.464672,-29.93207,1007.124
29.808898449,-56.80271,-43.48344,-33.31567,-1.140398,-1.122437,0.4643485,33.07743,10.55547,-28.59792,1007.124
29.841460705,5.093915,-35.81041,-43.10757,-0.5031905,-0.6923866,0.5964559,33.51556,10.2025,-27.25848,1007.12
29.876522064,38.31874,-77.50654,-40.84319,-0.6123005,-0.8811685,1.28636,33.51556,10.2025,-27.25848,1007.12
29.909083367,24.7827,-16.7765,-20.3414,-1.368941,0.2150679,-0.395738,31.60182,11.27509,-28.15232,1007.12
29.941645145,-62.09407,-66.62153,-49.47231,-1.01707,-0.2267683,0.191735,30.1221,11.6154,-30.38053,1007.122
29.976710796,5.70919,-38.66549,-35.58004,-0.9186612,-0.3048861,0.2310519,30.1221,11.6154,-30.38053,1007.124
30.009273052,23.30604,-36.46469,-36.06964,-1.118647,-0.3590767,0.2454029,29.00806,12.32991,-31.27433,1007.124
30.041833878,33.5196,-54.90379,-45.73915,-1.351389,-0.1217615,0.4015118,27.51782,13.77198,-31.72609,1007.125
30.074391365,-6.042555,-86.25024,-63.60937,-1.546866,-0.07742188,0.1389365,27.51782,13.77198,-31.72609,1007.125
30.109457493,16.90719,-142.1028,-123.8296,-2.206328,-0.3706873,0.321199,26.03974,14.11488,-33.50824,1007.12
30.142018795,-5.365753,-221.8073,-235.2737,-3.07975,0.1158872,0.366202,22.34252,15.52815,-36.18323,1007.12
30.174580574,-69.29279,-368.9037,-363.364,-3.004171,2.107199,-0.07768346,22.34252,15.52815,-36.18323,1007.12
30.209646225,497.5597,-364.1452,-121.9324,0.4316665,1.541559,-2.413705,14.54737,17.27569,-38.84755,1007.112
30.242207527,-284.2082,-354.2714,-66.17975,0.09650563,4.693384,3.210939,-1.701756,20.78656,-40.60545,1007.112
30.274765492,-1255.173,200.0315,-22.36098,4.082001,-1.1604,1.121438,-1.701756,20.78656,-40.60545,1007.11
30.309831142,333.5275,-76.13848,-201.7976,4.313739,-6.272441,0.8518063,-16.27868,13.45053,-32.47618,1007.124
30.342392445,540.3212,50.318,-215.2003,-0.4620102,-2.765853,-0.003185257,-21.31285,35.41906,-12.99067,1007.14
30.374954224,531.5844,-247.3841,-230.1329,0.2671639,0.4080629,1.810792,-21.31285,35.41906,-12.99067,1007.133
30.410019875,270.4619,-247.2652,-225.4206,3.208544,-0.8693462,-0.1822627,-27.52277,31.30498,-24.5396,1007.133
30.442581654,-87.13575,147.7478,-104.7354,0.02562667,-0.6267606,1.674394,-33.93102,15.18601,-24.84875,1007.125
30.475138664,186.4769,-32.59843,-54.30706,-1.920948,-1.469252,1.064032,-33.93102,15.18601,-24.84875,1007.13
30.507699967,71.78967,-121.463,-66.11855,-0.6892227,-0.6390743,1.054723,-37.43492,4.54065,-26.09893,1007.128
30.542766571,115.2896,-101.5368,-32.70367,-0.2875153,0.583477,0.6645338,-37.02216,2.006953,-24.29755,1007.12
30.575327397,103.784,-146.0881,-4.674352,0.6594595,0.6837231,-0.1696427,-37.02216,2.006953,-24.29755,1007.12
30.607888699,66.31373,-51.98922,37.24724,1.181238,0.8857217,-0.1298445,-39.52895,-0.9013958,-20.69976,1007.114
30.642955303,87.41765,14.92684,64.23617,1.406572,1.010305,-0.7976382,-40.95175,-2.70779,-16.6673,1007.107
30.675512314,19.98356,126.9889,97.34504,1.594781,1.181399,-0.6898334,-40.95175,-2.70779,-16.6673,1007.102
30.708074093,-156.1695,206.8718,156.0353,0.01699558,0.2638839,-0.211681,-41.70174,-1.621651,-16.67276,1007.103
30.743139744,-95.74959,187.1242,180.0866,-0.264256,0.06833927,-0.445447,-40.65272,0.543324,-21.15271,1007.103
30.775701046,-77.1683,144.1789,166.5616,-0.5176052,0.05969356,-0.1277558,-36.75974,8.244686,-26.12785,1007.1
30.808262825,-84.42854,129.7251,150.1601,-0.3589143,-0.3841289,-0.08102524,-36.75974,8.244686,-26.12785,1007.098
30.843328476,-23.33177,83.56784,124.4564,-0.274777,-0.3048401,0.2497662,-32.11498,15.17341,-29.31542,1007.096
30.875885964,38.13416,5.469368,110.3193,-0.381091,0.1221507,0.6314836,-26.64695,20.66297,-30.71083,1007.096
30.908447743,-589.0153,-213.9558,-19.36221,-1.581063,-1.571108,3.153721,-26.64695,20.66297,-30.71083,1007.096
30.941009045,-1555.119,-44.61358,-66.79174,2.466798,-3.970877,-1.812891,-24.49774,24.39051,-28.51415,1007.107
30.976075172,522.5398,58.05052,12.70628,-0.06975088,-1.983624,-1.377471,-30.10371,34.34042,0.3006048,1007.117
31.008636475,56.96156,59.59702,34.06487,0.5946723,-1.418411,-0.223403,-30.10371,34.34042,0.3006048,1007.112
31.041197777,382.3803,17.24659,19.19341,-0.4053966,-0.828999,-0.4957375,-30.17037,37.21732,-5.519219,1007.11
31.076260090,244.8049,20.69649,-18.07702,-0.1518342,-0.06957696,0.06230295,-29.09012,36.4493,-13.86548,1007.106
31.108821392,110.7981,8.681338,-16.97543,0.03663025,-0.03950975,0.4009435,-29.09012,36.4493,-13.86548,1007.106
31.141382217,105.3221,12.01227,-2.654772,-0.04042682,-0.4796247,0.4527919,-28.68888,32.40612,-21.42117,1007.11
31.176448822,80.03436,-4.404468,0.833594,-0.046699,-0.5784632,1.004273,-29.01969,29.47749,-24.07552,1007.111
31.209010124,16.35344,-5.058758,-3.021968,0.005469429,-0.7279746,1.113119,-29.01969,29.47749,-24.07552,1007.113
31.241570950,-6.411719,-0.002878483,-0.084397,0.04220626,-0.7060703,1.104233,-29.35291,26.91783,-25.84034,1007.113
31.276633740,-47.57359,-0.9545735,-0.4515934,0.05214378,-0.5829245,0.7740223,-29.34887,26.55144,-26.28381,1007.113
31.309194565,-46.52762,-3.92862,1.935183,0.07919759,-0.5789023,0.5033666,-29.34887,26.55144,-26.28381,1007.113
31.341756344,-39.57502,-6.545782,4.933953,0.07496809,-0.6001658,0.4648595,-29.35291,26.91783,-25.84034,1007.115
31.376822472,-48.68108,-7.140591,7.32073,0.1072414,-0.8588689,0.4816667,-28.98965,27.66102,-23.6164,1007.117
31.409383297,-34.22213,-4.52343,4.689156,0.1209496,-1.051171,0.5918298,-28.98965,27.66102,-23.6164,1007.117
31.441945076,-14.47182,-0.5976879,-0.7575904,0.1067086,-1.08485,0.582629,-29.00585,29.12659,-21.84255,1007.117
31.474502564,1.09463,1.78155,-3.572763,0.1087596,-0.9377952,0.527832,-29.37963,29.48517,-22.29005,1007.117
31.509568215,14.19998,3.209092,-1.491983,0.07570905,-0.7782803,0.5177298,-29.37963,29.48517,-22.29005,1007.117
31.542129994,7.616541,1.365183,-0.4515934,0.0475815,-0.7370607,0.5638232,-29.76152,30.57654,-21.85062,1007.117
31.574691296,-1.612578,0.1160834,-0.7575904,0.0517643,-0.7560834,0.590598,-29.39263,30.21021,-22.74134,1007.118
31.609756947,-8.442125,-1.192497,0.2216,0.05736913,-0.7769186,0.5926916,-29.39263,30.21021,-22.74134,1007.118
31.642318726,-12.99516,-1.311459,1.017192,0.06610975,-0.8223631,0.5649208,-29.01722,29.85421,-21.84777,1007.114
31.674875736,-9.488092,-1.37094,0.833594,0.08503072,-0.8642618,0.5347773,-29.38368,29.85156,-21.84659,1007.114
31.709942341,-2.53549,-1.073535,0.7723945,0.09388224,-0.8704885,0.5399909,-29.38368,29.85156,-21.84659,1007.114
31.742503643,1.709905,-0.7761307,0.833594,0.08405023,-0.8604576,0.5503044,-29.0229,30.21802,-21.85039,1007.116
31.775064469,2.817399,-0.1218404,0.1604006,0.08044627,-0.8425476,0.5558982,-29.75989,30.57912,-21.40455,1007.116
31.807625771,2.017542,0.05660246,-0.084397,0.07339467,-0.8222327,0.5571817,-29.75989,30.57912,-21.40455,1007.116
31.842692375,2.32518,-0.2408022,-0.084397,0.07817548,-0.8139219,0.5602042,-29.39505,30.57918,-21.85181,1007.118
31.875249386,0.9715754,-0.1813213,-0.1455964,0.07629206,-0.8178698,0.5678798,-29.02858,30.58183,-21.853,1007.118
31.907811165,-1.30494,0.05660246,-0.3291946,0.07869904,-0.8163605,0.5635501,-29.02858,30.58183,-21.853,1007.119
31.942876816,-3.150764,0.2350453,0.03800179,0.07189196,-0.818846,0.556268,-29.75747,30.21015,-22.29408,1007.119
31.975438118,-3.766039,0.05660246,-0.1455964,0.08122289,-0.826955,0.5493681,-29.01884,29.85163,-22.29385,1007.115
32.007999897,-1.735633,-0.06235942,0.2827994,0.08089862,-0.8405756,0.5510941,-29.01884,29.85163,-22.29385,1007.117
32.043066025,0.04866357,-0.2408022,0.09920119,0.08100529,-0.8488559,0.5553181,-29.39505,30.57918,-21.85181,1007.119
32.075623035,1.402268,-0.06235942,-0.084397,0.07742965,-0.8362293,0.5472968,-29.39342,30.58177,-21.40574,1007.119
32.108184814,2.140597,-0.1813213,0.1604006,0.08171783,-0.826012,0.557116,-29.39342,30.58177,-21.40574,1007.119
32.143250465,1.34074,-0.478726,0.2216,0.07777146,-0.8202627,0.5639749,-29.39342,30.58177,-21.40574,1007.114
32.175811768,-0.4435561,-0.2408022,0.2216,0.0758221,-0.8207608,0.5610689,-29.75584,30.21273,-21.84801,1007.116
32.208373547,-0.6896659,-0.1218404,0.2216,0.0773039,-0.8231581,0.5581306,-29.75584,30.21273,-21.84801,1007.116
32.243439198,-0.1974463,-0.06235942,0.09920119,0.08128724,-0.8308774,0.5570422,-29.02858,30.58183,-21.853,1007.116
32.275996685,-0.01286389,-0.06235942,-0.02319761,0.07537272,-0.8265431,0.5488967,-29.74689,29.85409,-20.95325,1007.116
32.308558464,0.2947734,-0.06235942,0.03800179,0.07538355,-0.8265629,0.5532467,-29.74689,29.85409,-20.95325,1007.118
32.341119289,0.2947734,0.2945262,-0.084397,0.07686085,-0.8270496,0.5575882,-29.38205,29.85415,-21.40051,1007.114
32.376185417,0.3563008,-0.002878483,0.09920119,0.07487805,-0.8241572,0.557151,-29.391,30.21279,-22.29527,1007.115
32.408747196,-0.6896659,-0.1218404,0.09920119,0.07634211,-0.8246198,0.5561757,-29.02127,30.22061,-21.40432,1007.115
32.441308022,-0.2589737,-0.06235942,0.2216,0.08028404,-0.8298854,0.5498077,-29.02127,30.22061,-21.40432,1007.115
32.476370812,-0.2589737,-0.06235942,0.2216,0.08085554,-0.8371677,0.549696,-29.75421,30.21531,-21.40194,1007.117
32.508931637,0.7254656,-0.1218404,0.1604006,0.07739132,-0.8314032,0.5546211,-29.39342,30.58177,-21.40574,1007.117
32.541492939,0.7254656,-0.1813213,0.03800179,0.08028923,-0.8294193,0.5541652,-29.39342,30.58177,-21.40574,1007.119
32.576559544,0.9715754,-0.002878483,0.2216,0.07686523,-0.8261063,0.5638866,-29.391,30.21279,-22.29527,1007.121
32.609120369,0.2332459,-0.3002832,0.2827994,0.07733697,-0.8270234,0.5532379,-29.02127,30.22061,-21.40432,1007.122
32.641681671,-0.01286389,-0.1813213,0.2216,0.08024128,-0.8245756,0.5576227,-29.02127,30.22061,-21.40432,1007.122
32.676743984,0.9100479,-0.1218404,0.5887964,0.08125709,-0.8293955,0.5517477,-29.38774,30.21796,-21.40313,1007.118
32.709305287,1.279213,0.472969,0.4663976,0.07953756,-0.8469598,0.5616323,-29.75015,29.84892,-21.8454,1007.12
32.741866589,2.448235,0.9488165,-0.02319761,0.09143415,-0.8676422,0.5482541,-29.75015,29.84892,-21.8454,1007.12
32.774427414,7.985705,1.008297,-0.084397,0.07113478,-0.8387546,0.5501646,-29.02453,30.21544,-22.29646,1007.12
32.809494019,9.83153,0.7703737,0.1604006,0.07201916,-0.8285905,0.5619198,-29.75747,30.21015,-22.29408,1007.12
32.842055321,9.58542,0.5919309,-0.6351916,0.07744275,-0.8333995,0.5661916,-29.75747,30.21015,-22.29408,1007.122
32.874612808,10.38528,1.662588,-1.002388,0.07678058,-0.8610914,0.5619028,-29.38368,29.85156,-21.84659,1007.116
32.909678936,17.58399,1.78155,-1.247185,0.08442061,-0.8464456,0.5693694,-29.01884,29.85163,-22.29385,1007.117
32.942239761,20.66036,1.603107,-1.430784,0.06560291,-0.8171014,0.5819198,-29.01884,29.85163,-22.29385,1007.119
32.974802017,21.89091,3.149611,-1.736781,0.09098565,-0.8225911,0.5793946,-29.00669,28.75245,-23.62423,1007.119
33.009867668,32.8428,2.792726,-3.144367,0.07701704,-0.830664,0.6044205,-29.00669,28.75245,-23.62423,1007.121
33.042428494,37.02666,0.7703737,-3.450364,0.08026531,-0.8592836,0.6015639,-29.00669,28.75245,-23.62423,1007.121
33.074986458,40.28762,1.484145,-5.102748,0.0778748,-0.8175977,0.6191204,-29.00428,28.38347,-24.51376,1007.121
33.110052109,48.04008,3.09013,-7.550724,0.08796831,-0.7659121,0.6111984,-29.71775,26.91777,-25.39309,1007.119
33.142613411,50.25507,7.253796,-7.428325,0.0937804,-0.8018699,0.6261122,-29.71775,26.91777,-25.39309,1007.119
33.175175190,59.05349,6.480544,-7.122328,0.07715688,-0.7492251,0.6511002,-29.33913,25.82123,-26.72466,1007.119
33.207736492,59.66877,7.670163,-8.89711,0.06986599,-0.7417349,0.6927921,-28.96619,25.08851,-28.05884,1007.119
33.242802143,70.00538,9.514071,-9.753902,0.0724614,-0.7035276,0.7412267,-28.96619,25.08851,-28.05884,1007.12
33.275360107,78.00394,8.919262,-10.3659,0.08129162,-0.6565022,0.7922068,-29.30915,23.25906,-29.38281,1007.12
33.307921410,79.04991,10.94161,-11.28389,0.04108543,-0.5871336,0.812639,-29.27333,20.644,-30.70231,1007.12
33.342987061,84.09517,10.58473,-11.22269,0.03428867,-0.5435591,0.8297452,-29.27333,20.644,-30.70231,1007.122
33.375548840,83.35683,8.681338,-9.876301,0.04826478,-0.4371591,0.8777591,-28.51445,18.45352,-32.91938,1007.122
33.408110142,71.29745,8.027048,-6.755132,0.04865916,-0.3343624,0.9310483,-28.84037,15.53263,-34.23552,1007.118
33.443175793,48.04008,7.610682,-3.939959,0.05377185,-0.3119693,0.937669,-28.84037,15.53263,-34.23552,1007.118
33.475733757,36.22681,7.49172,-1.79798,0.102738,-0.2985691,0.9102736,-28.00984,12.98653,-35.11196,1007.118
33.508294582,20.53731,5.58833,-2.960769,0.0323003,-0.279403,0.8758309,-27.98875,11.5287,-35.54759,1007.12
33.543491840,-15.3332,-1.073535,-10.79429,0.03185073,-0.2372036,0.89291,-27.98875,11.5287,-35.54759,1007.12
33.576053143,-2.720072,-6.724225,-12.01828,0.105344,-0.2803568,0.8675285,-27.60118,10.07352,-35.98441,1007.12
33.608613968,-17.17902,-6.010453,-10.1823,0.1234621,-0.1943318,0.9190946,-27.60118,10.07352,-35.98441,1007.117
33.641175747,-47.69664,-2.144192,-9.509105,0.107458,-0.416018,0.8872087,-27.60118,10.07352,-35.98441,1007.117
33.676237583,-22.65497,1.18674,-6.755132,0.07537797,-0.4972865,0.9246699,-27.95466,9.345839,-35.53192,1007.117
33.708798886,-19.02485,-1.014055,-6.265536,0.00869358,-0.4478463,0.9762431,-28.33654,10.4372,-35.0925,1007.117
33.741360665,-23.20872,-3.095887,-6.326736,0.0393544,-0.4426597,0.9922441,-28.33654,10.4372,-35.0925,1007.119
33.776426315,-44.49722,-6.42682,-9.570304,0.0419777,-0.505222,0.9705018,-28.77546,11.16174,-35.09633,1007.117
33.808987618,-27.26953,-7.7354,-7.91792,0.1126764,-0.4935854,0.8594345,-28.41467,11.5282,-35.10013,1007.117
33.841549397,-28.62313,-8.092286,-5.959539,0.1139406,-0.4908292,0.7918026,-28.41467,11.5282,-35.10013,1007.119
33.876611233,-9.611147,-9.162943,-4.919149,0.1286131,-0.6213827,0.7931803,-29.16139,12.6195,-34.21344,1007.119
33.909172535,8.416398,-5.415644,-3.389164,0.1668827,-0.6119567,0.7541336,-29.53596,13.34964,-33.32533,1007.12
33.941733360,14.44609,-0.4192451,-2.287575,0.1877188,-0.5635151,0.7422848,-29.53596,13.34964,-33.32533,1007.12
33.976799965,16.41497,5.58833,-3.695162,0.2125347,-0.5588775,0.7553827,-29.53432,13.35222,-32.87926,1007.116
34.009361267,23.24451,7.313277,-2.960769,0.2013274,-0.5504486,0.7932256,-29.8927,12.61679,-33.76499,1007.116
34.041922092,28.16671,10.0494,-0.1455964,0.1350869,-0.5066307,0.8002419,-29.8927,12.61679,-33.76499,1007.118
34.074480057,25.15187,12.01227,4.383159,0.1556173,-0.429094,0.8018884,-29.15976,12.62209,-33.76737,1007.118
34.109545708,1.58685,21.17234,9.279111,0.192368,-0.3174354,0.8277253,-28.35601,11.89762,-34.2108,1007.118
34.142107010,-17.42513,33.72281,14.78706,0.04962876,-0.4061038,0.78639,-27.97739,10.80108,-35.54237,1007.118
34.174668789,-17.54819,37.17271,9.829905,-0.08117305,-0.6028755,0.9304608,-27.97739,10.80108,-35.54237,1007.12
34.209734917,31.18156,6.421063,-8.713512,-0.09125225,-0.6968057,1.142207,-26.88366,11.17283,-35.54855,1007.12
34.242295742,37.51889,-7.556958,-17.46503,-0.04416472,-0.3620117,1.079596,-26.52613,11.53412,-36.44449,1007.12
34.274853706,11.06208,-8.151767,-18.62782,-0.01529223,-0.2645639,1.002265,-26.52613,11.53412,-36.44449,1007.116
34.309919357,9.523892,-3.571735,-13.05867,-0.009456578,-0.3238696,0.9153131,-26.49935,9.712486,-36.8775,1007.116
34.342480660,26.07478,-6.42682,-9.141908,-0.02376298,-0.2253751,0.911029,-26.85283,8.9848,-36.42502,1007.116
34.375042439,25.70561,-6.307858,-4.184757,0.02582991,-0.1367125,0.9007328,-26.85283,8.9848,-36.42502,1007.116
34.410108090,14.26151,-2.976925,2.302379,0.04241255,-0.1816727,0.8956805,-27.20063,7.893305,-35.96993,1007.117
34.442669392,15.06136,-0.06235942,8.544718,0.0192886,-0.2408777,0.9165515,-26.82847,7.532141,-35.96851,1007.117
34.475227356,15.98428,-0.5976879,10.1359,0.03032029,-0.2593938,0.9583121,-26.82847,7.532141,-35.96851,1007.115
34.507788181,1.83296,-3.095887,8.789515,0.03145025,-0.2691784,0.9755633,-26.83173,7.526976,-36.86065,1007.115
34.542854309,-33.17616,-9.341386,3.709965,0.01902209,-0.2816582,1.012122,-26.81779,6.741302,-36.40892,1007.117
34.575415135,-44.98943,-7.973324,0.03800179,0.0932652,-0.4497845,0.8973415,-26.81779,6.741302,-36.40892,1007.117
34.607976914,-44.18958,-8.865539,-1.430784,0.1023183,-0.4421665,0.8515282,-26.83416,7.895952,-35.97112,1007.117
34.643043041,-43.32819,-11.83959,-0.5739922,0.1282404,-0.4197401,0.803991,-27.22172,9.351131,-35.5343,1007.118
34.675600052,-55.94132,-8.508653,1.017192,0.1256857,-0.4537413,0.7923571,-27.22172,9.351131,-35.5343,1007.118
34.708161831,-62.89392,-8.389691,1.996383,0.09074455,-0.4292636,0.760378,-27.97412,10.80625,-34.65022,1007.114
34.743227482,-87.75102,-14.93259,-0.8799891,0.07851942,-0.4606631,0.7898801,-28.35843,12.26659,-33.32127,1007.116
34.775788784,-102.0869,-15.34896,-3.695162,0.04610011,-0.5697932,0.7548935,-28.35843,12.26659,-33.32127,1007.116
34.808350563,-101.1025,-17.7282,-3.87876,0.1450063,-0.6636188,0.7233973,-29.55542,14.81005,-32.44363,1007.118
34.843416214,-86.15131,-13.08869,-0.5127928,0.1943682,-0.812483,0.6828917,-29.58704,17.36964,-30.23155,1007.118
34.875973702,-66.83169,-6.486301,-2.471174,0.1694275,-1.077195,0.5754346,-29.58704,17.36964,-30.23155,1007.113
34.908535481,-23.76246,-0.2408022,-11.16149,0.1799769,-1.171293,0.4579783,-30.35322,19.92136,-28.46316,1007.113
34.941096306,16.96871,-1.192497,-17.64862,0.1896224,-0.9881067,0.4946002,-30.37836,21.74557,-27.58408,1007.113
34.976162434,40.71831,0.05660246,-21.19819,0.2023622,-0.7230278,0.5933738,-30.37836,21.74557,-27.58408,1007.113
35.008723259,14.19998,9.870957,-21.50419,0.2205748,-0.6951446,0.6058661,-30.38568,22.1068,-28.03276,1007.113
35.041318417,39.48776,10.16836,-18.62782,0.1400213,-0.645398,0.7633169,-31.08858,20.28504,-27.57125,1007.109
35.076380253,26.93616,6.123658,-13.24227,0.04506928,-0.7026513,0.8964305,-31.08858,20.28504,-27.57125,1007.111
35.108942032,40.41068,3.328054,-20.0354,0.07842579,-0.7373853,0.828679,-31.80532,18.81417,-29.34272,1007.111
35.141503334,33.82724,-1.668345,-21.44299,0.1873685,-0.638331,0.8407193,-31.06102,18.09184,-29.33987,1007.111
35.176568985,18.38385,-9.757752,-15.75144,0.1570539,-0.5059688,0.8243996,-31.06102,18.09184,-29.33987,1007.111
35.209130764,31.67377,-3.690697,-18.19942,0.1356431,-0.6521216,0.7332492,-31.0375,16.26504,-30.66504,1007.109
35.241692066,36.71903,-10.35256,-14.64985,0.1796985,-0.4282351,0.89517,-32.11583,14.79927,-31.0971,1007.11
35.276753902,-2.227852,-7.556958,-11.40629,0.2773099,-0.5480662,0.8076899,-32.11583,14.79927,-31.0971,1007.11
35.309315205,17.21482,-8.746576,-6.93873,0.2236086,-0.551843,0.7366277,-32.10446,14.07165,-31.09187,1007.11
35.341876984,15.18442,-7.319034,-5.775941,0.2528867,-0.5800554,0.8251104,-32.0931,13.34403,-31.08665,1007.11
35.374437809,40.41068,-12.19647,-4.796751,0.3098221,-0.523178,0.8781278,-32.0931,13.34403,-31.08665,1007.11
35.409503937,15.73816,-14.04038,-4.85795,0.2332709,-0.4817165,0.8396807,-32.80737,12.24989,-30.63037,1007.108
35.442065716,23.12146,-14.39727,-6.999929,0.1687943,-0.4342082,0.7887465,-33.16978,11.88085,-31.07264,1007.108
35.474622727,0.6639381,-12.67232,-7.673122,0.1857803,-0.344102,0.7949386,-33.16978,11.88085,-31.07264,1007.108
35.509688377,-35.20657,-17.37131,-9.141908,0.2198115,-0.3805995,0.795799,-33.15274,10.78941,-31.06481,1007.108
35.542249680,-43.32819,-15.28948,-9.203108,0.2866402,-0.559979,0.7823635,-33.50622,10.06173,-30.61232,1007.11
35.574811459,-37.11392,-13.86194,-4.919149,0.2585666,-0.4875229,0.7999308,-33.50622,10.06173,-30.61232,1007.11
35.609877110,-42.2207,-8.925019,-4.796751,0.2729852,-0.6883679,0.7610829,-34.24726,10.78922,-29.72303,1007.105
35.642438412,-26.5312,-12.49388,-6.510334,0.3025221,-0.6748347,0.7554603,-34.98667,11.5193,-28.38765,1007.107
35.674996376,-24.31621,-16.12221,-10.2435,0.2995069,-0.7088905,0.7544603,-34.98667,11.5193,-28.38765,1007.107
35.710062027,-16.93291,-12.67232,-13.42587,0.3169271,-0.6229622,0.7190177,-35.00776,12.97713,-27.95203,1007.109
35.742623329,-18.16346,-9.63879,-14.16026,0.3722341,-0.6204378,0.6435961,-35.73581,12.97958,-26.61143,1007.111
