Time (s),Gyroscope X (deg/s),Gyroscope Y (deg/s),Gyroscope Z (deg/s),Accelerometer X (g),Accelerometer Y (g),Accelerometer Z (g),Magnetometer X (uT),Magnetometer Y (uT),Magnetometer Z (uT),Barometer (hPa)
0.011937141,-0.002374791,0.04448735,-0.003510399,0.08230094,0.3161988,-0.9427785,3.056952,-10.59071,22.888,1008.472
0.044494629,0.1822076,-0.01499359,0.057689,0.07747464,0.3113004,-0.9481657,2.32238,-10.59859,22.44431,1008.472
0.079555511,0.1206801,-0.01499359,0.057689,0.07893142,0.3122781,-0.9452518,2.32238,-10.59859,22.44431,1008.472
0.112108707,0.1822076,-0.01499359,0.057689,0.08136893,0.3127804,-0.9418629,2.696163,-10.95717,22.8918,1008.472
0.144665241,0.1206801,-0.01499359,-0.0647098,0.07992178,0.3117851,-0.9409099,2.683169,-10.23213,22.44051,1008.472
0.177222252,-0.1254297,0.04448735,-0.003510399,0.08042759,0.3112814,-0.9356009,2.683169,-10.23213,22.44051,1008.472
0.212283611,-0.1254297,0.04448735,0.057689,0.07553365,0.3122139,-0.9408992,3.490182,-10.95143,22.88923,1008.472
0.244840622,0.1206801,0.04448735,0.057689,0.07934349,0.3181285,-0.9480633,2.329692,-10.95981,22.89299,1008.47
0.277397633,0.3052625,-0.1934364,-0.1259092,0.08331309,0.3128124,-0.9433144,2.329692,-10.95981,22.89299,1008.47
0.312454701,0.243735,-0.01499359,0.1188884,0.08378072,0.3142809,-0.9442593,2.335373,-11.32362,22.8956,1008.474
0.345012188,-0.002374791,0.1634492,-0.003510399,0.08086988,0.314223,-0.939907,2.68885,-10.59594,22.44312,1008.474
0.377568722,-0.002374791,-0.07447453,-0.0647098,0.08278308,0.3162139,-0.9447122,2.68885,-10.59594,22.44312,1008.469
0.412630558,-0.1254297,-0.2529173,-0.1259092,0.08428375,0.3133066,-0.9423411,2.690481,-10.59336,22.88919,1008.473
0.445186615,-0.1254297,-0.07447453,-0.003510399,0.08280646,0.3137932,-0.9466826,2.324011,-10.596,22.89038,1008.473
0.477744103,0.05915266,0.04448735,0.057689,0.07803038,0.3069006,-0.9409826,2.324011,-10.596,22.89038,1008.473
0.512801170,0.4283174,-0.01499359,0.057689,0.08429255,0.3137661,-0.9365336,2.690481,-10.59336,22.88919,1008.473
0.545358181,0.4898449,-0.1934364,0.057689,0.08040993,0.3117893,-0.940427,2.701844,-11.32098,22.89442,1008.473
0.577915192,0.4898449,-0.1339555,-0.003510399,0.08182895,0.3137871,-0.948132,2.701844,-11.32098,22.89442,1008.473
0.612976551,0.05915266,0.04448735,0.1188884,0.08085589,0.3132973,-0.950072,2.700213,-11.32356,22.44835,1008.471
0.645533085,-0.1869572,0.2824111,0.057689,0.08138622,0.3117976,-0.939461,2.690481,-10.59336,22.88919,1008.471
0.678090095,-0.433067,0.2229302,-0.1259092,0.08142854,0.3074397,-0.9429112,2.690481,-10.59336,22.88919,1008.471
0.710643291,-0.1254297,0.04448735,-0.0647098,0.08430751,0.3113607,-0.9418874,2.690481,-10.59336,22.88919,1008.469
0.745704651,-0.002374791,-0.01499359,-0.0647098,0.07847951,0.3093541,-0.9448127,2.324011,-10.596,22.89038,1008.467
0.778261661,0.05915266,-0.07447453,-0.0647098,0.08327325,0.3157388,-0.9456866,2.324011,-10.596,22.89038,1008.467
0.810818195,-0.002374791,-0.1934364,-0.1259092,0.08027145,0.3225056,-0.9460639,2.681538,-10.23471,21.99444,1008.467
0.845880032,0.243735,-0.01499359,0.057689,0.07896481,0.3103147,-0.9409314,2.68885,-10.59594,22.44312,1008.467
0.878436565,0.6128998,0.2229302,0.2412872,0.08188324,0.3108343,-0.9399596,2.68885,-10.59594,22.44312,1008.469
0.910989284,0.6744273,0.04448735,-0.003510399,0.0799226,0.311308,-0.9428508,3.056952,-10.59071,22.888,1008.469
0.946050644,0.243735,-0.01499359,-0.003510399,0.08234528,0.3113617,-0.947686,3.051271,-10.2269,22.88539,1008.472
0.978607655,-0.2484846,0.1039683,0.057689,0.08280766,0.313791,-0.9461993,3.051271,-10.2269,22.88539,1008.472
1.011165142,-0.433067,-0.07447453,-0.1871086,0.08379681,0.3133003,-0.9423407,2.696163,-10.95717,22.8918,1008.467
1.046226025,-0.3715395,-0.1934364,-0.0647098,0.0769744,0.3127452,-0.946693,3.058583,-10.58813,23.33408,1008.472
1.078783035,-0.002374791,-0.1934364,-0.1871086,0.08329257,0.3142767,-0.9447422,3.058583,-10.58813,23.33408,1008.472
1.111335754,0.4898449,-0.01499359,-0.003510399,0.0828254,0.3118562,-0.9481624,3.064264,-10.95194,23.33669,1008.472
1.143892765,0.4898449,-0.01499359,0.057689,0.08087717,0.3127828,-0.9437959,2.6848,-10.22954,22.88658,1008.472
1.178954124,0.243735,0.1634492,0.1188884,0.08526448,0.3128312,-0.9418659,2.68885,-10.59594,22.44312,1008.472
1.211511135,-0.06390224,0.341892,-0.1259092,0.08670156,0.3147961,-0.9423207,2.68885,-10.59594,22.44312,1008.472
1.244068146,-0.2484846,0.04448735,-0.1259092,0.08384109,0.3098901,-0.9404593,2.324011,-10.596,22.89038,1008.472
1.279129505,-0.06390224,-0.1934364,-0.248308,0.07749035,0.3098449,-0.9486712,2.68885,-10.59594,22.44312,1008.472
1.311751843,0.3052625,0.04448735,0.057689,0.0822998,0.314774,-0.9500508,2.68885,-10.59594,22.44312,1008.472
1.344308376,0.3052625,0.1039683,-0.1259092,0.07985539,0.3161868,-0.9471266,2.690481,-10.59336,22.88919,1008.472
1.379370213,0.1206801,0.1634492,-0.003510399,0.07892248,0.3146725,-0.9374813,1.959171,-10.59607,23.33764,1008.472
1.411926746,0.05915266,-0.07447453,-0.0647098,0.08041842,0.3103469,-0.9438326,1.959171,-10.59607,23.33764,1008.472
1.444483757,0.05915266,0.1634492,-0.0647098,0.07745532,0.3127625,-0.94911,2.703475,-11.31839,23.34049,1008.472
1.479545117,0.1822076,0.2229302,-0.0647098,0.07942077,0.3122801,-0.9442856,2.324011,-10.596,22.89038,1008.472
1.512097836,0.243735,0.1634492,0.2412872,0.08234687,0.3118344,-0.9447786,2.324011,-10.596,22.89038,1008.472
1.544655323,-0.002374791,0.04448735,-0.003510399,0.08087876,0.3132555,-0.9408885,3.062633,-10.95452,22.89061,1008.472
1.577211857,0.243735,-0.01499359,-0.0647098,0.08232792,0.3137715,-0.9432988,2.325642,-10.59342,23.33645,1008.477
1.612272740,-0.002374791,-0.07447453,-0.003510399,0.08277263,0.3167087,-0.9466381,2.325642,-10.59342,23.33645,1008.478
1.644829750,-0.06390224,0.04448735,-0.003510399,0.08040962,0.3098874,-0.9496402,2.328061,-10.9624,22.44692,1008.478
1.677387237,-0.002374791,0.04448735,0.057689,0.08380049,0.3118667,-0.9476796,2.6848,-10.22954,22.88658,1008.478
1.712444305,-0.06390224,0.04448735,0.057689,0.08178265,0.3176766,-0.9485559,2.6848,-10.22954,22.88658,1008.477
1.745001316,0.243735,0.1634492,0.1800878,0.08621145,0.3138442,-0.9481353,2.319961,-10.22961,23.33384,1008.477
1.777558327,0.3052625,-0.07447453,-0.0647098,0.08385281,0.3079662,-0.944839,2.331323,-10.95723,23.33907,1008.477
1.812619686,0.1813456,-0.0152872,-0.125976,0.08235732,0.3113397,-0.9428526,2.331323,-10.95723,23.33907,1008.477
1.845176697,-0.06531022,0.2227362,0.05748324,0.08088078,0.3127762,-0.9423459,2.329692,-10.95981,22.89299,1008.477
1.877733231,-0.1882143,-0.3122502,-0.06478536,0.08190864,0.3079342,-0.9433874,2.325642,-10.59342,23.33645,1008.477
1.912790298,-0.1258803,-0.133332,-0.1257005,0.07987998,0.3137639,-0.9486138,2.325642,-10.59342,23.33645,1008.479
1.945347309,-0.002794892,-0.07345685,-0.06441115,0.07697079,0.3127518,-0.9481431,3.056952,-10.59071,22.888,1008.479
1.977904797,0.3654934,0.04586045,0.1192001,0.08626295,0.3104209,-0.9433537,2.696163,-10.95717,22.8918,1008.479
2.012965679,0.3643719,-0.1324481,0.1189649,0.07599165,0.3136999,-0.9457107,2.696163,-10.95717,22.8918,1008.477
2.045523167,0.05609842,0.1646381,-0.00359253,0.08235168,0.3118256,-0.9428452,3.056952,-10.59071,22.888,1008.477
2.078079224,-0.005407095,0.04549012,0.05760228,0.08283585,0.3113615,-0.9462364,2.329692,-10.95981,22.89299,1008.477
2.110632420,0.05645116,-0.1331194,0.05773216,0.080921,0.3103247,-0.9375495,2.329692,-10.95981,22.89299,1008.477
2.145693779,0.05639634,0.104848,0.05765124,0.08089687,0.3117956,-0.9404274,2.31833,-10.23219,22.88777,1008.477
2.178250790,0.05620514,0.1048683,0.0575316,0.07894833,0.3108204,-0.9452741,2.697794,-10.95458,23.33788,1008.477
2.210807800,0.05570562,-0.01401695,0.1186693,0.08086792,0.3132753,-0.9452385,2.697794,-10.95458,23.33788,1008.477
2.245869160,-0.1294686,-0.07278375,-0.06481648,0.07992096,0.3122622,-0.9389692,2.690481,-10.59336,22.88919,1008.479
2.278426170,-0.06783777,0.1057877,-0.003237829,0.07988193,0.3147115,-0.9432821,3.055321,-10.59329,22.44193,1008.483
2.310979366,0.05530038,0.2243369,-0.1257196,0.08181159,0.3161969,-0.9437447,3.055321,-10.59329,22.44193,1008.485
2.346040726,0.1161027,-0.1322279,-0.06469767,0.08037376,0.3132821,-0.9481382,2.696163,-10.95717,22.8918,1008.487
2.378597260,0.1153787,0.105731,0.05779206,0.08770972,0.3109412,-0.9467309,2.690481,-10.59336,22.88919,1008.487
2.411154270,-0.4999796,-0.01334461,-0.2480948,0.07991411,0.3127503,-0.939445,2.690481,-10.59336,22.88919,1008.488
2.446215153,-1.296618,-0.0724313,-0.4308148,0.07750194,0.310775,-0.9394729,2.32238,-10.59859,22.44431,1008.488
2.478772640,-2.150999,0.1656378,-0.4291737,0.08526651,0.3123519,-0.9433233,3.056952,-10.59071,22.888,1008.488
2.511325836,-1.528076,0.3430886,-0.3664746,0.08226553,0.3186416,-0.9456413,3.056952,-10.59071,22.888,1008.488
2.543882847,-0.9073831,0.5793897,-0.3041653,0.08191782,0.3088687,-0.9351558,2.32238,-10.59859,22.44431,1008.488
2.578943730,0.5709802,-0.4919811,-0.2419763,0.08437592,0.3064797,-0.9371282,2.697794,-10.95458,23.33788,1008.488
2.611500263,2.165162,-0.8462638,0.002943647,0.07885408,0.3195536,-0.9422405,2.697794,-10.95458,23.33788,1008.49
2.644057751,2.524381,-1.079637,0.1860692,0.08216614,0.3254816,-0.9537544,2.324011,-10.596,22.89038,1008.49
2.679118633,0.9163669,-0.5991821,0.1851952,0.07153757,0.3175784,-0.9562815,2.701844,-11.32098,22.89442,1008.488
2.711671829,-1.175248,0.4124954,0.06246361,0.07264023,0.3083193,-0.947723,2.701844,-11.32098,22.89442,1008.488
2.744228840,-2.029891,1.301479,0.1234466,0.07376094,0.2990271,-0.9319144,2.325642,-10.59342,23.33645,1008.488
2.779290199,-1.897966,0.9984926,0.1230966,0.08438351,0.3069414,-0.9318039,2.32238,-10.59859,22.44431,1008.488
2.811847210,-1.460579,0.2222901,-0.1824808,0.09304386,0.3148566,-0.9374921,2.32238,-10.59859,22.44431,1008.488
2.844404221,-1.638918,-0.07551659,-0.303982,0.08896113,0.329416,-0.9445167,3.068315,-11.31833,22.89323,1008.488
2.879465580,-1.263139,-0.1941096,0.1250568,0.08612606,0.32161,-0.9460832,3.062633,-10.95452,22.89061,1008.49
2.912018776,-0.1522721,-0.2532654,0.3082601,0.08229441,0.3185888,-0.9340412,3.062633,-10.95452,22.89061,1008.49
2.944575310,1.383581,-0.6085773,0.2461689,0.07992411,0.3132077,-0.9331542,2.696163,-10.95717,22.8918,1008.488
2.979636192,2.175319,-0.2495615,0.06183589,0.07840224,0.3152026,-0.9485903,2.690481,-10.59336,22.88919,1008.488
3.012193203,1.858988,0.166721,0.1832728,0.07795399,0.310845,-0.9534901,2.690481,-10.59336,22.88919,1008.492
3.044750690,0.6843583,0.8782822,0.06014618,0.07251057,0.3194952,-0.9475524,2.690481,-10.59336,22.88919,1008.491
3.077307701,0.0678189,0.8151466,-0.1852611,0.06576665,0.3130895,-0.9476436,2.692112,-10.59077,23.33527,1008.491
3.112364769,-0.05447243,2.47526,0.1210879,0.07400484,0.3161238,-0.9500222,2.692112,-10.59077,23.33527,1008.491
3.144921780,1.297731,1.039308,0.3641057,0.1188335,0.3133242,-0.9539752,2.692901,-10.96233,21.99966,1008.489
3.177478313,2.949417,-0.9234884,0.1792158,0.1150408,0.3107076,-0.9240422,2.68885,-10.59594,22.44312,1008.489
3.212540150,0.1108994,-2.165586,-0.5546768,0.08682495,0.309339,-0.9177518,2.68885,-10.59594,22.44312,1008.489
3.245096684,-3.145183,-1.800998,-1.102731,0.05702495,0.3119814,-0.9428184,2.690481,-10.59336,22.88919,1008.489
3.277653694,-4.867951,-1.206189,-1.22513,0.05881438,0.3189545,-0.9746165,1.968903,-11.32627,22.89679,1008.489
3.312711239,-2.099216,0.756682,-0.4295377,0.07866988,0.3303534,-0.9662444,2.690481,-10.59336,22.88919,1008.489
3.345268250,1.592432,2.362667,0.7944502,0.09199263,0.3221194,-0.9344801,2.690481,-10.59336,22.88919,1008.487
3.377825260,4.914915,1.351491,1.100447,0.08776125,0.3151276,-0.90558,3.058583,-10.58813,23.33408,1008.487
3.412886620,6.268518,-1.146708,0.5496526,0.08197781,0.304003,-0.93378,2.697794,-10.95458,23.33788,1008.486
3.445443630,3.376728,-1.741517,-0.001141913,0.0881671,0.3086236,-0.9699688,2.697794,-10.95458,23.33788,1008.486
3.478000164,-0.6840842,-0.5518987,0.2436557,0.08863358,0.3086672,-0.978186,2.692112,-10.59077,23.33527,1008.486
3.510553360,-4.129622,0.5187582,-0.06234131,0.07956412,0.3001279,-0.9435043,2.692112,-10.59077,23.33527,1008.486
3.545614243,-5.360171,0.1023917,-0.6131359,0.0684333,0.3017585,-0.906732,2.329692,-10.95981,22.89299,1008.486
3.578171253,-4.252677,-0.5518987,-0.9191329,0.07746722,0.3155945,-0.9306986,2.690481,-10.59336,22.88919,1008.49
3.610728741,-1.545468,-0.4329368,-0.5519365,0.08005781,0.3371642,-0.963725,2.325642,-10.59342,23.33645,1008.49
3.645789623,0.4849375,0.2213535,0.1212569,0.07859057,0.3366812,-0.9685647,2.325642,-10.59342,23.33645,1008.491
3.678347111,1.900069,0.756682,0.5496526,0.08227959,0.3181403,-0.9422655,2.333742,-11.32621,22.44953,1008.49
3.710899353,2.638399,-0.07605116,0.1824563,0.07856666,0.3068168,-0.921166,2.324011,-10.596,22.89038,1008.49
3.745961189,2.761454,-0.6708605,-0.06234131,0.07953865,0.304455,-0.9332874,2.324011,-10.596,22.89038,1008.49
3.778517723,2.330761,-0.4924178,-0.001141913,0.08672621,0.3109461,-0.9505969,2.697794,-10.95458,23.33788,1008.49
3.811074734,0.9156297,0.1618726,0.1824563,0.08423834,0.315292,-0.9514948,3.062633,-10.95452,22.89061,1008.49
3.846136093,-0.1918645,0.2213535,-0.001141913,0.08078215,0.3205661,-0.9456106,3.062633,-10.95452,22.89061,1008.488
3.878693104,-1.299359,-0.4924178,-0.06234131,0.0769929,0.3117602,-0.9438077,2.690481,-10.59336,22.88919,1008.488
3.911246300,-1.483941,-0.1355321,0.1212569,0.08182489,0.3147457,-0.945217,2.696163,-10.95717,22.8918,1008.492
3.946307182,-0.9917214,-0.07605116,0.1212569,0.08237822,0.3103503,-0.9390007,2.696163,-10.95717,22.8918,1008.492
3.978864670,-0.9917214,-0.254494,-0.001141913,0.07700334,0.3112655,-0.9418818,3.064264,-10.95194,23.33669,1008.492
4.011421204,-1.914633,-0.07605116,-0.1847401,0.07883798,0.3205342,-0.9441592,2.692112,-10.59077,23.33527,1008.494
4.043978214,-2.529908,0.2808345,-0.001141913,0.07004886,0.3218908,-0.9470301,2.692112,-10.59077,23.33527,1008.492
4.079039097,-0.4379743,0.6377201,-0.001141913,0.0846402,0.324966,-0.94023,3.064264,-10.95194,23.33669,1008.489
4.111592293,3.315201,-0.3734559,-0.1847401,0.07791831,0.3189956,-0.929197,2.697794,-10.95458,23.33788,1008.489
4.144149780,6.822266,-0.254494,0.2436557,0.08382569,0.3132475,-0.9307405,2.697794,-10.95458,23.33788,1008.489
4.179210663,7.499068,-1.027746,-0.06234131,0.08924244,0.3089266,-0.9269446,2.696163,-10.95717,22.8918,1008.487
4.211767674,4.730332,-3.644908,-1.531127,0.08442672,0.3006795,-0.9439839,1.959171,-10.59607,23.33764,1008.487
4.244325161,-1.483941,-3.82335,-2.020722,0.08238691,0.3046271,-0.9627735,1.959171,-10.59607,23.33764,1008.487
4.279386044,-5.360171,-1.741517,-2.143121,0.07904779,0.3025533,-0.9439502,2.329692,-10.95981,22.89299,1008.485
4.311939240,-6.83683,-2.276846,-2.571517,0.06782666,0.3057757,-0.9366395,3.052902,-10.22431,23.33146,1008.485
4.344495773,-7.57516,-3.406984,-3.122311,0.06305622,0.2983972,-0.9309471,3.052902,-10.22431,23.33146,1008.487
4.379557610,-12.98958,-3.109579,-4.591097,0.04598203,0.339079,-0.9481948,3.058583,-10.58813,23.33408,1008.485
4.412114143,-13.17416,0.3403154,-2.693915,0.08074846,0.3643285,-0.95026,2.705894,-11.68737,22.45095,1008.487
4.444671154,-2.837545,-1.146708,-1.531127,0.06153688,0.3412346,-0.9501104,2.705894,-11.68737,22.45095,1008.487
4.477228165,6.637683,-1.146708,-0.7355347,0.07397787,0.3185512,-0.9495018,1.96159,-10.96504,22.44811,1008.487
4.512285233,8.852672,-2.812175,-1.22513,0.06136809,0.3216227,-0.9131895,3.068315,-11.31833,22.89323,1008.487
4.544842720,4.115057,-3.644908,-2.020722,0.05496263,0.3254823,-0.9252089,3.068315,-11.31833,22.89323,1008.485
4.577399254,-1.299359,-2.812175,-1.775924,0.0648964,0.344698,-0.9539279,3.491813,-10.94885,23.3353,1008.484
4.612461090,-7.32905,-1.384632,-1.102731,0.06271771,0.3242229,-0.9465041,3.494233,-11.31783,22.44577,1008.484
4.645017147,-9.236401,-0.3139749,-1.041532,0.05301386,0.3211783,-0.9460579,3.494233,-11.31783,22.44577,1008.484
4.677574634,-7.08294,-0.9682652,-1.347529,0.0573417,0.3237133,-0.9566576,3.062633,-10.95452,22.89061,1008.488
4.712631702,-7.205995,-1.563075,-1.592326,0.06102026,0.3493678,-0.9234002,2.694532,-10.95975,22.44573,1008.488
4.745188713,-10.15931,-2.157884,-1.714725,0.05464609,0.3531704,-0.9228526,2.694532,-10.95975,22.44573,1008.486
4.777745724,-13.42027,-1.800998,-1.959523,0.05749498,0.3571462,-0.9339124,3.066684,-11.32091,22.44715,1008.484
4.812807083,-9.605565,-1.563075,-1.408728,0.04827852,0.3531559,-0.9378314,3.079677,-12.04595,22.89845,1008.484
4.845364094,-8.375016,-1.26567,-1.16393,0.04301076,0.3448388,-0.9408534,3.079677,-12.04595,22.89845,1008.484
4.877920628,-10.28237,-1.503594,-1.775924,0.04474581,0.3652284,-0.9308764,3.080698,-12.41714,21.62657,1008.486
4.912978649,-11.6975,-1.027746,-1.837124,0.04750113,0.3803143,-0.9272654,2.715626,-12.41757,22.01011,1008.486
4.945535183,-12.3743,-1.146708,-1.531127,0.04599513,0.3856095,-0.9204158,2.715626,-12.41757,22.01011,1008.486
4.978092194,-12.3743,-0.7898225,-0.9803323,0.04677884,0.4040428,-0.9104679,3.088011,-12.77837,22.07525,1008.486
5.010649204,-10.77459,-1.027746,-0.3683383,0.03372733,0.392757,-0.924162,3.880399,-12.77522,21.62661,1008.486
5.045710564,-5.729336,0.6377201,0.1824563,0.05599942,0.4056475,-0.9162527,3.880399,-12.77522,21.62661,1008.486
5.078267574,-5.237116,-0.254494,0.304855,0.03959496,0.3961181,-0.8984973,3.525291,-13.50549,21.63301,1008.486
5.110820770,-7.267522,-1.26567,-0.5519365,0.04027115,0.415699,-0.9272019,3.525291,-13.50549,21.63301,1008.486
5.145881653,-6.221555,-0.9682652,0.3660544,0.04695643,0.4241143,-0.9415812,3.525291,-13.50549,21.63301,1008.486
5.178439140,-10.95917,-0.01657022,0.06005749,0.03705161,0.4034189,-0.9080511,3.535022,-14.23569,21.19217,1008.486
5.210995197,-10.71306,0.04291072,0.304855,0.05417249,0.4030234,-0.8790711,3.113155,-14.60259,21.19616,1008.488
5.246057034,-13.23569,-1.860479,-0.7967341,0.02237684,0.4090571,-0.9074675,3.113155,-14.60259,21.19616,1008.488
5.278613567,-23.08008,-0.01657022,-1.775924,0.03282611,0.4263245,-0.9337999,3.107474,-14.23878,21.19355,1008.488
5.311166763,-29.41741,2.005782,-1.286329,0.05870332,0.4664307,-0.915328,3.117205,-14.96898,20.7527,1008.488
5.346228123,-28.00227,0.4592772,-1.531127,0.02521043,0.4933285,-0.9409876,3.117205,-14.96898,20.7527,1008.488
5.378785133,-40.12318,3.909172,-0.5519365,0.0484249,0.4759056,-0.8910047,3.920956,-15.69345,20.30928,1008.488
5.411342144,-49.783,3.968652,-3.367109,0.04147259,0.4561432,-0.840545,3.566869,-16.79491,19.04381,1008.492
5.443898678,-53.72075,-0.07605116,-7.834665,0.03173264,0.5405661,-0.8368307,3.566869,-16.79491,19.04381,1008.492
5.478960514,-57.78157,-2.990617,-13.34261,0.03055197,0.5893881,-0.8882895,2.78095,-17.53343,18.15946,1008.492
5.511513233,-79.86993,2.897996,-16.46378,0.05653255,0.6668232,-0.8489463,3.175217,-19.72362,16.45338,1008.492
5.544070244,-102.0198,10.69,-14.93379,0.05241432,0.6235339,-0.7471269,3.175217,-19.72362,16.45338,1008.492
5.579131127,-99.86635,15.50795,-13.15901,0.02221747,0.550494,-0.6969741,3.617569,-21.18832,14.2958,1008.49
5.611688614,-86.20725,11.52273,-8.875054,0.01915628,0.7060694,-0.6104901,3.642104,-23.38631,11.69876,1008.49
5.644245624,-69.53331,9.738304,-5.631487,0.01163042,0.8085247,-0.6113366,3.246169,-25.94899,9.488066,1008.49
5.679306507,-51.01355,12.89079,-3.305909,0.01329151,0.6746975,-0.5689093,3.246169,-25.94899,9.488066,1008.487
5.711859703,-52.55173,13.06924,-1.898323,0.01646744,0.7635198,-0.6400638,3.675527,-26.68865,6.879194,1008.487
5.744417190,-30.95559,13.78301,1.896039,0.02944388,0.8286314,-0.5999294,3.261993,-27.78797,6.059996,1008.487
5.779478073,-24.2491,16.75705,4.83361,0.005857882,0.8125997,-0.5624478,3.261993,-27.78797,6.059996,1008.491
5.812035084,-16.31206,10.33311,-0.1847401,0.01669153,0.7303488,-0.5066746,3.274143,-28.88715,4.729612,1008.491
5.844591618,-35.57015,5.812562,-5.570287,0.03976501,0.7882192,-0.5546351,2.919035,-29.61742,4.736023,1008.491
5.877149105,-26.46409,-0.8493034,-11.01703,0.01210708,0.9282376,-0.6433471,2.919035,-29.61742,4.736023,1008.491
5.912206173,-20.4344,-5.429336,-7.957064,0.09038563,0.7618091,-0.6928493,3.286527,-29.98596,3.462955,1008.489
5.944763184,-19.63454,-4.656084,-7.222671,0.01899955,0.8355557,-0.6558854,3.283265,-29.99113,2.570811,1008.489
5.977320194,-20.98814,-5.964664,-7.651067,0.07892261,0.8001929,-0.6168458,3.283265,-29.99113,2.570811,1008.488
6.012381554,-14.89693,-7.094802,-8.079463,0.1113118,0.7089474,-0.5520465,2.912135,-30.00115,1.297508,1008.488
6.044938564,-11.0207,3.433324,-10.09904,0.09365956,0.7065638,-0.612488,3.284054,-30.36269,1.235207,1008.488
6.077495575,-8.313489,8.78661,-12.36342,0.08367114,0.8042821,-0.6472408,3.284054,-30.36269,1.235207,1008.486
6.112553120,-13.17416,15.21055,-7.834665,0.1445131,0.7771178,-0.5916423,3.282655,-30.3649,0.8528585,1008.49
6.145110130,-17.54261,30.49715,-6.916674,0.1187909,0.8117642,-0.5891553,3.701261,-30.00317,-0.04328346,1008.49
6.177666664,-25.29507,32.87639,-11.13943,0.03272555,0.8583956,-0.5100538,3.701261,-30.00317,-0.04328346,1008.488
6.212728500,-32.73989,29.18857,-16.52498,0.0363582,0.9321154,-0.4659121,3.69497,-30.01313,-1.763847,1008.487
6.245285034,-23.38771,26.98778,-11.99622,0.04200761,0.8931254,-0.5322516,4.054129,-29.64926,-2.213718,1008.487
6.277842045,-10.59,24.84646,-7.528668,0.1314383,0.8708737,-0.5128589,4.054129,-29.64926,-2.213718,1008.487
6.312899113,-4.191149,33.05483,-6.671876,0.08534175,0.8120034,-0.5243469,4.043554,-29.29319,-3.554545,1008.485
6.345456123,0.8541023,38.70552,-15.05619,0.002610333,0.7638042,-0.5293528,4.776496,-29.2879,-3.556923,1008.483
6.378013611,6.453101,36.02888,-15.30099,0.06180084,0.7754381,-0.5664524,4.776496,-29.2879,-3.556923,1008.483
6.410569668,16.66666,39.24085,-18.60576,0.06624852,0.8584973,-0.5429542,4.399684,-28.93412,-4.832837,1008.483
6.445631504,4.853387,45.12946,-19.27895,0.0009347801,0.8629936,-0.5433059,4.38264,-27.84269,-4.84067,1008.483
6.478188992,-8.805709,48.40091,-23.62411,-0.05904358,0.9497681,-0.5593258,4.38264,-27.84269,-4.84067,1008.483
6.510741234,-8.621126,46.91389,-25.27649,-0.02441072,0.9572439,-0.5012398,4.739558,-27.85517,-7.454566,1008.482
6.545803070,-17.54261,47.92507,-30.78444,-0.03031825,0.9311817,-0.451844,5.454845,-27.13222,-9.182729,1008.482
6.578359604,-18.58857,48.16299,-30.78444,-0.04337637,0.8800121,-0.458896,5.454845,-27.13222,-9.182729,1008.482
6.610916615,-10.28237,46.43805,-32.31443,-0.03090194,0.7665367,-0.4785242,5.818466,-27.8797,-13.06589,1008.478
6.645977974,-0.00728213,51.73185,-39.96435,0.01510736,0.5685933,-0.5304095,6.541244,-28.26331,-17.39893,1008.476
6.678534985,17.46652,57.20409,-45.59469,-0.02414793,0.3092815,-0.6904585,6.541244,-28.26331,-17.39893,1008.475
6.711088180,59.42824,61.07035,-37.76117,-0.1716609,0.2033637,-0.3748369,7.292196,-30.46634,-21.78263,1008.473
6.746149063,96.16013,63.33063,-67.50408,-0.3410263,0.5126005,-0.248628,9.151735,-33.01971,-25.21143,1008.473
6.778706551,96.03707,48.81728,-84.21151,-0.8094605,0.5577359,-0.4007177,9.151735,-33.01971,-25.21143,1008.473
6.811263084,101.6361,-0.9087843,-121.9715,-0.3779145,0.5109483,-0.2051137,11.04658,-37.00839,-25.18865,1008.473
6.843820095,78.74786,-30.05445,-122.0939,-0.5355577,0.5105065,-0.3451475,14.42031,-41.71152,-24.71933,1008.473
6.878880978,69.64179,-41.89115,-128.0303,-0.4312834,0.579222,-0.1953198,14.42031,-41.71152,-24.71933,1008.471
6.911434174,61.64323,-52.53824,-135.5578,-0.3984242,0.6310065,-0.05389879,16.65546,-43.50215,-22.54677,1008.471
6.943991661,40.41626,-60.56816,-137.6386,-0.6579577,0.6675038,-0.05985875,19.24166,-44.19612,-19.93716,1008.471
6.979052544,6.206991,-60.98454,-138.1894,-0.8362806,0.68909,-0.1869688,19.24166,-44.19612,-19.93716,1008.473
7.011609554,-23.44924,-47.12547,-134.7622,-1.04814,0.6479303,-0.1864255,22.16999,-43.43478,-17.78526,1008.473
7.044167042,-9.236401,-54.67955,-138.5566,-1.1542,0.7028602,-0.2782935,26.19875,-43.03669,-16.90881,1008.475
7.079227924,3.80742,-51.17018,-142.8405,-1.04622,0.719125,-0.6571169,26.19875,-43.03669,-16.90881,1008.476
7.111781120,25.77272,-61.87675,-129.9274,-1.290679,0.7373082,-0.7600462,29.43528,-39.38251,-18.28383,1008.476
7.144337654,58.81297,-68.5981,-126.0107,-1.20238,0.7419112,-0.8770384,32.32891,-36.81208,-17.86555,1008.478
7.179399490,49.21468,-95.424,-115.362,-1.29179,0.662035,-0.7761782,32.32891,-36.81208,-17.86555,1008.48
7.211956024,17.52804,-110.1753,-107.9569,-1.245559,0.6480021,-0.6580096,34.84712,-33.88565,-18.34083,1008.482
7.244513035,-241.0719,-76.62802,-53.55062,0.5470017,1.85089,-2.771147,36.61777,-30.24206,-19.7111,1008.482
7.277070046,-50.02911,0.3403154,-77.90797,-1.471527,0.2943551,-3.143394,36.61777,-30.24206,-19.7111,1008.482
7.312127113,-96.05165,-80.37532,-100.2458,-0.7528605,0.12464,-0.2275636,38.74195,-25.12507,-18.41657,1008.485
7.344684601,-51.99799,7.715952,-4.3463,-0.4799373,0.1396579,-0.07678436,43.1507,-27.68538,-26.25068,1008.487
7.377241612,-82.45408,-20.8349,-31.88603,-0.720494,0.1255379,-0.3315072,43.1507,-27.68538,-26.25068,1008.488
7.412302971,-41.90748,-9.295596,-11.99622,-1.314407,0.1107322,-0.6994929,40.15015,-23.71459,-27.99046,1008.494
7.444859982,-27.75616,-59.14062,-31.76363,-1.237458,-0.3118659,-0.3197964,42.31265,-21.8922,-30.17728,1008.494
7.477416515,-20.37287,-46.76859,-34.02801,-0.973114,-0.2763756,0.00580245,42.31265,-21.8922,-30.17728,1008.496
7.512474060,0.3618826,-53.07357,-47.12468,-0.9346306,-0.2108529,-0.07734263,43.41122,-22.25841,-31.96252,1008.498
7.545030594,14.94389,-55.92865,-42.04513,-0.8418643,-0.09236775,-0.2153204,42.64661,-20.44981,-32.86535,1008.5
7.577587605,41.21611,-67.40848,-33.66081,-0.8242635,0.193606,-0.4202766,42.64661,-20.44981,-32.86535,1008.501
7.612648964,100.344,-44.68676,-2.632716,-1.077001,0.8457356,-0.6923756,42.25275,-19.0046,-34.14909,1008.501
7.645205974,1.346322,-50.87277,7.403985,-0.7990876,0.6996421,-0.2627339,42.61983,-18.62818,-32.43233,1008.501
7.677763462,-55.07436,-20.95386,-1.286329,-0.7548016,0.194993,0.111392,42.61983,-18.62818,-32.43233,1008.506
7.712820530,-86.45336,-21.37023,-1.286329,-1.226126,-0.3688686,0.06119064,44.80101,-17.89464,-34.16525,1008.508
7.745377541,-19.88065,-15.89798,-1.714725,-0.9100732,-0.1074026,-0.09802338,42.60906,-19.39085,-38.48094,1008.508
7.777934551,-0.3764469,-25.23649,8.199577,-0.9393535,0.1544822,-0.2704323,41.80468,-15.03558,-39.40204,1008.508
7.810491085,-10.52848,-32.43368,4.650012,-1.042249,0.0418706,-0.06419895,41.80468,-15.03558,-39.40204,1008.508
7.845552921,-11.63597,-30.70873,4.160417,-0.9504172,0.05347988,0.1031379,41.06848,-15.04604,-40.29181,1008.508
7.878109455,-16.00442,-23.98739,-0.6743353,-1.000874,0.140302,-0.002315076,40.32255,-14.3263,-40.74072,1008.508
7.910662651,-24.06452,-23.27362,-4.713496,-1.017608,0.06537524,-0.03244465,40.32255,-14.3263,-40.74072,1008.509
7.945724487,-12.98958,-23.45206,-6.671876,-0.9687658,0.02727201,0.04281706,39.93274,-13.24748,-42.46793,1008.509
7.978281021,-10.46695,-19.94269,-7.161472,-0.9960191,0.02831481,0.05591045,39.18844,-12.52515,-42.47078,1008.509
8.010838032,-8.313489,-17.32553,-7.161472,-0.9828047,0.02931522,0.08733245,39.18844,-12.52515,-42.47078,1008.511
8.045898914,-6.0985,-13.57822,-6.733076,-0.9670962,0.02167794,0.1017021,38.80492,-11.43636,-42.47742,1008.511
8.078456402,1.16174,-8.93871,-4.958293,-0.970077,-0.01767241,0.08950356,38.05898,-10.71662,-42.92634,1008.515
8.111009598,7.499068,-6.559474,-2.143121,-0.9776692,0.01700243,0.1374108,38.05898,-10.71662,-42.92634,1008.515
8.146070480,-0.4379743,-1.741517,-3.673106,-0.993735,0.0557313,0.124966,38.06062,-10.71404,-42.48026,1008.515
8.178627491,-6.467665,3.968652,-1.837124,-0.99519,0.008671617,0.1024975,38.06225,-10.71145,-42.03419,1008.515
8.211184979,-4.929479,8.370243,-0.7355347,-0.9775479,-0.001767817,0.09748745,38.06225,-10.71145,-42.03419,1008.515
8.246245861,-6.898357,13.1882,-4.591097,-0.9820186,0.04917108,0.1050362,37.69173,-10.3477,-41.58954,1008.513
8.278803349,-7.882797,18.00615,-2.265519,-0.9795347,-0.000770851,0.08638691,38.05657,-10.34764,-42.0368,1008.513
8.311355591,-8.682653,19.67162,-2.20432,-0.9921648,0.03272121,0.05984097,38.05657,-10.34764,-42.0368,1008.513
8.343912602,-17.91177,20.50435,-2.326719,-1.00107,0.002955704,0.0603622,38.40926,-9.248396,-41.15368,1008.513
8.378973961,-10.77459,23.4784,1.039248,-0.9840127,-0.007312065,0.0162018,39.12758,-8.520647,-42.05342,1008.515
8.411530972,-4.498786,22.46722,2.263236,-0.9858803,0.01766782,-0.0312696,39.12758,-8.520647,-42.05342,1008.515
8.444087982,-1.176304,21.09916,3.85442,-1.002057,-0.01415634,-0.02642236,39.85381,-7.780353,-40.78654,1008.515
8.479149342,4.54575,16.40017,4.588812,-0.9986839,0.01776425,-0.08877762,40.20393,-6.623055,-40.34992,1008.515
8.511702538,-2.406853,15.44847,6.730792,-0.9994593,-0.0291658,-0.03148763,40.20393,-6.623055,-40.34992,1008.515
8.544259548,8.668089,11.22533,9.362366,-0.9998416,0.03520912,-0.08077633,40.9385,-6.615179,-39.90623,1008.515
8.579320908,1.530904,7.656471,9.301167,-1.003729,0.03752193,-0.06623598,41.30823,-6.607366,-39.01527,1008.515
8.611877918,-2.283798,6.942699,9.545963,-0.9978605,0.03469806,-0.06966837,41.30823,-6.607366,-39.01527,1008.515
8.644434452,0.1157728,4.979828,9.97436,-0.9792262,0.02471328,-0.06500491,41.67875,-6.971113,-39.45992,1008.515
8.679496288,-0.130337,10.74948,14.13592,-1.073772,0.02029543,-0.112352,41.32622,-7.759433,-39.007,1008.515
8.712048531,6.637683,9.084014,13.52392,-1.083242,0.03626913,-0.1251503,41.32622,-7.759433,-39.007,1008.515
8.744605541,8.052814,6.050486,12.60593,-1.043072,0.07719716,-0.03320646,42.06647,-8.115368,-38.5607,1008.515
8.777163029,23.06552,-0.3139749,7.771181,-1.010767,0.09960938,-0.05948144,40.97274,-8.487119,-38.55452,1008.515
8.812223911,21.03511,-12.21016,-0.8579335,-1.015177,0.1670292,-0.1483567,40.97274,-8.487119,-38.55452,1008.518
8.844781399,3.130618,-25.11753,-10.46624,-1.113515,0.150958,-0.2089291,40.98979,-9.57855,-38.54668,1008.518
8.877338409,-3.45282,-32.19576,-15.48459,-1.145786,0.002135449,-0.1724983,40.64767,-11.03386,-38.08898,1008.519
8.912395477,21.15816,-34.75344,-17.74897,-1.153006,-0.05132605,-0.1931254,40.64767,-11.03386,-38.08898,1008.519
8.944952488,52.8448,-40.10672,-13.8934,-1.165245,0.003750376,-0.15602,39.53769,-10.68574,-39.42624,1008.519
8.977509975,67.05764,-42.96181,-12.60822,-1.166684,0.07016612,-0.2294454,38.79417,-10.33497,-40.76469,1008.521
9.012570858,67.54986,-40.76101,-17.87136,-0.9480149,0.06255201,-0.06687465,38.79417,-10.33497,-40.76469,1008.521
9.045127869,51.79884,-21.60815,-15.79059,-0.7365924,0.1055172,-0.03838736,37.36176,-12.90219,-42.46222,1008.519
9.077684402,32.72532,20.26643,-7.957064,-0.5156482,0.2715478,-0.1114744,35.91232,-14.37799,-44.16758,1008.521
9.112742424,-10.09778,68.56495,-2.571517,-0.5443857,0.2554919,-0.1895153,35.91232,-14.37799,-44.16758,1008.519
9.145298958,-5.114061,94.3202,15.7271,-0.6715852,0.2027197,-0.2776888,35.21571,-16.18979,-41.98552,1008.519
9.177855969,22.88093,104.0156,31.14935,-0.8055193,0.1644515,-0.2621919,35.94278,-15.07535,-38.93695,1008.519
9.210412979,44.1079,109.131,42.04284,-0.9619612,0.1740706,-0.2609274,35.94278,-15.07535,-38.93695,1008.523
9.278031349,60.84337,103.3613,49.38677,-1.08976,0.086413,-0.1620824,39.26703,-14.63753,-30.28372,1008.522
9.310584545,61.76628,97.05632,47.55079,-1.123095,0.108742,-0.1447914,39.26703,-14.63753,-30.28372,1008.522
9.345645428,51.36814,76.8328,43.81762,-1.156809,0.08573914,-0.09967237,40.77902,-16.41796,-25.43235,1008.522
9.378202915,47.36886,43.28555,37.57529,-1.16817,-0.06228055,-0.07291703,40.81191,-17.4843,-21.09125,1008.522
9.410759449,73.0258,4.266057,19.09307,-1.108733,-0.1679322,0.03078989,40.81191,-17.4843,-21.09125,1008.522
9.445821285,75.97913,-46.35222,-9.058653,-1.261386,-0.1713286,0.1256273,39.73016,-18.2099,-19.36189,1008.522
9.478378296,124.4628,-48.96938,2.018438,-0.8494592,0.2350986,-1.16837,39.37831,-18.935,-18.46334,1008.522
9.510930538,27.00327,-37.90593,-18.23856,-1.219379,0.9909164,-1.067541,39.37831,-18.935,-18.46334,1008.522
9.545992375,-129.9533,-55.98813,-37.27158,-0.7776938,-0.1653646,-0.01202762,39.37426,-18.5686,-18.01988,1008.522
9.578548908,-53.5977,-21.78659,-43.63631,-1.251208,0.05489517,-0.213162,37.60947,-23.32134,-19.70055,1008.522
9.611105919,-46.33746,-32.19576,-24.1749,-0.8304794,-0.2208643,-0.3540874,37.60947,-23.32134,-19.70055,1008.522
9.646167278,10.51391,-27.79417,-18.11616,-0.9584262,-0.2236483,-0.1103845,36.77584,-17.52116,-22.41639,1008.52
9.678724289,49.58385,-18.63411,-12.17982,-0.9871341,0.1060437,-0.1236952,37.47898,-15.69903,-22.81417,1008.518
9.711277485,7.43754,-11.85328,-18.97295,-0.957392,0.1243785,-0.2220531,37.47898,-15.69903,-22.81417,1008.518
9.743834495,-28.12533,-8.165458,-23.37931,-0.9559627,-0.02662303,-0.3568034,37.09951,-14.97663,-23.26427,1008.518
9.778895855,-12.43583,-18.69359,-18.66696,-0.9224284,-0.1509859,-0.3800017,37.08489,-14.25418,-24.16164,1008.518
9.811452866,10.82155,-21.19179,-16.34138,-0.9411784,-0.07616205,-0.322287,37.78942,-12.42983,-24.17707,1008.517
9.844009399,1.777014,-27.25884,-17.25937,-0.9659171,0.01745544,-0.03419237,37.78942,-12.42983,-24.17707,1008.515
9.879071236,-19.01927,-12.62653,-20.31934,-1.002231,-0.03000916,-0.1736106,37.427,-12.79887,-24.61934,1008.521
9.911623955,-18.6501,-11.49639,-16.76978,-0.9552708,-0.06260645,-0.2447263,38.13987,-11.70694,-25.45797,1008.521
9.944180965,-11.32833,-11.31795,-9.548248,-0.9580575,-0.160756,-0.2583054,38.13987,-11.70694,-25.45797,1008.519
9.979242802,0.3003551,-12.15068,-7.712266,-1.001413,-0.01924712,-0.1864984,38.12851,-10.97932,-25.4632,1008.519
10.011799335,-10.65153,-12.26964,-8.263061,-0.9976834,-0.04832646,-0.1937129,37.73769,-9.529309,-25.91852,1008.517
10.044356346,-7.021412,-14.35148,-8.38546,-1.028202,-0.07945547,-0.2753657,37.73769,-9.529309,-25.91852,1008.516
10.079417229,4.607277,-13.16186,-6.977873,-0.9757459,-0.09368956,-0.2016768,36.9877,-8.443171,-25.92398,1008.516
10.111970425,7.68365,-14.292,-7.406269,-0.9826425,-0.08745065,-0.2039918,38.07412,-7.710192,-26.37884,1008.516
10.144527912,9.406419,-17.50397,-9.425849,-0.9667418,-0.07789675,-0.2285137,38.07412,-7.710192,-26.37884,1008.514
10.177084923,7.622122,-19.82372,-11.93502,-0.9555596,-0.1223706,-0.2490214,38.81516,-8.437686,-27.26814,1008.521
10.212145805,2.946036,-22.61933,-16.21898,-0.9714493,-0.1271885,-0.1973583,38.44706,-8.442916,-27.71302,1008.52
10.244703293,4.484222,-23.15466,-15.30099,-1.002409,-0.1279685,-0.1151662,38.44706,-8.442916,-27.71302,1008.52
10.277259827,12.23668,-25.89078,-16.09658,-1.010646,-0.04360342,-0.0945361,39.17432,-8.073812,-27.71801,1008.52
10.312317371,3.253673,-29.45964,-20.87014,-1.031191,-0.08787662,-0.143046,39.52708,-7.285122,-28.1072,1008.52
10.344873905,10.88308,-35.58617,-20.50294,-1.02366,-0.1946216,-0.1606333,39.52708,-7.285122,-28.1072,1008.518
10.377430916,20.60442,-45.75741,-23.37931,-1.066291,-0.2621125,-0.190141,38.79588,-7.72261,-29.43999,1008.518
10.412492752,38.81654,-51.11069,-22.03292,-1.06515,-0.294746,-0.2776478,38.04736,-6.944814,-30.33542,1008.518
10.445049286,60.84337,-52.71668,-21.35973,-1.096784,-0.2671296,-0.1365333,38.04736,-6.944814,-30.33542,1008.518
10.477606297,68.47277,-60.50869,-23.13451,-1.127934,-0.07801464,-0.02485823,37.68028,-7.321234,-32.05219,1008.516
10.512663841,42.38514,-75.141,-25.09289,-1.342751,0.01147879,-0.01410139,36.57761,-7.33434,-32.94076,1008.516
10.545220852,36.35545,-73.5945,-34.2728,-1.156518,-0.0354315,0.04059152,36.57761,-7.33434,-32.94076,1008.521
10.577777863,38.5089,-82.57612,-27.11247,-1.219491,-0.1119509,0.0143493,35.48827,-8.506894,-35.09556,1008.521
10.610334873,42.69277,-76.0927,-33.78321,-1.140798,-0.1528444,-0.06514097,33.2872,-8.899131,-37.25245,1008.521
10.645396233,69.21111,-75.4384,-32.74282,-1.078783,-0.1865993,-0.1590075,33.2872,-8.899131,-37.25245,1008.519
10.677953243,104.2202,-83.46833,-27.41847,-0.9006332,-0.1418696,-0.1860495,31.82071,-9.283492,-38.96565,1008.521
10.710505962,109.5731,-73.47553,-14.8726,-0.6965317,-0.1863149,0.01802716,29.2759,-11.13362,-41.11091,1008.521
10.745567799,58.19769,-45.75741,3.915619,-0.3650758,-0.22863,0.33174,29.2759,-11.13362,-41.11091,1008.521
10.778123856,40.53931,31.21092,29.43577,-0.5875967,0.1183051,-0.3902344,26.74711,-13.70399,-41.97645,1008.521
10.810681343,6.883793,22.70515,34.63771,-0.6499369,0.07344761,-0.005607261,25.66474,-14.80336,-41.96505,1008.519
10.845743179,-48.06023,62.31945,27.84458,-0.7927902,0.1208461,-0.0434164,25.66474,-14.80336,-41.96505,1008.519
10.878299713,-82.88477,86.23079,36.4125,-0.8399222,0.04067296,-0.1818731,26.04723,-15.52095,-40.68653,1008.517
10.910852432,-93.22138,104.7888,39.65607,-0.8706014,-0.002473652,-0.1868521,26.77269,-14.4091,-38.08403,1008.517
10.945913792,-77.16272,123.6443,49.08077,-0.9166616,-0.07472748,-0.2473654,26.77269,-14.4091,-38.08403,1008.517
10.978470802,-62.58071,140.6559,61.62665,-1.013573,-0.07740045,-0.2579468,29.67284,-11.82834,-35.88146,1008.516
11.011028290,-42.3997,149.1616,68.05259,-1.090696,-0.20816,-0.1544912,31.4977,-10.70854,-33.28253,1008.512
11.046089172,6.453101,152.4926,80.47607,-1.161518,-0.04910357,-0.2781576,31.4977,-10.70854,-33.28253,1008.512
11.078646183,5.099497,165.2215,69.76617,-1.279737,0.02323971,-0.2803234,33.35889,-11.39525,-28.50391,1008.51
11.111199379,4.607277,140.4179,49.99876,-1.544433,0.004671708,-0.2692336,33.37715,-11.73914,-25.06017,1008.51
11.143755913,-1.053249,169.742,65.66581,-1.605818,-0.0325838,-0.05609012,33.37715,-11.73914,-25.06017,1008.509
11.178817749,-6.0985,141.5481,72.88734,-1.453989,-0.1899529,0.1419638,37.06604,-12.42,-21.56199,1008.509
11.211374760,-14.22013,149.0427,54.16032,-1.48804,-0.0779069,0.09391832,38.94264,-14.20073,-17.2216,1008.509
11.243931294,-33.53975,98.78127,30.47616,-1.357278,-0.2220541,0.1041607,38.94264,-14.20073,-17.2216,1008.507
11.278993130,-27.26394,47.09233,5.506804,-1.110772,-0.1724351,0.3715038,39.34098,-14.89323,-11.60981,1008.507
11.311545849,-48.42939,4.860867,-19.52375,-1.132769,-0.01869106,0.2733282,38.6379,-15.96966,-8.094748,1008.507
11.344102860,-79.8084,-35.34825,-41.12714,-1.143126,-0.02238862,0.2022254,38.6379,-15.96966,-8.094748,1008.509
11.379164696,-85.03823,-62.76896,-56.67178,-1.041398,-0.1582676,0.1285145,38.63058,-15.60843,-8.54343,1008.509
11.411721230,-59.01212,-74.72463,-62.36333,-0.9422878,-0.2814788,0.04049797,39.33693,-14.52683,-11.16635,1008.513
11.444278240,420.5329,183.1847,31.57775,-2.681124,1.219314,-0.6585421,39.33693,-14.52683,-11.16635,1008.511
11.479339600,-288.8171,-112.1381,-4.223901,0.425973,0.1261526,2.479682,40.41766,-13.43004,-11.62382,1008.511
11.511892319,120.1558,-50.69433,-14.7502,-0.6079062,-0.1131782,0.9621257,38.76674,-25.45863,-13.18855,1008.513
11.544449806,-40.24624,7.359066,-34.5788,-1.265627,0.272808,-0.2929643,38.76674,-25.45863,-13.18855,1008.513
11.577006817,-112.6641,-35.64565,-39.29116,-0.492685,0.35298,0.1077488,34.86118,-10.5814,-15.45035,1008.511
11.612068176,-89.52974,-2.931136,-46.14549,-0.9090748,-0.2818734,-0.5217073,35.20655,-9.120927,-15.01591,1008.511
11.644625187,-5.790863,-12.50757,-19.34015,-0.8052149,-0.2085959,-0.5202062,35.20655,-9.120927,-15.01591,1008.511
11.677181721,1.961597,-2.693213,-17.74897,-0.8041211,0.02587263,-0.3503486,37.00629,-7.233171,-15.92749,1008.511
11.712239265,-2.345325,1.529934,-19.21775,-0.9622104,0.09616058,-0.3355891,38.08703,-6.136381,-16.38496,1008.513
11.744795799,0.1157728,-4.715565,-18.11616,-0.9623399,0.04413536,-0.4374085,38.08703,-6.136381,-16.38496,1008.515
11.777352810,3.376728,-15.77902,-18.85056,-0.8985617,-0.00109066,-0.4623288,38.43567,-4.670742,-15.05838,1008.516
11.812414646,6.330046,-19.5858,-18.78936,-0.8616165,-0.02754821,-0.4168473,38.80619,-5.03449,-15.50303,1008.516
11.844971180,9.467946,-21.84608,-18.17736,-0.9718721,-0.004826253,-0.3859415,38.80619,-5.03449,-15.50303,1008.516
11.877528191,18.88165,-28.80535,-15.79059,-0.9766716,-0.04253527,-0.3372078,39.1483,-3.579183,-15.96074,1008.52
11.912585735,23.18857,-28.21054,-12.36342,-0.9088626,-0.04663481,-0.3102667,38.41047,-3.592225,-17.29657,1008.52
11.945142746,17.71263,-24.52272,-12.60822,-0.9274744,-0.06142283,-0.4240679,38.40176,-3.233212,-18.1276,1008.52
11.977699757,23.68079,-30.76822,-10.16024,-0.9442662,-0.110561,-0.3547117,38.40176,-3.233212,-18.1276,1008.52
12.012761116,37.46294,-30.47081,-8.875054,-0.9252943,-0.04660214,-0.2580456,39.50927,-3.958058,-19.01809,1008.519
12.045318127,29.83354,-26.48559,-9.119852,-0.9430218,-0.03600667,-0.2873528,40.99461,-5.407881,-19.90455,1008.519
12.077875137,4.176585,-32.13628,-20.07454,-0.8671507,-0.07949974,-0.3378774,40.99461,-5.407881,-19.90455,1008.519
12.110428333,-1.176304,-30.70873,-15.85179,-1.00073,-0.139288,-0.07957065,42.091,-5.404737,-20.73653,1008.517
12.145489693,24.04996,-33.9207,-11.93502,-1.051704,0.0910529,-0.1117772,42.44447,-4.677052,-21.18901,1008.517
12.178046703,-5.790863,-36.71631,-21.29853,-0.9823134,0.05726359,-0.1771321,42.44447,-4.677052,-21.18901,1008.517
12.210603237,-12.3743,-38.9171,-23.68531,-0.973892,-0.1794674,-0.2503582,42.80363,-4.313178,-21.63889,1008.515
12.245665073,12.85196,-53.25201,-26.68408,-1.023353,-0.1182996,-0.2696791,41.32741,-3.967334,-22.91123,1008.513
12.278221607,11.74446,-58.60529,-28.33646,-1.025088,-0.1947,-0.1475819,41.32741,-3.967334,-22.91123,1008.513
12.310774803,26.94175,-51.4081,-23.56291,-1.028988,-0.2616934,-0.06932641,42.04409,-3.242168,-24.25705,1008.513
12.345836163,46.569,-49.62367,-25.94969,-1.092074,-0.2050019,-0.1051373,40.92703,-2.53245,-25.97927,1008.513
12.378392696,46.19984,-66.33782,-18.48336,-1.313578,-0.03461584,-0.05398631,40.92703,-2.53245,-25.97927,1008.513
12.410950184,25.89578,-69.54979,-30.29484,-1.287017,0.04503327,0.03421105,40.1762,-1.820454,-27.7664,1008.513
12.446011067,19.74303,-84.71743,-34.8848,-1.442738,0.05512663,-0.06602705,39.80912,-2.196875,-29.48316,1008.512
12.478568077,3.992002,-83.17093,-45.65589,-1.208514,-0.07625701,-0.1074111,39.80912,-2.196875,-29.48316,1008.516
12.511121273,18.94318,-83.76573,-46.39029,-1.097212,-0.1599225,-0.1996698,38.69611,-1.853549,-31.64884,1008.516
12.543678761,39.92404,-87.45355,-48.59346,-1.074521,-0.1193709,-0.287531,36.84447,-1.151708,-33.81476,1008.518
12.578739643,68.78041,-94.59126,-44.9827,-1.020383,-0.08796619,-0.304989,36.84447,-1.151708,-33.81476,1008.516
12.611296654,67.30375,-97.32739,-41.06594,-1.077824,-0.1846005,0.0440403,34.63041,-0.8189063,-36.42294,1008.514
12.643854141,90.06891,-99.1713,-42.77952,-1.039622,-0.3246465,0.06265204,31.31936,-0.8630223,-39.9171,1008.514
12.678915024,81.70118,-79.84,-10.58864,-0.4389122,-0.1535152,0.1690925,31.31936,-0.8630223,-39.9171,1008.514
12.711468220,60.10504,19.25525,32.37334,-0.219486,-0.03918581,0.02561189,28.02861,-1.993404,-42.51127,1008.511
12.744024754,44.96929,31.32989,54.64992,-0.6604798,0.1179589,-0.5221312,25.50714,-4.925001,-42.92813,1008.509
12.779086590,-15.5122,53.81368,53.79313,-0.5613724,0.179711,0.07230198,25.50714,-4.925001,-42.92813,1008.507
12.811643600,-88.5453,128.4623,52.81394,-0.5479192,0.1355678,-0.01394216,26.30515,-8.979677,-42.45528,1008.506
12.844200134,-143.5508,156.0019,55.38431,-0.8799891,0.09742119,-0.1645338,28.51595,-9.317644,-40.73924,1008.506
12.879261970,-158.3174,177.1772,60.58626,-0.9086372,-0.03610721,-0.1675101,28.51595,-9.317644,-40.73924,1008.504
12.911814690,-129.5226,182.1141,80.53726,-1.106709,-0.2099555,-0.3386697,33.24244,-5.925427,-36.82771,1008.502
12.944371700,-92.72916,186.0993,103.1198,-1.274452,-0.2373387,-0.3553604,38.73243,-3.660057,-29.46915,1008.5
12.979432583,-35.87779,174.1436,118.7257,-1.29997,-0.1888518,-0.4029337,38.73243,-3.660057,-29.46915,1008.497
13.011990070,1.961597,169.2662,108.6278,-1.328119,-0.1874897,-0.3559982,41.6604,-1.408049,-21.21014,1008.495
13.044547081,28.47993,173.7273,99.01948,-1.535413,-0.1671521,-0.1867893,43.51979,-1.352011,-13.82403,1008.495
13.077104092,11.99057,156.7157,92.96074,-1.621892,-0.2350615,0.1747907,43.51979,-1.352011,-13.82403,1008.495
13.112161160,-23.81841,134.8862,73.56053,-1.547651,-0.2273747,0.2995476,43.52954,-0.2181435,-6.50354,1008.493
13.144718647,-26.52562,71.47952,34.08692,-1.524209,-0.5046195,0.2010367,43.51884,1.628954,-1.673529,1008.495
13.177275658,43.36958,-15.36265,-14.2606,-1.40513,-0.4621762,0.5051299,43.51884,1.628954,-1.673529,1008.493
13.212336540,17.46652,-73.23761,-46.32909,-1.312642,-0.2875363,0.5212396,42.44113,0.5369611,-0.3876381,1008.493
13.244894028,-7.205995,-95.66193,-55.0806,-1.058195,-0.02836848,0.05172204,43.16289,0.5245433,-3.448795,1008.499
13.277451038,168.3318,-54.2037,-3.183511,-2.973211,2.291962,-1.279953,43.16289,0.5245433,-3.448795,1008.498
13.312508106,-225.4439,-69.01447,-58.01817,-1.160042,-0.2926584,0.1637987,43.47762,3.427713,-5.191436,1008.499
13.345065117,-51.75187,18.06563,-39.78075,-1.374271,-0.6521307,0.4698159,39.52452,-2.442668,-8.641432,1008.495
13.377621651,-22.71091,-11.25847,-18.17736,-1.346716,0.2516028,-1.093682,39.52452,-2.442668,-8.641432,1008.495
13.412683487,-27.69464,-15.00577,-20.99253,-0.6026513,0.03771104,-0.5577311,37.54041,7.36957,-8.259917,1008.499
13.445240021,3.930475,10.15467,-16.34138,-1.073303,-0.006830927,-0.4491965,39.05174,4.469671,-8.243783,1008.501
13.477797032,20.789,5.931523,-3.367109,-0.8755736,0.106875,-0.3060233,39.05174,4.469671,-8.243783,1008.499
13.510350227,4.853387,7.002181,-15.30099,-1.042232,0.2227146,-0.3925531,39.76358,5.932791,-7.810533,1008.501
13.545411587,-9.051819,1.29201,-17.19817,-0.8569578,0.04650902,-0.5496173,40.10733,7.390681,-7.822166,1008.501
13.577968598,-2.099216,-10.60418,-17.19817,-0.8959206,0.01895982,-0.4818439,40.10733,7.390681,-7.822166,1008.501
13.610525608,6.637683,-17.86085,-16.89218,-0.9016101,0.05897429,-0.4270898,40.47543,7.39591,-7.377283,1008.499
13.645586967,5.714771,-19.82372,-16.58618,-0.9491649,0.03950045,-0.4490929,40.82891,8.123596,-7.829766,1008.501
13.678143978,2.515344,-21.48919,-16.52498,-0.900183,0.01535406,-0.4495086,40.82891,8.123596,-7.829766,1008.501
13.710697174,11.00613,-30.41133,-14.93379,-0.9391786,-0.005001006,-0.3608401,41.17913,8.846115,-9.174393,1008.499
13.745758533,14.39014,-26.72351,-12.30222,-0.9681547,0.02265984,-0.3280039,40.4324,9.937418,-8.287704,1008.499
13.778315544,13.09807,-24.28479,-13.34261,-0.90272,0.006528068,-0.3336304,40.4324,9.937418,-8.287704,1008.499
13.810872555,7.92976,-25.65286,-16.95337,-0.9210885,0.02025241,-0.4112269,39.67916,11.01839,-9.185305,1008.498
13.845933914,1.653959,-31.4225,-16.28018,-0.9518724,-0.02264737,-0.2581379,41.90251,8.836281,-11.78948,1008.498
13.878490925,-2.899073,-36.06202,-20.01334,-0.9805874,0.04960873,-0.3048621,41.90251,8.836281,-11.78948,1008.498
13.911043167,-10.52848,-39.09555,-25.27649,-0.981483,-0.02272901,-0.2184736,42.27592,8.104294,-12.99621,1008.498
13.946105003,-8.990291,-45.22208,-23.50171,-1.055874,0.001722544,-0.2508984,42.99829,8.465649,-14.33941,1008.498
13.978662491,-10.71306,-43.02129,-24.3585,-0.9575628,-0.0785941,-0.2623695,43.34468,9.55493,-15.17686,1008.496
14.011219025,-7.08294,-41.17738,-18.36096,-0.952637,-0.1527179,-0.1938989,43.34468,9.55493,-15.17686,1008.499
14.043776035,3.007563,-42.96181,-16.83097,-0.9770777,-0.0996516,-0.1771143,43.69653,10.28003,-16.07541,1008.497
14.078836918,2.453816,-46.4117,-16.28018,-0.9752109,-0.136045,-0.1844386,43.31646,10.62865,-18.24347,1008.497
14.111390114,4.54575,-44.32987,-11.44543,-0.9939832,-0.1870511,-0.1373443,43.31646,10.62865,-18.24347,1008.499
14.143947601,23.55774,-47.30392,-10.03784,-1.007878,-0.162973,-0.1282628,43.67236,10.98736,-19.58548,1008.499
14.179008484,27.43396,-48.37457,-7.161472,-1.005607,-0.1436169,-0.1033174,42.56097,11.33327,-21.30509,1008.499
14.211565495,33.03296,-49.44523,-6.243481,-1.028598,-0.1821943,-0.1290194,42.56097,11.33327,-21.30509,1008.499
14.244122982,44.90776,-49.56419,-3.734305,-1.090881,-0.1355838,-0.08377751,41.82984,10.58522,-23.9102,1008.499
14.279183865,30.26423,-58.78374,-6.671876,-1.210478,-0.02446618,-0.06649876,41.47249,9.478598,-26.06781,1008.497
14.311737061,31.00256,-64.07755,-8.38546,-1.209399,0.02190786,-0.001503189,41.47249,9.478598,-26.06781,1008.497
14.344294071,23.37315,-70.1446,-16.15778,-1.218854,0.03547618,-0.01965538,39.64194,8.722614,-28.66935,1008.503
14.379355431,25.77272,-70.02563,-26.37808,-1.092017,-0.1158017,-0.05543876,38.92786,6.883138,-31.26663,1008.505
14.411912441,41.95444,-67.88432,-26.19448,-0.9913659,-0.1816455,-0.03672199,38.92786,6.883138,-31.26663,1008.5
14.444469452,71.6722,-68.5981,-20.07454,-0.8430024,-0.1979202,0.01267433,37.10542,5.394366,-34.75509,1008.5
14.477025986,97.26762,-70.97733,-13.83221,-0.9022868,-0.09207273,-0.02722401,34.93783,2.44549,-38.61427,1008.505
14.512084007,85.82352,-73.35657,-2.632716,-0.9068891,-0.0128322,0.06148056,34.93783,2.44549,-38.61427,1008.506
14.544641018,46.81511,-62.3526,2.81403,-0.6914148,-0.1239779,0.2171578,33.52325,-1.584726,-41.63957,1008.5
14.577197552,8.729617,-6.083626,27.04899,-0.39429,-0.07085855,0.2887378,31.7349,-5.256362,-45.11237,1008.499
14.612259388,-51.56729,55.53863,31.57775,-0.5855798,0.2878868,0.04835675,31.7349,-5.256362,-45.11237,1008.499
14.644815922,-113.8331,78.49827,23.07103,-0.6786327,0.03549338,0.02864452,30.3148,-8.611844,-46.80424,1008.5
14.677372932,-119.4321,96.10462,24.66222,-0.6551506,-0.01951612,0.008930918,32.9018,-9.677369,-45.53024,1008.505
14.712430954,-96.8515,97.59164,29.74177,-0.8528094,-0.1537462,-0.003560456,32.9018,-9.677369,-45.53024,1008.505
14.744987488,-83.6231,103.4208,36.4125,-0.9526628,-0.1711088,0.1074477,37.62442,-6.664092,-44.2288,1008.505
14.777544498,-69.90248,111.0938,43.51163,-1.093361,-0.1915449,0.03041481,41.99995,-4.803314,-42.53555,1008.505
14.812677383,-57.22782,111.1533,44.18482,-1.150116,-0.1190765,0.06976196,41.99995,-4.803314,-42.53555,1008.505
14.845233917,-74.02482,114.5437,28.27298,-1.338571,0.1387267,-0.089021,46.05125,-5.115132,-38.5951,1008.505
14.877791405,-144.4738,127.8675,11.68794,-1.151489,0.1034734,-0.03028405,50.09665,-5.063509,-34.72097,1008.506
14.910344124,-160.1017,117.2204,4.956009,-1.241695,-0.07799048,-0.1417253,50.09665,-5.063509,-34.72097,1008.506
14.945405483,-122.9391,67.01845,12.91193,-1.336686,-0.2339886,-0.0966426,52.67373,-4.653496,-29.95257,1008.506
14.977962494,-105.1577,43.52348,1.957239,-1.49712,0.07844371,0.3123818,54.49049,-2.800913,-26.46671,1008.506
15.010519505,-78.76243,-5.845702,-16.03538,-1.075648,-0.9815938,-0.07204703,54.49049,-2.800913,-26.46671,1008.508
15.045580864,79.17855,-15.12473,-5.203091,-1.138849,-0.5816334,0.2855309,53.79569,-5.355465,-26.89213,1008.506
15.078137875,21.4658,-20.35905,-3.550707,-1.070258,-0.2132112,-0.5852767,53.39615,-3.546438,-28.17849,1008.505
15.110691071,33.46365,3.492805,5.445604,-0.5738076,0.5153127,-0.2299936,53.39615,-3.546438,-28.17849,1008.506
15.145752430,-3.945039,3.909172,6.91439,-1.397392,-0.004739941,-0.1303065,52.6695,-3.541769,-26.45555,1008.506
15.178309441,22.38871,-1.146708,4.89481,-0.9549909,0.04051023,0.1628832,54.18247,-6.439085,-25.99334,1008.506
15.210866451,0.6079924,8.548686,-2.387918,-0.9229609,0.256191,-0.2524616,54.18247,-6.439085,-25.99334,1008.506
15.245927811,-15.45067,7.418547,-5.141891,-1.011925,-0.01219974,-0.2695215,53.78922,-4.620095,-25.55914,1008.506
15.278484821,0.4849375,1.767858,-4.652297,-0.9520596,-0.0261105,-0.3514822,53.06094,-4.618008,-24.28227,1008.506
15.311038017,-1.791578,-4.41816,-0.7967341,-0.979947,-0.007207485,-0.3134635,53.06094,-4.618008,-24.28227,1008.506
15.346099377,1.284795,-6.202588,-3.122311,-0.9639486,0.06584446,-0.1944205,53.78657,-4.251487,-24.73333,1008.506
15.378656387,-4.991006,-3.942312,-4.835895,-0.9636405,0.09709207,-0.1185373,53.78657,-4.251487,-24.73333,1008.506
15.411212921,-11.20528,-1.384632,-5.998683,-0.958218,0.03051107,-0.2099498,53.78657,-4.251487,-24.73333,1008.505
15.443769932,-11.14375,-1.622556,-4.162701,-0.9746069,-0.03796724,-0.2675338,53.41279,-3.892906,-25.18082,1008.505
15.478831768,-5.298644,-0.9087843,-1.16393,-0.9703338,-0.02249066,-0.2387826,53.4071,-3.529095,-25.18343,1008.505
15.511384010,-0.253392,0.5187582,0.916849,-0.9645411,0.03326925,-0.1934668,53.4071,-3.529095,-25.18343,1008.506
15.543941498,-3.083655,1.827339,0.8556497,-0.9647554,0.0517338,-0.1931849,53.40142,-3.165285,-25.18604,1008.51
15.579002381,-3.637402,3.492805,0.3660544,-0.9561953,0.02326541,-0.2139293,53.76081,-2.801041,-25.57219,1008.51
15.611559391,-2.529908,2.957477,0.7332509,-0.9629072,0.01014267,-0.2329747,53.76081,-2.801041,-25.57219,1008.51
15.644116878,-1.237831,3.076438,1.284045,-0.9666021,0.0348774,-0.2321104,53.02927,-2.804121,-25.18747,1008.51
15.679177761,-1.791578,3.492805,0.5496526,-0.9772899,0.02993575,-0.2447433,53.0309,-2.801538,-24.74139,1008.51
15.711730957,-1.668523,2.243705,-0.001141913,-0.9621871,0.02583852,-0.2622219,53.0309,-2.801538,-24.74139,1008.509
15.744287968,-0.9917214,2.660072,-0.06234131,-0.9821399,0.02841013,-0.2437951,53.04063,-3.531742,-25.18224,1008.507
15.779349327,-0.9917214,2.422148,-1.592326,-0.9570471,0.04770616,-0.2469086,53.39333,-2.432497,-24.29912,1008.511
15.812029362,-1.914633,1.173048,-3.061112,-0.9719546,0.03527587,-0.2282322,53.39333,-2.432497,-24.29912,1008.511
15.844586372,-1.360886,0.756682,-2.020722,-0.9565477,0.003037676,-0.2553246,53.03416,-2.796371,-23.84925,1008.511
15.877143383,1.407849,0.5782391,-1.22513,-0.9577997,0.03206964,-0.2307116,53.0358,-2.793788,-23.40318,1008.513
15.912200451,2.146179,1.173048,-1.347529,-0.9670793,0.0334265,-0.2350323,53.0358,-2.793788,-23.40318,1008.513
15.944757938,3.992002,2.303186,-1.531127,-0.9573735,0.03741879,-0.230147,53.38927,-2.066103,-23.85566,1008.515
15.977314949,5.407134,2.065263,-1.22513,-0.9605767,0.0170233,-0.2430229,53.02117,-2.071333,-24.30054,1008.515
16.012375832,9.898639,3.076438,-0.1235407,-0.9620284,0.02079263,-0.221212,53.02117,-2.071333,-24.30054,1008.515
16.044933319,9.529473,3.849691,0.4272538,-0.9660104,0.02422891,-0.2400075,53.04716,-3.52141,-23.39796,1008.515
16.077489376,5.037969,4.741905,-0.2459395,-0.9549921,-0.008055452,-0.2695133,53.0228,-2.06875,-23.85447,1008.513
16.112547398,3.868948,2.838515,1.773641,-0.9619616,0.007829119,-0.2557296,53.4039,-2.788558,-22.9583,1008.513
16.145104408,2.515344,3.849691,1.528843,-0.9597524,0.02729723,-0.2554348,53.4039,-2.788558,-22.9583,1008.515
16.177660942,0.1157728,4.4445,2.018438,-0.9678181,0.05480675,-0.2361556,53.03906,-2.788622,-22.51104,1008.515
16.212722778,0.3618826,5.158271,-0.1847401,-0.9563762,0.03215682,-0.2456964,52.67337,-3.162829,-23.84545,1008.517
16.245279312,-1.853106,5.336714,-1.469927,-0.9527485,0.006118207,-0.2804168,52.67337,-3.162829,-23.84545,1008.517
16.277836323,0.1157728,3.373843,-1.286329,-0.9510603,-0.02138815,-0.3185415,53.39822,-2.424748,-22.96091,1008.517
16.312894344,1.900069,1.23253,-1.22513,-0.9508147,0.003790978,-0.2973724,53.4039,-2.788558,-22.9583,1008.519
16.345450878,3.192146,0.697201,-1.714725,-0.9641876,0.02923866,-0.2674853,53.4039,-2.788558,-22.9583,1008.519
16.378007889,-0.00728213,0.756682,-2.571517,-0.9647479,0.03840305,-0.2538104,53.39962,-2.422534,-22.57856,1008.519
16.410564900,-1.299359,0.2213535,-3.489507,-0.9572998,0.02254022,-0.2709778,53.03743,-2.791205,-22.95711,1008.519
16.445626259,-3.022128,-0.01657022,-2.693915,-0.9579344,-0.006629233,-0.2709388,53.03743,-2.791205,-22.95711,1008.519
16.478183270,-0.4995018,-0.1355321,-1.592326,-0.9584723,-0.004164279,-0.2800848,52.66667,-2.427827,-22.57618,1008.519
16.510736466,-0.4995018,-0.01657022,-1.653526,-0.9552917,0.01960181,-0.2603903,53.39985,-2.422165,-22.51484,1008.519
16.545797348,-0.8071391,0.3403154,-1.531127,-0.9565637,0.001164364,-0.2708212,53.39985,-2.422165,-22.51484,1008.519
16.578354836,-0.6225567,0.3403154,-1.041532,-0.954226,0.009458766,-0.2711803,53.39962,-2.422534,-22.57856,1008.519
16.610911846,0.3618826,0.8161629,-0.1847401,-0.9570261,0.0001620217,-0.2655189,53.76469,-2.422101,-22.9621,1008.517
16.645973205,1.100212,0.8161629,0.1212569,-0.9528155,0.01432592,-0.2686905,53.76469,-2.422101,-22.9621,1008.517
16.678530216,0.6695199,0.4592772,0.4884532,-0.9521594,-0.001671965,-0.2757025,53.75798,-1.687099,-21.69283,1008.517
16.711083412,1.715487,-0.07605116,1.100447,-0.9565886,0.003112397,-0.2717582,53.38988,-1.692329,-22.13771,1008.517
16.746144295,1.653959,-0.07605116,0.8556497,-0.9600463,0.007913856,-0.2687814,53.38988,-1.692329,-22.13771,1008.517
16.778701782,3.376728,0.3403154,1.590042,-0.9537271,0.0108701,-0.2595582,53.76366,-2.05091,-21.69022,1008.517
16.811258793,3.622838,1.351491,1.651242,-0.9561339,0.005079963,-0.2755957,53.39557,-2.05614,-22.1351,1008.517
16.843815327,5.899354,0.8161629,1.712441,-0.9562594,0.01387028,-0.285129,53.39557,-2.05614,-22.1351,1008.517
16.878877163,2.638399,-0.1355321,1.222846,-0.9595062,0.0006887052,-0.2814599,52.65694,-1.697623,-22.13533,1008.517
16.911429405,4.79186,-1.027746,1.100447,-0.9609986,0.006434636,-0.2668695,53.04046,-2.786408,-22.12869,1008.515
16.943986416,3.745893,-1.027746,-0.4907371,-0.9526451,0.0420203,-0.2663347,53.04046,-2.786408,-22.12869,1008.515
16.979048252,0.9156297,-1.860479,-1.714725,-0.9693478,0.01359115,-0.2614351,53.41098,-3.150156,-22.57334,1008.515
17.011604786,1.284795,-1.682037,-2.143121,-0.9743079,0.01797336,-0.2773149,53.4053,-2.786345,-22.57595,1008.515
17.044162273,1.100212,-2.752694,-2.265519,-0.9595235,0.01213515,-0.2339143,53.4053,-2.786345,-22.57595,1008.515
17.079223633,1.284795,-2.931136,-2.632716,-0.9501673,-0.003629761,-0.2670335,53.77745,-3.147509,-22.57453,1008.515
17.111776352,0.3618826,-3.347503,-1.286329,-0.9530185,-0.01045521,-0.2705185,53.41098,-3.150156,-22.57334,1008.514
17.144333363,0.6695199,-1.741517,0.6108521,-0.9553729,-0.01539,-0.260924,53.41098,-3.150156,-22.57334,1008.515
17.179394722,0.8541023,-0.9682652,0.7332509,-0.9560752,0.003070398,-0.2611251,53.40227,-2.791142,-23.40437,1008.515
17.211951733,-0.8686665,-0.7898225,0.7332509,-0.9604996,0.007845969,-0.2552474,53.39822,-2.424748,-22.96091,1008.515
17.244508743,-1.422414,-0.9682652,0.916849,-0.9604117,-0.004205063,-0.2767,53.39822,-2.424748,-22.96091,1008.515
17.277066231,-2.099216,-1.860479,0.4272538,-0.9683677,0.006458064,-0.2929644,53.78313,-3.511319,-22.57191,1008.515
17.312123299,-7.267522,-3.82335,0.7332509,-0.9545243,-0.0004042188,-0.2408778,53.41098,-3.150156,-22.57334,1008.514
17.344680309,0.05424532,-2.633732,2.569233,-0.9554584,-0.004770323,-0.2452939,53.41098,-3.150156,-22.57334,1008.514
17.377237320,-2.591435,-1.682037,1.222846,-0.9676706,0.03884207,-0.2518674,53.41526,-3.51618,-22.95307,1008.514
17.412298679,-3.022128,-2.51477,1.039248,-0.9661849,-0.008689604,-0.2690288,53.7801,-3.516116,-23.40033,1008.514
17.444855690,-0.8071391,-4.180236,0.9780485,-0.9640301,0.01515829,-0.2701171,53.7801,-3.516116,-23.40033,1008.518
17.477412701,-1.483941,-6.262069,0.4884532,-0.9733511,0.02515163,-0.2501372,53.77847,-3.518699,-23.84641,1008.516
17.512470245,-2.899073,-9.53352,-2.816314,-0.9779206,0.03542384,-0.2775286,53.41363,-3.518763,-23.39915,1008.516
17.545027256,0.9771572,-14.70836,-3.734305,-0.9948074,0.02112342,-0.2806307,53.41363,-3.518763,-23.39915,1008.516
17.577584267,9.591002,-26.54507,-10.28264,-1.06713,0.03301508,-0.3238834,53.43146,-4.981755,-24.72692,1008.516
17.612645626,-0.4379743,-28.03209,-10.71104,-0.9860445,0.04740011,-0.1564938,53.7963,-4.981691,-25.17418,1008.515
17.645202637,-7.205995,-19.5858,-8.446659,-0.9788164,-0.03120605,-0.1639839,53.7963,-4.981691,-25.17418,1008.515
17.677759170,-2.46838,-6.202588,0.916849,-0.9516048,-0.1309336,-0.06595605,54.15811,-4.986424,-26.44986,1008.515
17.712816715,1.284795,11.34429,10.58635,-1.020664,-0.1049391,-0.1017461,54.13944,-3.897575,-26.90376,1008.516
17.745374203,-15.69678,15.15107,19.27667,-0.988249,-0.08986166,-0.1179822,54.13944,-3.897575,-26.90376,1008.516
17.777930260,27.12633,25.79816,26.3758,-0.8935933,-0.2310159,-0.1211938,55.24858,-4.61984,-27.34818,1008.516
17.810487747,47.36886,20.14747,28.82377,-1.176118,-0.1946258,-0.1691869,54.87075,-3.894865,-27.35221,1008.518
17.845549583,42.38514,11.22533,25.39661,-1.115213,-0.171546,-0.04756604,54.87075,-3.894865,-27.35221,1008.518
17.878106117,46.19984,-4.41816,22.27544,-1.116212,-0.238939,0.02004626,55.61341,-4.619776,-27.79544,1008.52
17.910658836,57.82853,-20.53749,5.139607,-1.077405,-0.3222312,-0.04168404,55.63046,-5.711208,-27.78761,1008.52
17.945720196,74.68704,-31.30354,-4.468698,-0.9804095,-0.2898038,-0.0543341,55.63046,-5.711208,-27.78761,1008.522
17.978277206,95.29874,-41.4153,-3.611906,-1.047333,-0.3026524,-0.1985118,56.3954,-7.954211,-28.6023,1008.522
18.010834694,130.0618,-44.62727,-1.469927,-0.9998635,-0.2906322,-0.2471953,56.39051,-7.96196,-29.94052,1008.522
18.045895576,165.6246,-50.63485,3.732021,-1.011897,-0.1946633,-0.3303105,56.39051,-7.96196,-29.94052,1008.522
18.078452587,189.6203,-57.29671,7.709982,-0.9862249,-0.1437199,-0.3440594,55.2905,-8.343675,-31.6549,1008.526
18.111005783,209.1861,-57.71308,14.68671,-0.9437006,-0.1116495,-0.3276597,55.69449,-11.26406,-33.80184,1008.526
18.146067143,218.2921,-52.53824,20.74545,-0.9217129,-0.03551411,-0.3342534,54.28053,-14.9205,-35.10918,1008.522
18.178624153,217.7384,-47.06599,23.25463,-0.8947905,-0.04636056,-0.3300945,54.28053,-14.9205,-35.10918,1008.52
18.211181164,219.4612,-40.64205,25.15181,-0.9009474,-0.0662599,-0.3535942,52.88789,-20.0344,-36.78844,1008.524
18.243738651,224.0142,-28.86483,24.41742,-0.8852152,-0.1257266,-0.3772354,52.88789,-20.0344,-36.78844,1008.524
18.278799534,245.0566,-20.18061,18.11388,-0.9105132,-0.1921536,-0.4836005,50.77024,-25.14105,-36.29868,1008.524
18.311352730,278.1584,-17.86085,18.29748,-0.8723317,-0.2461876,-0.4622264,49.04318,-31.69808,-35.41732,1008.524
18.343909741,312.2446,-14.11355,18.60348,-0.9504344,-0.1613544,-0.530463,49.04318,-31.69808,-35.41732,1008.522
18.378971100,338.2092,-16.61175,13.21793,-0.9449225,-0.125002,-0.4931771,47.30317,-36.78437,-31.86996,1008.524
18.411528111,374.2643,-22.44089,3.85442,-0.7713843,-0.04376514,-0.4394172,45.94712,-41.84034,-23.54446,1008.524
18.444084644,367.5578,-32.85005,-8.079463,-0.9696963,0.09925111,-0.3949901,44.94311,-45.05247,-11.40973,1008.524
18.479146481,298.2163,-43.43766,-31.33523,-1.052142,0.09571225,-0.0691685,44.94311,-45.05247,-11.40973,1008.524
18.511699677,206.4789,30.973,-26.56168,-0.6504428,0.4305814,-0.3061357,44.92451,-41.35384,-0.9850111,1008.524
18.544256210,92.83765,48.87676,-23.74651,-0.6181003,0.448114,-0.5403372,45.92354,-32.93028,7.235559,1008.522
18.579318047,92.09932,34.42289,19.58267,-1.740505,1.004329,-0.8101599,45.92354,-32.93028,7.235559,1008.522
18.611875057,-4.744896,-29.876,-5.32549,-1.282118,0.8331947,0.6132318,46.97612,-28.15,14.5901,1008.521
18.644431591,-184.0974,54.88434,-64.07691,-0.8614221,0.3754475,-0.01094663,46.54698,-23.4054,17.61612,1008.521
18.679493427,-135.6753,31.74625,-37.08798,-0.7923846,-0.4813535,-0.3551981,46.54698,-23.4054,17.61612,1008.521
18.712045669,18.45096,30.08078,-25.94969,-0.9631617,-0.8568612,-0.8813589,47.25211,-23.07135,11.5573,1008.519
18.744603157,76.47134,1.589415,-0.7355347,-0.9324798,0.01295734,-0.1242013,47.31865,-27.43966,11.14256,1008.517
18.777160168,23.9269,5.6936,-7.283871,-1.107094,0.1903491,0.01643593,47.31865,-27.43966,11.14256,1008.517
18.812221050,-1.114776,15.92432,-24.7257,-1.018024,0.1260079,-0.1136933,47.28439,-24.51146,14.18045,1008.517
18.844778538,-3.883512,5.574638,-24.8481,-0.965853,-0.1556181,-0.2350174,46.90795,-23.78427,14.55877,1008.515
18.877335548,12.17515,-5.786222,-16.95337,-0.9817752,-0.1679863,-0.2327738,46.90795,-23.78427,14.55877,1008.515
18.912392616,13.65181,-10.06885,-12.30222,-0.9693989,-0.1539294,-0.0832079,47.272,-23.41265,15.44711,1008.518
18.944949627,20.72747,-1.741517,-9.242251,-0.98118,-0.04605635,-0.005660612,47.24197,-21.59618,14.98798,1008.518
18.977507114,14.57473,3.79021,-11.13943,-0.9876206,-0.05449847,-0.09085751,47.24197,-21.59618,14.98798,1008.518
19.012567997,5.407134,5.455676,-10.77224,-0.9799761,-0.1367746,-0.1448082,47.21277,-19.40556,16.31053,1008.516
19.045125008,4.484222,2.660072,-8.691457,-0.9806624,-0.1691784,-0.1815552,46.83392,-18.3094,17.57838,1008.514
19.077682495,13.03654,-0.195013,-6.610677,-0.9818727,-0.1497349,-0.1856078,46.83392,-18.3094,17.57838,1008.513
19.112743378,18.82012,-7.392207,-9.731847,-1.021535,-0.04960502,-0.1946761,48.2868,-17.57377,17.12233,1008.511
19.145296574,10.51391,-12.15068,-16.83097,-1.013219,-0.07757165,-0.1134202,48.65491,-17.56854,17.56721,1008.511
19.177853584,11.92904,-15.12473,-18.85056,-1.000939,-0.1384306,-0.1612481,48.65491,-17.56854,17.56721,1008.511
19.210411072,17.40499,-16.61175,-21.66573,-1.00343,-0.2152971,-0.1517841,50.09075,-15.74149,17.10333,1008.511
19.245471954,36.78614,-8.581824,-33.35481,-0.8578391,-0.59391,-0.3728035,50.44018,-14.64741,17.09431,1008.511
19.278028965,84.03922,-10.8421,-14.383,-1.00536,-0.3787987,-0.3258754,50.44018,-14.64741,17.09431,1008.511
19.310629845,101.6361,-17.0876,-17.19817,-1.133901,-0.131554,-0.1310454,52.24413,-12.81512,17.07531,1008.511
19.345686913,93.3914,-26.1287,-22.76732,-1.167955,0.06177083,0.008249134,51.83546,-9.902113,17.94775,1008.511
19.378243923,71.54915,-38.85762,-31.51883,-1.333479,0.1355297,-0.01318452,51.83546,-9.902113,17.94775,1008.515
19.410800934,43.55416,-57.83204,-43.57512,-1.496111,0.08208517,-0.05541333,52.85439,-4.740188,17.90719,1008.515
19.445862293,33.09449,-61.28194,-60.40495,-1.329284,-0.1315059,-0.1671094,53.87934,-0.3764815,16.15173,1008.517
19.478419304,61.88934,-69.37135,-59.97655,-1.21495,-0.1345915,-0.2291391,53.87934,-0.3764815,16.15173,1008.517
19.510976315,87.11559,-67.76537,-63.22012,-1.126132,-0.1585229,-0.2692268,54.93185,1.794029,12.62765,1008.517
19.546033859,149.0122,-73.23761,-58.38537,-1.115398,-0.03022768,-0.4480628,55.59214,5.412337,8.265888,1008.515
19.578590870,178.2378,-102.9781,-65.2397,-0.9385821,-0.00656597,-0.1235266,55.59214,5.412337,8.265888,1008.513
19.611147881,109.6346,-64.43443,-57.16138,-0.7307925,-0.0947026,0.1862229,55.53489,7.931336,3.468267,1008.513
19.643704891,87.23865,18.95785,-8.32426,-0.5439867,-0.1528124,-0.1773766,54.00282,10.7984,-2.219353,1008.512
19.678766251,157.9337,23.41892,21.90824,-0.7207822,0.1916433,-0.333882,54.00282,10.7984,-2.219353,1008.512
19.711323261,113.2032,51.256,19.46027,-0.5364025,0.2533957,0.0787192,52.49796,12.96292,-3.56848,1008.51
19.743876457,22.5733,116.804,20.92905,-0.5531085,0.3156479,-0.08417968,50.72242,9.311583,-3.536426,1008.508
19.778937817,-21.54189,152.8495,31.94494,-0.6730704,0.1633803,-0.07575266,50.72242,9.311583,-3.536426,1008.506
19.811550140,-18.09635,186.8131,43.20563,-0.6561891,0.08030137,-0.1403588,48.55853,7.48698,-1.731949,1008.505
19.844106674,7.622122,203.5867,71.60215,-0.796787,0.01074912,-0.2108905,45.33131,3.847561,2.19206,1008.505
19.879168510,61.39712,214.1743,99.69267,-0.9945421,0.07094279,-0.3335257,45.33131,3.847561,2.19206,1008.505
19.911725521,94.92958,211.3192,109.5458,-1.242029,0.1938064,-0.3797501,42.13274,-1.610543,6.192848,1008.503
19.944278240,108.3426,202.3971,107.4038,-1.485402,0.2032917,-0.2783447,38.12775,-1.970996,11.8163,1008.505
19.979339600,69.76485,215.126,98.52988,-1.849416,0.1198306,0.03589501,38.12775,-1.970996,11.8163,1008.505
20.011897087,25.89578,204.5979,86.7796,-1.93093,-0.03749457,0.4091573,35.93649,-0.4836636,20.09718,1008.505
20.044453621,16.11291,115.6144,89.22758,-1.842156,-0.139654,0.5766949,30.40155,3.890334,28.36787,1008.505
20.079515457,11.92904,2.660072,-0.1235407,-1.533301,-0.6930419,0.566504,30.40155,3.890334,28.36787,1008.505
20.112071514,89.39211,-116.8371,-37.57757,-1.493123,-0.1196327,0.8067509,22.7047,4.951646,32.78199,1008.505
20.144624710,-53.96686,-135.0383,-64.44411,-1.469939,0.2432437,0.06254716,22.69739,5.312873,32.33331,1008.506
20.177182198,329.5338,-113.2683,-24.7257,-3.43288,2.896064,-2.16019,22.69739,5.312873,32.33331,1008.505
20.212243080,-337.2393,-106.0711,-72.21643,-1.361039,-0.2694363,-0.06670716,27.76566,8.606512,29.23439,1008.505
20.277357578,-34.52419,-28.56742,-26.25568,-1.069189,0.4480447,-1.384846,28.84821,8.960552,26.16943,1008.506
20.312418461,-38.21584,-65.50509,-44.4319,-0.8303807,-0.2785935,-0.589406,28.0836,10.76915,25.26661,1008.514
20.344971657,-17.72719,-72.3454,-36.53718,-1.110498,-0.04723138,-0.1172138,29.52209,12.22759,23.97692,1008.51
20.377528668,-20.80356,-53.01409,-32.06963,-0.9439389,-0.06745795,-0.2143585,29.52209,12.22759,23.97692,1008.51
20.412590027,-14.58929,-46.94703,-25.15409,-0.9295247,-0.09301601,-0.2171792,31.3536,11.86669,22.1893,1008.51
20.445147038,-6.898357,-40.93946,-21.91053,-1.009629,-0.1135287,-0.2111309,33.16425,12.96397,20.90103,1008.512
20.477704525,3.684365,-33.08797,-17.19817,-1.016039,-0.15574,-0.2451217,33.87954,13.68692,19.17287,1008.513
20.512765408,24.54217,-31.48199,-15.11739,-1.027314,-0.1505169,-0.2503483,33.87954,13.68692,19.17287,1008.513
20.545318604,35.49406,-31.54147,-15.17859,-0.9970361,-0.1070577,-0.2086275,32.76146,14.76783,18.72253,1008.513
20.577875614,27.55702,-26.54507,-16.34138,-0.955958,-0.1486419,-0.1382452,33.43921,18.41382,19.14011,1008.513
20.610433102,30.38728,-23.57102,-18.66696,-0.984497,-0.1622065,-0.1229565,33.43921,18.41382,19.14011,1008.513
20.645493984,30.2027,-33.56382,-22.15532,-1.003281,-0.004675243,-0.08379839,37.86443,16.25238,17.35723,1008.513
20.678050995,12.66737,-37.668,-28.94846,-1.100616,-0.01412873,-0.1007669,39.31429,16.98321,16.07276,1008.513
20.710608482,4.238112,-46.59015,-33.29361,-1.096442,-0.1276703,-0.1295722,39.31429,16.98321,16.07276,1008.513
20.745665550,10.88308,-48.73146,-36.04759,-1.121236,-0.2715368,-0.1989325,40.75986,18.08006,15.16803,1008.513
20.778222561,27.43396,-57.6536,-35.0072,-1.130176,-0.1910078,-0.0855519,41.82863,19.5307,12.98738,1008.513
20.810863495,25.58814,-63.78014,-35.92519,-1.161865,-0.1509805,-0.1076294,41.82863,19.5307,12.98738,1008.512
20.845925331,32.2331,-75.37892,-40.82114,-1.199671,-0.13045,-0.1348321,42.5366,20.61488,10.81053,1008.512
20.878482819,42.50819,-95.24556,-51.65343,-1.51602,-0.04087257,-0.2192012,43.2389,22.06287,8.631077,1008.51
20.911039352,50.50676,-113.9821,-57.65097,-1.620894,0.07867505,-0.5150362,43.2389,22.06287,8.631077,1008.51
20.946096897,124.6473,-123.7964,-61.38414,-1.477023,0.397771,-0.9071593,44.67166,23.13943,4.221493,1008.51
20.978653908,131.5999,-124.6886,-78.94836,-1.123582,0.3983586,-0.5599435,45.72682,24.94134,-0.1283989,1008.508
21.011210442,117.3256,-125.2239,-38.55676,-0.8043641,-0.2053382,0.04442674,45.72682,24.94134,-0.1283989,1008.508
21.043767929,-16.68122,-57.83204,0.2436557,-0.2825729,-0.5095888,0.4694867,43.11806,26.34521,-5.802008,1008.506
21.078828812,73.4565,61.42724,47.79559,-0.4997189,0.02312491,-0.1573336,39.77619,28.48912,-8.419683,1008.506
21.111385822,108.0965,33.7686,64.19702,-0.4561738,-0.05510854,-0.2489606,39.77619,28.48912,-8.419683,1008.505
21.143939018,66.25778,72.96654,65.11501,-0.5438263,0.2121962,0.03314376,39.05866,27.38981,-8.855545,1008.503
21.179000378,-49.3523,137.206,66.951,-0.6745501,0.1263533,-0.0603647,40.92347,25.2176,-9.291893,1008.501
21.211557388,-63.81126,164.4482,74.66212,-0.6670965,-0.02585369,-0.1269831,40.92347,25.2176,-9.291893,1008.501
21.244114399,-53.53617,196.33,80.47607,-0.7144561,-0.1103117,-0.1794639,42.80599,23.07343,-4.885176,1008.501
21.279175758,-38.40042,231.9591,94.36832,-0.8977265,-0.07628062,-0.2788268,44.33136,20.94137,2.071713,1008.5
21.311732769,-7.636687,253.3127,102.8138,-1.034578,-0.004418401,-0.3351202,44.33136,20.94137,2.071713,1008.498
21.344285965,2.453816,270.0269,100.9167,-1.507762,0.06468989,-0.3229748,42.57698,18.44198,12.54676,1008.496
21.379347324,-39.44638,237.0745,102.0182,-2.142345,-0.1114445,0.03603296,37.13192,17.36619,22.13111,1008.498
21.411904335,-84.11532,182.471,99.75388,-2.301788,-0.3371769,0.4793832,37.13192,17.36619,22.13111,1008.498
21.444461346,-144.7199,134.3509,53.60953,-1.691711,-1.179284,0.5892079,27.99904,17.34578,30.06268,1008.498
21.479522705,43.24652,-38.38177,-37.14918,-1.518863,-1.093292,0.9823716,19.27011,13.65928,32.73002,1008.5
21.512079716,50.19912,-150.5628,-100.9189,-2.207681,-0.2122702,0.3226504,19.27011,13.65928,32.73002,1008.5
21.544632912,162.1791,-120.4655,27.96698,-5.078021,4.475175,-2.607736,15.28922,9.981728,30.98492,1008.493
21.577189922,-343.3305,-127.7221,-201.6531,-0.7338101,-0.999972,-0.179967,19.60769,13.61617,24.82699,1008.493
21.612251282,15.12847,7.478028,-40.20915,-1.516546,-0.5479857,0.1409123,19.60769,13.61617,24.82699,1008.5
21.644808292,88.77683,-103.216,-67.87128,-0.9322211,0.07127024,-2.138027,21.04377,15.4436,24.42683,1008.501
21.677365303,-53.65923,-61.04402,-46.02309,-0.6086248,-0.272678,-0.29467,21.7694,15.81012,23.97577,1008.503
21.712426662,-1.730051,-38.26281,-30.23364,-1.265685,0.09388506,-0.1719495,21.7694,15.81012,23.97577,1008.509
21.744979858,6.145463,-37.07319,-37.39397,-0.9526891,0.05636902,-0.2158445,24.31276,16.91233,22.6214,1008.509
21.777536392,11.25224,-36.4189,-37.69997,-1.080777,-0.0269552,-0.2150586,25.76262,17.64316,21.33693,1008.509
21.812597752,9.775583,-29.81652,-30.41724,-0.9344246,-0.156645,-0.1335543,25.76262,17.64316,21.33693,1008.505
21.845155239,20.66595,-31.77939,-24.8481,-0.9514931,-0.1012297,-0.07807078,27.21224,18.37362,19.98874,1008.505
21.877711773,15.25153,-37.07319,-26.25568,-1.056078,0.008809464,-0.1009433,28.67081,18.74543,19.5353,1008.505
21.912773609,-14.40471,-39.27399,-25.21529,-1.079958,-0.0299344,-0.09281052,28.67081,18.74543,19.5353,1008.505
21.945326328,-23.14161,-36.59735,-21.72693,-0.8745185,-0.1891231,-0.08770342,27.92651,19.46776,19.53246,1008.505
21.977882862,3.130618,-32.01731,-15.54579,-0.9339297,-0.23264,-0.09362713,29.36501,20.92621,18.24277,1008.505
22.010440350,18.14332,-32.90953,-18.11616,-1.024342,-0.07405239,-0.06453467,29.36501,20.92621,18.24277,1008.505
22.045501232,10.32933,-37.31112,-24.1137,-1.062219,-0.0875815,-0.08355621,30.83168,20.56524,16.90241,1008.505
22.078058243,12.91348,-40.87997,-28.94846,-1.00568,-0.2175691,-0.08656067,31.54696,21.28819,15.17424,1008.506
22.110615730,32.84838,-39.33347,-28.52006,-0.9061977,-0.3177339,-0.1118703,31.54696,21.28819,15.17424,1008.506
22.145672798,59.79741,-37.13268,-23.56291,-0.9387574,-0.356748,-0.06941356,32.25252,22.74135,13.88693,1008.509
22.178229809,64.41196,-37.96541,-19.21775,-0.9727173,-0.2130033,0.0715414,32.59706,23.82768,12.53969,1008.511
22.210786820,54.50604,-37.01371,-15.30099,-1.019728,-0.1290031,0.1676102,32.59706,23.82768,12.53969,1008.509
22.245848179,43.12346,-50.99173,-17.01457,-1.185136,0.1516354,0.1822022,33.6715,24.91451,10.36166,1008.509
22.278405190,7.314485,-64.61287,-22.09412,-1.239653,0.1119418,0.204368,34.37785,25.9961,7.738739,1008.507
22.310962200,9.898639,-79.89948,-27.17367,-1.560519,0.05443215,-0.03740473,34.37785,25.9961,7.738739,1008.507
22.346019745,38.20127,-104.4651,-30.84564,-1.537877,0.2470479,-0.2186545,35.45393,27.08551,6.006777,1008.507
22.378576756,62.81225,-103.6918,-19.64615,-1.050077,0.3595756,-0.1598868,36.17303,27.4417,3.771429,1008.505
22.411133766,50.01454,-95.95933,-5.570287,-0.5625078,0.2308284,0.05036424,36.17303,27.4417,3.771429,1008.505
22.446195126,-113.6485,-62.88792,41.73685,-0.247598,-0.2628866,0.6114625,36.87145,28.51075,-1.018125,1008.504
22.478752136,-109.8338,81.05595,78.82368,-0.3423388,0.1541984,-0.1008642,36.48569,29.22318,-3.188792,1008.504
22.511309147,-129.0303,45.60531,101.0391,-0.6747029,-0.05298229,-0.3801957,36.48569,29.22318,-3.188792,1008.504
22.543862343,-120.0474,39.18137,116.4001,-0.8148478,-0.01265515,-0.1396903,37.61575,27.78842,-1.01528,1008.504
22.578923702,-179.729,56.66877,125.8248,-0.969485,-0.2164973,-0.2175744,39.14069,24.53726,1.170101,1008.498
22.611480713,-184.2205,61.84361,120.6229,-1.088392,-0.3052791,-0.2724689,41.05241,20.20248,4.254269,1008.498
22.644037723,-185.6971,60.35658,104.9558,-1.221558,-0.3184278,-0.221303,41.05241,20.20248,4.254269,1008.498
22.679099083,-233.4425,43.28555,73.49933,-1.486583,-0.5073353,-0.1601235,41.87848,14.76315,6.457695,1008.498
22.711656094,-256.3307,48.81728,78.15049,-1.281717,-0.4179597,-0.2024617,42.33344,9.313805,7.387815,1008.502
22.744208813,-263.5909,32.16262,44.36842,-1.152503,-0.3957241,-0.2326999,42.33344,9.313805,7.387815,1008.5
22.779270172,-294.8468,35.85044,31.21055,-1.075495,-0.3051255,-0.3754383,41.70034,3.128896,8.326727,1008.502
22.811827660,-300.5074,35.25563,24.29502,-0.911971,-0.2952196,-0.3749616,41.04935,-2.338725,7.476128,1008.502
22.844384193,-289.8631,40.37099,27.78338,-0.956629,-0.3654448,-0.4499466,41.04935,-2.338725,7.476128,1008.502
22.879446030,-264.2677,37.2185,30.47616,-0.9583134,-0.3450798,-0.4443171,40.41333,-8.963209,5.805378,1008.5
22.912003040,-245.4403,44.7131,32.18974,-0.9553292,-0.3527657,-0.4555549,39.38795,-14.44602,2.789331,1008.502
22.944555283,-240.4566,63.44959,26.437,-0.858301,-0.2989954,-0.3528357,39.38795,-14.44602,2.789331,1008.502
22.977112770,-223.9672,71.47952,15.05391,-0.9079875,-0.1836715,-0.2060153,38.34879,-18.83224,0.6575956,1008.502
23.012174606,-280.8801,71.53899,-2.571517,-1.089321,-0.1728437,-0.2211431,36.57669,-23.22375,-1.471762,1008.5
23.044730663,-282.6029,27.5231,-17.01457,-1.428283,-0.7043832,-0.1602858,36.57669,-23.22375,-1.471762,1008.498
23.077288151,-285.9254,-35.1698,-125.0315,-1.771523,-2.373817,-0.2956339,35.14913,-26.52892,-4.948358,1008.498
23.112349033,166.6091,13.30716,10.76995,-0.9066103,-0.731912,-1.260408,35.14949,-28.01959,-11.05547,1008.5
23.144902229,124.955,-47.30392,-18.11616,-0.6822316,0.8356727,-0.02440005,35.14949,-28.01959,-11.05547,1008.5
23.177459240,-44.24553,-39.92828,-15.60699,-1.127027,0.338311,0.3377413,36.62189,-27.99867,-9.275939,1008.5
23.212520599,-57.53545,-1.682037,-10.46624,-0.9300616,0.212721,0.6232443,37.35623,-27.99117,-8.895969,1008.501
23.245077610,-14.22013,9.143496,-24.9093,-1.040641,0.2277826,-0.115019,37.35623,-27.99117,-8.895969,1008.5
23.277635098,-22.21869,-4.894007,-26.31688,-0.9611218,-0.2996662,-0.1806645,35.84187,-25.09606,-9.740522,1008.501
23.312695980,3.192146,-8.700787,-17.93256,-1.015408,-0.03577787,-0.01272142,36.9437,-25.4571,-10.63362,1008.501
23.345249176,-14.09707,-12.0912,-12.30222,-1.004184,-0.08603647,-0.04346838,36.9437,-25.4571,-10.63362,1008.501
23.377806187,-16.189,-18.57463,-9.915444,-0.987397,-0.1427838,-0.02114825,37.65229,-23.99915,-11.09251,1008.501
23.412867546,-1.730051,-16.43331,-7.957064,-0.9801527,-0.03044599,0.09076854,38.01712,-23.99908,-11.53978,1008.501
23.445424557,-12.43583,-14.8868,-10.40504,-1.003026,-0.003714188,0.0254592,38.01712,-23.99908,-11.53978,1008.501
23.477981567,-22.64939,-12.26964,-9.425849,-0.9691985,-0.1851546,0.04972753,38.02001,-24.36732,-12.30186,1008.507
23.510539055,-5.052534,-7.987016,-8.079463,-0.9911476,-0.04571015,0.1026307,37.64054,-23.64493,-12.75196,1008.507
23.545596123,-16.92733,-5.310374,-14.7502,-1.024318,-0.01850492,0.0107528,37.64054,-23.64493,-12.75196,1008.509
23.578153134,-8.805709,-3.644908,-21.91053,-0.9735386,-0.05228429,0.1025134,38.02243,-24.7363,-13.19139,1008.505
23.610710144,-11.57444,2.481629,-25.03169,-1.001569,-0.05874721,0.1604471,36.92707,-25.11063,-13.63129,1008.506
23.645771503,-169.2078,44.05881,-205.7535,-1.150818,2.717638,0.7404637,36.92707,-25.11063,-13.63129,1008.512
23.678328514,-248.209,-46.70911,5.996398,-1.015262,-0.6331128,-0.00781679,34.79135,-28.75466,-11.87748,1008.512
23.710885525,-147.7962,-22.084,-23.31811,-1.009741,-0.02544772,-0.2358894,31.98722,-37.14827,-12.63633,1008.512
23.745943069,-159.1173,-10.30677,-0.2459395,-0.7266641,-0.5151297,-0.3277409,31.98722,-37.14827,-12.63633,1008.512
23.778500080,-110.9413,-17.68241,1.284045,-0.8153727,-0.2681384,-0.1764572,32.99102,-32.07244,-17.07345,1008.512
23.811056614,-116.1711,-14.94629,1.467644,-0.9460759,-0.2965253,-0.186915,37.64193,-25.50679,-20.13096,1008.512
23.846118450,-89.28363,-23.51154,2.385635,-1.09799,-0.3284924,-0.3250185,37.64193,-25.50679,-20.13096,1008.506
23.878675461,-88.85294,-20.8349,5.874,-0.6815107,-0.2700546,-0.01371764,40.87701,-22.60053,-25.00561,1008.506
23.911231995,-41.10762,5.634119,5.8128,-0.8949586,-0.8231559,-0.5120941,39.36748,-20.44338,-27.62923,1008.506
23.943785191,40.53931,-2.574251,-0.9191329,-1.074753,-0.1744826,-0.2463178,39.36748,-20.44338,-27.62923,1008.506
23.978847027,22.01955,-18.0393,-10.83344,-1.07281,0.1410802,0.2597565,38.97525,-18.99558,-28.46691,1008.506
24.011403084,-22.89549,-11.08002,-14.5054,-0.9979044,-0.2235661,0.07768845,38.9856,-19.35201,-27.1898,1008.509
24.043960571,-12.86652,-12.50757,-13.64861,-0.9345983,-0.4085447,-0.2089369,38.9856,-19.35201,-27.1898,1008.509
24.079022408,-0.00728213,-10.42573,-11.75143,-1.1001,-0.2449891,0.007370614,38.98397,-19.35459,-27.63588,1008.509
24.111578941,31.80241,1.708377,-26.13328,-0.6273484,-0.4448324,-0.006768857,38.95821,-17.90414,-28.47474,1008.509
24.144131660,5.714771,-3.050098,-14.383,-0.9779832,-0.1148977,0.177936,38.95821,-17.90414,-28.47474,1008.509
24.179193020,-9.113346,-1.979441,-9.915444,-0.9390144,-0.3676378,-0.02704229,39.32063,-17.5351,-28.03247,1008.509
24.211750031,-0.253392,0.3403154,-3.305909,-0.9852659,-0.2780009,0.007722891,39.67653,-17.1764,-29.37448,1008.509
24.244307518,-11.82055,0.5187582,0.5496526,-1.012936,-0.1901674,0.06467795,39.67653,-17.1764,-29.37448,1008.509
24.279368401,-16.98886,1.589415,7.220387,-1.019657,-0.296382,-0.003158635,40.40542,-16.80471,-28.9334,1008.509
24.311925411,-12.80499,0.2213535,16.1555,-1.126445,-0.1193701,-0.0109893,40.03327,-16.44354,-28.93482,1008.509
24.344478607,-30.5249,-8.87923,18.11388,-1.201903,-0.02490106,0.0528804,40.03327,-16.44354,-28.93482,1008.509
24.377036095,-58.82753,-8.403382,14.13592,-1.100432,0.1047469,-0.05689963,39.66922,-16.81517,-29.82317,1008.509
24.412096977,-83.31546,11.04689,20.68426,-0.9455826,0.1589708,-0.2070354,39.31676,-17.91405,-30.64256,1008.511
24.444653988,-97.15914,37.45642,24.29502,-0.9488583,0.05220198,-0.462434,39.31676,-17.91405,-30.64256,1008.511
24.512272358,-61.16558,78.14138,73.00974,-0.9824045,-0.1022645,-0.5769016,40.39526,-17.19361,-33.26406,1008.511
24.544825554,-26.7102,95.33138,101.4063,-0.984055,-0.1132963,-0.507462,40.39526,-17.19361,-33.26406,1008.509
24.577382565,-4.314204,93.48746,111.8102,-1.106475,-0.03985945,-0.229732,42.5898,-16.81171,-32.89146,1008.509
24.612443924,-33.10905,164.1508,127.9056,-1.524408,0.2693504,-0.3807419,42.60503,-17.16039,-30.27614,1008.509
24.645000935,12.60585,125.7261,102.1406,-1.327492,0.199275,-0.6497918,42.30172,-20.04548,-25.41099,1008.509
24.677557945,23.61926,93.13058,100.6719,-1.300148,0.2807667,-0.4310554,42.30172,-20.04548,-25.41099,1008.509
24.712619305,25.34203,109.4284,89.65598,-1.214537,0.3314599,-0.4318148,43.1049,-23.28422,-20.16446,1008.507
24.745172501,29.46437,117.1609,81.02686,-1.109975,0.4023929,-0.5531278,41.33384,-26.18285,-15.80435,1008.507
24.777729511,30.44881,127.5106,75.39651,-1.056008,0.4806645,-0.6167583,41.33384,-26.18285,-15.80435,1008.51
24.812790871,59.73588,128.6407,77.2325,-1.125633,0.4977589,-0.7271235,39.57819,-30.17549,-11.88249,1008.508
24.845347881,94.68347,127.0347,83.53603,-1.08721,0.7092384,-0.7374688,38.1866,-33.79651,-7.072281,1008.504
24.877904892,76.90203,139.4662,90.45157,-0.9597612,0.7814752,-0.6538323,38.1866,-33.79651,-7.072281,1008.503
24.910461426,75.42538,138.9904,101.8347,-0.9230993,0.8875886,-0.6909189,35.32344,-37.06431,-2.259929,1008.503
24.945519447,40.53931,141.3696,117.1345,-0.7756595,0.8811977,-0.5736982,31.32393,-38.90731,-1.341653,1008.499
24.978075981,19.68151,138.2171,135.5555,-0.7149453,0.8162733,-0.5510618,31.32393,-38.90731,-1.341653,1008.496
25.010632992,9.037254,130.0683,159.2397,-0.6809372,0.6877157,-0.3998255,25.81691,-38.21717,-0.9466963,1008.492
25.045694828,-5.729336,102.2312,175.0903,-0.7829957,0.5986158,-0.3372806,17.69593,-33.89455,1.66083,1008.489
25.078251362,-45.72218,73.44239,174.9679,-0.7153104,0.4579879,-0.2138134,17.69593,-33.89455,1.66083,1008.489
25.110808373,-82.82324,51.67237,168.6644,-0.5747885,0.325821,-0.1386251,8.490167,-30.30231,5.169289,1008.484
25.145865917,-125.5233,24.13269,157.5873,-0.5150617,0.1716045,-0.1482862,0.3292065,-27.43795,7.341385,1008.48
25.178422451,-152.0416,-7.749092,138.8603,-0.5105332,-0.02861564,-0.2456037,0.3292065,-27.43795,7.341385,1008.477
25.210979939,-151.3648,-45.28156,111.5654,-0.4279526,-0.2698759,-0.2861008,-5.192997,-25.65343,8.238304,1008.473
25.246041775,-131.9221,-75.73581,78.70128,-0.4129687,-0.4015292,-0.3620805,-9.593906,-25.69036,7.360426,1008.472
25.278597832,-97.46678,-100.0635,36.6573,-0.4268427,-0.4872443,-0.4692343,-9.593906,-25.69036,7.360426,1008.472
25.311155319,-30.34032,-116.0639,-6.121082,-0.3587556,-0.6320462,-0.6005708,-11.42463,-25.70101,7.812441,1008.47
25.343708515,56.41339,-137.0012,-34.8236,-0.4804869,-0.5177594,-0.6446305,-10.32927,-25.32668,8.252335,1008.468
25.378769398,98.86734,-165.433,-59.73175,-0.5738263,-0.2827382,-0.6520725,-10.32927,-25.32668,8.252335,1008.468
25.411326408,298.4624,97.05632,-50.49065,0.5035491,-0.01060767,-5.111979,-6.312893,-23.82977,10.39545,1008.47
25.443883896,128.4621,-24.52272,-10.09904,-0.2072832,2.030339,-3.668695,-0.1392739,-19.02756,15.12064,1008.47
25.478944779,114.4953,67.55377,35.12731,-0.9223333,0.3773086,-1.015316,-0.1392739,-19.02756,15.12064,1008.472
25.511501789,4.914915,45.9622,1.039248,-0.6460029,0.2434199,-0.177517,2.6941,-12.07886,17.67422,1008.472
25.544054985,-108.2956,12.89079,-61.26174,-0.4022071,0.177991,-0.3725846,0.8780026,-12.81196,19.02361,1008.473
25.579116345,-128.6612,1.23253,-42.41233,-0.0372182,0.1902325,-0.6270063,0.8780026,-12.81196,19.02361,1008.472
25.611673355,-98.20511,1.946301,-35.1908,-0.07912152,0.4191218,-0.7409344,1.254993,-13.91108,17.24596,1008.472
25.644230366,-33.10905,-12.98341,-21.60453,0.1054573,0.419101,-0.7415962,1.657361,-16.83405,14.65296,1008.472
25.679291725,-24.12605,-17.80137,-21.72693,0.01321375,0.8063621,-0.7713689,1.657361,-16.83405,14.65296,1008.473
25.711848736,21.89649,-14.64888,-14.2606,-0.2211989,0.6815381,-1.032137,1.660013,-17.20265,13.82715,1008.473
25.744401932,56.84409,3.730729,-5.447888,-0.308947,0.7114891,-0.9238024,3.566438,-17.91402,14.2723,1008.472
25.779463291,50.69134,5.931523,-2.387918,-0.4791785,0.5332044,-0.6837028,3.566438,-17.91402,14.2723,1008.472
25.812020302,44.78471,6.34789,-3.917903,-0.1297992,0.4584222,-0.7644548,3.921546,-17.18375,14.26589,1008.473
25.844577312,52.53717,17.2329,-1.102731,-0.05671625,0.4867736,-1.016415,3.907531,-16.08752,15.08648,1008.478
25.877133846,74.19482,13.1882,-0.7967341,-0.1127334,0.4100904,-0.9870785,3.907531,-16.08752,15.08648,1008.478
25.912195683,77.20967,7.359066,-2.081921,-0.148834,0.3233474,-0.8269192,3.89375,-14.99092,15.97079,1008.478
25.944748878,66.19626,1.708377,-5.019493,-0.1503281,0.3224379,-0.8448166,3.869215,-12.79293,18.56783,1008.476
25.977305412,55.92118,2.422148,-3.24471,-0.1023582,0.2836046,-0.9310131,3.869215,-12.79293,18.56783,1008.476
26.012367249,45.09234,3.909172,-0.3683383,-0.09982386,0.2981429,-1.020702,3.494411,-12.06316,19.39221,1008.476
26.044924259,36.60155,1.648896,1.528843,-0.1633604,0.2702144,-1.046202,4.200577,-10.23623,19.82285,1008.474
26.077480793,26.14189,2.362667,2.446834,-0.1755407,0.2406354,-0.9896032,4.200577,-10.23623,19.82285,1008.474
26.112542629,14.82084,2.660072,2.324435,-0.1360982,0.1780042,-0.8915045,3.440861,-8.419885,20.25824,1008.474
26.145094872,1.900069,3.849691,2.079638,-0.08841257,0.1710805,-0.9419274,3.804912,-8.048262,21.14659,1008.474
26.177652359,-6.34461,3.552286,2.997629,-0.09578764,0.2043521,-1.011502,3.804912,-8.048262,21.14659,1008.474
26.212714195,-14.52776,-0.1355321,6.485994,-0.1814123,0.3318173,-0.9650044,3.41882,-6.901424,20.69344,1008.473
26.245270252,-16.74275,-3.050098,6.363595,-0.1406402,0.263262,-0.9491714,3.426132,-7.262651,21.14212,1008.473
26.277827740,-22.64939,-3.109579,4.772411,-0.1251152,0.2688014,-0.9471684,3.426132,-7.262651,21.14212,1008.471
26.310425282,-24.67979,1.767858,3.85442,0.01991538,0.1255223,-0.8736041,3.00358,-7.692768,20.70048,1008.471
26.345483303,-3.145183,2.124743,15.6659,-0.3197776,0.2280575,-0.8823462,3.014943,-8.42039,20.7057,1008.471
26.378039837,-32.3092,-6.440512,1.284045,-0.09482615,0.333643,-0.7987784,3.014943,-8.42039,20.7057,1008.471
26.410596848,-14.1586,-7.154283,6.241196,-0.1958048,0.4384991,-1.165414,3.817063,-9.147443,19.81621,1008.471
26.445658684,-37.4775,-1.622556,2.140837,-0.09239738,0.511176,-1.352439,3.454875,-9.516114,19.43766,1008.471
26.478215218,-82.82324,11.22533,6.791991,-0.06844311,0.3926344,-1.082129,3.454875,-9.516114,19.43766,1008.471
26.510772228,-166.0699,43.10711,9.729562,0.326243,0.5407688,-0.8917334,3.825396,-9.879861,18.99301,1008.471
26.545830250,-144.5353,95.50981,23.43823,0.291272,0.4707651,-0.9875095,3.486489,-12.0757,17.22558,1008.469
26.578386784,-104.0502,75.46474,90.45157,0.4292637,0.3772657,-0.7667158,3.486489,-12.0757,17.22558,1008.469
26.610943794,-69.34873,109.9637,91.85915,0.120196,0.4541932,-0.7212567,2.370229,-15.74212,13.81433,1008.469
26.646005630,-43.50719,119.9565,70.74536,-0.6595942,0.3660139,-0.7726038,0.6011581,-20.12883,12.51339,1008.469
26.678562164,-20.86509,105.5026,53.24233,-0.4348684,0.1186556,-0.6688015,0.6011581,-20.12883,12.51339,1008.469
26.711119175,14.39014,45.30791,25.45781,-0.4002148,0.06627736,-0.4883677,-2.285157,-23.06049,12.54379,1008.465
26.746176243,74.07177,-28.44846,-10.89464,-0.1182402,0.0898676,-0.3795202,-5.212872,-23.44806,12.10984,1008.467
26.778733253,153.5037,-110.2942,-99.20537,-0.02047978,1.05129,-0.4374533,-5.584181,-22.71275,13.89009,1008.467
26.811290741,-1.483941,-136.3469,-140.5761,0.6926713,0.9510763,-1.252227,-5.584181,-22.71275,13.89009,1008.469
26.843847752,-0.7456116,-26.1287,-22.82852,0.01157762,1.193399,-2.192391,-3.064515,-19.0384,16.91444,1008.469
26.878908634,17.09735,17.11394,17.07349,0.1916848,0.7677479,-1.064573,1.346914,-20.10324,16.01586,1008.469
26.911466122,1.777014,22.94307,26.92659,-0.02009981,0.2606522,-0.4606336,1.346914,-20.10324,16.01586,1008.469
26.944019318,12.54432,-3.942312,6.057598,-0.02425142,0.263027,-0.3542505,0.9723434,-19.3731,16.90397,1008.469
26.979080200,8.545034,-25.41493,-22.40012,0.03496777,0.4127342,-0.71939,-0.4935393,-19.38369,16.90873,1008.469
27.011637211,12.0521,-26.06922,-19.15655,0.09043861,0.5972614,-1.057409,-0.4935393,-19.38369,16.90873,1008.469
27.044194698,11.86752,-10.96106,-7.589868,0.06775272,0.5809016,-1.051836,-0.1384311,-18.65342,16.90232,1008.475
27.079255581,3.56131,-0.254494,-0.7355347,0.07587855,0.549057,-0.8671966,0.9566976,-18.27946,17.27849,1008.475
27.111812592,-8.682653,-3.347503,-3.428308,-0.0266703,0.506987,-0.781215,0.9566976,-18.27946,17.27849,1008.475
27.144365788,-19.44996,-6.083626,-8.018263,-0.01956342,0.5316988,-0.7445915,0.9583286,-18.27687,17.72456,1008.473
27.179427147,-15.08151,-10.24729,-10.83344,0.03087701,0.5332034,-0.8234076,1.327451,-18.64283,16.89756,1008.473
27.211984158,-9.605565,-8.93871,-8.691457,0.07437467,0.58711,-0.9028678,1.327451,-18.64283,16.89756,1008.473
27.244541168,-0.00728213,-12.03172,-16.46378,-0.1045768,0.6351072,-0.9619015,1.327451,-18.64283,16.89756,1008.475
27.277097702,-1.053249,-11.13951,-9.915444,0.0291431,0.487184,-0.7554685,1.693922,-18.64019,16.89637,1008.475
27.312159538,30.2027,-23.3331,-15.54579,-0.1359694,0.476065,-0.8139675,1.693922,-18.64019,16.89637,1008.475
27.344712734,50.69134,-25.89078,-17.68777,-0.05091019,0.4931563,-0.8017043,2.058762,-18.64012,16.44911,1008.475
27.377269268,51.55273,-26.36663,-19.34015,0.001184313,0.5327405,-1.019154,3.14984,-17.89976,17.26874,1008.473
27.412331104,50.75287,-22.20296,-13.8934,-0.04912869,0.5518748,-0.9893273,3.14984,-17.89976,17.26874,1008.473
27.444888115,53.33702,-18.99099,-8.446659,0.010981,0.5133174,-0.8889477,3.918715,-16.06981,18.14525,1008.472
27.477444649,58.19769,-15.48161,-1.837124,-0.01395657,0.450037,-0.8323672,4.632194,-14.60411,19.02458,1008.476
27.512506485,57.58242,-13.10238,2.079638,-0.1032115,0.3921204,-0.9627097,4.632194,-14.60411,19.02458,1008.474
27.545059204,53.64466,-14.82732,1.284045,-0.1056516,0.3070747,-0.9712555,4.612498,-13.14407,19.84255,1008.474
27.577616215,38.9396,-13.10238,3.364825,-0.05473671,0.2748955,-1.016266,5.320295,-11.31455,20.71926,1008.476
27.612678051,26.32647,-14.8868,13.58512,-0.04850805,0.2428775,-1.011443,5.320295,-11.31455,20.71926,1008.474
27.645234585,34.0174,-5.488817,11.62674,-0.0371001,0.328618,-0.9168547,4.93273,-9.859375,21.15608,1008.474
27.710348606,6.699211,18.12511,13.21793,-0.1990688,0.2549372,-0.7834437,4.930311,-9.490398,22.04561,1008.474
27.745405674,12.7289,26.69037,14.25832,-0.271106,0.2168993,-0.7481847,5.281136,-8.394105,22.41893,1008.472
27.777963161,12.79043,27.28518,12.11634,0.02370132,0.1002013,-0.6400397,4.921977,-8.757979,22.8688,1008.471
27.810520172,5.161024,24.31113,6.608393,-0.08173867,0.2797042,-1.081906,4.921977,-8.757979,22.8688,1008.471
27.845581055,0.3618826,3.671248,5.568003,-0.2873466,0.3574512,-1.345412,5.284398,-8.388939,23.31108,1008.469
27.878138542,-38.83111,-11.67483,-2.816314,-0.08801289,0.4157425,-1.408037,5.260726,-6.873061,23.3002,1008.469
27.910695553,-73.47107,0.9946058,-1.653526,-0.05827352,0.4835459,-1.271203,5.260726,-6.873061,23.3002,1008.473
27.945752621,-119.5551,10.92792,0.9780485,-0.1775508,0.4715382,-1.111273,5.269773,-7.666483,22.41371,1008.473
27.978309631,-191.4192,-1.26567,-19.52375,-0.09576445,0.3823868,-1.150899,5.299989,-10.22829,19.81929,1008.469
28.010867119,-144.966,-8.700787,-19.76855,0.09003365,0.5387716,-0.7035024,5.299989,-10.22829,19.81929,1008.462
28.045928001,-111.0643,23.65684,6.363595,0.8054969,0.1654713,-0.6746016,4.984218,-14.62434,15.07247,1008.466
28.078485489,-98.88191,42.45282,43.57283,0.3645708,0.1711607,-0.5189252,5.042231,-19.37897,10.77314,1008.466
28.111042500,-12.31277,85.81442,53.97673,0.345984,0.1412183,-0.2950773,5.042231,-19.37897,10.77314,1008.464
28.146099567,45.15387,91.88148,24.60102,-0.06369118,0.1770086,-0.3618086,4.00205,-23.394,9.913284,1008.464
28.178656578,64.41196,34.36341,-3.061112,-0.4199629,0.1758522,-0.2744746,2.860235,-24.49123,10.37095,1008.463
28.211214066,95.60638,-75.02203,-99.63376,-0.7402557,1.460386,-0.8660398,2.860235,-24.49123,10.37095,1008.463
28.243771076,-76.91661,-95.00763,-75.8884,-0.1103146,0.9451355,-0.4365692,2.480592,-23.0235,12.97441,1008.463
28.278831959,-67.19527,-30.53029,-27.17367,0.1554771,1.247187,-1.641626,2.798172,-19.3702,15.11374,1008.464
28.311389446,-6.652247,-3.525946,-4.713496,-0.1427413,1.10038,-1.210473,2.798172,-19.3702,15.11374,1008.464
28.343941689,20.72747,5.336714,9.790761,-0.1726406,0.7803423,-0.8189574,4.725081,-21.91316,13.40531,1008.46
28.379003525,7.499068,2.957477,1.528843,-0.2322541,0.6151845,-0.6894577,4.725081,-21.91316,13.40531,1008.46
28.411560536,-8.128906,4.206576,6.241196,-0.2203295,0.4895071,-0.5932611,4.725081,-21.91316,13.40531,1008.46
28.444117069,-4.867951,7.240104,8.689172,-0.1588758,0.4810903,-0.5968325,5.093184,-21.90793,13.85019,1008.458
28.479178906,1.530904,14.85367,18.66467,-0.07548529,0.4581708,-0.6610684,4.725081,-21.91316,13.40531,1008.463
28.544288635,23.55774,20.20695,7.526383,0.1496942,0.5428329,-0.7837386,3.99051,-21.92104,12.96162,1008.464
28.579350472,4.853387,16.99498,9.91316,0.2199128,0.6746694,-0.7175058,3.995169,-21.91366,14.23611,1008.464
28.611907482,-10.03626,0.2213535,3.85442,0.005411928,0.7417078,-0.6843732,3.995169,-21.91366,14.23611,1008.464
28.644464016,-24.31063,2.481629,3.915619,-0.02209164,0.6724525,-0.7100554,3.184339,-20.82759,14.29458,1008.464
28.677021027,-11.75903,-2.633732,0.9780485,0.05153763,0.6741232,-0.865265,3.991119,-21.54727,14.67957,1008.463
28.712082863,-6.529192,-8.403382,-4.468698,0.009127426,0.6370882,-0.8585384,3.991119,-21.54727,14.67957,1008.463
28.744635582,-4.991006,-9.949886,-4.713496,-0.0235495,0.6082758,-0.8154425,3.999453,-22.27968,13.85637,1008.463
28.777192593,4.668805,-4.061274,-14.6278,-0.00654436,0.5777081,-0.7782219,4.365923,-22.27704,13.85518,1008.463
28.812253475,-2.46838,-10.18781,-4.774695,-0.1135552,0.6169449,-0.7359496,4.365923,-22.27704,13.85518,1008.463
28.844810963,-1.237831,-6.97584,-3.24471,-0.061379,0.6217712,-0.6861386,3.640061,-22.64393,14.24252,1008.463
28.877367973,4.115057,-1.325151,2.87523,-0.02537082,0.6579033,-0.7262257,4.369974,-22.64343,13.41172,1008.463
28.912429333,17.28193,7.656471,10.76995,-0.06495178,0.6951598,-0.802476,4.010815,-23.00731,13.8616,1008.461
28.944982052,33.77129,13.78301,22.70383,-0.02210819,0.6577387,-0.7871368,4.010815,-23.00731,13.8616,1008.461
28.977539539,54.87521,16.45965,29.12977,0.01143396,0.6155314,-0.8143988,4.370584,-22.26966,15.12968,1008.461
29.012600422,63.24294,16.16224,27.84458,0.0116205,0.5624533,-0.7915233,4.733004,-21.90062,15.57195,1008.459
29.045157909,66.62695,10.51156,22.64264,0.002596946,0.5766039,-0.8294855,4.733004,-21.90062,15.57195,1008.459
29.077714920,63.366,5.634119,17.74668,0.0309539,0.5539343,-0.8926978,3.998253,-21.16316,18.18181,1008.459
29.112775803,53.27549,1.589415,19.64387,0.1406098,0.4943694,-0.945917,3.175039,-18.97828,19.50694,1008.459
29.145328999,53.21397,5.6936,39.22767,0.2099073,0.4541473,-0.8803748,3.175039,-18.97828,19.50694,1008.459
29.177886486,43.73874,9.916747,44.98042,0.2038647,0.4625205,-0.9218118,3.582892,-17.51515,20.32352,1008.457
29.210443497,29.27979,20.08799,43.87883,0.1271057,0.4944292,-0.8912815,2.758047,-15.33286,21.20258,1008.462
29.245504379,19.06623,16.9355,38.06488,0.1111029,0.4551537,-0.8507782,2.758047,-15.33286,21.20258,1008.46
29.278061867,12.42126,9.143496,28.64018,0.06270041,0.3508888,-0.8262198,2.736953,-13.87503,21.6382,1008.46
29.310618877,13.15959,1.589415,18.90947,0.032363,0.3521901,-0.8783754,2.00299,-13.50913,22.91246,1008.458
29.345675945,32.6638,-13.87563,12.11634,0.046882,0.2091309,-0.799848,2.00299,-13.50913,22.91246,1008.456
29.378232956,52.22953,-18.39618,2.752831,0.06663925,0.1850939,-0.8012006,1.258686,-12.78681,22.90961,1008.458
29.410790444,47.2458,-20.00217,-2.693915,0.128817,0.2545598,-0.9350629,1.972165,-11.3211,23.78894,1008.458
29.445851326,33.46365,-20.59698,-2.265519,0.1431451,0.2690548,-0.9817432,1.972165,-11.3211,23.78894,1008.458
29.478408337,24.11148,-15.77902,-1.898323,0.1229127,0.280698,-1.034718,2.310229,-9.499403,23.7747,1008.458
29.510965824,10.02169,-7.630131,-0.3683383,0.09813385,0.3087545,-1.076319,2.668599,-8.763969,24.66043,1008.46
29.546022892,2.576871,-1.146708,-0.001141913,0.09233942,0.2824858,-0.9814892,2.668599,-8.763969,24.66043,1008.46
29.578579903,1.900069,-0.8493034,0.1212569,0.09352566,0.2346049,-0.9232489,2.285085,-7.675184,24.65378,1008.46
29.611136437,9.283364,-1.979441,0.2436557,0.09907524,0.2200536,-0.9138087,1.929977,-8.405452,24.66019,1008.46
29.643693447,12.60585,-3.406984,-0.1235407,0.08571804,0.2273993,-0.9639549,1.929977,-8.405452,24.66019,1008.46
29.678755283,3.745893,-3.347503,-0.6743353,0.08010448,0.246348,-0.9786451,2.296447,-8.402805,24.659,1008.458
29.711311817,-4.683369,-0.7303415,-0.7355347,0.09407024,0.2553774,-1.000273,2.286483,-7.67297,25.03613,1008.458
29.743865013,-7.452105,0.9946058,-0.06234131,0.09228245,0.24745,-0.9723562,2.286483,-7.67297,25.03613,1008.458
29.778926849,-2.529908,0.3403154,-0.06234131,0.08605219,0.2443312,-0.945812,2.278457,-7.250738,24.65074,1008.458
29.811483383,1.407849,-0.9682652,-0.001141913,0.09052705,0.2332805,-0.9609696,2.292164,-8.03678,25.03874,1008.458
29.844040394,0.2388277,-1.146708,-0.5519365,0.09670232,0.2460121,-0.9641649,2.292164,-8.03678,25.03874,1008.456
29.879102230,-3.821984,-0.6113796,-0.5519365,0.08648884,0.2477587,-0.9501105,3.018026,-7.66989,24.65141,1008.458
29.911658764,-4.867951,-0.7303415,-0.7355347,0.08051432,0.2569587,-0.9596319,2.651555,-7.672537,24.6526,1008.456
29.944211960,-2.160743,-0.3139749,-0.2459395,0.08240307,0.2585187,-0.9765282,2.651555,-7.672537,24.6526,1008.455
29.979272842,0.7310473,-0.07605116,0.1824563,0.08437334,0.2580275,-0.9697703,2.651555,-7.672537,24.6526,1008.455
30.011830330,1.900069,0.2808345,0.1824563,0.08983961,0.2493356,-0.9665245,2.662918,-8.400159,24.65782,1008.455
30.044387341,1.407849,-0.01657022,0.1212569,0.08937433,0.2492896,-0.9578239,2.662918,-8.400159,24.65782,1008.455
30.076944351,-1.053249,-0.07605116,-0.001141913,0.08841742,0.2463922,-0.9646345,3.025105,-8.031487,25.03636,1008.456
30.112005711,-2.283798,0.1023917,-0.2459395,0.08396202,0.2531269,-0.9621105,2.662685,-8.400528,24.59409,1008.456
30.144558907,-1.545468,0.1618726,-0.06234131,0.08781525,0.2575354,-0.9586635,2.662685,-8.400528,24.59409,1008.456
30.177115917,0.3618826,-0.07605116,0.1212569,0.08827768,0.2585378,-0.9639657,3.019424,-7.667676,25.03375,1008.456
30.212176800,1.100212,-0.1355321,-0.001141913,0.080027,0.2564774,-0.9620556,2.657237,-8.036347,24.6552,1008.458
30.244734287,-0.06880958,-0.3139749,-0.1235407,0.08481713,0.2628687,-0.9643797,2.657237,-8.036347,24.6552,1008.456
30.277291298,-0.4379743,0.04291072,-0.06234131,0.08879644,0.256108,-0.9625532,2.664316,-8.397944,25.04016,1008.458
30.312352181,0.05424532,-0.3139749,-0.1235407,0.08397526,0.2531027,-0.9567938,2.657237,-8.036347,24.6552,1008.456
30.344905377,0.9771572,-0.07605116,-0.06234131,0.08200823,0.2531124,-0.9645258,2.657237,-8.036347,24.6552,1008.456
30.377462864,1.038685,0.1023917,-0.001141913,0.08940335,0.246383,-0.9598019,2.662685,-8.400528,24.59409,1008.455
30.412523747,0.3618826,0.1023917,-0.001141913,0.08835255,0.2526937,-0.9611547,2.657237,-8.036347,24.6552,1008.455
30.445080757,-0.3149194,-0.195013,-0.1235407,0.08595332,0.2487923,-0.9650789,2.657237,-8.036347,24.6552,1008.455
30.477638245,-0.3149194,0.1023917,0.1212569,0.08198169,0.2545877,-0.9683703,2.649924,-7.67512,24.20652,1008.455
30.512699127,-0.3149194,0.04291072,-0.06234131,0.08395353,0.2545692,-0.958705,3.030787,-8.395298,25.03897,1008.455
30.545252323,0.1157728,-0.195013,-0.1847401,0.08594242,0.250239,-0.96264,3.030787,-8.395298,25.03897,1008.455
30.577809334,0.3618826,-0.1355321,0.1212569,0.08445024,0.251704,-0.9684167,2.297845,-8.400591,25.04135,1008.456
30.610365868,0.1773002,-0.01657022,-0.001141913,0.08636862,0.2541612,-0.9688644,2.662685,-8.400528,24.59409,1008.456
30.645427704,0.05424532,0.1618726,0.1212569,0.08829783,0.2565985,-0.9649621,2.662685,-8.400528,24.59409,1008.456
30.677985191,-0.130337,0.2808345,-0.06234131,0.09178898,0.2498337,-0.9636185,2.657004,-8.036716,24.59148,1008.456
30.710541248,-1.299359,-0.4924178,-0.3683383,0.08893952,0.2496637,-0.9346157,2.658635,-8.034134,25.03755,1008.458
30.745599270,-7.08294,-2.990617,-1.837124,0.0807509,0.2408314,-0.9395764,2.658635,-8.034134,25.03755,1008.458
30.778155804,-8.375016,-5.369855,-2.387918,0.08577208,0.2648185,-0.9629007,1.925694,-8.039427,25.03993,1008.458
30.810712814,-7.882797,-4.120755,-2.326719,0.07931963,0.2701908,-0.9869814,2.662918,-8.400159,24.65782,1008.46
30.845774651,-8.005852,-1.503594,-1.592326,0.07793353,0.2671816,-0.9705912,2.662918,-8.400159,24.65782,1008.46
30.878331184,-11.32833,-0.195013,-0.9803323,0.07247742,0.2810866,-0.9447548,2.667578,-8.392778,25.93231,1008.46
30.910888195,-14.52776,0.3997963,-1.22513,0.06713485,0.2771866,-0.9573768,2.668599,-8.763969,24.66043,1008.458
30.945946217,-17.11191,1.410972,-1.469927,0.07821739,0.2875346,-0.9567464,2.67428,-9.12778,24.66304,1008.46
30.978502750,-20.06523,0.5187582,-1.959523,0.07740349,0.2796199,-0.9288304,2.67428,-9.12778,24.66304,1008.46
31.011059761,-21.41884,-0.01657022,-2.510317,0.07452884,0.3127332,-0.9510412,2.679962,-9.49159,24.66565,1008.46
31.043616772,-17.9733,-0.195013,-2.816314,0.07199828,0.320962,-0.9509132,2.679962,-9.49159,24.66565,1008.46
31.078678131,-10.77459,-0.6113796,-2.387918,0.0770824,0.3453096,-0.9466797,3.057795,-10.21657,24.66968,1008.46
31.111235142,-5.606281,-1.206189,-1.714725,0.07321098,0.343788,-0.9437989,2.336216,-10.94948,24.67728,1008.46
31.143788338,-9.174873,0.5187582,-1.653526,0.07321391,0.3414045,-0.9539862,2.336216,-10.94948,24.67728,1008.462
31.178849220,-9.051819,3.373843,-0.4907371,0.05996969,0.3513977,-0.9451201,3.071577,-11.31316,23.78537,1008.463
31.211406708,-7.882797,5.634119,0.2436557,0.06101411,0.3522327,-0.9122388,3.086201,-12.03562,24.68274,1008.463
31.243963718,-4.437259,2.303186,-0.1235407,0.0792499,0.3382752,-0.890234,2.709156,-11.6822,23.3431,1008.463
31.279025078,1.900069,0.5187582,0.1212569,0.09824961,0.3285188,-0.9343885,2.709156,-11.6822,23.3431,1008.463
31.311582089,4.361167,-0.4329368,-0.06234131,0.06797623,0.3767333,-0.9360405,2.720519,-12.40983,23.34832,1008.463
31.344135285,4.238112,0.697201,0.4272538,0.08143506,0.3487506,-0.9427643,2.352417,-12.41505,22.90344,1008.463
31.379196167,-0.1918645,0.8161629,0.2436557,0.08442538,0.3472365,-0.9220051,2.352417,-12.41505,22.90344,1008.463
31.411753655,0.7925748,0.1023917,0.1212569,0.08894748,0.338002,-0.9090992,2.348367,-12.04866,23.3469,1008.465
31.444310665,0.9156297,-0.3734559,-0.06234131,0.07574547,0.3374545,-0.9332637,2.709156,-11.6822,23.3431,1008.465
31.479371548,1.223267,0.1023917,0.06005749,0.07757138,0.3448367,-0.9481375,2.709156,-11.6822,23.3431,1008.465
31.511929035,-0.3764469,-0.01657022,-0.1847401,0.07718097,0.3389467,-0.9366259,3.082939,-12.04078,23.7906,1008.467
31.544482231,-2.46838,-0.07605116,-0.3071389,0.07605892,0.3510949,-0.9393398,3.073996,-11.68214,22.89584,1008.467
31.577038288,-1.360886,0.3997963,-0.1847401,0.0741812,0.3452342,-0.9384606,3.073996,-11.68214,22.89584,1008.467
31.612100125,1.038685,0.2213535,0.304855,0.08101798,0.3471898,-0.9215192,2.720519,-12.40983,23.34832,1008.467
31.644657612,1.284795,-0.01657022,0.1824563,0.08297469,0.3448208,-0.9292912,3.081308,-12.04337,23.34452,1008.467
31.677213669,0.4234101,0.1023917,0.06005749,0.08336872,0.3507043,-0.9393528,3.081308,-12.04337,23.34452,1008.467
31.712275505,-0.4995018,0.2213535,0.1212569,0.08004905,0.3443144,-0.9331632,2.714837,-12.04601,23.34571,1008.467
31.744828701,-0.8071391,-0.1355321,-0.001141913,0.07810158,0.3461909,-0.9239485,2.72215,-12.40724,23.7944,1008.467
31.777385235,-0.00728213,-0.1355321,-0.06234131,0.07904335,0.3467378,-0.9345753,2.72215,-12.40724,23.7944,1008.467
31.812447071,0.3618826,-0.3139749,-0.001141913,0.08200929,0.3433658,-0.9326962,2.72215,-12.40724,23.7944,1008.467
31.845003605,-0.00728213,-0.07605116,0.1824563,0.07853994,0.3472372,-0.9389176,3.090251,-12.40201,24.23928,1008.467
31.877560616,-0.253392,0.1618726,-0.06234131,0.07763409,0.3418685,-0.9365818,3.090251,-12.40201,24.23928,1008.467
31.912622452,-0.06880958,0.2213535,-0.1847401,0.07415295,0.3490907,-0.9316345,3.081308,-12.04337,23.34452,1008.467
31.945175171,0.4234101,0.3997963,-0.001141913,0.08046509,0.3506332,-0.9321004,2.346736,-12.05124,22.90083,1008.465
31.977732182,0.6079924,0.1618726,0.06005749,0.08199073,0.3457778,-0.9287923,2.346736,-12.05124,22.90083,1008.463
32.010289192,0.6695199,-0.1355321,0.06005749,0.08253647,0.3409206,-0.9279002,3.090251,-12.40201,24.23928,1008.463
32.045350552,0.1157728,-0.254494,-0.1235407,0.08247287,0.3457929,-0.930726,3.514538,-12.40409,23.34575,1008.462
32.077907562,-0.253392,-0.254494,-0.06234131,0.08153122,0.342392,-0.9336773,3.514538,-12.40409,23.34575,1008.462
32.110464573,-0.3764469,-0.3139749,-0.001141913,0.07274729,0.3442148,-0.9321909,3.08862,-12.4046,23.79321,1008.462
32.145521641,-0.130337,-0.195013,0.06005749,0.07509105,0.3510712,-0.9369223,3.52022,-12.7679,23.34835,1008.464
32.178079128,-0.130337,-0.01657022,0.1824563,0.07702552,0.3525478,-0.9354516,3.52022,-12.7679,23.34835,1008.464
32.210636139,-0.130337,0.2213535,0.06005749,0.0785749,0.3457465,-0.9316898,2.72215,-12.40724,23.7944,1008.456
32.245697498,-0.06880958,0.5187582,0.06005749,0.07707581,0.3491266,-0.9311533,2.714837,-12.04601,23.34571,1008.456
32.278254509,0.3618826,0.1023917,0.06005749,0.08290508,0.3497041,-0.9345338,2.714837,-12.04601,23.34571,1008.456
32.310811520,0.3618826,-0.07605116,0.06005749,0.08001959,0.3481731,-0.9268203,2.707525,-11.68479,22.89703,1008.456
32.345868588,-0.253392,-0.3734559,-0.06234131,0.08834235,0.3439189,-0.9293101,3.086989,-12.40718,23.34713,1008.457
32.378426075,-0.4379743,-0.3139749,-0.2459395,0.07176693,0.3451651,-0.9302419,3.086989,-12.40718,23.34713,1008.457
32.410983086,-0.8071391,0.1618726,-0.3071389,0.07321814,0.3452017,-0.9341098,2.720519,-12.40983,23.34832,1008.457
32.443540096,-0.3764469,0.4592772,-0.2459395,0.07565603,0.3461789,-0.9282967,2.720519,-12.40983,23.34832,1008.453
32.478601456,0.1773002,0.2213535,-0.3683383,0.0916652,0.3512541,-0.9296849,2.720519,-12.40983,23.34832,1008.455
32.511158466,0.6695199,-0.3139749,-0.3071389,0.08197457,0.3481853,-0.9239218,2.352417,-12.41505,22.90344,1008.455
32.543710709,1.469377,-0.9087843,-0.1847401,0.08391076,0.3472807,-0.9331216,2.349998,-12.04608,23.79297,1008.456
32.578772545,0.6079924,-0.9087843,-0.001141913,0.07812268,0.3409206,-0.9404637,2.349998,-12.04608,23.79297,1008.456
32.611330032,-0.8071391,-0.7303415,-0.06234131,0.07805382,0.3467537,-0.940858,2.72215,-12.40724,23.7944,1008.456
32.643886566,-2.345325,-0.07605116,-0.06234131,0.0726434,0.3529655,-0.933024,3.510488,-12.0377,23.78921,1008.456
32.678947925,-1.976161,0.5187582,0.1824563,0.07719451,0.3408244,-0.922096,3.510488,-12.0377,23.78921,1008.456
32.711505413,-0.06880958,0.3997963,0.2436557,0.07910853,0.3423383,-0.928842,2.720519,-12.40983,23.34832,1008.458
32.744057655,0.1157728,0.1618726,0.06005749,0.08049487,0.3486763,-0.92923,2.724569,-12.77622,22.90486,1008.458
32.779119492,-1.299359,0.2808345,-0.1235407,0.08036046,0.3584341,-0.9377818,2.724569,-12.77622,22.90486,1008.458
32.811707973,-1.730051,0.3403154,-0.06234131,0.07500686,0.3588348,-0.9343868,2.359729,-12.77628,23.35212,1008.46
32.844264507,-0.6840842,0.1618726,-0.2459395,0.07900254,0.3529953,-0.9214287,2.36136,-12.7737,23.79819,1008.46
32.879326344,1.592432,-0.254494,0.1824563,0.07947221,0.3539845,-0.9238309,2.36136,-12.7737,23.79819,1008.462
32.911883354,2.269234,0.04291072,0.1824563,0.07762394,0.3442651,-0.9292945,3.08862,-12.4046,23.79321,1008.463
32.944436073,2.146179,0.2808345,0.2436557,0.07225673,0.344215,-0.9336405,2.348367,-12.04866,23.3469,1008.463
32.976993084,1.469377,0.3403154,0.1824563,0.08397602,0.3414541,-0.9341773,2.348367,-12.04866,23.3469,1008.465
33.012054920,1.100212,-0.07605116,-0.001141913,0.07178264,0.3437096,-0.9307475,2.7262,-12.77364,23.35093,1008.467
33.044611454,0.6695199,0.8161629,0.06005749,0.08109058,0.3384962,-0.9332529,2.709156,-11.6822,23.3431,1008.469
33.077168465,0.546465,-0.01657022,0.1212569,0.09913158,0.3386872,-0.9235999,2.709156,-11.6822,23.3431,1008.47
33.112229824,-0.3764469,-1.26567,-0.001141913,0.09378438,0.3395518,-0.9153641,3.082939,-12.04078,23.7906,1008.47
33.144783020,-3.637402,-1.682037,-0.9803323,0.08098625,0.348199,-0.9297212,2.72215,-12.40724,23.7944,1008.47
33.177340031,-4.867951,-0.5518987,-0.7355347,0.05946455,0.3542782,-0.9387918,2.72215,-12.40724,23.7944,1008.47
33.212400913,-3.821984,0.04291072,-0.6743353,0.05984978,0.3597021,-0.9546608,1.980265,-12.05389,22.90202,1008.476
33.244958401,-1.422414,1.113568,-0.001141913,0.07112144,0.3563874,-0.9416711,3.079677,-12.04595,22.89845,1008.476
33.277515411,2.392289,1.23253,0.6108521,0.08081788,0.3637261,-0.9246503,2.718888,-12.41241,22.90225,1008.476
33.312683106,4.976442,0.6377201,0.7944502,0.08493678,0.3476738,-0.9099146,2.718888,-12.41241,22.90225,1008.476
33.345236302,5.714771,-0.07605116,0.6108521,0.08554662,0.3355654,-0.9173505,2.720519,-12.40983,23.34832,1008.476
33.377793312,3.438255,-0.4329368,0.304855,0.0844876,0.3376106,-0.9424539,2.355679,-12.40989,23.79559,1008.476
33.410349846,-1.176304,-0.1355321,-0.001141913,0.08294348,0.343451,-0.9486471,2.355679,-12.40989,23.79559,1008.475
33.445411682,-5.421699,-0.07605116,-0.6743353,0.07958217,0.3437958,-0.9273701,2.713206,-12.0486,22.89964,1008.473
33.477968693,-5.729336,-0.4329368,-0.6743353,0.07715055,0.3461365,-0.9147642,2.718888,-12.41241,22.90225,1008.473
33.510525227,-2.899073,-0.3734559,-0.6743353,0.07354634,0.3607176,-0.9251725,2.718888,-12.41241,22.90225,1008.473
33.545583248,-0.3149194,0.2808345,0.06005749,0.07630426,0.3715183,-0.940962,2.733512,-13.13486,23.79962,1008.473
33.578140259,1.223267,0.2213535,0.1212569,0.08276971,0.3627929,-0.9275667,3.523482,-12.76274,24.2405,1008.473
33.610696793,1.900069,-0.4924178,0.1824563,0.07657956,0.3510397,-0.9258066,3.523482,-12.76274,24.2405,1008.471
33.645758629,2.269234,-0.195013,-0.001141913,0.07362616,0.3520108,-0.9340063,3.086989,-12.40718,23.34713,1008.471
33.678315639,1.223267,-0.4924178,-0.3071389,0.08042932,0.352601,-0.9373875,2.718888,-12.41241,22.90225,1008.471
33.710872173,-0.1918645,-0.6708605,-0.3683383,0.07663637,0.3452286,-0.9302457,2.718888,-12.41241,22.90225,1008.473
33.745930195,-1.176304,-0.254494,-0.1847401,0.07273518,0.3456637,-0.9302353,3.521851,-12.76532,23.79443,1008.471
33.778486252,-0.5610293,-0.4924178,-0.2459395,0.07462944,0.3495917,-0.9335608,2.73025,-13.14003,22.90747,1008.467
33.811043739,-0.4995018,-0.07605116,-0.1847401,0.06921509,0.3539083,-0.93639,2.73025,-13.14003,22.90747,1008.467
33.846105576,0.05424532,-0.1355321,-0.1847401,0.0805771,0.3399651,-0.937097,2.7262,-12.77364,23.35093,1008.471
33.878662109,-0.6225567,0.2213535,-0.1847401,0.07900546,0.350612,-0.931616,2.352417,-12.41505,22.90344,1008.471
33.911219120,-1.914633,0.5187582,0.06005749,0.08141758,0.3540143,-0.9247991,2.352417,-12.41505,22.90344,1008.469
33.943772316,-1.976161,-0.07605116,0.06005749,0.08191971,0.3549441,-0.914151,2.7262,-12.77364,23.35093,1008.469
33.978833199,-1.422414,-0.3734559,0.1212569,0.08225736,0.3656866,-0.9241384,2.724569,-12.77622,22.90486,1008.471
34.011390686,-0.253392,-0.6708605,0.1824563,0.07502085,0.3597605,-0.9242219,2.724569,-12.77622,22.90486,1008.471
34.043947697,-0.9301939,-1.26567,-0.3071389,0.07303532,0.3607552,-0.934839,2.7262,-12.77364,23.35093,1008.471
34.079008579,-2.406853,-0.254494,-0.4907371,0.06706398,0.3709007,-0.9385455,2.724569,-12.77622,22.90486,1008.473
34.111566067,-0.8071391,0.1618726,-0.6131359,0.07306186,0.3592799,-0.9309946,2.724569,-12.77622,22.90486,1008.475
34.144119263,2.576871,0.1618726,-0.1847401,0.06723824,0.3582165,-0.9276215,3.52022,-12.7679,23.34835,1008.475
34.179180145,3.192146,0.3403154,-0.001141913,0.07753615,0.3520352,-0.9282092,1.993259,-12.77893,23.35331,1008.475
34.211737156,1.530904,0.3403154,-0.001141913,0.08044495,0.3525724,-0.931104,1.993259,-12.77893,23.35331,1008.476
34.244294643,-0.4995018,0.1618726,-0.06234131,0.08728593,0.3507155,-0.9306555,2.737562,-13.50126,23.35615,1008.478
34.279355526,-1.422414,-0.07605116,-0.3683383,0.08395326,0.3476787,-0.9137805,2.348367,-12.04866,23.3469,1008.478
34.311912537,-1.360886,-0.9682652,-0.4295377,0.07705387,0.354874,-0.9126973,2.348367,-12.04866,23.3469,1008.476
34.344465733,0.3618826,-1.682037,-0.7967341,0.07108741,0.3635837,-0.9212595,2.7262,-12.77364,23.35093,1008.476
34.377023220,0.4234101,-3.288022,-1.102731,0.08877822,0.3554332,-0.8952985,3.091039,-12.77357,22.90367,1008.476
34.412084103,-8.805709,-10.30677,-3.428308,0.06792686,0.3421593,-0.9215833,3.091039,-12.77357,22.90367,1008.476
34.444641113,-18.83468,-6.97584,-3.489507,0.03013642,0.3621862,-0.9449267,3.514538,-12.40409,23.34575,1008.478
34.477198601,-17.91177,-1.682037,-1.653526,0.06346793,0.3821377,-0.9615727,3.09267,-12.77099,23.34974,1008.476
34.512259483,-9.544038,-1.087227,-2.081921,0.0605019,0.3959733,-0.9135044,3.09267,-12.77099,23.34974,1008.476
34.544812679,1.284795,-1.800998,-1.286329,0.06779964,0.4046414,-0.8751925,3.098352,-13.1348,23.35235,1008.476
34.577369213,7.868232,-4.120755,-1.286329,0.03557095,0.407241,-0.8978404,3.535632,-13.86192,22.91012,1008.476
34.612431049,9.775583,-2.752694,0.6108521,0.04870389,0.4012561,-0.9332309,3.535632,-13.86192,22.91012,1008.478
34.644988060,12.48279,-1.206189,2.079638,0.05947662,0.3889204,-0.9682327,3.091039,-12.77357,22.90367,1008.476
34.677544594,14.94389,0.1023917,1.590042,0.05402125,0.3600744,-0.9464321,3.09267,-12.77099,23.34974,1008.478
34.712606430,12.11363,-2.038922,0.3660544,0.05727965,0.3380949,-0.9134176,3.09267,-12.77099,23.34974,1008.478
34.745159626,5.714771,-2.098403,-0.6131359,0.04998305,0.3308517,-0.9444572,3.888321,-12.76267,23.79324,1008.478
34.777716160,1.16174,-0.4924178,-0.3071389,0.06831849,0.3480471,-0.9326115,3.091882,-12.39943,24.68535,1008.478
34.812777996,-1.114776,-0.4329368,-0.1847401,0.04581427,0.3584099,-0.9246976,3.091882,-12.39943,24.68535,1008.482
34.845335007,-4.621841,-1.325151,-0.4907371,0.05118004,0.3551332,-0.9368373,3.510488,-12.0377,23.78921,1008.482
34.877891540,-5.913918,-1.622556,-0.5519365,0.06142721,0.3533252,-0.9373581,3.87859,-12.03247,24.23409,1008.482
34.910448551,-6.036973,-1.860479,-0.9803323,0.03818446,0.3399404,-0.9462407,3.87859,-12.03247,24.23409,1008.482
34.945505619,-7.82127,-0.4924178,-1.16393,0.04441958,0.3506602,-0.934482,3.5178,-12.39892,24.23789,1008.482
34.978063107,-10.95917,-1.206189,-1.408728,0.04854487,0.3787726,-0.9060213,3.512119,-12.03511,24.23528,1008.482
35.010620117,-14.52776,-2.336327,-0.9803323,0.04078058,0.3714879,-0.9293271,3.512119,-12.03511,24.23528,1008.481
35.045681000,-18.77316,0.697201,-0.5519365,0.03208838,0.4020998,-0.9525371,3.889952,-12.76009,24.23932,1008.481
35.078238487,-14.8354,0.1618726,-0.9191329,0.04139737,0.4087749,-0.8978227,3.531582,-13.49552,23.35358,1008.481
35.110795498,-7.390577,-1.682037,-0.4295377,0.04287621,0.4011513,-0.926943,3.531582,-13.49552,23.35358,1008.481
35.145852566,-0.00728213,-0.3734559,-0.06234131,0.06132908,0.4114736,-0.8997342,3.892371,-13.12907,23.34978,1008.481
35.178409576,2.699926,-2.276846,-0.6743353,0.03761811,0.4004263,-0.889729,3.534001,-13.8645,22.46405,1008.479
35.210967064,-0.9917214,-2.693213,-0.6131359,0.02251311,0.3940643,-0.9231644,3.534001,-13.8645,22.46405,1008.479
35.246027947,-8.128906,-0.5518987,-1.102731,0.05552534,0.4051421,-0.9133597,3.542944,-14.22314,23.3588,1008.479
35.278584957,-9.051819,-3.050098,-1.714725,0.03264594,0.4015016,-0.9264444,4.275886,-14.21785,23.35642,1008.479
35.311142445,-15.75831,-1.26567,-1.653526,0.02961798,0.4102187,-0.9282419,4.275886,-14.21785,23.35642,1008.479
35.343695641,-35.26252,5.574638,-18.97295,-0.1006826,0.2447067,-1.028767,3.911834,-14.58947,22.46808,1008.479
35.378756523,-38.76958,-1.206189,-11.50663,0.08632188,0.4067515,-0.8587434,3.913465,-14.58689,22.91415,1008.479
35.411313534,-48.73703,-0.5518987,-10.40504,-0.06997164,0.4768669,-0.9073107,3.933161,-16.04693,22.09618,1008.479
35.443871021,-51.1366,0.2213535,-7.34507,-0.01197429,0.520279,-0.8825355,3.933161,-16.04693,22.09618,1008.477
35.478931904,-51.93646,0.697201,-7.222671,0.06321876,0.5498417,-0.8623385,4.310152,-17.14605,20.31853,1008.477
35.511489391,-52.85937,-1.325151,-7.467469,0.03452914,0.5935703,-0.835058,3.980421,-19.70017,19.50958,1008.477
35.544042111,-51.38271,1.173048,-6.243481,0.110571,0.5963199,-0.7944857,3.980421,-19.70017,19.50958,1008.477
35.579103470,-26.95631,-2.812175,-3.673106,-0.05417098,0.6462427,-0.8090332,3.631782,-21.16581,18.183,1008.477
35.611660481,-7.759742,-4.061274,-0.6131359,-0.03583173,0.6591505,-0.8161046,4.382789,-22.62314,16.91658,1008.475
35.644217968,-8.190434,1.173048,1.957239,0.02197816,0.6354791,-0.7889691,4.382789,-22.62314,16.91658,1008.475
35.679278850,9.098782,2.422148,3.120028,0.006475086,0.5971378,-0.7387845,4.381157,-22.62572,16.4705,1008.474
35.711835861,21.77344,2.600591,3.670822,0.03657845,0.5217038,-0.7370641,4.021999,-22.98959,16.92038,1008.474
35.744389057,26.69563,1.88682,1.957239,0.01749092,0.5225841,-0.7713521,4.021999,-22.98959,16.92038,1008.474
35.776945591,15.74375,2.243705,1.528843,0.01662162,0.577916,-0.8637988,4.023397,-22.98738,17.30272,1008.472
35.812007427,2.023124,0.5187582,-0.3071389,0.04343339,0.5748814,-0.8677379,4.007984,-21.89336,17.74096,1008.47
35.844563961,-7.205995,-1.860479,-2.143121,0.0287347,0.5506552,-0.8197557,4.007984,-21.89336,17.74096,1008.47
35.877120972,-16.61969,-2.336327,-2.693915,0.01765399,0.5441089,-0.8014765,3.647195,-22.25982,17.74476,1008.47
35.912182808,-20.37287,-2.038922,-2.999912,0.02287338,0.549185,-0.8337904,4.372824,-21.8933,17.2937,1008.47
35.944735527,-25.84881,-0.7898225,-2.449118,0.001042854,0.5895968,-0.8056003,4.372824,-21.8933,17.2937,1008.47
35.977292538,-34.09349,0.5187582,-3.183511,0.01480672,0.6626714,-0.8040153,4.382789,-22.62314,16.91658,1008.469
36.012354374,-43.38414,-1.741517,-6.36588,0.01577243,0.6660284,-0.7913972,3.650635,-22.99999,15.58335,1008.469
36.044910908,-65.41097,3.016958,-11.26183,-0.02072144,0.6118143,-0.8371432,3.650635,-22.99999,15.58335,1008.467
36.077467918,-74.2094,7.180623,-9.670647,0.01904528,0.6349859,-0.7957411,4.391677,-23.72748,14.69405,1008.467
36.112529755,-72.36358,16.34069,-5.141891,0.008128361,0.5815858,-0.7341896,3.671908,-25.20315,12.09416,1008.467
