Time (s),Gyroscope X (deg/s),Gyroscope Y (deg/s),Gyroscope Z (deg/s),Accelerometer X (g),Accelerometer Y (g),Accelerometer Z (g),Magnetometer X (uT),Magnetometer Y (uT),Magnetometer Z (uT),Barometer (hPa)
0.000000000,2.191876,44.7473,-127.0945,0.7050086,0.5348564,0.5019762,-40.36775,-17.30991,-19.03801,1007.975
0.032168865,-40.74799,59.60274,-106.8085,0.6273797,0.5737434,0.7112449,-40.36775,-17.30991,-19.03801,1007.975
0.064341068,-63.10865,47.46981,-85.72572,0.418762,0.5102044,0.7714716,-37.75364,-21.18725,-21.26434,1007.975
0.098989010,-51.25259,33.26541,-79.16801,0.4886157,0.2813432,0.6580732,-34.76107,-24.30769,-23.49633,1007.975
0.131161690,-22.50315,28.29387,-67.70734,0.4183445,0.3391622,0.7464474,-34.76107,-24.30769,-23.49633,1007.973
0.165808678,-17.65015,25.57136,-49.81153,0.3448856,0.4040505,0.7423659,-31.76613,-25.14052,-25.67572,1007.97
0.197981358,-34.78923,15.39154,-40.67976,0.3592143,0.4906625,0.7795781,-30.27273,-26.70358,-27.01486,1007.97
0.232625485,-57.08847,22.96722,-39.63788,0.4524772,0.1098311,0.7379724,-30.27273,-26.70358,-27.01486,1007.97
0.264797688,-22.62601,20.659,-38.53471,0.4001563,0.2065962,0.8530102,-28.77882,-27.50438,-28.35772,1007.974
0.299445152,1.39328,14.08947,-29.09651,0.4247181,0.3269938,0.8720896,-27.28414,-27.16177,-29.70615,1007.974
0.331618309,-19.67735,14.68132,-25.78701,0.4504546,0.3421865,0.9076426,-27.28414,-27.16177,-29.70615,1007.972
0.366265297,-27.60188,18.94264,-25.78701,0.3941786,0.1339792,0.8736753,-25.40022,-27.1943,-30.1621,1007.972
0.398437977,2.069015,13.43843,-21.6195,0.3970097,0.2904409,0.9607347,-25.03327,-27.59136,-30.99098,1007.972
0.433082104,-7.57556,11.42614,-14.75535,0.3680287,0.3058859,0.9307665,-25.03327,-27.59136,-30.99098,1007.972
0.465254307,3.666205,9.354665,-8.075063,0.2992461,0.2304044,0.8541481,-24.28317,-27.60778,-31.44113,1007.974
0.499901772,-12.67428,2.134093,-5.378434,0.3723239,0.4265937,0.9770295,-23.16116,-28.01639,-32.33763,1007.974
0.532074928,-28.27761,-2.719078,1.363139,0.3115769,0.1927445,0.8879445,-23.16116,-28.01639,-32.33763,1007.972
0.566721916,-2.415406,-13.78668,5.714518,0.3594421,0.325489,0.8866643,-23.16116,-28.01639,-32.33763,1007.972
0.598894596,-23.6089,-9.111059,0.8115556,0.3883173,0.06492785,0.7902569,-23.16065,-27.25412,-32.34135,1007.972
0.631062985,16.50516,-5.559958,-8.32021,0.3682436,0.03595311,0.7964713,-23.16065,-27.25412,-32.34135,1007.97
0.665710926,48.57183,-0.5292324,-5.930017,0.3158059,0.2336779,0.8487186,-23.54437,-27.25444,-32.7857,1007.97
0.697883606,69.27389,-7.335509,19.99439,0.1827524,0.5066679,0.8531747,-23.91653,-27.24339,-32.33749,1007.97
0.732531548,48.08039,-17.33778,58.11492,0.1031985,0.6322227,0.90749,-23.91653,-27.24339,-32.33749,1007.97
0.764704228,117.3125,-36.57291,104.0802,0.1623961,0.4581681,0.7189689,-24.26743,-28.73494,-30.16046,1007.97
0.799421787,172.5384,-50.65894,163.4673,0.2622117,0.901235,0.7101222,-24.61096,-29.07659,-27.47898,1007.97
0.831590653,113.5038,-36.04024,210.168,0.3943113,0.7530308,0.6478998,-24.61096,-29.07659,-27.47898,1007.968
0.866238117,138.6903,-23.61139,251.169,0.3321168,0.6274861,0.5664693,-28.71655,-29.34751,-23.43932,1007.967
0.898410797,113.6881,-5.086479,267.594,0.6913823,0.6098743,0.5282678,-33.9555,-27.69746,-19.46692,1007.967
0.933058262,66.63239,61.43748,274.642,0.4873863,0.4551278,0.6599994,-39.58194,-21.86176,-16.46937,1007.967
0.965231419,103.7364,63.86406,275.6838,0.5104225,0.1133714,0.6049111,-39.58194,-21.86176,-16.46937,1007.971
0.999878407,96.79472,101.3282,274.8871,0.8685718,0.4170235,0.6850484,-42.98269,-13.43338,-16.87543,1007.969
1.032046795,33.52139,142.7577,267.2875,0.2707765,-0.006330501,0.6003764,-44.13314,-5.054268,-18.63193,1007.969
1.066694736,99.9891,124.4103,254.4785,0.2597624,-0.2788169,0.7572925,-44.13314,-5.054268,-18.63193,1007.967
1.098867416,24.61398,141.8107,227.3284,0.1890564,0.07280131,1.116567,-42.30599,3.681076,-23.97632,1007.967
1.131040096,-98.18542,116.8346,192.8851,-0.02163277,-0.2803452,1.070313,-37.82386,10.42021,-28.49583,1007.965
1.165688038,-62.43292,85.58496,176.0312,0.07373636,-0.8029537,0.7089174,-37.82386,10.42021,-28.49583,1007.967
1.197860241,-28.03189,70.37441,150.2906,-0.012568,-0.4235666,0.8825142,-32.53938,17.57521,-29.45082,1007.969
1.232503414,-66.61018,61.91096,120.3212,0.05712406,-0.4940762,0.8475426,-27.25541,23.96795,-30.40208,1007.969
1.264676094,-91.61237,65.99472,93.84525,-0.05644099,-0.7147487,0.7966552,-27.25541,23.96795,-30.40208,1007.969
1.299324036,-35.46497,54.92712,74.78499,-0.09854512,-0.836524,0.8394241,-22.33962,27.7095,-30.44583,1007.971
1.331496716,17.85663,55.04549,57.80849,-0.01365287,-0.7417744,0.907375,-19.67888,33.01916,-29.59286,1007.974
1.366144657,75.23264,53.92098,48.309,-0.0365116,-0.6289563,0.9200863,-19.67888,33.01916,-29.59286,1007.976
1.398316860,114.1795,52.2638,47.14455,0.04321491,-0.3865076,0.9406211,-15.92729,33.319,-31.78171,1007.98
1.432960034,110.7394,59.01089,47.8187,-0.02240465,-0.2326528,0.8971939,-13.64289,33.24041,-35.36388,1007.98
1.465132713,97.04044,69.84175,50.69919,-0.02533519,-0.1538936,0.9749904,-13.64289,33.24041,-35.36388,1007.98
1.499780655,48.87899,52.44135,37.4612,-0.4141073,-0.7027889,1.551046,-11.81195,30.4896,-39.75957,1007.98
1.531953335,66.57095,-5.204848,1.485713,-0.2575507,0.03174586,2.114278,-8.45274,27.73355,-42.88792,1007.98
1.566601277,-1.371088,-17.33778,-28.54493,-0.06619842,0.04167642,1.07001,-8.45274,27.73355,-42.88792,1007.98
1.598773480,-5.118343,-13.96423,-21.98722,-0.1643065,-0.05047677,0.763614,-6.582435,24.64059,-44.22154,1007.98
1.633416653,9.072083,-3.725223,-10.83298,-0.08526051,-0.11177,0.7339332,-7.704697,24.66806,-43.32318,1007.98
1.665589333,3.789066,7.579114,1.363139,-0.05885827,-0.1037837,0.9684864,-7.704697,24.66806,-43.32318,1007.982
1.697762489,-5.732648,7.75667,3.630759,-0.175231,-0.1712278,1.14832,-8.088414,24.66775,-43.76752,1007.982
1.732409954,12.51219,-0.4108624,-2.436657,-0.1224718,-0.2898012,1.037918,-8.850073,24.6728,-44.20994,1007.982
1.764582157,36.71577,-3.843593,-2.068934,-0.1178954,-0.1203687,0.9197366,-8.850073,24.6728,-44.20994,1007.982
1.799230099,24.42969,-6.388549,0.7502685,-0.1413986,-0.01353064,0.9748207,-7.715427,24.65751,-44.15199,1007.986
1.831398964,10.1164,-4.612998,0.8115556,-0.1026642,-0.03725069,1.008003,-8.111473,23.50242,-45.48331,1007.986
1.866045952,-2.599697,-4.849739,2.77274,-0.1419979,-0.1731698,0.9807401,-8.111473,23.50242,-45.48331,1007.986
1.898219109,7.782043,-9.584539,-0.04646279,-0.1406975,-0.1632083,1.01455,-8.861832,23.13771,-45.0313,1007.987
1.932866573,9.747817,-9.347799,1.179278,-0.09174106,-0.1250686,0.9565677,-8.48415,22.75121,-45.03137,1007.989
1.965038776,-3.15257,-4.553813,-0.2916109,-0.0625737,-0.1297056,1.003493,-9.240543,21.99967,-45.02378,1007.989
1.999686718,-10.64708,0.3585428,-2.007648,-0.06626408,-0.08887218,1.009166,-9.240543,21.99967,-45.02378,1007.989
2.031855583,-18.7559,-1.357823,-3.784971,-0.09909586,-0.146341,0.962727,-8.862604,21.99431,-45.02572,1007.989
2.066502571,-13.65717,-2.482338,-1.823786,-0.08928993,-0.1086292,0.9499325,-9.618226,22.38618,-45.02371,1007.989
2.098675728,-5.364065,-1.121083,-0.475472,-0.08266777,-0.1494737,0.944714,-9.618226,22.38618,-45.02371,1007.995
2.133323193,-1.002506,1.009578,-0.475472,-0.09871892,-0.1604679,0.956341,-9.234251,22.76763,-44.58123,1007.995
2.165495396,1.700432,0.7136529,-0.536759,-0.1096335,-0.1514267,0.9888113,-9.611933,23.15413,-44.58115,1007.995
2.200143337,1.884724,-0.5292324,-0.72062,-0.09587812,-0.1369042,0.9926586,-9.611933,23.15413,-44.58115,1007.995
2.232311726,0.5946848,0.2993578,-0.659333,-0.09216151,-0.1341925,0.9690284,-9.606413,22.77868,-44.13301,1007.997
2.264484406,2.007584,0.7136529,-0.536759,-0.0941359,-0.1298511,0.9642627,-9.233994,23.14876,-44.58309,1007.997
2.299132347,5.324827,1.068763,-0.659333,-0.09307017,-0.1384786,0.9791236,-9.233994,23.14876,-44.58309,1007.997
2.331305027,2.437597,0.06261775,-1.149629,-0.09817674,-0.1164536,0.9995967,-8.850276,23.14908,-44.13874,1007.997
2.365952015,-1.063936,-0.2924923,-0.72062,-0.08226485,-0.1234781,0.9801103,-8.857082,21.61886,-44.57758,1007.997
2.398125172,-0.9410755,-0.1149373,-0.3528979,-0.07946276,-0.1294099,0.9679853,-8.857082,21.61886,-44.57758,1007.997
2.432768345,-0.6339234,0.3585428,-0.475472,-0.09701238,-0.1389775,0.9748182,-8.851358,22.76713,-44.20063,1007.995
2.464941025,-1.248228,-0.1741223,-0.659333,-0.0885759,-0.1205153,0.9826037,-9.234509,22.38649,-44.57937,1007.995
2.499588966,-2.415406,-0.5292324,-0.7819071,-0.0934553,-0.1233919,0.9840716,-9.234509,22.38649,-44.57937,1007.991
2.531761646,-2.661127,-0.7659724,-0.72062,-0.1037829,-0.1369535,0.9811641,-9.233994,23.14876,-44.58309,1007.991
2.566408634,-4.6269,-0.8843424,-0.659333,-0.1009585,-0.1423815,0.971453,-9.228216,23.15445,-44.13681,1007.993
2.598581791,-3.02971,-1.061898,-0.1077498,-0.08396061,-0.1570479,0.9687635,-9.228216,23.15445,-44.13681,1007.993
2.633224964,0.2875328,-0.2924923,0.07611126,-0.09020466,-0.1535406,0.9789727,-8.850843,23.5294,-44.20435,1007.991
2.665397644,1.39328,-0.5292324,0.4438334,-0.08669005,-0.1413786,0.9848241,-8.845066,23.53508,-43.75807,1007.995
2.700045586,-0.3267713,-0.2924923,-0.04646279,-0.07805704,-0.1444608,0.9683301,-8.845066,23.53508,-43.75807,1007.995
2.732218266,1.454711,0.4769129,0.07611126,-0.09298731,-0.1301825,0.9849752,-9.223263,23.15932,-43.75428,1007.995
2.764390469,-0.572493,-0.2333073,-0.04646279,-0.09099898,-0.129192,0.9888207,-9.611675,23.53526,-44.58302,1007.995
2.799041748,-2.231114,-0.3516773,-0.659333,-0.08772485,-0.1419108,0.9780814,-9.611675,23.53526,-44.58302,1007.995
2.831211090,0.164672,-0.1741223,-0.2916109,-0.09366542,-0.1458272,0.9699106,-8.851358,22.76713,-44.20063,1007.994
2.865858078,-0.9410755,-0.2333073,-0.1690368,-0.09842142,-0.1384367,0.9811019,-9.606724,23.54013,-44.20049,1007.994
2.898030758,-0.9410755,-0.2924923,-0.2916109,-0.09414305,-0.1492003,0.9727793,-9.606724,23.54013,-44.20049,1007.994
2.932678699,-0.3267713,-0.3516773,-0.3528979,-0.08626108,-0.139984,0.9771197,-9.606155,23.15981,-44.13487,1007.992
2.964851379,-0.6953538,-0.05575228,-0.1077498,-0.09254786,-0.1350648,0.9815569,-9.229041,23.15363,-44.20056,1007.99
2.999498367,-0.572493,-0.1149373,-0.1077498,-0.09405391,-0.1442836,0.9810129,-9.611419,23.9164,-44.58488,1007.992
3.031667709,-0.01961928,-0.1741223,-0.1077498,-0.08576045,-0.1496463,0.9833013,-9.611419,23.9164,-44.58488,1007.996
3.066314697,-0.7567843,-0.5292324,-0.2916109,-0.0847122,-0.1341112,0.9843836,-9.984663,23.5455,-44.19855,1007.996
3.098487377,-1.432519,-0.2924923,-0.2303239,-0.07996447,-0.1386078,0.9708062,-9.600945,23.54582,-43.75421,1007.996
3.133135319,-1.125367,0.1218028,-0.1077498,-0.08483545,-0.1472796,0.9760821,-9.600945,23.54582,-43.75421,1007.996
3.165307999,-0.4496322,-0.1149373,-0.1077498,-0.09700993,-0.147196,0.9790885,-9.605898,23.54095,-44.13673,1007.994
3.199955940,-1.063936,-0.5292324,-0.3528979,-0.08627498,-0.146283,0.9785138,-9.611419,23.9164,-44.58488,1007.992
3.232124329,0.04181113,-0.1149373,0.01482423,-0.08825323,-0.1458136,0.9751621,-9.611419,23.9164,-44.58488,1007.992
3.266771317,0.2261024,-0.05575228,-0.2303239,-0.09014646,-0.1394641,0.9790882,-9.606724,23.54013,-44.20049,1007.992
3.298943996,0.164672,-0.05575228,-0.1077498,-0.09461122,-0.1385414,0.9699795,-9.223005,23.54045,-43.75614,1007.991
3.331117153,0.471824,0.1218028,0.07611126,-0.08531542,-0.1443685,0.9756286,-9.223005,23.54045,-43.75614,1007.989
3.365764618,1.024698,0.2401728,0.2599723,-0.08288769,-0.1472932,0.9755819,-9.222748,23.92158,-43.758,1007.987
3.397936821,1.208989,0.4177278,0.07611126,-0.09542879,-0.1364582,0.9878382,-9.229041,23.15363,-44.20056,1007.989
3.432580948,-0.2653409,0.1218028,-0.1690368,-0.0867046,-0.1351054,0.9800559,-9.229041,23.15363,-44.20056,1007.989
3.464753628,-0.0810497,0.06261775,0.07611126,-0.09023124,-0.1501797,0.9741806,-9.60146,22.78355,-43.75048,1007.989
3.499401093,1.516141,0.6544679,-0.1690368,-0.09453159,-0.1466896,0.9834075,-9.600945,23.54582,-43.75421,1007.989
3.531573773,2.499028,0.5952829,-0.659333,-0.08484499,-0.1593775,0.9808025,-9.600945,23.54582,-43.75421,1007.989
3.566221237,-7.698421,-3.606853,-2.743092,-0.1020786,0.01543255,1.168456,-9.601202,23.16469,-43.75235,1007.989
3.598393440,-147.6983,2.015723,-13.71347,-0.1139565,0.1588476,1.253617,-9.228784,23.53477,-44.20242,1007.988
3.633037567,-228.7251,-18.4031,-51.15984,-0.3356058,-0.7924001,1.12156,-9.228784,23.53477,-44.20242,1007.988
3.665210247,-105.4956,-41.18934,-93.20274,-0.28694,-1.007319,0.9771438,-9.18153,25.10478,-40.63962,1007.988
3.699857712,-127.4877,-67.7634,-159.3314,-0.4353979,-0.9939228,1.423043,-11.37603,32.0648,-35.3699,1007.988
3.732030392,-109.55,-97.4151,-208.2385,-0.07929547,-1.628766,0.9001931,-11.37603,32.0648,-35.3699,1007.992
3.766677857,-120.4847,-114.4012,-277.0025,-0.1080266,-0.641122,1.184789,-14.33578,33.694,-30.51654,1007.992
3.798874855,-143.9511,-88.77409,-318.6164,0.05043,-1.234854,0.6414683,-22.6504,33.11327,-25.56086,1007.992
3.831043244,-16.66726,-78.53508,-325.2967,0.04758915,-0.9302244,0.6787102,-22.6504,33.11327,-25.56086,1007.99
3.865690708,-15.80723,-76.58198,-320.1486,0.3104786,-0.2514628,0.623531,-32.02114,29.89606,-19.31159,1007.988
3.897863865,-28.09332,-54.15086,-297.7176,0.3362722,-0.1041291,0.4856891,-39.17489,21.26448,-16.68188,1007.986
3.932510853,8.949222,-26.57064,-260.1486,0.4064392,0.1125496,0.3682488,-39.17489,21.26448,-16.68188,1007.983
3.964683533,45.56174,-3.606853,-220.9862,0.4866431,0.3641739,0.3830708,-44.06641,10.69095,-14.37323,1007.981
3.999331474,22.95536,14.32621,-183.785,0.4174585,0.3297644,0.4711566,-45.20119,0.7397496,-13.87246,1007.981
4.031499863,39.54156,18.52834,-155.5929,0.5402609,0.4334105,0.4583332,-45.20119,0.7397496,-13.87246,1007.979
4.066147804,58.83072,10.18326,-120.2303,0.4759504,0.5072908,0.4932823,-45.22418,-7.662241,-15.17037,1007.978
4.098320484,76.95269,-3.429298,-92.03829,0.6082975,0.590383,0.4647764,-42.9554,-14.54917,-14.7022,1007.974
4.132967472,24.67541,-6.329364,-67.64605,0.5321409,0.6772184,0.5356109,-41.42939,-19.12719,-13.34876,1007.968
4.165140152,-23.42461,-6.447734,-56.36924,0.6547418,0.6037698,0.4683094,-41.42939,-19.12719,-13.34876,1007.968
4.199788094,-28.33904,-1.772118,-39.14758,0.6745112,0.5145143,0.4249732,-39.92572,-22.58455,-13.78603,1007.967
4.231956482,5.324827,3.968828,-25.8483,0.6743558,0.5171998,0.5213967,-38.79871,-24.13088,-14.23067,1007.965
4.266604424,-30.73483,14.7405,-23.58068,0.7187387,0.44829,0.5517444,-38.79871,-24.13088,-14.23067,1007.965
4.298777103,-45.17097,18.46916,-20.08732,0.6903499,0.4014096,0.6224768,-38.03809,-25.66046,-13.78081,1007.965
4.333424091,-10.15564,14.62213,-15.98109,0.7002509,0.3352779,0.6131632,-37.68352,-26.0697,-15.56601,1007.965
4.365597248,-3.889735,11.36695,-19.53574,0.6131014,0.3338859,0.7542267,-37.68352,-26.0697,-15.56601,1007.965
4.397769928,-27.78617,4.619864,-24.31612,0.5743528,0.3087152,0.8011348,-37.70002,-26.08595,-16.8411,1007.969
4.432413101,-9.04989,-2.363968,-20.14861,0.5414167,0.3352553,0.7597269,-36.56672,-26.86432,-16.84318,1007.965
4.464586258,11.46787,-5.855884,-12.97802,0.4913926,0.346361,0.7829392,-36.56672,-26.86432,-16.84318,1007.963
4.499233723,14.9694,-5.204848,-3.355962,0.5301878,0.3319215,0.7607682,-36.19425,-27.63683,-17.22392,1007.961
4.531406403,3.174762,2.370833,8.595008,0.5918637,0.440107,0.7307186,-35.81136,-27.63732,-16.84332,1007.961
4.566053867,9.747817,2.962683,16.13331,0.6148816,0.3922319,0.7055271,-35.81136,-27.63732,-16.84332,1007.961
4.598226547,26.33403,-2.600708,18.52351,0.6651868,0.3688089,0.7217346,-36.57219,-27.63146,-17.22198,1007.96
4.632869721,2.130445,-8.460024,14.84628,0.7074748,0.3675159,0.6442095,-36.9347,-27.99179,-16.00685,1007.96
4.665042877,-5.732648,-9.525354,9.024016,0.7514997,0.3891916,0.5880654,-36.9347,-27.99179,-16.00685,1007.96
4.699690342,0.2875328,-5.264033,3.324323,0.8621088,0.3653543,0.4634449,-36.55624,-27.2349,-16.01251,1007.958
4.731862545,-13.78003,9.354665,-7.462193,1.160046,0.4296193,0.1141551,-37.30584,-26.45621,-15.56608,1007.958
4.766510487,-52.91121,91.50346,-23.39682,1.261875,0.4476019,-0.3209284,-37.30584,-26.45621,-15.56608,1007.956
4.798683167,-67.90022,209.4592,-12.48773,1.073911,0.4176212,-0.4905314,-36.94466,-26.85895,-16.84124,1007.956
4.833327294,284.3418,61.61503,81.3427,-1.805052,3.119535,6.890301,-35.88539,-27.32928,-22.58308,1007.956
4.865499497,92.37173,-150.3857,-69.97496,3.319022,-1.242522,-1.394694,-35.88539,-27.32928,-22.58308,1007.954
4.897672176,186.0531,-115.8216,47.14455,-1.689948,1.528059,-0.01793176,-33.27866,-26.26244,-25.66241,1007.954
4.932319164,-242.854,30.18779,19.68796,1.094686,0.6402478,0.8877006,-30.98424,-28.17271,-23.49706,1007.957
4.964492798,15.768,-11.7152,11.41421,0.3427289,-0.3444292,0.6735556,-30.98424,-28.17271,-23.49706,1007.957
4.999139786,50.96762,-10.29476,11.41421,0.4353049,0.5177773,0.8200616,-31.76921,-29.71412,-25.65339,1007.957
5.031308174,-4.749761,-6.388549,11.04649,0.4398518,0.4676425,0.8046639,-31.76716,-26.66505,-25.66828,1007.957
5.065956116,-9.479902,-0.5292324,15.94945,0.5118324,0.29495,0.8011227,-31.76716,-26.66505,-25.66828,1007.957
5.098128796,19.51525,5.507639,23.18132,0.4736008,0.3365358,0.8191742,-32.51174,-27.02408,-24.76999,1007.957
5.132776737,15.27655,7.046449,29.06487,0.4040961,0.3975445,0.8810576,-32.5057,-26.63726,-24.32557,1007.957
5.164949417,20.37528,3.258608,41.75129,0.4666789,0.4616577,0.8641322,-32.5057,-26.63726,-24.32557,1007.957
5.199596405,11.83645,5.744379,57.68591,0.4725677,0.4945785,0.7939768,-32.88942,-26.63758,-24.76992,1007.957
5.231765747,-9.909915,11.78125,72.08836,0.3762683,0.5306904,0.7570951,-34.39489,-25.84815,-24.31962,1007.961
5.266412735,-0.572493,11.1894,85.81665,0.4513368,0.4035843,0.7505268,-34.77706,-23.56166,-24.77514,1007.961
5.298585415,1.823293,9.17711,97.03218,0.3401476,0.4559457,0.734162,-34.77706,-23.56166,-24.77514,1007.961
5.333233357,-22.07314,1.956538,102.3642,0.3705549,0.3342234,0.5786349,-35.91563,-22.02671,-25.22306,1007.962
5.365405560,8.887791,11.95881,116.4602,0.4949733,0.16869,0.6561212,-37.43059,-18.19959,-25.68021,1007.961
5.400053024,26.76404,6.277044,130.1885,0.3061274,0.376007,0.7314104,-37.43059,-18.19959,-25.68021,1007.959
5.432222366,-11.56854,5.211714,131.4142,0.5664568,0.2004666,0.6687301,-38.55054,-14.74191,-24.79859,1007.959
5.464394570,-8.189864,13.79354,136.6236,0.4737806,0.06846809,0.7379146,-40.07154,-11.3016,-25.70016,1007.959
5.499042034,-30.85769,11.66288,130.4949,0.6017694,0.1422754,0.9503726,-40.07154,-11.3016,-25.70016,1007.959
5.531215191,-83.87213,19.06101,131.5981,0.66517,-0.01270494,0.8463194,-40.44639,-6.722633,-25.72056,1007.957
5.565862179,-4.196887,13.32006,152.4357,0.6443546,-0.1399604,0.6955627,-40.82676,-1.768214,-26.1891,1007.955
5.598034859,50.84476,24.2101,159.1159,0.5923437,-0.1729186,0.7941042,-40.82676,-1.768214,-26.1891,1007.955
5.632678986,41.13876,41.01865,152.7421,0.5562267,-0.0436314,0.7309192,-40.82235,4.774578,-26.22104,1007.955
5.664851189,22.6482,55.69653,158.4418,0.4523791,-0.1905171,0.8135811,-38.94138,8.928834,-27.14374,1007.955
5.699499130,5.324827,52.85565,146.6747,0.2315194,-0.2613622,0.9885777,-38.94138,8.928834,-27.14374,1007.954
5.731671810,-68.57596,51.8495,130.3723,0.3360489,-0.1988523,0.8536398,-36.69453,12.30408,-28.95721,1007.958
5.766318798,-17.71158,51.13928,141.9556,0.2799177,-0.5436285,0.6705714,-33.30707,17.19345,-30.33765,1007.958
5.798491478,21.2353,54.69038,139.8718,0.1398877,-0.3177544,0.8549719,-33.30707,17.19345,-30.33765,1007.958
5.833135605,-19.06305,59.30682,128.5337,0.1321695,-0.3838456,0.8395571,-30.28046,21.7241,-30.37545,1007.958
5.865307808,-12.92001,61.79259,126.45,0.08666063,-0.47219,0.8093695,-26.14336,24.69219,-32.13298,1007.958
5.899955749,-36.26357,69.2499,111.6798,0.009637339,-0.4785044,0.8220862,-26.14336,24.69219,-32.13298,1007.958
5.932128429,-31.65628,77.5358,100.7094,-0.04891756,-0.6454123,0.7291946,-22.37924,27.67052,-33.50604,1007.958
5.964301109,29.52841,86.05844,99.60623,-0.09184897,-0.6220142,0.7775061,-17.84191,30.65516,-33.54414,1007.958
5.998948574,33.82854,95.52805,89.00358,-0.1697224,-0.4421099,0.8312898,-17.84191,30.65516,-33.54414,1007.956
6.031117439,31.61704,96.53419,75.15271,-0.322799,-0.466392,0.9197599,-12.88727,32.84854,-35.36588,1007.958
6.065764427,18.22521,93.27901,72.63995,-0.6497093,-0.7362703,1.463317,-9.136507,33.14756,-37.61848,1007.959
6.097937584,154.4779,2.015723,-13.1006,-0.9437212,-0.8392202,1.833941,-9.136507,33.14756,-37.61848,1007.959
6.132585049,-21.27454,18.7059,-55.51122,0.01044077,-0.05189893,0.9436855,-4.617997,32.68577,-38.91492,1007.965
6.164757729,53.11769,20.59982,-41.66035,-0.2741226,-0.6730061,0.6563586,-3.130895,30.35475,-40.69661,1007.965
6.199405193,136.9088,34.38992,-14.75535,-0.1359197,0.009346098,0.8607243,-3.130895,30.35475,-40.69661,1007.965
6.231574059,40.52445,34.74503,-4.581703,-0.2618767,0.1746694,1.006898,-4.270493,30.36517,-41.13709,1007.967
6.266222000,-6.162661,36.22466,-0.04646279,-0.3159946,-0.1198442,0.9230353,-4.307733,26.51973,-43.79617,1007.967
6.298394203,0.5332544,38.35532,2.711453,-0.3965265,-0.1358972,0.9294385,-3.931336,24.22756,-43.78693,1007.967
6.333041668,-0.7567843,29.30001,-0.1077498,-0.527034,-0.1790024,0.9833208,-3.931336,24.22756,-43.78693,1007.967
6.365214825,-1.063936,16.45687,-9.7911,-0.4269804,-0.1925422,0.9914335,-2.419321,24.58722,-43.79653,1007.967
6.399861813,-5.609787,11.78125,-14.20376,-0.4601284,-0.1825989,0.8746989,-1.652143,24.20672,-42.90598,1007.969
6.432030678,-2.231114,5.330084,-14.38763,-0.3966846,-0.1746892,0.8712802,-1.652143,24.20672,-42.90598,1007.973
6.466678619,-2.353975,8.407704,-15.36822,-0.4099423,-0.2138299,0.8223993,-1.651886,24.58785,-42.90784,1007.973
6.498850823,-2.599697,14.38539,-11.13941,-0.4694061,-0.2444176,0.845838,-1.26791,24.9693,-42.46535,1007.973
6.531023502,8.580639,11.72206,-7.339619,-0.4490541,-0.2156733,0.872877,-1.26791,24.9693,-42.46535,1007.973
6.565671444,-9.848485,9.946515,-10.15882,-0.5150626,-0.1318436,0.875148,-1.279981,24.19567,-43.35419,1007.973
6.597844124,-22.44172,6.809709,-9.36209,-0.6099767,-0.2210175,0.8314366,-1.640587,24.21809,-42.01342,1007.974
6.632487297,-24.65322,2.074908,-7.952489,-0.4958168,-0.2312467,0.774375,-1.640587,24.21809,-42.01342,1007.974
6.664660454,-13.65717,11.30777,-3.784971,-0.5357111,-0.195637,0.7716669,-0.5062532,24.96425,-42.02294,1007.973
6.699307442,-2.292545,14.68132,6.572536,-0.5990555,-0.2784096,0.8231494,-0.4999609,25.7322,-41.58038,1007.973
6.731480122,-9.17275,10.42,21.46528,-0.5579402,-0.1503922,0.8339432,-0.4999609,25.7322,-41.58038,1007.973
6.766128063,-47.62819,12.60984,39.85139,-0.6477323,-0.06193775,0.7911664,1.011798,25.71073,-41.58812,1007.977
6.798350334,-63.23151,11.54451,60.5664,-0.7140127,-0.2712486,0.6705234,2.163466,26.47394,-40.2588,1007.977
6.832993508,-46.89103,13.32006,80.30082,-0.7050222,-0.2256115,0.6149037,2.163466,26.47394,-40.2588,1007.974
6.865166187,-75.51759,25.51217,97.58376,-0.7423671,-0.2724555,0.4326703,4.449723,28.36445,-38.94086,1007.978
6.899814129,-67.16306,37.2308,114.928,-0.7697144,-0.4720143,0.4688762,8.257699,29.10065,-36.79628,1007.978
6.931986809,-101.1341,53.32913,120.9341,-0.8071905,-0.4422021,0.4082578,8.257699,29.10065,-36.79628,1007.977
6.966634750,-126.382,70.55196,123.5082,-0.8595194,-0.6982254,0.3444574,12.81712,30.5835,-35.0418,1007.975
6.998806953,-100.8269,90.37894,129.2692,-0.8071307,-0.6751158,0.3537991,18.53847,30.93527,-31.05614,1007.975
7.033450127,-135.9651,115.4142,124.1823,-0.89184,-0.7407222,0.3516386,18.53847,30.93527,-31.05614,1007.971
7.065622807,-124.4162,135.8922,114.8054,-0.8585654,-0.8577906,0.360967,24.34484,30.92694,-25.34758,1007.971
7.097795963,-104.3899,147.9068,98.38049,-0.8412489,-0.7145612,0.3778922,30.84886,29.38992,-19.18884,1007.971
7.132443428,-69.55885,157.6723,78.46221,-0.6583017,-0.7913243,0.2343265,30.84886,29.38992,-19.18884,1007.973
7.164615631,-36.81644,163.8867,65.89837,-0.4166959,-0.5402438,0.4086258,36.6135,27.87987,-11.75115,1007.971
7.199263573,-1.125367,157.8499,67.12411,-0.05108029,-0.1882127,0.5989882,40.0877,25.61785,-6.019492,1007.974
7.231432438,-40.25654,76.58884,62.22115,-0.4053172,-0.3039945,1.533044,40.0877,25.61785,-6.019492,1007.974
7.266080380,17.11947,-61.0755,80.97498,-0.6799495,-0.03437684,2.520144,43.17241,23.34982,-1.178467,1007.974
7.298572064,-93.51671,-68.29607,64.85649,-1.286476,-0.04358571,-0.1994971,45.08316,20.29665,0.6118717,1007.974
7.333219051,37.08435,-28.93804,69.88203,-1.6341,0.637209,0.4971723,46.55794,16.81087,-2.0568,1007.974
7.365391731,-13.78003,-33.61366,41.69,-1.275815,-0.106758,0.1127002,46.55794,16.81087,-2.0568,1007.974
7.400039673,-8.128433,-26.51145,35.13229,-1.067497,-0.05669725,0.255769,48.04452,13.71758,-3.834772,1007.974
7.432208061,-3.336862,-15.62141,29.8616,-0.9342612,0.01176639,0.2820821,48.78891,12.55289,-4.661864,1007.974
7.466856003,5.447688,-11.12335,19.38152,-0.9201382,0.1886188,0.2511144,48.78891,12.55289,-4.661864,1007.978
7.499028683,7.966335,-7.868174,14.84628,-0.909288,0.08957505,0.2545346,48.77658,11.39812,-5.548843,1007.976
7.533675671,1.086128,-5.619143,13.00767,-0.8981534,-0.004820356,0.2314805,48.39235,10.63553,-5.989468,1007.978
7.565848827,1.946154,-5.027294,14.11084,-0.9221599,0.1320249,0.2121067,48.39235,10.63553,-5.989468,1007.978
7.598021507,2.069015,-6.743659,13.00767,-0.9623775,0.09722285,0.2049651,49.5196,9.470345,-6.435967,1007.978
7.632664681,-7.268408,-3.251743,8.043425,-0.9174551,0.05350316,0.2292494,49.14141,9.09458,-6.432173,1007.978
7.664837837,-5.916939,0.4177278,9.5756,-0.9421254,0.08570262,0.2977071,49.14141,9.09458,-6.432173,1007.976
7.699485302,-3.214001,1.542243,12.63995,-0.9907825,0.121375,0.2974912,49.13538,8.70776,-6.876593,1007.978
7.731657982,-0.8182147,-0.5884174,12.94639,-0.9960702,0.1093855,0.3128656,49.5128,7.940125,-6.874805,1007.976
7.766305447,0.2261024,-7.335509,15.52044,-0.9566196,0.09613756,0.1938164,49.5128,7.940125,-6.874805,1007.982
7.798478127,-0.9410755,2.252463,11.4755,-0.9129915,0.1232178,0.1459146,49.50676,7.553307,-7.319226,1007.982
7.833121300,-1.493949,7.460744,7.736989,-0.9433706,0.1806884,0.2777758,49.50624,6.79104,-7.315504,1007.98
7.865294457,-1.67824,3.909643,6.511249,-1.053003,0.1659484,0.2468652,49.50624,6.79104,-7.315504,1007.98
7.899941921,-5.855508,-4.553813,1.914722,-0.9978361,0.1023857,0.2222085,49.88392,6.404538,-7.315578,1007.978
7.932114601,-2.415406,-13.54994,-1.578638,-1.05063,0.08854172,0.218249,49.13383,6.420959,-6.865429,1007.976
7.966762066,-2.476836,-24.43998,-9.239516,-0.8853962,0.2417625,0.1784464,49.13383,6.420959,-6.865429,1007.976
7.998934746,-5.916939,-25.74205,-18.06485,-0.899407,0.0886696,0.2693769,49.88341,5.642271,-7.311856,1007.975
8.033578873,-5.179774,-31.83811,-21.25177,-0.9235399,0.2752075,0.21089,49.48891,6.773985,-8.654346,1007.975
8.065751076,-1.248228,-33.79121,-23.09038,-0.935774,0.01463071,0.2748899,49.48891,6.773985,-8.654346,1007.977
8.100399017,-1.125367,-39.65053,-26.7676,-0.8829117,0.2953549,0.3321409,49.47736,6.762616,-9.546907,1007.973
8.132571697,3.973358,-35.62595,-32.22215,-0.7683386,0.2284404,0.3517281,49.07187,7.502638,-11.71634,1007.968
8.164744377,12.9422,-31.36463,-33.93819,-0.9008695,0.09347654,0.3253421,49.07187,7.502638,-11.71634,1007.968
8.199391842,4.526231,-31.36463,-36.51224,-0.8456731,0.2527166,0.4288058,47.92175,9.026224,-13.05683,1007.968
8.231560707,9.932108,-28.87885,-34.98006,-0.8332477,0.05809488,0.3755114,47.53302,10.16362,-13.95304,1007.971
8.266207695,-4.074027,-23.01954,-36.02195,-0.8347838,0.07153916,0.4185345,47.53302,10.16362,-13.95304,1007.973
8.298380852,1.823293,-16.50919,-37.6767,-0.7765158,0.1361905,0.4686517,46.76662,11.68752,-14.84917,1007.973
8.333028317,24.98256,-3.725223,-40.92491,-1.204406,-0.2261843,0.5964229,46.37841,13.58719,-15.7491,1007.973
8.365200996,-2.599697,-9.525354,-48.76965,-0.8453215,0.2661675,0.3479375,46.37841,13.58719,-15.7491,1007.975
8.399848461,9.072083,-1.535378,-49.68895,-0.7651488,-0.3162436,0.5303677,45.62407,15.88473,-15.7564,1007.977
8.432017326,13.06506,-2.186413,-48.76965,-1.048848,-0.0573633,0.5592491,45.24665,16.65236,-15.75819,1007.977
8.466665268,-39.94939,-9.82128,-50.11796,-0.9033253,-0.1932821,0.4622988,44.1136,17.81187,-15.75797,1007.977
8.498837471,6.307714,-17.10104,-45.88916,-0.8867863,-0.1402199,0.430288,44.1136,17.81187,-15.75797,1007.977
8.533484936,-7.084117,-28.93804,-39.76045,-0.7475311,-0.2542391,0.2738088,42.98158,20.49591,-15.76519,1007.977
8.565658093,-10.58565,-26.68901,-30.32225,-0.7214465,-0.2247437,0.4020204,41.83698,21.64404,-16.65753,1007.977
8.600305081,-22.74887,-16.45,-15.0005,-0.7755099,-0.3506291,0.533555,41.83698,21.64404,-16.65753,1007.973
8.632473946,5.079105,-11.12335,-11.87486,-0.8463756,-0.2353597,0.5814384,40.69345,23.17413,-17.48798,1007.973
8.664647103,-4.135457,-6.566104,-13.28446,-0.8254567,-0.1426404,0.4706657,40.68876,23.55039,-17.87237,1007.973
8.699294090,-4.811192,1.246318,-13.59089,-0.7256175,-0.3187796,0.4157441,40.68876,23.55039,-17.87237,1007.973
8.731466770,-5.794078,9.76896,-17.94227,-0.8761224,-0.269489,0.5423927,39.93835,24.32827,-17.4897,1007.977
8.766114712,-3.09114,10.18326,-25.54186,-0.8663712,-0.2970341,0.4384447,39.94356,24.71427,-17.10903,1007.977
8.798287392,-17.40443,12.96495,-19.78088,-0.7041939,-0.4271748,0.3462066,39.94356,24.71427,-17.10903,1007.977
8.832931042,2.437597,14.91806,-13.83604,-0.844993,-0.3393336,0.5058584,39.56092,25.0959,-17.49148,1007.977
8.865103722,0.471824,9.65059,-14.38763,-0.8390831,-0.2817316,0.4262663,39.21182,26.27228,-15.32748,1007.977
8.899750710,-13.59574,7.164819,-4.949425,-0.7159826,-0.3919607,0.4362589,39.21182,26.27228,-15.32748,1007.977
8.931923866,6.676296,4.619864,2.77274,-0.8773702,-0.266309,0.4503686,38.4562,26.66415,-15.32548,1007.977
8.966571331,1.208989,-2.068043,4.917786,-0.8322029,-0.3556703,0.4096865,39.20681,27.41,-15.77935,1007.977
8.998744011,-7.022686,-3.547668,9.75946,-0.7538482,-0.3504882,0.4398461,39.20681,27.41,-15.77935,1007.978
9.033387661,-2.599697,-4.849739,12.63995,-0.8856869,-0.2851458,0.4570389,39.21259,27.41568,-15.33307,1007.982
9.065560341,-3.766875,-9.584539,10.80134,-0.8336374,-0.3029645,0.4458024,39.20681,27.41,-15.77935,1007.982
9.100208282,-4.074027,-11.53765,12.27223,-0.6633335,-0.1858626,0.4461427,39.20681,27.41,-15.77935,1007.984
9.132380486,4.956244,-9.111059,16.99133,-0.8608079,-0.3515264,0.4880715,38.8281,26.27197,-15.77183,1007.984
9.167027950,-8.98846,-13.25401,15.39787,-0.8886235,-0.2686979,0.4480439,39.58347,25.49896,-15.77198,1007.984
9.199201107,-10.15564,-15.20712,15.82688,-0.7412592,-0.3027678,0.4049361,39.58347,25.49896,-15.77198,1007.984
9.231369495,-7.821282,-12.8989,18.95251,-0.7973186,-0.3198804,0.478582,39.95011,25.86336,-16.66833,1007.984
9.266016960,-13.47288,-13.25401,18.70737,-0.8079412,-0.252508,0.4594746,40.33331,25.10141,-16.22026,1007.984
9.298190117,0.3489632,-12.78053,19.56538,-0.8178346,-0.2168342,0.4844429,40.33331,25.10141,-16.22026,1007.986
9.332837105,-14.45577,-11.89275,18.76865,-0.8075832,-0.2618538,0.5066301,39.94934,24.71996,-16.66275,1007.986
9.365009785,-14.64006,-13.66831,14.785,-0.8144531,-0.2642723,0.5033002,40.31577,23.56063,-17.48791,1007.986
9.399657726,-36.38643,-17.75207,10.24976,-0.7303643,-0.3389816,0.4994898,40.31577,23.56063,-17.48791,1007.984
9.431826115,-11.50711,-17.21941,14.41727,-0.779767,-0.3015694,0.4096433,40.69371,23.55526,-17.48984,1007.984
9.466474056,-6.0398,-13.3132,14.04955,-0.8365288,-0.2352918,0.5336291,40.32072,23.5655,-17.10538,1007.982
9.498646736,-11.6914,-10.76824,18.03321,-0.785932,-0.1505764,0.4740875,40.32072,23.5655,-17.10538,1007.984
9.533293724,-2.599697,-3.606853,22.3233,-0.8034616,-0.3467461,0.5155318,40.69371,23.55526,-17.48984,1007.984
9.565466881,0.5946848,-1.653748,25.26508,-0.7476095,-0.1921169,0.5249614,40.69345,23.17413,-17.48798,1007.984
9.600114346,-6.838395,1.956538,28.88101,-0.7653048,-0.2124555,0.5196568,41.44908,22.78226,-17.48999,1007.984
9.632283688,-23.97748,7.934225,36.23545,-0.7010292,-0.1679305,0.4813462,41.44908,22.78226,-17.48999,1007.984
9.666930676,-13.65717,20.06715,43.03831,-0.759327,-0.2714065,0.6208169,41.83146,22.01949,-17.10567,1007.984
9.699103356,-13.53431,19.12019,41.44485,-1.012682,-0.2088134,0.580799,42.59209,20.48991,-16.65582,1007.984
9.731276512,-17.52729,21.31004,40.95456,-0.9010588,-0.1587097,0.5411286,42.59209,20.48991,-16.65582,1007.984
9.765923500,-1.67824,28.41224,37.89021,-0.7852393,-0.1823082,0.5138254,43.74221,18.96632,-15.31534,1007.984
9.798096180,-5.548357,38.23695,33.04853,-0.7892801,-0.1307087,0.5306765,44.13697,18.21574,-13.97471,1007.984
9.832740307,4.894814,39.00636,30.04547,-0.9043484,-0.03816925,0.4978091,44.13697,18.21574,-13.97471,1007.988
9.864912510,3.420484,39.83495,27.47141,-0.8925798,-0.1502517,0.3844694,44.91519,17.08434,-12.18787,1007.988
9.899560451,0.7789761,49.06781,27.16498,-0.9034366,-0.1213315,0.4142111,46.07026,15.56563,-10.46486,1007.988
9.931733131,4.771953,50.6658,27.77785,-0.9839815,-0.08275309,0.3926267,46.07026,15.56563,-10.46486,1007.986
9.966380119,-1.063936,44.68812,28.08428,-0.987468,-0.03875817,0.304816,47.22694,15.19113,-8.68368,1007.986
9.998553276,-5.548357,43.85953,30.41319,-0.950563,-0.1039067,0.3145386,47.26058,13.70071,-5.998552,1007.988
10.033196449,-15.62294,43.50442,32.49695,-0.9399342,-0.04502454,0.215151,47.26058,13.70071,-5.998552,1007.988
10.065369129,-23.36318,40.0125,33.35497,-0.953774,-0.05437925,0.3149769,47.65559,13.33126,-4.659784,1007.988
10.100017071,-26.80328,35.33688,31.39378,-1.013804,-0.02458953,0.2998766,48.06635,11.83466,-2.040345,1007.988
10.132189751,-20.23022,23.55907,30.10675,-1.021848,0.01153931,0.1961376,48.06635,11.83466,-2.040345,1007.988
10.166837692,-29.93623,22.73048,26.06181,-0.9395702,-0.04272195,0.1992606,48.84432,10.32212,-0.2516479,1007.988
10.199009895,-2.415406,22.31618,23.91676,-0.9217217,2.030283E-07,0.2119782,48.86691,9.582596,1.537195,1007.988
10.233653069,6.000561,23.49988,16.68489,-0.9013414,0.1447893,0.2443116,48.86691,9.582596,1.537195,1007.988
10.265826702,-9.479902,26.87343,16.1946,-0.9094841,0.1899792,0.1825822,48.12181,8.461303,2.439209,1007.988
10.297998905,-18.69446,27.05099,20.79112,-0.8587254,0.06021195,0.1299469,48.51023,8.085358,3.267941,1007.985
10.332646370,-9.725624,34.68585,17.35905,-0.9427201,-0.108191,0.2045342,48.51023,8.085358,3.267941,1007.985
10.364819527,2.069015,6.395414,2.405018,-1.057997,0.09615963,0.3832243,48.53308,7.726964,5.054924,1007.985
10.399466515,-7.391269,-22.96035,-4.091406,-0.9651282,0.1517804,0.6064641,48.55016,7.362885,6.395626,1007.985
10.431635857,56.86494,-59.83261,3.263036,-0.8279476,0.1495484,0.8461654,48.55016,7.362885,6.395626,1007.986
10.466283321,84.81578,-74.56969,-3.907545,-0.5046217,0.2168243,0.1481778,48.53835,6.970382,5.504927,1007.989
10.498455525,4.833384,-12.83972,-4.888138,-0.3334892,0.3110992,-0.6715589,47.75383,7.333828,3.27553,1007.989
10.533103466,30.01985,137.6678,-20.08732,-1.008249,0.5738433,-0.8973485,47.75383,7.333828,3.27553,1007.989
10.565276146,-60.28286,99.31589,-30.32225,-1.522451,0.1446618,0.1421383,48.11552,7.693351,1.996649,1007.989
10.599924088,-32.45488,73.62959,-38.65729,-0.9616551,-0.3846099,0.3499239,47.41634,7.378991,6.401428,1007.989
10.632092476,31.37132,65.16613,-30.38354,-1.011307,0.1111487,-0.2239251,47.07987,8.948688,9.519884,1007.987
10.666739464,-10.76994,92.1545,-25.8483,-0.8717174,0.05010492,-0.3081528,47.07987,8.948688,9.519884,1007.987
10.698913098,-25.45181,94.81783,-22.23236,-1.09802,-0.1685689,0.3944294,45.608,9.390278,12.58597,1007.987
10.733560085,16.50516,52.61891,-23.0291,-1.116829,-0.09722259,-0.3109362,44.51565,10.97071,15.70829,1007.987
10.765732765,-4.074027,82.44816,-16.65525,-0.8029962,0.3412398,-0.4013478,44.51565,10.97071,15.70829,1007.987
10.797905922,-19.3702,81.85631,-14.81664,-1.167666,-0.2558456,0.04635608,43.41015,11.39556,17.87988,1007.983
10.832549095,1.33185,64.21917,-18.739,-1.044671,-0.09276706,-0.3790527,41.9504,11.4682,21.90414,1007.983
10.864721775,19.14667,70.49278,-13.16189,-1.092546,-0.0156523,-0.4806361,41.9504,11.4682,21.90414,1007.983
10.899369717,-5.978369,61.08237,-9.055655,-1.074934,-0.06186184,-0.1042578,40.83417,11.88249,23.24693,1007.982
10.931541920,-8.251294,37.46754,-4.091406,-1.028627,-0.1495164,-0.3006223,38.59511,12.70458,25.42245,1007.982
10.966189861,-14.39434,33.97563,0.4438334,-0.9465987,-0.1091882,-0.4311951,38.59511,12.70458,25.42245,1007.98
10.998362541,-26.4347,31.96334,2.405018,-0.9080408,-0.01087531,-0.2456566,37.10069,12.74311,26.76904,1007.98
11.033005714,-68.26881,21.13248,6.572536,-1.119426,-0.04047908,-0.06655242,36.36189,12.38977,28.1136,1007.978
11.065178871,-98.00113,5.921934,-3.233388,-1.301391,-0.01943478,-0.4763086,36.36189,12.38977,28.1136,1007.978
11.099826336,-98.12399,-1.712933,-13.34575,-1.2625,-0.01065087,-0.3821271,35.23885,11.27384,29.01754,1007.982
11.131999493,-182.0379,-23.31546,-16.47138,-1.218522,0.4579473,-0.1371926,34.87588,9.008656,30.30573,1007.979
11.166646481,-278.2994,-61.25306,-43.49896,-1.065527,-0.03009186,-0.5104092,34.87588,9.008656,30.30573,1007.977
11.198819161,-155.5614,-57.34685,-63.72368,-0.9857709,-0.3531305,-0.6193745,34.50769,6.357459,31.21326,1007.973
11.233462811,-49.53254,-62.20002,-87.38048,-1.136007,-0.1027674,-0.03509925,34.49224,0.5655646,30.34892,1007.973
11.265635490,-61.08145,-91.9109,-100.4346,-1.134524,0.008873004,0.02943121,34.49224,0.5655646,30.34892,1007.972
11.300283432,-100.7655,-117.7747,-105.3376,-0.9375209,0.2210142,-0.09115799,36.35888,-0.6266057,28.62346,1007.968
11.332456112,-98.92258,-107.1806,-107.0536,-0.8848032,-0.07261153,-0.1798665,37.45879,0.4665799,25.93439,1007.965
11.364628315,-52.17404,-106.7663,-107.6052,-0.904848,-0.0455408,-0.08112837,37.45879,0.4665799,25.93439,1007.965
11.399276257,-48.30392,-103.0969,-106.5633,-0.8168225,-0.02162898,-0.07066662,39.30416,1.983127,22.41048,1007.965
11.431444645,-31.59485,-88.24142,-98.77986,-0.7677506,-0.09944074,-0.05875201,41.53842,3.822474,19.71189,1007.961
11.466092110,-11.93712,-76.93709,-85.41929,-0.7544491,-0.1221571,0.0252865,41.53842,3.822474,19.71189,1007.959
11.498265267,-8.312725,-64.21231,-68.50407,-0.6813645,-0.114925,0.06611612,41.87772,6.445246,16.57296,1007.958
11.532912731,-14.02575,-46.98947,-45.58272,-0.7073295,-0.1584099,0.07515791,42.60759,9.455965,14.38656,1007.958
11.565084934,1.516141,-37.93416,-25.78701,-0.7366272,-0.3057322,0.08626674,42.60759,9.455965,14.38656,1007.954
11.599732876,10.36212,-27.5176,-13.83604,-0.7732071,-0.2833256,0.1359567,42.20757,10.96313,12.59593,1007.954
11.631901264,7.106308,-22.07258,-11.62971,-0.8157755,-0.3195225,0.1982335,42.56895,12.08411,11.24957,1007.951
11.666549206,14.66225,-16.62756,-9.36209,-0.9007649,-0.364665,0.2690262,42.93007,12.82395,9.905075,1007.953
11.698721886,12.81934,-23.37465,-11.13941,-0.875554,-0.290025,0.2713344,42.93007,12.82395,9.905075,1007.951
11.733369827,-7.882712,-20.94806,-10.46526,-0.7921135,-0.256112,0.2539653,42.92511,12.81907,9.522549,1007.951
11.765542507,-14.88578,-16.8643,-7.952489,-0.8112437,-0.3291258,0.2776419,42.92563,13.58134,9.518827,1007.951
11.800189495,2.990471,-20.29703,-4.82685,-0.8382569,-0.3480096,0.2661703,42.92563,13.58134,9.518827,1007.953
11.832358837,4.956244,-23.5522,-0.414185,-0.7739163,-0.2705801,0.2777763,43.28649,13.94005,8.176189,1007.951
11.867005825,7.167739,-20.4154,5.959665,-0.7698581,-0.314464,0.3173826,43.27493,13.92868,7.283628,1007.951
11.899178505,14.23224,-20.23784,12.21094,-0.7919511,-0.3043585,0.354786,43.27493,13.92868,7.283628,1007.949
11.931351662,20.621,-24.67672,18.27836,-0.8072299,-0.3068385,0.3380381,43.26337,13.91731,6.391068,1007.948
11.965999126,27.62407,-24.55835,25.69409,-0.9100749,-0.3057702,0.4103425,44.01296,13.13863,5.944641,1007.948
11.998171329,49.61615,-33.79121,28.452,-1.009847,-0.2054905,0.509946,44.01296,13.13863,5.944641,1007.948
12.032815456,61.10364,-41.48526,25.81666,-0.9700021,-0.02220003,0.5751913,43.98933,12.35362,4.16324,1007.948
12.064987659,47.77324,-32.66669,29.06487,-0.9839314,0.03212033,0.7497709,44.34422,11.18292,2.445522,1007.946
12.099635601,27.74693,-43.79348,42.1803,-1.101206,-0.1033228,0.7969846,44.34422,11.18292,2.445522,1007.946
12.131808281,30.63416,-55.5713,65.95966,-1.085728,-0.2750804,0.6893843,44.69905,11.15481,0.6584644,1007.946
12.166455746,47.46609,-67.52666,79.4428,-0.823465,-0.4090605,0.6043746,45.43027,8.834537,-1.119361,1007.944
12.198628902,7.106308,-59.59587,73.92697,-0.6488813,-0.4830547,0.6257536,45.43027,8.834537,-1.119361,1007.944
12.233272076,-8.251294,-52.43449,46.71553,-0.2234004,-0.8819249,0.3471293,45.77777,6.513943,-3.341534,1007.944
12.265445232,61.41079,-68.47363,22.44588,0.4387688,-1.145706,0.1782702,46.12585,3.813028,-5.498091,1007.944
12.300092220,91.5117,-80.60656,-5.194573,1.027588,-0.9165049,-0.2470841,46.12585,3.813028,-5.498091,1007.944
12.332264900,68.84388,-61.19387,-38.90244,1.396013,-0.8076816,-0.1855188,45.71196,1.878619,-8.164537,1007.944
12.366912842,70.07249,-92.14764,-90.87383,1.050797,-1.036145,-0.3890308,45.28836,1.458187,-11.66723,1007.942
12.399085522,44.456,-47.40376,-112.0791,0.2409187,-0.7142075,0.1769256,45.28836,1.458187,-11.66723,1007.941
12.431253910,-29.75194,-38.5852,-89.21909,-0.9036544,-1.163175,0.9507656,44.88256,2.959666,-13.90414,1007.941
12.465901852,-230.0765,32.20008,-116.7982,-2.525901,-0.9639863,0.4325255,43.73924,6.013469,-14.80579,1007.941
12.498074532,-307.4788,88.07073,-146.5837,-4.137069,-2.483295,1.774992,43.73924,6.013469,-14.80579,1007.941
12.532721996,27.93122,7.579114,-212.5899,-3.744669,0.1505145,0.8541093,41.8923,9.510307,-11.6889,1007.939
12.564894676,-106.1099,29.3592,-216.1445,-1.989642,0.5339281,1.792843,41.96018,17.1947,-6.880786,1007.939
12.599542141,156.4436,56.93941,-122.9882,-1.064793,1.053838,1.202388,41.96018,17.1947,-6.880786,1007.942
12.631711006,175.1185,11.84044,7.062832,-0.7202669,0.9965208,0.4742555,38.21405,23.75608,-4.661677,1007.946
12.666358471,209.8267,15.68746,122.6502,0.6636241,0.8908688,0.6315812,34.40937,29.11721,-6.899792,1007.948
12.698531628,-216.1932,20.71819,126.879,-0.5557733,-0.8430488,1.02053,34.40937,29.11721,-6.899792,1007.948
12.733178616,-159.8001,-19.58681,42.91574,-1.087705,-3.062566,0.06006712,34.72329,27.14445,-11.73775,1007.951
12.765351296,95.87326,-55.5713,-93.99947,-0.5837129,-1.938116,-0.2655352,37.7836,22.94802,-8.672547,1007.953
12.799999237,126.1585,10.77511,-85.90958,0.2366539,-0.3558575,0.1929337,38.5224,23.30136,-10.01712,1007.956
12.832167626,-53.21836,34.98177,-48.46321,-0.599331,0.3151999,0.4448563,38.5224,23.30136,-10.01712,1007.958
12.866815567,8.334917,87.59725,44.08019,0.006396472,0.1795872,0.1175565,35.48943,25.23941,-10.83976,1007.958
12.898988247,38.55868,162.703,106.0414,-0.803796,0.1143846,0.8336002,35.513,27.16701,-9.127693,1007.962
12.931160927,-71.8932,132.8738,58.6665,-2.210317,-0.5891403,1.22074,35.513,27.16701,-9.127693,1007.965
12.965808392,42.30593,28.05713,-18.739,-1.165878,-1.047533,0.2938264,37.83662,24.52371,-4.663465,1007.969
12.997981071,94.89037,44.39219,-11.87486,-0.5266399,0.1568408,1.041998,39.75888,22.6245,-2.049901,1007.972
13.032624245,-77.29908,54.80875,53.88612,-0.414774,0.2564915,0.2517784,39.75888,22.6245,-2.049901,1007.972
13.064797401,-18.01873,79.25217,94.70327,-0.8560036,-0.9387448,0.124096,39.3812,23.011,-2.049828,1007.976
13.099444866,204.7894,54.15772,25.69409,-1.3155,-0.4814358,0.9727607,40.18227,21.52121,1.523991,1007.977
13.131618023,-20.35309,18.23242,4.733925,-0.8538174,0.02100463,0.9658468,40.18227,21.52121,1.523991,1007.981
13.166265011,-91.98095,36.63895,19.07509,-0.6890816,-0.5297059,0.2777404,40.55867,19.22904,1.533222,1007.984
13.198437691,138.0145,25.21625,14.35599,-1.058489,-0.5120219,0.444731,41.33162,18.85423,2.870058,1007.988
13.233081818,0.9632673,-6.033439,-14.75535,-1.025247,-0.265104,0.4483844,41.33162,18.85423,2.870058,1007.988
13.265254021,-54.99984,11.30777,-0.2303239,-0.9092161,-0.3029054,0.2787723,41.32533,18.08627,2.4275,1007.992
13.299901962,15.33798,4.028014,-4.765563,-0.9337301,-0.5170345,0.2526537,40.57492,18.86415,2.810169,1007.997
13.332074642,6.737726,5.507639,-1.456064,-0.8782931,-0.3749841,0.3930874,40.57492,18.86415,2.810169,1007.999
13.366721630,-10.40136,1.542243,5.408082,-0.8258244,-0.3266562,0.3997442,40.95342,18.47846,2.873852,1008.001
13.398894787,-14.02575,-5.204848,5.530656,-0.9927096,-0.4524396,0.3457985,40.95317,18.09732,2.875713,1008.001
13.433538437,-1.862532,-6.270179,3.569472,-0.8512021,-0.3080817,0.2743323,40.95317,18.09732,2.875713,1008.001
13.465710640,10.30069,3.672904,10.74005,-0.8370216,-0.3507548,0.414592,41.33136,18.47309,2.871918,1008.003
13.497883797,-8.435585,-7.808989,9.882035,-0.9580978,-0.4387701,0.5673079,40.95342,18.47846,2.873852,1008.003
13.532531262,-19.86164,-5.323218,10.74005,-0.8127277,-0.4205687,0.3776398,40.95342,18.47846,2.873852,1008.004
13.564703941,18.96238,1.009578,12.82381,-0.8154313,-0.3134814,0.3525199,41.714,18.09146,3.254372,1008.004
13.599351406,14.60082,0.3585428,11.78193,-0.942659,-0.2489288,0.3961732,40.95761,17.33993,3.261961,1008.006
13.631520271,-4.934052,-1.357823,9.698174,-0.8408253,-0.2897518,0.4551364,40.95761,17.33993,3.261961,1008.004
13.666168213,12.38933,-2.837448,8.043425,-0.8712714,-0.3941509,0.3668359,41.70276,17.31864,2.429287,1008.006
13.698340416,15.03083,-5.441588,9.14659,-0.824549,-0.1518577,0.4088853,41.70802,16.56206,2.879288,1008.008
13.732988358,-19.49306,-0.1149373,9.820748,-0.8647216,-0.3775539,0.3832996,41.70802,16.56206,2.879288,1008.008
13.765161038,9.747817,-3.666038,4.611351,-0.8995103,-0.3910874,0.4312305,41.70802,16.56206,2.879288,1008.008
13.799808026,6.492004,-8.874319,4.795212,-0.7958249,-0.1153484,0.4412123,42.84628,15.78856,3.259735,1008.008
13.831977368,-18.5716,-4.494628,7.30798,-0.7893713,-0.1587639,0.4171761,42.84628,15.78856,3.259735,1008.006
13.866624832,-30.91912,-2.127228,6.449962,-0.8618373,-0.3399644,0.4761264,42.07389,15.78305,1.988514,1008.008
13.898797035,6.430574,-5.855884,4.795212,-0.8541158,-0.4333359,0.3947907,42.45761,15.78337,2.432861,1008.011
13.933444977,-4.196887,-5.796699,5.959665,-0.7822723,-0.1469494,0.4432353,42.07312,14.63965,1.994097,1008.013
13.965617657,-39.51937,-3.133373,6.817684,-0.8259066,-0.274543,0.4228286,42.07312,14.63965,1.994097,1008.013
14.000265598,-22.196,-2.600708,10.43362,-0.8411453,-0.4524472,0.3795702,42.83503,15.01573,2.43465,1008.013
14.032433987,6.922018,-1.594563,10.67877,-0.7948003,-0.3313522,0.377244,42.83478,14.6346,2.43651,1008.013
14.064606667,-11.44568,4.856604,12.82381,-0.8331155,-0.1796634,0.44826,42.83478,14.6346,2.43651,1008.017
14.099254608,-13.53431,-0.2333073,12.45609,-0.9002911,-0.344445,0.3737824,42.46731,14.26939,3.269112,1008.015
14.131426811,-5.118343,-0.5884174,7.614415,-0.918568,-0.362932,0.3564486,42.83978,13.49688,2.888372,1008.015
14.166074753,2.253306,1.897353,9.882035,-0.8634765,-0.2390132,0.3482801,42.83978,13.49688,2.888372,1008.015
14.198247433,0.164672,3.436163,11.16906,-0.9222127,-0.2703525,0.4006258,42.84474,13.50175,3.270899,1008.017
14.232890606,-4.319748,-1.890488,4.672638,-0.9861801,-0.2947336,0.4077696,43.22165,11.97185,3.276407,1008.015
14.265063763,5.017674,-6.684474,-4.21398,-0.9334882,-0.4080489,0.286808,43.22165,11.97185,3.276407,1008.015
14.299711227,24.30683,-2.423153,-5.86873,-0.8867965,-0.2353801,0.3008097,43.59515,12.72388,2.888226,1008.015
14.331884384,20.621,0.950393,-4.82685,-0.8924505,-0.2095757,0.3704831,42.83323,12.3478,2.447676,1008.015
14.366531372,2.007584,0.4769129,-11.62971,-0.8833092,-0.213609,0.3568686,42.83323,12.3478,2.447676,1008.014
14.398704052,-0.4496322,1.719798,-13.95862,-0.8657763,-0.2673667,0.3205939,43.21746,13.11038,2.8883,1008.012
14.433347702,13.74079,1.601428,-9.97496,-0.8365071,-0.1553711,0.323172,43.21169,13.10469,2.44202,1008.01
14.465520382,-14.82435,5.389269,-6.910609,-0.8249006,-0.1478254,0.3650599,43.21169,13.10469,2.44202,1008.01
14.500168324,-24.34606,10.83429,-2.37537,-0.813601,-0.3213388,0.341834,43.21246,14.24809,2.436438,1008.01
14.532341004,-5.548357,14.68132,3.937194,-0.8480537,-0.3422665,0.375241,43.21824,14.25378,2.882717,1008.01
14.564513207,2.376167,6.691339,9.269165,-0.8658202,-0.2200916,0.4087079,43.21824,14.25378,2.882717,1008.016
14.599161148,-23.91605,8.466889,8.227285,-0.7952946,-0.2467309,0.3355303,43.22922,14.64547,3.709663,1008.016
14.631330013,-31.84057,13.91191,4.550064,-0.8336629,-0.3106875,0.388381,43.22897,14.26434,3.711525,1008.012
14.665977478,-31.10341,12.13636,4.488777,-0.8159718,-0.3594657,0.3685338,43.22897,14.26434,3.711525,1008.012
14.698150158,-5.364065,10.30163,8.165998,-0.7382752,-0.3220368,0.3628154,42.8681,13.90563,5.054159,1008.01
14.732797623,-5.118343,16.75279,10.9852,-0.7589871,-0.2820327,0.3758704,43.2513,13.14368,5.50223,1008.01
14.764970780,-9.479902,17.34464,13.00767,-0.7558825,-0.3171498,0.35579,43.2513,13.14368,5.50223,1008.008
14.799617768,-2.661127,21.31004,16.68489,-0.7460604,-0.3794474,0.2771008,43.2626,12.77391,6.39665,1008.007
14.831786633,24.92113,25.63054,17.6042,-0.7480143,-0.2769974,0.3435156,43.27365,12.02302,7.292933,1008.007
14.866434097,15.39942,29.30001,18.33964,-0.8225641,-0.2335234,0.3942156,43.2852,12.03439,8.185493,1008.007
14.898606777,-3.398292,32.79193,19.81053,-0.8833422,-0.3141841,0.3435078,43.2852,12.03439,8.185493,1008.005
14.933254719,16.75088,22.90803,23.91676,-0.8506063,-0.2393567,0.3120072,44.05212,11.27275,9.077909,1008.007
14.965427399,4.526231,21.78352,18.58479,-0.9545487,-0.3118216,0.2892438,42.92408,11.29454,9.529991,1008.007
15.000075340,12.75791,15.62828,11.10778,-0.9584271,-0.2160696,0.3040473,42.92408,11.29454,9.529991,1008.008
15.032243729,10.17783,9.828145,4.304916,-1.037014,-0.2388341,0.1966251,43.69018,10.5321,10.35865,1008.008
15.066890717,16.3823,3.021868,-6.665461,-0.9524637,-0.1410478,0.2805102,43.31198,10.15633,10.36245,1008.01
15.099063873,-5.118343,-1.890488,-13.34575,-0.9149365,-0.131607,0.2701158,43.31198,10.15633,10.36245,1008.01
15.131236553,6.430574,-3.902778,-11.62971,-0.905161,-0.2374682,0.206974,43.31224,10.53746,10.36059,1008.01
15.165884018,39.66442,-2.896633,-4.21398,-0.8294886,-0.1024517,0.203525,43.31198,10.15633,10.36245,1008.008
15.198057175,-17.03584,11.89962,0.3825464,-0.8271261,-0.09427615,0.1322344,43.31198,10.15633,10.36245,1008.008
15.232700348,20.80529,20.42226,7.675702,-0.9130905,-0.5806499,0.009972956,43.30698,11.29405,9.910583,1008.01
15.264873028,101.0948,23.91418,0.2599723,-0.8573862,-0.1255993,0.2050404,43.68415,10.14528,9.914232,1008.01
15.299520493,57.90926,16.69361,1.363139,-1.023503,-0.1058,0.4626954,43.68415,10.14528,9.914232,1008.014
15.331693173,25.10542,8.230149,1.301852,-0.9508336,-0.05579582,0.2590258,42.93533,12.06737,10.35508,1008.014
15.366341114,20.12956,18.35079,-0.2916109,-0.9037699,-0.1248701,0.1437833,42.56342,12.45955,10.80143,1008.012
15.398513794,-2.476836,15.33235,-0.9657681,-1.03564,-0.07030677,0.3368174,42.56342,12.45955,10.80143,1008.012
15.433157444,-6.654104,9.05874,-4.82685,-0.9192832,-0.1899438,0.1294136,41.8191,12.48166,11.69786,1008.012
15.465330124,6.492004,19.12019,-2.98824,-0.8809169,-0.3232853,0.1718183,42.95292,12.46556,11.69206,1008.014
15.499977112,34.87285,13.32006,-0.598046,-0.9117886,-0.001899833,0.3497217,42.95292,12.46556,11.69206,1008.015
15.532150746,29.65127,14.79969,-1.885073,-0.9564809,-0.3980912,-0.07343104,42.57999,11.33321,12.14585,1008.015
15.566797733,20.12956,25.92647,0.01482423,-0.9011555,-0.1700296,-0.04603916,42.9587,12.47124,12.13834,1008.015
15.598970413,31.67847,23.0264,-1.210916,-1.001866,-0.01592476,0.6131364,42.9587,12.47124,12.13834,1008.014
15.631139279,7.720613,7.283189,-4.82685,-1.017589,-0.2732757,0.08578197,41.83643,12.49871,13.0367,1008.015
15.665786743,46.97464,26.22239,0.3825464,-0.9302526,-0.195831,-0.0117584,42.21515,13.63675,13.02919,1008.015
15.697959900,18.10235,13.79354,-3.294675,-1.174742,-0.0499985,0.6149505,42.21515,13.63675,13.02919,1008.019
15.732606888,2.253306,-2.955818,-7.829915,-1.003332,-0.2422644,0.02517266,41.84324,14.02893,13.47554,1008.021
15.764779568,26.64118,13.79354,-1.456064,-0.9327648,-0.1619973,-0.09484194,41.84928,14.41575,13.91996,1008.021
15.799427509,11.95931,7.342374,0.3212593,-1.115218,-0.08653429,0.5731239,41.84928,14.41575,13.91996,1008.015
15.831595898,-0.7567843,-1.357823,-5.071999,-0.8757669,-0.1440313,-0.05714772,41.47134,14.42112,13.92189,1008.015
15.866243839,8.212056,16.16094,3.017888,-0.9807029,-0.2842817,0.06703107,41.84376,14.7912,13.47182,1008.015
15.898416519,10.17783,3.376978,-0.659333,-1.032446,-0.1754228,0.3031451,41.84376,14.7912,13.47182,1008.015
15.933063507,3.666205,9.05874,-0.9657681,-0.889932,-0.1096769,-0.01720837,41.47763,15.18907,14.36445,1008.015
15.965237141,23.32394,15.62828,2.098583,-0.9338654,-0.2346785,-0.01638295,41.47185,15.18339,13.91817,1008.019
15.999884129,2.376167,-1.357823,-4.64299,-1.01288,-0.1184542,0.3391001,41.10572,15.58126,14.81081,1008.021
16.032053471,12.45076,1.601428,-4.459128,-0.8711528,-0.1089594,-0.1639055,41.10572,15.58126,14.81081,1008.023
16.066700459,14.84654,22.43455,5.346795,-0.8549675,-0.210961,-0.1629695,41.47789,15.57021,14.36259,1008.025
16.098873138,31.80133,-4.553813,-0.72062,-0.9538518,-0.2024221,0.377381,41.48392,15.95703,14.80701,1008.025
16.133521080,30.32701,12.84658,4.917786,-0.7344657,-0.1313542,-0.1475316,41.48392,15.95703,14.80701,1008.025
16.165693760,-9.17275,15.09561,6.940258,-1.169748,-0.3887515,0.5600553,40.7283,16.34889,14.80902,1008.023
16.197865963,32.84565,-6.270179,-4.82685,-0.9662327,-0.05533438,-0.005926413,41.47814,15.95134,14.36073,1008.025
16.232510090,13.06506,-2.482338,-2.314083,-1.001613,-0.07234447,0.03137745,41.47814,15.95134,14.36073,1008.023
16.264682293,10.36212,-0.5884174,-6.849322,-1.016216,-0.2686799,0.3051168,41.10046,16.33784,14.3608,1008.025
16.299330235,11.89788,-8.933504,-6.4816,-0.9734381,-0.0580953,0.009060044,41.09546,17.47556,13.90894,1008.025
16.331502915,4.649092,-7.927359,-5.194573,-0.9128262,-0.1293516,-0.002696957,41.09546,17.47556,13.90894,1008.025
16.366150856,2.86761,-10.88661,-6.849322,-1.011402,-0.2875483,0.1902005,41.83978,17.45345,13.01251,1008.025
16.398323536,13.00363,-9.762094,-5.439721,-0.9660046,-0.07499065,0.08886331,41.46787,17.84564,13.45886,1008.025
16.432966709,-5.425496,-8.400839,-3.968832,-0.9335028,-0.1517332,0.1028693,41.46787,17.84564,13.45886,1008.025
16.465139866,-0.5110626,-6.210994,-2.865666,-0.9820226,-0.3301197,0.1645114,41.08467,18.60759,13.0108,1008.025
16.499786854,5.386257,-4.494628,-3.417249,-0.9366412,-0.09053418,0.1062952,41.834,17.44777,12.56623,1008.026
16.531959534,-18.38731,-4.376258,-4.397841,-0.9164798,-0.2292781,0.1917231,41.834,17.44777,12.56623,1008.03
16.566607475,7.904904,-3.074188,-0.9657681,-0.9531138,-0.164292,0.09812881,41.45105,18.59085,12.1163,1008.026
16.598780155,-10.33993,0.8912079,0.8115556,-0.9643841,-0.2005835,0.1683067,41.45632,17.83427,12.5663,1008.028
16.633423805,-20.29165,-0.9435275,1.547,-0.939778,-0.1517139,0.2272839,41.45632,17.83427,12.5663,1008.03
16.665596485,0.5946848,-5.619143,4.917786,-0.9560087,-0.2028955,0.0626516,41.82925,18.96661,12.11251,1008.03
16.697768688,-17.1587,-2.896633,3.692046,-0.883154,-0.1620976,0.17606,41.45632,17.83427,12.5663,1008.03
16.732416630,-13.96432,7.105634,6.08224,-0.8099291,-0.197292,0.2541345,41.45632,17.83427,12.5663,1008.036
16.764589310,-12.24427,5.685194,7.430554,-0.8896387,-0.1404334,0.1488252,42.59014,17.81816,12.5605,1008.033
16.799237251,-12.48999,3.021868,8.411146,-0.9847776,-0.203699,0.06580542,42.20668,18.19898,12.1143,1008.037
16.831405640,-9.725624,-1.180267,4.856499,-0.9865931,-0.2461193,0.1025866,42.20668,18.19898,12.1143,1008.037
16.866053105,-11.6914,-1.476193,-0.7819071,-1.134162,-0.1537986,0.2093186,42.2122,17.82353,12.56244,1008.036
16.898226261,-6.224091,0.4769129,-5.501008,-1.153397,-0.2084941,0.1536172,42.58963,17.05589,12.56422,1008.037
16.932873249,-0.2653409,-2.896633,-7.217044,-1.047242,-0.1401168,0.1512624,42.58963,17.05589,12.56422,1008.039
16.965046406,-1.432519,-6.625289,-2.436657,-0.9437919,-0.172067,0.1659396,42.58988,17.43703,12.56236,1008.041
16.999693871,7.966335,-5.915069,1.056704,-0.9881147,-0.04555804,0.1148582,42.96204,17.42597,12.11415,1008.041
17.031862259,-1.309658,-8.223284,3.875907,-0.9636888,-0.2743461,0.1705841,42.96204,17.42597,12.11415,1008.041
17.066510201,-2.476836,-11.41928,4.979073,-0.9545144,-0.1778044,0.1703304,42.95601,17.03916,11.66973,1008.043
17.098682880,9.133512,-17.10104,10.92391,-0.9922533,-0.1641516,0.02812325,42.94497,17.79005,10.77345,1008.043
17.133330822,1.884724,-18.87659,15.21401,-0.9676763,-0.2623135,0.1548145,42.94497,17.79005,10.77345,1008.043
17.165503025,3.727636,-20.47458,16.74618,-0.9956281,-0.1061436,0.1211769,42.94497,17.79005,10.77345,1008.041
17.200150967,12.57362,-24.43998,16.01074,-1.000717,-0.1121496,0.1573248,43.32239,17.02242,10.77523,1008.041
17.232319832,-1.125367,-28.46456,13.62054,-0.9482682,-0.2238638,0.1809784,44.44497,16.23349,9.944347,1008.041
17.264492035,8.396348,-31.66055,18.33964,-0.9828348,-0.1636555,0.1615533,44.44497,16.23349,9.944347,1008.041
17.299139977,2.376167,-36.33617,19.13638,-1.01362,-0.2467148,0.1968238,45.17773,16.20001,8.155357,1008.041
17.331312656,-13.28859,-33.08099,17.97192,-0.978406,-0.1618216,0.3393849,44.39822,15.42574,6.377823,1008.045
17.365959644,12.08217,-27.81352,22.26201,-1.031251,0.04855177,0.3951143,44.39822,15.42574,6.377823,1008.047
17.398132801,0.2261024,-34.02795,21.77172,-1.139771,-0.08205058,0.3203403,46.27585,14.62526,5.479315,1008.047
17.432775974,-20.35309,-42.37304,16.07202,-1.084639,-0.01385557,0.5763298,45.88559,13.47586,4.594271,1008.048
17.464948654,-2.108253,-52.13857,12.08837,-1.391325,-0.1593942,0.3880838,45.88559,13.47586,4.594271,1008.047
17.499596596,-59.60712,-70.84103,0.5664074,-1.211785,0.03626453,0.6367332,45.87403,13.46449,3.70171,1008.047
17.531769276,-43.45092,-79.00856,-0.9044811,-1.377131,-0.2485522,0.6687041,46.22313,12.28811,1.537706,1008.047
17.566417217,-65.75016,-92.73949,-3.539823,-1.279397,0.09672619,0.6918466,46.22313,12.28811,1.537706,1008.047
17.598589420,-115.9388,-94.39667,-7.155757,-1.200498,-0.103782,0.4214656,46.18821,11.87287,-1.138115,1008.041
17.633233547,-108.1986,-81.31678,-23.15167,-0.7474198,-0.2829653,0.01039921,45.02524,11.47942,-3.361856,1008.043
17.665406227,-23.97748,-13.3132,-23.15167,-0.8211187,-0.3132969,-0.3829567,45.02524,11.47942,-3.361856,1008.041
17.700053215,-6.469813,1.601428,-31.91571,-0.8381218,-0.1108631,0.05122434,45.0095,12.60657,-4.642526,1008.04
17.732226372,-17.03584,-2.541523,-37.30897,-0.6430814,-0.05104597,0.003143596,43.87645,13.76608,-4.642306,1008.04
17.764399052,-50.76114,22.19781,-27.2579,-0.6683969,-0.1935181,0.07932519,43.87645,13.76608,-4.642306,1008.038
17.799046993,18.90095,12.60984,-23.39682,-0.5532628,-0.4126555,0.1231982,43.88795,14.92004,-3.819081,1008.036
17.831215382,102.8149,31.60823,-20.94534,-0.4972576,-0.09793787,0.2476981,43.53391,16.09155,-2.037607,1008.033
17.865862847,-19.73878,35.2777,-22.47751,-0.6319951,-0.2039247,0.6418751,43.53391,16.09155,-2.037607,1008.033
17.898036003,-2.476836,38.94717,-12.91674,-0.4224353,-0.16367,0.6469995,42.40612,16.49447,-1.587385,1008.035
17.932682991,45.13173,35.51444,2.956601,-0.6654884,-0.5080944,0.5779842,43.18036,18.02532,-0.2598553,1008.035
17.964855671,66.14094,25.15706,6.511249,-0.7121221,-0.03410602,0.8970725,43.18036,18.02532,-0.2598553,1008.033
17.999503613,-39.70367,32.43682,-6.604174,-0.8257152,0.1048217,0.9012058,41.69172,18.06953,1.533003,1008.031
18.031672001,-136.8251,35.57362,-4.152693,-0.8685877,-0.6150071,0.6190038,42.07543,18.06985,1.97735,1008.03
18.066319942,9.194943,19.41612,3.385611,-0.7907183,-0.3246266,0.6857411,42.07543,18.06985,1.97735,1008.028
18.098492622,-6.10123,20.83656,4.795212,-0.8916878,-0.3018768,0.7384447,42.10928,18.10315,4.59128,1008.028
18.133140087,-14.02575,11.48532,1.179278,-0.8765668,-0.2544937,0.5984324,41.74289,18.11988,5.485775,1008.026
18.165312767,-25.88182,12.72821,-4.520415,-0.8947297,-0.371413,0.4679801,41.74289,18.11988,5.485775,1008.026
18.199960232,2.929041,7.105634,-5.501008,-0.9105331,-0.3019094,0.4701465,41.37047,17.74981,5.935848,1008.03
18.232129097,-3.766875,7.75667,-7.891202,-0.9043024,-0.3131286,0.403962,41.37625,17.75549,6.38213,1008.03
18.266776562,-9.664194,11.36695,-12.05872,-0.890977,-0.319828,0.4249904,41.00409,17.76654,6.830345,1008.03
18.298949719,-1.186797,11.13021,-11.26199,-0.9180284,-0.3068309,0.393538,41.00409,17.76654,6.830345,1008.03
18.331122398,3.727636,5.626009,-9.545951,-0.8938586,-0.2994241,0.3625256,41.01616,18.54018,7.719185,1008.03
18.365769386,0.3489632,8.170964,-9.116942,-0.8744502,-0.3387913,0.3682859,40.64426,18.93237,8.165537,1008.024
18.397942543,0.04181113,7.046449,-7.462193,-0.9199525,-0.3231999,0.3466671,40.64426,18.93237,8.165537,1008.024
18.432585716,-13.47288,5.685194,-4.397841,-0.8601888,-0.3087435,0.3086326,40.63873,19.30782,7.717398,1008.024
18.464758396,-6.592673,7.105634,0.7502685,-0.856935,-0.3635511,0.3158624,39.88285,19.31855,7.721266,1008.024
18.499406338,-0.4496322,6.217859,3.079175,-0.9020213,-0.3320697,0.2779827,39.88285,19.31855,7.721266,1008.024
18.531579018,-17.65015,6.336229,1.669574,-0.881941,-0.3030517,0.2144106,40.27235,19.32455,8.611893,1008.024
18.566226483,-33.74492,10.77511,1.792148,-0.8592776,-0.3793335,0.2188723,40.27209,18.94342,8.613752,1008.023
18.598399162,-17.71158,12.43229,2.282444,-0.8949971,-0.4305022,0.2322797,40.27209,18.94342,8.613752,1008.021
18.633043289,-8.435585,12.43229,-0.04646279,-0.8932588,-0.3871849,0.1858667,39.89994,18.95448,9.061966,1008.023
18.665215492,-13.22716,15.74665,0.3212593,-0.8790179,-0.3233431,0.1655341,40.27813,19.33024,9.058172,1008.023
18.699862957,-13.65717,19.12019,2.405018,-0.9201903,-0.4166328,0.1892492,40.27813,19.33024,9.058172,1008.021
18.732036114,0.5332544,22.43455,5.224221,-0.9560054,-0.3963575,0.2148145,39.91593,18.20845,10.34077,1008.021
18.766683102,-12.61285,25.15706,4.182342,-0.9702654,-0.3639864,0.1862945,39.54377,18.2195,10.78899,1008.02
18.798856735,-17.77301,25.8081,2.221157,-0.9636392,-0.3627568,0.1611788,39.54377,18.2195,10.78899,1008.016
18.831025124,-21.3974,29.06327,2.15987,-0.9252452,-0.4032277,0.1619329,39.5498,18.60632,11.23341,1008.016
18.865672112,-14.21004,31.90415,4.611351,-0.9170616,-0.4057889,0.1497854,39.18868,17.86648,12.57791,1008.014
18.897845268,-8.619877,31.3123,7.92085,-0.9018643,-0.357444,0.1346182,39.18868,17.86648,12.57791,1008.013
18.932492733,-7.022686,37.34917,12.27223,-0.9031953,-0.3659826,0.09648226,38.82782,17.50777,13.92054,1008.011
18.964665413,-9.295611,36.0471,14.96886,-0.9075631,-0.322455,0.1364058,38.83912,17.138,14.81497,1008.009
18.999313354,-13.41145,36.81651,17.78806,-0.8926258,-0.3565532,0.1302013,38.83912,17.138,14.81497,1008.009
19.031481743,-14.3329,32.9103,18.58479,-0.8924981,-0.3511178,0.142777,38.0948,17.16011,15.7114,1008.011
19.066129684,-18.08016,30.1286,18.70737,-0.8587037,-0.302333,0.1337058,37.7331,16.80059,16.99028,1008.007
19.098301888,-27.35615,26.93262,20.54598,-0.861753,-0.2680954,0.1026865,37.7331,16.80059,16.99028,1008.006
19.132949829,-28.76905,28.70816,21.58786,-0.8612267,-0.3666363,0.03872733,38.12209,16.04432,17.88463,1008.006
19.165122509,3.481914,27.64284,24.10062,-0.7526582,-0.3354926,-0.006854927,38.51684,15.29374,19.22525,1008.01
19.199769497,9.502095,42.08398,26.5521,-0.7703358,-0.2663547,-0.05335595,37.77753,14.17813,20.57355,1008.01
19.231938839,10.85356,44.92486,32.12922,-0.8250527,-0.2859655,-0.05107906,37.77753,14.17813,20.57355,1008.008
19.266586304,43.22739,51.79032,36.23545,-0.8401697,-0.3066366,-0.09786236,37.40485,13.42692,21.02548,1008.006
19.298759461,48.38755,57.35371,34.5807,-0.8973274,-0.26579,-0.1249482,37.04373,12.68708,22.36998,1008.003
19.333406448,51.09048,50.07395,31.27121,-0.8970202,-0.08227534,-0.1191002,37.04373,12.68708,22.36998,1008.001
19.365579128,-74.47327,37.28999,4.42749,-1.017934,0.0973433,0.5626461,36.66579,12.69244,22.37192,1008.001
19.397752285,-81.7835,-8.755949,10.18847,-1.16541,-0.6510267,0.09947108,35.93798,12.73079,24.54343,1007.999
19.432395458,-50.33113,-33.14017,14.35599,-1.014829,-0.2516446,-0.002753364,35.93798,12.73079,24.54343,1007.999
19.464568138,-44.06523,-24.20324,3.569472,-0.913398,-0.237558,-0.2508494,35.56376,9.69278,25.00653,1007.997
19.499216080,-28.21618,-13.66831,-1.762499,-0.9126638,-0.1662519,-0.2560524,36.68576,9.28417,24.11003,1007.996
19.531388283,-30.12052,-7.098769,-2.497944,-0.9436589,-0.06195167,-0.2201994,36.68576,9.28417,24.11003,1007.996
19.566036224,-70.78745,-8.341654,-1.701212,-0.9232628,0.09155608,-0.1902042,37.06319,8.516535,24.11182,1007.992
19.598208904,-121.6518,-9.998835,-6.297739,-0.9313573,0.06083194,-0.15134,37.06293,8.135401,24.11368,1007.99
19.632853031,-140.5724,-17.87044,-16.16495,-0.9644314,-0.1153689,-0.111032,37.06293,8.135401,24.11368,1007.988
19.665025234,-116.3688,-16.98267,-21.86464,-1.064418,-0.2555056,-0.09486637,37.44536,6.23005,24.56733,1007.985
19.699672699,-87.31223,-32.2524,-32.03829,-1.099433,-0.372283,0.0341555,38.1997,3.932512,24.57463,1007.987
19.731845856,-18.5716,-42.07711,-34.48977,-1.007193,-0.1721635,0.1125465,38.1997,3.932512,24.57463,1007.987
19.766492844,-46.031,-38.82194,-33.93819,-0.9456289,-0.0645631,0.06947917,38.57032,1.634658,24.13758,1007.989
19.798666001,-42.71376,-27.57678,-35.47036,-0.8563503,-0.08046569,0.01597706,38.92097,2.745077,21.96241,1007.986
19.833309174,-36.07927,-12.42542,-35.53165,-0.8021017,-0.1613794,0.006609818,38.92097,2.745077,21.96241,1007.984
19.865481854,-12.3057,-4.139518,-36.02195,-0.7775519,-0.1560449,0.0218487,40.05504,3.110106,21.95475,1007.984
19.900129795,-11.01566,-1.357823,-38.47343,-0.681742,-0.1210712,0.02413502,39.67158,3.490922,21.50854,1007.982
19.932302475,-7.145547,5.270899,-39.69917,-0.6963363,-0.2253706,0.02196535,39.67158,3.490922,21.50854,1007.982
19.964475155,19.69954,-1.002712,-44.47955,-0.7637773,-0.3416279,0.008622227,40.04426,4.242136,21.0566,1007.98
19.999122620,52.01194,-12.8989,-53.12103,-0.7052608,-0.3139106,-0.01001127,39.67287,5.39659,21.49924,1007.98
20.031291485,51.15191,-15.32549,-58.63686,-0.7915905,-0.2733416,0.03402668,39.67287,5.39659,21.49924,1007.977
20.065939426,48.26468,-30.77278,-57.9627,-0.8978827,-0.3563509,0.02710417,39.66863,7.677706,21.04179,1007.977
20.098111630,46.72892,-37.75661,-54.83706,-0.8933053,-0.4069415,0.0155584,39.26963,10.7094,19.24372,1007.977
20.132759571,45.13173,-42.72815,-49.87281,-0.9690821,-0.517837,-0.06321467,39.26963,10.7094,19.24372,1007.975
20.164932251,45.31602,-48.64665,-45.09243,-0.9571755,-0.4675017,0.05180507,39.62653,13.73036,17.44178,1007.975
20.199579239,17.24233,-51.90182,-49.07608,-1.009362,-0.5905262,0.1149017,39.22206,15.99492,15.2649,1007.975
20.231748581,12.20503,-57.82033,-54.6532,-0.9548645,-0.6523544,0.1259335,39.22206,15.99492,15.2649,1007.979
20.266396046,2.437597,-61.90409,-61.39477,-0.9290533,-0.7008876,0.1431265,38.81626,17.4964,13.02798,1007.979
20.298569202,21.54246,-68.592,-68.19764,-0.9201849,-0.8502398,0.1673585,38.41701,20.14696,11.23177,1007.979
20.333216190,40.03301,-74.9248,-78.80029,-0.8410504,-0.7891844,0.2052014,38.00048,21.63788,8.16605,1007.977
20.365388870,13.49507,-74.5105,-89.70938,-0.7549742,-0.7435372,0.2635784,38.00048,21.63788,8.16605,1007.975
20.400036812,6.307714,-64.33068,-93.08017,-0.7499388,-0.8845848,0.2922526,36.45611,24.67431,5.481216,1007.977
20.432205200,27.43978,-60.3061,-95.22521,-0.7063265,-0.9155846,0.3287041,34.53437,27.33579,2.86393,1007.975
20.464377880,42.85881,-53.32227,-94.42848,-0.6729595,-0.9010755,0.3434543,34.53437,27.33579,2.86393,1007.975
20.499025822,45.25459,-48.40991,-90.44482,-0.6246915,-0.7795704,0.3955796,33.0013,30.00246,1.073519,1007.975
20.531198025,18.71666,-39.05868,-82.60009,-0.5491138,-0.7408702,0.4274874,29.9394,33.05469,-2.04986,1007.975
20.565845966,9.747817,-27.57678,-71.69099,-0.5112553,-0.764457,0.4144077,29.9394,33.05469,-2.04986,1007.977
20.598018646,11.95931,-21.77665,-65.43972,-0.4239297,-0.7673318,0.4126051,27.65627,35.8013,-3.390435,1007.975
20.632662296,15.89086,-11.06417,-62.13022,-0.3623682,-0.7371422,0.4648175,25.00047,36.59059,-4.209426,1007.975
20.664834976,18.90095,-5.559958,-60.72062,-0.2926269,-0.6751838,0.4878135,25.00047,36.59059,-4.209426,1007.975
20.699482441,18.53237,-2.304783,-61.02705,-0.2581133,-0.6605245,0.5227983,22.72834,38.52279,-4.653407,1007.975
20.731655598,19.26953,-3.606853,-64.09141,-0.2050277,-0.6647534,0.5121461,21.2058,39.67629,-5.543815,1007.977
20.766302586,18.40951,-5.086479,-67.15575,-0.1331745,-0.665486,0.5264116,21.2058,39.67629,-5.543815,1007.977
20.798475743,19.51525,-2.127228,-69.42338,-0.09482081,-0.6799182,0.5678686,18.56074,40.47613,-5.533999,1007.977
20.833118916,24.98256,-0.8843424,-71.87486,-0.02682656,-0.6805905,0.5874726,16.2138,42.01672,-6.868359,1007.983
20.865291596,15.39942,0.2401728,-70.58783,-0.008126922,-0.7312782,0.5724203,16.2138,42.01672,-6.868359,1007.981
20.899939537,15.82943,-0.8843424,-67.27833,0.0340296,-0.761296,0.6093755,13.55115,42.41838,-8.195524,1007.983
20.932112217,9.932108,-1.890488,-68.68793,-0.0128301,-0.8041121,0.6287397,10.88875,43.20117,-9.524549,1007.983
20.966759682,5.570549,-1.949673,-68.32021,0.07017894,-0.8035116,0.634236,10.88875,43.20117,-9.524549,1007.983
20.998932362,1.270419,2.074908,-70.46526,0.0887283,-0.855303,0.601824,8.243691,44.00101,-9.514734,1007.983
21.031101227,8.457778,6.868894,-73.5909,0.1029627,-0.7915046,0.6388491,5.220431,44.4251,-9.501124,1007.983
21.065748692,9.133512,9.591405,-73.28446,0.1240615,-0.7721614,0.6431497,5.220431,44.4251,-9.501124,1007.981
21.097921371,5.447688,11.84044,-70.77169,0.1455846,-0.6894938,0.5510865,2.946759,44.07049,-9.933941,1007.981
21.132569313,-2.538266,19.53449,-68.07507,0.1225187,-0.6797895,0.4728158,0.6736002,44.47815,-10.37048,1007.979
21.164741993,-9.725624,24.03255,-64.09141,0.0811109,-0.7051473,0.4937191,0.6736002,44.47815,-10.37048,1007.979
21.199389935,-13.78003,24.2101,-59.43359,0.1280722,-0.6950842,0.4441999,-2.349917,44.5211,-10.35501,1007.979
21.231558323,-14.14861,27.87957,-54.53063,0.2053006,-0.6880996,0.4555869,-4.617812,44.17217,-10.34154,1007.978
21.266205311,-15.00864,27.22854,-43.43768,0.2428667,-0.7294357,0.5324975,-4.617812,44.17217,-10.34154,1007.978
21.298378468,-14.76292,19.23856,-33.75433,0.2221131,-0.6589673,0.4677202,-6.496212,43.82925,-9.437452,1007.976
21.333025932,-43.69664,15.9242,-27.99335,0.2958004,-0.661751,0.4689377,-8.764107,43.48033,-9.423988,1007.978
21.365199089,-49.10252,6.336229,-13.83604,0.4772384,-0.8784488,0.62018,-8.764107,43.48033,-9.423988,1007.978
21.399846554,25.78115,-5.974254,10.67877,0.3087513,-1.182379,0.7522784,-9.514208,43.49675,-8.973841,1007.978
21.432014942,85.61438,-33.96877,8.656295,0.346203,-0.9013155,0.7176141,-10.26405,43.89431,-8.525553,1007.978
21.466662884,23.38537,-27.75434,-7.155757,0.3219406,-0.5824721,0.6958871,-10.28716,43.87157,-10.31067,1007.984
21.498835087,-79.38771,-18.58066,-12.48773,0.1182782,-0.6004366,0.6267855,-10.28716,43.87157,-10.31067,1007.979
21.531007767,-113.973,-27.1033,-14.26505,0.301042,-0.8224375,0.5316699,-10.28768,43.1093,-10.30695,1007.979
21.565655708,-74.65757,-30.18092,-9.300803,0.224655,-0.9658408,0.4540806,-10.60758,43.55265,-5.844074,1007.978
21.597828388,-36.57072,-36.39535,-11.81357,0.383806,-0.9244269,0.3252071,-10.60758,43.55265,-5.844074,1007.982
21.632472038,-43.51235,-26.21553,-13.77476,0.3022081,-0.8632606,0.3997367,-11.7073,43.98319,-3.226205,1007.976
21.664644718,-54.20124,-27.87271,-19.41316,0.3101849,-0.9457613,0.3435521,-12.0679,44.00561,-1.885428,1007.98
21.699292660,-37.67646,-26.15634,-25.29672,0.3339812,-0.990957,0.3516335,-12.0679,44.00561,-1.885428,1007.98
21.731465340,-23.85462,-32.84425,-31.11898,0.3374947,-0.9164157,0.3271513,-12.41169,43.28283,0.7979107,1007.98
21.766112805,-31.65628,-31.66055,-35.10264,0.3766292,-0.8179125,0.3488062,-13.52843,42.93485,2.144415,1007.98
21.798285484,-48.73394,-35.92187,-42.02807,0.4856516,-0.7988912,0.3050477,-13.52843,42.93485,2.144415,1007.98
21.832928658,-67.34735,-30.47685,-38.596,0.4980012,-0.7992619,0.2649235,-14.2678,42.96183,3.42337,1007.98
21.865101814,-71.03317,-35.44839,-35.7768,0.5382092,-0.9795074,0.1425625,-15.43046,42.25067,6.110899,1007.978
21.899749279,-30.36624,-25.62368,-33.01888,0.481179,-1.041508,0.1223395,-15.43046,42.25067,6.110899,1007.978
21.931921482,4.40337,-32.01566,-37.24768,0.4597314,-1.001726,0.1059976,-16.90832,41.16285,8.801901,1007.978
21.966569424,11.03786,-32.60751,-41.35392,0.5342452,-0.9108759,0.1021953,-17.27547,40.03619,9.701977,1007.978
21.998742104,-5.241204,-31.30544,-45.39886,0.7075241,-0.8459711,0.1334075,-17.27547,40.03619,9.701977,1007.978
22.033386230,-20.7831,-20.77051,-45.52143,0.6221685,-0.8034369,0.1181666,-18.78254,39.6814,10.0941,1007.978
22.065558434,-15.9301,-22.07258,-46.93103,0.7095621,-0.85602,0.09040768,-19.54388,38.925,9.719164,1007.978
22.097731113,-2.476836,-17.51533,-45.39886,0.6259935,-0.7643217,0.03169348,-19.54388,38.925,9.719164,1007.977
22.132379055,-37.5536,-22.01339,-44.7247,0.8840966,-0.6578844,0.09041253,-21.03413,37.825,11.45385,1007.978
22.164551735,-35.71069,8.348519,-36.14452,0.5619082,-0.8917354,-0.04154086,-22.15113,37.0959,12.80221,1007.978
22.199199200,12.9422,-14.4969,-37.86056,0.5488213,-0.7915276,-0.02131265,-22.15113,37.0959,12.80221,1007.981
22.231368065,22.34105,-9.288614,-30.01582,0.8041409,-0.7627991,0.09222168,-23.27446,35.53532,13.70833,1007.981
22.266016007,45.00887,-7.157954,-25.29672,0.7465984,-0.7856499,0.05015427,-24.40879,34.78915,13.71785,1007.981
22.298188210,8.334917,-7.453879,-31.54799,0.6305241,-0.5911371,0.02247497,-24.40879,34.78915,13.71785,1007.981
22.332835674,-28.83048,-3.902778,-40.06689,0.7809387,-0.6303923,-0.06167409,-25.17623,34.78852,12.82916,1007.981
22.365008831,-34.35922,11.42614,-36.75739,0.9689257,-0.6051133,-0.0612918,-25.55443,34.41276,12.83295,1007.982
22.399655819,-27.90903,30.36534,-24.80642,0.7437685,-0.6534572,-0.1183933,-25.55443,34.41276,12.83295,1007.982
22.431825161,14.04795,25.45299,-15.24564,0.7732579,-0.7036656,-0.1272764,-26.67142,33.68365,14.18132,1007.982
22.466472626,59.69074,38.11858,-7.952489,0.8177356,-0.6226948,0.01612993,-28.19577,32.16922,13.30394,1007.982
22.498644829,59.13787,36.4614,-8.32021,0.8007618,-0.6123959,0.08192515,-28.19577,32.16922,13.30394,1007.981
22.533292771,44.64029,45.931,-12.24258,0.7920001,-0.6345763,0.09532004,-28.9745,32.53835,11.52082,1007.981
22.565465450,38.98869,49.77803,-12.12001,0.7013143,-0.573643,0.1337825,-29.76397,32.89692,8.908899,1007.981
22.597638607,22.89392,53.09239,-14.32634,0.7801591,-0.6090811,0.1838466,-30.55452,32.87355,6.235083,1007.981
22.632281780,41.32305,59.72111,-13.65218,0.7506173,-0.6488641,0.2300662,-30.55452,32.87355,6.235083,1007.981
22.664454460,47.58895,52.79646,-14.75535,0.7461863,-0.5927839,0.198276,-31.7117,32.48578,4.457623,1007.979
22.699102402,28.42266,67.88864,-16.77782,0.8056726,-0.5090953,0.3261407,-31.74581,32.07135,1.845552,1007.981
22.731274605,23.75395,62.62117,-20.82276,0.6878136,-0.6305999,0.3551587,-31.74581,32.07135,1.845552,1007.982
22.765922547,46.60606,62.38443,-28.60622,0.6749241,-0.5272739,0.3392608,-32.91429,32.05335,-0.8263283,1007.982
22.798148632,48.08039,62.73954,-32.09958,0.6340472,-0.3810404,0.4565277,-33.70484,32.02998,-3.500144,1007.982
22.832791805,38.37439,62.68036,-28.79008,0.6504322,-0.3944418,0.5545923,-33.70484,32.02998,-3.500144,1007.981
22.864964485,30.87988,58.35986,-25.05157,0.6866898,-0.4065777,0.5777718,-34.50111,30.85833,-6.550903,1007.986
22.899611950,30.38844,56.40675,-20.33247,0.6662567,-0.3455639,0.6719733,-35.67615,29.69124,-9.663485,1007.984
22.931784630,17.48805,42.43909,-18.18742,0.6051093,-0.3449869,0.7703946,-35.67615,29.69124,-9.663485,1007.984
22.966432571,-0.1424801,29.41838,-17.08426,0.6684908,-0.3419322,0.7037944,-35.70447,29.2825,-11.82927,1007.986
22.998605251,-7.452699,26.75506,-14.38763,0.6780493,-0.3943891,0.7052008,-35.72232,28.50317,-13.16439,1007.986
23.033248901,-3.582583,12.25473,-12.30387,0.6742959,-0.3932657,0.722597,-35.72232,28.50317,-13.16439,1007.984
23.065421581,-15.62294,10.42,-11.2007,0.7470764,-0.3475873,0.6504766,-36.11259,27.35377,-14.04944,1007.984
23.100069523,-35.40354,14.50376,-9.423377,0.6913081,-0.3928537,0.5980858,-36.10681,27.35946,-13.60316,1007.984
23.132242203,-26.86471,10.36081,-7.707341,0.6346723,-0.451073,0.5648764,-36.10681,27.35946,-13.60316,1007.983
23.164414406,-17.83444,14.7405,-5.010712,0.7392756,-0.4083598,0.5064125,-36.485,26.98369,-13.59936,1007.983
23.199062347,-13.96432,25.3938,2.343731,0.6773285,-0.3921059,0.5601445,-36.86269,27.37019,-13.59929,1007.984
23.231230736,-8.374155,24.03255,8.472433,0.6346846,-0.414794,0.5487874,-36.86269,27.37019,-13.59929,1007.983
23.265878201,-5.241204,36.81651,13.49797,0.6753298,-0.3495845,0.5340037,-36.85717,26.99475,-13.15115,1007.983
23.298051357,-27.66331,52.14543,14.66242,0.702067,-0.3328862,0.5136479,-35.72887,27.35409,-13.60509,1007.981
23.332698345,-26.06611,70.84789,22.38459,0.5807202,-0.5129512,0.5624597,-35.72887,27.35409,-13.60509,1007.981
23.364871979,17.73377,61.7334,30.78091,0.5091093,-0.6024258,0.6207122,-35.74569,28.0993,-14.94765,1007.981
23.399518967,45.8689,63.98243,33.6614,0.5876993,-0.469851,0.6172158,-33.50039,29.18775,-16.74996,1007.983
23.431688309,18.65523,79.25217,29.67774,0.398589,-0.4503618,0.6938511,-33.50039,29.18775,-16.74996,1007.981
23.466335297,66.44809,64.57428,31.02606,0.3841085,-0.6686426,0.7023086,-32.77753,29.14453,-19.304,1007.979
23.498507977,86.6587,66.29065,34.64199,0.4073051,-0.2823346,0.8368627,-30.92776,29.84016,-22.44136,1007.979
23.533155918,53.67056,71.203,41.69,0.3971167,-0.2294831,0.7602736,-29.08372,29.38751,-25.95566,1007.979
23.565328598,53.24055,77.9501,51.6185,0.3087243,-0.1750189,0.8425233,-29.08372,29.38751,-25.95566,1007.976
23.599976063,24.36826,65.6988,52.66038,0.1535279,-0.171397,0.8975033,-27.22895,28.94543,-28.64115,1007.974
23.632144928,12.38933,67.35598,57.56334,0.1217132,-0.2385047,0.860615,-24.24531,28.48237,-31.71497,1007.976
23.664317131,5.201966,68.59886,56.52146,0.07204755,-0.2967442,1.018212,-24.24531,28.48237,-31.71497,1007.974
23.698965073,-12.67428,56.88023,50.39276,-0.05698058,-0.4046409,1.105286,-20.48825,29.54934,-33.52502,1007.974
23.731137753,-10.03278,42.08398,44.87693,-0.01731628,-0.5052205,1.053959,-17.84794,30.26835,-33.98856,1007.974
23.765785694,1.761863,29.53675,37.58377,0.05744715,-0.5445944,0.9685871,-17.84794,30.26835,-33.98856,1007.974
23.797958374,-0.01961928,28.29387,32.98724,0.06192537,-0.4502419,0.9331732,-15.52784,31.7484,-34.90048,1007.974
23.832602024,-21.95028,28.23468,26.73597,-0.01321896,-0.4706932,1.00215,-13.64366,32.09701,-35.35829,1007.974
23.864774704,-1.125367,10.53837,11.96579,-0.1031627,-0.739176,0.9978835,-13.64366,32.09701,-35.35829,1007.974
23.899421692,29.77413,-1.061898,2.405018,-0.05836483,-0.4354348,1.013466,-11.75345,32.83244,-35.37169,1007.974
23.931594849,21.35817,0.4177278,-3.968832,-0.004125352,-0.4065494,0.8917337,-10.63697,32.79928,-36.71633,1007.974
23.966242313,28.17694,3.732089,-1.885073,0.0007028393,-0.3152262,0.8413495,-10.63697,32.79928,-36.71633,1007.974
23.998415470,23.50823,7.934225,0.1986853,0.05601621,-0.312444,0.8601364,-11.0099,31.66693,-36.26253,1007.974
24.033058643,18.16378,11.07103,3.508185,-0.003791213,-0.3144048,0.9450282,-11.02749,31.26874,-37.59951,1007.974
24.065231323,14.53939,9.17711,4.243629,-0.0279485,-0.3285702,0.9808047,-11.02749,31.26874,-37.59951,1007.974
24.099879265,9.072083,5.626009,3.017888,-0.03675022,-0.3232235,0.976111,-11.0327,30.88273,-37.98018,1007.973
24.132051468,5.386257,3.495348,3.140462,-0.0509071,-0.3526182,0.9316568,-10.65476,30.87737,-37.98211,1007.973
24.166699410,8.949222,3.495348,2.650166,-0.0417042,-0.3290321,0.9120034,-10.65476,30.87737,-37.98211,1007.974
24.198872089,6.307714,4.619864,1.730861,-0.0250122,-0.3290234,0.9238977,-10.66683,30.10373,-38.87095,1007.974
24.231040478,11.22215,5.330084,0.9954166,-0.04151326,-0.3288584,0.9346571,-10.29493,29.71154,-39.31731,1007.974
24.265688419,12.81934,4.974974,1.608287,-0.04949861,-0.3106427,0.9628376,-10.29493,29.71154,-39.31731,1007.974
24.297861099,9.194943,2.785128,1.853435,-0.05095126,-0.2912824,0.9548168,-9.917246,29.32504,-39.31738,1007.974
24.332509041,7.659183,0.7728379,1.608287,-0.05577167,-0.2955562,0.9639846,-9.923023,29.31936,-39.76366,1007.974
24.364681244,2.069015,-0.6476024,0.9341296,-0.05672986,-0.284413,0.9607115,-9.923023,29.31936,-39.76366,1007.974
24.399329186,1.454711,-1.002712,1.424426,-0.04326906,-0.2687078,0.9289033,-9.923796,28.17595,-39.75808,1007.974
24.431498051,1.454711,-0.1149373,2.282444,-0.04626476,-0.2900319,0.9311655,-9.917502,28.94391,-39.31552,1007.974
24.466145039,-1.125367,-1.357823,1.056704,-0.06036508,-0.2899521,0.9954035,-9.917502,28.94391,-39.31552,1007.974
24.498318195,-3.15257,-3.429298,-1.210916,-0.05859211,-0.2881903,0.9732296,-9.545084,29.31399,-39.76559,1007.976
24.532965660,-9.357041,-4.790554,-1.088342,-0.03491309,-0.2648258,0.9341593,-9.545856,28.17059,-39.76001,1007.978
24.565138817,-9.17275,-3.725223,1.179278,-0.0211123,-0.3039382,0.9693761,-9.545856,28.17059,-39.76001,1007.978
24.599785805,-11.01566,-3.547668,2.343731,-0.01675194,-0.3291343,0.9778036,-9.545599,28.55172,-39.76187,1007.978
24.631954670,-13.90289,-1.594563,1.976009,-0.03539515,-0.3324803,0.9095061,-9.167145,29.30862,-39.76752,1007.978
24.666602135,-13.65717,-0.05575228,-0.04646279,-0.04668722,-0.3315194,0.9009434,-9.149553,29.70681,-38.43055,1007.976
24.698774815,-52.66549,-3.784408,-8.197637,-0.1307191,-0.2104851,1.121553,-9.149553,29.70681,-38.43055,1007.976
24.733422756,-150.4627,-11.41928,-48.64707,-0.1619032,-0.47956,1.141316,-9.527235,30.09331,-38.43047,1007.976
24.765595436,-138.9752,-36.45454,-94.48977,-0.2761196,-1.256371,1.165861,-10.61411,32.44088,-34.92934,1007.974
24.797767639,-89.76945,-73.14925,-151.548,-0.2902744,-1.210997,1.376037,-10.61411,32.44088,-34.92934,1007.974
24.832411766,-92.65668,-98.30287,-208.2385,-0.0285966,-1.438243,1.092162,-12.8282,34.81106,-30.91238,1007.974
24.864584446,-54.26268,-101.9132,-251.8748,0.03911566,-1.076941,0.8448336,-19.6193,35.74394,-25.14308,1007.973
24.899232388,-35.09639,-91.4966,-280.741,0.109191,-0.7582376,0.5508593,-19.6193,35.74394,-25.14308,1007.973
24.931404591,-13.35002,-74.03702,-297.8401,0.2722835,-0.5093951,0.3841352,-27.88511,32.4822,-21.13101,1007.971
24.966052532,15.27655,-60.18773,-284.6634,0.2805908,-0.211176,0.4154362,-36.54242,25.0228,-17.92536,1007.971
24.998225212,-4.995483,-37.46068,-268.1159,0.3479609,-0.0108048,0.3215055,-36.54242,25.0228,-17.92536,1007.967
25.032868862,37.33007,-12.60297,-243.1721,0.4618956,0.09998757,0.4114897,-42.20149,16.73382,-16.64408,1007.966
25.065041542,64.8509,-7.631434,-207.3192,0.4870591,0.4766655,0.4943722,-45.22618,6.49185,-16.13209,1007.964
25.099688530,59.93646,1.009578,-162.8861,0.6877206,0.5665928,0.5780731,-45.22618,6.49185,-16.13209,1007.964
25.131862164,24.42969,7.519929,-127.9525,0.5408291,0.530008,0.711692,-45.22662,-2.713191,-15.64084,1007.964
25.166509151,10.54641,-3.370113,-95.04135,0.5256972,0.4985727,0.8426778,-44.48191,-10.73342,-16.05191,1007.964
25.198682308,-3.766875,-20.29703,-68.32021,0.5473318,0.5455577,0.7811674,-44.48191,-10.73342,-16.05191,1007.962
25.233325481,-6.224091,-37.10557,-42.08936,0.5601569,0.4388255,0.7329319,-42.96695,-14.56054,-15.59476,1007.962
25.265498161,-10.95423,-48.58746,-22.84524,0.5382636,0.3756848,0.7133356,-42.57348,-17.21679,-14.24482,1007.962
25.297671318,-39.15079,-49.47524,-11.691,0.6164136,0.3478728,0.6188693,-42.57348,-17.21679,-14.24482,1007.962
25.332318783,-31.2877,-44.97718,0.5051205,0.6907842,0.2839632,0.4985946,-42.1732,-18.34282,-12.45605,1007.962
25.364491940,-10.58565,-39.82808,7.185406,0.7225367,0.2659434,0.5111637,-42.91778,-18.70185,-11.55776,1007.962
25.399138928,-13.35002,-33.73203,7.30798,0.8103268,0.211824,0.4732664,-42.91778,-18.70185,-11.55776,1007.962
25.431307316,-17.22013,-27.45841,3.753333,0.8584877,0.1780809,0.4715748,-42.5338,-18.3204,-11.11528,1007.96
25.465955258,-12.12141,-21.95421,0.4438334,0.8982357,0.2133856,0.480653,-43.2674,-18.28773,-9.390041,1007.962
25.498127937,-16.79012,-16.45,-4.152693,0.9277527,0.2197798,0.4476543,-43.2674,-18.28773,-9.390041,1007.962
25.532775879,-26.2504,-7.039584,-9.055655,0.9852157,0.1860553,0.3914101,-43.63905,-17.51441,-8.945549,1007.96
25.564948559,-20.35309,2.725943,-10.83298,1.02247,0.2338965,0.388083,-43.26059,-16.75751,-8.951204,1007.959
25.599596501,-30.73483,16.04257,-13.46832,1.020353,0.2497137,0.3607591,-43.26059,-16.75751,-8.951204,1007.959
25.631764889,-46.33815,28.64898,-21.43563,1.10036,0.1676461,0.2812521,-44.01146,-17.88449,-8.495474,1007.959
25.666412831,-30.85769,44.03708,-23.88712,1.06011,0.1787533,0.2479793,-43.27292,-17.91228,-9.838183,1007.957
25.698585034,-11.32281,63.86406,-28.72879,1.142274,0.2061494,0.1399526,-43.27292,-17.91228,-9.838183,1007.957
25.733232498,-69.25169,98.78322,-49.32123,1.413834,0.1348621,-0.4955524,-42.54562,-18.7129,-12.00598,1007.955
25.765405655,-67.77736,238.1639,-44.23441,1.068917,0.05021527,-0.6169056,-42.20838,-19.1392,-15.13002,1007.953
25.800052643,-101.9327,370.3832,-15.06178,-3.829156,-1.434266,2.369289,-39.66619,-20.80201,-23.04165,1007.952
25.832221985,-350.2958,-407.367,98.38049,3.017666,1.886905,9.902583,-39.66619,-20.80201,-23.04165,1007.952
25.864394665,522.3846,426.2539,-8.442785,-0.7249851,0.5762838,0.9875385,-36.68807,-20.88963,-26.56361,1007.952
25.899041653,-414.0606,111.0345,-5.25586,0.7865844,0.671894,1.14244,-33.66558,-22.45711,-26.57164,1007.95
25.931214809,91.26598,-6.743659,16.86876,0.404056,-0.4240736,0.5185689,-33.66558,-22.45711,-26.57164,1007.95
25.965862274,27.37835,-9.702909,-4.765563,0.5817644,0.5553077,0.8088825,-32.56669,-22.88846,-29.25327,1007.946
25.998035431,-7.759851,-16.21326,-9.300803,0.4550042,0.2553777,0.7940966,-32.17668,-22.12019,-28.36636,1007.946
26.032678604,-5.056913,-13.96423,-2.804379,0.4861503,0.2096893,0.8059613,-32.17668,-22.12019,-28.36636,1007.945
26.064851284,33.58282,-4.731369,4.611351,0.4617662,0.3640085,0.8493951,-33.68869,-22.47985,-28.35676,1007.945
26.099499226,2.683319,7.87504,9.330452,0.487592,0.3792824,0.8955519,-32.92177,-23.24148,-27.46435,1007.945
26.131671429,-4.688331,8.94037,17.91063,0.5048106,0.3778731,0.9127316,-32.92177,-23.24148,-27.46435,1007.945
26.166319370,-14.39434,2.903498,22.69102,0.5158001,0.3452424,0.8424702,-33.68317,-22.8553,-27.90862,1007.945
26.198492050,-16.97441,-2.541523,30.10675,0.4493439,0.3947779,0.8661526,-33.67739,-22.84961,-27.46234,1007.943
26.233136177,-13.90289,-5.796699,39.66753,0.3840175,0.3859737,0.8782576,-33.67739,-22.84961,-27.46234,1007.943
26.265308380,-16.5444,-8.815134,53.57968,0.4003785,0.4224327,0.8330975,-33.67662,-21.70621,-27.46792,1007.947
26.299956322,-4.688331,-10.64987,78.76865,0.451835,0.4731877,0.7761599,-35.19917,-20.55271,-28.35833,1007.941
26.332129002,-3.951166,-7.039584,104.6931,0.5347911,0.5250359,0.6924273,-35.19917,-20.55271,-28.35833,1007.939
26.364301682,-20.04593,10.65674,124.8565,0.5743912,0.3996985,0.7035565,-35.94169,-17.86267,-27.47493,1007.939
26.398949146,-32.88489,23.08559,140.3621,0.5150517,0.2498197,0.7414346,-37.82381,-15.1622,-27.032,1007.939
26.431118012,-56.90418,30.60208,145.0812,0.5228675,0.09898925,0.6991483,-37.82381,-15.1622,-27.032,1007.939
26.465765953,-77.60623,36.87569,136.072,0.4107312,-0.09620557,0.8060713,-38.5879,-10.2081,-27.94489,1007.939
26.497938156,-33.62206,26.34076,128.9014,0.4300005,-0.3479488,0.8399661,-38.97957,-4.883918,-29.30785,1007.936
26.532585621,22.15676,21.25085,120.5664,0.4062873,-0.2345691,0.9249899,-38.97957,-4.883918,-29.30785,1007.938
26.564758778,25.16685,16.22013,108.6154,0.4398542,-0.2672307,0.9282634,-38.60959,0.4352126,-30.22839,1007.939
26.599405766,79.5942,7.638299,112.3539,0.404349,-0.301763,0.9591579,-37.85058,5.0616,-30.2549,1007.939
26.631575108,84.50863,7.046449,108.0638,0.4447958,-0.05688374,0.8918735,-37.85058,5.0616,-30.2549,1007.939
26.666222572,-9.664194,19.71204,94.15169,0.2683311,0.01327886,0.9389245,-36.33702,7.70806,-30.27566,1007.943
26.698394776,-52.60405,14.26702,88.26814,0.2129325,-0.1510929,0.9882142,-35.20764,8.449349,-30.66771,1007.943
26.733042717,-70.60316,9.41385,84.46834,0.2203486,-0.2477182,0.9883124,-35.20764,8.449349,-30.66771,1007.939
26.765215397,-83.07353,4.679049,78.95251,0.1023643,-0.3644265,0.8838573,-34.06707,11.10605,-30.30401,1007.939
26.799863339,-61.45004,-1.653748,75.33657,0.2681932,-0.4291254,0.8461086,-32.9186,15.67492,-29.43958,1007.942
26.832031727,-63.23151,4.560678,73.13024,0.1945864,-0.4426725,0.8042678,-32.9186,15.67492,-29.43958,1007.942
26.866679669,-57.9485,4.560678,67.98213,0.08151504,-0.5850415,0.7742653,-31.76514,19.10607,-28.12328,1007.94
26.898852348,-47.99677,5.389269,57.62463,0.2058688,-0.5978258,0.7701074,-30.60062,21.78632,-25.91071,1007.94
26.931024551,-38.41363,8.526074,49.35088,0.07756136,-0.7029834,0.7092239,-28.31886,25.57681,-25.04836,1007.94
26.965672493,6.061992,4.856604,44.38663,0.1235907,-0.7185045,0.6773364,-28.31886,25.57681,-25.04836,1007.94
26.997845173,23.69252,5.744379,38.68694,0.1358132,-0.6093701,0.801514,-27.55592,27.47743,-24.61525,1007.94
27.032488823,105.6407,-4.435443,48.00256,0.1185222,-0.8520048,0.5451793,-26.0439,27.83709,-24.62484,1007.94
27.064661503,231.0816,-5.145663,58.97294,0.07824482,-0.5694178,0.7840645,-26.0439,27.83709,-24.62484,1007.942
27.099309444,175.3028,-14.26016,50.57662,-0.116661,-0.1158985,1.122684,-26.09064,27.02934,-28.19137,1007.936
27.131482124,37.94437,-16.21326,33.35497,-0.07835582,-0.01480194,1.102434,-24.63237,23.52732,-32.13513,1007.936
27.166129112,-56.65846,2.015723,44.38663,-0.04676803,-0.04494857,0.9269246,-24.63237,23.52732,-32.13513,1007.938
27.198302269,-81.59921,14.62213,67.00153,-0.1249607,-0.2490643,0.7799256,-24.63995,20.8537,-32.56838,1007.936
27.232945442,-70.35744,41.72887,78.70736,-0.146633,-0.2955253,0.7204589,-23.86519,23.14681,-31.24457,1007.936
27.265118599,-49.96255,77.29906,101.7513,-0.2317369,-0.3836973,0.6241262,-23.86519,23.14681,-31.24457,1007.942
27.299766064,30.01985,103.7548,151.7002,-0.4167108,-0.4809278,0.6105907,-21.9674,26.55586,-30.82471,1007.94
27.331939221,87.94874,123.6409,187.6144,-0.5279841,-0.4910233,0.6144378,-17.07524,29.5124,-32.64986,1007.94
27.366586685,113.9952,141.7515,200.0557,-0.7805919,-0.4046516,0.8262126,-17.07524,29.5124,-32.64986,1007.938
27.398758888,66.87811,142.8169,189.8207,-1.016505,-0.3724284,1.076427,-9.126751,30.491,-36.7129,1007.94
27.430928230,-39.08936,134.4126,167.2671,-1.065449,-0.5173509,1.071351,0.6590281,28.7879,-39.81595,1007.94
27.465575218,-84.24072,125.1797,147.0424,-0.9706052,-0.7960127,0.9361011,0.6590281,28.7879,-39.81595,1007.942
27.497748852,-90.32233,118.0183,134.785,-0.8394693,-0.8011391,0.9223033,10.87867,25.61094,-38.51443,1007.942
27.532395840,-115.5702,120.3266,114.3764,-0.7104948,-0.891926,0.7506875,19.67415,25.90668,-35.50089,1007.942
27.564568520,-118.6417,128.0798,86.79725,-0.588778,-0.9231784,0.6157803,19.67415,25.90668,-35.50089,1007.94
27.599216461,-118.0274,144.77,58.72779,-0.5084693,-0.8401495,0.6084855,26.55662,25.12656,-29.3478,1007.942
27.631384850,-85.28503,154.5355,43.34475,-0.386063,-0.6590089,0.5109907,32.29975,24.73799,-23.63705,1007.942
27.666032791,-56.90418,155.7784,28.02299,-0.3868009,-0.4027576,0.8220718,32.29975,24.73799,-23.63705,1007.942
27.698205471,21.72675,142.521,30.78091,-0.4293636,-0.3039961,0.7615872,36.91509,24.75235,-17.47609,1007.942
27.732852936,13.92509,56.88023,41.44485,-0.09922575,0.4144414,1.489357,40.01264,24.40136,-11.7518,1007.94
27.765025616,-3.398292,-42.37304,74.78499,-0.2163158,0.3741304,1.977418,40.01264,24.40136,-11.7518,1007.94
27.799673557,-142.8453,-18.99496,64.05976,-0.8316925,-0.4640444,-0.1744311,42.67421,23.61775,-10.48653,1007.94
27.831841946,99.49765,-11.89275,63.3856,-1.668589,0.4506808,0.89698,44.17344,20.91779,-11.31005,1007.94
27.866489411,-53.27979,-28.64211,20.48469,-1.408596,-0.4262633,0.262171,46.05556,18.21732,-11.75297,1007.94
27.898662567,-33.68349,-19.05414,22.26201,-0.905709,-0.08727987,0.3595651,46.05556,18.21732,-11.75297,1007.942
27.930835247,13.5565,-17.39696,28.20686,-0.8185201,-0.1091008,0.2925377,45.66529,17.06792,-12.63802,1007.942
27.965482712,-10.09421,-10.64987,20.85241,-0.9374428,-0.04558562,0.3958729,46.41513,16.67037,-13.08631,1007.94
27.997655392,6.676296,-7.690619,19.74925,-0.9063848,0.06476399,0.4379448,46.41513,16.67037,-13.08631,1007.942
28.032299519,-6.224091,-6.921214,16.68489,-0.9485195,0.02468418,0.4375255,46.78652,15.51591,-13.52894,1007.942
28.064471722,-4.811192,-1.594563,11.84322,-0.8915242,0.05473705,0.4690534,46.77445,14.74228,-14.41778,1007.942
28.099119186,-11.19995,8.052594,6.143527,-0.870138,-0.04647599,0.4497035,46.77445,14.74228,-14.41778,1007.942
28.131292343,-3.214001,8.230149,5.469369,-0.9537891,0.09830271,0.4135996,46.40781,14.37788,-13.52142,1007.946
28.165939331,8.396348,4.146384,5.837091,-0.9904352,0.07474726,0.4195314,47.15714,13.21806,-13.96599,1007.947
28.198112965,-8.128433,2.430018,3.569472,-0.888887,-0.03875867,0.3053422,47.15714,13.21806,-13.96599,1007.947
28.232756138,-0.5110626,1.483058,2.650166,-0.8905725,0.0199305,0.4248956,47.16292,13.22374,-13.51971,1007.947
28.264928341,1.024698,-2.008858,1.056704,-1.027172,-0.03976404,0.4006141,47.16895,13.61056,-13.07529,1007.947
28.299701691,-0.1424801,-17.57452,2.588879,-1.002868,0.1254083,0.3092051,47.16895,13.61056,-13.07529,1007.947
28.331874371,3.420484,-22.13176,0.8115556,-0.8780439,-0.05616032,0.3846275,46.78524,13.61025,-13.51963,1007.951
28.366522312,-16.5444,-20.53377,-14.0199,-0.7702919,0.3119942,0.485467,47.14559,13.20669,-14.85855,1007.951
28.398694515,1.946154,-20.17866,-18.61643,-0.8861365,0.1296442,0.4932386,47.14559,13.20669,-14.85855,1007.951
28.433338642,-9.17275,-20.0011,-27.44176,-0.8067142,0.2799381,0.5221746,46.76187,13.20637,-15.3029,1007.953
28.465511322,-7.022686,-17.98881,-26.3386,-0.7701896,0.1061242,0.5391988,45.62278,13.97906,-15.7471,1007.955
28.497683525,2.253306,-13.96423,-22.17108,-0.95324,0.03976916,0.5654237,45.62278,13.97906,-15.7471,1007.955
28.532331467,-29.50622,-12.83972,-25.8483,-0.9342318,0.0304655,0.5670977,45.98994,15.10572,-16.64717,1007.956
28.564504147,-21.45883,-9.406984,-24.07098,-0.8346006,0.007316344,0.5876672,44.85111,16.25954,-17.09324,1007.958
28.599152088,-14.88578,-2.304783,-24.80642,-0.9458953,-0.09463935,0.5753331,44.85111,16.25954,-17.09324,1007.958
28.631320477,-2.599697,-1.180267,-30.01582,-0.9709513,0.05084815,0.5430264,44.47369,17.02718,-17.09502,1007.96
28.665967465,-22.44172,6.099489,-33.26403,-0.7780397,-0.194097,0.563307,44.09157,18.17108,-17.4812,1007.96
28.698141098,10.60784,9.354665,-35.89937,-0.985814,-0.1373901,0.6076472,44.09157,18.17108,-17.4812,1007.96
28.732788086,-2.661127,2.785128,-43.68282,-0.9082125,-0.07426907,0.3457177,42.96347,19.33545,-17.09845,1007.958
28.764961243,-29.99766,8.822,-41.9055,-0.7782634,-0.4838462,0.5025985,43.34193,20.09235,-17.10411,1007.958
28.799667835,13.24935,-4.376258,-43.3151,-1.055298,-0.2255617,0.3954889,43.34193,20.09235,-17.10411,1007.958
28.831837177,-31.71771,-7.808989,-36.26709,-0.705792,-0.2029881,0.3379478,42.21518,22.01981,-16.66133,1007.96
28.866484165,13.61793,-10.64987,-27.07404,-0.7292821,-0.1836268,0.3788145,41.83826,23.54971,-16.66684,1007.96
28.898657322,10.05497,-12.60297,-23.70325,-1.04052,-0.3851236,0.5473114,41.83826,23.54971,-16.66684,1007.962
28.933304787,-10.40136,-20.53377,-21.00662,-0.5160361,-0.06283342,0.3190166,40.70496,24.32808,-16.66476,1007.962
28.965477467,0.4103936,-7.690619,-11.87486,-0.7011963,-0.349867,0.4914158,39.94381,25.09541,-17.11089,1007.962
29.000124931,3.174762,-1.239452,-16.04238,-0.8534827,-0.2051112,0.5340362,39.1788,26.2398,-17.87766,1007.962
29.032293797,-15.9301,3.140238,-17.08426,-0.7062008,-0.2890264,0.4471382,39.1788,26.2398,-17.87766,1007.962
29.064466953,5.81627,8.526074,-17.57455,-0.8733583,-0.3257466,0.550097,39.18375,26.24467,-17.49513,1007.962
29.099113941,-9.17275,10.36081,-18.86158,-0.8605807,-0.3773952,0.4695401,38.0554,27.02792,-17.11053,1007.962
29.131287098,-9.17275,11.72206,-14.08119,-0.756084,-0.3246613,0.4516478,38.0554,27.02792,-17.11053,1007.962
29.165934563,8.764931,11.01184,-9.729813,-0.8000214,-0.2302008,0.4619946,38.06195,28.177,-16.66983,1007.963
29.198107243,8.580639,7.460744,-5.991304,-0.8196585,-0.31915,0.4330065,38.06221,28.55813,-16.67169,1007.963
29.232750893,-4.135457,2.666758,-0.8431941,-0.763088,-0.3262345,0.4319383,38.06221,28.55813,-16.67169,1007.963
29.264923573,2.314736,-0.5292324,3.998481,-0.8128276,-0.3114476,0.4291503,38.44593,28.55845,-16.22734,1007.963
29.299571514,2.560458,-5.855884,4.611351,-0.8412917,-0.3056501,0.4072917,37.31211,28.57455,-16.22154,1007.963
29.331743717,-1.432519,-9.998835,7.30798,-0.760002,-0.354115,0.4061336,37.31211,28.57455,-16.22154,1007.962
29.366391659,0.1032415,-10.76824,13.8044,-0.8280966,-0.3850034,0.4479663,37.69583,28.57487,-15.77719,1007.96
29.398564339,-2.661127,-15.62141,13.98827,-0.8495317,-0.3137788,0.4179056,38.43964,27.7905,-16.6699,1007.96
29.433207989,-5.118343,-17.57452,14.90757,-0.7876289,-0.3842701,0.4432568,38.43964,27.7905,-16.6699,1007.96
29.465380669,-3.828305,-16.8643,16.1946,-0.8163346,-0.289344,0.5238371,38.06221,28.55813,-16.67169,1007.958
29.500028610,1.884724,-18.99496,14.23341,-0.8036482,-0.2323099,0.437911,38.05045,27.02304,-17.49305,1007.958
29.532201290,-4.56547,-18.22555,12.14965,-0.7797201,-0.3141369,0.4794291,38.05045,27.02304,-17.49305,1007.956
29.564373493,-8.681307,-15.44386,12.33352,-0.7899081,-0.2782474,0.469216,38.03998,27.39362,-18.32372,1007.955
29.599021435,-9.848485,-15.38467,10.67877,-0.8634799,-0.3155324,0.5592471,38.7893,26.2338,-18.76829,1007.957
29.631190300,-23.05602,-22.13176,8.717582,-0.7776901,-0.2222349,0.5023398,38.7893,26.2338,-18.76829,1007.957
29.665838242,-10.46279,-20.94806,15.76559,-0.7707681,-0.358516,0.5209137,38.40559,26.23348,-19.21263,1007.957
29.698010445,-24.59178,-20.35621,21.03627,-0.7477413,-0.2758943,0.5498179,38.78956,26.61493,-18.77015,1007.955
29.732657910,-20.72167,-18.75821,26.49082,-0.6890689,-0.2716927,0.5030331,38.78956,26.61493,-18.77015,1007.953
29.764831066,-22.31886,-15.02956,30.53576,-0.8144522,-0.2889709,0.5734686,38.39956,25.84666,-19.65705,1007.955
29.799478054,-13.41145,-17.69288,32.2518,-0.80511,-0.216455,0.6048272,38.7712,25.07334,-20.10155,1007.953
29.831647396,-12.3057,-13.66831,30.59705,-0.6956234,-0.2100306,0.5643346,38.7712,25.07334,-20.10155,1007.953
29.866294384,-11.99855,-3.606853,29.92289,-0.7358869,-0.2318553,0.6035723,39.14888,24.68684,-20.10162,1007.953
29.898468018,-10.8928,-0.5884174,26.85854,-0.7404208,-0.1178776,0.5896122,39.52631,23.9192,-20.09983,1007.957
29.933115005,-20.41452,10.53837,26.00052,-0.7413983,-0.2455365,0.6512289,39.52631,23.9192,-20.09983,1007.957
29.965287685,-5.056913,13.02414,22.56845,-0.8477589,-0.1178466,0.650382,39.90373,23.15157,-20.09804,1007.959
29.999935627,-23.05602,15.98339,20.60726,-0.7046619,-0.1498098,0.5629874,40.67065,22.38993,-19.20563,1007.959
30.032104015,-2.353975,21.54678,21.64914,-0.8556425,-0.2773798,0.6023864,40.67065,22.38993,-19.20563,1007.959
30.066751957,-20.90596,16.45687,19.68796,-0.8976184,-0.1881274,0.4420441,41.07063,22.02536,-17.48433,1007.959
30.098924637,-19.18591,23.14477,20.60726,-0.7746325,-0.2583993,0.535271,42.20888,21.25186,-17.10389,1007.961
30.131096840,-8.374155,27.11017,21.58786,-0.8901497,-0.2180471,0.5323436,42.20888,21.25186,-17.10389,1007.961
30.165744782,-16.48297,23.20396,21.28142,-0.9159745,-0.1650995,0.3951693,42.59838,21.25786,-16.21326,1007.961
30.197917461,-20.53738,34.21237,19.5041,-0.8100571,-0.1907879,0.4681971,43.74324,20.49086,-15.32278,1007.961
30.232561112,-2.108253,40.72272,19.38152,-0.8841614,-0.114472,0.4979557,44.14404,20.1271,-13.53773,1007.961
30.264733791,-10.8928,43.26768,18.27836,-0.9373943,-0.1528564,0.3954701,44.14404,20.1271,-13.53773,1007.961
30.299381733,-0.879645,48.89025,18.03321,-0.9378979,-0.2138353,0.48125,44.54457,19.3822,-11.75082,1007.961
30.331554413,-9.541333,47.35144,16.86876,-0.9732912,-0.1210499,0.4057072,46.08362,18.24494,-9.585325,1007.959
30.366202355,-18.38731,55.51897,16.31717,-0.8543089,-0.1357451,0.4020659,46.08362,18.24494,-9.585325,1007.959
30.398374558,-6.531243,55.10468,16.74618,-0.9718233,-0.1621569,0.4260806,46.49045,18.26799,-7.355856,1007.959
30.433018684,-30.85769,41.31457,8.962729,-1.071512,-0.1506287,0.34613,46.53038,17.54552,-4.22817,1007.959
30.465190888,-18.81733,37.58591,15.27529,-0.8468715,-0.07559996,0.2125845,46.53038,17.54552,-4.22817,1007.961
30.499838829,-20.84453,44.92486,17.6042,-0.9202229,-0.1266706,0.2774359,46.93061,17.56208,-2.508736,1007.961
30.532011509,-20.7831,30.60208,11.65936,-1.016257,-0.1662371,0.3088537,47.33693,16.82287,-0.2755451,1007.959
30.566659451,-16.23725,22.13863,12.27223,-0.8309509,-0.08789831,0.1385887,47.33693,16.82287,-0.2755451,1007.959
30.598832131,-11.07709,31.19393,13.43668,-0.840256,0.007789314,0.2045343,47.36004,16.84561,1.509577,1007.959
30.631000519,-46.15386,31.3123,8.656295,-0.8994859,-0.173868,0.2127473,46.61494,15.72431,2.411589,1007.959
30.665648461,13.06506,24.6244,9.14659,-0.7982147,-0.2823439,0.1212562,46.61494,15.72431,2.411589,1007.955
30.697820664,23.75395,24.50603,-4.030119,-0.7937018,0.009149507,0.285087,47.02069,15.36542,4.579165,1007.955
30.732468605,-16.72869,12.72821,-10.95555,-0.8908602,-0.01845833,0.292996,46.27007,14.61958,5.033033,1007.955
30.764641285,10.36212,12.96495,-3.907545,-0.6968437,-0.08224942,-0.04963193,46.27007,14.61958,5.033033,1007.955
30.799288750,13.61793,32.55519,-10.2814,-1.052387,0.1222069,0.0508071,46.28818,15.78003,6.366293,1007.955
30.831457615,-24.46892,31.84497,-10.2814,-1.139534,0.1045253,-0.03239341,45.53834,16.17759,6.814583,1007.955
30.866105080,-5.548357,51.79032,-0.3528979,-0.9471083,-0.09250479,-0.0931712,45.53834,16.17759,6.814583,1007.955
30.898278236,-4.258318,53.86179,-17.51326,-1.104188,-0.2460081,0.1041668,45.55567,16.19464,8.153423,1007.955
30.932925224,-13.28859,54.39446,-11.87486,-0.9546398,0.03689831,-0.1228821,44.83916,15.86323,11.21936,1007.955
30.965098381,-23.85462,73.9847,-7.707341,-0.8367236,-0.3278285,-0.2002531,44.83916,15.86323,11.21936,1007.955
30.999745846,23.50823,64.04162,-11.38456,-1.0781,-0.06656613,0.1020287,44.10087,16.27215,12.56021,1007.953
31.031914234,-28.21618,57.88638,-7.707341,-0.9525798,-0.01944128,-0.3152016,43.39121,16.32837,16.13432,1007.953
31.098734856,3.236193,60.37215,-4.704277,-1.015327,0.008358712,0.1025427,42.27993,16.74754,17.85963,1007.955
31.133382797,-31.41056,60.31296,-2.191509,-0.9818847,-0.1467567,-0.6051775,40.80259,16.42199,20.54691,1007.955
31.165555000,-4.074027,70.7887,-5.684869,-1.010025,-0.1848193,-0.3348269,40.80259,16.42199,20.54691,1007.955
31.197728634,-23.05602,56.05164,-10.34268,-1.138026,-0.2352045,-0.1532981,39.70344,16.4722,23.2304,1007.955
31.232371807,-15.07007,49.71884,-4.765563,-0.9326931,-0.1254402,-0.4526668,38.21949,16.14015,25.40764,1007.953
31.264544010,2.80618,59.12926,2.098583,-0.8476603,-0.1562908,-0.3071868,37.1143,15.80355,27.64671,1007.955
31.299191952,-18.44874,43.38605,8.778869,-1.054354,-0.1453957,-0.2863703,37.1143,15.80355,27.64671,1007.955
31.331364632,-12.92001,37.46754,15.39787,-0.8091995,-0.08633523,-0.5262787,35.6141,15.83639,28.547,1007.955
31.366012573,-3.951166,51.31684,17.17519,-0.951827,-0.1519976,-0.5100651,34.49736,15.48842,29.89351,1007.957
31.398184776,-15.1315,44.56975,15.76559,-1.053745,-0.09451307,-0.2965605,34.49736,15.48842,29.89351,1007.957
31.432828903,-21.76599,37.6451,17.23648,-1.247743,-0.02906781,-0.2431188,32.62918,14.39379,31.63013,1007.957
31.465001583,-77.11478,5.566824,6.940258,-1.463896,-0.06412328,-0.3965947,32.26254,14.02939,32.52649,1007.957
31.499649525,-110.5944,-22.3685,-13.16189,-1.158542,-0.02659032,-0.4309465,32.26254,14.02939,32.52649,1007.957
31.531821728,-169.0147,-33.96877,-21.55821,-0.8798128,0.2654794,-0.3304016,31.13873,11.77007,33.43601,1007.957
31.566469669,-170.919,-49.59361,-25.8483,-0.8730091,-0.1081922,-0.4434416,30.75899,9.107502,33.45097,1007.955
31.598642349,-73.73611,-53.08553,-39.94431,-0.8977995,-0.2714639,-0.2946544,30.75899,9.107502,33.45097,1007.955
31.633285523,-68.82168,-75.45746,-62.86567,-1.062351,0.05105996,-0.05524435,30.76168,4.539586,33.91958,1007.959
31.665458679,-86.39078,-106.2337,-79.96474,-1.012902,0.02726731,-0.02457195,31.87136,2.976207,32.1361,1007.959
31.700105667,-100.5812,-124.581,-92.58987,-0.9427738,-0.1040724,-0.2687548,31.87136,2.976207,32.1361,1007.959
31.732279301,-52.78835,-114.9339,-94.91878,-0.8799291,-0.1083505,-0.2794985,33.73299,2.921752,29.95878,1007.959
31.764451504,-55.24556,-107.299,-100.3733,-0.8835424,0.03108894,-0.1380534,35.95967,2.08748,26.82693,1007.957
31.799099446,-72.20036,-98.5988,-101.6604,-0.8769315,-0.02814139,-0.1357114,35.95967,2.08748,26.82693,1007.957
31.831268311,-41.178,-82.91477,-89.28037,-0.8637965,-0.1804561,-0.2412015,38.57186,3.921459,24.12641,1007.957
31.865915299,12.57362,-72.5574,-68.25893,-0.8140323,-0.1392012,-0.1463718,39.67312,5.777723,21.49738,1007.957
31.898088455,13.12649,-59.71424,-47.36005,-0.8096118,-0.04304168,-0.07332043,39.67312,5.777723,21.49738,1007.955
31.932735920,4.649092,-46.27925,-24.4387,-0.8683922,-0.1449476,-0.108316,40.78486,7.263412,19.69901,1007.954
31.964909077,18.28664,-37.34231,-4.336555,-0.8572768,-0.1968812,-0.03799397,41.14148,9.903238,17.89893,1007.954
31.999556065,13.43364,-29.94418,5.65323,-0.9524773,-0.1529625,-0.005895619,41.14148,9.903238,17.89893,1007.954
32.031725407,-2.968279,-33.19936,4.979073,-0.8910862,-0.0929841,0.06969993,41.88055,10.63771,16.55249,1007.954
32.066372395,-22.01171,-31.71974,3.630759,-0.9471146,-0.1129325,0.09030225,42.23594,10.22928,14.83105,1007.954
32.098545074,-28.95334,-44.62207,4.121055,-0.9286942,-0.07493483,0.05718566,42.23594,10.22928,14.83105,1007.952
32.133193016,-37.7379,-44.14859,3.569472,-0.8682269,-0.03420944,0.09021515,42.24172,10.23497,15.27734,1007.95
32.165365696,-23.05602,-37.46068,13.8044,-1.068983,-0.05622664,0.2528947,42.58397,8.670958,12.60516,1007.95
32.200013161,9.010652,-57.16929,27.22626,-1.119221,-0.07057258,0.437369,43.33406,8.654535,12.15501,1007.95
32.232182026,35.91717,-73.09006,44.75435,-1.084357,0.09174442,0.6750436,43.33406,8.654535,12.15501,1007.948
32.264355183,-9.848485,-77.58812,43.0996,-1.277484,0.007480302,1.079103,44.43848,7.84774,9.92153,1007.947
32.299002171,-69.0674,-109.3113,18.82994,-1.265274,-0.351826,1.196044,45.14793,6.267802,6.418613,1007.951
32.331174851,-48.48822,-128.3097,6.756397,-0.9958949,-0.6174088,0.9180476,45.14793,6.267802,6.418613,1007.945
32.365822792,-66.48733,-140.8569,-4.888138,-0.4804393,-0.7529008,0.3592674,45.85764,5.068997,2.913837,1007.945
32.397995472,10.7307,-128.6056,-4.581703,0.0622535,-0.9757655,0.006290628,46.17754,4.625646,-1.549041,1007.945
32.432639122,147.6591,-89.30676,18.40093,0.3581457,-0.9964246,0.0356533,46.17754,4.625646,-1.549041,1007.943
32.464811802,183.1659,-60.66121,1.730861,0.5145093,-0.9809062,-0.1801676,46.10954,5.320507,-6.844376,1007.945
32.499459744,182.2444,-58.05707,-55.44993,0.69159,-0.9276071,-0.3298363,46.06807,3.756179,-9.960897,1007.944
32.531631947,128.4314,-89.07001,-101.9668,1.028385,-0.6013852,-0.4209055,46.06807,3.756179,-9.960897,1007.936
32.566279888,18.47094,-80.48819,-128.6879,1.20825,-0.9845229,-0.2020947,45.26024,2.573164,-13.90422,1007.936
32.598452568,6.246283,-45.50984,-143.3968,0.4174457,-1.159191,0.4931036,43.33164,4.847013,-17.02968,1007.934
32.633096695,-81.66064,-3.370113,-131.262,-0.8621504,-1.134083,0.5327245,43.33164,4.847013,-17.02968,1007.933
32.665268898,-8.005572,-8.460024,-66.29774,-0.5870274,-0.07269644,-0.6916372,41.42934,9.432028,-18.25367,1007.933
32.699916363,54.77631,253.7888,132.4561,-1.781689,-0.1330256,0.7867013,40.31455,14.4183,-17.06072,1007.933
32.732089520,102.8763,219.4615,65.71451,-3.100963,0.6558192,-2.757425,40.31455,14.4183,-17.06072,1007.933
32.766736508,-1.862532,274.0892,-24.4387,-3.084305,-1.205503,-0.2795424,41.54578,14.49802,-9.54351,1007.936
32.798909664,413.4071,87.59725,-91.67056,-1.449436,1.790135,-4.337695,43.54712,10.01046,-0.668993,1007.936
32.831078530,-429.6025,-66.46134,-57.53369,-3.213723,1.889289,0.6514099,43.54712,10.01046,-0.668993,1007.94
32.865726471,-42.09945,-2.068043,-104.786,-2.089362,-0.8740345,2.686879,42.78624,11.15892,-1.116988,1007.943
32.897898674,57.11066,20.54063,-93.75433,-1.677684,-0.6938301,0.8910034,40.92042,12.3519,0.6722202,1007.95
32.932546139,-9.479902,35.45525,-43.25381,-0.9271963,-1.068162,0.542069,40.92042,12.3519,0.6722202,1007.95
32.964719295,-10.46279,25.74891,-0.475472,-1.059749,-0.7128812,0.3919949,39.79418,15.04162,1.111279,1007.959
32.999366283,34.38141,8.644444,10.00461,-0.9393893,-0.1755762,0.3432454,39.05692,16.97508,2.444685,1007.96
33.031535625,-22.56458,27.34691,23.7329,-0.6433557,-0.7066063,0.4040672,39.05692,16.97508,2.444685,1007.969
33.066183090,34.25855,33.91644,15.58173,-0.8241586,-0.01308992,0.2138519,38.67321,16.97477,2.000338,1007.974
33.098356247,-30.6734,48.12085,11.41421,-0.8410319,-0.636063,0.4238453,39.82302,16.21264,3.273344,1007.974
33.133003235,37.88295,58.06393,18.03321,-0.6970315,-0.06616569,0.2107821,39.82302,16.21264,3.273344,1007.979
33.165175915,-5.486926,42.85338,18.76865,-0.7754999,-0.3925411,0.3225755,39.09025,16.24611,5.062334,1007.985
33.199823856,15.46084,29.3592,15.33658,-1.059019,-0.3146864,0.228017,39.11259,15.12545,6.853041,1007.992
33.231992245,-10.33993,13.26088,7.246693,-0.9586097,-0.1644191,0.141077,39.11259,15.12545,6.853041,1007.991
33.266640186,-0.2039105,15.56909,8.53372,-0.8133841,-0.4250715,0.3597748,39.11786,14.36887,7.303041,1007.997
33.298814774,13.06506,7.519929,4.856499,-1.123028,-0.07712247,0.2778087,39.1357,15.14819,8.638163,1007.997
33.330987454,6.061992,-4.317073,-0.04646279,-0.8811113,-0.2567295,0.1164569,39.1357,15.14819,8.638163,1008
33.365634918,14.04795,0.003432736,4.059768,-0.9303804,-0.4658908,0.2781081,39.13544,14.76706,8.640022,1008.005
33.397807598,2.744749,-9.170244,-1.088342,-1.05791,-0.03369138,0.2240572,39.50761,14.75601,8.191807,1008.007
33.432451725,2.069015,-9.229429,3.446898,-0.8168733,-0.4164169,0.3468648,39.11786,14.36887,7.303041,1008.011
33.464623928,9.072083,-7.394694,8.411146,-0.9446781,-0.2344357,0.3230476,39.11786,14.36887,7.303041,1008.011
33.499271870,15.33798,-12.95809,5.285508,-0.9574676,-0.234874,0.1949515,39.50183,14.75032,7.745527,1008.016
33.531444550,-9.602763,-14.43771,6.08224,-0.8997614,-0.3255504,0.3695952,39.4958,14.3635,7.301107,1008.018
33.566091538,10.7307,-11.12335,10.67877,-0.8807954,-0.2628407,0.3313753,39.4958,14.3635,7.301107,1008.019
33.598264694,6.553435,-11.36009,15.03014,-0.8878308,-0.2455833,0.2988073,40.23986,13.96026,6.40654,1008.017
33.632908344,-1.801101,-8.460024,18.33964,-0.9237406,-0.2486428,0.382503,40.23383,13.57344,5.962118,1008.019
33.665081501,14.47796,-5.382403,20.36212,-0.8640989,-0.1975835,0.3703174,40.23383,13.57344,5.962118,1008.019
33.699728489,8.334917,-6.743659,20.17826,-0.8656593,-0.2106828,0.3070821,40.61125,12.80581,5.963905,1008.022
33.731901646,3.666205,-6.566104,19.19766,-0.9013989,-0.1555219,0.3247403,40.97737,12.40794,5.071272,1008.026
33.766549111,9.010652,-4.435443,18.40093,-0.8339666,-0.1799538,0.3470457,40.97737,12.40794,5.071272,1008.028
33.798721314,7.474891,-4.021148,16.74618,-0.8961753,-0.1609992,0.3101864,40.60496,12.03786,5.521349,1008.029
33.833365441,3.604775,-5.264033,13.68183,-0.8711637,-0.121841,0.3059379,41.34877,11.25348,4.628641,1008.029
33.865538120,3.420484,-6.980399,11.29164,-0.8914906,-0.1404822,0.3932158,41.34877,11.25348,4.628641,1008.031
33.897711277,2.990471,-10.64987,6.327388,-0.9288874,-0.1439268,0.3000284,41.36007,10.88372,5.523064,1008.035
33.932358265,-2.476836,-11.30091,3.569472,-0.8241881,-0.05139333,0.3451222,42.09861,10.85593,4.180353,1008.037
33.964530945,-1.371088,-6.210994,3.079175,-0.8332817,-0.2174956,0.3886637,42.09861,10.85593,4.180353,1008.033
33.999178886,2.191876,-1.061898,3.20175,-0.8543069,-0.09512346,0.3826388,41.72016,10.09903,4.186008,1008.033
34.031347275,3.543345,0.6544679,2.343731,-0.8174741,-0.100375,0.3547778,41.70968,10.4696,3.355341,1008.037
34.065995216,12.20503,1.719798,2.037296,-0.9053521,-0.147364,0.3730444,41.70968,10.4696,3.355341,1008.037
34.098167896,7.413461,2.015723,1.179278,-0.8747519,-0.1326565,0.3487802,41.72016,10.09903,4.186008,1008.033
34.132815838,8.949222,5.034159,2.282444,-0.9036332,-0.1708343,0.4147688,42.09809,10.09366,4.184074,1008.035
34.164988041,17.54948,1.127948,3.20175,-1.006479,-0.09570596,0.3348899,42.09809,10.09366,4.184074,1008.037
34.199635983,12.02074,-3.133373,1.056704,-0.972282,-0.1292078,0.3555026,41.7199,9.717896,4.187868,1008.037
34.231804848,13.43364,-5.264033,1.976009,-0.9585943,-0.1089815,0.4066336,42.09784,9.712526,4.185934,1008.039
34.266452313,9.440665,-9.93965,2.405018,-0.9179786,-0.0974375,0.3562219,42.09784,9.712526,4.185934,1008.039
34.298624992,5.631979,-9.762094,3.753333,-0.8643028,-0.1523508,0.3822602,41.70917,9.707336,3.359062,1008.04
34.333272934,13.37221,-12.12949,5.65323,-0.8885079,-0.02439038,0.3435351,42.08736,10.0831,3.355268,1008.04
34.365445614,-17.03584,-14.02342,5.04036,-0.9191269,-0.2513271,0.3520719,42.08736,10.0831,3.355268,1008.04
34.397617817,6.676296,-14.20097,5.224221,-0.8837706,-0.03912619,0.4498913,41.70339,9.701653,2.912781,1008.04
34.432261944,-11.75283,-13.90505,5.837091,-1.005535,-0.1325655,0.4651991,42.45349,9.68523,2.462635,1008.04
34.464434624,7.720613,-17.51533,6.633823,-0.9603527,-0.1571527,0.4530068,42.45349,9.68523,2.462635,1008.042
34.499082089,-17.9573,-12.24786,8.717582,-0.9256762,-0.1109132,0.4921064,42.06977,9.684914,2.018286,1008.04
34.531254768,4.526231,-13.07646,11.72065,-0.9039261,-0.09864011,0.4611567,42.44168,9.292728,1.571932,1008.042
34.565902710,-8.804168,-9.229429,14.11084,-0.7847877,0.0434457,0.4583244,42.81936,8.906225,1.571859,1008.042
34.598075390,-20.59881,-9.643724,5.408082,-0.9663466,-0.2317186,0.472692,42.81936,8.906225,1.571859,1008.042
34.632718563,-11.6914,-28.81967,-5.501008,-0.8628107,0.1334568,0.2472327,42.42961,8.519091,0.6830921,1008.042
34.664891720,-37.49217,-14.85201,-3.110814,-0.8432374,-0.2824982,0.5130586,43.17971,8.502668,0.2329445,1008.042
34.699538708,-19.12448,-17.45615,-2.926953,-0.9542437,-0.1691155,0.6051631,43.17971,8.502668,0.2329445,1008.042
34.731712341,-42.34518,-12.07031,1.853435,-0.8349464,-0.1098724,0.3707685,42.79021,8.496668,-0.6576824,1008.042
34.766359329,-21.88885,-12.4846,1.608287,-1.081273,-0.2562229,0.745892,42.79047,8.877801,-0.6595421,1008.042
34.798572540,-48.30392,-26.80738,-3.233388,-0.9270163,0.07385544,0.5336481,42.79047,8.877801,-0.6595421,1008.042
34.833216191,-19.9845,-9.111059,6.2661,-0.8543414,-0.2160471,0.4370721,42.78444,8.490982,-1.103963,1008.04
34.865388870,-12.24427,-16.74593,3.20175,-1.000343,0.1084362,0.5018415,42.40071,8.490665,-1.54831,1008.04
34.900036812,30.69559,-16.27245,1.056704,-0.8878152,-0.4780164,0.180729,42.40071,8.490665,-1.54831,1008.04
34.932209492,30.26558,-6.862029,-0.7819071,-0.9386221,0.2524844,0.4017152,42.40097,8.871799,-1.550171,1008.04
34.964381695,29.34412,-5.737514,-10.89427,-0.8937567,-0.2156366,0.2759735,42.77288,8.479612,-1.996524,1008.04
34.999029636,0.04181113,15.50991,3.753333,-0.9143808,0.1733974,0.4210809,42.77288,8.479612,-1.996524,1008.039
35.031198502,22.95536,15.68746,7.982137,-0.9412036,-0.2185537,0.496666,43.52324,8.844324,-2.448533,1008.037
35.065846443,27.99265,5.093344,-13.22317,-0.8615689,-0.03901524,0.478605,43.14504,8.468559,-2.444738,1008.039
35.098018646,-67.53164,8.526074,-11.01684,-0.7718986,0.1185935,0.3296478,43.14504,8.468559,-2.444738,1008.039
35.132666588,-42.22231,16.27931,2.037296,-0.7798767,-0.261533,0.3771984,43.52927,9.231144,-2.004113,1008.037
35.164839268,-12.67428,18.11405,-1.885073,-0.8295985,-0.253091,0.4958218,43.16263,8.866747,-1.107758,1008.035
35.199487209,-5.241204,11.36695,-15.36822,-0.8031075,-0.4154623,0.4166341,43.16263,8.866747,-1.107758,1008.033
35.231655598,33.33709,5.507639,-19.65831,-0.6594931,-0.2854802,0.3705757,43.55264,9.635015,-0.2208519,1008.032
35.266303539,38.62011,4.915789,-13.83604,-0.7727094,-0.135125,0.4721635,43.54712,10.01046,-0.668993,1008.028
35.298476219,-2.169684,1.719798,-18.80029,-0.8057013,-0.1661806,0.4519714,43.54712,10.01046,-0.668993,1008.028
35.333123207,-0.1424801,6.158674,-24.80642,-0.7302589,-0.3812903,0.3000742,43.1697,10.7781,-0.6707802,1008.026
35.365296364,12.9422,2.015723,-25.05157,-0.8446707,-0.02966847,0.5686583,43.18176,11.55174,0.2180595,1008.03
35.399943829,-15.43865,-2.600708,-21.31306,-0.7903425,-0.2506329,0.4622178,42.80383,11.5571,0.2199936,1008.029
35.432112694,-21.3974,9.236295,-18.92287,-0.7742645,-0.2733893,0.3539123,42.80383,11.5571,0.2199936,1008.029
35.464285374,13.06506,13.20169,-9.484664,-0.7955307,-0.1880998,0.5114637,42.8046,12.7005,0.2144108,1008.029
35.498933315,1.577572,6.277044,-5.133286,-0.8328882,-0.2558606,0.5122176,42.81667,13.47414,1.103251,1008.029
35.531105995,-29.32193,8.230149,-9.729813,-0.8019161,-0.2021294,0.5133356,42.81667,13.47414,1.103251,1008.027
35.565752983,8.089196,8.466889,-5.439721,-0.8007383,-0.3454212,0.3742914,43.19513,14.23104,1.097595,1008.025
35.597926140,-35.09639,14.97724,-7.891202,-0.8178794,0.07021569,0.5726057,43.57858,13.85022,1.543802,1008.025
35.632569313,-94.68388,25.57136,-7.646054,-0.7280679,-0.3405002,0.3669059,43.57858,13.85022,1.543802,1008.025
35.664742470,-8.619877,29.77349,-0.3528979,-0.8343774,-0.4640704,0.2613213,42.46261,14.64565,2.884724,1008.025
35.699389935,31.67847,30.24697,2.527592,-0.8172048,-0.1532854,0.3543391,42.85706,14.65652,4.157877,1008.023
35.731563091,33.70568,25.86728,3.324323,-0.8601474,-0.1584652,0.473269,42.85706,14.65652,4.157877,1008.023
35.766210079,-37.00073,29.47757,-2.252796,-0.9467377,-0.3544489,0.3683493,43.24681,15.04366,5.046644,1008.022
35.798382759,51.3362,7.934225,20.85241,-0.8532073,-0.03401148,0.2515464,42.88069,15.44153,5.939278,1008.02
35.833026886,-38.41363,41.96561,6.817684,-0.8053746,-0.1100488,0.1150314,42.88069,15.44153,5.939278,1008.02
35.865199089,16.13658,58.1823,15.09143,-0.7919788,-0.21191,0.1323827,42.89199,15.07177,6.833702,1008.018
35.899847031,21.2353,61.43748,13.74312,-0.9179568,-0.1974791,0.3491309,42.92011,13.95679,9.070684,1008.018
35.932019711,25.10542,60.37215,9.820748,-0.8392604,-0.2048933,0.1936136,42.92011,13.95679,9.070684,1008.016
35.966667652,-14.5172,59.366,15.45915,-0.831779,-0.2690601,0.1857848,42.5642,13.60295,10.79585,1008.015
35.998840332,25.35114,42.14316,21.09756,-0.834785,-0.2251864,0.2714885,42.20885,12.8688,12.58663,1008.015
36.031008720,31.7399,16.87116,21.95558,-0.900717,-0.2318266,0.5009987,42.20885,12.8688,12.58663,1008.015
36.065656662,-61.02002,6.158674,6.388675,-1.152285,-0.1545145,0.6085773,41.47057,13.27772,13.92747,1008.013
36.097828865,-6.162661,-13.3132,3.937194,-0.938953,-0.3543595,0.1330617,41.86006,13.28372,14.8181,1008.013
36.132476807,9.809247,13.43843,18.27836,-0.840297,0.08672334,-0.07100031,41.86006,13.28372,14.8181,1008.013
36.164649487,-23.91605,26.28158,19.87182,-1.030975,-0.0790441,0.0248482,42.60888,11.36163,14.37726,1008.013
36.199297428,-2.661127,21.60596,12.57866,-1.063648,-0.2651469,0.2920925,41.85903,11.75919,14.82554,1008.011
36.231465817,0.7175457,9.473035,2.15987,-1.068943,-0.3787679,0.4719551,41.85903,11.75919,14.82554,1008.011
36.266113758,-4.258318,9.117925,0.07611126,-0.9589068,-0.1129474,0.08077218,41.49162,10.25139,15.72749,1008.013
36.298286438,-21.88885,17.40383,4.366203,-0.8711582,0.01278301,-0.04914994,42.24801,11.00292,15.71989,1008.013
36.332934380,26.76404,26.28158,7.369267,-1.065529,-0.3450843,-0.06763852,42.24801,11.00292,15.71989,1008.013
36.365106583,15.46084,16.98953,2.834027,-1.106404,-0.06400755,0.1008679,42.25848,10.63235,16.55056,1008.013
36.399754047,-0.2653409,14.68132,3.875907,-0.9914417,-0.167691,0.01025252,41.88607,10.26226,17.00064,1008.015
36.431923390,15.95229,15.50991,5.04036,-1.004991,-0.1312508,0.006341364,41.88607,10.26226,17.00064,1008.015
36.466570377,-10.76994,0.950393,-4.336555,-1.081741,-0.2017068,0.1987945,41.50838,10.64877,17.00071,1008.016
36.498743534,-7.636991,1.956538,4.182342,-0.8630657,-0.108298,-0.07287762,41.13597,10.27869,17.45079,1008.016
36.530916214,2.314736,21.78352,15.15272,-0.9272381,-0.1836777,-0.007348342,41.13597,10.27869,17.45079,1008.016
