Time (s),Gyroscope X (deg/s),Gyroscope Y (deg/s),Gyroscope Z (deg/s),Accelerometer X (g),Accelerometer Y (g),Accelerometer Z (g),Magnetometer X (uT),Magnetometer Y (uT),Magnetometer Z (uT),Barometer (hPa)
0.027814388,4.227736,-0.6773893,-0.8391448,0.01604937,-0.3349661,0.9350336,-7.591881,30.49227,-34.93551,1008.192
0.059987068,0.8490629,-0.7365743,-0.9617189,0.02008986,-0.3097157,0.93906,-7.96982,30.49763,-34.93358,1008.193
0.094635010,-0.1952542,-0.2039092,-1.513302,0.01796874,-0.3359726,0.9316334,-7.96982,30.49763,-34.93358,1008.193
0.126808167,1.217645,-0.6773893,-2.248746,0.02190527,-0.3436995,0.9392449,-7.591881,30.49227,-34.93551,1008.192
0.161456108,1.709089,-0.3222792,-3.351913,0.0218991,-0.3422543,0.937811,-8.353281,30.87845,-35.37978,1008.19
0.193628311,1.95481,0.8614211,-4.271218,0.02570107,-0.3404322,0.9247764,-8.353281,30.87845,-35.37978,1008.19
0.225801468,4.84204,1.630826,-4.577653,0.02086079,-0.3534283,0.9358005,-8.354052,29.73505,-35.3742,1008.19
0.260449410,10.98508,1.334901,-3.964783,0.01967317,-0.3130334,0.9491586,-7.981634,30.10513,-35.82428,1008.19
0.292622566,4.166305,0.09201587,-4.209931,0.03193419,-0.2970806,0.9486936,-7.981634,30.10513,-35.82428,1008.192
0.327270508,-0.8709887,-0.6773893,-2.616468,0.02568588,-0.2897086,0.9565247,-7.981891,29.724,-35.82242,1008.193
0.359443188,-5.109687,-0.8549443,-0.4101357,0.03252928,-0.2868307,0.9564846,-8.359831,29.72937,-35.82048,1008.195
0.394091129,-14.50854,-0.7365743,0.7543178,0.02255376,-0.3048704,0.9395589,-8.359831,29.72937,-35.82048,1008.195
0.426264286,-14.50854,-0.4998343,1.060753,0.01188442,-0.3492076,0.9108551,-8.726213,29.74611,-34.92599,1008.193
0.460912228,-4.188231,-0.02635415,0.9994659,0.01432693,-0.3632408,0.9179465,-8.341982,30.50869,-34.48537,1008.193
0.493084908,0.05046748,-0.7365743,0.8156048,0.02335072,-0.3413057,0.9358772,-8.341982,30.50869,-34.48537,1008.192
0.527732372,1.709089,-0.02635415,1.489762,0.02877857,-0.3296722,0.9373684,-8.341982,30.50869,-34.48537,1008.192
0.559905529,0.2961891,1.334901,3.450947,0.02775636,-0.3379301,0.9358639,-8.353538,30.49732,-35.37793,1008.192
0.594553471,10.37078,2.577786,5.228271,0.03519203,-0.3407252,0.8928735,-8.353538,30.49732,-35.37793,1008.192
0.626726627,11.29223,5.418667,5.473419,0.02465904,-0.3583795,0.9256022,-8.725699,30.50837,-34.92971,1008.186
0.661374092,14.36375,4.294152,4.308965,0.004453402,-0.3580138,0.9600158,-7.226011,29.71326,-35.82629,1008.19
0.693547249,13.13515,0.9206061,0.5091697,0.007091694,-0.3070709,0.958965,-7.226011,29.71326,-35.82629,1008.192
0.725720406,11.47653,0.506311,-0.4714227,0.004187314,-0.286725,0.9519299,-7.981634,30.10513,-35.82428,1008.188
0.760368347,5.394914,-1.032499,-2.493894,0.01756501,-0.2827383,0.9740099,-7.615507,29.70726,-36.71691,1008.188
0.792541027,-0.318115,-1.801905,-3.045478,0.001744168,-0.3002557,0.9581072,-7.615507,29.70726,-36.71691,1008.188
0.827188969,-2.959623,-2.45294,-3.780922,0.006409425,-0.320785,0.9424704,-7.615765,29.32613,-36.71505,1008.188
0.859362125,-1.05528,-0.2630942,-4.455079,0.01980715,-0.3428555,0.9214375,-7.609986,29.33181,-36.26877,1008.19
0.894010067,14.67091,0.8614211,-2.984191,0.03555766,-0.3403927,0.9362528,-7.609986,29.33181,-36.26877,1008.19
0.926182270,17.43527,-0.6182042,-0.4714227,0.007001912,-0.227401,0.9678168,-8.360088,29.34823,-35.81863,1008.19
0.960830212,-0.5024062,-3.87338,0.4478826,0.03868017,-0.2242112,0.9612814,-7.993704,29.33149,-36.71312,1008.19
0.993003368,-11.31416,-2.512125,2.102632,0.02720603,-0.2780592,0.9575706,-7.993704,29.33149,-36.71312,1008.19
1.027651310,-10.82271,-0.08553917,1.73491,0.03089024,-0.3174475,0.9504634,-8.366381,28.58028,-36.26118,1008.19
1.059824467,-6.031143,0.3879409,0.4478826,0.01912624,-0.3116339,0.9414632,-7.6105,28.56954,-36.26505,1008.19
1.094471931,-7.444043,0.1512009,0.3253086,0.008098779,-0.2809347,0.9500132,-8.372158,28.5746,-36.70747,1008.191
1.126645088,-14.81569,-1.328424,0.2027345,0.01053366,-0.3046463,0.9608809,-8.372158,28.5746,-36.70747,1008.191
1.161293030,-15.61429,-2.33457,-0.4101357,0.01592613,-0.3481345,0.9267322,-7.982405,28.96173,-35.8187,1008.191
1.193466187,-5.846852,-1.150869,-1.206867,0.02598204,-0.3846277,0.9215175,-7.598431,29.34318,-35.37621,1008.191
1.228114128,5.456344,0.2695709,-1.206867,0.03129225,-0.3450915,0.9536058,-7.598431,29.34318,-35.37621,1008.191
1.260286331,4.227736,0.1512009,-1.329441,0.02996896,-0.3130408,0.9548463,-8.353795,30.11618,-35.37606,1008.191
1.292459965,1.217645,0.1512009,-0.9617189,0.02247887,-0.3102577,0.9332492,-8.725957,30.12724,-34.92785,1008.191
1.327107430,2.016241,-0.08553917,-0.4101357,0.02394132,-0.3223557,0.9389198,-8.725957,30.12724,-34.92785,1008.193
1.359280109,3.490571,-0.2630942,0.2027345,0.0245,-0.3150403,0.943795,-8.359831,29.72937,-35.82048,1008.193
1.393928051,3.121988,-0.2039092,0.5704567,0.02989138,-0.3053742,0.9418963,-8.348274,29.74074,-34.92793,1008.193
1.426101208,1.156215,0.3287559,0.8768918,0.03332908,-0.299085,0.9414341,-8.348274,29.74074,-34.92793,1008.193
1.460749149,-2.161027,0.506311,0.9381788,0.01639704,-0.3008001,0.959894,-8.353795,30.11618,-35.37606,1008.195
1.492922306,-5.416839,-0.2630942,0.2027345,0.02019172,-0.3154259,0.953954,-8.743547,29.72905,-36.26483,1008.195
1.527570248,-4.311092,-0.3814642,-0.2262746,0.02002755,-0.3228287,0.9379885,-8.743547,29.72905,-36.26483,1008.195
1.559742928,-2.52961,-0.3814642,0.2640215,0.02927034,-0.3248355,0.9354756,-8.732249,29.35929,-35.37041,1008.195
1.594390869,-1.362432,0.1512009,0.9994659,0.02780854,-0.3253098,0.9359675,-7.598173,29.72431,-35.37807,1008.195
1.626564026,-0.9938495,0.3879409,1.12204,0.02343139,-0.3296267,0.9398287,-7.598173,29.72431,-35.37807,1008.195
1.661211491,-1.178141,0.2695709,0.5704567,0.02646239,-0.3232611,0.9490109,-7.976113,29.72968,-35.37614,1008.195
1.693384170,-1.301002,-0.02635415,-0.04241356,0.02498027,-0.3237539,0.9470927,-8.347759,30.503,-34.93165,1008.195
1.728032112,-0.7481279,-0.02635415,-0.3488487,0.02690189,-0.3291105,0.9460666,-8.347759,30.503,-34.93165,1008.195
1.760205269,0.7876325,0.03283086,-0.1649876,0.02289659,-0.327249,0.9331053,-8.348274,29.74074,-34.92793,1008.195
1.792377949,1.217645,-0.1447242,-0.04241356,0.02637507,-0.3238241,0.938885,-8.353795,30.11618,-35.37606,1008.195
1.827025890,1.094784,0.09201587,0.01887346,0.02737946,-0.3247703,0.9427239,-8.353795,30.11618,-35.37606,1008.195
1.859199047,1.524797,-0.02635415,-0.1037006,0.02787936,-0.3199262,0.9417952,-8.353795,30.11618,-35.37606,1008.195
1.893846989,1.831949,-0.08553917,-0.2262746,0.02594771,-0.3169966,0.9428014,-7.976113,29.72968,-35.37614,1008.193
1.926020145,0.726202,0.3879409,-0.1037006,0.0206086,-0.3159766,0.9457515,-7.976113,29.72968,-35.37614,1008.193
1.960667133,-0.9938495,0.2695709,-0.3488487,0.02441111,-0.3247924,0.9379315,-7.598173,29.72431,-35.37807,1008.193
1.992840290,1.770519,0.3879409,0.1414475,0.01763257,-0.32471,0.9442613,-7.970078,30.1165,-34.93172,1008.195
2.027488232,0.1733283,-0.4406492,0.01887346,0.02701661,-0.3082127,0.9496118,-7.603951,29.71863,-35.82435,1008.195
2.059661388,-0.6866975,-0.1447242,-0.04241356,0.02107203,-0.3131,0.9414329,-7.603951,29.71863,-35.82435,1008.195
2.094309330,-1.731015,-0.1447242,0.2027345,0.02499838,-0.3203525,0.9476025,-7.975855,30.11082,-35.378,1008.193
2.126482010,-1.485293,0.2103859,0.5091697,0.0283958,-0.3208699,0.9456385,-8.359831,29.72937,-35.82048,1008.195
2.161129952,-1.362432,-0.2039092,0.3865956,0.02547806,-0.3174611,0.9452119,-8.359831,29.72937,-35.82048,1008.197
2.193303108,-2.959623,-0.2039092,0.5091697,0.01816511,-0.3227376,0.9486105,-7.987154,30.48058,-36.27242,1008.197
2.227951050,-3.266775,-1.269239,1.918771,0.008622515,-0.3055666,0.9661932,-8.353795,30.11618,-35.37606,1008.198
2.260123730,-26.79462,-12.8695,8.047474,0.03043529,-0.1521465,1.048712,-8.353795,30.11618,-35.37606,1008.198
2.294771195,-85.95211,-19.37985,12.88915,-0.06347954,-0.1664629,1.145871,-7.975598,30.49195,-35.37986,1008.2
2.326944828,-176.8691,-70.75245,-20.75743,-0.1403257,-0.3990012,1.405432,-8.32439,30.90688,-33.14838,1008.2
2.359117985,-247.5141,-98.33266,-52.62668,-0.07759968,-0.6864972,1.110867,-8.32439,30.90688,-33.14838,1008.2
2.393764973,-298.1328,-121.4148,-127.9484,0.1143567,-1.178819,0.9628275,-10.13192,34.12509,-26.96973,1008.2
2.425938130,-179.8178,-121.1781,-188.8064,0.1796169,-1.973356,0.6924965,-13.38279,38.51124,-15.56077,1008.202
2.460586071,31.0114,-126.3272,-241.881,-0.1549329,-1.498309,0.8373864,-13.38279,38.51124,-15.56077,1008.202
2.492759228,45.81612,-155.1503,-277.0598,-0.08880127,-0.7827614,0.5790147,-19.78362,40.59353,-8.906417,1008.202
2.527407169,28.43132,-157.0442,-296.0587,0.06709059,-0.7013482,0.1588917,-28.44543,35.03411,-6.156343,1008.2
2.559579849,103.3764,-141.4785,-280.9208,0.1155627,-0.3827702,0.02369588,-28.44543,35.03411,-6.156343,1008.2
2.594227791,134.7059,-147.9889,-265.4152,0.2427344,0.04370832,0.0843471,-35.96318,27.50077,-2.509895,1008.198
2.626400948,117.9354,-146.9235,-249.4193,0.371948,0.2301491,-0.07679139,-41.60512,17.70512,0.1814213,1008.197
2.661048889,172.7314,-135.7376,-200.5736,0.6829647,0.5949284,-0.4087839,-41.60512,17.70512,0.1814213,1008.197
2.693221092,127.6414,-110.9983,-160.7983,0.9029927,0.885672,-0.2662502,-44.58307,8.270895,4.259935,1008.197
2.727869034,9.940764,-71.64022,-123.7196,0.9042633,0.8207279,-0.3159614,-45.28718,0.6514768,8.70038,1008.197
2.760042190,-104.8112,-16.53897,-112.8105,0.9473194,0.6393907,-0.389194,-45.28718,0.6514768,8.70038,1008.197
2.794690132,-91.91086,35.89895,-93.32127,0.8963706,0.5683786,-0.3782181,-44.88344,-3.899069,10.95218,1008.194
2.826862812,-18.8701,82.41837,-71.01279,0.990213,0.6072913,-0.4958988,-43.38735,-10.03005,10.08165,1008.194
2.859035969,-17.94864,158.3528,-56.42648,0.9141949,0.6246935,-0.49119,-43.38735,-10.03005,10.08165,1008.194
2.893683910,-107.5142,222.3318,-10.64507,0.9091811,2.044313,0.3746633,-43.80279,-14.25126,7.426374,1008.194
2.925857067,-344.9427,189.8984,36.54594,0.1849337,0.4745445,0.02433235,-43.51776,-16.25244,0.3570061,1008.194
2.960504055,-336.6496,15.00664,177.8125,-1.71759,-2.657597,0.05337719,-43.51776,-16.25244,0.3570061,1008.192
2.992677689,483.6921,-37.60884,-8.622597,2.875741,0.7521804,0.8151283,-44.02168,-17.13278,-9.328002,1008.194
3.027325153,-36.07062,-77.67709,-3.903496,0.2023446,0.3258215,0.1357317,-44.02411,-12.18373,-9.798472,1008.194
3.059498787,83.47297,-28.08005,-14.44486,0.6557717,0.8018157,0.7856422,-44.02411,-12.18373,-9.798472,1008.194
3.094146252,68.48395,-77.79546,26.67873,0.797875,0.5859005,0.3202987,-43.25352,-14.84616,-8.514227,1008.194
3.126318932,75.60988,-40.56809,75.09547,0.714584,0.7888502,-0.1659985,-43.96947,-15.5579,-5.382674,1008.19
3.160966873,20.69109,5.832962,131.9085,0.8804549,1.172568,0.1653048,-43.94007,-14.76721,-3.154992,1008.19
3.193140030,-47.25095,25.06809,152.1333,0.6597373,0.9031052,0.4533786,-43.94007,-14.76721,-3.154992,1008.188
3.227787972,-54.0083,8.969768,191.8473,0.6594505,0.6577868,0.3636349,-45.449,-10.55326,-3.167725,1008.184
3.259960651,-116.3602,18.08426,215.6266,0.6956038,0.4673434,0.1120518,-45.82885,-4.836576,-3.639983,1008.184
3.294608593,-125.3904,61.70362,228.4969,0.696339,0.03462431,-0.1720461,-45.82885,-4.836576,-3.639983,1008.184
3.326781750,-40.92362,113.017,233.5837,0.5532072,-0.35731,-0.2322636,-45.06727,3.601146,-3.685098,1008.184
3.361429691,67.00962,143.7341,240.8156,0.3724315,-0.3148023,0.1283813,-42.82787,13.06316,-6.420903,1008.184
3.393601894,35.55724,178.1797,218.9361,0.04096103,-0.3308631,0.4128295,-42.82787,13.06316,-6.420903,1008.178
3.425775051,16.8824,186.6432,184.4315,0.1779468,-0.7208329,0.4102644,-38.7452,20.92914,-12.66543,1008.178
3.460422993,16.51382,219.6092,172.0515,0.1130819,-0.7641464,0.6683822,-31.99982,27.25086,-17.51345,1008.178
3.492596150,14.67091,184.4533,160.3457,-0.1769104,-0.8767195,1.115528,-31.99982,27.25086,-17.51345,1008.178
3.527244091,89.55458,136.7502,128.2926,-0.04244298,-1.056657,1.408737,-25.28049,31.64256,-24.26479,1008.178
3.559416771,148.0978,90.94101,91.76555,-0.03300899,-1.000537,1.51708,-17.00938,34.21125,-27.82717,1008.18
3.594064713,105.5265,45.36855,48.74205,-0.2356352,-0.6302577,1.441529,-17.00938,34.21125,-27.82717,1008.18
3.626237869,58.34793,3.169636,12.58271,-0.1025962,-0.2484711,1.060246,-11.34662,32.85549,-33.14222,1008.18
3.660885811,32.79288,-9.318401,-7.764578,0.01987695,-0.2687686,0.8357697,-7.987154,30.48058,-36.27242,1008.18
3.693058491,39.9188,4.471706,-11.19665,0.03117073,-0.1286379,0.9505715,-7.987154,30.48058,-36.27242,1008.18
3.727705955,16.02238,-1.97946,-20.75743,0.00708819,-0.1746509,1.010667,-8.372158,28.5746,-36.70747,1008.182
3.759879589,8.957878,-2.512125,-12.72883,0.0500353,-0.1153819,0.9823166,-8.762169,27.80633,-37.59437,1008.182
3.794527054,-13.27993,-5.353005,-9.541902,0.03790797,-0.1954904,0.9716474,-8.762169,27.80633,-37.59437,1008.178
3.826699734,-30.23473,-7.306111,-8.071013,0.02355673,-0.2860289,0.9917608,-9.140623,27.04943,-37.58871,1008.178
3.861347675,-16.10573,-9.140846,-8.377449,0.06672179,-0.4135908,0.9054746,-9.884174,28.21494,-36.69787,1008.182
3.893520832,11.41509,-5.41219,-4.02607,0.04937662,-0.3286765,0.8909125,-9.884174,28.21494,-36.69787,1008.179
3.925693512,11.72225,-4.701971,-2.677755,0.03469381,-0.2353888,0.9568885,-10.25634,28.22599,-36.24965,1008.179
3.960341454,-2.406749,-10.56129,-4.271218,0.07012914,-0.1627927,1.015478,-10.26237,27.83917,-36.69407,1008.183
3.992514610,-38.6507,-11.15314,-5.803394,0.1000478,-0.2072169,0.938677,-10.26237,27.83917,-36.69407,1008.183
4.027162552,-50.93678,-8.726551,-2.922904,0.03909849,-0.2846857,0.924147,-9.872618,28.22631,-35.80531,1008.183
4.059335709,-37.42208,-4.11012,-1.268154,0.1290242,-0.3961926,0.9358846,-11.00669,27.86128,-35.79765,1008.183
4.093982697,-24.39884,-0.8549443,0.9381788,0.07144591,-0.3615686,0.9198373,-11.00669,27.86128,-35.79765,1008.179
4.126155853,-23.47738,-1.801905,-1.452015,0.08565312,-0.3548186,0.9231344,-11.36601,29.78937,-34.46617,1008.183
4.160803795,-18.68581,0.8614211,-1.635876,0.09812716,-0.365231,0.9026882,-11.73188,30.56837,-33.5754,1008.179
4.192976952,-12.78849,1.867566,0.3253086,0.06362592,-0.3509023,0.9132503,-11.73188,30.56837,-33.5754,1008.179
4.227624893,-18.74724,4.886002,2.041345,0.07476605,-0.3602221,0.9077675,-11.35921,31.31959,-34.02734,1008.183
4.259797573,-23.90739,6.720737,3.38966,0.06729618,-0.3956226,0.9070634,-11.34161,31.71777,-32.69035,1008.182
4.294445515,-23.04737,7.430957,4.370252,0.04070726,-0.4416465,0.901148,-11.3411,32.48004,-32.69408,1008.182
4.326618671,-11.55988,8.022808,4.431539,0.07415809,-0.4690944,0.8880776,-11.3411,32.48004,-32.69408,1008.18
4.361266613,-6.891169,11.63309,5.963715,0.07451662,-0.4088058,0.9015853,-10.95243,32.48523,-31.8672,1008.18
4.393438816,-13.15707,12.04739,6.27015,0.05687485,-0.4034665,0.8902259,-10.19599,33.30029,-31.8751,1008.18
4.428086758,-13.52565,15.42093,8.721631,0.04119159,-0.4102203,0.8854966,-10.19599,33.30029,-31.8751,1008.178
4.460259915,-20.34443,16.84138,10.37638,0.0482071,-0.4279419,0.8578111,-9.812576,32.85595,-31.42859,1008.176
4.492432594,-20.95873,27.37631,17.3631,-0.005061897,-0.4132413,0.8415594,-9.434336,33.29523,-31.43269,1008.176
4.527080536,-14.20139,27.37631,22.94022,-0.03454257,-0.4960063,0.915862,-9.434336,33.29523,-31.43269,1008.176
4.559253693,-3.512496,16.72301,23.18537,-0.09231077,-0.6022736,0.9454089,-8.677685,34.4279,-31.44214,1008.176
4.593901634,0.3576195,20.15574,27.90447,-0.09045833,-0.4853501,0.8769476,-6.392455,34.79387,-30.11676,1008.176
4.626074791,-8.979803,25.60076,30.90753,-0.08660798,-0.5477613,0.8426573,-6.392455,34.79387,-30.11676,1008.176
4.660722732,-0.8095583,31.10496,39.0587,0.02469416,-0.5134984,0.8886551,-5.647618,35.53403,-31.01691,1008.176
4.692895412,-2.345319,39.50924,47.70018,0.03108117,-0.4603356,0.9261478,-3.746364,35.51856,-30.13402,1008.18
4.727543354,-7.689764,48.7421,51.3774,-0.01670497,-0.4373364,0.9195532,-3.746364,35.51856,-30.13402,1008.18
4.759716511,16.51382,56.02185,43.96167,-0.1627426,-0.4526852,0.9121134,-1.484247,35.8618,-30.59376,1008.18
4.794364452,14.42518,54.48304,31.82684,-0.2243357,-0.3572504,0.9115469,1.545562,36.5868,-30.16668,1008.18
4.826536655,9.817904,55.37082,17.60825,-0.4051312,-0.4252364,0.9165294,1.545562,36.5868,-30.16668,1008.182
4.861184597,32.36286,39.86435,11.96984,-0.493126,-0.4244956,0.9559166,3.42871,35.41087,-30.61704,1008.182
4.893357754,51.222,34.1234,17.73082,-0.6904402,-0.3375533,0.8365286,5.312373,34.99722,-31.07113,1008.182
4.928005695,35.8644,30.63148,15.03419,-0.7456242,-0.2671243,0.6814563,5.312373,34.99722,-31.07113,1008.182
4.960178375,19.83106,26.25179,23.4918,-0.7567226,-0.1905132,0.6012156,7.189742,33.8156,-31.96778,1008.182
4.992351532,-14.20139,24.47624,31.21397,-0.7567282,-0.2663637,0.5210604,8.318053,32.96883,-32.35208,1008.18
5.026999474,-18.99296,34.30095,50.3968,-0.7084434,-0.3077687,0.5959424,8.318053,32.96883,-32.35208,1008.182
5.059172630,-33.12196,41.81745,67.80232,-0.6633335,-0.3227873,0.6286556,10.59591,32.18491,-31.53115,1008.18
5.093819618,-30.1733,44.53996,86.00456,-0.5847306,-0.6287231,0.722764,12.88088,32.16976,-30.20391,1008.18
5.125993252,-14.81569,54.06875,85.08526,-0.6270279,-0.540471,0.8733059,12.88088,32.16976,-30.20391,1008.18
5.160640717,-50.32247,50.63602,83.36922,-0.5083887,-0.4785907,0.7917333,16.36844,32.14328,-28.43652,1008.18
5.192813873,-79.2562,52.35238,80.61131,-0.4745546,-0.5235448,0.7746589,20.16388,30.20098,-27.10771,1008.179
5.227461815,-54.92975,59.27703,73.93102,-0.3819833,-0.5584356,0.7156675,24.3661,29.42433,-23.61877,1008.179
5.259634495,-49.70817,62.65057,72.58271,-0.3356371,-0.484171,0.6199294,24.3661,29.42433,-23.61877,1008.179
5.294282436,-37.66781,67.08945,66.69915,-0.2053155,-0.3668773,0.6823403,27.42377,28.65323,-20.95284,1008.179
5.326455593,-14.13996,60.81584,71.78597,-0.0631693,-0.3514977,0.6912627,30.47541,27.4953,-18.73132,1008.183
5.361103535,-25.136,42.35012,58.73184,-0.2016712,-0.2963845,1.140305,30.47541,27.4953,-18.73132,1008.185
5.393276215,-49.27816,-14.23076,33.48159,-0.6023558,-0.8083538,1.209713,33.5191,25.5678,-17.07988,1008.185
5.427923679,24.92978,-29.20457,50.09037,-0.2392225,-0.06852466,0.4518286,35.04768,24.80112,-15.74505,1008.185
5.460097313,-66.47867,-21.62888,51.49997,-1.124275,-0.1172783,0.6717649,35.04768,24.80112,-15.74505,1008.185
5.494744778,-52.34968,-23.81873,50.33552,-1.220661,-0.388683,0.5990908,36.17469,23.25479,-16.18969,1008.186
5.526917458,-11.25273,-17.30838,49.84522,-0.967907,-0.2584328,0.5322543,36.54608,22.10034,-16.63232,1008.186
5.559090614,-30.23473,-26.00857,32.07198,-0.7470754,-0.09454589,0.7156686,36.54608,22.10034,-16.63232,1008.188
5.593738556,-19.11582,-16.77571,29.62051,-0.623751,-0.1875344,0.5696334,37.29592,21.70278,-17.08061,1008.188
5.625911713,-1.178141,-9.673512,18.52756,-0.7413695,-0.1729749,0.6195329,37.66344,20.9254,-17.84387,1008.188
5.660559177,-14.75426,-13.99402,5.350844,-0.8410458,-0.1484535,0.6510311,37.66344,20.9254,-17.84387,1008.188
5.692732334,-19.30011,-11.38988,-0.5327097,-0.737728,-0.1800402,0.6498066,37.67284,20.17288,-17.0751,1008.188
5.727380276,-7.689764,-11.92254,-3.597061,-0.6832691,-0.1983825,0.6351693,37.67309,20.55401,-17.07696,1008.192
5.759553432,-12.6042,-14.0532,-3.658348,-0.7008309,-0.2408065,0.5983515,37.67309,20.55401,-17.07696,1008.192
5.794201374,-10.57699,-16.00631,-2.003598,-0.7320693,-0.2266713,0.6488874,37.28525,20.54963,-17.84008,1008.192
5.826373577,-25.62745,-18.19615,2.960651,-0.7126428,-0.2215338,0.6352525,37.27947,20.54395,-18.28636,1008.192
5.861021519,-16.22859,-20.26763,6.699159,-0.7081313,-0.293945,0.6264194,37.27947,20.54395,-18.28636,1008.194
5.893194675,-10.51556,-17.84104,7.373316,-0.689978,-0.2499786,0.6748125,37.27998,21.30622,-18.29008,1008.195
5.927842617,-16.22859,-14.52668,7.189455,-0.7060285,-0.23631,0.6745929,36.89575,20.54363,-18.73071,1008.195
5.960015297,-15.12284,-10.38373,4.370252,-0.6274098,-0.1795922,0.6531188,36.89575,20.54363,-18.73071,1008.192
5.994663239,-34.71915,-0.02635415,-0.1649876,-0.6572871,-0.2114597,0.6555451,36.88972,20.15682,-19.17513,1008.192
6.026836395,-42.39795,8.969768,-0.2262746,-0.6391656,-0.2066165,0.6028779,36.51756,20.16787,-18.72691,1008.19
6.059009075,-34.65772,15.00664,5.595993,-0.5394558,-0.2412251,0.5221322,36.51756,20.16787,-18.72691,1008.19
6.093657017,-49.70817,29.56615,14.60519,-0.7957308,-0.4581505,0.676493,36.90782,21.31727,-17.84187,1008.19
6.125830174,7.974992,21.99047,18.71142,-0.8617232,-0.3714048,0.6792699,37.3017,21.70847,-16.63433,1008.19
6.160478115,-12.29704,8.969768,7.802325,-0.9009922,-0.3109733,0.6227766,37.3017,21.70847,-16.63433,1008.19
6.192651272,-15.2457,9.916728,-1.023006,-0.7793777,-0.2022331,0.6403723,37.69068,20.9522,-15.73998,1008.192
6.227298260,-8.856942,6.898292,-9.296754,-0.6838554,-0.2559767,0.593248,38.83028,20.94178,-15.2995,1008.193
6.259471417,-18.25579,12.81679,-18.9801,-0.8215844,-0.3037917,0.6611369,38.83028,20.94178,-15.2995,1008.193
6.294119358,-25.07457,11.69228,-30.56335,-0.7676083,-0.2640986,0.6190265,38.45812,20.95283,-14.85129,1008.193
6.326292515,-18.56295,21.75373,-39.94027,-0.6576773,-0.2964765,0.7083497,38.46993,21.34534,-13.96058,1008.193
6.360940456,-14.44711,24.00276,-60.59399,-0.8428937,-0.3388005,0.6393571,38.10432,22.50548,-13.07167,1008.193
6.393113136,-23.84596,27.19875,-72.66754,-0.6430107,-0.2302012,0.5631954,38.10432,22.50548,-13.07167,1008.195
6.427761078,-32.07764,37.85205,-74.07714,-0.672095,-0.5648793,0.5742036,37.36103,24.05212,-12.18269,1008.195
6.459934235,-13.52565,45.78285,-71.93209,-0.5574325,-0.4339328,0.5086613,35.50119,26.77451,-10.01839,1008.195
6.494582176,-18.37866,41.81745,-60.53271,-0.6133765,-0.6103687,0.4407308,35.50119,26.77451,-10.01839,1008.195
6.526754379,-5.908283,54.83815,-32.15681,-0.7249535,-0.5269655,0.4212516,34.01358,28.34325,-8.232979,1008.195
6.561402321,-18.25579,34.24177,-26.02811,-0.6862189,-0.6903248,0.3477255,32.89838,30.28208,-6.897638,1008.195
6.593575478,-8.119777,27.90897,-2.739043,-0.6995991,-0.6140786,0.3446229,32.89838,30.28208,-6.897638,1008.195
6.625748158,-10.3927,15.18419,16.19865,-0.7171113,-0.7420118,0.2969777,32.16061,31.45327,-5.560512,1008.195
6.660396099,6.254939,2.696157,30.72367,-0.775288,-0.6292224,0.3461683,32.18346,31.09488,-3.773528,1008.197
6.692569256,18.72531,-9.910252,41.01989,-0.7402629,-0.6010041,0.3774041,32.18346,31.09488,-3.773528,1008.197
6.727217197,10.80079,-20.03089,50.15166,-0.7785738,-0.5159692,0.3649666,32.9333,30.69732,-4.221816,1008.197
6.759390354,15.53093,-29.38212,56.03521,-0.7103472,-0.4506648,0.3802924,33.67133,29.90727,-5.560804,1008.197
6.794037342,7.913561,-36.48432,59.03828,-0.7389687,-0.4363435,0.3936915,33.67133,29.90727,-5.560804,1008.197
6.826210976,12.0294,-44.00082,57.81253,-0.7860467,-0.468757,0.4401355,34.7986,28.74207,-6.007304,1008.197
6.860858440,18.72531,-52.99694,51.80641,-0.8305092,-0.3709802,0.5025704,36.28044,27.16764,-8.238999,1008.195
6.893032074,8.220713,-67.97075,45.98414,-0.8153681,-0.3444843,0.5494015,36.28044,27.16764,-8.238999,1008.195
6.927679062,-21.02016,-80.45879,44.69711,-0.7349107,-0.3724664,0.4973281,37.00697,25.22363,-10.40121,1008.193
6.959852219,-14.32425,-84.365,47.76146,-0.7063801,-0.4371616,0.4974925,38.11087,23.65456,-12.63097,1008.193
6.994500160,11.41509,-75.54643,48.86463,-0.6447478,-0.3387991,0.6413642,38.11087,23.65456,-12.63097,1008.189
7.026673317,8.036422,-79.57101,37.28138,-0.6739386,-0.2496335,0.6669537,37.70327,22.48811,-14.85486,1008.193
7.061321259,14.60948,-70.75245,25.82071,-0.6176888,-0.189831,0.6534258,38.42427,20.91954,-17.46521,1008.193
7.093493938,13.62659,-63.05839,16.07607,-0.629352,-0.2888603,0.7071842,38.42427,20.91954,-17.46521,1008.193
7.125667095,28.12417,-53.76635,10.00866,-0.5686609,-0.2483775,0.7088796,37.26188,20.14576,-19.62334,1008.195
7.160315037,33.53004,-40.09461,11.29569,-0.5163547,-0.2702776,0.672061,36.4766,19.36581,-21.84715,1008.193
7.192487240,40.90169,-19.9717,19.32429,-0.5871472,-0.1753262,0.8547362,36.4766,19.36581,-21.84715,1008.193
7.227135181,24.06976,-9.732697,23.43052,-0.5254595,-0.2126469,0.8384289,36.07503,18.58617,-23.62662,1008.195
7.259308338,8.712156,8.851398,38.75227,-0.5097072,-0.126525,0.812964,35.68476,17.43677,-24.51167,1008.195
7.293956280,17.49671,19.26796,53.09343,-0.5370428,-0.2351622,0.8065395,35.68476,17.43677,-24.51167,1008.191
7.326128960,8.466434,27.49468,67.9249,-0.5171639,-0.1411201,0.8037552,36.43961,15.9015,-24.50809,1008.191
7.360776901,-5.785422,41.93582,78.89527,-0.5832803,-0.09123836,0.8096033,36.81626,13.99046,-24.50072,1008.191
7.392950058,-9.225524,48.56454,81.04031,-0.671488,-0.04568201,0.743804,36.81626,13.99046,-24.50072,1008.191
7.427598000,22.16542,52.94423,80.48873,-0.5561702,0.03612769,0.6638725,38.34407,12.08038,-23.16031,1008.191
7.459771156,21.1211,61.99954,75.40191,-0.7705934,0.06256995,0.7446573,39.4879,9.788839,-22.26239,1008.191
7.494418144,15.59236,62.82813,70.80538,-0.721226,0.05663239,0.6988397,41.40443,6.741353,-20.02577,1008.197
7.526591778,10.06363,60.04644,69.82479,-0.7764816,0.1104429,0.7176329,41.40443,6.741353,-20.02577,1008.197
7.561239243,3.920584,56.90963,75.09547,-0.8053383,-0.01799048,0.5977895,42.57004,3.709477,-17.40275,1008.198
7.593412399,32.79288,55.54837,79.75329,-0.7758562,0.1469453,0.5419982,43.34666,1.433866,-15.67409,1008.198
7.628060341,30.02851,49.80743,76.62765,-0.8693032,0.2810264,0.6230235,43.34666,1.433866,-15.67409,1008.198
7.660233021,7.299256,49.15639,72.15369,-0.9439195,0.2804727,0.6290171,44.88495,-2.052907,-13.43336,1008.198
7.692406177,15.16235,37.31939,65.41212,-0.8935204,0.3751633,0.5411216,45.28394,-5.084604,-11.63529,1008.198
7.727054119,8.036422,26.31098,51.49997,-0.8673627,0.4005226,0.4475787,45.28394,-5.084604,-11.63529,1008.198
7.793874741,-7.874056,-4.701971,26.49487,-0.785834,0.4470545,0.4288856,44.16989,-10.00049,-9.820176,1008.198
7.826047897,10.43221,-28.19842,8.782918,-0.7957065,0.4475216,0.3571636,44.16989,-10.00049,-9.820176,1008.2
7.860695839,-1.05528,-42.52119,-16.28347,-0.8368598,0.4730952,0.4999483,44.5468,-11.5304,-9.814667,1008.2
7.892868042,7.237826,-53.58879,-33.93414,-0.8197832,0.4304533,0.5201634,44.15705,-11.91753,-10.70343,1008.202
7.927515984,2.200532,-70.81163,-57.22321,-0.925438,0.2455443,0.5803568,44.15705,-11.91753,-10.70343,1008.202
7.959689140,-68.75159,-64.2421,-100.0015,-0.7962548,0.0581214,0.6547261,43.37883,-10.78613,-12.49027,1008.202
7.994337082,-166.9788,-35.30062,-144.3734,-0.7920723,-0.2244952,0.7665911,43.72364,-8.538809,-15.18105,1008.204
8.026510239,-108.1285,-1.565165,-164.5981,-0.5778391,-0.508369,0.7877978,43.72364,-8.538809,-15.18105,1008.204
8.061157703,16.08381,35.48465,-153.3213,-0.3208772,-0.4323926,0.6091326,44.45532,-2.860157,-17.38048,1008.204
8.093330860,109.7038,59.27703,-104.4755,-0.3721155,0.245231,0.4556552,44.47727,5.223411,-16.14478,1008.204
8.127978802,48.27334,67.14864,-72.05466,-0.4213517,0.4431527,0.5984902,44.47727,5.223411,-16.14478,1008.204
8.160151959,47.10616,95.91255,-20.32842,-0.566429,0.4142448,0.5957496,43.74233,10.58707,-14.82812,1008.204
8.226972103,-163.6616,102.6596,-19.77683,-1.503024,0.2057074,0.392136,44.16226,12.9083,-11.71725,1008.202
8.259145737,-94.24522,98.4575,-15.60932,-0.8173185,-0.7533111,0.3407175,44.58586,13.32873,-8.214558,1008.202
8.293793202,24.62263,98.27995,-3.045478,-0.7203231,-0.005074289,0.313205,45.78901,13.38084,-2.864992,1008.202
8.325965881,-35.27202,84.43066,5.289557,-0.7555844,-0.1770899,0.265362,45.78901,13.38084,-2.864992,1008.202
8.360613823,-18.50152,85.08169,22.94022,-0.8937066,-0.1952438,0.2139632,45.84096,14.57459,1.082197,1008.204
8.392786980,-5.908283,75.73046,33.29773,-0.8709819,-0.2052583,0.2517466,45.11949,14.23831,3.765608,1008.204
8.427434921,-9.102664,79.28156,42.06177,-1.207671,-0.245074,0.1586421,45.53654,13.50965,6.827608,1008.204
8.459607601,-10.88415,87.50828,41.93919,-1.224946,-0.08759709,0.1755255,45.53654,13.50965,6.827608,1008.204
8.494255543,-28.57611,90.40834,37.03623,-1.169112,-0.1417746,0.1094879,45.94811,12.01386,9.510799,1008.204
8.526428700,-9.041233,95.79418,40.0393,-1.057405,-0.1307265,0.04057474,45.23692,9.783276,13.09608,1008.204
8.561076641,0.9104933,104.2576,43.53266,-1.113133,-0.1309842,-0.02879732,45.23692,9.783276,13.09608,1008.204
8.593248844,8.405005,116.1538,45.2487,-1.167217,-0.04794886,-0.05893807,44.15324,8.325199,17.06209,1008.204
8.627896786,16.51382,118.9947,49.29364,-1.182324,-0.05890204,-0.1673373,41.93081,6.878356,20.65138,1008.204
8.660069942,21.7354,116.4497,53.64502,-1.180629,0.07867172,-0.2645468,41.93081,6.878356,20.65138,1008.206
8.694717884,22.16542,117.6926,59.22214,-1.205304,0.02051422,-0.269134,40.46316,5.038829,24.17492,1008.206
8.726890564,41.45456,114.9701,63.02193,-1.191223,0.1199944,-0.3258033,38.24675,3.978803,28.20863,1008.206
8.759063721,79.91,107.9863,70.74409,-1.352274,0.04590432,-0.4073332,38.24675,3.978803,28.20863,1008.206
8.793711662,80.15573,71.17321,57.07709,-1.378962,0.1052086,-0.4760032,34.8844,3.303835,31.28996,1008.206
8.825884819,78.49711,8.851398,18.71142,-1.218493,-0.07458327,-0.3989708,30.75595,3.391313,33.54263,1008.204
8.860532761,93.97757,-25.00243,-10.89022,-1.080034,0.1198956,-0.3928755,30.75595,3.391313,33.54263,1008.202
8.892705440,45.81612,-59.68484,-19.77683,-0.9893197,0.2096751,-0.210304,30.0074,5.694535,33.98162,1008.202
8.927352905,-2.652471,-93.95297,-11.01279,-0.9551327,0.08521584,-0.08873918,28.85253,8.736969,32.18741,1008.202
8.959526062,-48.41813,-117.3311,-9.970911,-0.9305071,0.006515661,-0.08190579,28.85253,8.736969,32.18741,1008.202
8.994174004,-71.82311,-106.3818,2.592928,-0.8508461,-0.1056986,-0.4204918,29.95797,9.454706,29.94649,1008.202
9.026346684,-95.16667,-93.89379,8.537769,-0.8766899,0.1206461,-0.3533148,32.57522,9.008381,27.76716,1008.2
9.060994625,-167.4703,-102.4756,0.6930307,-0.871181,0.2299221,-0.2150954,32.57522,9.008381,27.76716,1008.2
9.093167782,-196.5269,-116.6208,-12.60625,-0.8755316,0.1110609,-0.2107327,34.0631,7.820767,25.97989,1008.198
9.127815723,-178.1592,-126.0312,-37.30492,-0.8085542,0.005942851,-0.2035483,36.68325,4.330247,24.19798,1008.198
9.159988403,-165.0131,-119.9352,-59.18439,-0.7357805,0.04718819,-0.1580974,36.68325,4.330247,24.19798,1008.197
9.194635868,-176.9306,-113.6024,-82.04445,-0.7587976,0.07958981,-0.1253215,38.90261,-0.00262177,20.70066,1008.195
9.226809502,-177.7906,-101.9429,-93.44384,-0.7518578,0.02259291,-0.08488622,41.11169,-1.235082,16.23183,1008.195
9.258982658,-161.3272,-91.40802,-92.40196,-0.8184997,0.07236833,0.03278983,41.11169,-1.235082,16.23183,1008.193
9.293629646,-166.856,-79.74857,-87.19257,-0.8919834,0.09947818,0.1021429,43.34467,-1.301402,13.54254,1008.192
9.325802803,-162.1258,-75.25051,-71.93209,-0.9456825,-0.01725945,0.09830761,43.67875,0.9353633,10.02295,1008.19
9.360450745,-119.9846,-60.03996,-45.82382,-0.8836284,-0.06146301,0.0708542,43.67875,0.9353633,10.02295,1008.188
9.392623901,-70.28735,-39.20683,-18.30595,-0.9019789,-0.006589162,0.1254618,44.40078,2.09744,7.33551,1008.188
9.427271843,-27.53179,-19.02474,3.696095,-0.8738892,-0.136112,0.2788537,45.13488,2.827043,5.606552,1008.188
9.459444523,48.88765,-6.951001,25.08527,-0.8955721,-0.1928122,0.3393205,45.13488,2.827043,5.606552,1008.188
9.494092465,107.9223,2.636971,46.47443,-0.9017138,-0.1215123,0.3288796,45.12333,2.815673,4.713991,1008.186
9.526265621,115.6625,11.92902,64.67668,-0.8575376,-0.04992871,0.3247196,45.50101,2.429171,4.713919,1008.185
9.560913563,83.71869,26.19261,80.36616,-0.8140103,-0.007503201,0.3155051,45.49416,0.8354295,4.275393,1008.183
9.593085766,35.74154,38.50309,89.6205,-0.8850473,-0.02920243,0.3511751,45.49416,0.8354295,4.275393,1008.183
9.627733708,-3.942509,41.04805,92.74614,-0.8780885,-0.1301496,0.3570259,45.5149,-1.429444,6.007923,1008.181
9.659906864,-11.06844,36.31324,95.07504,-0.8664844,-0.1873668,0.37187,45.15827,-4.069271,7.808006,1008.181
9.694554806,-2.898192,26.72527,84.47239,-0.9042467,-0.2497304,0.3799022,45.15827,-4.069271,7.808006,1008.179
9.726727486,-17.58006,20.86596,68.41519,-0.9397559,-0.3151776,0.367162,44.03292,-8.615396,8.728699,1008.177
9.761375427,-43.5037,22.70069,52.90957,-0.9893835,-0.3065751,0.3807099,42.53092,-11.25049,9.642019,1008.177
9.793548584,-74.40319,23.11499,38.87484,-1.031703,-0.3134942,0.4003278,42.53092,-11.25049,9.642019,1008.177
9.825721264,-94.4295,19.44552,27.53675,-1.050053,-0.3828219,0.3989635,42.53516,-13.5316,10.09947,1008.177
9.860369205,-76.49182,18.08426,16.13736,-1.088741,-0.4895866,0.3762723,41.3935,-16.57025,9.673872,1008.176
9.892542362,-32.26193,13.40864,0.9381788,-1.167368,-0.5013402,0.374981,41.3935,-16.57025,9.673872,1008.176
9.927190304,6.807813,7.312587,-21.92188,-1.111919,-0.4094202,0.3087055,41.00323,-17.71965,8.788828,1008.174
9.959363461,34.94294,2.400231,-45.02709,-0.938199,-0.3701525,0.2886103,40.25236,-18.84663,9.244556,1008.174
9.994010448,85.37731,3.643117,-68.92903,-0.9196422,-0.3774863,0.2936787,40.25236,-18.84663,9.244556,1008.172
10.026183605,149.8792,-8.904106,-93.81156,-1.152641,-0.4040983,0.2802094,41.00901,-17.71397,9.235107,1008.17
10.060831547,215.0569,-30.21071,-122.6777,-1.380419,-0.2930542,0.1825124,42.54517,-15.80704,11.00319,1008.169
10.093004704,219.1113,-55.00923,-147.9893,-1.408282,-0.07583658,0.07177526,42.54517,-15.80704,11.00319,1008.167
10.127652168,179.673,-76.8485,-165.7012,-1.295634,0.04051839,0.06397139,44.43872,-10.11688,10.96561,1008.167
10.159825325,120.8841,-85.5487,-171.8299,-1.135497,0.07170679,0.05743226,45.16483,-2.920186,8.248705,1008.167
10.194473267,49.62481,-81.2282,-167.4786,-1.032093,0.05905775,0.05732713,45.16483,-2.920186,8.248705,1008.167
10.226646423,-14.81569,-71.28511,-155.7115,-0.9029381,-0.007015259,0.06955525,45.51437,5.108475,5.593454,1008.165
10.261294365,-68.87445,-53.47042,-141.1251,-0.8599727,-0.09759877,0.05780357,45.46674,11.53658,1.545296,1008.163
10.293466568,-92.77088,-38.49661,-121.6972,-0.8646838,-0.2307739,-0.03193828,45.46674,11.53658,1.545296,1008.163
10.325639725,-52.10395,-26.3045,-86.21197,-0.8086562,-0.3065355,-0.06441562,42.43527,16.90403,0.6421566,1008.163
10.360287666,-10.88415,-13.69809,-52.38153,-0.7502862,-0.2587537,0.0641275,41.68273,21.8695,0.6218338,1008.163
10.392460346,30.94997,-14.82261,-19.16397,-0.8553627,-0.3909113,0.1676483,41.68273,21.8695,0.6218338,1008.163
10.427108288,133.8459,-26.60042,23.79824,-0.9694794,-0.3917649,0.2352221,40.16674,24.17209,0.1721249,1008.161
10.459281445,207.931,-26.00857,61.18332,-0.9548916,-0.1454141,0.3421928,39.38248,24.91667,-2.059132,1008.161
10.493929386,155.3465,32.88051,107.7002,-1.16202,0.1952137,0.3840476,39.38248,24.91667,-2.059132,1008.161
10.526102066,-19.17725,61.11177,124.738,-1.243705,0.37656,0.6224846,40.45857,23.70113,-6.458403,1008.161
10.560749531,-126.3119,61.23014,137.3018,-1.093,0.0778178,0.8147893,41.57249,19.85663,-7.784439,1008.161
10.592923165,-83.12631,47.02573,135.8309,-0.9332947,-0.2646265,0.8215619,41.57249,19.85663,-7.784439,1008.161
10.627570629,30.94997,35.54384,126.3927,-0.9780621,-0.3178138,0.6301874,44.26698,15.29662,-3.759121,1008.157
10.659743309,21.48968,22.93743,107.884,-0.8219179,-0.01637145,0.4822777,45.80346,10.34802,-1.575019,1008.157
10.694391251,-83.67918,12.99435,93.23643,-0.6480502,0.01685646,0.3083734,47.38616,5.001149,-0.664463,1008.157
10.726564407,-162.6173,15.71686,88.82377,-0.6256504,-0.05914421,0.223188,47.38616,5.001149,-0.664463,1008.157
10.761212349,-206.9086,15.48012,82.69507,-0.7725915,-0.2367894,0.1286226,47.32664,1.577528,-0.2011147,1008.153
10.793385029,-196.3426,14.82908,77.97597,-0.8253592,-0.388352,0.07821959,47.33006,-1.910511,0.2622223,1008.153
10.828032970,-155.3071,21.81292,77.24052,-0.927097,-0.4349678,0.07300061,47.33006,-1.910511,0.2622223,1008.153
10.860206127,-130.0592,23.88439,73.07301,-0.950834,-0.3660607,0.1186161,46.9498,-5.335344,0.2809029,1008.153
10.892379284,-135.1579,27.61305,67.4346,-0.9009862,-0.3517351,0.1201971,46.18557,-9.141626,-0.1429024,1008.153
10.927026272,-132.0863,39.62761,58.67055,-0.8595336,-0.3684069,0.1249748,46.18557,-9.141626,-0.1429024,1008.153
10.959199429,-106.8999,56.25859,47.63889,-0.8526168,-0.4196593,0.2179957,45.42738,-12.56109,-0.1222878,1008.151
10.993847370,-19.23868,55.72593,33.97188,-0.9244569,-0.5907313,0.5209153,45.04789,-14.84252,-0.10919,1008.151
11.026020527,146.0706,38.38472,19.56943,-0.9550775,-0.725866,0.601063,45.04789,-14.84252,-0.10919,1008.151
11.060667992,291.7835,22.70069,-9.78705,-1.019513,-0.3860989,0.4343194,43.94771,-16.31684,2.581739,1008.153
11.092841148,273.9073,9.324878,-29.82791,-1.045046,-0.07239164,0.4381079,44.3708,-16.65868,6.088156,1008.153
11.127489090,128.5629,-1.565165,-11.9321,-1.03304,0.4571756,0.4491096,44.3708,-16.65868,6.088156,1008.153
11.159662247,-52.22681,-7.365296,-7.887153,-0.990921,0.3740062,0.3911551,44.41253,-14.71322,9.202816,1008.158
11.194309235,-169.8661,2.873712,-12.91269,-0.9479268,0.09251391,0.3590313,44.41959,-12.80186,9.639793,1008.153
11.226482868,-221.0376,9.443248,-18.73495,-0.9576273,-0.1563095,0.3122445,44.41959,-12.80186,9.639793,1008.153
11.261130333,-199.2912,16.66382,-16.28347,-1.084679,-0.4439692,0.3149146,44.39648,-12.8246,7.854671,1008.153
11.293303967,-122.3803,8.377917,-14.07714,-1.175752,-0.5685945,0.3971589,44.75028,-14.37725,6.075058,1008.154
11.327951431,-32.93766,-3.51827,-16.40605,-1.044699,-0.5287872,0.2935983,44.75028,-14.37725,6.075058,1008.154
11.360124111,54.60067,-0.9141293,-29.15375,-1.017719,-0.5074416,0.1836266,45.11774,-14.01204,5.242456,1008.154
11.426945210,245.1578,-12.8695,-81.86059,-1.102515,-0.3671632,0.1296623,44.36238,-13.23903,5.242603,1008.154
11.459117890,298.6637,-31.63115,-102.7595,-1.205387,-0.2229835,0.1294009,45.8812,-11.34916,5.671843,1008.156
11.493765831,273.3544,-58.08685,-116.6716,-1.224487,0.004252164,0.1275965,46.27219,-7.913765,6.48197,1008.156
11.525938988,191.8976,-76.90769,-120.2876,-1.157608,0.06918572,0.1569097,46.27219,-7.913765,6.48197,1008.156
11.560586929,97.23338,-83.47723,-119.0005,-1.075258,0.06814519,0.2009587,47.38784,-1.853662,4.725027,1008.152
11.592759133,7.544978,-81.52412,-115.8136,-0.994785,0.04642625,0.2058127,47.7867,4.256253,1.122446,1008.152
11.627407074,-71.51596,-70.39734,-110.0526,-0.9447924,-0.05606529,0.1649773,46.6166,9.188112,-1.956153,1008.152
11.659580231,-105.6713,-59.09299,-105.2722,-0.8536881,-0.1504305,0.1344293,46.6166,9.188112,-1.956153,1008.154
11.694228172,-104.5655,-44.59267,-94.66958,-0.7492809,-0.2452293,0.1191776,45.38821,13.74461,-4.650042,1008.156
11.726400852,-67.83014,-33.05159,-75.18031,-0.6651203,-0.296662,0.1126662,43.89109,18.35105,-3.772073,1008.156
11.761048794,-14.32425,-20.91866,-53.30084,-0.6313727,-0.2948633,0.1788821,43.89109,18.35105,-3.772073,1008.156
11.793221950,13.31944,-10.62047,-23.14762,-0.702235,-0.2472905,0.2599474,41.63104,21.05688,-3.327215,1008.156
11.827869892,22.65686,-4.11012,15.89221,-0.7256554,-0.2041708,0.2976354,40.48695,22.96729,-4.223279,1008.156
11.860042095,15.89952,5.655407,52.11284,-0.6916326,-0.1735539,0.3245623,40.48695,22.96729,-4.223279,1008.157
11.894690037,2.753406,17.78834,89.31406,-0.7305372,-0.2070871,0.3569428,41.22601,23.70176,-5.56971,1008.157
11.926863193,0.4804804,36.84591,126.7604,-0.8183588,-0.2781659,0.3354864,41.60215,21.02846,-5.558619,1008.159
11.959035873,17.25098,67.14864,170.2129,-1.24954,-0.2588739,0.2933968,41.60215,21.02846,-5.558619,1008.159
11.993683815,-17.51863,82.06326,199.6307,-1.430255,-0.2025846,0.3639911,45.03044,17.9595,-3.329734,1008.161
12.025856972,-67.27726,79.39993,201.7758,-1.207878,-0.1555418,0.4394238,46.56615,11.8675,-1.140049,1008.163
12.060504913,-65.25006,76.38149,176.8932,-1.021884,-0.2444504,0.5482972,46.56615,11.8675,-1.140049,1008.164
12.092677593,14.73234,60.40155,146.5561,-1.091482,-0.3338794,0.6137612,48.18749,3.892491,2.907494,1008.164
12.127325535,67.50106,39.68679,106.0454,-1.127593,-0.119441,0.4519863,47.38604,-4.521597,4.738052,1008.164
12.159498692,26.40412,20.74759,69.08935,-0.9907649,-0.009581407,0.2467654,47.38604,-4.521597,4.738052,1008.164
12.194146633,-43.56513,11.51472,42.98108,-0.8586239,-0.05913727,0.1998159,46.28297,-9.045795,7.380114,1008.164
12.226318836,-73.35887,15.42093,20.79517,-0.8518271,-0.1297669,0.1716963,45.90875,-12.08381,7.843214,1008.162
12.260966778,-84.78493,18.321,-3.535774,-0.8903974,-0.1049679,0.2156405,45.90875,-12.08381,7.843214,1008.162
12.293139935,-105.7941,17.5516,-18.9801,-0.9047186,-0.1181452,0.2600095,45.15133,-14.35988,7.858248,1008.162
12.327787876,-133.2535,14.65153,-29.15375,-0.8831683,-0.1771759,0.2978817,44.76184,-14.36588,6.967621,1008.162
12.359960556,-147.3211,15.24338,-34.79216,-0.8283647,-0.2585148,0.2966998,44.76184,-14.36588,6.967621,1008.164
12.394608498,-132.6392,18.67611,-35.09859,-0.7775838,-0.3201534,0.3299398,45.13374,-14.75806,6.521265,1008.166
12.426781654,-83.80205,23.58847,-32.89226,-0.7779988,-0.3582864,0.3571032,45.11723,-14.77431,5.246178,1008.166
12.461429596,-4.986826,25.89668,-30.44078,-0.8248971,-0.369743,0.4148043,45.11723,-14.77431,5.246178,1008.164
12.493601799,73.58267,18.85367,-27.56029,-0.9350528,-0.3391321,0.4739245,45.49537,-13.25595,5.173046,1008.164
12.525775433,117.014,10.8045,-16.83506,-0.9545912,-0.04563782,0.5040004,46.64704,-12.49273,6.502365,1008.166
12.560422897,78.49711,-2.393755,-10.52249,-0.9566876,0.08190273,0.4250594,46.64704,-12.49273,6.502365,1008.166
12.592596531,44.34179,-5.353005,-2.922904,-0.9293956,-0.003782394,0.3460145,46.29876,-11.31554,8.73012,1008.164
12.627243519,23.33259,-2.45294,5.657279,-0.9462331,-0.05759965,0.3428359,47.04989,-9.80743,8.272528,1008.166
12.659416675,-10.45413,-3.932565,9.886085,-0.9895067,-0.0553061,0.3606106,47.04989,-9.80743,8.272528,1008.166
12.694064617,-54.74546,-6.832631,5.718567,-0.9730311,-0.1052644,0.3128091,46.67773,-9.796377,8.720743,1008.166
12.726237774,-78.39617,-5.944856,-1.268154,-0.972097,-0.1952138,0.2932608,46.66618,-9.807747,7.828182,1008.164
12.760885239,-60.8885,-9.791882,-5.558246,-1.2618,-0.2767969,0.3531314,46.65436,-10.20025,6.937483,1008.166
12.793058395,-43.68799,-17.84104,-17.5705,-1.361221,-0.2244427,0.3434047,46.65436,-10.20025,6.937483,1008.164
12.827706337,-59.22988,-29.44131,-37.97908,-1.171304,-0.1275877,0.2484412,46.64807,-10.9682,6.494923,1008.166
12.859879494,-49.58531,-28.96782,-58.57152,-1.001055,-0.155048,0.1960163,47.82259,-11.00713,4.767429,1008.166
12.894526482,8.896447,-27.66575,-68.50002,-0.9317951,-0.129833,0.2375118,47.82259,-11.00713,4.767429,1008.166
12.926699638,55.33784,-30.98012,-74.50615,-0.9272989,-0.03743569,0.2632956,48.19026,-9.1182,3.86363,1008.167
12.961347580,12.45941,-38.49661,-63.96478,-1.052041,0.03923577,0.3065436,48.55241,-6.853823,2.511692,1008.167
12.993520737,-22.06448,-46.36822,-57.95865,-1.096679,-0.1550364,0.1988366,48.55241,-6.853823,2.511692,1008.163
13.025693417,-40.49361,-46.36822,-49.25589,-1.11402,-0.116503,0.1491882,49.29879,-3.826861,1.600376,1008.163
13.060341358,-59.04559,-46.78251,-50.11391,-0.9683175,-0.1333748,0.1322655,49.64963,-1.19272,-0.6459846,1008.163
13.092514515,-52.04252,-39.50276,-44.90452,-0.9044526,-0.1289134,0.1225484,49.64963,-1.19272,-0.6459846,1008.163
13.127162457,-41.84508,-33.16996,-36.32433,-0.8583114,-0.1148724,0.1477796,49.24492,0.6907039,-2.821004,1008.167
13.159334660,-52.22681,-28.19842,-24.86366,-0.8503944,-0.1157791,0.1611942,49.6134,3.786556,-3.730695,1008.167
13.193982601,-66.23295,-24.7065,-10.70636,-0.8293647,-0.1665789,0.1331052,49.6134,3.786556,-3.730695,1008.163
13.226155758,-60.02848,-21.33296,9.334501,-0.794622,-0.2072469,0.1059358,49.22469,4.923955,-4.626905,1008.163
13.260803700,-57.87841,-20.386,34.76861,-0.7849633,-0.2305987,0.1051711,48.84122,5.304772,-5.073112,1008.165
13.292976379,-66.47867,-21.74725,54.93204,-0.7680256,-0.3009303,0.1222673,48.84122,5.304772,-5.073112,1008.165
13.327624321,-70.84023,-21.80644,69.88608,-0.8435635,-0.4024583,0.1255091,48.82338,4.525451,-6.408233,1008.161
13.359797478,-78.4576,-22.3391,79.63071,-0.9591552,-0.4854467,0.1152995,49.57822,2.99018,-6.404657,1008.162
13.394445419,-76.92184,-29.26375,96.17821,-1.095795,-0.4838018,0.1146601,49.57822,2.99018,-6.404657,1008.162
13.461265564,-151.3755,-51.04383,106.7196,-1.079787,-0.3505413,0.09681134,49.15594,-2.82477,-9.498466,1008.164
13.493439198,-194.5611,-61.34203,99.978,-1.041511,-0.3480819,0.0627345,49.15594,-2.82477,-9.498466,1008.166
13.525611401,-228.5935,-76.49339,83.43051,-0.9314333,-0.3246416,0.02623265,48.36941,-6.65298,-11.64364,1008.164
13.560259342,-264.8375,-69.80549,73.62459,-1.025536,-0.3453404,-0.01210188,47.11355,-8.598497,-16.09102,1008.164
13.592432499,-269.8748,-70.75245,71.78597,-1.483775,-0.4038938,-0.1586926,47.11355,-8.598497,-16.09102,1008.164
13.627080441,-289.3482,-91.17128,65.47341,-1.255303,-0.4044241,-0.2061368,45.16168,-9.013699,-20.86107,1008.162
13.659253120,-311.9546,-89.33654,54.99333,-0.8425178,-0.4147857,-0.150788,43.59425,-7.142592,-25.26169,1008.162
13.693901062,-318.7119,-66.43195,43.47137,-0.6955965,-0.430995,-0.08095662,43.59425,-7.142592,-25.26169,1008.162
13.726074219,-300.59,-48.08458,35.3202,-0.7440352,-0.5271009,-0.04948498,41.28297,-3.344525,-28.83894,1008.162
13.760722160,-222.6348,-40.74564,34.64604,-0.7338719,-0.7588583,0.05262145,39.76355,2.446104,-29.75198,1008.162
13.792894363,-106.777,-56.19293,38.75227,-0.5630082,-0.5188317,0.6993672,39.76355,2.446104,-29.75198,1008.164
13.827542305,-199.967,-66.25439,25.75942,-1.090289,-0.7816187,0.3333913,38.62781,8.173527,-30.22037,1008.164
13.859715462,-111.8143,-74.8954,14.17618,-0.7121856,-0.9058123,0.2073754,37.50183,11.24438,-29.78318,1008.165
13.894363403,-45.16232,-70.39734,1.428475,-0.7099249,-0.8116541,0.08232871,37.12595,14.29882,-29.79613,1008.165
13.926536083,26.58841,-67.43809,1.183327,-0.6653074,-0.5965701,0.1193535,37.12595,14.29882,-29.79613,1008.165
13.961184025,-22.00305,-51.04383,16.68894,-0.7552934,-0.322751,0.1961965,35.2089,16.58404,-32.02903,1008.16
13.993357182,-106.1013,-46.72333,8.415195,-0.9510948,-0.3992179,0.1617252,33.66857,15.81564,-34.18522,1008.16
14.028004169,-97.4396,-38.91091,-0.4714227,-0.7982121,-0.5990044,0.1586515,33.66857,15.81564,-34.18522,1008.164
14.060177803,-46.51379,-19.08393,-3.045478,-0.8135548,-0.5498381,0.167394,31.41326,17.00262,-33.28664,1008.164
14.092350960,-5.416839,-6.832631,-5.313097,-0.8320079,-0.5046917,0.1563704,30.65892,19.30015,-33.29393,1008.164
14.126998901,37.58445,4.234967,-2.248746,-0.8298577,-0.4919482,0.1738074,30.65892,19.30015,-33.29393,1008.164
14.159171104,71.73976,7.312587,2.470355,-0.842675,-0.4485192,0.195493,31.03789,20.81932,-33.30331,1008.165
14.193819046,75.36416,6.661552,11.29569,-0.7576392,-0.3106387,0.3177821,30.26942,19.29415,-34.18456,1008.165
14.225992203,28.67704,-0.3814642,18.65013,-0.7834385,-0.250155,0.5286732,30.26942,19.29415,-34.18456,1008.165
14.260640144,-61.93282,-22.51666,25.51427,-0.8519854,-0.1051763,0.7801837,30.63452,17.37175,-35.06975,1008.165
14.292812824,-173.9205,-44.77022,22.32735,-0.8308812,-0.2920506,0.4781606,31.01143,15.84184,-35.06424,1008.165
14.327460766,-182.0293,-47.84784,18.52756,-0.7480819,-0.5211492,0.2793255,31.01143,15.84184,-35.06424,1008.165
14.359633923,-178.6506,-47.07844,11.84727,-0.7694871,-0.6190718,0.218468,30.65263,18.5322,-33.73649,1008.165
14.394281864,-169.9889,-45.42126,7.066881,-0.7603691,-0.6835725,0.2313472,29.17754,22.77944,-31.1353,1008.167
14.426454067,-131.7178,-41.04157,-0.4101357,-0.7189061,-0.8413249,0.1313319,29.17754,22.77944,-31.1353,1008.167
14.461102009,-18.13293,-18.43289,2.899364,-0.6815431,-0.7334601,0.1699504,27.70303,26.64636,-28.46848,1008.165
14.493275166,3.859153,-3.577455,10.68282,-0.7271242,-0.4728829,0.1946959,26.96731,30.86662,-27.14624,1008.165
14.527922630,-12.97278,6.720737,10.19252,-0.6609223,-0.4946772,0.2435445,26.96731,30.86662,-27.14624,1008.165
14.560095787,-24.70599,15.71686,7.066881,-0.7344234,-0.5421275,0.4631489,27.35077,30.4858,-26.70004,1008.165
14.594743729,-40.43217,19.44552,-3.719635,-0.8481109,-0.6812256,0.416309,28.10113,30.85052,-27.15204,1008.165
14.626916886,4.227736,17.5516,0.9994659,-0.7549213,-0.6115868,0.3803456,28.10113,30.85052,-27.15204,1008.165
14.659089565,-18.62438,22.04966,8.599057,-1.050706,-0.55021,0.3440876,28.50687,30.49162,-24.98447,1008.165
14.693737030,16.51382,24.77217,9.273214,-0.8794249,-0.7979449,0.1143893,29.26327,31.24315,-24.99206,1008.165
14.725910664,133.9688,22.04966,26.92388,-0.8593467,-0.6645526,0.1162657,29.26327,31.24315,-24.99206,1008.165
14.760557651,175.68,17.43323,30.23338,-1.123628,-0.4247592,0.2002385,29.64121,31.23779,-24.99399,1008.167
14.792730808,181.5773,0.9797911,20.97904,-0.9909977,-0.3529776,0.1528387,30.74542,28.90727,-27.15628,1008.167
14.827378750,117.0754,7.667697,7.312029,-0.9254383,-0.07279167,0.2114128,31.06775,23.51487,-31.14869,1008.167
14.859551907,18.66388,3.998227,-12.48368,-0.9115801,-0.1862467,0.1732342,31.06775,23.51487,-31.14869,1008.163
14.894199371,-6.584017,4.353337,-22.84119,-0.9416822,-0.3053236,0.1330094,31.80925,19.30029,-32.02465,1008.163
14.926372528,-18.01007,0.09201587,-29.70533,-0.9224232,-0.322099,0.1100375,31.8043,19.29542,-32.40717,1008.163
14.961020470,-16.0443,-1.50598,-34.48572,-0.8344185,-0.3904932,0.04647449,31.8043,19.29542,-32.40717,1008.163
14.993192673,-2.52961,1.926751,-36.44691,-0.8462172,-0.3832603,0.03266623,31.4263,20.44337,-32.47458,1008.163
15.027840614,-2.222458,2.814527,-34.73087,-0.8585683,-0.3519427,0.05762164,31.05491,21.59783,-32.03194,1008.163
15.060013771,-14.99998,3.761487,-29.95048,-0.8625032,-0.37613,0.06565294,31.05491,21.59783,-32.03194,1008.165
15.094661713,-22.24877,4.353337,-22.22832,-0.8579773,-0.4137109,0.04168291,30.31059,21.61994,-31.13552,1008.163
15.126834393,-35.08773,5.655407,-15.48674,-0.841105,-0.4024162,0.06957457,29.56152,23.16089,-30.69281,1008.161
15.159007549,-51.67394,5.181927,-10.58378,-0.8064184,-0.4276984,0.08639446,29.56152,23.16089,-30.69281,1008.161
15.193655491,-65.25006,7.904438,-3.290626,-0.7695464,-0.4822384,0.08704677,29.95153,23.92916,-29.8059,1008.161
15.225828171,-70.71737,10.21265,2.715503,-0.7783775,-0.5407494,0.1097828,28.83659,26.24912,-28.47243,1008.161
15.260475636,-62.60855,6.483997,6.331437,-0.7651685,-0.654907,0.1689683,28.83659,26.24912,-28.47243,1008.157
15.292649269,-39.94073,1.808381,7.802325,-0.7651747,-0.7318003,0.2054484,29.24444,27.79671,-26.2504,1008.159
15.327296734,-3.942509,-0.5590192,8.170048,-0.7523784,-0.7269289,0.2159732,29.64018,29.71325,-24.98655,1008.16
15.359469414,26.64984,-7.246926,4.6154,-0.7717101,-0.6870457,0.2772143,29.64018,29.71325,-24.98655,1008.16
15.394117355,44.77181,-18.0186,-1.206867,-0.8090495,-0.643644,0.3425084,30.0239,29.71357,-24.5422,1008.16
15.426290512,39.42736,-24.35139,2.899364,-0.8423538,-0.5435275,0.3378606,30.00688,28.93506,-25.81357,1008.162
15.460938454,10.18649,-29.14538,14.48261,-0.8837821,-0.484763,0.3155957,30.00688,28.93506,-25.81357,1008.162
15.493111134,-20.09871,-33.70263,27.96576,-0.8985797,-0.4751623,0.2921949,28.85521,28.17184,-27.14289,1008.158
15.527759075,-21.57304,-21.74725,60.8156,-1.260685,-0.5376911,0.3215682,28.087,27.02781,-28.026,1008.158
15.559932232,-26.91748,-39.50276,67.61846,-1.262021,-0.4529429,0.2957693,28.087,27.02781,-28.026,1008.158
15.594580174,-0.3795454,-41.51505,63.51222,-0.8945684,-0.4911167,0.4289138,29.22685,27.39852,-27.58738,1008.16
15.626752377,69.52827,-38.20069,49.60007,-0.8929775,-0.4619571,0.3717814,29.59195,25.47612,-28.47257,1008.16
15.658925533,119.7783,-43.23141,36.05564,-0.9087197,-0.2695339,0.2636188,29.59195,25.47612,-28.47257,1008.156
15.693573475,87.1588,-45.83555,27.65932,-0.846907,-0.0475479,0.1366602,29.93971,23.53666,-30.6966,1008.156
15.725746155,11.47653,-36.1884,25.882,-0.8202089,-0.02266439,0.1076963,29.52536,19.69739,-33.28999,1008.156
15.760394096,-58.36986,-24.64732,21.59191,-0.8165022,-0.1065205,0.1248043,29.52536,19.69739,-33.28999,1008.156
15.792567253,-95.47382,-13.52054,13.44073,-0.7661589,-0.1598902,0.1600446,27.99446,17.03388,-34.60807,1008.156
15.827214241,-100.2654,-3.103975,8.292622,-0.7673485,-0.2722676,0.1890132,27.6286,17.81288,-33.7173,1008.158
15.859387875,-74.09604,1.098161,8.353909,-0.7974143,-0.3545976,0.193435,27.6286,17.81288,-33.7173,1008.154
15.894035339,-31.70906,6.069702,13.44073,-0.8250765,-0.3615361,0.1570039,27.65268,20.50274,-32.00896,1008.154
15.926208973,-2.283888,14.53316,19.81458,-0.8375129,-0.2940282,0.1543025,26.92043,21.29849,-30.22369,1008.154
15.960855961,10.67793,23.35173,24.96269,-0.8560513,-0.2572174,0.1952669,27.68286,22.43684,-29.78686,1008.155
15.993029118,25.23694,30.98659,28.45605,-0.8259939,-0.2605241,0.2894311,27.68286,22.43684,-29.78686,1008.155
16.027677059,53.67922,36.60917,30.41724,-0.8017471,-0.2647276,0.3894261,28.43822,21.66383,-29.787,1008.155
16.059849739,69.34398,35.95813,29.92694,-0.8178139,-0.1617632,0.5764767,29.94896,20.11782,-29.7873,1008.153
16.094497681,13.38087,33.11725,34.3396,-0.8533058,0.04687698,0.6074478,29.94896,20.11782,-29.7873,1008.153
16.126670837,-58.18557,15.71686,38.81356,-0.9068417,-0.05847804,0.443199,31.83737,18.18531,-29.78766,1008.159
16.161318779,-16.10573,7.786067,47.70018,-0.9060904,-0.4748533,0.3274535,32.60403,17.04255,-28.89339,1008.155
16.193490982,70.51115,10.68613,57.68996,-0.9628801,-0.4380242,0.346121,32.60403,17.04255,-28.89339,1008.157
16.225664139,88.81741,13.82294,60.57045,-0.984587,-0.200811,0.3776811,33.74363,17.03213,-28.45291,1008.155
16.260312080,31.80999,16.30871,50.70324,-1.006376,-0.06034875,0.3882004,34.49141,13.5855,-28.88631,1008.153
16.292484760,-25.99603,18.38019,39.67158,-1.031393,-0.140578,0.3535505,34.49141,13.5855,-28.88631,1008.153
16.327132702,-30.48045,19.09041,31.76555,-1.263757,-0.3319187,0.3792052,35.24498,10.14457,-28.87343,1008.153
16.359305859,6.623522,10.0351,17.54696,-1.307132,-0.4041874,0.4209481,36.38932,8.615295,-27.97923,1008.153
16.393953800,28.24703,-4.761156,-8.1323,-1.103536,-0.3093207,0.3287325,36.38932,8.615295,-27.97923,1008.153
16.426126480,39.61165,-13.16543,-35.77275,-0.8727656,-0.2679222,0.2440166,36.3951,8.62098,-27.53295,1008.154
16.460773945,76.03989,-16.47979,-61.39072,-0.9554369,-0.2705961,0.22163,36.76675,7.84766,-27.97744,1008.154
16.492947102,108.8437,-28.13923,-82.53475,-1.047726,-0.1933404,0.23566,36.76675,7.84766,-27.97744,1008.154
16.527594566,95.57476,-42.04771,-96.87592,-1.10666,-0.08752604,0.1980403,36.38958,8.996429,-27.98109,1008.153
16.559767723,62.15661,-52.40509,-107.0496,-1.091166,-0.06982253,0.1749057,34.84315,8.983794,-30.65104,1008.154
16.594415665,24.86835,-55.1276,-117.5909,-1.04504,-0.05334086,0.1389432,34.84315,8.983794,-30.65104,1008.154
16.626588345,-6.092574,-50.62954,-124.5164,-0.9461384,-0.08782895,0.1362901,32.93689,10.13698,-31.98579,1008.154
16.661236286,-28.69897,-37.60884,-126.6614,-0.8829497,-0.1367288,0.1299953,30.27006,11.67717,-33.70107,1008.15
16.693409443,-40.61647,-25.8902,-122.8616,-0.8602376,-0.2129663,0.1402408,30.27006,11.67717,-33.70107,1008.152
16.728056908,-36.74635,-14.28994,-110.1752,-0.8387319,-0.3058501,0.1310805,27.62757,16.28835,-33.70985,1008.152
16.760229587,-17.58006,-5.353005,-92.40196,-0.8393033,-0.3426747,0.1389762,25.36199,19.36963,-33.71314,1008.152
16.792402744,8.835017,-6.655076,-70.82893,-0.7826963,-0.3159138,0.1839766,25.36199,19.36963,-33.71314,1008.152
16.827050686,27.07985,-8.904106,-49.62362,-0.6451612,-0.3070353,0.2280744,22.34708,23.61073,-33.27186,1008.152
16.859223366,48.02762,-5.53056,-23.45406,-0.6050256,-0.3443971,0.3184898,20.45816,24.78097,-33.26777,1008.15
16.893871307,78.43568,4.175782,9.089353,-0.789706,-0.3504869,0.3539028,20.45816,24.78097,-33.26777,1008.15
16.926044464,92.81039,8.259547,38.38455,-0.935403,-0.312817,0.3613568,18.9288,24.40426,-34.59702,1008.146
16.960692406,79.54143,12.34331,69.39578,-0.8651522,-0.2039726,0.4223306,18.91069,23.2438,-35.93027,1008.146
16.992864609,65.59672,20.92514,91.27525,-0.8021352,-0.1679953,0.4707211,18.91069,23.2438,-35.93027,1008.146
17.027512550,43.48177,52.52994,117.2609,-1.266386,-0.06328879,0.3428844,20.01909,19.77476,-37.70445,1008.146
17.059685707,-21.26589,55.78511,126.5766,-1.347823,-0.07492041,0.3555984,21.51672,15.93058,-38.58614,1008.146
17.094333172,-60.21277,50.6952,134.2375,-1.098742,-0.1233991,0.4608424,24.56681,12.48585,-36.35346,1008.146
17.126506329,-70.28735,43.94811,120.5704,-0.9988714,-0.183044,0.4695408,24.56681,12.48585,-36.35346,1008.146
17.161154270,-45.22375,30.5723,94.76861,-0.9300783,-0.2403849,0.3792562,27.60663,10.93543,-35.02265,1008.146
17.193326950,-12.66563,22.2864,66.76044,-0.9017028,-0.2041178,0.2539706,30.26903,10.15263,-33.69362,1008.146
17.227974415,-1.05528,17.43323,42.91979,-0.8290465,-0.1522661,0.1640682,30.26903,10.15263,-33.69362,1008.142
17.260148048,-13.46422,18.26182,27.78189,-0.823606,-0.1111233,0.1527886,31.78528,8.231178,-33.24577,1008.147
17.292320252,-42.52081,20.51085,16.93409,-0.8325149,-0.12332,0.2019352,32.17374,6.712645,-32.3477,1008.144
17.326968193,-69.24303,22.46395,6.821733,-0.8684918,-0.156868,0.2342883,32.17374,6.712645,-32.3477,1008.144
17.359141350,-82.94202,23.94358,-0.2875617,-0.910509,-0.1881368,0.2435805,33.31277,7.082546,-31.97284,1008.144
17.393789291,-88.9622,23.23336,-2.984191,-0.9194026,-0.2157563,0.2439178,33.70934,8.9999,-30.64523,1008.144
17.425961971,-87.91788,25.71913,-2.310033,-0.8682594,-0.2422111,0.2451505,33.70934,8.9999,-30.64523,1008.144
17.460609913,-64.08289,31.22333,-2.187459,-0.8250209,-0.2818087,0.2993685,33.73977,11.31512,-28.425,1008.144
17.492783070,-108.6814,22.99662,-1.023006,-0.8096929,0.3449268,0.8914677,34.52005,13.23279,-26.65305,1008.145
17.527431011,-178.7735,20.21492,4.799262,-0.8296433,-0.06799954,0.5171101,34.52005,13.23279,-26.65305,1008.147
17.559603214,-137.3694,13.29027,8.415195,-0.9040693,-0.3244476,0.3209626,34.53841,14.77438,-25.32165,1008.147
17.594251156,-0.9938495,-2.393755,7.189455,-0.9201446,-0.7076625,0.2774654,34.96406,18.24388,-21.83384,1008.147
17.626424313,155.4694,-4.406045,16.68894,-0.9769281,-0.5474802,0.1790599,34.96406,18.24388,-21.83384,1008.149
17.661071777,187.2289,3.761487,22.32735,-0.9597284,-0.1283511,0.2228427,35.72097,19.75768,-21.84515,1008.149
17.693244934,87.09737,4.945187,15.89221,-0.9836603,0.08440753,0.2918179,35.68007,17.81303,-24.89605,1008.151
17.727892876,-15.86001,14.88827,8.966779,-1.140514,-0.04021046,0.2696002,35.68007,17.81303,-24.89605,1008.151
17.760065556,-40.24789,12.16576,5.718567,-1.321685,-0.2091575,0.3368958,35.67146,13.61488,-25.32187,1008.152
17.794713020,-29.49756,1.334901,-2.861617,-1.312925,-0.3044485,0.3220505,35.67749,14.0017,-24.87745,1008.152
17.826886654,-18.44009,-14.34913,-22.47346,-1.129412,-0.2834997,0.198565,35.67749,14.0017,-24.87745,1008.151
17.859058857,-1.362432,-20.20844,-48.33659,-0.9802465,-0.2007301,0.1390515,35.68245,14.00657,-24.49492,1008.152
17.893706799,21.48968,-23.58199,-76.46733,-0.9879112,-0.1260916,0.1199764,34.91634,14.76901,-25.32358,1008.152
17.925879955,34.08292,-28.2576,-94.60829,-1.144815,0.01509648,0.1375464,34.91634,14.76901,-25.32358,1008.152
17.960527897,-5.048257,-44.35593,-109.4398,-1.177566,0.1887725,0.1050619,32.63266,16.68984,-26.66012,1008.148
17.992700577,-69.55019,-46.36822,-118.878,-1.094083,0.1627985,0.0635808,31.1159,17.84903,-27.10425,1008.148
18.027348518,-92.21801,-39.56194,-121.7584,-1.05804,0.01704015,0.06782682,31.1159,17.84903,-27.10425,1008.15
18.059521675,-86.7507,-36.42514,-116.4265,-1.073052,0.0123844,0.08383451,26.95536,21.71373,-27.54786,1008.15
18.094168663,-94.12235,-39.02928,-101.0434,-1.021026,0.007601132,0.06354763,23.2019,25.98262,-25.76387,1008.15
18.126341820,-91.72657,-42.52119,-78.67367,-0.9528553,-0.08471428,0.03226651,19.8253,29.8642,-24.04371,1008.15
18.160989761,-82.57343,-48.73562,-46.06897,-0.8673639,-0.1145148,-0.0005888538,19.8253,29.8642,-24.04371,1008.152
18.193162441,-86.1364,-55.95619,-16.28347,-0.8306701,-0.1817895,-0.01498185,16.8154,32.96759,-23.15056,1008.15
18.227810383,-105.2413,-65.78091,14.78905,-0.7990614,-0.3203114,-0.01931077,13.75912,35.00904,-20.91298,1008.148
18.259983540,-112.7972,-73.7117,43.71652,-0.8514071,-0.4318749,0.01929989,13.75912,35.00904,-20.91298,1008.148
18.294631481,-119.3088,-90.81617,71.29568,-0.9737641,-0.5732808,0.04530382,13.41687,36.57306,-18.2408,1008.148
18.326804161,-115.7459,-109.9329,90.84624,-1.007873,-0.6556807,-0.02494714,13.07876,38.14113,-15.24986,1008.15
18.358977318,-113.4115,-119.2842,100.407,-1.017089,-0.5825648,-0.05366035,13.07876,38.14113,-15.24986,1008.15
18.393625259,-159.0543,-132.4232,91.88812,-0.990606,-0.4244863,-0.05646024,14.61966,38.52922,-13.02805,1008.151
18.425797463,-197.3255,-144.5561,75.03419,-0.9324541,-0.4227673,-0.0478307,17.36341,39.28712,-10.36795,1008.151
18.460445404,-197.8783,-157.2809,63.51222,-0.964404,-0.4881383,0.01458843,17.36341,39.28712,-10.36795,1008.153
18.492618084,-209.1201,-157.3401,77.11795,-1.145117,-0.5550079,-0.08742449,19.29826,38.92381,-6.869266,1008.155
18.527266026,-240.6953,-161.0688,83.85952,-1.273095,-0.5891892,-0.2595499,20.85624,38.94781,-3.306756,1008.152
18.559439182,-266.1889,-163.2586,80.42744,-0.8633907,-0.5769479,-0.233388,20.85624,38.94781,-3.306756,1008.154
18.594087124,-249.2956,-138.8744,76.99537,-0.70301,-0.5286873,-0.1029008,23.18006,37.82824,1.086275,1008.154
18.626259327,-227.9178,-119.7576,73.31815,-0.7035881,-0.5370997,0.06477106,26.25976,36.69793,5.475437,1008.154
18.660907268,-170.9718,-100.5225,79.32428,-0.6523893,-0.7346498,0.09736866,26.25976,36.69793,5.475437,1008.154
18.693080425,-115.9916,-86.7324,89.43664,-0.7199535,-0.6662956,-0.02000925,29.32714,33.20673,9.047268,1008.156
18.727728367,-74.52605,-79.68938,98.75227,-0.6899019,-0.583495,-0.02635504,32.74387,30.1264,10.38359,1008.156
18.759901047,-67.953,-64.47884,104.5132,-0.7290202,-0.4978184,-0.01901771,32.74387,30.1264,10.38359,1008.158
18.794548988,-78.27331,-51.93161,110.0904,-0.8112574,-0.4493228,-0.01447655,34.99815,27.41489,9.492451,1008.159
18.826721668,-110.0328,-40.15379,112.7257,-0.8024761,-0.4116504,-0.0330459,38.01281,22.79265,9.053028,1008.159
18.861369133,-130.0592,-23.9371,112.9709,-0.8419929,-0.4409419,-0.01749467,38.01281,22.79265,9.053028,1008.161
18.893542767,-128.5234,-8.608181,112.7257,-0.8773186,-0.4066444,0.001433691,40.28391,19.33592,9.504454,1008.159
18.925714970,-122.0118,6.898292,113.3386,-0.9079931,-0.3600061,-0.01283758,41.80388,14.37108,10.41347,1008.159
18.960363388,-104.5655,21.33944,114.6256,-0.9102693,-0.3390517,-0.0034856,41.80388,14.37108,10.41347,1008.157
18.992536068,-80.30051,32.70296,116.2191,-0.9346476,-0.3195683,-0.01032749,43.32988,9.793064,11.7669,1008.157
19.027184010,-39.69501,46.72981,121.6736,-0.9942691,-0.2565243,0.007136556,43.34305,4.854571,13.06618,1008.161
19.059356689,-4.00394,57.67904,123.8799,-0.9353706,-0.1892906,0.01485324,43.34305,4.854571,13.06618,1008.161
19.094004631,49.62481,70.99566,124.4315,-0.8940172,-0.165879,-0.06968952,42.98458,-0.5167121,14.8796,1008.163
19.126177788,172.9156,82.71429,116.7094,-0.9174484,-0.3136296,-0.1733548,41.49939,-3.897015,17.13548,1008.163
19.160824776,283.7361,112.9578,88.27219,-0.9527657,-0.0821775,-0.01639536,40.40288,-7.27213,20.21824,1008.163
19.192997932,284.3504,110.9455,64.06381,-1.124652,0.364721,0.04480471,40.40288,-7.27213,20.21824,1008.165
19.227645874,159.7695,80.99792,29.92694,-1.14734,0.35167,-0.151747,37.45525,-6.011878,26.02978,1008.161
19.259818554,88.01882,66.9119,11.90856,-1.063104,0.208056,-0.2790368,34.84057,-1.754217,28.19049,1008.163
19.294466496,66.1496,67.79967,-2.616468,-0.9607128,0.08237234,-0.4612962,34.84057,-1.754217,28.19049,1008.164
19.326639652,75.67131,74.90187,-7.764578,-0.9294596,0.1189507,-0.4183883,33.3482,1.333379,29.52219,1008.163
19.361287594,37.58445,68.98337,-14.38358,-0.9016053,0.144923,-0.3683061,31.85562,4.103365,30.85543,1008.163
19.393459797,19.33962,65.49146,-16.40605,-0.8158714,0.0448541,-0.5126029,31.85562,4.103365,30.85543,1008.164
19.425633431,21.79683,61.99954,-16.03833,-0.8345923,0.08492126,-0.5530679,29.98428,5.671796,32.1965,1008.164
19.460280895,-5.662561,50.87276,-14.44486,-0.8713172,0.194201,-0.5045883,28.11295,7.240227,33.53756,1008.166
19.492453575,-71.82311,25.36402,-3.842209,-0.9625426,0.3820443,-0.1850329,28.11295,7.240227,33.53756,1008.166
19.527101517,-126.2505,-21.03703,-15.36417,-0.9165107,0.1011583,-0.2624879,26.61352,8.416471,34.43228,1008.166
19.559274674,-54.49974,-27.36983,-17.75436,-0.7649555,0.06692105,-0.3875763,25.86734,6.913232,35.2724,1008.166
19.593922138,-32.26193,-32.93322,-25.5991,-0.8292378,0.2568462,-0.3473327,25.86734,6.913232,35.2724,1008.166
19.626095295,-59.35275,-52.46428,-27.80544,-0.8272458,0.2006668,-0.1410367,27.7508,4.975849,34.88951,1008.166
19.660743236,-54.92975,-74.65866,-32.76968,-0.7081188,0.2170516,-0.1424952,29.251,4.943006,33.98921,1008.166
19.692915440,-76.61469,-81.46494,-36.20176,-0.8553486,0.300159,-0.2233401,29.251,4.943006,33.98921,1008.166
19.727563381,-109.2342,-89.57328,-72.66754,-1.050902,-0.1222053,-0.2351194,31.50079,4.131473,32.64249,1008.168
19.759736538,-62.66999,-114.7861,-77.20277,-1.323287,0.0293486,-0.1436044,34.86758,4.049047,29.9474,1008.166
19.794384479,-68.81303,-123.4863,-69.11289,-1.35986,0.1610478,-0.1460335,34.86758,4.049047,29.9474,1008.168
19.826557159,-21.81876,-120.4087,-72.11595,-1.276317,0.09685167,-0.04564033,38.99603,3.961569,27.69472,1008.174
19.861205101,-57.50983,-111.4717,-67.88715,-0.9906967,-0.006505912,0.07905433,42.72476,4.6198,23.71889,1008.169
19.893377304,-6.461156,-101.7062,-70.52249,-1.025824,-0.1793667,0.04759105,42.72476,4.6198,23.71889,1008.169
19.928025246,-9.716968,-92.05905,-65.25181,-1.21398,-0.1410803,0.1706442,44.94277,6.824038,19.74335,1008.171
19.960198402,-0.2566846,-86.49566,-52.9944,-1.249572,-0.1313153,0.3440947,47.15416,9.021779,15.25778,1008.173
19.992371082,37.76874,-79.57101,-50.1752,-1.424147,-0.1129234,0.3506953,47.15416,9.021779,15.25778,1008.175
20.027019024,46.55329,-63.65024,-52.81054,-1.341889,0.003868412,0.4429524,48.25016,11.63462,12.17874,1008.177
20.059192181,62.5252,-69.80549,-48.33659,-0.955971,-0.2107104,0.2452646,48.58316,13.48944,8.597258,1008.177
20.093840122,95.75906,-63.47269,-53.91371,-0.9713126,-0.1766832,0.493918,48.58316,13.48944,8.597258,1008.178
20.126012802,152.9508,-54.71331,-62.98419,-0.9923971,0.02490295,0.5005966,48.16632,15.74182,5.464064,1008.182
20.160660744,162.9025,-72.94229,-65.86468,-1.046815,0.3796226,0.7059866,46.97709,17.98869,1.059649,1008.184
20.192833900,62.15661,-109.9921,-70.0322,-0.7425855,0.4715191,0.8600732,46.97709,17.98869,1.059649,1008.185
20.227480888,34.32864,-130.3517,-46.8657,-0.7525934,0.1417722,0.6415124,45.78234,20.61101,-3.792907,1008.185
20.259654045,74.93414,-110.9391,-21.67673,-0.6144021,-0.08677854,0.2975651,43.06216,21.33695,-9.58474,1008.185
20.294301987,110.2566,-50.80709,3.879956,-0.6941962,0.1141067,0.112468,41.11628,22.45116,-13.9797,1008.187
20.326474667,78.43568,-3.16316,24.84012,-0.7037039,0.2433106,0.3705276,41.11628,22.45116,-13.9797,1008.187
20.361122608,77.75994,23.58847,43.47137,-0.6791401,0.1861654,0.592029,40.30877,20.50669,-17.85555,1008.189
20.393295765,94.8376,37.55613,49.17106,-0.6975328,0.04958228,0.6180666,40.28886,16.6783,-19.17578,1008.187
20.427942753,84.39442,43.29708,33.48159,-0.7307081,-0.0706913,0.7354745,40.28886,16.6783,-19.17578,1008.187
20.460115910,56.93503,37.49694,13.62459,-0.7553193,-0.1539737,0.8087634,42.18227,13.60807,-18.72429,1008.187
20.492288590,45.38611,28.32327,-9.664476,-0.6688545,-0.1344574,0.7517236,42.191,9.426975,-17.81126,1008.187
20.526936531,33.46861,24.83135,-30.93107,-0.6089764,-0.2271371,0.604837,42.191,9.426975,-17.81126,1008.187
20.559109688,11.90654,31.81518,-57.95865,-0.6106359,-0.3577966,0.5285834,42.95158,9.039978,-17.43074,1008.187
20.593757630,-25.07457,27.73142,-100.308,-0.7439725,-0.5488068,0.7239446,42.96809,9.05622,-16.15565,1008.185
20.625930309,37.52302,31.99274,-96.38561,-0.6858413,-0.6213893,0.4755381,42.96809,9.05622,-16.15565,1008.185
20.660578251,71.55547,33.82747,-71.25793,-0.8185501,0.4220527,0.4386247,42.98671,10.97894,-14.82611,1008.185
20.692751408,-107.8828,-1.624349,-76.77377,-1.025115,0.3106477,0.6502675,42.61108,14.41451,-14.84093,1008.185
20.727398395,-124.2233,3.939042,-59.24568,-0.7484415,-0.2000897,0.3716276,42.61108,14.41451,-14.84093,1008.185
20.759571552,-80.42337,11.33717,-51.89124,-0.9598508,-0.3607623,0.6113474,41.5014,15.97789,-13.05744,1008.185
20.794219494,-32.9991,4.590076,-53.66856,-0.693163,-0.06644143,0.5553734,40.76517,19.43588,-11.73148,1008.185
20.826392174,-78.82618,25.8375,-53.23955,-0.7541821,-0.2871103,0.6018414,40.76517,19.43588,-11.73148,1008.185
20.861040115,-27.22464,48.80128,-54.22014,-0.9010195,-0.3558954,0.5250427,40.40637,22.12624,-10.40373,1008.185
20.893213272,-65.31149,59.57296,-57.89737,-0.8430334,-0.1875705,0.5495072,38.54602,24.08636,-8.235717,1008.185
20.927860260,-30.60331,71.64669,-47.356,-0.7289146,-0.5326887,0.2429015,38.54602,24.08636,-8.235717,1008.187
20.960033417,-5.232548,74.7835,-29.15375,-0.7114217,-0.4221815,0.2966693,38.59931,26.04319,-4.228496,1008.187
20.994681358,-7.01403,74.66513,-15.73189,-0.9359205,-0.5085747,0.2782899,36.74448,27.62787,-1.612339,1008.183
21.026854038,15.03949,63.18324,-7.274282,-0.9084646,-0.4606458,0.154073,36.74448,27.62787,-1.612339,1008.184
21.059027195,-12.11275,52.82586,3.267086,-0.9906701,-0.6263052,0.2079403,36.39621,28.80506,0.6154156,1008.186
21.093675137,20.3225,34.24177,10.92796,-0.903786,-0.3902895,0.1541273,36.41328,28.44098,1.956118,1008.188
21.125847816,5.579205,24.94972,17.91468,-0.9695464,-0.5261459,0.117953,36.41328,28.44098,1.956118,1008.19
21.160495758,14.8552,15.71686,22.26606,-0.9633321,-0.3943183,0.0968098,36.43036,28.0769,3.296822,1008.19
21.192668915,9.572182,10.44939,23.00151,-0.8322791,-0.3821864,0.1810009,36.42458,28.07122,2.85054,1008.19
21.227315903,13.50373,4.234967,25.882,-0.8327262,-0.3869824,0.1881955,36.42458,28.07122,2.85054,1008.188
21.259489060,9.817904,6.839107,26.61744,-1.016212,-0.3725688,0.2396724,36.81356,27.31495,3.744888,1008.186
21.294137001,10.98508,-1.328424,23.67566,-0.9968457,-0.3311433,0.08511135,37.19099,26.54732,3.746675,1008.186
21.326309681,12.33655,-1.210054,16.8728,-0.981921,-0.3711307,0.1964663,37.1847,25.77937,3.304117,1008.186
21.393130779,14.30232,7.016662,-5.251811,-0.8836021,-0.363595,0.1040311,38.69594,24.99562,3.300104,1008.184
21.427778721,-4.741105,14.53316,-7.94844,-0.9302544,-0.3288515,0.1105369,38.31826,25.38213,3.300177,1008.184
21.459950924,12.27512,22.2864,-14.56744,-1.117578,-0.4574566,0.1811145,38.31826,25.38213,3.300177,1008.183
21.494598866,2.016241,23.35173,-17.38664,-0.8535088,-0.160906,0.1608512,37.95791,25.78568,4.639091,1008.183
21.526771546,2.323393,24.6538,-17.20278,-0.9723349,-0.6202632,0.1220231,37.94636,25.77431,3.746529,1008.183
21.558944702,20.5068,17.43323,-9.970911,-0.8415173,-0.1757378,0.259427,37.94636,25.77431,3.746529,1008.183
21.593592644,-4.249661,6.898292,1.367188,-0.9449403,-0.5110887,0.1351995,36.81882,26.55837,4.194891,1008.183
21.625765324,34.75865,-17.36756,11.35697,-0.9295152,-0.2367473,0.09586529,37.19099,26.54732,3.746675,1008.184
21.660413265,-11.68274,-21.09622,17.79211,-0.8349891,-0.3079877,0.1710339,37.19099,26.54732,3.746675,1008.184
21.692586422,17.92672,-24.29221,22.75636,-0.8983953,-0.3259808,0.1256872,37.18521,26.54163,3.300396,1008.184
21.727233410,2.446254,-32.51892,19.56943,-0.9864531,-0.2846774,0.1379354,37.55159,26.52489,2.405901,1008.183
21.759406567,7.85213,-40.5089,11.2344,-1.000582,-0.3527696,0.1736558,37.55159,26.52489,2.405901,1008.18
21.794054508,15.16235,-49.26828,0.3865956,-0.98192,-0.2802561,0.2107115,38.29514,25.35939,1.515053,1008.18
21.860875130,11.35366,-61.57877,-18.9801,-0.8372205,-0.1550902,0.296189,37.8941,25.34202,-0.2681351,1008.182
21.893048286,-2.836762,-63.53187,-27.13128,-0.8615682,-0.2922179,0.3107097,37.86,24.92759,-2.880203,1008.182
21.927695274,11.16937,-65.24825,-37.67265,-0.9241722,-0.339909,0.3171667,37.45946,25.67248,-4.667113,1008.182
21.959868431,7.114965,-70.45652,-45.27224,-0.9011254,-0.372842,0.404404,37.45946,25.67248,-4.667113,1008.18
21.994516373,29.22991,-72.29126,-51.46223,-0.7319939,-0.4295149,0.4655006,36.67572,27.17933,-6.902091,1008.182
22.026689053,38.01446,-72.76474,-52.9944,-0.8187175,-0.4004635,0.5263172,35.89172,28.30504,-9.135209,1008.184
22.061336994,15.89952,-81.34657,-76.65119,-0.770807,-0.5612042,0.6725189,35.89172,28.30504,-9.135209,1008.184
22.093510151,-96.82529,-64.65639,-171.4009,-0.1587998,-1.368287,0.9532103,33.58549,29.82281,-12.19126,1008.184
22.125682831,54.90783,-58.02767,-181.6359,-0.3793939,-1.0963,0.6451752,30.93516,31.37923,-12.63144,1008.18
22.160330772,180.2259,-91.34883,-232.1977,-0.175569,-1.058583,0.3172707,30.93516,31.37923,-12.63144,1008.18
22.192503929,382.0248,-52.04998,-154.2406,-0.2532482,-0.277314,-0.07128524,24.49046,36.46602,-14.40819,1008.18
22.227150917,256.0924,-75.90154,-113.8524,-0.4370755,0.5064422,0.6131367,15.97815,38.73782,-24.89596,1008.18
22.259324074,59.76083,-71.69941,-99.26611,-0.2692675,-0.009374226,0.7389043,15.97815,38.73782,-24.89596,1008.18
22.293972015,191.9591,-55.71945,-52.9944,-0.7766804,-0.3452972,0.9727113,9.440314,32.94136,-33.25044,1008.18
22.326144695,106.7551,-67.3789,-52.01381,-0.4901111,0.137586,1.275268,4.095101,29.91628,-37.22501,1008.18
22.360792637,-32.32336,-84.48337,-58.63281,-0.3254243,-0.2601019,0.8559331,1.023097,25.34096,-40.6937,1008.18
22.392965794,38.62877,-59.92159,-44.59808,-0.2802704,-0.2769027,0.7204135,1.023097,25.34096,-40.6937,1008.178
22.427612782,10.73936,-53.82553,-50.72678,-0.0981254,-0.04725656,0.9722108,-3.884854,24.65417,-40.21855,1008.178
22.459785938,2.569114,-48.73562,-38.40809,-0.2589149,-0.05274117,1.353481,-7.670543,23.93991,-40.64177,1008.178
22.494433880,-88.28646,-40.44972,-53.23955,-0.04930883,0.02248469,1.172842,-7.670543,23.93991,-40.64177,1008.178
22.526606560,-124.469,-24.11465,-48.58174,0.06394637,-0.3409395,0.9465874,-10.30482,23.60772,-39.73381,1008.179
22.561254501,-35.27202,-16.89408,-43.31105,0.01744409,-0.700465,0.8712754,-12.54311,25.57321,-37.56387,1008.183
22.593427658,60.19084,-20.74111,-40.737,0.1506543,-0.6122359,0.9430597,-12.54311,25.57321,-37.56387,1008.183
22.625600338,60.49799,-24.11465,-38.22423,0.1568785,-0.299173,1.009688,-14.04202,27.51172,-36.67287,1008.183
22.660248279,45.81612,-25.29835,-36.63077,0.2525296,-0.3111379,0.8414435,-16.00178,25.62811,-37.09986,1008.183
22.692420483,92.87183,-23.99628,-40.67571,0.1593057,-0.3717321,1.04329,-16.00178,25.62811,-37.09986,1008.185
22.727068424,147.5449,-28.84945,-53.30084,0.167382,-0.3004048,0.9825884,-17.90457,23.35678,-37.97159,1008.185
22.759241581,216.8384,-24.82487,-52.74926,0.236062,0.03707775,0.9201418,-20.19656,20.318,-39.66647,1008.185
22.793889046,182.9288,-17.07164,-38.46938,0.06292377,0.2091002,1.023431,-20.19656,20.318,-39.66647,1008.183
22.826062202,101.5949,-17.66349,-33.13741,-0.04917954,0.2306864,0.8549916,-22.11374,13.84283,-41.41029,1008.181
22.860710144,85.25446,-9.377586,-35.65018,0.06342088,0.1507811,0.7621843,-22.88632,6.219526,-42.26176,1008.179
22.892882347,89.49315,5.122742,-20.20584,0.1176931,0.3250263,0.9226561,-22.88632,6.219526,-42.26176,1008.178
22.927530289,79.72572,8.910583,-6.232403,0.08925913,0.3999269,0.9871629,-23.64503,2.037795,-42.23743,1008.178
22.959703445,70.14257,8.318732,7.49589,0.08513887,0.568924,0.9958245,-24.01955,-1.444875,-41.77216,1008.178
22.994350910,18.41816,6.010517,10.68282,0.09933554,0.4481143,0.8852822,-24.01955,-1.444875,-41.77216,1008.174
23.026524067,10.49364,7.845253,21.22418,0.1719554,0.3756557,0.8512313,-23.64944,-4.504997,-42.20548,1008.174
23.061172009,-0.4409758,8.081992,28.08833,0.14502,0.3041338,0.8745109,-23.26624,-5.266947,-41.75742,1008.175
23.093344688,1.033354,1.038976,35.87178,0.1605027,0.4127008,0.8641756,-23.26624,-5.266947,-41.75742,1008.175
23.127992153,-36.00919,1.630826,40.9586,0.2328541,0.4012993,0.9429364,-22.89382,-4.896867,-42.20749,1008.177
23.160165787,-39.75644,-6.477521,42.36821,0.14872,0.234295,0.8840227,-22.88779,-4.510049,-41.76307,1008.177
23.192337990,-23.41595,-1.801905,37.52653,0.1624539,0.1690838,0.8076831,-22.88779,-4.510049,-41.76307,1008.179
23.226985931,-6.706878,7.608512,24.47239,0.1712498,0.1265344,0.7715822,-23.26418,-2.21788,-41.7723,1008.179
23.259158611,3.060558,20.09655,21.71448,0.1498758,0.2771198,0.7103631,-23.25712,-0.306527,-41.33533,1008.179
23.293806553,-32.56908,25.71913,2.960651,0.1297135,0.361257,0.593155,-23.25712,-0.306527,-41.33533,1008.177
23.325979710,-1.11671,36.60917,16.01479,0.08070203,0.5887687,0.9227657,-23.2742,0.05755186,-42.67603,1008.177
23.360627651,-56.0355,24.47624,12.21499,0.1878087,0.7440495,1.049812,-22.90781,0.04081357,-43.57052,1008.175
23.392799854,-101.8012,30.27637,17.66954,0.2704886,0.3716312,1.022352,-22.90781,0.04081357,-43.57052,1008.178
23.427447796,-62.73141,36.43161,34.21703,0.192595,0.2532671,1.043793,-20.64488,1.590974,-44.03616,1008.178
23.459620476,-82.08199,28.79675,37.22009,0.001552019,0.1621583,1.001927,-20.27092,4.247855,-44.4974,1008.182
23.494268417,-56.34265,17.78834,34.40089,0.01936472,-0.1040406,0.9855883,-19.13453,8.043085,-44.52181,1008.182
23.526441574,0.9104933,11.81065,32.31713,0.05982111,-0.1299512,1.050549,-19.13453,8.043085,-44.52181,1008.18
23.561088562,29.5985,9.916728,24.28853,0.07853628,-0.06319231,1.096715,-16.85328,11.07131,-43.65574,1008.184
23.593262196,29.41421,5.359482,12.03113,0.07569753,-0.0152233,1.084123,-16.48086,11.44139,-44.10581,1008.184
23.627909660,17.80386,-0.6182042,-1.14558,0.1131347,0.01690073,0.9939044,-16.48086,11.44139,-44.10581,1008.184
23.660082340,25.29837,-3.28153,-3.903496,0.1134823,0.06125895,0.9557069,-16.49293,10.66776,-44.99465,1008.184
23.694730282,34.69722,-2.985605,-6.29369,0.09867629,0.1805474,0.9944244,-15.68035,9.888172,-45.4414,1008.184
23.726903439,24.43834,-3.932565,-6.048542,0.08483633,0.2626244,0.9918562,-15.68035,9.888172,-45.4414,1008.18
23.759076118,2.630545,-3.04479,-5.129236,0.09589045,0.2667664,0.9696152,-16.12231,8.3699,-45.4317,1008.18
23.793724060,-7.751195,-1.387609,-4.393792,0.08556879,0.1845809,0.942524,-16.50076,7.613002,-45.42605,1008.178
23.825896263,-7.321182,0.8614211,-4.087357,0.09777352,0.1487406,0.9604307,-16.50076,7.613002,-45.42605,1008.178
23.860544205,3.42914,2.222676,-2.310033,0.08966009,0.1291214,0.9916745,-16.5068,7.226184,-45.87047,1008.178
23.892717361,11.47653,2.459416,-1.881024,0.07655351,0.1466583,0.9914594,-16.12283,7.607634,-45.42798,1008.18
23.927365303,16.2681,1.808381,-0.2875617,0.05709236,0.1840434,0.9803813,-16.12283,7.607634,-45.42798,1008.176
23.959537983,12.95086,1.334901,-0.2262746,0.07442416,0.2026007,0.9432586,-16.87896,7.237237,-45.42225,1008.178
23.994185925,17.55814,3.347192,1.367188,0.0757754,0.220383,0.9212206,-16.49524,7.237554,-44.97791,1008.178
24.026358604,14.0566,2.696157,2.34778,0.07770932,0.3160288,0.9889889,-16.49524,7.237554,-44.97791,1008.178
24.061006069,-12.17418,-1.032499,1.980058,0.1046281,0.3067422,1.060961,-16.50154,6.469602,-45.42046,1008.178
24.093179703,-27.47036,-5.116265,0.9994659,0.07650587,0.1963852,1.019826,-16.507,5.702462,-45.79927,1008.178
24.127826691,-20.8973,-6.063226,-0.5939968,0.08029749,0.0986575,0.9375269,-16.507,5.702462,-45.79927,1008.174
24.159999847,0.41905,-1.920275,-0.7778578,0.08425282,0.08905081,0.8901748,-16.50649,6.464729,-45.80299,1008.174
24.194647789,19.83106,1.571641,-0.9004319,0.1111029,0.1841153,0.9615619,-16.49524,7.237554,-44.97791,1008.178
24.226820469,15.71522,0.7430511,1.73491,0.1010654,0.2902218,0.9933782,-16.49524,7.237554,-44.97791,1008.178
24.258993626,-10.33127,-2.393755,-0.2262746,0.08414476,0.2721131,0.9630209,-16.87896,7.237237,-45.42225,1008.174
24.293640614,-20.59015,-3.28153,-0.5939968,0.07657358,0.1515123,0.9914993,-16.12881,6.078227,-45.80306,1008.172
24.325813770,-5.47827,-1.97946,-0.04241356,0.1071684,0.1120551,0.9928164,-16.12881,6.078227,-45.80306,1008.174
24.360461712,8.343574,-0.8549443,-0.4101357,0.1170671,0.1633912,0.9844715,-16.50128,6.850735,-45.42233,1008.174
24.392634392,8.773586,-1.150869,0.2640215,0.0975026,0.1953631,0.9637096,-17.25138,6.867157,-44.97218,1008.174
24.427282333,4.657749,-1.387609,0.01887346,0.08650505,0.2053334,0.9277444,-17.25138,6.867157,-44.97218,1008.176
24.459455490,2.077671,-0.02635415,0.4478826,0.07449665,0.2152395,0.9457721,-16.87344,6.861788,-44.97411,1008.174
24.494102478,-0.6866975,0.6246811,-0.2875617,0.08977452,0.195958,0.9729445,-17.25716,6.861472,-45.41846,1008.176
24.526276112,3.121988,0.6246811,0.08016049,0.09511593,0.1896208,0.9728425,-16.87318,7.242922,-44.97597,1008.177
24.560923576,4.473457,0.2695709,-0.1037006,0.09520794,0.2177515,0.9701815,-16.87318,7.242922,-44.97597,1008.181
24.593096256,-0.8095583,0.09201587,-0.5327097,0.09383963,0.2163951,0.9822331,-16.87948,6.47497,-45.41853,1008.181
24.627744198,-3.328205,-0.5590192,-0.7165708,0.1064692,0.1829128,0.9914792,-17.26237,6.475466,-45.79913,1008.181
24.659916878,1.094784,-0.7957593,-0.4714227,0.100828,0.172536,0.9639723,-17.26237,6.475466,-45.79913,1008.177
24.694564819,2.016241,-0.4998343,-0.04241356,0.08857737,0.1923767,0.9483442,-16.8737,6.480655,-44.97225,1008.177
24.726737976,2.753406,0.2103859,0.2027345,0.08732422,0.2032143,0.9682072,-16.1236,6.464233,-45.4224,1008.179
24.761384964,1.831949,0.09201587,0.3865956,0.1015738,0.2162892,0.973484,-16.1236,6.464233,-45.4224,1008.179
24.793558121,0.2347587,0.3879409,0.4478826,0.09903224,0.2200775,0.9595611,-16.87948,6.47497,-45.41853,1008.181
24.825731277,-4.00394,-0.2630942,-0.04241356,0.09520643,0.2075952,0.9749178,-16.87896,7.237237,-45.42225,1008.181
24.860378742,-4.372522,-0.6773893,-0.2875617,0.1039971,0.1799943,0.9890682,-16.87896,7.237237,-45.42225,1008.181
24.892551899,2.016241,0.3879409,0.08016049,0.1042964,0.174501,0.9692581,-17.26262,6.094332,-45.79726,1008.181
24.927199841,5.333483,0.2695709,0.4478826,0.08530682,0.2147701,0.9548253,-16.87948,6.47497,-45.41853,1008.181
24.959372520,-0.3795454,-0.08553917,0.2027345,0.08583862,0.2312489,0.9520642,-16.87948,6.47497,-45.41853,1008.181
24.994019985,-3.205344,-0.02635415,0.08016049,0.1015643,0.2022571,0.9791525,-16.87922,6.856103,-45.42039,1008.177
25.026192665,0.2347587,0.09201587,-0.2262746,0.1082991,0.1847263,0.9760531,-16.50179,6.088468,-45.4186,1008.18
25.060840607,0.9719236,-0.4406492,-0.7165708,0.08974789,0.2002859,0.9676785,-16.50179,6.088468,-45.4186,1008.18
25.093013763,0.4804804,-0.4998343,-0.1037006,0.09949479,0.2002256,0.966141,-17.25716,6.861472,-45.41846,1008.182
25.127661228,-1.731015,0.09201587,-0.04241356,0.09903517,0.2021881,0.9685715,-17.26897,6.468969,-46.30916,1008.182
25.159834385,0.05046748,0.2695709,0.2640215,0.09207861,0.1876017,0.9608042,-17.26897,6.468969,-46.30916,1008.184
25.194482327,2.016241,0.2103859,0.08016049,0.08782452,0.2003216,0.9710708,-16.87395,6.099521,-44.97039,1008.184
25.226654530,1.279076,0.09201587,0.2640215,0.09176226,0.2085536,0.9711019,-16.87318,7.242922,-44.97597,1008.186
25.261302471,-1.853875,0.7430511,0.5704567,0.0902312,0.2118849,0.9615036,-16.87318,7.242922,-44.97597,1008.187
25.293475151,-2.713901,2.222676,0.6930307,0.09798037,0.1958349,0.9622629,-16.8737,6.480655,-44.97225,1008.187
25.325648308,-1.11671,0.8614211,0.8156048,0.1182608,0.1945328,0.995321,-16.87948,6.47497,-45.41853,1008.189
25.360296249,-2.468179,-1.97946,1.367188,0.08152565,0.2032955,0.97501,-16.87948,6.47497,-45.41853,1008.189
25.392468929,-3.819649,-2.33457,1.367188,0.09842863,0.217557,0.9470139,-16.50649,6.464729,-45.80299,1008.187
25.427116394,-9.409816,-0.2039092,-0.7165708,0.1161803,0.207482,0.9737573,-16.87922,6.856103,-45.42039,1008.186
25.459289074,-11.68274,-0.2630942,-1.513302,0.09463796,0.1930173,0.9723929,-16.87922,6.856103,-45.42039,1008.186
25.493937016,-14.44711,-3.932565,0.3253086,0.09392025,0.2290412,0.9857107,-16.8737,6.480655,-44.97225,1008.186
25.526110172,-33.79769,-6.773446,0.2640215,0.100548,0.2375259,0.9572808,-16.88417,6.851231,-45.80292,1008.186
25.560758114,-41.66079,-4.169305,-0.5939968,0.1338254,0.1456055,0.9547665,-16.87293,7.624055,-44.97783,1008.187
25.592930794,-35.82489,0.03283086,1.673623,0.1281041,0.1438228,0.9716751,-16.87293,7.624055,-44.97783,1008.189
25.627578735,-45.34661,0.9797911,1.918771,0.08228908,0.1470034,0.9769487,-17.61622,9.170696,-44.08884,1008.191
25.659750938,-48.3567,2.636971,1.367188,0.1106482,0.05845741,0.9682422,-16.84776,10.69586,-43.2076,1008.191
25.694398880,-37.11493,3.347192,1.183327,0.08173414,-0.005825521,0.984852,-16.84776,10.69586,-43.2076,1008.191
25.726572037,-22.43306,4.530891,1.183327,0.08126097,-0.0169317,0.9919948,-16.84647,12.60153,-43.2169,1008.194
25.761219501,-10.69985,5.241112,1.305901,0.0851672,-0.02807112,0.9976506,-16.46776,13.73956,-43.22441,1008.194
25.793392658,0.9104933,4.590076,0.5704567,0.08754937,-0.05376496,1.0032,-16.46776,13.73956,-43.22441,1008.194
25.828040600,18.60245,4.826817,1.73491,0.0905159,-0.01796032,0.990454,-16.83941,14.51288,-42.77992,1008.194
25.860212803,23.33259,2.045121,1.12204,0.08199394,0.03841552,0.9943723,-16.46673,15.2641,-43.23186,1008.194
25.892386436,21.24396,1.157346,1.796197,0.07318567,0.05294404,0.9844524,-16.46673,15.2641,-43.23186,1008.192
25.927033424,22.65686,2.045121,1.980058,0.08241601,0.05576163,0.9781234,-15.6607,13.33543,-44.11931,1008.194
25.959206581,26.7727,4.057412,2.592928,0.0815308,0.06987253,0.982104,-16.47983,12.96593,-44.11325,1008.194
25.993854523,25.91267,3.702302,2.838077,0.0896365,0.1136258,0.996367,-16.47983,12.96593,-44.11325,1008.196
26.026027203,17.55814,2.992081,1.980058,0.0827092,0.1227608,0.980601,-16.48586,12.57911,-44.55768,1008.196
26.060675144,13.38087,2.755342,0.6930307,0.09783608,0.1168819,0.9833034,-16.48689,11.05457,-44.55023,1008.199
26.092847347,12.33655,1.216531,0.08016049,0.09941912,0.1300393,0.9911091,-16.48689,11.05457,-44.55023,1008.197
26.127495289,10.0022,1.394086,1.183327,0.06877194,0.1607446,0.9877922,-15.66828,10.66181,-44.55256,1008.193
26.159668446,3.490571,1.038976,0.2027345,0.06610046,0.1233113,0.9783506,-15.29663,9.888487,-44.99706,1008.193
26.194315910,11.96797,1.630826,0.4478826,0.07098313,0.101529,0.9892113,-15.29663,9.888487,-44.99706,1008.195
26.226489067,16.8824,0.1512009,0.2027345,0.05986885,0.1219943,0.9923757,-15.68556,9.502165,-45.82207,1008.195
26.261137009,14.24089,-3.87338,0.8156048,0.05905201,0.1497073,0.9979138,-15.30293,9.120535,-45.43961,1008.195
26.293309212,11.90654,-6.891816,0.9381788,0.05208218,0.1563858,0.9782721,-15.30293,9.120535,-45.43961,1008.193
26.327957153,15.28521,-6.714261,2.715503,0.07265315,0.1621552,0.9843936,-15.68138,8.363637,-45.43396,1008.195
26.360129833,11.29223,-10.62047,6.27015,0.03354691,0.2507442,0.9917548,-15.30344,8.358269,-45.43589,1008.196
26.426950932,6.623522,-6.595891,5.044409,0.1662909,0.1751778,0.9710953,-16.12257,7.988767,-45.42984,1008.196
26.459123612,6.254939,-6.773446,5.595993,0.1034758,0.1645296,0.9344797,-16.50076,7.613002,-45.42605,1008.198
26.493771553,6.807813,-6.063226,3.941243,0.09029014,0.1795767,0.9260507,-16.50076,7.613002,-45.42605,1008.196
26.525943756,1.401937,-2.80805,-0.4101357,0.1859198,0.1640953,0.9312968,-16.49499,7.618687,-44.97977,1008.198
26.560591698,13.4423,2.400231,1.428475,0.1195511,0.1721234,0.9854842,-16.87896,7.237237,-45.42225,1008.198
26.592764855,13.74945,0.9797911,-0.9004319,0.1002836,0.2357973,0.9847429,-16.87896,7.237237,-45.42225,1008.198
26.627412796,5.394914,2.045121,-3.535774,0.1308794,0.2181016,0.9756355,-16.87293,7.624055,-44.97783,1008.198
26.659585476,6.869244,2.577786,-3.597061,0.08870219,0.2147344,0.9523833,-16.87344,6.861788,-44.97411,1008.198
26.694233417,1.770519,0.6246811,-5.803394,0.1197348,0.2023091,0.9346394,-16.88494,5.70783,-45.79734,1008.198
26.726405621,3.674862,0.565496,-6.90656,0.1169136,0.1850123,0.9557312,-16.88494,5.70783,-45.79734,1008.194
26.761053562,8.835017,0.6246811,-6.048542,0.0858864,0.2104989,0.9677988,-16.50154,6.469602,-45.42046,1008.194
26.793226719,9.817904,0.9206061,-3.719635,0.1066443,0.2546403,0.9776089,-16.87999,5.712703,-45.41481,1008.196
26.827874184,3.244849,1.157346,-1.697163,0.08662212,0.2518251,0.9772905,-16.87999,5.712703,-45.41481,1008.194
26.860047340,0.6647716,0.1512009,-0.4714227,0.09862284,0.2332078,0.9625651,-16.87421,5.718388,-44.96853,1008.192
26.894695282,0.1733283,0.2103859,0.8768918,0.1039574,0.241855,0.9543926,-16.50231,5.3262,-45.41488,1008.192
26.926867962,-6.768308,-0.4998343,0.08016049,0.1099543,0.2564612,0.9640971,-16.50231,5.3262,-45.41488,1008.192
26.959041119,-10.14698,-0.02635415,-0.5939968,0.1150458,0.2102441,0.9535465,-16.88494,5.70783,-45.79734,1008.191
26.993688107,-7.382612,0.1512009,-1.14558,0.1111767,0.2117458,0.9569691,-16.8852,5.326696,-45.79548,1008.189
27.025861263,-8.242638,1.453271,-0.4101357,0.1073837,0.2336267,0.9595948,-16.8852,5.326696,-45.79548,1008.189
27.060509205,-14.81569,1.926751,1.73491,0.09783626,0.2653004,0.9695849,-16.87999,5.712703,-45.41481,1008.187
27.092681885,-26.05746,3.228822,3.205799,0.1078456,0.226347,0.9600125,-16.87973,6.093836,-45.41667,1008.187
27.159502029,-40.12502,-0.9733143,5.902428,0.09462146,0.197838,0.9680948,-16.87318,7.242922,-44.97597,1008.189
27.194149971,-43.56513,1.275716,5.412132,0.1547146,0.1328426,0.9496464,-16.49473,7.999821,-44.98163,1008.189
27.226323128,-58.06271,-4.46523,4.676687,0.1259693,0.2195492,0.9713553,-16.49473,7.999821,-44.98163,1008.191
27.260970593,-83.9249,-2.393755,4.063817,0.09724506,0.07475753,0.9333157,-16.10998,9.524672,-44.54472,1008.185
27.293143749,-80.73052,-1.50598,1.73491,0.06126303,-0.01779054,0.9936204,-16.4693,11.45276,-43.21325,1008.185
27.327791691,-74.2189,-1.97946,-2.493894,0.07112057,-0.1482765,1.010287,-16.4693,11.45276,-43.21325,1008.185
27.359964371,-50.62962,-3.695825,-10.58378,0.1019652,-0.218901,0.9983306,-16.45543,14.89433,-42.33744,1008.187
27.394611836,-8.918372,-1.150869,-9.78705,0.1111189,-0.1465192,0.949196,-16.44182,17.95477,-41.45976,1008.187
27.426784515,-3.021053,1.512456,-7.090421,0.1036635,-0.004027907,0.9803243,-16.44182,17.95477,-41.45976,1008.187
27.458957672,-23.96882,-0.1447242,-3.780922,0.1260673,0.01657673,1.023183,-17.1914,18.73346,-41.01334,1008.187
27.493605614,-48.971,1.394086,-1.329441,0.103724,-0.1054851,0.9785232,-17.1914,18.73346,-41.01334,1008.19
27.525778294,-44.67088,2.755342,-0.9617189,0.1188725,-0.2104385,0.9736606,-17.1914,18.73346,-41.01334,1008.19
27.560426235,-27.22464,4.471706,-1.329441,0.1148502,-0.2322874,0.9701442,-16.80717,19.49604,-40.57271,1008.192
27.592598438,-16.59717,6.602367,-0.4714227,0.1030239,-0.1685395,0.983794,-16.78881,21.03763,-39.24131,1008.194
27.627246380,-24.09168,8.377917,-0.3488487,0.1015349,-0.1530808,0.9733313,-16.41587,22.16998,-39.69511,1008.194
27.659419060,-32.93766,10.50858,0.3253086,0.09117144,-0.181182,0.9731963,-16.41587,22.16998,-39.69511,1008.194
27.694067001,-35.39488,11.2188,1.060753,0.0841692,-0.2166035,0.9700776,-16.39885,22.94849,-38.42374,1008.195
27.726240158,-29.43613,10.86369,1.183327,0.08798484,-0.2437831,0.97271,-16.01436,24.0922,-37.98498,1008.197
27.760887146,-19.11582,13.70457,0.7543178,0.1090256,-0.2404504,0.9778432,-16.01436,24.0922,-37.98498,1008.197
27.793060780,-26.5489,13.76375,4.431539,0.06571456,-0.1816133,0.9637904,-15.5674,24.47276,-37.54281,1008.197
27.827708244,-39.44929,16.78219,11.17311,0.06458154,-0.2397422,0.9151217,-14.81075,25.60542,-37.55226,1008.197
27.859880924,-33.6134,16.90056,17.54696,0.02134624,-0.3442452,0.9310516,-14.81075,25.60542,-37.55226,1008.193
27.894528866,-22.37163,12.58005,18.7727,0.008533709,-0.4603147,0.9143083,-14.79816,27.14133,-36.66714,1008.193
27.926701546,20.5068,12.52087,22.14349,0.0583789,-0.4750056,0.9296281,-13.65779,28.27431,-36.23225,1008.193
27.961349487,35.55724,11.04124,24.10467,0.03009156,-0.2955582,1.019095,-13.65779,28.27431,-36.23225,1008.193
27.993522644,12.39798,3.939042,20.85646,-0.01234651,-0.249876,0.9991419,-12.53527,28.62796,-37.13247,1008.193
28.025694847,7.114965,-2.09783,17.73082,0.0002213726,-0.2998183,0.950895,-11.02377,28.22536,-37.13835,1008.193
28.060342789,13.38087,-3.459085,14.66647,-0.01664931,-0.1980312,0.9846675,-11.02377,28.22536,-37.13835,1008.195
28.092515469,-4.188231,-3.577455,4.00253,0.01877048,-0.27476,0.9393605,-11.03006,27.45741,-37.58091,1008.195
28.127163410,0.726202,-1.683535,-2.126172,-0.04429911,-0.2107612,0.9525266,-11.4193,27.83254,-38.47339,1008.195
28.159336567,-15.18427,-8.608181,-7.580717,-0.0503764,-0.2109707,0.9843935,-11.4193,27.83254,-38.47339,1008.193
28.193983555,-16.29002,-11.44906,-12.97398,-0.01937984,-0.3761619,0.9200825,-11.78569,27.84928,-37.5789,1008.193
28.260804653,-13.34136,-13.46135,-7.94844,0.04067682,-0.2672179,0.9874182,-11.78569,27.84928,-37.5789,1008.189
28.292977333,-9.594107,-13.22461,-3.474487,0.05551948,-0.348271,0.9345555,-12.16362,27.85464,-37.57697,1008.191
28.327625275,3.552001,-12.15928,-2.126172,0.03916188,-0.332985,0.9550782,-12.53001,27.87138,-36.68247,1008.191
28.359797955,8.097852,-13.16543,-2.003598,0.05231261,-0.299707,0.9359499,-12.53001,27.87138,-36.68247,1008.191
28.394445896,6.869244,-13.99402,-2.739043,0.06620341,-0.2710379,0.9490706,-12.90743,28.63902,-36.68426,1008.191
28.426619053,3.121988,-12.8695,-4.455079,0.1037067,-0.3094922,0.9590077,-13.66408,27.50636,-36.6748,1008.193
28.461266041,5.272053,-10.67966,-5.496959,0.09628678,-0.3279224,0.9560329,-13.66408,27.50636,-36.6748,1008.193
28.493439198,21.98112,-9.022476,-6.354977,0.1125191,-0.3249841,0.9698837,-14.41341,28.66618,-36.23024,1008.193
28.525611878,29.72136,-9.910252,-6.232403,0.08045926,-0.2623093,0.9572036,-14.03599,27.89854,-36.22845,1008.191
28.560259819,20.69109,-7.897961,-5.68082,0.08499289,-0.2191647,0.9531789,-14.03599,27.89854,-36.22845,1008.191
28.592432499,13.4423,-3.99175,-1.635876,0.07397211,-0.2314597,0.9252244,-14.80972,27.12996,-37.55971,1008.193
28.627079964,14.17946,-0.2039092,0.4478826,0.1019284,-0.245977,0.9489439,-15.57215,25.99161,-37.99654,1008.194
28.659253597,22.04256,2.755342,1.551049,0.101381,-0.2760099,0.9564133,-15.57215,25.99161,-37.99654,1008.196
28.693901062,34.20578,3.702302,3.818669,0.07324837,-0.2370282,0.9579612,-15.19446,25.60511,-37.99661,1008.196
28.726073742,35.25009,3.761487,2.409067,0.09862535,-0.191735,0.9942477,-16.02458,24.84391,-38.8175,1008.196
28.760721683,32.85431,2.045121,2.470355,0.09471628,-0.1646404,0.9805296,-15.5902,23.68856,-39.26046,1008.196
28.792894363,29.84422,2.222676,2.470355,0.07962596,-0.1587283,0.9821653,-15.5902,23.68856,-39.26046,1008.198
28.827542305,31.56427,0.9797911,1.183327,0.1001899,-0.1341061,0.9783202,-14.85294,21.75511,-40.59386,1008.196
28.859714508,27.26414,2.992081,2.715503,0.07778139,-0.110264,0.971496,-15.6146,21.76016,-41.03628,1008.19
28.894362450,25.29837,2.932897,2.409067,0.0905031,-0.1175498,0.9790292,-15.6146,21.76016,-41.03628,1008.192
28.926535606,25.60552,3.702302,3.144512,0.08871412,-0.08402563,0.9822142,-15.24321,20.60571,-41.47891,1008.192
28.961183071,19.95392,4.471706,3.144512,0.07664243,-0.06789071,0.9896899,-14.87759,19.44556,-42.36782,1008.194
28.993356228,20.56823,4.057412,1.857484,0.09618688,-0.06554737,0.9914548,-14.87759,19.44556,-42.36782,1008.194
29.028004169,15.28521,3.939042,2.409067,0.08563993,-0.00826109,0.9862415,-14.11594,19.44051,-41.92541,1008.194
29.060176373,2.876266,4.057412,3.205799,0.07101154,-0.009628687,0.9882947,-14.49465,18.30248,-41.91789,1008.194
29.092350006,0.6033412,5.004372,2.286493,0.07178874,-0.05672051,0.9874172,-14.49465,18.30248,-41.91789,1008.194
29.126996994,10.43221,4.353337,1.060753,0.06843487,-0.07405556,1.003211,-14.11671,18.29711,-41.91983,1008.196
29.159170151,14.54805,2.636971,0.6930307,0.0534565,-0.03225758,1.000804,-13.75084,17.51811,-42.8106,1008.196
29.193818092,4.473457,1.453271,1.12204,0.06175167,0.008803917,0.9808211,-13.75084,17.51811,-42.8106,1008.194
29.225990772,-5.109687,1.926751,1.857484,0.05972957,-0.007207936,0.980226,-14.14034,17.51211,-43.70123,1008.194
29.260638714,-7.566904,3.051266,2.531641,0.08270942,-0.03339445,0.9981116,-14.12878,17.52348,-42.80867,1008.194
29.292810917,-7.01403,2.222676,2.163919,0.08031116,-0.05075288,1.011487,-14.12878,17.52348,-42.80867,1008.194
29.327458859,-2.898192,-0.2039092,1.551049,0.06848063,-0.05515475,0.9995109,-13.75084,17.51811,-42.8106,1008.192
29.359632015,-2.652471,-2.92642,2.34778,0.05658632,-0.01177866,1.014922,-13.37239,18.275,-42.81626,1008.192
29.394279480,-22.49449,-12.33684,8.353909,0.03308368,0.0834543,1.075694,-13.37239,18.275,-42.81626,1008.186
29.426452637,-47.25095,-32.57811,14.78905,-0.02580716,-0.03901139,1.269962,-13.36661,18.28069,-42.36998,1008.185
29.461099625,-21.6959,-90.81617,5.412132,-0.1398697,-0.08147746,1.480346,-13.36057,18.66751,-41.92556,1008.185
29.493272781,-130.7349,-128.4578,-5.925968,-0.005434141,0.1830301,1.438374,-13.36057,18.66751,-41.92556,1008.185
29.527920723,-219.9933,-175.6283,-54.404,-0.04471755,-0.5086113,1.163119,-15.22035,20.24731,-39.69193,1008.183
29.560093403,-154.877,-197.1716,-106.8657,0.1822689,-0.9912729,1.346447,-19.35881,23.05397,-33.49918,1008.183
29.592266560,-27.65465,-216.4659,-148.8473,0.0166852,-1.005841,0.9868548,-19.35881,23.05397,-33.49918,1008.185
29.626914024,66.51818,-248.6626,-187.3969,-0.006429675,-0.7205843,0.8274704,-25.28307,27.83123,-24.24619,1008.185
29.659087181,25.17551,-263.4589,-200.6348,0.04115241,-0.07804399,0.7200176,-32.01241,25.71496,-18.39856,1008.185
29.693735123,-32.63051,-272.6917,-204.8636,0.3838713,-0.04200346,0.1382355,-32.01241,25.71496,-18.39856,1008.183
29.725907326,20.5068,-227.7703,-206.0894,0.3221066,-0.2690036,-0.1334613,-39.1008,19.81384,-10.87279,1008.181
29.760555267,139.2518,-209.5413,-202.9637,0.3545139,-0.02805251,-0.400733,-43.89922,12.75986,-1.567908,1008.179
29.792727947,190.239,-199.1839,-173.4234,0.7756125,0.5757683,-0.756846,-45.32475,4.867674,5.555637,1008.177
29.827375889,50.91485,-122.5985,-136.8351,1.067777,0.9758444,-0.677708,-45.32475,4.867674,5.555637,1008.177
29.859549046,-70.77879,-56.42967,-122.4326,0.8919296,0.6222189,-0.7006724,-44.87142,-1.982844,11.77168,1008.174
29.894196033,-47.18952,5.122742,-113.7911,0.8952072,0.5026345,-0.6592729,-44.08422,-6.914207,14.46969,1008.176
29.926369190,-49.21672,49.80743,-102.2079,0.7257842,0.663344,-0.5729812,-44.08422,-6.914207,14.46969,1008.174
29.961016655,-52.53397,97.6881,-83.88306,0.8018961,0.630999,-0.5011761,-42.97108,-11.9021,13.14923,1008.174
29.993189812,-66.60153,155.2159,-69.48061,0.7201545,0.7621521,-0.4776422,-42.63007,-16.51437,10.5557,1008.174
30.027837753,-100.4497,219.3725,-60.96172,0.8170825,0.612118,-0.4850855,-42.63007,-16.51437,10.5557,1008.172
30.060010433,-404.8988,303.5928,5.412132,0.8311333,3.896647,0.4697102,-42.33451,-20.02872,4.386337,1008.166
30.094657898,-866.6098,-96.02445,22.75636,-0.3594323,-3.934066,3.582517,-41.7351,-22.0978,-7.594048,1008.165
30.126830578,615.3989,43.35626,-44.90452,2.750148,0.3663081,0.1672398,-41.7351,-22.0978,-7.594048,1008.165
30.159003735,-126.0662,-28.02086,23.24665,-0.7433282,1.267319,0.3282474,-41.4457,-17.61971,-14.69505,1008.165
30.193651676,-9.286955,-9.436771,-14.13843,0.9585518,-0.250389,0.7399205,-41.42413,-19.88377,-12.89876,1008.165
30.225824356,124.7542,-49.44584,5.412132,0.3559203,0.3515972,0.7452045,-41.42413,-19.88377,-12.89876,1008.165
30.260472298,197.9792,-50.45198,55.54491,0.5062838,1.095752,0.159487,-41.78974,-18.72364,-12.00985,1008.161
30.292644501,152.4593,-27.78412,97.09752,0.58741,1.340144,0.05518687,-42.11727,-19.81132,-8.049559,1008.161
30.327292442,-12.05132,34.06421,162.5521,0.9119527,1.55512,0.06983683,-42.11727,-19.81132,-8.049559,1008.163
30.359465599,-95.96526,55.60756,190.8667,0.664781,0.8744025,0.1961892,-43.58204,-18.60096,-4.47716,1008.163
30.394113064,-133.4993,59.09948,191.357,0.6765111,0.3913502,0.3159713,-44.73511,-12.89059,-6.284392,1008.159
30.426286221,-178.5892,72.0018,197.7921,0.6503872,0.1916775,0.1492431,-44.73511,-12.89059,-6.284392,1008.159
30.460933685,-146.3996,91.47367,206.6174,0.524458,-0.1663801,0.08721634,-46.28191,-4.905111,-9.439697,1008.157
30.493106842,-39.81787,109.4067,208.885,0.3928769,-0.3487623,0.08067456,-44.79174,4.637663,-11.66191,1008.156
30.527754307,-1.485293,138.0523,183.8186,0.2891633,-0.2940648,0.3722569,-44.79174,4.637663,-11.66191,1008.154
30.559926987,-53.14827,158.1752,160.8973,0.3382508,-0.5363506,0.5818812,-42.17517,12.95091,-14.39407,1008.154
30.594574928,-6.522587,164.0937,161.265,0.4419697,-0.8078317,0.6283213,-37.30742,20.07311,-18.34358,1008.155
30.626747608,54.17066,173.5633,154.8912,0.2137703,-0.5823428,0.8318574,-37.30742,20.07311,-18.34358,1008.157
30.658920765,73.95126,144.2667,131.5408,-0.0342604,-0.6210315,1.068105,-32.06467,25.28267,-22.41323,1008.157
30.693568706,143.1833,114.1415,87.59803,-0.008561665,-0.8636153,1.223961,-24.96709,28.90754,-29.09904,1008.157
30.725740910,163.2096,95.37988,67.00558,0.1172155,-0.4666763,1.481519,-24.96709,28.90754,-29.09904,1008.157
30.760388851,60.68229,59.57296,33.48159,-0.03662088,-0.2890341,1.381753,-18.9765,29.52787,-33.53275,1008.16
30.792561531,80.46288,34.8928,8.415195,-0.02239571,-0.3139964,1.111977,-15.19998,25.98056,-38.44475,1008.162
30.827209473,78.25139,17.07812,1.183327,-0.03434562,0.09632064,1.001237,-12.21185,23.61751,-41.06299,1008.164
30.859382153,32.85431,10.44939,-7.396856,0.03488221,0.03014982,1.02511,-12.21185,23.61751,-41.06299,1008.166
30.894030094,25.48266,9.147323,-12.8514,0.03791762,-0.0103868,1.057523,-11.1032,20.5296,-42.83902,1008.166
30.926203251,9.510752,3.939042,-20.45099,0.02649111,-0.001811101,1.029263,-11.10975,19.38051,-43.27972,1008.167
30.960850239,-12.17418,0.09201587,-27.499,0.03290321,-0.05779989,0.9482473,-11.10975,19.38051,-43.27972,1008.169
30.993023396,23.76261,0.8614211,-23.63792,0.05454326,-0.2303129,0.9355371,-11.11053,18.23711,-43.27414,1008.167
31.027671337,61.60374,1.394086,-14.261,-0.00670875,0.1152879,1.086932,-11.86615,18.62898,-43.27213,1008.169
31.059844017,3.244849,-11.09395,-9.480615,0.02683462,0.2576195,1.0608,-11.86615,18.62898,-43.27213,1008.172
31.094491959,-37.60638,-9.200031,-3.535774,0.06307373,0.08120293,0.9288677,-12.26271,16.71163,-44.59974,1008.172
31.126664162,-20.65158,-1.74272,8.660344,0.06326503,0.002592514,0.9315918,-12.2577,15.57391,-44.14787,1008.174
31.161312103,-27.3475,-1.328424,12.82786,0.05092217,-0.05022332,0.9982695,-12.2577,15.57391,-44.14787,1008.174
31.193484783,-25.9346,-0.4998343,6.147576,0.06445239,-0.1214973,1.016836,-13.00074,17.50169,-43.26075,1008.174
31.225657940,-1.976736,-0.08553917,2.409067,0.02114591,-0.1844781,1.004188,-12.23228,19.02685,-42.3795,1008.178
31.260305882,17.43527,-5.471375,-0.5327097,0.04855597,-0.09072654,0.9685557,-12.23228,19.02685,-42.3795,1008.178
31.292478561,16.8824,-2.92642,-1.574589,0.06220918,0.008290201,0.9774386,-12.2378,19.4023,-42.82764,1008.179
31.327126503,3.36771,-3.63664,-0.7778578,0.03959357,0.02175161,1.009091,-12.24383,19.01548,-43.27206,1008.181
31.359298706,-11.06844,-5.234635,-2.064885,0.07347789,-0.0130018,0.9930639,-12.24383,19.01548,-43.27206,1008.185
31.393946648,-8.734081,-3.04479,-1.75845,0.07267923,-0.05486883,0.9763383,-12.61625,18.6454,-42.82198,1008.186
31.426119804,-16.22859,1.808381,-0.5939968,0.03477696,-0.08060846,0.9499697,-13.36661,18.28069,-42.36998,1008.186
31.460767269,-6.031143,1.690011,0.2027345,0.08094371,-0.08975557,0.9894695,-13.36661,18.28069,-42.36998,1008.188
31.492940426,-6.399726,0.9797911,0.1414475,0.06969628,-0.05590879,1.028413,-12.60469,18.65677,-41.92942,1008.19
31.527588368,-18.01007,-3.814195,-0.2875617,0.08190624,-0.03468316,1.019317,-13.36635,18.66182,-42.37184,1008.19
31.559760571,-32.26193,-4.22849,-2.064885,0.1068433,-0.03859307,0.9689237,-13.36635,18.66182,-42.37184,1008.188
31.594408512,-42.33652,-3.103975,-1.819737,0.05346229,-0.09798034,0.9751981,-12.98186,19.80554,-41.93307,1008.189
31.626581192,-22.43306,-1.387609,-2.003598,0.0481083,-0.1240537,0.9894931,-12.97583,20.19236,-41.48866,1008.189
31.661229134,-20.65158,-3.103975,-1.084293,0.03483127,-0.07866216,1.013609,-12.97583,20.19236,-41.48866,1008.188
31.693401813,-33.49054,-2.33457,-2.922904,0.05056413,-0.1201828,0.9895021,-12.9635,21.34713,-40.60167,1008.188
31.725574970,-36.93064,-3.63664,-1.942311,0.06307958,-0.1460318,0.9814602,-13.71283,22.50695,-40.15711,1008.188
31.760222912,-42.45938,-4.287675,-1.942311,0.0595855,-0.2340581,0.9566672,-13.71283,22.50695,-40.15711,1008.189
31.792395115,-27.83894,-2.157015,-1.206867,0.06724021,-0.2700203,0.9558173,-13.71206,23.65035,-40.16269,1008.189
31.827043056,-19.91442,-1.801905,0.3865956,0.0702646,-0.2535058,0.9592993,-13.69369,25.19194,-38.83129,1008.189
31.859215736,-20.46729,-0.9141293,0.9994659,0.0833563,-0.2579999,0.951428,-13.69369,25.19194,-38.83129,1008.191
31.893863678,-14.99998,0.9206061,1.428475,0.08139759,-0.2821748,0.9623329,-13.30477,25.57826,-38.00628,1008.191
31.926035881,-11.49845,1.098161,1.796197,0.07864573,-0.2650751,0.9750317,-13.67641,26.35158,-37.56179,1008.193
31.960683823,-12.29704,3.051266,1.183327,0.08189156,-0.280721,0.9623403,-13.29244,26.73303,-37.1193,1008.191
31.992856979,-9.962689,6.069702,1.612336,0.07304706,-0.2729954,0.9514005,-13.29244,26.73303,-37.1193,1008.191
32.027504444,-12.72706,6.957477,2.77679,0.05202651,-0.2743754,0.9477293,-14.04806,27.1249,-37.11729,1008.191
32.059677601,-10.88415,7.135032,4.554113,0.0512926,-0.3113478,0.9363455,-13.28615,27.50099,-36.67674,1008.189
32.094325542,5.456344,8.377917,8.170048,0.03345993,-0.3472856,0.9222375,-13.28615,27.50099,-36.67674,1008.188
32.126498222,6.3778,9.206508,17.05667,-0.01308869,-0.2839545,0.9853719,-12.91347,28.2522,-37.12868,1008.188
32.161145687,-20.59015,8.614657,13.62459,0.04979201,-0.2765943,0.9732779,-12.53553,28.24683,-37.13061,1008.188
32.193318367,-15.30714,17.43323,23.24665,0.006314614,-0.2937914,0.9181119,-12.53553,28.24683,-37.13061,1008.186
32.227966309,-22.80165,13.70457,27.04645,0.01292766,-0.243287,0.9256965,-12.15155,28.62828,-36.68813,1008.186
32.260138989,-39.44929,12.87598,30.41724,0.08817448,-0.3615267,0.9360695,-11.0117,28.99899,-36.2495,1008.188
32.292312145,-31.70906,19.74144,35.07505,-0.01778523,-0.4625719,0.9193553,-11.0117,28.99899,-36.2495,1008.188
32.326960087,-3.881079,21.1027,38.38455,-0.03377135,-0.5053852,0.8960155,-9.487614,30.13229,-35.37026,1008.186
32.359132290,18.41816,24.18032,37.77168,0.04239052,-0.5134687,0.9039142,-8.352766,31.64072,-35.38351,1008.186
32.393780232,31.56427,32.46622,44.94226,-0.07886484,-0.3183132,0.9563004,-8.352766,31.64072,-35.38351,1008.188
32.425952911,-3.328205,36.4908,48.49691,-0.1169989,-0.1973333,0.9475317,-6.090906,31.60282,-35.84139,1008.188
32.460600853,-52.16539,40.69294,48.74205,-0.1115375,-0.2451483,0.9817905,-4.219316,30.41552,-37.18432,1008.184
32.492774010,-61.74853,42.05419,46.71958,-0.1690989,-0.2960633,0.9510599,-4.219316,30.41552,-37.18432,1008.184
32.527420998,-67.21584,41.75827,38.69098,-0.2082117,-0.3732324,0.8635468,-1.177691,31.53303,-35.86653,1008.184
32.559594631,-50.50676,46.72981,32.62357,-0.196403,-0.4510197,0.8546013,1.498321,33.81068,-33.65983,1008.184
32.594242096,-10.82271,48.38699,27.78189,-0.2187087,-0.4193844,0.9143562,1.498321,33.81068,-33.65983,1008.182
32.626414776,-8.488359,46.19714,25.94328,-0.2418534,-0.3561504,0.9170215,3.784619,35.76471,-32.34221,1008.182
32.661062717,-17.27291,43.06034,28.94635,-0.3073288,-0.3848788,0.8629296,6.074544,35.75443,-30.63244,1008.182
32.693235397,-18.74724,41.10723,29.68179,-0.3611245,-0.4378733,0.8167228,6.074544,35.75443,-30.63244,1008.182
32.727883339,-3.266775,41.34397,34.09446,-0.4051108,-0.4826504,0.77242,7.964499,36.10872,-30.64397,1008.184
32.760055542,-12.11275,52.58912,37.83297,-0.6291132,-0.4225543,0.7422297,9.866012,36.47438,-29.76294,1008.184
32.792228699,-7.259752,57.028,39.61029,-0.8277599,-0.4418704,0.6899401,9.866012,36.47438,-29.76294,1008.185
32.826876640,6.746383,59.3954,40.0393,-0.9588484,-0.363161,0.6156563,12.90686,36.44849,-28.43957,1008.184
32.859049320,-1.485293,61.7628,39.11999,-0.9214199,-0.1681195,0.5036451,14.4244,36.4327,-28.00102,1008.184
32.893697262,-17.76435,69.04256,49.60007,-0.8183048,-0.1582663,0.4000983,17.90541,35.25714,-26.67433,1008.184
32.925869942,-30.29616,67.32619,55.79006,-0.8196189,-0.284409,0.5952444,17.90541,35.25714,-26.67433,1008.184
32.960517406,0.9104933,61.7628,63.57351,-0.5926836,-0.4862009,0.6946111,20.95178,34.8558,-24.90281,1008.184
32.992690086,-12.41991,53.24016,75.34062,-0.5382763,-0.4195192,0.6907972,23.99681,33.69138,-23.19134,1008.184
33.027338028,-50.01532,36.66835,63.87995,-0.3998222,-0.3861102,0.8324525,23.99681,33.69138,-23.19134,1008.184
33.059511185,-66.41724,14.3556,57.62867,-0.3522201,-0.5364181,0.8206472,27.79799,31.69124,-21.41594,1008.184
33.094158649,-40.30931,-3.3999,45.73899,-0.2246716,-0.5586084,0.7946922,30.47772,30.9255,-18.74807,1008.182
33.126331806,-39.8793,-25.00243,28.94635,-0.1216125,-0.4807724,0.8840241,30.47772,30.9255,-18.74807,1008.182
33.160979748,5.763496,-20.80029,32.99129,-0.4152403,-0.4025536,0.5153052,31.98871,29.76063,-18.75022,1008.182
33.193151951,1.586228,-22.10236,35.56535,-0.6000892,-0.1406401,0.749585,31.98897,30.14176,-18.75208,1008.18
33.227799892,-6.031143,-26.3045,28.63991,-1.072002,-0.3253827,0.7211354,31.98897,30.14176,-18.75208,1008.182
33.259972572,-34.28913,-28.6719,19.81458,-0.9382142,-0.2906389,0.6551035,33.11046,28.97089,-19.64487,1008.182
33.294620514,-19.17725,-27.25146,21.22418,-0.8188515,-0.2173875,0.5379498,33.86583,28.19788,-19.64501,1008.184
33.326792717,-9.286955,-19.67578,26.31101,-0.7344069,-0.1888104,0.5846334,33.86583,28.19788,-19.64501,1008.184
33.358966351,-7.874056,-19.79415,21.34676,-0.7802737,-0.3365877,0.7149469,33.85401,27.80538,-20.53571,1008.185
33.393613815,17.25098,-21.1554,20.05973,-0.7101873,-0.2191513,0.6940531,33.85376,27.42425,-20.53385,1008.185
33.425786495,-6.092574,-19.85333,15.21806,-0.6547028,-0.1857487,0.7183928,33.85376,27.42425,-20.53385,1008.185
33.460434437,-3.205344,-16.53897,10.68282,-0.6647715,-0.2488451,0.7121825,33.464,27.03711,-21.42262,1008.187
33.492607117,-4.495383,-16.30223,4.983122,-0.6785295,-0.2203697,0.7453216,33.83591,26.64493,-21.86897,1008.185
33.559427261,-12.97278,-12.04091,8.537769,-0.6619703,-0.3093837,0.6682774,34.20781,26.25274,-22.31532,1008.187
33.594075203,-2.099597,-12.04091,14.23746,-0.7055407,-0.2725804,0.6921233,33.83013,26.63924,-22.31525,1008.189
33.626248360,-3.082484,-13.63891,18.15983,-0.6295435,-0.2764617,0.6783682,33.83013,26.63924,-22.31525,1008.189
33.660895824,-1.362432,-9.436771,24.84012,-0.7011753,-0.2368422,0.6716512,33.82383,25.87129,-22.75781,1008.189
33.693068981,6.193509,-12.27765,27.90447,-0.6259452,-0.2023641,0.7223255,34.57971,25.86055,-22.76168,1008.189
33.727716923,-8.304069,-11.92254,29.43665,-0.6167744,-0.1556332,0.7457611,34.57971,25.86055,-22.76168,1008.191
33.759889126,-11.62131,-10.97558,26.74002,-0.6033001,-0.2051975,0.7471547,34.57342,25.0926,-23.20424,1008.192
33.794537067,-27.77751,-8.193886,19.263,-0.6171148,-0.171417,0.7128581,34.9511,24.7061,-23.20431,1008.192
33.826709747,-26.61033,-1.683535,9.640936,-0.6967899,-0.2016069,0.7119068,34.9511,24.7061,-23.20431,1008.191
33.861357689,-24.64456,2.932897,-2.003598,-0.6677345,-0.1628245,0.7244873,35.3343,23.94415,-22.75624,1008.191
33.893530369,-29.55899,5.063557,-13.15784,-0.6368406,-0.169127,0.7453551,35.70647,23.93309,-23.20446,1008.192
33.925703526,-24.33741,8.022808,-23.51534,-0.6689066,-0.2500031,0.6852196,35.70647,23.93309,-23.20446,1008.192
33.960351467,-30.60331,5.951332,-36.32433,-0.6525558,-0.1894496,0.7434062,35.72432,24.71242,-21.86934,1008.192
33.992523670,-36.68492,3.998227,-44.78194,-0.6139708,-0.2935034,0.6814564,35.3587,25.87255,-20.98042,1008.192
34.027171612,-46.26807,5.241112,-48.70431,-0.6477615,-0.2944115,0.6677863,34.23747,27.42456,-20.0895,1008.194
34.059344292,-33.49054,0.6246811,-56.05875,-0.6430326,-0.3598175,0.6233409,34.23747,27.42456,-20.0895,1008.194
34.093992233,-31.52477,-7.069371,-61.69716,-0.6127012,-0.4203451,0.6616008,32.74408,28.98763,-18.75037,1008.192
34.126164913,-26.91748,-5.234635,-55.13945,-0.6659974,-0.4699838,0.6732569,31.99552,31.29085,-18.31139,1008.192
34.160812378,-15.36857,-17.07164,-53.4847,-0.5480082,-0.3758494,0.5567702,31.99552,31.29085,-18.31139,1008.192
34.192985535,-24.58313,-8.075516,-52.25896,-0.6028605,-0.5000716,0.6516938,30.11263,32.84791,-17.86288,1008.194
34.227632999,-23.53881,-6.299966,-52.13639,-0.5116652,-0.5542552,0.6706402,28.60194,34.45744,-17.8629,1008.188
34.259806156,-33.67483,-0.2039092,-48.82689,-0.447408,-0.5856673,0.6668895,28.60194,34.45744,-17.8629,1008.19
34.294454098,-31.64763,10.98206,-41.6563,-0.4626456,-0.6717299,0.6374023,26.72895,36.02425,-16.64934,1008.19
34.326626778,-26.97891,17.90671,-38.53067,-0.453119,-0.5714083,0.5610206,25.22927,36.81936,-15.75276,1008.19
34.361274242,-20.71301,30.51311,-29.09246,-0.4913029,-0.5814835,0.5516537,25.22927,36.81936,-15.75276,1008.192
34.393446922,-27.40893,30.158,-25.47653,-0.4887908,-0.7574118,0.587294,23.73561,38.00129,-14.41177,1008.194
34.425620079,-32.13907,31.69681,-12.97398,-0.485837,-0.7119473,0.5683613,23.00362,39.17817,-12.62836,1008.194
34.460267544,-24.89028,22.16803,-3.658348,-0.5478154,-0.70145,0.5049201,23.00362,39.17817,-12.62836,1008.195
34.492440701,-23.29309,16.66382,6.392724,-0.5317606,-0.7136265,0.44683,23.39941,39.95212,-11.29517,1008.195
34.527088642,-15.67572,13.88212,16.99538,-0.552815,-0.7373188,0.5080451,23.03849,40.736,-10.02187,1008.194
34.559261322,-2.283888,9.679988,19.38557,-0.538624,-0.6894801,0.4895091,23.03849,40.736,-10.02187,1008.194
34.593908787,5.210622,8.081992,23.4918,-0.5842978,-0.6668285,0.5021719,23.42747,39.97973,-9.127523,1008.192
34.626081467,3.674862,5.181927,23.06279,-0.5615504,-0.6468409,0.5281525,23.80515,39.59323,-9.127597,1008.194
34.660729408,13.25801,1.512456,27.78189,-0.4977184,-0.6244801,0.4477293,23.80515,39.59323,-9.127597,1008.194
34.692902088,17.74243,1.690011,36.11693,-0.5670566,-0.6334001,0.5051787,24.94449,39.20168,-8.685257,1008.194
34.727550030,29.78279,-1.269239,42.24563,-0.5659177,-0.5955011,0.4481226,25.68856,38.79844,-9.579825,1008.195
34.759723186,27.87844,-5.057081,41.57147,-0.6820568,-0.6046298,0.5113089,25.68856,38.79844,-9.579825,1008.197
34.794370174,29.16848,-12.51439,39.36514,-0.6624795,-0.5379792,0.5439698,27.1833,37.99845,-10.85893,1008.191
34.826543331,17.37384,-19.9717,38.01683,-0.6837791,-0.5637914,0.5188916,29.06041,36.4357,-11.75371,1008.197
34.861191273,25.9741,-27.01472,41.93919,-0.6113557,-0.4735779,0.5570376,29.06041,36.4357,-11.75371,1008.197
34.893363953,10.80079,-35.95166,46.22929,-0.6538679,-0.5198039,0.5146372,29.0423,35.27525,-13.08697,1008.197
34.928011894,22.28828,-36.54351,53.64502,-0.654872,-0.5010402,0.6184312,30.53043,34.46877,-14.87611,1008.195
34.960184097,16.20667,-43.11304,57.38353,-0.6079193,-0.4586604,0.6684704,31.27998,33.62656,-15.32223,1008.193
34.992357731,7.176395,-41.81097,55.11591,-0.6193683,-0.3345695,0.6397163,31.27998,33.62656,-15.32223,1008.191
35.027004719,-10.82271,-40.44972,62.83807,-0.6127796,-0.3324816,0.7259499,32.76239,31.6718,-17.48831,1008.19
35.059177876,-19.11582,-37.60884,65.10569,-0.6191051,-0.3981613,0.7018495,33.50676,30.50711,-18.3154,1008.19
35.093825817,-1.11671,-31.51278,69.08935,-0.5771948,-0.3143556,0.7705932,33.50676,30.50711,-18.3154,1008.191
35.125998497,-24.21454,-30.09234,65.22826,-0.600534,-0.2619368,0.7553372,34.2498,28.57933,-19.20253,1008.191
35.160646439,-33.79769,-18.96556,65.22826,-0.5862183,-0.3029241,0.7365497,35.37707,27.41414,-19.64902,1008.191
35.192818642,-18.93153,-15.00016,61.42847,-0.5734816,-0.2149704,0.7578819,35.37707,27.41414,-19.64902,1008.193
35.227466583,-13.27993,-4.938711,61.12203,-0.6021532,-0.2417609,0.7270806,36.50408,25.86782,-20.09366,1008.193
35.259639263,5.763496,4.175782,59.28342,-0.5638705,-0.2606097,0.762236,37.65446,24.72537,-18.75504,1008.193
35.294287205,-1.178141,17.01893,59.65115,-0.605545,-0.1702284,0.8115699,37.65446,24.72537,-18.75504,1008.193
35.326460362,-2.222458,26.6069,56.70937,-0.5655593,-0.1897223,0.7011402,39.16416,21.65482,-18.74789,1008.195
35.361107349,-10.51556,43.11952,58.54798,-0.6578161,-0.1081229,0.7749737,40.29169,20.87077,-19.19625,1008.193
35.393280506,1.770519,44.65833,58.9157,-0.7144684,-0.1522963,0.6748822,40.29169,20.87077,-19.19625,1008.195
35.427928448,-15.67572,36.37243,59.406,-0.7595159,-0.1270659,0.6446627,41.82444,18.96555,-17.47332,1008.195
35.460101128,-4.188231,37.61531,58.85441,-0.8071386,-0.1758578,0.5179389,43.73489,16.67384,-15.75045,1008.195
35.492273808,8.036422,35.54384,58.24154,-0.8469646,-0.09283374,0.5585189,43.73489,16.67384,-15.75045,1008.195
35.526921749,7.544978,32.22948,58.85441,-0.880666,-0.1318627,0.5739356,44.88475,14.76912,-14.40811,1008.195
35.559094906,14.8552,26.54772,59.16085,-0.905273,-0.06039906,0.5728264,45.65565,11.34524,-13.05639,1008.195
35.593741894,6.3778,15.06582,48.55819,-1.005383,0.01833376,0.5845315,45.65565,11.34524,-13.05639,1008.195
35.625915051,3.674862,2.577786,34.58475,-0.8054901,0.1622054,0.5505946,46.80025,10.1971,-12.16405,1008.197
35.660562992,3.797723,-5.234635,23.9821,-0.8205922,0.01730792,0.5076069,47.56037,7.905246,-11.71047,1008.197
35.692735672,-10.08555,-5.708116,16.50508,-0.7846252,0.1083169,0.5624875,47.56037,7.905246,-11.71047,1008.197
35.727383614,-5.662561,-5.17545,14.78905,-0.85364,0.02674677,0.577401,47.94331,6.762162,-11.26054,1008.197
35.759555817,-6.399726,-9.969437,13.37944,-0.707253,0.1411361,0.4622622,47.55305,5.61276,-12.14558,1008.197
35.794203758,0.9719236,2.814527,10.62153,-0.7726835,0.003533285,0.6405602,47.55305,5.61276,-12.14558,1008.198
35.826376438,0.5419108,4.471706,8.108761,-0.5516682,0.1296467,0.4573418,47.55305,5.61276,-12.14558,1008.2
35.861024380,1.217645,17.72915,-0.04241356,-0.6465354,0.01138934,0.6076359,47.55806,4.475044,-11.69372,1008.202
35.893197536,-5.662561,33.88666,-7.580717,-0.8351311,0.04403141,0.5648389,47.55806,4.475044,-11.69372,1008.202
35.927844524,10.67793,47.26247,-14.44486,-0.8982739,-0.00954368,0.6262003,47.19193,4.872916,-10.80109,1008.202
35.960018158,27.01842,59.04029,-23.6992,-0.8607684,0.07631867,0.5181083,48.33648,4.867368,-9.978083,1008.202
35.994665146,3.306279,76.79579,-30.19563,-0.9048155,0.05220495,0.5727865,47.99372,5.669113,-7.302187,1008.202
36.026838303,35.55724,86.20621,-28.96989,-0.8374622,-0.01466602,0.3156649,47.99372,5.669113,-7.302187,1008.202
36.059010983,11.96797,96.85951,-30.68592,-0.9165905,0.05860425,0.3878613,49.22571,6.448489,-4.634348,1008.208
36.093658924,12.21369,102.778,-22.35089,-0.7323654,0.03820471,0.2529422,47.70291,7.66461,-0.6791,1008.205
36.125832081,14.8552,106.8026,-11.50309,-0.9358774,-0.2102483,0.2552029,47.70291,7.66461,-0.6791,1008.205
36.160479069,14.91663,106.5067,-4.884089,-0.9323,0.004102691,0.1706588,48.13915,8.478357,3.778049,1008.205
36.192652226,5.763496,105.6781,0.8768918,-1.029674,-0.08894571,0.1264563,47.80108,8.903841,6.838333,1008.205
36.227300167,10.55507,101.0025,8.108761,-1.065984,-0.004322151,0.06194085,47.80108,8.903841,6.838333,1008.205
36.259472847,10.12506,97.2738,16.38251,-1.100419,-0.08173642,0.008604007,47.10242,9.351749,11.23939,1008.209
36.294120789,9.756474,94.84722,23.06279,-1.098135,-0.01229429,0.01445718,46.01405,8.269932,14.82102,1008.207
36.326293469,17.61957,92.59819,27.35289,-1.096045,-0.004887566,-0.03080921,46.01405,8.269932,14.82102,1008.207
36.360940933,18.17244,94.43292,31.33654,-1.146344,0.01954583,-0.1048484,45.29862,8.320463,17.94885,1008.209
36.393113613,20.19964,94.72885,32.80743,-1.181333,0.01315813,-0.2004924,43.82571,7.237519,21.02238,1008.207
36.427761555,9.080739,94.31455,32.80743,-1.216017,0.06842387,-0.2315251,43.82571,7.237519,21.02238,1008.209
36.459934712,21.36682,96.14929,34.21703,-1.143038,0.122987,-0.2842942,41.22559,6.177177,24.61174,1008.207
36.494582176,51.34486,89.93486,40.28445,-1.228398,0.02483584,-0.2900909,39.74767,6.231948,27.23341,1008.207
36.526755333,55.21498,72.53447,42.18435,-1.322654,0.09591379,-0.4491313,39.74767,6.231948,27.23341,1008.207
36.558927536,31.37998,30.74985,28.27219,-1.23552,0.0501982,-0.2787294,36.76961,5.176975,30.82471,1008.209
36.593575478,-1.669584,-10.67966,-17.26407,-1.032687,-0.09644695,-0.3449729,34.13032,5.982506,31.2808,1008.209
36.625748158,1.463367,-35.59655,-47.11085,-0.9846297,0.03107853,-0.2045901,34.13032,5.982506,31.2808,1008.209
36.660396099,-7.01403,-58.20522,-57.52964,-0.9798388,0.2223172,-0.07532839,32.61908,6.766247,31.28482,1008.209
36.692569256,-49.27816,-80.63634,-60.53271,-1.033667,0.2881021,0.04959007,32.2188,7.892277,29.49604,1008.209
36.727216244,-82.63486,-118.4556,-63.10677,-1.011385,0.1905672,0.1931779,32.2188,7.892277,29.49604,1008.211
