Time (s),Gyroscope X (deg/s),Gyroscope Y (deg/s),Gyroscope Z (deg/s),Accelerometer X (g),Accelerometer Y (g),Accelerometer Z (g),Magnetometer X (uT),Magnetometer Y (uT),Magnetometer Z (uT),Barometer (hPa)
0.019774914,-0.4977182,0.3375401,0.1678112,-0.6935385,0.4375479,-0.5703949,4.015099,-49.88632,0.9916019,1008.124
0.052338600,-0.2516084,-0.1977883,0.1066118,-0.6843171,0.4401025,-0.5713316,4.015099,-49.88632,0.9916019,1008.124
0.087403297,0.8558859,0.3970211,-0.2605846,-0.6853721,0.4487988,-0.5629805,4.019149,-50.25272,0.5481415,1008.129
0.119966507,0.1790838,0.04013545,-0.01578701,-0.6874071,0.4555915,-0.5662586,4.019149,-50.25272,0.5481415,1008.127
0.152530193,-0.4977182,-0.1383074,0.1678112,-0.6834226,0.44787,-0.5668636,4.019149,-50.25272,0.5481415,1008.127
0.187598705,-0.1285535,-0.1383074,0.2290106,-0.6867735,0.4415373,-0.5732408,4.38725,-50.24749,0.9930239,1008.127
0.220161915,-0.2516084,-0.1977883,-0.1381858,-0.6887545,0.4453771,-0.5683467,4.02078,-50.25013,0.9942131,1008.125
0.252725601,-0.005498581,0.3375401,-0.2605846,-0.6897331,0.4453732,-0.5702792,4.02078,-50.25013,0.9942131,1008.125
0.285285473,0.1175563,0.09961638,-0.1993852,-0.6966156,0.4511108,-0.5692183,3.594862,-50.25064,1.441672,1008.125
0.320353985,0.1790838,0.09961638,-0.01578701,-0.6824604,0.4483795,-0.5692737,4.38725,-50.24749,0.9930239,1008.125
0.352917194,-0.1285535,0.1590973,-0.01578701,-0.6878586,0.4517154,-0.5701843,4.38725,-50.24749,0.9930239,1008.125
0.385480881,-0.06702603,0.2185783,-0.01578701,-0.6877431,0.4424678,-0.5669419,4.02078,-50.25013,0.9942131,1008.123
0.420549393,0.1790838,0.2780592,-0.01578701,-0.6852863,0.4415079,-0.5626085,4.015099,-49.88632,0.9916019,1008.123
0.453113079,0.05602888,-0.1977883,-0.0769864,-0.6839055,0.4483319,-0.5629891,4.015099,-49.88632,0.9916019,1008.122
0.485672474,-0.1285535,-0.01934549,0.1066118,-0.6838911,0.4483055,-0.5571889,4.01836,-49.88116,1.883746,1008.122
0.520740986,-0.3131359,-0.2572692,-0.01578701,-0.6882604,0.4467973,-0.5586579,4.392931,-50.61129,0.995635,1008.122
0.553304672,-0.06702603,-0.1977883,0.1678112,-0.6858875,0.4507471,-0.5653672,4.392931,-50.61129,0.995635,1008.12
0.585868359,-0.3746633,-0.3167502,0.1678112,-0.6917128,0.4492109,-0.5649016,4.38725,-50.24749,0.9930239,1008.124
0.620936870,0.1175563,0.09961638,0.04541239,-0.6843767,0.4454431,-0.5702834,4.388881,-50.2449,1.439096,1008.124
0.653500080,0.1790838,-0.3167502,-0.01578701,-0.6892864,0.4478311,-0.5750759,4.381569,-49.88367,0.9904127,1008.121
0.686059952,-0.005498581,0.5159829,0.04541239,-0.6833622,0.4420522,-0.5698527,4.381569,-49.88367,0.9904127,1008.121
0.718623638,0.1790838,0.1590973,-0.1381858,-0.6853881,0.4483524,-0.5716882,3.58918,-49.88683,1.439061,1008.121
0.753692150,0.1175563,-0.1977883,0.04541239,-0.6878707,0.4531644,-0.5682287,4.02483,-50.61652,0.5507526,1008.121
0.786255360,-0.06702603,-0.1977883,0.1066118,-0.6829337,0.448824,-0.5615324,4.02483,-50.61652,0.5507526,1008.121
0.818819046,-0.1900809,0.09961638,0.04541239,-0.6892554,0.4458721,-0.5717223,4.02241,-50.24755,1.440286,1008.122
0.853887558,-0.1285535,-0.3167502,-0.01578701,-0.6888027,0.448319,-0.5741022,3.594862,-50.25064,1.441672,1008.122
0.886447430,-0.005498581,-0.01934549,0.2902099,-0.6824149,0.4449672,-0.5669088,3.594862,-50.25064,1.441672,1008.124
0.919010639,0.1790838,-0.07882643,-0.01578701,-0.6897794,0.4492627,-0.5707032,4.02241,-50.24755,1.440286,1008.124
0.954079151,-0.2516084,-0.01934549,-0.1993852,-0.6859286,0.4536757,-0.5682228,3.59323,-50.25322,0.9955997,1008.126
0.986642838,-0.06702603,0.04013545,0.1678112,-0.6858618,0.4483219,-0.566371,3.59323,-50.25322,0.9955997,1008.124
1.019206524,0.05602888,-0.1977883,0.1066118,-0.6897541,0.4477896,-0.5673422,3.598912,-50.61703,0.9982109,1008.124
1.054275036,-0.4977182,0.09961638,-0.01578701,-0.6862718,0.4419921,-0.565017,3.594862,-50.25064,1.441672,1008.124
1.086833954,0.1175563,-0.1383074,-0.01578701,-0.6838636,0.4434992,-0.5688634,3.594862,-50.25064,1.441672,1008.128
1.119398117,0.1790838,0.04013545,-0.0769864,-0.6849301,0.4526924,-0.5629216,4.392931,-50.61129,0.995635,1008.128
1.151961803,-0.3746633,0.2780592,-0.0769864,-0.6854216,0.4517428,-0.5692195,4.026461,-50.61394,0.9968243,1008.126
1.187030315,0.1790838,0.04013545,0.1066118,-0.6800208,0.4484025,-0.5673422,4.026461,-50.61394,0.9968243,1008.126
1.219593525,0.05602888,0.1590973,-0.01578701,-0.6849079,0.4488469,-0.5721644,4.02078,-50.25013,0.9942131,1008.128
1.252157211,-0.1285535,0.09961638,-0.0769864,-0.6868356,0.4483092,-0.5663702,4.02483,-50.61652,0.5507526,1008.128
1.287221909,-0.005498581,-0.2572692,0.04541239,-0.6863753,0.4497909,-0.5702151,4.02483,-50.61652,0.5507526,1008.124
1.319785595,0.05602888,0.1590973,-0.0769864,-0.6858445,0.4473391,-0.5639691,4.028092,-50.61136,1.442897,1008.128
1.352348805,-0.06702603,-0.1383074,0.1678112,-0.6853772,0.4469057,-0.5741271,4.008471,-49.46188,0.9885559,1008.128
1.387417317,-0.1900809,0.09961638,0.1678112,-0.6858653,0.4483285,-0.567821,4.008471,-49.46188,0.9885559,1008.128
1.419981003,-0.1285535,0.09961638,0.1678112,-0.6892257,0.4439153,-0.5688519,4.016729,-49.88374,1.437675,1008.128
1.452544689,0.05602888,-0.3167502,0.04541239,-0.6906724,0.4433949,-0.5654747,4.013467,-49.8889,0.5455303,1008.127
1.487609387,0.05602888,-0.07882643,-0.1381858,-0.6834472,0.4502929,-0.5653765,4.013467,-49.8889,0.5455303,1008.127
1.520172596,0.1175563,-0.1977883,-0.1381858,-0.681924,0.4454419,-0.5630351,3.598912,-50.61703,0.9982109,1008.127
1.552736282,-0.2516084,-0.1383074,-0.0769864,-0.6878397,0.4512053,-0.564875,3.59323,-50.25322,0.9955997,1008.125
1.585299969,-0.005498581,-0.01934549,-0.0769864,-0.6883134,0.4497479,-0.5663469,3.59323,-50.25322,0.9955997,1008.123
1.620368481,-0.005498581,-0.1383074,0.04541239,-0.6872844,0.4463306,-0.5601161,3.58918,-49.88683,1.439061,1008.121
1.652931690,-0.06702603,0.04013545,-0.01578701,-0.6853572,0.4478204,-0.5615454,4.026461,-50.61394,0.9968243,1008.12
1.685491562,-0.005498581,-0.1977883,-0.01578701,-0.686348,0.4478384,-0.5683115,4.026461,-50.61394,0.9968243,1008.12
1.720560074,-0.2516084,0.1590973,-0.01578701,-0.6819735,0.4469589,-0.576063,4.02241,-50.24755,1.440286,1008.12
1.753123760,-0.06702603,0.04013545,0.1066118,-0.6877713,0.4448973,-0.5669048,4.028092,-50.61136,1.442897,1008.12
1.785687447,0.05602888,-0.3167502,-0.01578701,-0.6824355,0.4464315,-0.5683367,4.028092,-50.61136,1.442897,1008.12
1.820755959,0.05602888,0.2780592,0.04541239,-0.6873177,0.4468671,-0.5712255,4.02078,-50.25013,0.9942131,1008.122
1.853319168,0.05602888,0.09961638,-0.01578701,-0.6892551,0.446347,-0.5692981,4.392931,-50.61129,0.995635,1008.122
1.885879040,0.1790838,0.1590973,-0.01578701,-0.6897568,0.4473191,-0.5707329,4.392931,-50.61129,0.995635,1008.122
1.918483257,-0.1285535,0.09961638,0.04541239,-0.6897114,0.4439067,-0.5683682,4.381569,-49.88367,0.9904127,1008.124
1.953551769,0.1790838,-0.01934549,-0.2605846,-0.6872907,0.4458667,-0.564957,4.392931,-50.61129,0.995635,1008.122
1.986114979,-0.2516084,-0.1977883,0.1678112,-0.6863523,0.4483221,-0.5678206,4.392931,-50.61129,0.995635,1008.122
2.018678665,-0.1285535,0.04013545,0.04541239,-0.6839316,0.4488552,-0.5711985,4.026461,-50.61394,0.9968243,1008.122
2.053747177,-0.005498581,-0.07882643,-0.01578701,-0.6863367,0.4468666,-0.5683263,4.028092,-50.61136,1.442897,1008.12
2.086307049,-0.1900809,-0.07882643,-0.0769864,-0.6829545,0.4483864,-0.5721733,4.028092,-50.61136,1.442897,1008.12
2.118870258,0.05602888,-0.2572692,0.1066118,-0.6877813,0.4458669,-0.5664066,4.392931,-50.61129,0.995635,1008.12
2.153938770,-0.005498581,-0.07882643,-0.01578701,-0.6878374,0.4512009,-0.5639083,3.238122,-50.98349,1.00201,1008.12
2.186502457,-0.1892285,0.09963937,-0.01564579,-0.687354,0.4512139,-0.5653587,3.238122,-50.98349,1.00201,1008.12
2.219066143,0.1801862,-0.07866853,0.04559837,-0.6912367,0.4492371,-0.5692521,3.59323,-50.25322,0.9955997,1008.12
2.254134655,-0.004396033,-0.01863736,0.04541748,-0.685867,0.4478558,-0.5707285,3.594862,-50.25064,1.441672,1008.12
2.286694050,-0.004378036,0.100046,-0.01573673,-0.6887597,0.446338,-0.5659151,4.02241,-50.24755,1.440286,1008.118
2.319257736,-0.2499489,0.04058635,-0.01569188,-0.6825019,0.4522602,-0.5677643,4.02241,-50.24755,1.440286,1008.12
2.354326248,0.05810988,0.04029628,-0.01556538,-0.6853302,0.4439661,-0.5688549,4.028092,-50.61136,1.442897,1008.118
2.386889935,-0.06531705,0.04002023,0.1678081,-0.6887851,0.449238,-0.5624872,4.028092,-50.61136,1.442897,1008.118
2.419453144,-0.2493822,-0.0791047,-0.01587887,-0.6897718,0.4497245,-0.5653791,4.028092,-50.61136,1.442897,1008.118
2.452016831,0.1203552,-0.3167431,0.1064885,-0.6892591,0.4473056,-0.5663832,4.02241,-50.24755,1.440286,1008.118
2.487081528,-0.06429216,0.04086088,-0.07713582,-0.6868372,0.4464095,-0.5760667,3.597281,-50.61961,0.5521393,1008.123
2.519645214,0.304729,0.09982068,0.04515496,-0.6838777,0.4454275,-0.5654503,3.597281,-50.61961,0.5521393,1008.121
2.552208424,0.05795592,-0.07897283,0.04472137,-0.6858851,0.4507427,-0.5644006,4.026461,-50.61394,0.9968243,1008.121
2.587276935,0.3043707,0.1592415,-0.01644401,-0.68292,0.4464208,-0.5673696,3.228391,-50.25328,1.442862,1008.121
2.619840622,-0.1263078,-0.01998091,0.04461143,-0.691689,0.4458381,-0.571237,3.228391,-50.25328,1.442862,1008.121
2.652404308,-0.002930902,-0.3169684,-0.01653944,-0.682458,0.4483751,-0.568307,4.028092,-50.61136,1.442897,1008.121
2.687469006,-0.3099571,0.09937161,-0.07795423,-0.6878566,0.4512361,-0.5716418,4.026461,-50.61394,0.9968243,1008.121
2.720032215,0.3050946,0.03939219,0.1666044,-0.6892144,0.4429435,-0.5688667,4.026461,-50.61394,0.9968243,1008.121
2.752595901,-0.1264548,0.03923178,0.04410218,-0.6882684,0.4472876,-0.5596172,4.02483,-50.61652,0.5507526,1008.119
2.785159588,-0.1872157,-0.2579594,-0.1392727,-0.6858497,0.4482999,-0.5615376,4.02078,-50.25013,0.9942131,1008.121
2.820228100,0.05888618,0.04001762,0.1054454,-0.6882647,0.445854,-0.5649562,4.02078,-50.25013,0.9942131,1008.121
2.852791309,-0.2484313,-0.2566544,-0.01715298,-0.6864023,0.4522182,-0.5696946,4.017518,-50.2553,0.1020699,1008.121
2.885351181,-0.001598086,-0.4341633,0.04405866,-0.6834226,0.446443,-0.5736527,4.02241,-50.24755,1.440286,1008.121
2.920419693,-0.06282908,0.2202233,-0.3843766,-0.6901959,0.443896,-0.5674011,4.02241,-50.24755,1.440286,1008.123
2.952983379,0.06009566,0.1010917,0.04399274,-0.6819542,0.4469238,-0.5683296,4.024042,-50.24497,1.886357,1008.123
2.985547066,0.05929117,0.1008475,0.04408199,-0.6819598,0.4474097,-0.5683222,4.388881,-50.2449,1.439096,1008.121
3.020615578,-0.06413954,-0.3749203,-0.01709966,-0.6888012,0.4487917,-0.5711947,4.388881,-50.2449,1.439096,1008.125
3.053178787,-0.002408646,-0.1366433,-0.01710682,-0.6844134,0.449315,-0.5668406,4.02241,-50.24755,1.440286,1008.125
3.085738659,0.1208685,0.1015015,-0.01699864,-0.6867576,0.4419836,-0.5645334,4.02483,-50.61652,0.5507526,1008.123
3.120807171,-0.2482287,0.1014662,-0.01707767,-0.6848722,0.4468791,-0.5668773,4.02483,-50.61652,0.5507526,1008.122
3.153370857,0.121311,-0.1361063,-0.01698895,-0.683417,0.4473841,-0.566871,3.59323,-50.25322,0.9955997,1008.122
3.185934067,-0.1867245,-0.01692544,0.1051912,-0.6844622,0.4546358,-0.5614423,4.023199,-50.61911,0.104681,1008.122
3.221002579,-0.1248791,-0.01686986,-0.2008068,-0.6892225,0.4434337,-0.5698259,4.023199,-50.61911,0.104681,1008.122
3.253566265,-0.06326722,-0.1352405,0.1660375,-0.688845,0.4526768,-0.5706521,3.598912,-50.61703,0.9982109,1008.122
3.286126137,-0.4316911,-0.2533898,0.2876442,-0.6868796,0.4521942,-0.5658275,3.591599,-50.2558,0.5495281,1008.122
3.318689346,-0.6752499,-0.4895716,0.347652,-0.6902657,0.4502062,-0.5658546,3.591599,-50.2558,0.5495281,1008.122
3.353757858,-0.9183377,-0.606291,0.8352792,-0.6912552,0.4502221,-0.5721373,4.761033,-50.60606,1.440519,1008.122
3.386321545,-0.1135422,0.8796767,0.2213587,-0.6809,0.4387046,-0.5747399,3.597281,-50.61961,0.5521393,1008.122
3.418926716,0.1326253,0.4608066,-0.08584781,-0.6926314,0.4429144,-0.5722474,3.597281,-50.61961,0.5521393,1008.123
3.453995228,0.746044,0.5180967,0.2822624,-0.6780019,0.4454443,-0.5524045,3.610274,-51.34465,1.003433,1008.122
3.486554623,0.2519606,0.8713964,-0.08502869,-0.6863199,0.4496898,-0.5479814,3.22676,-50.25587,0.996789,1008.122
3.519118309,0.3737377,-0.4386268,-0.145632,-0.6877806,0.4482437,-0.5547693,3.22676,-50.25587,0.996789,1008.12
3.554186821,-0.2422503,-0.8515011,-0.3894062,-0.6873721,0.4526738,-0.5658197,4.02241,-50.24755,1.440286,1008.12
3.586750507,-0.1176679,-0.6103305,-0.3877612,-0.6840938,0.4600905,-0.5840781,4.388881,-50.2449,1.439096,1008.12
3.619313717,0.6190177,-0.01385449,0.286609,-0.6850809,0.4601019,-0.5893941,4.388881,-50.2449,1.439096,1008.124
3.651877403,-0.2429401,1.291685,-0.019846,-0.6839738,0.4503591,-0.5813264,4.02483,-50.61652,0.5507526,1008.122
3.686942100,0.4333069,0.9889838,0.3460555,-0.6784791,0.4425664,-0.5621156,3.59323,-50.25322,0.9955997,1008.122
3.719505787,-0.1829421,0.7470852,-0.2052858,-0.6911543,0.4467086,-0.5475388,3.59323,-50.25322,0.9955997,1008.122
3.752068996,-0.1819456,-0.7394192,0.1013753,-0.6868286,0.4511499,-0.5498921,4.024042,-50.24497,1.886357,1008.122
3.787137508,-0.8570995,-0.4383403,0.04046021,-0.691256,0.4521261,-0.5634075,4.019149,-50.25272,0.5481415,1008.122
3.819701195,-0.7298175,-0.5548621,-0.2037731,-0.6893084,0.4473958,-0.5862003,3.58918,-49.88683,1.439061,1008.122
3.852264881,0.7467273,0.2792926,0.0413367,-0.6824622,0.444578,-0.5881833,3.58918,-49.88683,1.439061,1008.122
3.887329578,0.3744977,1.10897,0.1021243,-0.6853893,0.4483546,-0.5721714,4.026461,-50.61394,0.9968243,1008.122
3.919893265,0.5579004,0.6885313,0.04066226,-0.6872304,0.441476,-0.5611569,4.026461,-50.61394,0.9968243,1008.127
3.952456474,0.3091306,0.09263221,0.1012735,-0.6824324,0.4502309,-0.5489436,4.026461,-50.61394,0.9968243,1008.128
3.987524986,-0.8588156,-0.204414,0.03980234,-0.6863943,0.4545818,-0.5551573,4.026461,-50.61394,0.9968243,1008.128
4.020088673,-0.7323179,-0.9754518,0.03944825,-0.6877894,0.4463573,-0.5673659,4.02078,-50.25013,0.9942131,1008.128
4.052652359,-0.2388694,-1.089672,0.1615133,-0.6795831,0.4518278,-0.5711573,4.02078,-50.25013,0.9942131,1008.128
4.085211754,-0.5451464,-0.07579032,0.03822592,-0.6775671,0.4436433,-0.5824018,4.3832,-49.88109,1.436485,1008.128
4.120280266,0.3173949,0.04316805,-0.450769,-0.6908116,0.4531615,-0.5759599,4.032142,-50.97775,0.9994354,1008.134
4.152843952,-0.358886,-0.0161343,0.4063042,-0.6865996,0.469225,-0.569435,4.032142,-50.97775,0.9994354,1008.134
4.185407639,-1.708922,0.7570332,1.199241,-0.6902444,0.4511186,-0.5527895,4.02078,-50.25013,0.9942131,1008.134
4.220476151,-0.6570378,-0.433333,0.3997295,-0.7021441,0.4271548,-0.5541105,4.02241,-50.24755,1.440286,1008.134
4.253039360,1.984719,-1.500021,0.09329347,-0.677492,0.442555,-0.5567995,4.02241,-50.24755,1.440286,1008.134
4.285599232,-0.8493283,-0.7210281,-1.190545,-0.6720553,0.4752398,-0.5679072,3.610274,-51.34465,1.003433,1008.134
4.320667744,0.01719133,0.7057604,-0.5729239,-0.6953824,0.4648628,-0.5970456,4.388881,-50.2449,1.439096,1008.134
4.353231430,1.611469,0.8214161,0.5286773,-0.6952561,0.4570223,-0.582664,4.388881,-50.2449,1.439096,1008.134
4.385795117,0.3165876,1.293504,0.1600173,-0.6711882,0.4412589,-0.5742269,4.026461,-50.61394,0.9968243,1008.134
4.420863628,1.113125,1.524948,0.4649854,-0.6774055,0.437641,-0.5447901,4.3913,-50.61388,0.5495634,1008.134
4.453426838,-0.3650406,0.6279923,-0.269555,-0.6974112,0.4403093,-0.5476304,4.3913,-50.61388,0.5495634,1008.133
4.485986710,0.8044834,-1.155767,-0.02381257,-0.6907007,0.4486784,-0.5518596,3.59323,-50.25322,0.9955997,1008.133
4.518550396,0.6155413,-1.50684,-0.08495329,-0.6826751,0.4677961,-0.5646269,4.028092,-50.61136,1.442897,1008.131
4.553618908,-0.9828595,-1.322138,0.4038435,-0.6865774,0.4653795,-0.5786778,4.028092,-50.61136,1.442897,1008.131
4.586182117,-1.101502,-0.4260278,0.768453,-0.7044371,0.4491623,-0.5905091,3.606224,-50.97826,1.446895,1008.129
4.618745804,-0.05226173,-1.07776,0.5820485,-0.7102054,0.4403881,-0.6012717,4.3913,-50.61388,0.5495634,1008.133
4.653814316,2.220256,-0.002821842,0.3961264,-0.6786077,0.4475574,-0.5910419,4.3913,-50.61388,0.5495634,1008.131
4.686374187,3.385232,1.900162,0.3956391,-0.6661503,0.4680691,-0.5772064,3.598912,-50.61703,0.9982109,1008.133
4.718937397,-0.1218334,2.494971,0.8852342,-0.6768715,0.4707988,-0.5670035,3.59323,-50.25322,0.9955997,1008.133
4.754005909,-1.66002,2.376009,1.191231,-0.6786294,0.4552067,-0.5633727,3.59323,-50.25322,0.9955997,1008.131
4.786569595,-0.4909981,2.138085,1.986824,-0.6828308,0.4419773,-0.5519694,3.59323,-50.25322,0.9955997,1008.131
4.819133282,-1.106273,1.721719,2.29282,-0.6960816,0.4481775,-0.5639464,4.02241,-50.24755,1.440286,1008.134
4.854201794,0.9856609,0.7700238,2.109222,-0.6819428,0.444525,-0.5751334,4.02241,-50.24755,1.440286,1008.132
4.886761665,3.323704,1.364833,2.537618,-0.6875036,0.4614751,-0.5777698,4.765083,-50.97246,0.9970579,1008.13
4.919324875,2.093155,1.067429,2.966014,-0.7301769,0.4814627,-0.6064262,3.238122,-50.98349,1.00201,1008.13
4.986957073,1.847045,8.502546,2.843615,-0.6122451,0.4704669,-0.6289432,3.596493,-50.24805,1.887744,1008.13
5.019520760,3.446759,13.55843,4.190001,-0.6548185,0.4508521,-0.6059992,3.602174,-50.61186,1.890355,1008.128
5.052083969,1.477881,10.76282,5.903584,-0.6834185,0.4454844,-0.5765675,3.602174,-50.61186,1.890355,1008.128
5.087152481,5.723275,10.64386,5.291591,-0.6661351,0.4267188,-0.5686532,3.230022,-50.2507,1.888933,1008.127
5.119712353,14.39865,7.967218,5.658787,-0.6501319,0.4379878,-0.5428777,2.870863,-50.61457,2.338804,1008.127
5.152276039,15.44461,5.58798,4.863195,-0.6641843,0.4395802,-0.5061032,2.870863,-50.61457,2.338804,1008.125
5.187344551,9.414922,-0.6575187,4.3736,-0.659807,0.4391712,-0.510464,2.878176,-50.9758,2.787488,1008.123
5.219908238,4.800363,-3.810009,2.048023,-0.6430388,0.4137922,-0.5456705,2.503605,-50.24566,3.675598,1008.123
5.252471447,1.785518,-6.129765,1.925624,-0.6240047,0.406351,-0.5646541,2.503605,-50.24566,3.675598,1008.123
5.287539959,6.09244,-6.010803,1.130032,-0.6397575,0.3736976,-0.5897893,2.852085,-49.09095,3.666141,1008.123
5.320099831,12.86046,-7.795231,-0.2775543,-0.6785167,0.3970319,-0.5951964,2.866025,-49.87662,4.11787,1008.126
5.352663517,16.67516,-12.01838,-2.358334,-0.6668575,0.4005637,-0.59032,2.866025,-49.87662,4.11787,1008.126
5.385226727,14.82934,-11.66149,-2.541932,-0.6479679,0.4565873,-0.5653147,2.491295,-49.45741,3.66994,1008.124
5.420405865,4.185089,-11.48305,-4.071917,-0.666369,0.4447436,-0.5785289,2.848034,-48.72455,4.109602,1008.124
5.452969551,1.231771,-11.06668,-2.909128,-0.6581329,0.4420745,-0.6090302,2.836672,-47.99693,4.10438,1008.124
5.485532761,5.231055,-9.758101,-3.398723,-0.6765272,0.4311696,-0.6149794,2.836672,-47.99693,4.10438,1008.124
5.520597458,6.707714,-10.23395,-2.909128,-0.6989207,0.3885926,-0.6146405,3.212874,-48.72449,3.66234,1008.122
5.553161144,17.10586,-11.42357,-1.317944,-0.6633564,0.3956831,-0.5758966,4.002843,-48.35236,4.103226,1008.122
5.585724831,15.6292,-11.72097,-3.76592,-0.7020601,0.4222451,-0.5430677,4.002843,-48.35236,4.103226,1008.122
5.620793343,7.99979,-14.93294,-5.357105,-0.7205306,0.4124307,-0.5751025,3.56472,-47.99939,2.763786,1008.122
5.653356552,7.384516,-14.63554,-5.479503,-0.6770477,0.4013164,-0.571447,3.55662,-47.2666,3.650707,1008.122
5.685920238,12.61435,-15.52775,-5.969099,-0.7018611,0.3966743,-0.5835783,3.55662,-47.2666,3.650707,1008.122
5.753548622,-1.41391,-15.23035,-9.641062,-0.7192696,0.3795774,-0.6142751,4.344958,-46.89706,3.64552,1008.122
5.786111832,4.185089,-12.07786,-9.947059,-0.7007288,0.3355748,-0.6106139,4.344958,-46.89706,3.64552,1008.122
5.818675518,5.538692,-11.78045,-8.600672,-0.7390954,0.3329845,-0.5787135,4.71306,-46.89182,4.090405,1008.124
5.853744030,2.585375,-11.48305,-8.478273,-0.7504689,0.3493264,-0.5712026,5.077899,-46.89176,3.643143,1008.124
5.886307716,2.46232,-8.509002,-9.518663,-0.7091132,0.3532587,-0.569249,5.077899,-46.89176,3.643143,1008.13
5.918867588,7.99979,-6.308208,-9.090267,-0.7175813,0.3311994,-0.5521758,5.442739,-46.8917,3.195883,1008.13
5.953936100,7.753681,-10.05551,-6.030298,-0.8072088,0.3861523,-0.4961459,5.441108,-46.89428,2.749811,1008.128
6.019062996,-2.644459,-11.78045,-5.479503,-0.7325048,0.3586947,-0.549325,5.790535,-45.8002,2.740788,1008.128
6.054131508,4.800363,-10.23395,-4.622712,-0.7770733,0.3448482,-0.5180738,5.792954,-46.16918,1.851255,1008.128
6.086695671,2.339265,-11.42357,-5.724301,-0.7851498,0.3301036,-0.5052398,5.792954,-46.16918,1.851255,1008.128
6.119255066,4.123561,-13.98125,-7.376685,-0.7383942,0.2950816,-0.4719828,5.787273,-45.80537,1.848644,1008.13
6.154323578,1.785518,-17.13374,-9.885859,-0.7550597,0.2741941,-0.4157303,6.521845,-45.79749,2.292338,1008.13
6.186886787,-6.02847,-21.77325,-13.49662,-0.7918983,0.2577072,-0.4227136,6.521845,-45.79749,2.292338,1008.128
6.219450474,-7.012908,-10.94772,-14.47581,-0.8604186,0.5774618,-1.032624,6.512902,-45.43885,1.397584,1008.128
6.252014637,17.84418,-17.13374,-1.073146,-0.9329053,0.4795884,-0.6681314,7.235269,-45.07749,0.05438042,1008.128
6.287083149,-55.43502,0.1157335,-7.743881,-0.8610231,0.2188287,-0.1955695,7.235269,-45.07749,0.05438042,1008.128
6.319642067,-62.94137,-19.51298,-15.8222,-0.7957518,0.1792146,-0.3804034,6.867167,-45.08272,-0.3905039,1008.128
6.352205753,-43.43716,-7.795231,-14.84301,-0.8484867,0.4912469,-0.7448919,7.599032,-45.45194,-2.238282,1008.133
6.387274265,-46.45201,-22.36806,-13.00703,-0.7930664,0.3027569,-0.287163,7.599032,-45.45194,-2.238282,1008.134
6.419837952,-49.09769,-17.19322,-13.61902,-0.8607946,0.2677085,-0.4679319,7.981704,-46.91486,-4.013314,1008.134
6.452402115,-28.0553,-24.7473,-12.82343,-0.8941259,0.3323048,-0.4470958,7.627384,-48.0167,-5.342508,1008.134
6.487470627,-38.51497,-30.57643,-17.29099,-0.9795961,0.2115513,-0.323661,7.627384,-48.0167,-5.342508,1008.134
6.520029545,-41.96051,-36.2866,-21.88094,-0.9203737,0.1770482,-0.3682318,8.35925,-48.38592,-7.190287,1008.134
6.552593231,-22.02561,-31.58761,-29.71446,-0.8969705,0.2494802,-0.4111366,9.100396,-49.54819,-9.860827,1008.134
6.587661743,7.384516,-29.08941,-32.52964,-0.9027537,0.2070203,-0.3890601,9.100396,-49.54819,-9.860827,1008.134
6.620225906,23.9354,-25.34211,-38.83317,-0.9680385,0.1330989,-0.3524215,9.466023,-49.91968,-11.64369,1008.134
6.652789593,27.19636,-24.33093,-39.26157,-0.9253187,0.06456901,-0.3365901,9.814504,-48.76497,-11.65315,1008.133
6.685352802,19.87459,-20.04831,-35.10001,-0.9284589,0.1167163,-0.3768785,9.814504,-48.76497,-11.65315,1008.131
6.720417023,12.30671,-16.83633,-36.0792,-0.9379774,0.05298603,-0.3904094,10.17529,-48.39851,-11.65695,1008.131
6.752980709,17.16738,-9.341735,-38.40478,-0.911653,0.01337913,-0.3692871,10.51251,-46.95095,-13.45287,1008.131
6.785544872,24.67373,-7.438346,-35.9568,-0.9828979,0.02842333,-0.3549709,10.51251,-46.95095,-13.45287,1008.135
6.820613384,13.47573,-11.78045,-37.54799,-1.012588,0.06933364,-0.3519012,10.49547,-45.85952,-13.4607,1008.133
6.853176594,2.093155,-8.449521,-42.99473,-1.008482,0.1269146,-0.3906636,10.84327,-44.76802,-13.9158,1008.133
6.885740280,-2.644459,1.126909,-46.2383,-0.9782118,0.1608754,-0.3974253,10.84327,-44.76802,-13.9158,1008.133
6.920804501,-11.31983,4.219918,-46.4219,-0.9672672,0.158689,-0.3133616,10.10869,-44.7759,-14.35949,1008.133
6.953368664,-21.22575,4.33888,-46.97269,-0.9565715,0.05011129,-0.2401051,10.82864,-44.04557,-14.81316,1008.131
6.985932350,-14.08857,3.744071,-43.30073,-0.9103038,0.01556007,-0.204907,10.82864,-44.04557,-14.81316,1008.131
7.021000862,-6.889854,-2.144542,-38.40478,-0.9048833,0.1485178,-0.1434284,10.82864,-44.04557,-14.81316,1008.13
7.053564072,-7.689711,-2.02558,-39.81236,-0.82672,0.1846884,-0.07189564,11.19185,-44.04809,-15.7065,1008.13
7.086127758,-30.82403,-12.2563,-28.24568,-0.7952762,0.1893407,0.06300712,11.55506,-44.05061,-16.59983,1008.13
7.118687630,-65.64857,-9.401216,-31.12205,-0.7666492,0.2240914,-0.01479738,11.55506,-44.05061,-16.59983,1008.128
7.153756142,-62.69526,-12.67267,-2.909128,-0.6523741,0.22545,0.1199752,12.28288,-44.05343,-18.00415,1008.128
7.186319828,-74.26242,-7.497827,19.24505,-0.8247108,0.269205,0.1570623,12.27635,-44.06376,-19.78843,1008.128
7.218883038,-103.611,-4.166894,27.20097,-1.104563,0.4176902,-0.05743841,12.27635,-44.06376,-19.78843,1008.128
7.253951550,-34.70026,-7.200422,-17.84178,-2.617047,1.27239,-2.09004,12.28282,-44.79913,-21.12143,1008.128
7.286515236,41.4092,-52.22749,-2.174736,-0.09639362,-0.545881,0.7524956,12.32314,-47.71774,-22.50248,1008.132
7.319075108,-23.62532,14.74804,-21.08535,-1.190163,-0.2144488,-0.2318314,12.32314,-47.71774,-22.50248,1008.132
7.354143620,31.50328,-4.345337,-4.989908,-1.001999,0.06161505,-0.4404871,13.40225,-46.62353,-23.40602,1008.13
7.386707306,4.984945,-6.962498,-12.02784,-0.8475884,0.01756928,-0.04058874,13.03578,-46.62618,-23.40483,1008.13
7.419270516,-1.229328,-8.865888,-9.947059,-1.045559,-0.130359,-0.2466395,13.03578,-46.62618,-23.40483,1008.13
7.454339028,-2.152239,-11.72097,-6.213896,-0.9394507,-0.001594778,-0.2563785,12.66526,-46.26243,-22.96019,1008.13
7.486902714,0.001221534,-12.37526,-6.091497,-0.9880043,-0.003913844,-0.2065792,13.40062,-46.62611,-23.8521,1008.132
7.519462586,4.554253,-12.01838,-7.315485,-0.998329,0.01848726,-0.1395215,13.40062,-46.62611,-23.8521,1008.132
7.552025795,-0.1218334,-10.11499,-8.049877,-0.9778165,-0.03789939,-0.1853556,13.40062,-46.62611,-23.8521,1008.132
7.587094307,-1.41391,-11.48305,-4.377914,-0.9717118,-0.06350824,-0.2007369,13.75247,-45.90101,-24.75065,1008.132
7.619657993,-1.721547,-11.48305,-2.970328,-0.9824023,-0.01475596,-0.157929,13.75247,-45.90101,-24.75065,1008.132
7.652221680,-6.520689,-9.817582,-3.70472,-0.9637371,-0.03145556,-0.1727031,13.02684,-46.26754,-24.29959,1008.13
7.687290192,-1.844602,-8.271078,-3.643521,-0.9889027,-0.03777709,-0.1374887,13.74352,-45.54237,-25.6454,1008.13
7.719850063,-4.920975,-5.297032,-4.255516,-0.9768366,-0.03028795,-0.1465703,13.74352,-45.54237,-25.6454,1008.13
7.752413273,-2.705986,-3.215199,-3.888319,-0.9785036,-0.05746053,-0.1610011,13.40304,-46.99509,-24.74163,1008.13
7.787481785,3.508287,-0.9549234,-3.888319,-0.9872261,-0.01204905,-0.1259802,13.38841,-46.27264,-25.63899,1008.129
7.820045471,0.3088588,-0.300633,-3.888319,-0.9721714,-0.0626131,-0.1852547,13.38841,-46.27264,-25.63899,1008.133
7.852609158,3.631342,-2.085061,-1.501542,-0.9710691,-0.07377411,-0.1859094,13.02357,-46.2727,-25.19173,1008.133
7.887677669,3.385232,-2.739352,-0.2775543,-0.9868703,-0.04646729,-0.1443905,13.75084,-45.90359,-25.19672,1008.133
7.920237541,2.031628,-1.311809,1.130032,-0.9804437,-0.05084144,-0.1260952,13.75084,-45.90359,-25.19672,1008.133
7.952800751,0.06274899,-0.1221902,1.742026,-0.9786083,-0.04965961,-0.1666826,13.74757,-45.90876,-26.08887,1008.133
7.985364437,2.277738,0.4726191,2.782416,-0.9864741,-0.03773435,-0.1399073,14.54322,-45.90044,-25.64537,1008.135
8.020432949,1.477881,1.424314,2.476419,-0.9835725,-0.03861093,-0.1524913,14.54322,-45.90044,-25.64537,1008.133
8.052996635,0.8626059,-0.360114,2.231621,-0.982156,-0.03993753,-0.1771651,13.73621,-45.18114,-26.09409,1008.131
8.085560799,-0.4294707,-2.501428,2.415219,-0.9860779,-0.03518418,-0.1650044,13.3811,-45.91141,-26.08768,1008.135
8.120625019,-0.1833608,-4.404818,1.436029,-0.9904358,-0.03909124,-0.1732772,13.3811,-45.91141,-26.08768,1008.135
8.153188229,-1.475437,-6.42717,1.191231,-0.9845518,-0.04099164,-0.1660612,13.01463,-45.91405,-26.08649,1008.134
8.185751915,-1.721547,-7.795231,1.680826,-0.9777956,-0.03127906,-0.1451343,13.37705,-45.54501,-25.64422,1008.134
8.220820427,-0.1218334,-7.200422,1.436029,-0.98407,-0.0338417,-0.1340497,13.37705,-45.54501,-25.64422,1008.134
8.253384113,1.785518,-5.713398,1.803225,-0.9868567,-0.04601654,-0.1366497,13.74594,-45.91134,-26.53494,1008.134
8.285948277,0.8626059,-3.988451,2.904814,-0.9771866,-0.03530064,-0.1142602,13.75325,-46.27257,-26.08626,1008.134
8.318507195,0.8010784,-2.62039,3.272011,-0.984538,-0.03578509,-0.135529,13.75325,-46.27257,-26.08626,1008.135
8.353575707,3.139122,-0.9549234,3.33321,-0.9900253,-0.01706711,-0.09946828,14.17512,-45.90567,-26.09025,1008.134
8.386139393,-1.229328,-1.073885,2.721216,-0.9909346,-0.03431981,-0.155319,13.37947,-45.91399,-26.53375,1008.134
8.418703556,-13.59635,-13.44592,2.048023,-0.9261023,-0.06969164,-0.1003328,13.37947,-45.91399,-26.53375,1008.134
8.453771591,1.416353,-2.263504,4.067603,-0.9879819,-0.02863101,-0.1155981,13.3811,-45.91141,-26.08768,1008.134
8.486335755,1.108716,-2.263504,3.822805,-0.9968851,-0.01612705,-0.1120151,13.37784,-45.91657,-26.97982,1008.138
8.518894673,-15.81133,-10.82876,3.455609,-1.474933,0.02395266,-0.03650221,13.37784,-45.91657,-26.97982,1008.136
8.553963184,-1.598492,-4.761703,3.272011,-1.008775,-0.004969478,-0.1413194,13.74836,-46.28032,-27.42447,1008.135
8.586526871,-3.690426,-6.308208,1.925624,-0.9934645,-0.02228734,-0.1367646,13.38515,-46.2778,-26.53114,1008.133
8.619091034,-2.152239,-6.665093,2.048023,-1.009012,-0.02255427,-0.1227358,13.74431,-45.91393,-26.98101,1008.133
8.654159546,-2.829041,-4.642742,1.007633,-1.051546,-0.000442581,-0.0841706,13.74431,-45.91393,-26.98101,1008.131
8.686723232,-3.505843,-3.988451,-1.440343,-1.091953,0.04033682,-0.08302607,13.38189,-46.28297,-27.42328,1008.131
8.719282150,-8.120403,-9.877064,-2.970328,-1.155862,0.09388702,-0.0719965,13.74082,-45.91946,-27.93688,1008.129
8.751846313,-19.3184,-18.14492,-11.35464,-1.045941,0.03859448,0.003910765,13.74082,-45.91946,-27.93688,1008.128
8.786914349,-35.31554,-21.05948,-13.19063,-0.9675555,0.006401598,0.0400806,13.73919,-45.92205,-28.38295,1008.128
8.819478512,-49.3438,-26.05588,-16.3118,-0.9424648,-0.05218801,0.06381473,14.16347,-45.92413,-29.27648,1008.128
8.852041721,-61.58776,-27.30498,-14.04742,-0.9021682,-0.08230157,0.06815019,14.16347,-45.92413,-29.27648,1008.126
8.887110710,-64.3565,-19.51298,-12.02784,-0.8570373,-0.1232265,0.006093404,13.72372,-45.57373,-31.06199,1008.126
8.919669628,-54.57364,-16.06308,-10.49785,-0.8015656,-0.1271859,-0.03269069,13.7164,-45.2125,-31.51068,1008.13
8.952233791,-49.58991,-7.795231,-6.152697,-0.811631,-0.1181556,-0.1229347,13.7164,-45.2125,-31.51068,1008.13
8.987302303,-23.19463,6.301751,3.210811,-0.8797002,-0.04330101,-0.3184613,14.49985,-44.85071,-32.85408,1008.13
9.019865990,9.968669,24.38396,12.20712,-0.9431596,0.03880505,-0.3862703,13.70015,-44.49263,-32.85411,1008.128
9.052429676,6.461605,11.89296,8.229162,-0.4700389,-0.2847285,-0.240366,13.70015,-44.49263,-32.85411,1008.128
9.087498188,51.4997,16.7704,7.005174,-1.086064,-0.13067,-0.08177368,13.32232,-43.76766,-32.85815,1008.126
9.120057106,32.91841,-7.259903,5.781186,-1.307102,0.2635523,0.2304316,13.70178,-44.49005,-32.40804,1008.126
9.152621269,-20.672,3.268223,-15.21021,-1.059474,0.2039965,0.03738337,13.70178,-44.49005,-32.40804,1008.126
9.185184956,-21.90255,-0.9549234,-12.08904,-0.9231989,-0.1451316,-0.06861696,14.49743,-44.48173,-31.96455,1008.128
9.220253468,-6.582216,2.019124,-8.723071,-0.983066,-0.1649864,-0.1486193,14.13096,-44.48438,-31.96336,1008.126
9.252817154,1.785518,3.08978,-5.295905,-0.9857783,-0.08704194,-0.08990566,14.13096,-44.48438,-31.96336,1008.128
9.285380364,-0.4294707,2.019124,-5.601902,-0.9971447,-0.02273152,-0.0502434,14.86795,-44.84548,-32.40919,1008.128
9.320445061,-2.275294,2.494971,-7.315485,-1.001244,-0.04518444,-0.04091445,14.48444,-43.75669,-32.41584,1008.126
9.353008747,-3.936536,3.506147,-7.376685,-0.9848728,-0.07453844,-0.05829628,14.48444,-43.75669,-32.41584,1008.126
9.385572434,-3.321261,5.231094,-5.663102,-0.9811778,-0.1007001,-0.06594963,14.10824,-43.02913,-31.9738,1008.126
9.420725823,-1.229328,6.480194,-4.377914,-0.9848582,-0.07884569,-0.07286331,14.1196,-43.75676,-31.96858,1008.126
9.453289509,-1.66002,5.944865,-3.76592,-0.9869589,-0.0695553,-0.09108786,14.1196,-43.75676,-31.96858,1008.126
9.485853195,-0.7986354,5.528499,-3.949518,-0.9839551,-0.07394753,-0.07858998,14.48202,-43.38771,-31.52631,1008.126
9.520917893,-1.844602,4.99317,-3.827119,-0.9896204,-0.09099539,-0.08657863,14.46903,-42.66268,-31.9776,1008.126
9.553481579,-1.66002,3.922513,-3.215125,-0.9847279,-0.09668149,-0.104555,14.46903,-42.66268,-31.9776,1008.128
9.586044788,-0.6755805,3.981994,-2.603131,-0.9836909,-0.0977351,-0.08378691,14.47634,-43.0239,-31.52892,1008.126
9.618608475,0.5549686,4.160437,-1.68514,-0.9921525,-0.08466636,-0.09614716,14.10824,-43.02913,-31.9738,1008.126
9.653676987,0.3088588,3.387185,-1.195545,-0.9886737,-0.09188417,-0.1020612,14.10824,-43.02913,-31.9738,1008.126
9.686240673,0.1858039,2.732895,-0.5223519,-0.9866913,-0.09525135,-0.1040479,14.47066,-42.6601,-31.53153,1008.126
9.718800545,0.3088588,3.208742,0.6404366,-0.9875879,-0.09968559,-0.09348045,15.20928,-43.01861,-31.5313,1008.129
9.753869057,-0.7986354,2.197566,0.7628354,-0.991203,-0.08651159,-0.1150279,15.20928,-43.01861,-31.5313,1008.129
9.786432743,-0.6140531,-0.1221902,1.007633,-0.993603,-0.09136287,-0.1238004,14.46903,-42.66268,-31.9776,1008.129
9.818995953,0.1858039,-0.7169997,1.37483,-0.9836383,-0.1059164,-0.1013133,14.47066,-42.6601,-31.53153,1008.129
9.854064465,0.9241334,-0.7169997,1.191231,-0.9776145,-0.08054245,-0.1062492,14.47066,-42.6601,-31.53153,1008.131
9.886628151,1.354826,-1.549733,0.9464337,-0.9839472,-0.0806206,-0.107211,14.47392,-42.65493,-30.63939,1008.131
9.919188023,1.662463,-2.739352,0.5792373,-0.983469,-0.08107378,-0.1130189,14.48202,-43.38771,-31.52631,1008.131
9.954256535,4.000506,-3.393642,0.1508415,-0.9996689,-0.06534941,-0.09052805,14.46661,-42.2937,-31.08807,1008.132
9.986820221,1.72399,-1.133366,0.1508415,-0.9690629,-0.09853181,-0.08042955,14.46661,-42.2937,-31.08807,1008.132
10.019383430,4.923418,0.7105429,0.7016361,-0.9846898,-0.09579977,-0.08472317,15.20928,-43.01861,-31.5313,1008.132
10.051947117,3.446759,1.305352,0.5180379,-0.9966622,-0.07497896,-0.1017955,15.20928,-43.01861,-31.5313,1008.132
10.087015629,2.400793,-0.1221902,-0.3999531,-0.9875339,-0.1059672,-0.1013104,14.47797,-43.02132,-31.08285,1008.137
10.119575501,5.907857,1.364833,0.1508415,-0.9844639,-0.06963344,-0.06692262,13.68395,-43.02705,-31.08027,1008.137
10.152139187,4.800363,4.041475,-1.134346,-0.988712,-0.07802137,-0.05157844,14.85012,-43.38248,-31.08142,1008.135
10.187207699,3.446759,6.420713,-1.134346,-0.978839,-0.09859068,-0.0954057,14.85012,-43.38248,-31.08142,1008.135
10.219770908,2.400793,7.134484,0.1508415,-0.9832388,-0.09909199,-0.1045932,14.84607,-43.01609,-30.63796,1008.133
10.252334595,2.585375,6.539675,-1.868739,-0.9903726,-0.0776756,-0.1318121,14.4796,-43.01874,-30.63677,1008.13
10.287403107,4.923418,6.777598,-0.2775543,-0.9762209,-0.1103087,-0.07625192,14.4796,-43.01874,-30.63677,1008.128
10.319962978,4.123561,7.550851,-0.3999531,-0.9864945,-0.07378808,-0.1206389,14.85338,-43.37732,-30.18928,1008.128
10.352527142,1.539408,5.052651,-2.297134,-0.9973135,-0.0742093,-0.1655889,14.84933,-43.01093,-29.74582,1008.128
10.387595177,5.046473,6.123308,-2.113536,-0.9662336,-0.08738593,-0.06527755,14.84933,-43.01093,-29.74582,1008.13
10.420158386,0.4319137,8.859432,-1.562742,-0.9827937,-0.09567987,-0.1055084,14.48286,-43.01357,-29.74463,1008.13
10.452722550,1.785518,7.907737,-2.052337,-0.992276,-0.08539204,-0.1502963,14.48286,-43.01357,-29.74463,1008.132
10.485286236,0.001221534,5.112133,-2.909128,-0.986518,-0.07755009,-0.1482487,14.48286,-43.01357,-29.74463,1008.132
10.520350456,0.4934412,3.565628,-2.786729,-0.9717359,-0.1313656,-0.1350661,14.47313,-42.28337,-29.30378,1008.132
10.552914619,1.9701,1.840681,-0.5835513,-0.9865867,-0.112089,-0.1415249,15.21175,-42.64189,-29.30355,1008.132
10.585477352,-2.213767,-1.787657,-2.909128,-1.000624,-0.04214663,-0.1718638,15.21175,-42.64189,-29.30355,1008.132
10.620546818,-2.890569,-2.798833,-3.398723,-0.9571916,-0.1676247,-0.1356333,15.21175,-42.64189,-29.30355,1008.13
10.653110027,6.277022,0.4726191,-0.9507477,-0.9786967,-0.1074118,-0.0791056,14.48044,-42.6446,-28.8551,1008.13
10.685673714,1.170243,3.149261,-2.235935,-0.9914498,-0.06656075,-0.1210072,14.48044,-42.6446,-28.8551,1008.129
10.720737934,0.4319137,2.376009,-3.215125,-0.9637775,-0.105942,-0.1453202,14.48449,-43.01099,-29.29856,1008.133
10.753302097,3.200649,4.755247,-0.9507477,-0.9828516,-0.1364213,-0.1240148,14.47881,-42.64718,-29.30117,1008.131
10.785865784,0.001221534,4.636285,1.619627,-0.9683998,-0.1330912,-0.1732824,14.47881,-42.64718,-29.30117,1008.129
10.820934296,2.093155,5.350056,3.027213,-0.9726202,-0.09307303,-0.115146,14.48449,-43.01099,-29.29856,1008.129
10.853497505,-0.7986354,7.431889,1.986824,-0.9901203,-0.09668541,-0.1190512,14.8396,-42.28072,-29.30497,1008.129
10.886061192,0.4319137,4.814728,1.925624,-0.9670901,-0.1261375,-0.2021802,14.8396,-42.28072,-29.30497,1008.129
10.918621063,2.277738,1.18639,2.231621,-0.9823609,-0.1060383,-0.1772066,14.47476,-42.28079,-28.85771,1008.132
10.953689575,1.477881,0.7700238,1.007633,-0.9909621,-0.07036036,-0.1389506,14.4837,-42.63943,-27.96295,1008.132
10.986253262,-2.090712,-0.7764806,0.7628354,-0.9731526,-0.1409776,-0.1627638,14.4837,-42.63943,-27.96295,1008.132
11.018816471,1.231771,-0.003228351,2.721216,-0.9804634,-0.09355504,-0.1383478,14.47639,-42.27821,-28.41164,1008.132
11.053885460,-0.9832177,1.245871,1.31363,-0.982628,-0.07844034,-0.1550333,14.48612,-43.00841,-28.85249,1008.132
11.086448669,0.5549686,2.43549,2.29282,-0.9664975,-0.1220437,-0.1392793,14.48612,-43.00841,-28.85249,1008.133
11.119008541,3.077595,4.93369,3.516809,-0.9735538,-0.103147,-0.1467182,14.47802,-42.27562,-27.96556,1008.133
11.154077053,2.893012,3.863033,4.495998,-1.001347,-0.1086715,-0.186896,15.22233,-42.99794,-27.96272,1008.133
11.186640739,7.815208,3.446666,5.169192,-0.9559511,-0.1054292,-0.1288851,15.22233,-42.99794,-27.96272,1008.132
11.219204426,8.49201,5.171613,6.209581,-0.9887711,-0.09313313,-0.1480009,14.84854,-42.63937,-28.41022,1008.132
11.254272938,5.046473,5.350056,7.37237,-0.9663402,-0.09717906,-0.1558183,14.84854,-42.63937,-28.41022,1008.132
11.286836147,5.415637,4.160437,7.127573,-0.9774951,-0.0655962,-0.1857785,14.84854,-42.63937,-28.41022,1008.132
11.319396019,5.538692,2.257047,6.209581,-0.9796939,-0.08841294,-0.1977255,14.85204,-42.63383,-27.45435,1008.132
11.351959705,6.09244,0.8295048,5.413989,-0.97327,-0.0495568,-0.1739368,14.84449,-42.27297,-27.96675,1008.13
11.387028217,3.877451,1.305352,4.190001,-0.9809141,-0.06039015,-0.1649105,14.84449,-42.27297,-27.96675,1008.127
11.419591904,3.016067,0.4131382,2.843615,-0.9684783,-0.04744857,-0.1961446,14.11723,-42.64208,-27.96177,1008.131
11.452155113,1.231771,1.126909,2.537618,-0.9699723,-0.0768395,-0.1501874,14.48775,-43.00583,-28.40641,1008.131
11.487224579,1.416353,3.387185,0.8852342,-0.9615697,-0.04895366,-0.1662049,14.48775,-43.00583,-28.40641,1008.131
11.519783497,1.662463,4.219918,0.3344397,-0.9982522,-0.08142053,-0.1855165,14.85772,-42.99764,-27.45174,1008.131
11.552347183,0.06274899,3.744071,2.231621,-0.9888366,-0.09063546,-0.1629474,14.48962,-43.00287,-27.89662,1008.131
11.587415695,-0.4909981,5.469018,2.721216,-0.9706444,-0.06556884,-0.1722501,14.8634,-43.36145,-27.44912,1008.131
11.619979381,3.385232,7.669813,1.436029,-0.9793817,-0.06430673,-0.1543375,14.8634,-43.36145,-27.44912,1008.131
11.652543545,1.908573,9.335279,2.721216,-0.9878467,-0.09778613,-0.1906099,14.12804,-42.99777,-26.55721,1008.131
11.687612057,3.692869,8.264623,5.413989,-0.9685383,-0.08628371,-0.2064045,14.86098,-42.99247,-26.55959,1008.131
11.720170975,2.031628,7.907737,6.270781,-0.9742647,-0.0485801,-0.1777879,14.86098,-42.99247,-26.55959,1008.131
11.752734661,-0.1833608,8.264623,6.821576,-0.9770335,-0.0655437,-0.195929,14.48152,-42.27008,-27.0097,1008.132
11.785298824,2.093155,8.443066,8.779957,-0.981926,-0.06889429,-0.221111,14.5075,-43.72016,-26.10711,1008.131
11.820367336,6.461605,9.097356,8.229162,-0.9750729,-0.03135327,-0.2273122,14.5075,-43.72016,-26.10711,1008.131
11.852931023,7.322989,6.956041,5.658787,-0.9676099,-0.004493704,-0.2341602,14.13535,-43.359,-26.10853,1008.131
11.885494232,2.339265,4.755247,3.149612,-0.9663846,-0.02634252,-0.2354615,14.1313,-42.9926,-25.66507,1008.131
11.920559406,-1.1678,3.387185,2.598818,-0.9695301,-0.04541654,-0.2183479,14.1313,-42.9926,-25.66507,1008.132
11.953122139,1.170243,3.030299,3.455609,-0.966647,-0.04530812,-0.2338171,13.71675,-43.72073,-25.21239,1008.131
11.985686302,3.815924,2.613933,3.272011,-0.9689359,-0.01379557,-0.2231832,14.15566,-44.44527,-25.20855,1008.131
12.020754814,-0.9216903,3.08978,1.864425,-0.9699287,-0.05699901,-0.2373759,14.15566,-44.44527,-25.20855,1008.131
12.053318501,5.477165,2.316528,3.272011,-0.957602,-0.02959003,-0.2442203,13.71675,-43.72073,-25.21239,1008.131
12.085882187,4.185089,3.506147,2.660017,-0.9730506,-0.03764688,-0.2269267,14.13861,-43.35383,-25.21639,1008.131
12.120946884,4.800363,4.279399,3.639207,-0.9634197,-0.02638354,-0.2180634,14.13861,-43.35383,-25.21639,1008.131
12.153510094,7.015352,5.171613,4.740796,-0.975538,-0.03425309,-0.2321897,14.1443,-43.71764,-25.21378,1008.131
12.186073780,18.39793,6.24227,8.963554,-0.9585882,-0.03005568,-0.2514771,14.51808,-44.07623,-24.76628,1008.131
12.218637466,45.28543,11.53607,18.87786,-0.9638477,-0.09730843,-0.3327386,14.51808,-44.07623,-24.76628,1008.134
12.253705978,112.1042,19.26859,30.44454,-0.9075126,0.05424998,-0.4735603,13.72569,-44.07938,-24.31763,1008.134
12.286269665,158.2498,31.22427,39.07366,-0.9711884,0.2108913,-0.4740094,13.72653,-43.70523,-22.53596,1008.134
12.318829537,157.6346,29.02347,41.76643,-1.08573,0.4096105,-0.3621072,13.72653,-43.70523,-22.53596,1008.134
12.353898048,69.65031,26.64423,28.11897,-1.136004,0.4999602,-0.1760304,13.38634,-44.41188,-18.45118,1008.134
12.386461258,-8.489568,27.0606,28.85336,-1.043575,0.2842543,-0.2499835,12.29126,-44.04015,-15.71006,1008.138
12.419024944,13.96795,24.26499,31.05654,-1.121258,0.07187085,-0.3662589,12.29126,-44.04015,-15.71006,1008.138
12.454093456,83.06329,11.95244,25.18139,-1.102234,0.1837169,-0.2195579,12.65695,-43.66594,-14.37565,1008.138
12.486657143,101.0908,10.04905,33.19852,-1.086095,0.428461,-0.0220054,11.55838,-43.29974,-12.5904,1008.138
12.519217014,35.37951,12.0714,46.96838,-0.8431736,0.3790642,0.1002676,11.55838,-43.29974,-12.5904,1008.14
12.554285526,-30.39334,22.71849,77.69048,-0.8398955,0.2624575,-0.1108167,11.55843,-42.55404,-9.473124,1008.138
12.586849213,-14.33468,15.87818,81.72964,-1.081556,0.1863687,-0.315246,11.18386,-41.82389,-8.585012,1008.138
12.619412422,7.446044,6.361232,79.77126,-0.9112537,0.1299595,-0.2481148,11.18386,-41.82389,-8.585012,1008.138
12.651976585,-7.443601,4.755247,80.50565,-0.9255663,0.05794256,-0.2699849,10.48259,-43.64308,-7.677436,1008.138
12.687044620,-34.94638,5.885385,74.01851,-0.9379024,0.01580665,-0.3373218,9.399663,-44.37052,-6.266707,1008.137
12.719604492,-58.38834,10.34646,61.16664,-0.9388518,0.02520596,-0.4821906,9.399663,-44.37052,-6.266707,1008.137
12.752168655,-74.20089,11.00075,40.84844,-0.8780065,-0.06421411,-0.522767,8.689213,-45.83143,-6.317609,1008.141
12.787236690,-69.9555,15.22389,32.52532,-0.8318344,-0.1038224,-0.5509683,7.244425,-47.29984,-6.748482,1008.141
12.819800854,-77.5849,8.443066,28.85336,-0.8092968,-0.1147216,-0.5477727,7.244425,-47.29984,-6.748482,1008.141
12.852364063,-79.00003,13.08258,14.5327,-0.8446745,-0.07232477,-0.6732531,8.020502,-50.27083,-7.621679,1008.141
12.887432098,-62.5722,19.80392,-4.071917,-0.7091552,-0.03521587,-0.6433318,7.677544,-52.10028,-8.94565,1008.141
12.919991970,-49.71297,39.78952,-15.455,-0.568144,0.004093532,-0.5476429,7.677544,-52.10028,-8.94565,1008.141
12.952556133,21.65889,38.36198,-5.785501,-0.8738402,0.1191265,-0.535442,7.338637,-54.29612,-10.71308,1008.139
12.987624645,57.03717,31.52167,-1.011947,-0.8735751,0.4777611,-0.3124512,6.972167,-54.29877,-10.71189,1008.141
13.020188332,38.20977,27.29852,-12.39503,-0.9119458,0.6599694,-0.1989411,6.972167,-54.29877,-10.71189,1008.141
13.052751541,-35.74623,18.19794,-10.62025,-0.8471077,0.7779877,-0.2083208,7.332167,-53.56075,-9.380089,1008.141
13.085315228,-59.37278,15.04545,-8.723071,-0.7929729,0.5732965,-0.3555422,7.314335,-52.09776,-8.052318,1008.141
13.120379448,-24.97893,28.01229,2.29282,-0.7429634,0.4640413,-0.3408225,6.941341,-52.11074,-9.835417,1008.141
13.152943611,19.38237,26.58475,9.147153,-0.9471193,0.5566228,-0.3372795,6.941341,-52.11074,-9.835417,1008.139
13.185507298,1.72399,5.647461,14.4715,-0.9217511,0.6053239,-0.2867731,7.316755,-52.46674,-8.941851,1008.139
13.220575810,-27.99377,6.123308,7.739566,-0.7723189,0.5522667,-0.3742513,6.944603,-52.10558,-8.943273,1008.139
13.253139496,-40.42232,11.65504,7.37237,-0.7391521,0.4399898,-0.4905565,6.944603,-52.10558,-8.943273,1008.139
13.285702705,-22.64088,14.2722,13.30871,-0.794757,0.3558395,-0.5275565,7.324855,-53.19953,-9.828773,1008.137
13.320767880,-2.767514,16.59195,14.4715,-0.7603841,0.3804363,-0.4943448,6.956753,-53.20476,-10.27365,1008.14
13.353331089,4.554253,20.93406,10.98314,-0.7729136,0.40994,-0.4987164,6.956753,-53.20476,-10.27365,1008.14
13.385894775,13.90643,20.63666,10.92194,-0.7812466,0.4180177,-0.4821503,6.610589,-54.29367,-9.372489,1008.14
13.421021938,13.8449,25.27617,15.20589,-0.7340761,0.5431928,-0.5126724,6.6098,-53.92211,-8.036884,1008.138
13.453585625,14.15254,30.27257,15.87909,-0.7826113,0.569797,-0.5170534,6.6098,-53.92211,-8.036884,1008.138
13.486149788,11.69144,27.358,17.83747,-0.7809886,0.59277,-0.5408733,6.977902,-53.91688,-7.592001,1008.136
13.518708706,20.7975,26.34683,15.57309,-0.7826503,0.5646366,-0.5577357,6.247667,-53.54508,-5.298151,1008.136
13.553777218,28.91913,24.38396,18.02106,-0.7608786,0.5727892,-0.5779341,6.247667,-53.54508,-5.298151,1008.136
13.586340904,38.51741,26.34683,16.36868,-0.7712601,0.546837,-0.5652689,5.142574,-53.18921,-5.297196,1008.135
13.618904591,48.73096,23.84863,18.87786,-0.7505129,0.5232589,-0.5579147,5.143417,-52.81506,-3.515519,1008.135
13.653973102,45.59307,23.84863,21.57063,-0.7493941,0.5206289,-0.5110683,5.143417,-52.81506,-3.515519,1008.133
13.686537266,15.32156,19.68496,22.79462,-0.6988055,0.4905278,-0.4801569,4.049974,-52.44075,-0.3283358,1008.133
13.719096661,-12.91955,17.00832,19.18385,-0.6592724,0.3963409,-0.4956499,3.240542,-51.35246,0.1124783,1008.133
13.754165173,-27.87072,10.16801,9.820346,-0.5955769,0.3156504,-0.5240115,3.240542,-51.35246,0.1124783,1008.131
13.786728382,-24.11754,3.08978,-1.134346,-0.5491342,0.2541454,-0.5457799,3.249485,-51.71111,1.007233,1008.131
13.819292068,-7.259018,-1.37129,-5.051107,-0.5160497,0.2622374,-0.5205528,2.522225,-52.08021,1.012221,1008.129
13.851856232,4.800363,-0.5980378,-9.579863,-0.4993657,0.3453411,-0.4719301,2.522225,-52.08021,1.012221,1008.129
13.886924744,4.677308,-1.311809,-13.98622,-0.6120577,0.4079306,-0.451048,2.891115,-52.44654,0.121501,1008.128
13.919484615,-0.7986354,-8.568482,-17.29099,-0.7296041,0.4547336,-0.4990416,2.520594,-52.08279,0.5661497,1008.126
13.952048302,2.46232,-13.8028,-21.57495,-0.7144203,0.4765915,-0.5591449,2.520594,-52.08279,0.5661497,1008.126
13.987116814,21.65889,-12.61319,-22.43174,-0.7007165,0.5032213,-0.6041892,3.255954,-52.44648,-0.3257608,1008.128
14.019680023,26.27345,-12.31578,-14.53701,-0.6672967,0.5581514,-0.6174014,3.622425,-52.44383,-0.3269491,1008.128
14.052243710,12.61435,-6.724575,-9.090267,-0.6601393,0.6022156,-0.6674906,3.622425,-52.44383,-0.3269491,1008.127
14.087312222,0.9856609,-2.560909,-4.683911,-0.7016311,0.5576847,-0.7193679,4.041873,-51.70796,0.5585861,1008.127
14.119872093,-2.890569,0.8295048,0.9464337,-0.6929338,0.521356,-0.7213807,4.399401,-51.34667,-0.3373585,1008.125
14.152435780,-3.875008,3.68459,4.985593,-0.6920156,0.4502397,-0.6842797,4.399401,-51.34667,-0.3373585,1008.125
14.187504292,-2.029184,7.49137,7.923164,-0.6274881,0.4453878,-0.6085258,4.39535,-50.98027,0.1061029,1008.125
14.220067978,-1.106273,11.29815,6.087183,-0.6520669,0.4327075,-0.5627748,4.402663,-51.3415,0.5547857,1008.123
14.252631187,-1.475437,8.680989,6.025983,-0.7040025,0.419832,-0.5522868,4.402663,-51.3415,0.5547857,1008.121
14.285194874,-2.152239,5.647461,3.945204,-0.6628276,0.3998934,-0.5386128,3.601331,-50.986,0.1086788,1008.121
14.320259571,4.984945,3.149261,2.598818,-0.642783,0.39002,-0.5542508,3.608643,-51.34723,0.5573616,1008.121
14.352823258,6.953824,1.126909,0.8852342,-0.6614076,0.3999872,-0.5550476,3.608643,-51.34723,0.5573616,1008.121
14.385386944,4.308144,-2.441947,-1.379143,-0.6534019,0.4181902,-0.5803965,4.032142,-50.97775,0.9994354,1008.121
14.420455456,5.046473,-2.144542,-3.153926,-0.6138979,0.4114577,-0.5897216,3.615956,-51.70846,1.006044,1008.123
14.453019142,7.015352,0.9484667,-3.70472,-0.6294976,0.4103354,-0.6013246,3.615956,-51.70846,1.006044,1008.123
14.485582352,7.815208,-0.1816712,-4.194316,-0.6975341,0.4329237,-0.6333006,3.23081,-50.62226,0.5533276,1008.125
14.520647526,7.753681,-2.679871,-2.052337,-0.6652719,0.4615978,-0.6473957,4.032142,-50.97775,0.9994354,1008.125
14.553210735,6.523132,1.662238,-0.7671494,-0.6503431,0.4796964,-0.6302157,4.032142,-50.97775,0.9994354,1008.124
14.585774422,0.8626059,2.43549,0.5792373,-0.699973,0.4727956,-0.644291,4.032142,-50.97775,0.9994354,1008.124
14.620842934,-0.6140531,0.1157335,1.130032,-0.6747828,0.44203,-0.6467182,3.606224,-50.97826,1.446895,1008.122
14.653406620,3.323704,2.019124,1.497228,-0.63216,0.4254636,-0.6223599,3.606224,-50.97826,1.446895,1008.12
14.685970783,4.492726,4.576804,1.37483,-0.6347739,0.4034607,-0.6009411,3.594862,-50.25064,1.441672,1008.12
14.718529701,4.492726,4.874208,0.02844273,-0.6647848,0.387995,-0.5992146,4.02078,-50.25013,0.9942131,1008.118
14.753599167,3.139122,-0.300633,-0.5835513,-0.6639145,0.3986603,-0.5908353,4.016729,-49.88374,1.437675,1008.117
14.786161900,-0.1218334,-0.5980378,-0.5223519,-0.6426194,0.4091658,-0.5955293,4.016729,-49.88374,1.437675,1008.117
14.818726063,-3.321261,-0.7764806,-1.562742,-0.6597167,0.4118964,-0.6036885,4.01836,-49.88116,1.883746,1008.118
14.853794575,-1.967657,-3.453123,-1.073146,-0.6657583,0.4231213,-0.631064,3.58513,-49.52043,1.882522,1008.118
14.886358261,0.3703863,-1.966099,-1.073146,-0.6474693,0.4394504,-0.6424335,3.58513,-49.52043,1.882522,1008.118
14.918918133,0.3703863,-1.133366,0.02844273,-0.657234,0.4417486,-0.6414223,3.224341,-49.88689,1.886322,1008.118
14.953986645,0.1242764,-0.06270929,-0.1551555,-0.6551211,0.4281553,-0.6387315,4.02241,-50.24755,1.440286,1008.118
14.986550331,0.06274899,0.4726191,-0.2775543,-0.6588296,0.4149212,-0.6249119,4.02241,-50.24755,1.440286,1008.117
15.019113541,0.3088588,0.4726191,-0.03275668,-0.6625971,0.4046487,-0.6211979,4.016729,-49.88374,1.437675,1008.117
15.054182529,-0.4294707,0.05625259,-0.3387537,-0.6669466,0.4035802,-0.6125093,4.755352,-50.24226,1.437908,1008.121
15.086745739,-0.7986354,-0.5385568,-0.5835513,-0.6524238,0.4115365,-0.6104684,4.755352,-50.24226,1.437908,1008.124
15.119305611,-0.06030592,-0.4195949,-0.5223519,-0.651055,0.4183824,-0.6156824,4.024042,-50.24497,1.886357,1008.124
15.151869297,-0.1218334,-0.1816712,-0.8283489,-0.6564675,0.4236466,-0.61318,3.59323,-50.25322,0.9955997,1008.123
15.186937809,-0.9216903,-0.7764806,0.08964212,-0.6657459,0.4235743,-0.6238064,3.59323,-50.25322,0.9955997,1008.123
15.219501495,-0.9216903,-0.5385568,-0.09395607,-0.6647728,0.4240641,-0.6218664,4.388881,-50.2449,1.439096,1008.123
15.252064705,-1.1678,-0.1816712,-0.3999531,-0.6671543,0.4182279,-0.6277537,4.028092,-50.61136,1.442897,1008.121
15.287133694,0.6780235,-0.2411521,0.2120409,-0.6637188,0.4172719,-0.6214876,4.028092,-50.61136,1.442897,1008.119
15.319693089,-0.3679432,-0.300633,0.3956391,-0.6681899,0.425462,-0.6184581,3.596493,-50.24805,1.887744,1008.117
15.352256775,-2.275294,-0.2411521,-0.6447507,-0.6603267,0.420676,-0.6122549,4.01836,-49.88116,1.883746,1008.117
15.387325287,0.06274899,-0.6575187,-0.09395607,-0.6559439,0.4197811,-0.6166231,4.01836,-49.88116,1.883746,1008.117
15.419888973,0.4934412,-0.4790759,-0.09395607,-0.6579118,0.4216949,-0.6156252,3.230022,-50.2507,1.888933,1008.117
15.452453137,-0.9832177,-0.1221902,-0.2775543,-0.6637341,0.4192023,-0.6185579,4.02078,-50.25013,0.9942131,1008.119
15.487521172,-0.2448883,-0.4790759,-0.1551555,-0.6636511,0.411441,-0.6215767,4.02078,-50.25013,0.9942131,1008.119
15.520081043,0.4934412,-0.300633,-0.3999531,-0.6632898,0.4216646,-0.6243213,4.016729,-49.88374,1.437675,1008.117
15.552644253,-0.737108,-0.2411521,-0.3387537,-0.6608886,0.4250867,-0.6218545,4.028092,-50.61136,1.442897,1008.117
15.585207939,0.1242764,0.5321001,-0.2775543,-0.6598246,0.4187518,-0.615185,4.028092,-50.61136,1.442897,1008.119
15.620276451,-0.4294707,-0.7169997,-0.8283489,-0.6676044,0.4176784,-0.6151938,3.59323,-50.25322,0.9955997,1008.117
15.652840614,-0.3679432,-1.490252,-0.03275668,-0.648639,0.4222531,-0.6049914,3.590811,-49.88424,1.885133,1008.119
15.685404301,-1.536965,0.2346954,-0.5835513,-0.6491066,0.4193577,-0.6108356,3.590811,-49.88424,1.885133,1008.119
15.720468521,-0.1218334,-0.360114,-0.3387537,-0.669497,0.4127961,-0.6157498,3.594862,-50.25064,1.441672,1008.119
15.753032684,0.6164961,-0.7764806,-0.03275668,-0.6540843,0.4271017,-0.6179634,4.028092,-50.61136,1.442897,1008.117
15.785595894,-0.6140531,-0.2411521,-0.1551555,-0.6643603,0.4303895,-0.6222536,4.028092,-50.61136,1.442897,1008.117
15.820664883,-0.5525256,0.2346954,0.08964212,-0.659934,0.4265615,-0.6227998,4.01836,-49.88116,1.883746,1008.122
15.853228092,1.170243,1.007948,0.1508415,-0.6613235,0.419278,-0.6282266,3.594862,-50.25064,1.441672,1008.122
15.885791779,1.354826,1.067429,0.2732403,-0.6628178,0.4240763,-0.6189678,3.594862,-50.25064,1.441672,1008.122
15.920855999,0.9856609,0.7700238,-0.03275668,-0.657364,0.4163585,-0.6161906,4.02241,-50.24755,1.440286,1008.122
15.953420162,0.3088588,0.4726191,0.2732403,-0.6563596,0.4153642,-0.6084727,4.02241,-50.24755,1.440286,1008.122
15.985983849,-0.2448883,0.2941763,0.02844273,-0.6539751,0.4173901,-0.6195617,4.02241,-50.24755,1.440286,1008.12
16.018547535,0.1858039,-0.06270929,-0.09395607,-0.6558806,0.4130069,-0.6230105,4.02078,-50.25013,0.9942131,1008.118
16.053616047,1.047188,0.651062,-0.3387537,-0.6744448,0.4185833,-0.6200072,4.016729,-49.88374,1.437675,1008.118
16.086179256,1.231771,0.591581,-0.1551555,-0.6607903,0.4168218,-0.6210139,4.016729,-49.88374,1.437675,1008.118
16.118739128,1.293298,1.245871,-0.09395607,-0.6599175,0.4260559,-0.618457,3.594862,-50.25064,1.441672,1008.118
16.153807640,1.293298,0.8889857,0.08964212,-0.6564397,0.4207421,-0.6156412,4.396194,-50.60613,1.887779,1008.118
16.186371326,1.539408,1.007948,0.08964212,-0.6583492,0.4173176,-0.616175,4.396194,-50.60613,1.887779,1008.118
16.218935013,0.5549686,0.8889857,0.1508415,-0.6578397,0.4153803,-0.616205,4.02078,-50.25013,0.9942131,1008.118
16.254003525,0.739551,0.2346954,-0.2163549,-0.6573712,0.4149447,-0.6258797,3.583499,-49.52301,1.43645,1008.118
16.286567688,1.231771,0.591581,-0.3387537,-0.657904,0.4193027,-0.6238792,3.602174,-50.61186,1.890355,1008.12
16.319127083,0.739551,0.651062,-0.09395607,-0.6613755,0.4250804,-0.6218542,3.602174,-50.61186,1.890355,1008.12
16.354195595,0.5549686,0.7700238,-0.2163549,-0.6584259,0.4207871,-0.6311067,3.58918,-49.88683,1.439061,1008.118
16.386758804,0.739551,0.2941763,0.08964212,-0.6545747,0.4256749,-0.626202,4.01836,-49.88116,1.883746,1008.118
16.419322491,0.001221534,0.3536573,0.4568385,-0.6568823,0.4158987,-0.6205484,4.01836,-49.88116,1.883746,1008.118
16.451886654,-0.4909981,0.1752145,0.3956391,-0.6582558,0.4104885,-0.6104788,4.01836,-49.88116,1.883746,1008.118
16.486955166,-0.1833608,0.1157335,-0.1551555,-0.6524202,0.4101029,-0.6158074,4.390512,-50.24232,1.885168,1008.118
16.519514561,-0.1833608,-0.5385568,-0.2163549,-0.6545135,0.4208071,-0.6243429,4.390512,-50.24232,1.885168,1008.118
16.552078724,-0.1833608,0.1752145,-0.1551555,-0.6544659,0.4154885,-0.6302246,4.016729,-49.88374,1.437675,1008.118
16.587147236,0.6164961,0.591581,0.02844273,-0.6657121,0.4192319,-0.63064,4.396194,-50.60613,1.887779,1008.118
16.619709968,0.8010784,0.2941763,-0.1551555,-0.6550443,0.4232588,-0.6305888,4.396194,-50.60613,1.887779,1008.118
16.652274132,0.4934412,1.007948,-0.2163549,-0.6481245,0.4160261,-0.6234552,4.01836,-49.88116,1.883746,1008.118
16.687342644,0.3088588,1.007948,-0.09395607,-0.6621332,0.4061238,-0.6235928,4.024042,-50.24497,1.886357,1008.118
16.719902515,1.047188,0.1157335,-0.2163549,-0.6607569,0.4134315,-0.6234826,4.024042,-50.24497,1.886357,1008.118
16.752466202,0.9241334,0.05625259,0.02844273,-0.6486219,0.4179414,-0.6185917,4.3832,-49.88109,1.436485,1008.122
16.787534714,-0.1833608,0.1752145,-0.03275668,-0.6559768,0.4207924,-0.6253084,3.590811,-49.88424,1.885133,1008.121
16.820098400,-0.3064157,-0.4790759,0.1508415,-0.6578206,0.4120163,-0.6244738,3.590811,-49.88424,1.885133,1008.121
16.852662086,-0.6140531,-0.1221902,0.2732403,-0.6554153,0.4130528,-0.631711,3.602174,-50.61186,1.890355,1008.119
16.885225296,-0.2448883,-0.06270929,0.08964212,-0.6569381,0.4183787,-0.6316283,4.011048,-49.51993,1.435063,1008.119
16.920290470,0.1242764,0.1157335,0.2120409,-0.6564006,0.4168658,-0.6181173,4.011048,-49.51993,1.435063,1008.119
16.952853680,0.1858039,0.2346954,0.08964212,-0.6451923,0.4155695,-0.6215315,3.58918,-49.88683,1.439061,1008.119
16.985417366,-0.4294707,0.4726191,-0.1551555,-0.6563941,0.4159028,-0.6200655,3.22271,-49.88947,1.44025,1008.119
17.020485878,0.9241334,-0.06270929,-0.3999531,-0.6486343,0.4174885,-0.6258493,3.22271,-49.88947,1.44025,1008.119
17.053049564,2.093155,-0.1221902,-0.5223519,-0.6462922,0.4238722,-0.6334882,4.016729,-49.88374,1.437675,1008.119
17.085613728,1.108716,1.424314,0.1508415,-0.6628708,0.4256,-0.6334458,4.01836,-49.88116,1.883746,1008.119
17.120677948,-0.3679432,-0.360114,0.8852342,-0.6665953,0.4119196,-0.6283338,4.01836,-49.88116,1.883746,1008.119
17.153241634,-1.844602,-0.8359615,-0.09395607,-0.6664879,0.4045891,-0.6192616,4.019991,-49.87857,2.329818,1008.121
17.185804844,-0.9216903,-1.490252,0.02844273,-0.6340107,0.4157486,-0.6287903,3.592442,-49.88166,2.331204,1008.123
17.220874310,1.293298,0.651062,-0.2163549,-0.6496462,0.4213499,-0.6228892,3.592442,-49.88166,2.331204,1008.123
17.253437042,0.1242764,0.4131382,-0.09395607,-0.6759375,0.4195735,-0.628208,4.01836,-49.88116,1.883746,1008.123
17.286001206,0.6780235,-0.4195949,-0.03275668,-0.6602963,0.4120593,-0.6409056,3.577818,-49.1592,1.433839,1008.123
17.318561077,0.739551,0.591581,-0.03275668,-0.6456764,0.4131798,-0.6317185,3.577818,-49.1592,1.433839,1008.123
17.353629112,0.4934412,0.9484667,-0.03275668,-0.6485582,0.4102153,-0.6293439,4.019991,-49.87857,2.329818,1008.123
17.386193276,1.047188,0.7700238,-0.1551555,-0.6548681,0.4100953,-0.6211223,4.01431,-49.51476,2.327207,1008.123
17.418832779,0.6780235,-0.1221902,-0.03275668,-0.6573704,0.4158945,-0.6210314,4.01431,-49.51476,2.327207,1008.123
17.453901291,-0.6140531,-0.6575187,0.2732403,-0.6452639,0.4209321,-0.6253166,3.592442,-49.88166,2.331204,1008.123
17.486465454,0.06274899,-0.1816712,-0.03275668,-0.6549658,0.4159812,-0.6331168,3.594862,-50.25064,1.441672,1008.125
17.519024372,0.5549686,0.05625259,0.3344397,-0.6612248,0.4100611,-0.6317511,3.594862,-50.25064,1.441672,1008.125
17.554092884,-0.737108,-0.8954425,0.9464337,-0.6661546,0.4143884,-0.6355472,3.230022,-50.2507,1.888933,1008.125
17.586656570,-0.9216903,-1.133366,0.4568385,-0.6447255,0.4160882,-0.6273246,4.01836,-49.88116,1.883746,1008.123
17.619220257,0.3088588,-0.1816712,0.8240349,-0.6496448,0.4184938,-0.6359839,4.01836,-49.88116,1.883746,1008.123
17.654288769,0.6164961,1.126909,0.7016361,-0.6701347,0.4216262,-0.635433,3.598124,-50.24547,2.333816,1008.123
17.686852932,0.9241334,0.1157335,0.6404366,-0.6803302,0.4157301,-0.6504978,4.386462,-49.87593,2.328629,1008.127
17.719412327,1.9701,0.1752145,1.068832,-0.6554921,0.4165223,-0.6466427,4.386462,-49.87593,2.328629,1008.127
17.751975536,3.938979,2.732895,1.068832,-0.6545025,0.4165064,-0.6403599,3.225972,-49.88431,2.332394,1008.127
17.787045002,5.046473,1.602757,1.619627,-0.6799918,0.4274225,-0.6556368,4.019991,-49.87857,2.329818,1008.129
17.819607735,3.692869,1.067429,2.598818,-0.636295,0.4410696,-0.6458033,4.019991,-49.87857,2.329818,1008.127
17.852171898,2.21621,5.231094,2.598818,-0.6166694,0.4286877,-0.6455277,4.01431,-49.51476,2.327207,1008.127
17.887240410,7.138406,6.599156,4.251201,-0.6769493,0.4158251,-0.6616173,3.598124,-50.24547,2.333816,1008.127
17.919800282,10.21478,4.33888,6.393179,-0.6672813,0.4236915,-0.6537725,3.227603,-49.88173,2.778466,1008.127
17.952363968,7.938263,4.636285,6.209581,-0.6350502,0.4210874,-0.6301579,3.227603,-49.88173,2.778466,1008.125
17.987432480,3.938979,4.695766,5.475189,-0.6553574,0.4100934,-0.6220887,2.858713,-49.5154,3.669187,1008.125
18.019996166,4.123561,2.138085,5.842385,-0.6481379,0.3766304,-0.6172889,3.590023,-49.51268,3.220737,1008.125
18.052559376,6.58466,0.7700238,5.230391,-0.6285213,0.3666429,-0.6092429,3.590023,-49.51268,3.220737,1008.125
18.087628365,4.492726,-0.9549234,2.904814,-0.6082062,0.3800006,-0.6027747,3.220186,-49.08572,4.111025,1008.125
18.120187759,1.785518,-1.847137,0.7016361,-0.6012815,0.3713321,-0.6004968,2.121721,-49.15429,4.115026,1008.124
18.152751446,-1.1678,-3.810009,-0.7059501,-0.6260262,0.360857,-0.6122338,2.121721,-49.15429,4.115026,1008.124
18.185315132,-2.152239,-5.475475,-1.623941,-0.6359284,0.3719674,-0.6255893,2.863839,-49.50727,5.071127,1008.122
18.220383644,-1.106273,-6.308208,-3.337524,-0.6468384,0.3874075,-0.6321105,2.849898,-48.7216,4.619398,1008.122
18.252947331,0.3088588,-6.42717,-3.398723,-0.641597,0.3943461,-0.646511,2.849898,-48.7216,4.619398,1008.122
18.285511494,4.984945,-5.653918,-2.786729,-0.6363888,0.4051499,-0.6560187,2.853716,-49.08836,4.112213,1008.122
18.320575714,5.108,-5.237551,-3.031527,-0.6263971,0.4290159,-0.6387461,3.216924,-49.09089,3.21888,1008.12
18.353139401,-0.5525256,-3.92897,-2.970328,-0.6311796,0.4230863,-0.6310979,3.216924,-49.09089,3.21888,1008.118
18.385702610,-2.090712,-4.464299,-2.358334,-0.6498654,0.3927936,-0.6494269,3.214505,-48.7219,4.108414,1008.117
18.420771122,-0.5525256,-5.475475,-1.68514,-0.6391847,0.3996503,-0.6304809,3.211243,-48.72707,3.216269,1008.117
18.453334808,-1.66002,-4.285856,-2.72553,-0.6467922,0.386372,-0.6181084,3.211243,-48.72707,3.216269,1008.115
18.485898972,0.9241334,-5.83236,-2.603131,-0.6797469,0.3704329,-0.6275039,3.579345,-48.72184,3.661152,1008.113
18.518458843,3.815924,-7.200422,-3.459923,-0.6685599,0.3758338,-0.6076139,3.21624,-49.1541,2.773244,1008.115
18.553526878,2.031628,-7.200422,-4.071917,-0.6569836,0.3857,-0.6065078,3.21624,-49.1541,2.773244,1008.115
18.586091041,1.170243,-8.211597,-3.643521,-0.6872421,0.3892353,-0.6156088,3.203931,-48.36585,2.767586,1008.115
18.618654728,-5.04403,-9.877064,-3.582322,-0.6889341,0.4105656,-0.6085145,4.003632,-48.72392,2.767622,1008.119
18.653723240,-6.089997,-9.996025,-3.76592,-0.6576426,0.3964716,-0.6256778,4.003632,-48.72392,2.767622,1008.119
18.686286449,-4.79792,-7.73575,-3.398723,-0.649388,0.3990003,-0.6237137,4.002001,-48.72651,2.321549,1008.119
18.718846321,-3.567371,-6.962498,-3.76592,-0.6794079,0.385929,-0.6142166,4.006998,-49.15353,1.878524,1008.119
18.753914833,-4.55181,-6.605613,-3.337524,-0.6849588,0.4019095,-0.6173511,4.006998,-49.15353,1.878524,1008.119
18.786478519,-3.875008,-5.891841,-3.459923,-0.6658648,0.3938836,-0.6145917,4.008629,-49.15095,2.324595,1008.119
18.819042206,-5.29014,-4.285856,-4.745111,-0.6822783,0.3867484,-0.5890658,4.73168,-48.72638,1.427029,1008.119
18.854110718,-8.366513,-6.724575,-4.80631,-0.703835,0.3596542,-0.57109,4.73168,-48.72638,1.427029,1008.119
18.886674404,-14.15009,-9.996025,-6.152697,-0.6438058,0.3544813,-0.5441577,4.36926,-49.09542,0.9847555,1008.119
18.919348240,-15.56523,-7.557308,-7.376685,-0.6577793,0.3492709,-0.5074871,5.454047,-48.36502,0.08382416,1008.119
18.951911449,-17.71869,-12.31578,-6.091497,-0.7571589,0.3485296,-0.5223872,5.454047,-48.36502,0.08382416,1008.119
18.986979961,-25.10198,-16.0036,-6.887089,-0.6887923,0.379923,-0.4968387,4.737465,-49.52497,-0.3516026,1008.123
19.019543648,-18.88771,-15.76568,-9.763461,-0.735608,0.3803907,-0.5199884,5.110172,-50.25806,-1.74951,1008.125
19.052107334,-16.42661,-24.09301,-6.030298,-0.7793477,0.4186082,-0.4995447,5.110172,-50.25806,-1.74951,1008.123
19.087175846,-28.48599,-25.81796,-8.906669,-0.7416797,0.4505908,-0.4778246,5.480693,-50.6218,-2.194159,1008.123
19.119735718,-32.60833,-24.98522,-9.763461,-0.7817639,0.4161645,-0.5034466,6.199799,-50.26562,-4.429507,1008.123
19.152299404,-26.39406,-31.34968,-9.579863,-0.8023593,0.427575,-0.5066364,6.199799,-50.26562,-4.429507,1008.123
19.187367916,-20.73353,-26.05588,-12.51743,-0.6936378,0.3888522,-0.4440097,6.574369,-50.99576,-5.317618,1008.123
19.219932079,-11.689,-28.1972,-14.16982,-0.8687261,0.3752409,-0.4111787,7.306235,-51.36497,-7.165396,1008.123
19.252495289,-22.27172,-31.88501,-19.06577,-0.8636631,0.4152669,-0.5406014,7.306235,-51.36497,-7.165396,1008.123
19.287564278,-0.8601629,20.51769,20.65264,-1.01121,1.47045,-1.288096,7.307023,-51.73653,-8.501001,1008.125
19.320123196,16.85975,-23.31976,-13.49662,-0.573265,-0.04332545,-0.07755244,8.044015,-52.09763,-8.946839,1008.125
19.352687359,10.33783,-12.01838,-13.25183,-0.9698943,0.1395642,-0.2836815,8.044015,-52.09763,-8.946839,1008.13
19.385251045,16.12142,-30.69539,-11.66064,-1.034474,0.3178312,-0.5515906,8.412116,-52.09241,-8.501956,1008.13
19.420319557,24.91984,-35.45387,-25.55291,-0.8603851,0.2626248,-0.5240816,8.776957,-52.09234,-8.949217,1008.13
19.452883244,46.5775,-26.2938,-34.91641,-0.8740186,0.259116,-0.53959,9.134483,-51.73105,-9.84516,1008.13
19.485446930,51.68428,-20.52415,-31.55045,-0.8428047,0.2732247,-0.4538472,9.134483,-51.73105,-9.84516,1008.13
19.520511627,37.65602,-14.4571,-30.81605,-0.8732762,0.2230402,-0.4072125,9.47986,-50.27058,-9.410722,1008.131
19.553075313,32.05703,-20.34571,-28.61287,-0.9388915,0.180637,-0.3555914,9.089718,-48.75734,-9.420412,1008.131
19.620707512,-8.489568,-33.84788,-42.56634,-0.9882893,0.06313698,-0.2031391,10.18913,-48.7494,-9.423979,1008.131
19.653270721,-28.17835,-37.89258,-54.01062,-0.9399152,-0.009727526,-0.2859882,10.17287,-48.02953,-10.76742,1008.131
19.685834408,-27.56308,-35.15646,-59.15137,-0.8612421,-0.04154925,-0.3300534,10.17287,-48.02953,-10.76742,1008.131
19.720899105,-24.67129,-27.5429,-55.41821,-0.8436182,-0.0006451794,-0.2970602,10.88793,-47.30695,-12.5593,1008.13
19.753462791,-22.64088,-17.37166,-57.13179,-0.8267112,0.00267932,-0.3381128,11.24219,-46.95082,-14.34739,1008.13
19.786026478,-21.22575,-5.83236,-54.50022,-0.9636526,0.004900984,-0.3640491,11.24219,-46.95082,-14.34739,1008.13
19.818590641,-33.96194,-7.319384,-58.17218,-1.037653,0.2356732,-0.4498816,11.60214,-46.95851,-16.13287,1008.13
19.853659153,-59.37278,0.8295048,-48.93107,-0.937134,0.2560458,-0.4733533,11.9578,-46.60017,-17.53861,1008.125
19.886222839,-42.14509,3.08978,-40.60796,-0.9930726,0.1269572,-0.4622176,11.9578,-46.60017,-17.53861,1008.13
19.918781757,-19.50298,9.930089,-39.87356,-0.9548374,0.05575858,-0.3009261,11.95454,-46.60534,-18.43075,1008.13
19.953851223,-22.88699,-0.6575187,-31.06085,-0.9689673,0.1520838,-0.04325316,12.68422,-46.60521,-19.32527,1008.13
20.018978119,-36.42303,-14.27865,-20.96295,-0.8596247,0.1710916,0.150282,13.77632,-46.23604,-19.77752,1008.13
20.054046631,-49.3438,-22.2491,-7.682682,-0.8563648,0.3528695,0.1578859,13.40901,-46.61283,-21.55801,1008.128
20.086610317,-98.50423,-26.59121,2.782416,-0.8167267,0.4954881,0.1174863,13.40901,-46.61283,-21.55801,1008.128
20.119170189,-130.437,-16.71737,12.63552,-0.9676691,0.3342819,-0.2391426,13.77198,-46.61572,-22.51507,1008.128
20.154238701,-58.81903,44.78592,-18.33138,-1.450473,0.1233878,-1.515592,14.20516,-47.72215,-25.63113,1008.126
20.186802387,73.465,-46.33888,7.617167,-0.5961044,-0.1956837,0.01488703,14.20516,-47.72215,-25.63113,1008.132
20.219366074,25.28901,21.05302,-26.2873,-1.083827,0.05926995,-0.05519259,13.04304,-47.73311,-26.07343,1008.13
20.251929283,32.48772,-0.06270929,-7.315485,-1.058913,0.06842979,-0.1802715,13.78003,-48.09421,-26.51927,1008.13
20.286997795,22.95096,4.99317,-9.457463,-0.8990273,-0.04948191,-0.08506598,13.78003,-48.09421,-26.51927,1008.13
20.319557667,19.62848,7.967218,-5.051107,-0.9933062,-0.09861902,-0.2365382,13.02762,-46.63909,-25.63519,1008.13
20.352121353,1.354826,3.922513,0.3344397,-0.9231532,-0.02177804,-0.2600858,14.17838,-45.90051,-25.19811,1008.13
20.387189865,-6.336107,1.067429,0.8240349,-0.9767348,-0.02054167,-0.2580817,14.17838,-45.90051,-25.19811,1008.13
20.419753552,0.8626059,2.138085,-2.297134,-0.9757368,0.02312789,-0.2395315,13.7411,-45.17339,-24.75587,1008.13
20.452317715,-0.5525256,0.2346954,-4.255516,-0.9335721,-0.008717113,-0.2763113,14.53917,-45.53405,-25.20191,1008.132
20.487385750,-2.644459,0.2346954,-2.052337,-0.9630393,-0.06607865,-0.2515391,14.53917,-45.53405,-25.20191,1008.132
20.519945622,-1.783075,1.067429,-1.868739,-0.9616994,-0.0169061,-0.2662582,14.17107,-45.53928,-25.64679,1008.134
20.552509785,4.923418,1.543276,-1.68514,-0.9708281,-0.05714796,-0.207408,14.16539,-45.17547,-25.6494,1008.134
20.587577820,8.861175,2.376009,1.803225,-0.9627322,-0.0529022,-0.2624559,14.16539,-45.17547,-25.6494,1008.132
20.620141029,6.461605,-0.5385568,1.068832,-0.9619042,-0.003214933,-0.2849008,13.37868,-45.54243,-25.19814,1008.132
20.652705192,-0.3064157,-5.77288,-0.9507477,-0.9642691,-0.003374146,-0.2568651,13.7411,-45.17339,-24.75587,1008.132
20.685268879,-10.27386,-11.54253,-3.582322,-1.000303,-0.01288071,-0.2999959,13.7411,-45.17339,-24.75587,1008.132
20.720333099,-8.551096,-21.53533,-1.929938,-1.015305,-0.09636972,-0.2596847,13.73621,-45.18114,-26.09409,1008.132
20.752897263,-5.905415,-34.38321,-3.031527,-1.004209,0.0265082,-0.315826,14.16539,-45.17547,-25.6494,1008.132
20.785460949,-28.48599,-53.77399,-14.23102,-0.9523383,0.1135864,-0.3981718,14.16539,-45.17547,-25.6494,1008.134
20.820529461,-34.70026,-69.29852,-27.02169,-1.0447,-0.02329123,-0.3818025,13.72564,-44.82508,-27.43492,1008.132
20.853093147,-52.85086,-91.48492,-35.8956,-0.6186258,-0.5055745,-0.5147662,14.13912,-44.47147,-29.733,1008.132
20.885656834,9.168812,-92.91245,-39.75116,-1.522161,0.05692877,-0.4734096,14.13912,-44.47147,-29.733,1008.132
20.920721531,57.65245,-119.0841,-54.62262,-1.276885,0.02810545,-0.4856871,14.13259,-44.4818,-31.51728,1008.13
20.953284740,47.25431,-120.6306,-55.78541,-0.907586,-0.1682896,-0.1675942,15.59172,-44.48191,-33.37005,1008.13
20.985848427,38.45588,-87.55917,-53.58223,-0.739935,-0.3516315,-0.1961721,15.59172,-44.48191,-33.37005,1008.13
21.020916939,76.11069,-62.57718,-35.8344,-0.5937539,-0.2981192,-0.1094557,16.31082,-44.12572,-35.6054,1008.128
21.053480625,97.27613,-67.03825,-14.59821,-0.6350977,-0.1846522,0.2543645,16.68618,-45.22742,-37.82912,1008.128
21.086044312,70.81933,-51.09735,-11.47704,-0.6923699,-0.02943373,0.4767243,17.43104,-46.32168,-39.2256,1008.13
21.118604183,52.42262,-55.08258,-0.7059501,-0.6328723,0.06481614,0.7603968,17.43104,-46.32168,-39.2256,1008.13
21.186236382,-26.02489,-108.4965,-8.539473,-0.6023157,0.3092038,1.076841,18.16882,-47.05434,-41.00704,1008.134
21.218800545,-62.38762,-122.8908,-11.29345,-0.6290748,0.2304479,1.111435,18.16882,-47.05434,-41.00704,1008.134
21.253869057,-99.91936,-104.5707,-12.94583,-0.8936875,0.1218385,0.7262321,17.42423,-47.07808,-44.1909,1008.133
21.286432743,-48.79005,-115.3368,-49.84906,-1.44415,-0.4640481,0.2721514,17.03498,-46.37119,-47.31743,1008.133
21.318991661,-32.23917,-147.9323,-52.90903,-1.631708,-0.4136014,0.2905037,17.03498,-46.37119,-47.31743,1008.131
21.354060173,-7.135963,-187.2492,-49.97146,-0.6678894,-0.1727725,0.6446625,15.53961,-44.93723,-49.17113,1008.131
21.386624336,-18.21091,-172.2005,-22.92133,-0.1187715,0.07743372,0.7422082,14.03391,-43.14685,-52.30194,1008.129
21.419188023,-94.81258,-153.1666,-5.357105,-0.5801005,-0.02788376,0.9885358,14.03391,-43.14685,-52.30194,1008.129
21.454256535,-135.0515,-159.1742,-30.08166,-0.992979,-0.3716628,0.5921542,12.4696,-40.98018,-53.2048,1008.129
21.486820221,-125.1456,-151.4417,-36.2016,-0.7849967,-0.3562699,0.4761778,10.57622,-37.29984,-54.11754,1008.127
21.519380093,-138.1894,-137.999,-58.72298,-0.8877484,-0.2588927,0.1456827,10.57622,-37.29984,-54.11754,1008.125
21.551943779,-112.7786,-107.3068,-76.22601,-0.7275836,0.0305707,-0.09706131,7.919241,-31.12583,-52.8154,1008.122
21.587012291,-79.98447,-141.6273,-99.11459,-0.5088939,-0.4119645,0.7945737,5.615632,-23.78936,-50.18449,1008.126
21.619575977,-195.2869,-132.6457,-109.7633,0.09000102,-0.412686,0.5344113,5.615632,-23.78936,-50.18449,1008.126
21.652139187,-243.8936,-136.3335,-83.99833,1.162029,-0.9583209,0.3669879,2.545853,-17.90575,-46.13862,1008.124
21.687208176,-228.2041,-86.25059,-78.55158,1.305328,-1.798072,-0.1989451,-0.8697157,-8.795193,-39.4384,1008.126
21.719767570,-157.4475,7.49137,-99.05338,0.6085119,-1.773502,-0.4371692,-0.8697157,-8.795193,-39.4384,1008.126
21.752331257,-132.0367,19.32808,-109.3961,-0.1618194,-1.930514,0.6661784,-4.30788,2.205758,-30.90365,1008.121
21.819963455,-188.8881,-28.25668,-70.22847,-0.1374077,-1.060158,0.6513974,-5.866111,9.19441,-26.4245,1008.112
21.852527618,-205.9312,50.97194,-55.41821,3.459289,-0.8550804,-0.1426501,-7.003477,12.91658,-21.03089,1008.114
21.887596130,-176.6441,33.42506,-30.75485,0.1121978,-0.3153874,-0.4845342,-8.941174,17.6793,-12.96567,1008.109
21.920155525,-17.84174,44.19111,-19.31057,0.4275694,0.1293719,-0.4476005,-8.941174,17.6793,-12.96567,1008.107
21.952719688,45.65459,-25.93692,78.60847,-0.464548,0.1487745,-0.1133968,-11.25012,26.87136,-4.039091,1008.107
21.985282898,-33.83888,-54.72569,28.30256,-0.1616609,0.4277562,0.004160686,-10.89586,27.22748,-5.827178,1008.102
22.020351887,-149.449,-57.58078,52.41513,0.04917261,0.7406608,-0.1188805,-10.89586,27.22748,-5.827178,1008.102
22.052915096,-114.7475,-62.16081,109.9426,0.4984443,0.3346254,0.03883936,-11.24444,26.50755,-4.03648,1008.106
22.085478783,-120.285,-53.77399,155.0465,0.07554771,-0.186261,0.08157189,-10.53878,29.4521,0.9107704,1008.108
22.120543003,-124.0997,3.863033,119.7345,0.8068421,-3.346202,-0.3081238,-10.53878,29.4521,0.9107704,1008.108
22.153107166,33.41063,16.05662,27.62937,0.1910783,-3.388263,-1.578969,-9.101013,32.02782,4.073965,1008.111
22.185670853,-82.87626,21.94524,-52.17464,0.5529095,-2.335679,-1.157706,-7.573153,33.1587,8.96797,1008.116
22.220739365,37.28686,-2.382466,-45.6875,0.2166692,-0.5896152,-0.6928037,-7.573153,33.1587,8.96797,1008.115
22.253303051,121.641,8.383585,-50.15506,0.114545,-0.1849892,-0.2974138,-7.924767,32.43396,9.930248,1008.111
22.285866737,173.2625,3.387185,-15.39381,0.1941006,-0.09456541,-0.3947199,-9.115687,33.93076,8.075121,1008.111
22.320931435,98.9989,9.216318,14.2267,0.2120137,-0.2978454,-0.2102883,-9.115687,33.93076,8.075121,1008.109
22.353495121,37.34838,32.3544,17.40907,0.2708392,-1.090597,-0.242258,-9.479921,32.37828,2.22453,1008.109
22.386058331,41.77836,20.51769,14.5939,0.1701694,-1.444605,-0.2755976,-8.729991,30.54644,-0.8872957,1008.109
22.418622017,25.90428,10.46542,-6.764691,0.1064525,-1.247517,-0.2995984,-8.729991,30.54644,-0.8872957,1008.109
22.453690529,29.28829,6.123308,-7.927479,0.3173286,-0.852465,-0.2125675,-8.718073,29.44689,-2.281403,1008.109
22.486254692,27.68858,22.83745,-8.111077,0.196199,-0.835771,-0.2760016,-8.70024,27.9839,-3.609174,1008.109
22.518814087,44.42405,19.92289,-7.86628,0.1075002,-0.9156303,-0.2829349,-8.70024,27.9839,-3.609174,1008.109
22.553882599,67.98907,6.004346,1.252431,0.2778713,-0.9137194,-0.1090546,-7.909483,27.98447,-4.503893,1008.109
22.586446762,39.87101,16.05662,-1.562742,0.2316326,-1.034049,-0.07265896,-8.692984,26.87697,-6.277771,1008.114
22.619010448,29.65746,14.86701,-7.499084,0.2330618,-1.094795,-0.176063,-8.692984,26.87697,-6.277771,1008.114
22.654078960,33.65674,13.55843,8.963554,0.4329911,-0.9231355,-0.05230948,-7.881365,25.41934,-7.671843,1008.112
22.686642647,14.76781,29.32087,4.801995,0.3330983,-0.9024326,0.02447633,-8.298394,24.31449,-9.446911,1008.112
22.719202518,-17.28799,49.36596,-12.45623,0.2095456,-1.005479,-0.006462519,-7.868425,23.9486,-10.33783,1008.11
22.754271030,-3.690426,14.98597,-12.70103,-0.03208877,-0.9006302,-0.1351414,-7.868425,23.9486,-10.33783,1008.109
22.786834717,35.50256,-10.05551,1.252431,0.264634,-0.880014,-0.1839343,-7.857062,23.22098,-10.33261,1008.109
22.819397926,31.25717,4.576804,4.924394,0.3585951,-0.9794168,-0.07291477,-7.879,24.30466,-11.67866,1008.107
22.851961613,49.83846,3.387185,-3.031527,0.1579968,-1.136006,-0.199338,-7.879,24.30466,-11.67866,1008.107
22.887030125,70.081,12.36881,-3.153926,0.3841302,-1.009861,0.06774215,-7.504429,23.57452,-12.56677,1008.109
22.919597149,47.80806,19.80392,-2.786729,0.2342306,-0.8856152,0.1036188,-7.849701,21.67927,-14.78245,1008.107
22.952160358,29.41135,6.420713,3.700407,0.2799638,-0.9238909,0.1015405,-7.849701,21.67927,-14.78245,1008.107
22.987228870,21.28972,7.967218,8.963554,0.3364954,-0.9664637,0.1134043,-7.46298,19.84995,-17.00094,1008.107
23.019792557,16.55211,10.04905,2.415219,0.218937,-0.9951497,0.09954553,-7.071597,18.02801,-17.94494,1008.107
23.052356720,16.24447,7.015522,-2.174736,0.1982018,-0.9701667,0.1038137,-7.071597,18.02801,-17.94494,1008.107
23.087425232,12.36824,8.918913,-3.398723,0.2860306,-0.9698262,0.1733404,-6.710019,18.02291,-19.28435,1008.107
23.119984627,8.861175,13.20154,-7.315485,0.2284276,-0.9180513,0.1654851,-6.700288,17.2927,-19.7252,1008.107
23.152548790,1.170243,0.5321001,-8.172276,0.1782645,-0.921069,0.1509862,-6.700288,17.2927,-19.7252,1008.113
23.187617302,1.72399,1.126909,-9.947059,0.3185351,-1.01193,0.120462,-7.061078,16.92624,-19.7214,1008.107
23.220180988,9.045757,3.565628,-15.02661,0.281792,-0.95736,0.09232737,-6.688926,16.56508,-19.71997,1008.109
23.252744675,16.18294,1.840681,-15.761,0.2707177,-0.9724792,0.07228895,-6.688926,16.56508,-19.71997,1008.111
23.285307884,9.907142,4.814728,-13.06823,0.3435962,-0.9916245,0.1091465,-7.062709,16.92366,-20.16747,1008.111
23.320373058,9.353395,23.72967,-22.00334,0.3011557,-0.9383489,0.1351359,-7.049715,16.19862,-19.71618,1008.111
23.352936268,3.200649,13.0231,-12.70103,0.2615614,-0.9765793,0.09253705,-7.049715,16.19862,-19.71618,1008.109
23.385499954,25.78123,8.443066,-9.763461,0.2449471,-0.9320369,0.08259836,-6.675144,15.46848,-20.60428,1008.107
23.420568466,67.6199,0.5321001,-2.480732,0.2846699,-0.9320346,0.1951869,-7.405666,15.09421,-21.49144,1008.109
23.453132153,65.8356,3.387185,-0.5835513,0.2605191,-0.8239622,0.1939587,-7.405666,15.09421,-21.49144,1008.109
23.485695839,61.28257,6.658637,0.8240349,0.3293298,-0.8822639,0.1731844,-7.017547,13.2671,-23.32759,1008.107
23.520760536,66.75851,11.774,5.536388,0.2780575,-0.9173333,0.1499801,-7.000399,11.74089,-25.10099,1008.109
23.553324222,76.47985,15.69974,0.6404366,0.3004448,-1.023866,0.2343743,-7.000399,11.74089,-25.10099,1008.109
23.585887909,92.66158,17.36521,0.7016361,0.3313485,-1.014842,0.3683775,-6.963103,8.817492,-27.31046,1008.109
23.620956421,97.76836,12.13088,3.210811,0.3147414,-0.855801,0.5085823,-6.192312,5.527456,-30.92164,1008.109
23.653520584,85.95508,10.8223,2.966014,0.3020075,-0.7095102,0.5784993,-6.192312,5.527456,-30.92164,1008.109
23.686084270,77.83346,6.420713,2.29282,0.2799639,-0.6477821,0.6210326,-6.155017,2.604055,-33.13111,1008.113
23.718643188,57.34481,7.193965,4.863195,0.280858,-0.5982158,0.6251717,-5.378386,-0.7388663,-35.40364,1008.112
23.753712654,42.33211,8.740471,5.35279,0.2861734,-0.6840459,0.5977547,-5.378386,-0.7388663,-35.40364,1008.112
23.786275864,37.22533,9.156837,8.045564,0.2997948,-0.722789,0.6063346,-5.33783,-3.657102,-36.72097,1008.112
23.818839550,34.88729,9.037875,3.210811,0.2217711,-0.7876959,0.6547242,-5.675104,-5.850362,-38.04233,1008.112
23.853908062,39.31726,4.457842,2.966014,0.2772488,-0.7888123,0.6319349,-5.675104,-5.850362,-38.04233,1008.11
23.886471748,42.20906,7.075003,4.557198,0.3424206,-0.6904283,0.6657592,-4.917252,-7.669657,-38.98752,1008.11
23.919031620,32.11855,10.40594,3.516809,0.2400189,-0.6268721,0.7170989,-5.641147,-8.468373,-39.87162,1008.11
23.954100132,22.82791,5.825903,3.210811,0.1648179,-0.684426,0.7597973,-5.641147,-8.468373,-39.87162,1008.11
23.986663818,20.24376,5.171613,0.5180379,0.2408477,-0.6892641,0.7591667,-4.510909,-10.64846,-40.75167,1008.11
24.019227505,11.56838,-3.453123,-1.501542,0.1810871,-0.6646617,0.7354309,-4.488183,-12.10371,-40.74123,1008.11
24.051791668,5.60022,-8.271078,-3.643521,0.2164862,-0.7014459,0.6966488,-4.488183,-12.10371,-40.74123,1008.11
24.086859703,15.13698,-8.39004,-2.480732,0.3083917,-0.6448985,0.7090238,-4.484134,-12.4701,-41.18468,1008.108
24.119419575,9.045757,-8.449521,-5.969099,0.2223224,-0.6168087,0.6979344,-4.474402,-13.2003,-41.62553,1008.11
24.151982784,6.769242,-10.7098,-5.540703,0.1877785,-0.6576843,0.7166792,-4.474402,-13.2003,-41.62553,1008.11
24.187052250,7.753681,-15.94412,3.578008,0.3596704,-0.6440293,0.7713432,-4.842504,-13.20553,-42.07042,1008.11
24.219614983,5.35411,-14.81398,-0.2775543,0.2820226,-0.58571,0.7631237,-4.831141,-13.93316,-42.06519,1008.11
24.252179146,1.539408,-8.627964,4.190001,0.2719705,-0.569094,0.7145658,-4.831141,-13.93316,-42.06519,1008.108
24.287247658,-1.290855,-6.42717,7.739566,0.307108,-0.622467,0.6890655,-5.200031,-13.56683,-41.17448,1008.11
24.319807053,-2.459877,-1.014404,7.37237,0.2557599,-0.694916,0.6561068,-5.195981,-13.93322,-41.61794,1008.11
24.352371216,1.600935,0.05625259,4.618397,0.2465684,-0.7445552,0.6442407,-5.572183,-13.20566,-41.1759,1008.109
24.387439728,10.27631,1.602757,2.35402,0.3285045,-0.7594201,0.6212161,-5.572183,-13.20566,-41.1759,1008.109
24.420003414,23.56624,9.335279,-0.8895482,0.2920688,-0.6821624,0.6277471,-5.559189,-13.9307,-40.7246,1008.109
24.452567101,27.99622,8.918913,1.619627,0.2974097,-0.5808699,0.7051775,-5.562451,-13.93587,-41.61674,1008.109
24.485130787,16.306,8.680989,1.558428,0.218104,-0.5744159,0.7681915,-5.562451,-13.93587,-41.61674,1008.109
24.520195484,12.7374,4.576804,0.3956391,0.2315401,-0.6308383,0.8161388,-4.447627,-15.02194,-42.05855,1008.11
24.552759170,8.615065,4.874208,3.945204,0.2712363,-0.5662153,0.826754,-5.531626,-16.1239,-42.49323,1008.11
24.585322380,0.1858039,3.446666,2.966014,0.2246146,-0.5884556,0.7747383,-5.531626,-16.1239,-42.49323,1008.11
24.620391369,1.108716,2.911338,4.618397,0.3035744,-0.6099174,0.6979611,-4.426533,-16.47977,-42.49418,1008.11
24.652954578,5.60022,4.755247,6.209581,0.2615957,-0.643991,0.6960317,-4.793003,-16.48241,-42.49299,1008.11
24.685518265,16.05989,7.134484,7.923164,0.2990942,-0.6387529,0.7202442,-4.793003,-16.48241,-42.49299,1008.109
24.720582962,19.87459,13.08258,7.249971,0.2838379,-0.5811619,0.7303218,-4.800315,-16.12119,-42.94167,1008.109
24.753146648,18.7671,15.8187,10.24874,0.2629117,-0.5733724,0.7739646,-4.784903,-17.2152,-43.37991,1008.107
24.785710812,15.26003,13.49895,10.49354,0.1696133,-0.5825571,0.8159684,-4.784903,-17.2152,-43.37991,1008.107
24.820778847,13.78337,15.87818,11.47273,0.2590411,-0.5601517,0.8476434,-4.403253,-18.30694,-43.88306,1008.107
24.853343010,5.784802,16.53247,13.06391,0.3255589,-0.5527452,0.7993546,-4.026103,-19.09513,-44.32467,1008.105
24.885906696,12.18366,24.50292,14.3491,0.3168136,-0.6065841,0.7506872,-4.026103,-19.09513,-44.32467,1008.109
24.918466568,31.9955,33.78195,11.83993,0.249503,-0.6860958,0.728754,-4.014741,-19.82275,-44.31944,1008.108
24.953535080,64.23589,40.20589,7.37237,0.2509367,-0.7140327,0.7839147,-2.901547,-20.91141,-45.20732,1008.108
24.986098766,89.40062,46.39191,-0.09395607,0.2300137,-0.6178961,0.8511408,-2.901547,-20.91141,-45.20732,1008.108
25.018661976,106.5668,49.06855,-11.78304,0.171393,-0.4867379,0.8048608,-2.872353,-23.10202,-46.52987,1008.106
25.053730965,137.0229,50.49609,-19.61656,0.07758176,-0.2887924,0.8263395,-2.102905,-25.64857,-47.40612,1008.106
25.086294174,144.2216,39.07575,-18.20898,-0.02113836,-0.03619849,0.8931275,-2.102905,-25.64857,-47.40612,1008.106
25.118854046,101.1524,29.38035,-10.49785,-0.02865488,0.09763013,1.04599,-0.9132771,-31.52482,-47.81354,1008.106
25.153922558,33.65674,30.51049,-0.4611525,0.02537082,0.1301913,0.987946,-0.4632187,-36.98192,-48.22163,1008.106
25.186486244,7.138406,26.34683,4.863195,0.003602595,-0.02566107,1.103533,-0.4632187,-36.98192,-48.22163,1008.106
25.219049931,-19.56451,16.47299,16.55228,-0.06189504,-0.0958646,1.070623,0.3234317,-40.30898,-47.75401,1008.108
25.254118443,-38.76108,8.502546,21.01983,-0.08664005,-0.1942163,1.038693,-0.3981471,-41.04189,-47.7464,1008.108
25.286682129,-57.52695,8.026699,22.85582,-0.1085018,-0.2592225,0.9502313,-0.3981471,-41.04189,-47.7464,1008.108
25.319242001,-58.44986,1.602757,20.34664,-0.1289407,-0.3279452,0.8283584,0.6972146,-40.66756,-47.30651,1008.108
25.351806164,-42.02203,3.68459,15.32829,-0.1201503,-0.4167056,0.8139446,0.6645997,-38.79303,-48.21214,1008.108
25.386874676,-34.39263,4.814728,13.79831,-0.1700558,-0.4681753,0.8736296,0.6645997,-38.79303,-48.21214,1008.106
25.419438362,-41.40676,1.543276,8.106763,-0.2623152,-0.5316306,0.8829015,0.267303,-36.60765,-47.33448,1008.108
25.452001572,-27.31697,6.480194,-0.7671494,-0.08664647,-0.5775796,0.8037239,0.2445784,-35.1524,-47.34492,1008.11
25.487070561,6.769242,11.00075,0.8240349,0.01343436,-0.5891137,0.847922,0.2445784,-35.1524,-47.34492,1008.11
25.519629479,29.22676,14.92649,-0.6447507,-0.04587756,-0.4632404,0.8924367,0.5923743,-34.06091,-47.80002,1008.11
25.552193642,33.77979,17.36521,0.8240349,-0.02667476,-0.2928572,0.9926597,0.9531635,-33.69445,-47.80382,1008.11
25.587262154,19.75154,18.13846,-0.4611525,-0.1178373,-0.1964653,1.016454,0.9531635,-33.69445,-47.80382,1008.11
25.619825840,7.507571,8.026699,-0.2775543,-0.1516204,-0.2355122,0.9564352,0.2429473,-35.15499,-47.791,1008.11
25.652389526,15.69072,1.959643,0.08964212,-0.05916107,-0.2702869,0.9596825,1.000245,-36.60236,-47.33686,1008.11
25.687458038,2.646902,0.2941763,7.249971,-0.08841847,-0.2221366,0.9749466,1.372396,-36.96352,-47.33543,1008.112
25.720017910,-7.197491,2.376009,8.657557,-0.001618365,-0.2316963,0.9747169,1.372396,-36.96352,-47.33543,1008.112
25.752581596,-7.074436,14.39116,12.94152,-0.04160494,-0.288655,0.8815616,1.374027,-36.96093,-46.88936,1008.112
25.785145283,6.030912,16.05662,15.02229,-0.04205832,-0.3129233,0.9793172,1.374027,-36.96093,-46.88936,1008.113
25.820213795,9.907142,20.04185,21.81543,-0.09158956,-0.2326027,1.022644,0.6410861,-36.96623,-46.88698,1008.113
25.852777958,7.938263,20.16081,19.12265,-0.1647916,-0.2684019,0.990266,1.017288,-37.69379,-47.32902,1008.113
25.885341644,13.35268,17.60313,20.89744,-0.1918972,-0.2952144,0.9309111,1.392702,-38.04979,-46.43545,1008.115
25.920440674,8.368956,20.45821,26.58898,-0.1478701,-0.2755674,0.9050659,1.392702,-38.04979,-46.43545,1008.115
25.953004360,12.30671,24.97877,21.93783,-0.1948691,-0.2662039,0.8491824,1.402434,-38.77999,-46.8763,1008.115
25.985568523,35.56409,27.17956,23.52901,-0.1201408,-0.2751572,0.8944111,1.779583,-39.56818,-47.31791,1008.115
26.020637035,39.44032,25.87098,31.79093,-0.2174477,-0.1829921,0.9747016,1.779583,-39.56818,-47.31791,1008.115
26.053200722,21.10514,24.74084,31.72973,-0.2972667,-0.1959966,0.9339765,2.157416,-40.29316,-47.31388,1008.115
26.085764408,15.26003,18.25742,30.56694,-0.3304895,-0.2337443,0.9102307,2.187453,-42.10963,-46.85474,1008.115
26.120829105,11.19922,9.632685,25.42619,-0.3540225,-0.1729347,0.9368,2.187453,-42.10963,-46.85474,1008.115
26.153392792,12.42977,-0.4790759,27.50697,-0.2811509,-0.2053844,0.907232,2.206916,-43.57003,-47.73645,1008.115
26.185956001,12.12213,-1.430771,28.11897,-0.2687815,-0.1381575,0.9082458,1.85102,-43.92874,-46.39443,1008.12
26.218519688,-0.6140531,3.506147,41.64404,-0.2208296,-0.1256473,0.8600526,1.85102,-43.92874,-46.39443,1008.12
26.253588200,7.99979,7.729294,47.15198,-0.2701041,-0.1085209,0.9067656,1.856701,-44.29255,-46.39182,1008.12
26.286151886,2.46232,14.09375,46.78478,-0.3006294,-0.1567047,0.9408631,1.495912,-44.65901,-46.38802,1008.12
26.318711758,3.508287,18.79275,45.56079,-0.3711272,-0.2172205,0.9008544,1.495912,-44.65901,-46.38802,1008.12
26.353780270,26.76567,25.45461,43.54121,-0.299003,-0.2420115,1.000949,1.13186,-45.03064,-47.27636,1008.121
26.386343956,43.80877,31.75959,42.19483,-0.2822427,-0.20798,1.046406,2.612367,-45.7425,-46.38375,1008.12
26.418907642,53.77622,39.78952,44.8876,-0.3414963,-0.07703715,0.9392178,2.612367,-45.7425,-46.38375,1008.121
26.453976154,57.65245,59.12083,45.0712,-0.4100779,-0.03395301,0.7813937,1.534049,-47.20827,-46.81581,1008.123
26.486540318,79.74081,75.47808,38.33927,-0.4334168,-0.0500159,0.7202657,2.298659,-49.01686,-45.91299,1008.123
26.519099712,81.64816,76.90562,41.21564,-0.5987598,0.1089131,0.7798885,2.298659,-49.01686,-45.91299,1008.123
26.554168224,53.09941,67.74556,30.32214,-0.6033686,0.05658725,0.8370999,2.699375,-50.88616,-44.56247,1008.121
26.586732387,66.2663,58.8829,16.67468,-0.5898834,0.005727012,0.7319014,3.10506,-53.05826,-43.14606,1008.123
26.619296074,89.33909,55.01664,5.536388,-0.5412229,0.1508435,0.8085085,3.10506,-53.05826,-43.14606,1008.125
26.651859283,88.53924,53.23222,-1.440343,-0.5601361,0.3124158,0.813892,2.779201,-55.23344,-41.34491,1008.125
26.686928272,79.98692,57.57432,-3.888319,-0.5220597,0.3378901,0.7721901,3.530028,-55.94543,-39.55778,1008.127
26.719487667,82.69413,60.25097,-2.909128,-0.5699964,0.3547847,0.7671769,3.530028,-55.94543,-39.55778,1008.127
26.752051353,71.61919,54.00547,-3.092726,-0.673095,0.378822,0.7434743,3.572504,-58.11502,-37.24803,1008.128
26.787119865,67.68143,40.08693,-5.785501,-0.6940903,0.3572501,0.6184542,4.000896,-57.73779,-35.46774,1008.128
26.819683552,65.65102,21.94524,2.048023,-0.7727137,0.5400038,0.6044002,4.000896,-57.73779,-35.46774,1008.13
26.852247238,38.45588,-0.8954425,-0.8283489,-0.8586894,0.8149632,0.8116963,4.390934,-58.81624,-33.6768,1008.13
26.887315750,3.815924,14.15324,-10.31425,-0.6416647,0.4370768,0.5292301,4.38959,-58.07275,-30.94187,1008.13
26.919964790,19.19779,11.00075,-14.16982,-0.7348155,0.3729822,0.5694292,4.38959,-58.07275,-30.94187,1008.13
26.952528954,28.1808,2.911338,-16.86259,-0.6893597,0.4791571,0.5439361,4.400953,-58.80037,-30.93665,1008.13
26.987597466,16.306,6.599156,-19.92256,-0.6756729,0.529599,0.6055979,4.756061,-58.0701,-30.94306,1008.128
27.020161152,-7.935821,7.015522,-23.10493,-0.7157271,0.4846539,0.5421119,4.756061,-58.0701,-30.94306,1008.128
27.052724361,-1.290855,10.28697,-24.20652,-0.7308373,0.4099245,0.5796565,4.763373,-58.43133,-30.49438,1008.128
27.085288048,6.400077,17.60313,-26.6545,-0.6939672,0.4177924,0.5584723,5.116062,-57.33208,-29.61126,1008.128
27.120353222,1.047188,23.55122,-27.87848,-0.816361,0.3367188,0.5085325,5.116062,-57.33208,-29.61126,1008.13
27.152916431,5.35411,27.53645,-26.4097,-0.7342699,0.3633693,0.5475301,6.213843,-57.32673,-30.06089,1008.134
27.185480118,-6.766799,31.70011,-23.83932,-0.6888678,0.4943742,0.6186078,6.208162,-56.96292,-30.06351,1008.134
27.220548630,-27.56308,45.44021,-22.30934,-0.7619659,0.3700322,0.6056637,6.208162,-56.96292,-30.06351,1008.134
27.253112316,-29.83959,57.69329,-18.14778,-0.7690914,0.2949949,0.5209016,5.837641,-56.59917,-29.61886,1008.134
27.285676003,-35.80776,60.07252,-11.29345,-0.7829349,0.2714739,0.5234563,6.918378,-55.50238,-30.07633,1008.134
27.320740700,-58.88056,65.72321,-4.439114,-0.8017572,0.3041558,0.5500754,7.276748,-54.76694,-29.19059,1008.134
27.353304386,-98.25813,74.40742,-1.868739,-0.9125805,0.2752332,0.5009201,7.276748,-54.76694,-29.19059,1008.134
27.385868073,-110.9328,79.99863,-7.86628,-0.8688108,0.2640152,0.4219162,7.634275,-54.40565,-30.08654,1008.134
27.420936585,-119.1159,72.02819,-14.65941,-0.889716,0.2541133,0.1897645,7.256442,-53.68068,-30.09057,1008.133
27.453500748,-50.14366,54.54079,-14.41461,-0.8125926,0.2514471,0.2486213,7.256442,-53.68068,-30.09057,1008.133
27.486064434,-52.23559,44.66696,-15.5162,-0.8581501,0.3046213,0.3940062,7.969078,-52.58912,-30.99293,1008.133
27.518624306,-31.13167,32.65181,-28.06208,-0.9849797,0.0781618,0.02765767,8.324186,-51.85885,-30.99934,1008.133
27.553692818,17.35196,20.69614,-32.77443,-0.8913475,0.2258694,-0.01513327,8.324186,-51.85885,-30.99934,1008.131
27.586256504,17.72113,22.24264,-27.57249,-1.035307,-0.02701113,0.4572738,8.320135,-51.49246,-30.55588,1008.131
27.618819714,-18.02632,30.98634,-25.9201,-1.06018,-0.007342837,0.3367537,8.669563,-50.39838,-30.5649,1008.133
27.653888702,-1.66002,8.740471,-21.63614,-0.4773875,0.1945952,0.03281111,8.669563,-50.39838,-30.5649,1008.131
27.686451912,-28.7321,30.27257,-19.61656,-0.9208583,0.01196835,0.4432567,9.382093,-48.87204,-29.68601,1008.131
27.719011784,-47.37492,30.15361,-14.72061,-1.050374,0.03921582,0.3862756,9.741253,-48.50817,-30.13589,1008.131
27.754080296,-78.75392,7.431889,-10.31425,-0.2171773,-0.1951783,0.02806355,9.741253,-48.50817,-30.13589,1008.13
27.786643982,-57.83459,20.63666,-9.335065,-0.9272826,0.1488119,0.2592506,9.724209,-47.41673,-30.14372,1008.13
27.819207668,-72.35506,23.55122,-3.459923,-0.8981565,-0.06962131,0.1761328,9.346375,-46.69176,-30.14775,1008.128
27.854276180,-61.2186,28.13125,3.761606,-0.8395562,-0.0468662,0.1498377,9.346375,-46.69176,-30.14775,1008.128
27.886839867,-56.05029,26.52527,10.37114,-0.9174168,-0.0361395,0.02681539,10.42548,-45.59755,-31.05129,1008.128
27.919402599,-71.49368,33.6035,12.45192,-0.4421639,-0.3269136,-0.3947503,10.05333,-45.23639,-31.05272,1008.128
27.951966286,-14.94995,38.00509,8.535159,-0.9748386,-0.1044389,-0.0805141,10.05333,-45.23639,-31.05272,1008.126
27.987034798,15.38309,37.64821,4.3736,-1.035067,-0.01953073,-0.008104177,10.04928,-44.86999,-30.60926,1008.125
28.019598484,10.76853,34.07935,3.761606,-1.042404,0.098751,0.1440376,10.0436,-44.50618,-30.61187,1008.125
28.052162647,-8.67415,29.97516,4.128802,-1.021477,0.1099846,0.1915597,10.0436,-44.50618,-30.61187,1008.125
28.087231159,-13.47329,28.66658,1.680826,-1.023614,7.341729E-05,-0.01119978,10.04444,-44.13204,-28.83019,1008.125
28.119790554,-5.474722,27.0606,2.843615,-1.010212,-0.03113485,-0.05664289,10.04607,-44.12946,-28.38412,1008.125
28.152354717,0.1858039,24.62188,0.9464337,-0.9988444,0.05372834,0.01714737,10.04607,-44.12946,-28.38412,1008.125
28.187423229,-2.952096,21.35043,-1.991137,-0.984813,0.06358891,0.02646842,10.40849,-43.76042,-27.94185,1008.125
28.219986916,-2.152239,18.91171,-5.173506,-1.054599,0.06391203,-0.03049775,10.40631,-43.39107,-26.98859,1008.125
28.252550602,-4.244173,16.88936,-7.254286,-1.012989,-0.002005458,-0.05764593,10.40631,-43.39107,-26.98859,1008.125
28.287619114,0.739551,16.05662,-7.927479,-0.9775261,0.01192947,-0.02798158,10.76873,-43.02203,-26.54632,1008.123
28.320178986,-0.6755805,14.86701,-7.988678,-0.9693879,0.02703687,-0.01374102,10.76468,-42.65564,-26.10286,1008.123
28.352742195,-2.459877,13.14206,-9.273866,-1.031085,0.04874026,-0.04670335,10.76468,-42.65564,-26.10286,1008.123
28.385305882,-0.3679432,14.80753,-12.15024,-0.9870396,-0.01238969,-0.05106213,10.39252,-42.29448,-26.10428,1008.123
28.420374394,4.615781,17.36521,-11.47704,-0.9699808,-0.01504994,-0.05836983,10.39011,-41.9255,-25.21475,1008.125
28.452938080,4.738836,19.68496,-11.04865,-0.9783873,0.002198591,-0.0281292,10.39011,-41.9255,-25.21475,1008.125
28.485501766,-0.6140531,19.8634,-12.02784,-1.007331,0.01362862,-0.05934638,10.38037,-41.19529,-24.7739,1008.126
28.520566464,-3.813481,19.44704,-12.82343,-0.9759265,-0.01493933,-0.09944943,10.38364,-41.19013,-23.88175,1008.126
28.553130150,-3.075151,17.12728,-15.6386,-0.9994943,-0.006803457,-0.1389395,10.38364,-41.19013,-23.88175,1008.125
28.585693836,-1.967657,14.5696,-17.04619,-1.005247,-0.01417928,-0.1366296,10.36659,-40.0987,-23.88959,1008.125
28.620762348,0.6780235,12.78517,-19.98376,-0.9973024,-0.06471748,-0.1156563,10.35686,-39.36849,-23.44874,1008.129
28.653326511,4.000506,11.83348,-20.96295,-0.9991404,-0.03455961,-0.1263121,10.35686,-39.36849,-23.44874,1008.129
28.685890198,-4.367228,12.01192,-19.18817,-0.9696468,-0.04800165,-0.07869133,10.72496,-39.36326,-23.00385,1008.129
28.720954418,-5.78236,19.92289,-20.65695,-0.9736462,-0.1190936,-0.06092037,10.36199,-39.36037,-22.04679,1008.129
28.753518581,-2.890569,21.40991,-19.61656,-0.9864129,-0.1328578,-0.1693944,10.36199,-39.36037,-22.04679,1008.127
28.786082268,-3.998063,17.00832,-14.29222,-0.948889,-0.1908669,-0.2370217,10.70697,-38.2112,-23.01212,1008.127
28.818645954,-7.074436,13.3205,-8.294675,-0.9664088,-0.1407546,-0.1922529,11.07126,-37.8392,-22.06005,1008.125
28.853714466,-5.78236,11.53607,-3.949518,-0.963816,-0.1495725,-0.1696713,10.69505,-37.11164,-21.61802,1008.123
28.886278152,-6.889854,9.097356,-1.317944,-0.9674004,-0.1450152,-0.2198695,10.69505,-37.11164,-21.61802,1008.123
28.918837547,-6.336107,7.134484,2.29282,-0.9546834,-0.1449534,-0.1971621,11.05505,-36.37363,-20.28621,1008.123
28.953906536,-3.690426,8.978395,2.660017,-0.9831214,-0.08652034,-0.1962432,10.33348,-37.10654,-20.27861,1008.122
28.986470222,-4.305701,10.22749,-0.3999531,-0.9768985,-0.07149769,-0.1689509,10.33348,-37.10654,-20.27861,1008.122
29.019033432,-7.443601,15.22389,0.8240349,-0.9636492,-0.1309082,-0.2119239,10.69427,-36.74009,-20.28241,1008.122
29.054102898,0.5549686,5.944865,5.536388,-0.9399136,-0.1916678,-0.3549865,10.3278,-36.74273,-20.28122,1008.122
29.086665630,3.754397,-1.430771,10.67714,-0.9761287,-0.1442456,-0.2005142,10.3278,-36.74273,-20.28122,1008.123
29.119225502,1.354826,-2.322985,19.06145,-0.9408201,-0.140493,-0.2826651,10.69427,-36.74009,-20.28241,1008.122
29.154294968,4.984945,-6.129765,19.91825,-0.9842069,-0.0753901,-0.1888217,10.69263,-36.74267,-20.72848,1008.122
29.186857700,0.001221534,-10.11499,18.38826,-0.9936651,-0.03048209,-0.258217,10.69263,-36.74267,-20.72848,1008.12
29.219421864,3.385232,-12.79163,20.59144,-0.9568329,-0.1635794,-0.168925,10.34079,-37.46777,-19.82993,1008.12
29.251985550,11.19922,-5.653918,24.6306,-0.9727699,-0.03768402,-0.1118839,10.35052,-38.19798,-20.27078,1008.126
29.287054062,4.369671,1.840681,22.97822,-0.9662236,0.012308,-0.1846008,10.35052,-38.19798,-20.27078,1008.124
29.319613934,4.615781,0.651062,23.89621,-0.9728317,-0.01860217,-0.2459715,10.73498,-39.3474,-20.2637,1008.124
29.352177620,4.369671,-3.334161,20.83624,-0.9922071,-0.003823524,-0.1321338,10.00446,-39.72166,-21.15085,1008.126
29.387246132,-0.9216903,-2.441947,18.75546,-1.009903,0.008616687,-0.1396609,10.00446,-39.72166,-21.15085,1008.126
29.419848442,-11.81205,-12.49422,16.00148,-1.175468,-0.06904667,-0.1020158,10.00446,-39.72166,-21.15085,1008.124
29.452412605,-43.68327,-33.72892,5.781186,-1.230376,-0.07568301,-0.082729,10.02555,-41.17949,-21.58648,1008.124
29.487480641,-64.84872,-47.17161,-15.6998,-0.9593675,-0.1058798,0.06591217,10.02555,-41.17949,-21.58648,1008.124
29.520040512,-73.7702,-22.60599,-19.00457,-0.9116423,-0.0801694,-0.2121667,10.02448,-41.554,-23.43188,1008.124
29.552604675,-33.10055,-10.05551,-9.457463,-0.8620609,-0.0841193,-0.2697967,10.0139,-41.19794,-24.77271,1008.124
29.585168362,21.2282,2.554452,2.170422,-0.88753,0.01225914,-0.2683017,10.0139,-41.19794,-24.77271,1008.128
29.620236874,50.39221,10.64386,9.697948,-0.9273311,0.1103206,-0.1444729,10.37711,-41.20046,-25.66604,1008.128
29.652800560,38.33282,12.78517,9.636748,-1.005297,0.1749837,-0.05301964,9.647432,-41.20058,-24.77152,1008.128
29.685364246,5.35411,3.744071,2.843615,-0.9627502,0.2065374,-0.0298606,9.647432,-41.20058,-24.77152,1008.127
29.720428944,-34.63874,1.900162,-1.195545,-0.9265755,0.1012751,-0.07742223,9.656376,-41.55923,-23.87676,1008.127
29.752992630,-33.53124,-2.085061,-5.234706,-0.9218739,0.01804843,-0.1444358,9.662057,-41.92304,-23.87415,1008.127
29.785555839,-23.68685,-3.393642,-7.988678,-0.9123781,0.002028583,-0.1214872,9.662057,-41.92304,-23.87415,1008.127
29.820624828,-26.39406,0.05625259,-3.215125,-0.9868411,0.03992956,-0.119387,9.282593,-41.20065,-24.32426,1008.125
29.853188992,-21.71797,-0.06270929,-1.379143,-1.000789,0.05887363,-0.1567879,9.643382,-40.83419,-24.32806,1008.125
29.885751724,-21.1027,5.885385,4.740796,-1.043918,0.03842579,-0.165759,9.643382,-40.83419,-24.32806,1008.125
29.920816898,-19.93367,0.4726191,3.578008,-1.08196,-0.07451157,-0.1282918,9.27528,-40.83942,-24.77294,1008.125
29.953380108,-5.474722,-11.48305,-1.562742,-1.079816,-0.09910271,-0.1649223,9.2696,-40.47561,-24.77555,1008.125
29.985943794,24.48915,-15.76568,-5.479503,-0.9303599,-0.003977933,-0.1346127,9.2696,-40.47561,-24.77555,1008.129
30.018507957,24.42762,-7.795231,-4.194316,-0.8435,0.1426074,-0.1638797,9.266337,-40.48078,-25.6677,1008.131
30.053576469,18.15182,3.446666,-5.601902,-0.8071111,0.047362,-0.2755778,8.907179,-40.84465,-25.21782,1008.131
30.086140156,-10.33539,18.61431,-5.907899,-0.9522058,0.01410811,-0.21939,8.907179,-40.84465,-25.21782,1008.129
30.118700027,-1.536965,10.64386,-3.888319,-1.092673,0.02939677,-0.03098758,8.895817,-40.11703,-25.22305,1008.131
30.153768539,14.46017,1.602757,-6.948289,-1.066815,0.1137138,-0.008940969,9.263918,-40.1118,-24.77816,1008.133
30.186332226,10.52242,16.23507,-12.02784,-0.9514881,0.01797338,-0.1062215,9.263918,-40.1118,-24.77816,1008.133
30.218895912,11.87602,10.58438,-13.37422,-0.98901,0.0783015,-0.2265925,9.639332,-40.4678,-23.8846,1008.133
30.253964424,3.754397,7.312927,-16.98499,-1.039706,-0.03196022,-0.1726374,9.261498,-39.74282,-23.88863,1008.131
30.286528111,0.4319137,6.182789,-18.45378,-0.9762047,-0.1730635,-0.1695343,9.261498,-39.74282,-23.88863,1008.133
30.319087982,2.70843,-2.62039,-10.31425,-0.979475,-0.08458767,-0.2895089,9.62797,-39.74018,-23.88982,1008.131
30.354156494,12.0606,-1.014404,-5.724301,-1.011365,-0.1034772,-0.07611378,9.984709,-39.00733,-23.45016,1008.133
30.386720181,11.26075,7.788775,-2.297134,-0.9887583,-0.04707749,-0.1226461,9.984709,-39.00733,-23.45016,1008.133
30.419284344,14.58323,9.870608,2.782416,-0.9555689,-0.09476805,-0.1209888,9.618238,-39.00998,-23.44897,1008.133
30.451848030,8.368956,10.46542,6.025983,-0.9696025,-0.07852186,-0.2062851,9.965086,-37.85784,-23.9045,1008.131
30.486916542,11.50686,5.766423,6.637977,-0.9604638,-0.06487706,-0.1882008,9.97566,-38.21391,-22.56367,1008.137
30.519476414,20.73598,7.848256,10.12634,-0.9888188,-0.0398328,-0.1128679,9.97566,-38.21391,-22.56367,1008.137
30.552040100,19.75154,7.669813,10.86074,-1.000994,-0.01340986,-0.1864097,9.981342,-38.57772,-22.56106,1008.137
30.587108612,20.61292,2.554452,10.37114,-0.9735906,-0.03755654,-0.2481934,9.986468,-38.5696,-21.15912,1008.135
30.619672298,16.92127,-2.382466,9.269552,-0.9804181,-0.02193129,-0.1773754,9.986468,-38.5696,-21.15912,1008.137
30.652235985,4.431199,-2.085061,5.658787,-0.9909254,0.001278781,-0.1813616,9.258524,-39.00192,-21.59977,1008.137
30.687304497,6.277022,-2.322985,5.107992,-0.9769647,-0.02910296,-0.1934396,9.630676,-39.36309,-21.59835,1008.137
30.719864368,7.199934,-2.144542,7.861965,-0.9732929,-0.04047836,-0.1399619,9.630676,-39.36309,-21.59835,1008.137
30.752428055,5.046473,2.732895,10.30994,-0.978673,-0.03717541,-0.1336224,9.624994,-38.99928,-21.60096,1008.137
30.787496567,15.01392,9.156837,13.36991,-0.9794974,-0.01611405,-0.171487,9.636357,-39.72689,-21.59573,1008.135
30.820060730,47.50042,21.58835,20.46904,-0.9805325,-0.02933224,-0.2596623,9.636357,-39.72689,-21.59573,1008.133
30.852623463,125.1481,33.24662,43.60241,-0.8737786,0.1432149,-0.5950133,9.264206,-39.36573,-21.59716,1008.132
30.885187626,214.9166,45.32125,64.16541,-0.8604494,0.4218502,-0.5893251,9.289404,-40.44425,-19.35896,1008.132
30.920252800,188.3983,55.07612,74.44691,-1.016476,0.6193069,-0.3198214,9.289404,-40.44425,-19.35896,1008.136
30.952816010,50.94595,61.61902,60.43225,-1.116309,0.706907,-0.09893548,8.946789,-40.78193,-14.38465,1008.136
30.985379696,-92.10538,68.69726,51.98673,-1.03,0.4868746,-0.3068441,8.215532,-40.03893,-10.81892,1008.136
31.020448208,-93.08982,64.35515,62.02343,-0.8813639,0.1641397,-0.4100368,8.215532,-40.03893,-10.81892,1008.134
31.053011894,-29.47043,61.44058,73.95731,-0.9565246,0.05900662,-0.3782152,6.764275,-40.77198,-9.916797,1008.134
31.085575581,10.46089,51.38831,70.95854,-1.019289,0.08520305,-0.2279081,6.790262,-42.22205,-9.014209,1008.134
31.153203964,-37.59206,37.70769,41.15444,-0.9611015,0.1880846,-0.240896,5.727412,-44.03613,-6.767227,1008.129
31.185767651,-78.13865,31.04582,24.01861,-0.8777866,0.149132,-0.4126861,4.642857,-44.76616,-5.80257,1008.129
31.220836163,-91.55164,26.88215,39.86925,-0.7145717,0.05983551,-0.6133572,4.642857,-44.76616,-5.80257,1008.129
31.253399849,-48.11325,25.21669,39.50206,-0.6339436,0.05365345,-0.7319567,4.665582,-46.2214,-5.792125,1008.129
31.285964012,-15.07301,32.47337,40.17525,-0.5926614,0.1541581,-0.6985602,4.688862,-48.04857,-7.18101,1008.129
31.318523884,-1.044745,36.33963,27.99657,-0.6708483,0.1594089,-0.5819109,4.688862,-48.04857,-7.18101,1008.127
31.353591919,-25.96337,50.55557,32.21933,-0.7609853,0.2842004,-0.6011887,3.547994,-49.20644,-6.722906,1008.125
31.386156082,4.738836,28.19073,19.73465,-0.7506394,0.3515404,-0.630624,3.196381,-49.93117,-5.760626,1008.125
31.418719769,16.85975,34.13883,14.4715,-0.6745636,0.5142872,-0.6112963,3.196381,-49.93117,-5.760626,1008.125
31.453788281,18.58251,39.37316,11.22793,-0.719694,0.5874972,-0.5946678,2.474014,-50.29252,-4.417421,1008.123
31.486351967,22.08958,42.22824,12.75792,-0.8202229,0.5585828,-0.6162804,2.478907,-50.28477,-3.079206,1008.123
31.518911839,35.62562,35.98274,10.37114,-0.8811066,0.6257189,-0.6978548,2.478907,-50.28477,-3.079206,1008.128
31.553980350,53.34552,37.23184,12.26832,-0.9248852,0.6288676,-0.6610279,2.478118,-49.91322,-1.743601,1008.126
31.586544037,48.30027,25.15721,13.00272,-0.8775089,0.5608459,-0.5306329,2.112724,-49.54135,0.1029892,1008.126
31.619107723,3.446759,24.5624,26.52778,-0.7107137,0.5824623,-0.5309475,2.112724,-49.54135,0.1029892,1008.124
31.654176235,-14.88842,24.14603,18.26586,-0.572477,0.4200271,-0.5388762,1.364265,-48.01785,2.324846,1008.126
31.686740398,-8.120403,14.15324,14.8387,-0.5380501,0.3523676,-0.5244737,0.9994258,-48.01792,2.772107,1008.124
31.719300270,-2.829041,0.4131382,11.04433,-0.505889,0.3104711,-0.5174098,0.9994258,-48.01792,2.772107,1008.124
31.751863956,-6.582216,1.543276,9.330751,-0.3537227,0.2910877,-0.5212361,0.6468956,-48.80624,3.225025,1008.127
31.786932468,5.231055,4.99317,0.9464337,-0.3718693,0.2583278,-0.5299358,-0.07873368,-49.17276,3.676085,1008.121
31.819496155,20.30528,1.483795,-7.131887,-0.5822304,0.2541599,-0.537047,-0.07873368,-49.17276,3.676085,1008.125
31.852059841,24.61221,-4.285856,-11.59944,-0.6759848,0.3075821,-0.583029,-0.4468353,-49.17799,3.231203,1008.125
31.887128353,27.7501,-8.806406,-19.86136,-0.6254964,0.3194624,-0.592564,-0.09486008,-48.01774,4.177614,1008.123
31.919696808,32.30313,-10.53135,-24.45132,-0.6663313,0.350139,-0.6152587,-0.09486008,-48.01774,4.177614,1008.123
31.952260494,25.78123,-20.58363,-23.96172,-0.7015992,0.3970917,-0.6739637,-0.09322906,-48.01516,4.623686,1008.123
31.987329006,18.3364,-22.2491,-25.36931,-0.6116368,0.4398124,-0.7256034,-0.1045916,-47.28753,4.618464,1008.123
32.019893169,23.07402,-16.36049,-22.55414,-0.5444044,0.4320653,-0.7528556,0.9753574,-45.81918,5.496595,1008.123
32.052456856,20.05917,-15.58723,-12.51743,-0.6674431,0.4624561,-0.7348716,0.9753574,-45.81918,5.496595,1008.122
32.087525368,-2.029184,-14.63554,-4.255516,-0.6641198,0.5049305,-0.7670965,1.344247,-46.18552,4.605875,1008.122
32.120085239,-13.0426,-5.891841,-2.541932,-0.6242021,0.4560644,-0.8080008,1.315841,-44.36646,4.592819,1008.122
32.152648926,-6.582216,2.019124,1.191231,-0.6926402,0.3910887,-0.8234273,1.315841,-44.36646,4.592819,1008.12
32.185212135,1.847045,4.398361,4.618397,-0.7189286,0.3613014,-0.7615008,2.062331,-45.45813,3.642406,1008.118
32.220281124,5.661747,6.063828,6.393179,-0.6373402,0.3547369,-0.687723,1.706668,-45.81647,5.048147,1008.118
32.252844811,3.815924,10.16801,6.454379,-0.6054327,0.3394621,-0.6575341,1.706668,-45.81647,5.048147,1008.118
32.285408020,4.185089,9.156837,6.882775,-0.6178466,0.3222001,-0.6379671,1.710718,-46.18287,4.604687,1008.118
32.320473194,3.139122,7.550851,4.128802,-0.6312808,0.3130957,-0.5984561,0.9680451,-45.45795,5.047913,1008.118
32.353036404,-2.398349,3.506147,1.803225,-0.6446223,0.2905045,-0.5852533,0.9680451,-45.45795,5.047913,1008.116
32.385600090,-6.828326,-1.668695,-0.8895482,-0.6554246,0.2929065,-0.6098585,1.332096,-45.08633,5.936256,1008.116
32.420669556,-5.78236,-6.605613,-3.153926,-0.6282877,0.3015884,-0.6242535,0.9696761,-45.45537,5.493984,1008.116
32.453232288,-4.982502,-7.854712,-5.173506,-0.6339986,0.326898,-0.648514,0.9696761,-45.45537,5.493984,1008.12
32.485796452,-2.152239,-8.092635,-5.540703,-0.6460829,0.3555329,-0.6741679,0.9647831,-45.46312,4.155769,1008.12
32.520861626,-2.275294,-7.08146,-3.092726,-0.6654775,0.3869375,-0.6886547,0.5983124,-45.46577,4.15696,1008.119
32.553424358,-4.982502,-5.77288,-1.929938,-0.6634132,0.4104753,-0.7284179,0.5983124,-45.46577,4.15696,1008.119
32.585988998,-3.998063,-3.215199,-0.2775543,-0.6491888,0.4023858,-0.7256548,1.697724,-45.45783,4.153393,1008.119
32.618552208,-2.459877,-0.06270929,1.130032,-0.6606987,0.3881178,-0.7205442,1.701542,-45.82459,3.646207,1008.119
32.653620720,-0.2448883,2.43549,1.191231,-0.6554472,0.3579956,-0.7079577,1.701542,-45.82459,3.646207,1008.119
32.686184406,2.646902,3.922513,1.252431,-0.6497465,0.3365097,-0.6696209,2.068012,-45.82195,3.645018,1008.119
32.718744278,2.70843,3.744071,0.6404366,-0.6428378,0.3350046,-0.6396811,1.701542,-45.82459,3.646207,1008.119
32.753812790,1.662463,2.019124,-0.4611525,-0.6457882,0.3397751,-0.6284878,1.701542,-45.82459,3.646207,1008.119
32.786376476,-0.6140531,0.3536573,-0.2163549,-0.6443233,0.3402624,-0.6246148,1.707223,-46.1884,3.648818,1008.12
32.818940163,-2.336822,-0.9549234,-1.011947,-0.6448984,0.3446974,-0.6395313,0.9704643,-45.82693,4.158381,1008.122
32.854008675,-1.290855,-1.966099,-0.9507477,-0.6494437,0.3549256,-0.6572557,0.9704643,-45.82693,4.158381,1008.12
32.886572838,-0.6755805,-2.144542,-0.1551555,-0.6516455,0.3734373,-0.6729227,1.703405,-45.82164,4.156004,1008.12
32.919191837,-1.352383,-1.133366,-0.09395607,-0.6506509,0.3705587,-0.6782846,1.335071,-45.82724,3.647395,1008.12
32.954260349,-1.66002,0.1752145,0.08964212,-0.6632103,0.3583184,-0.6944107,1.335071,-45.82724,3.647395,1008.122
32.986824036,-0.06030592,0.7105429,0.3344397,-0.6480321,0.3536078,-0.683863,1.699911,-45.82718,3.200135,1008.12
33.019387722,0.9241334,1.067429,0.3344397,-0.6529118,0.3573679,-0.6697829,1.32939,-45.46343,3.644784,1008.12
33.051951885,0.06274899,1.007948,-0.03275668,-0.6445786,0.3554728,-0.6567687,1.32939,-45.46343,3.644784,1008.122
33.087020397,0.3088588,1.007948,-0.1551555,-0.6533438,0.3567855,-0.649973,0.9720954,-45.82435,4.604452,1008.122
33.119579792,0.4319137,-0.06270929,-0.2163549,-0.6465173,0.3563819,-0.6485356,1.710718,-46.18287,4.604687,1008.122
33.152143955,-0.8601629,-0.300633,-0.09395607,-0.6445839,0.3564336,-0.6543372,1.710718,-46.18287,4.604687,1008.122
33.187212467,-1.290855,-0.6575187,-0.3387537,-0.6552335,0.3495198,-0.6607162,1.32939,-45.46343,3.644784,1008.12
33.219776154,-0.3679432,-0.5980378,-0.1551555,-0.6547887,0.35103,-0.6708445,1.707223,-46.1884,3.648818,1008.123
33.252339840,0.3703863,-0.1221902,-0.1551555,-0.655891,0.3607641,-0.6769789,1.707223,-46.1884,3.648818,1008.123
33.287408352,-0.1218334,0.05625259,-0.09395607,-0.643249,0.3633412,-0.6730848,1.340752,-46.19105,3.650006,1008.123
33.319968224,0.4319137,1.18639,-0.03275668,-0.6480354,0.3555163,-0.6760998,1.338566,-45.8217,4.603264,1008.123
33.352531910,1.600935,1.305352,-0.2775543,-0.6508706,0.3491372,-0.6708772,1.338566,-45.8217,4.603264,1008.121
33.387600422,1.108716,0.5321001,-0.03275668,-0.6533864,0.3592414,-0.655736,2.068012,-45.82195,3.645018,1008.121
33.420164108,-0.1833608,0.3536573,-0.1551555,-0.6435674,0.3525635,-0.655364,1.701542,-45.82459,3.646207,1008.121
33.452728272,-0.3064157,-0.1221902,0.08964212,-0.6552895,0.3548538,-0.658218,1.701542,-45.82459,3.646207,1008.117
33.485291958,-0.3679432,-0.4790759,-0.1551555,-0.6523802,0.354439,-0.6654777,1.712904,-46.55221,3.651429,1008.119
33.520356178,-0.9216903,-0.4195949,0.2120409,-0.6548749,0.3592729,-0.6668516,1.336935,-45.82429,4.157192,1008.117
33.552920341,-1.1678,-0.6575187,0.2732403,-0.649036,0.3598328,-0.6663654,1.336935,-45.82429,4.157192,1008.117
33.585484028,-0.8601629,-0.8954425,0.2120409,-0.644208,0.3623501,-0.6716488,1.707223,-46.1884,3.648818,1008.117
33.620552540,-0.3679432,0.1752145,0.1508415,-0.6329758,0.3610098,-0.6653962,1.712904,-46.55221,3.651429,1008.116
33.653116226,0.1858039,1.305352,-0.4611525,-0.6498975,0.349627,-0.6689371,0.9629191,-45.46608,3.645973,1008.116
33.685679912,1.908573,0.591581,-0.5223519,-0.6513423,0.3486274,-0.6670175,0.9629191,-45.46608,3.645973,1008.116
33.720744610,1.170243,0.1157335,0.08964212,-0.6641181,0.3596118,-0.6610371,1.344247,-46.18552,4.605875,1008.116
33.753308296,-1.967657,-0.300633,0.3956391,-0.6607067,0.3615538,-0.6508598,1.335071,-45.82724,3.647395,1008.116
33.785871983,-3.136679,-1.787657,0.1508415,-0.6578304,0.3621503,-0.6668049,1.335071,-45.82724,3.647395,1008.12
33.820940494,0.1242764,-0.8954425,0.3956391,-0.6310504,0.3615519,-0.672157,0.9704643,-45.82693,4.158381,1008.118
33.853504658,0.6164961,-0.1221902,0.7016361,-0.6559213,0.3650999,-0.6686953,1.331021,-45.46084,4.090857,1008.118
33.886068344,-1.844602,0.05625259,-0.1551555,-0.6792623,0.361407,-0.6716294,1.331021,-45.46084,4.090857,1008.118
33.918628216,-0.1218334,-1.966099,0.02844273,-0.668992,0.3524223,-0.6969119,1.701542,-45.82459,3.646207,1008.118
33.953696728,2.585375,-1.311809,0.7628354,-0.6379699,0.3692595,-0.6768666,1.344247,-46.18552,4.605875,1008.116
33.986260414,1.72399,1.543276,0.5180379,-0.6329944,0.3648487,-0.6547033,1.344247,-46.18552,4.605875,1008.116
34.018824100,-0.4294707,1.245871,0.4568385,-0.6489423,0.3534786,-0.6582451,1.709087,-46.18545,4.158615,1008.116
34.053892612,1.047188,0.591581,-0.2775543,-0.6531551,0.3364652,-0.6696182,0.9704643,-45.82693,4.158381,1008.116
34.086456299,5.538692,1.18639,-0.1551555,-0.6540436,0.3286868,-0.6716695,0.9704643,-45.82693,4.158381,1008.116
34.119016171,9.23034,0.7105429,-0.3387537,-0.6430219,0.3443775,-0.6704741,1.340752,-46.19105,3.650006,1008.116
34.154084683,10.15325,0.3536573,-0.5223519,-0.6602054,0.3553509,-0.6746404,0.9686004,-45.82989,3.648584,1008.115
34.186648369,7.99979,-1.192847,-0.09395607,-0.6831762,0.3594872,-0.6880897,0.9686004,-45.82989,3.648584,1008.115
34.219212532,11.07616,-0.7169997,0.3344397,-0.6455095,0.3430155,-0.6985282,1.709087,-46.18545,4.158615,1008.115
34.251776218,15.01392,1.364833,0.1508415,-0.6305207,0.3562484,-0.6799726,1.705037,-45.81906,4.602076,1008.115
34.286844730,9.414922,1.483795,1.497228,-0.6520865,0.3690665,-0.6749224,1.705037,-45.81906,4.602076,1008.116
34.319404602,1.354826,2.554452,1.864425,-0.6389869,0.3303809,-0.6803591,0.9583136,-44.72775,5.488762,1008.116
34.351968289,5.538692,5.528499,0.9464337,-0.6356618,0.295438,-0.6818621,1.332096,-45.08633,5.936256,1008.115
34.387036800,12.42977,2.138085,2.109222,-0.6609233,0.2911941,-0.6761019,1.332096,-45.08633,5.936256,1008.115
34.419600487,10.46089,-0.300633,1.925624,-0.6227326,0.3254962,-0.6287279,1.328046,-44.71994,6.379719,1008.115
34.452164173,-0.2448883,1.18639,-0.2163549,-0.6017768,0.3276404,-0.612764,1.681523,-43.99225,5.927235,1008.115
34.487232685,-7.012908,-1.668695,-2.052337,-0.6550527,0.2921718,-0.6606246,1.681523,-43.99225,5.927235,1008.115
34.519792557,2.831485,-4.880665,-1.868739,-0.6403423,0.2798099,-0.6787123,0.5821111,-44.00019,5.930801,1008.119
34.552356243,9.353395,-5.534956,-1.68514,-0.6337602,0.3055356,-0.6527072,1.320734,-44.35871,5.931034,1008.121
34.587424755,8.122846,-7.73575,-3.276325,-0.6966906,0.31206,-0.6646313,1.320734,-44.35871,5.931034,1008.121
34.619988918,2.70843,-12.37526,-2.358334,-0.656033,0.333969,-0.6633697,1.315053,-43.9949,5.928423,1008.121
34.652552605,2.21621,-9.044331,-4.80631,-0.6065007,0.3016278,-0.6769621,1.320734,-44.35871,5.931034,1008.119
34.685116291,3.262177,-7.378865,-3.215125,-0.6507595,0.2966725,-0.6760281,1.320734,-44.35871,5.931034,1008.119
34.720180988,2.769957,-7.557308,-3.76592,-0.6901449,0.2922488,-0.6712239,1.681523,-43.99225,5.927235,1008.119
34.752744675,-0.6140531,-8.152116,-4.010718,-0.6689161,0.3071561,-0.6821346,1.309372,-43.63109,5.925812,1008.119
34.785308361,-1.66002,-7.378865,-3.888319,-0.6357604,0.3032279,-0.6851267,1.309372,-43.63109,5.925812,1008.119
34.820376873,-3.382788,-4.226375,-2.847929,-0.6624848,0.2994443,-0.6779081,1.66853,-43.26721,5.475941,1008.117
34.852940559,-3.444316,-4.821185,-2.174736,-0.7204192,0.3015206,-0.6594521,1.66853,-43.26721,5.475941,1008.117
34.885504723,-8.120403,-5.77288,-1.929938,-0.7213033,0.2946854,-0.6552052,1.66853,-43.26721,5.475941,1008.121
34.920568943,-9.104843,-5.83236,-1.011947,-0.6558978,0.2814603,-0.6588537,2.050413,-44.35858,5.036514,1008.121
34.953132629,-3.813481,-3.988451,-3.70472,-0.6282364,0.2934093,-0.6422632,2.043101,-43.99736,4.587831,1008.121
34.985696793,-3.075151,-6.010803,-4.316715,-0.693839,0.2894521,-0.6016567,2.043101,-43.99736,4.587831,1008.12
35.020764828,-8.120403,-9.341735,-4.194316,-0.7109649,0.2955642,-0.6054139,2.045287,-44.3667,3.634573,1008.118
35.053328991,-7.997349,-11.72097,-3.215125,-0.6784895,0.3105318,-0.5974829,2.045287,-44.3667,3.634573,1008.118
35.085892677,-6.951381,-12.91059,-3.398723,-0.682798,0.3065346,-0.5859387,2.045287,-44.3667,3.634573,1008.116
35.118452549,-8.304986,-16.24153,-3.215125,-0.7457115,0.3177841,-0.5683048,2.410127,-44.36664,3.187313,1008.116
35.186084747,-14.08857,-20.52415,-6.030298,-0.6984176,0.3078265,-0.5941213,2.042025,-44.37187,2.74243,1008.116
35.218648434,-5.04403,-18.5018,-8.967869,-0.7316224,0.306137,-0.6381023,3.153588,-45.46311,1.408482,1008.116
35.253716946,11.99907,-14.81398,-11.78304,-0.7393537,0.2978408,-0.6527227,3.143013,-45.10704,0.06765461,1008.114
35.286280632,25.35053,-26.35328,-14.23102,-0.8324845,0.3339531,-0.5254372,3.937033,-45.10131,0.06507874,1008.114
35.318840504,7.692153,-21.65429,-4.928709,-1.185092,0.4443968,-0.5997854,3.937033,-45.10131,0.06507874,1008.114
35.353909016,-23.87143,-32.36086,-6.948289,-0.9373312,0.3409539,-0.5484313,4.301873,-45.10125,-0.3821831,1008.114
35.386473179,-31.56236,-36.64348,-8.906669,-0.8522711,0.2701664,-0.5558772,3.920545,-44.38181,-1.342084,1008.114
35.419036865,-28.17835,-37.11933,-11.10985,-0.7864483,0.2300207,-0.5169163,3.920545,-44.38181,-1.342084,1008.114
35.454105377,-25.40962,-37.47622,-16.1282,-0.8723806,0.2065494,-0.5181583,4.669687,-45.84209,-3.118305,1008.114
35.486669064,-22.76394,-38.18999,-22.55414,-0.8335878,0.1783978,-0.5220088,5.035315,-46.21359,-4.90117,1008.112
35.551792622,9.23034,-38.42791,-30.75485,-0.8444797,0.1667506,-0.4506362,5.03992,-46.95191,-6.74396,1008.112
35.586861133,-1.721547,-38.42791,-34.42682,-0.8455427,0.1773641,-0.4364553,6.485497,-45.85506,-7.648693,1008.112
35.619424820,-11.99663,-35.09698,-37.11959,-0.8382822,0.2193374,-0.4541903,6.485497,-45.85506,-7.648693,1008.112
35.651988983,-28.36294,-32.42034,-39.75116,-0.9240876,0.2654385,-0.4708057,6.480604,-45.8628,-8.986908,1008.112
35.687057018,-41.59134,-32.30138,-43.85152,-0.9542501,0.2564325,-0.5004,6.829188,-45.14287,-10.77761,1008.111
35.719616890,-40.42232,-32.12293,-41.03635,-0.9331021,0.2064396,-0.454779,6.829188,-45.14287,-10.77761,1008.111
35.752181053,-53.95836,-25.10419,-37.67038,-0.9005117,0.2477757,-0.4735149,7.202128,-45.87559,-12.11179,1008.111
35.787249088,-54.266,-12.97007,-37.54799,-0.8706151,0.151848,-0.4547054,7.915552,-45.15559,-14.34975,1008.111
35.819813251,-45.22146,-6.605613,-34.42682,-0.8974004,0.09168868,-0.3420038,7.915552,-45.15559,-14.34975,1008.111
35.852376938,-59.24972,-8.092635,-32.46844,-0.8944474,0.06461522,-0.2587955,7.927703,-46.25477,-15.68013,1008.112
35.887445450,-89.4597,-3.631566,-43.54553,-0.8045114,0.0005379361,-0.231824,8.290911,-46.25729,-16.57346,1008.112
35.920005321,-92.96677,7.193965,-45.87111,-0.7889576,-0.03624926,-0.2203158,8.290911,-46.25729,-16.57346,1008.117
35.952569008,-53.1585,7.075003,-45.56511,-0.9207098,-0.1328889,-0.1878266,8.648994,-46.26793,-18.86874,1008.117
35.985132694,-35.93082,-5.83236,-37.18079,-0.9885206,-0.01807922,-0.08643401,9.00489,-45.90922,-20.21075,1008.117
36.020201206,-76.96963,-9.401216,-39.20037,-0.9398308,0.1953608,-0.07114027,9.00489,-45.90922,-20.21075,1008.119
36.052764893,-84.78362,-15.76568,-23.04373,-1.126461,0.4691101,-0.2045461,9.732939,-45.91167,-21.55135,1008.119
36.085329056,-64.84872,-28.792,8.351561,-1.317005,1.151843,-0.1900792,9.345087,-45.20257,-24.29554,1008.119
36.120393276,-68.78648,-2.501428,0.2120409,-0.7017841,0.1891351,0.0556631,9.345087,-45.20257,-24.29554,1008.119
36.152957439,-26.51711,-11.36409,-10.80385,-1.107372,-0.1008349,-0.2896334,10.43961,-45.20238,-25.63732,1008.12
36.185521126,22.95096,-3.215199,-5.051107,-0.9733827,-0.03704033,-0.3603292,9.690409,-44.4878,-26.97838,1008.12
