Time (s),Gyroscope X (deg/s),Gyroscope Y (deg/s),Gyroscope Z (deg/s),Accelerometer X (g),Accelerometer Y (g),Accelerometer Z (g),Magnetometer X (uT),Magnetometer Y (uT),Magnetometer Z (uT),Barometer (hPa)
0.000000000,-0.4024052,0.2290215,0.0165259,0.1270487,0.6294775,0.7584193,7.621111,-40.72922,-24.62798,1006.714
0.032777786,0.3430442,-0.007349243,-0.04456312,0.1328781,0.6285554,0.7588882,7.985189,-40.73009,-24.62844,1006.712
0.068076134,1.209808,-0.183997,-0.1055403,0.1285146,0.6250863,0.7555342,7.627872,-41.09365,-24.62225,1006.709
0.100853920,1.575769,-0.3011726,-0.2883576,0.1275131,0.6372305,0.7521488,8.341778,-40.37247,-25.06976,1006.711
0.133631229,1.011545,-0.1821855,-0.04292221,0.1226617,0.6357422,0.754088,8.341778,-40.37247,-25.06976,1006.711
0.166408539,0.6975204,-0.1810912,0.07900915,0.1246126,0.6328631,0.7579386,7.263795,-41.09278,-24.62177,1006.711
0.201707363,1.312724,-0.5928884,-0.3481366,0.1221768,0.6357483,0.7555332,7.99195,-41.09452,-24.62271,1006.709
0.234485149,-0.8625265,-0.05982414,0.4455425,0.1323497,0.6445495,0.7482753,7.99195,-41.09452,-24.62271,1006.711
0.267261982,-1.725759,0.4117335,-0.1663395,0.1289834,0.6313949,0.7516727,8.356027,-41.0954,-24.62319,1006.707
0.300039768,0.6998346,-0.06216672,-0.4705509,0.1299627,0.6279938,0.7516755,7.627872,-41.09365,-24.62225,1006.707
0.332817078,1.378673,-0.1793572,-0.2253116,0.13044,0.6334255,0.7617748,7.627872,-41.09365,-24.62225,1006.707
0.368115902,0.8141004,-0.2376811,-0.0421861,0.1294568,0.6372701,0.7555137,7.99195,-41.09452,-24.62271,1006.707
0.400893211,0.3766389,-0.2368791,-0.2249936,0.1241067,0.6401175,0.7511898,7.984462,-40.73603,-25.06356,1006.709
0.433670998,-0.4315498,-0.1177098,-0.04132684,0.1265306,0.6431068,0.7579186,7.984462,-40.73603,-25.06356,1006.709
0.466447830,-0.118953,-0.1176562,0.2030634,0.1246154,0.631392,0.7564967,7.248819,-40.37579,-25.50346,1006.709
0.501747131,-0.3048313,0.1187855,0.08039637,0.1236266,0.6381788,0.7531192,7.627872,-41.09365,-24.62225,1006.709
0.534523964,-0.4281034,0.177598,-0.1642682,0.1299368,0.6387017,0.7506968,7.627872,-41.09365,-24.62225,1006.703
0.567301750,0.3185063,0.05935583,0.141099,0.1260661,0.6353505,0.7637077,7.985916,-40.72414,-24.19333,1006.703
0.600079537,0.3168188,-0.117238,-0.04264734,0.1270269,0.6367126,0.7482998,7.263795,-41.09278,-24.62177,1006.703
0.632856846,0.8738151,0.001128918,-0.1036773,0.1313909,0.6396846,0.7502104,7.263795,-41.09278,-24.62177,1006.703
0.668155670,0.5605456,0.1194021,-0.1641771,0.1270268,0.6372163,0.7507059,7.628599,-41.08771,-24.18713,1006.704
0.700932980,0.8074843,-0.2941774,0.01899296,0.122666,0.6342946,0.7560155,7.621838,-40.72327,-24.19286,1006.704
0.733710766,0.4313322,-0.1747373,-0.1027451,0.122627,0.650353,0.7540661,7.621838,-40.72327,-24.19286,1006.704
0.766487598,-1.057486,0.002326105,0.4465736,0.1323576,0.6411371,0.7477992,7.627872,-41.09365,-24.62225,1006.702
0.801786900,-1.051072,0.4145749,-0.2871324,0.1284993,0.6319181,0.7574494,7.99195,-41.09452,-24.62271,1006.7
0.834563732,0.8137363,-0.2362074,0.01915744,0.1299485,0.6353495,0.7588848,7.99195,-41.09452,-24.62271,1006.7
0.867341518,30.0088,-10.39998,7.655011,0.1150768,0.5597582,0.7624036,8.356027,-41.0954,-24.62319,1006.702
0.900118828,72.31304,-25.29134,21.82766,0.1875533,0.7259969,0.8380363,7.635361,-41.45215,-24.1814,1006.702
0.932896614,71.8782,-32.73701,48.52356,0.1292275,0.7741132,0.9637376,7.635361,-41.45215,-24.1814,1006.702
0.968194962,191.2743,-71.73818,67.64442,0.1982248,0.7127772,0.7451281,6.909282,-41.43342,-22.93729,1006.705
1.000972748,228.9195,-90.94331,109.0628,0.2873374,1.413998,0.6909101,5.130591,-43.18671,-18.18222,1006.705
1.033749580,146.2368,-80.07025,145.3497,0.3098035,1.3359,0.56919,0.7695028,-45.97355,-9.490586,1006.705
1.066527367,162.2639,-89.70235,179.8649,0.429477,1.214112,0.4213116,0.7695028,-45.97355,-9.490586,1006.701
1.101825714,183.2608,-79.24295,204.8504,0.5318319,1.202787,0.1404521,-5.036101,-46.21874,-1.769646,1006.701
1.134603500,183.8198,-52.17851,226.537,0.4741282,0.9595776,0.1144806,-11.67194,-44.28221,5.420662,1006.701
1.167380810,165.0594,-43.25551,231.4241,0.5127735,0.8264607,0.04575484,-11.67194,-44.28221,5.420662,1006.701
1.200158596,59.14344,-10.63635,206.7441,0.6759933,0.5758458,-0.05004556,-18.72573,-39.4276,12.68992,1006.701
1.232935429,14.168,1.063998,186.4626,0.6790481,0.308358,-0.06842276,-25.03071,-32.73357,16.88277,1006.7
1.268234730,36.71784,-1.77245,170.3351,0.8082558,0.05761183,-0.2122785,-25.03071,-32.73357,16.88277,1006.698
1.301011562,77.40695,5.023208,147.1823,0.8695102,0.03400533,-0.1786929,-29.21024,-26.45068,18.03283,1006.696
1.333789349,44.9799,15.95535,122.8078,0.8540092,0.06022405,0.03839855,-31.87299,-20.2432,18.37382,1006.696
1.366566658,19.69675,13.178,107.7799,0.7298489,-0.1809846,0.169987,-31.87299,-20.2432,18.37382,1006.696
1.399344444,12.30437,12.94163,82.36688,0.8026865,-0.1818547,0.1674087,-34.15179,-15.06321,19.16569,1006.693
1.434642792,-10.61819,14.89169,54.14375,0.66995,-0.09833349,0.2210288,-35.31912,-11.05773,18.66895,1006.693
1.467420578,-6.890945,7.505101,43.33099,0.77199,-0.1504282,0.1010062,-35.31912,-11.05773,18.66895,1006.691
1.500197411,17.39828,1.418555,33.98438,0.7863939,-0.08668702,0.07488246,-36.45941,-8.510001,18.19514,1006.686
1.532975197,10.06803,-3.249767,23.47707,0.8640757,-0.0882012,0.04389336,-36.85842,-6.626204,18.16601,1006.686
1.568273544,6.030177,-6.795329,20.30044,0.9947056,-0.1162227,-0.08056558,-36.85842,-6.626204,18.16601,1006.685
1.601051331,7.95592,-1.181523,16.32965,1.0628,-0.1850796,-0.1889297,-36.87194,-5.89733,18.15455,1006.683
1.633828640,17.27404,2.600408,14.13045,1.118987,-0.1312176,-0.2151377,-36.15731,-5.170201,18.14215,1006.681
1.666606426,2.862017,18.85089,11.50362,1.090968,-0.1706287,-0.1057427,-36.15731,-5.170201,18.14215,1006.681
1.699383259,1.184756,26.76931,8.510257,0.9676347,-0.1408208,0.0567238,-36.89826,-4.433638,18.56674,1006.681
1.734682560,1.49536,27.89207,3.37878,0.8466525,-0.09502634,0.1339596,-36.9072,-4.087033,17.25567,1006.681
1.767459392,-8.568206,20.68277,1.729376,0.8776751,-0.07893959,0.09872237,-36.9072,-4.087033,17.25567,1006.681
1.800237179,-19.99843,15.65989,1.546109,0.7665166,-0.07626217,0.1971798,-37.29291,-3.003888,16.43089,1006.679
1.833014488,-21.79993,6.855081,-2.8523,0.7122006,-0.1004095,0.2218945,-37.64419,-3.737833,16.00771,1006.673
1.868313312,-54.2891,2.42313,-12.93199,0.8166546,-0.1269358,0.2038763,-37.64419,-3.737833,16.00771,1006.673
1.901090622,-93.42519,3.132242,-26.61593,0.8823917,-0.1937005,0.2591776,-38.00224,-4.107342,15.57879,1006.673
1.933868408,-100.3206,4.905023,-39.81116,0.9457237,-0.3061006,0.1282664,-37.6186,-5.207469,15.1604,1006.672
1.966645241,-89.20097,6.914174,-51.17371,1.041697,-0.2513742,0.03842302,-37.6186,-5.207469,15.1604,1006.672
1.999423027,-122.1871,15.30533,-84.95593,1.042506,-0.3791569,0.08193624,-37.22104,-7.103154,14.31931,1006.672
2.034721375,-108.4584,24.93744,-117.3331,0.8994305,-0.2600609,0.01085456,-37.15623,-10.77045,12.69833,1006.672
2.067499161,-92.24489,32.79677,-135.9653,0.9296507,-0.1019387,0.02065316,-36.72746,-14.43947,11.01471,1006.672
2.100276470,-113.1796,45.02895,-165.8989,0.8682017,0.01106146,0.02544221,-36.72746,-14.43947,11.01471,1006.67
2.133054256,-91.25096,58.02934,-177.3836,0.7644529,0.1445643,0.01778529,-35.1871,-19.28214,8.104652,1006.67
2.168352604,0.1908235,44.31984,-155.5748,0.5080548,0.5785415,0.1193067,-32.52267,-25.89566,4.72361,1006.666
2.201130390,-12.85454,29.72395,-156.5523,0.8073618,0.7305987,0.2642202,-32.52267,-25.89566,4.72361,1006.666
2.233907223,-84.85252,54.48378,-164.5549,0.9165549,0.5628896,0.3190892,-28.7963,-30.73083,2.743115,1006.666
2.266685009,-85.53585,50.52457,-151.3597,0.6794342,0.646755,0.4076144,-25.0188,-35.15456,-0.2386835,1006.666
2.299462318,-100.8797,48.6927,-141.5855,0.6384043,0.9482111,0.3836707,-25.0188,-35.15456,-0.2386835,1006.667
2.334761143,-128.9583,66.59779,-127.0463,0.5693744,0.7771927,0.3869803,-19.86825,-38.57707,-5.28976,1006.667
2.367538452,-98.27061,59.38847,-101.3889,0.5405138,0.8877983,0.498558,-15.76932,-40.83202,-9.549584,1006.669
2.400316238,-118.2114,80.54366,-93.38622,0.5453555,0.6729538,0.4141507,-15.76932,-40.83202,-9.549584,1006.669
2.433093071,-75.2238,83.20283,-77.80852,0.3641864,0.5100121,0.5231323,-11.76632,-41.27654,-14.7082,1006.671
2.468392372,-1.051592,57.14295,-69.86695,0.3332379,0.6855034,0.6529089,-6.986559,-40.98218,-19.00908,1006.673
2.501169205,15.22405,47.33357,-61.37558,0.3424956,0.9002429,0.7753106,-6.986559,-40.98218,-19.00908,1006.674
2.533946991,3.296862,37.05144,-47.8749,0.2933262,0.9721029,0.8725539,-2.984615,-41.01556,-20.7547,1006.674
2.566724301,-2.045525,22.21918,-28.9984,0.2735784,0.8971606,0.8351675,-0.06523442,-41.38697,-20.75272,1006.674
2.599502087,-15.7121,13.35528,-12.99308,0.273623,0.8665397,0.7740806,-0.06523442,-41.38697,-20.75272,1006.674
2.634800434,-12.79242,7.209637,-0.4087392,0.2734935,0.7028862,0.7030861,1.828628,-42.1263,-21.1788,1006.675
2.667578220,22.05734,-4.84527,4.844916,0.273125,0.6501595,0.685356,2.913372,-41.77043,-21.62105,1006.677
2.700355530,12.3665,-4.017972,4.661649,0.2996186,0.7349475,0.6596532,2.913372,-41.77043,-21.62105,1006.681
2.733132839,-6.766703,2.541316,2.034822,0.2735994,0.6413986,0.6155707,2.92086,-42.12892,-21.18021,1006.682
2.768431663,0.1287028,3.900447,-3.585368,0.2575952,0.6309636,0.6050343,2.179909,-41.39235,-20.75562,1006.682
2.801209450,-2.977336,7.859657,-10.30516,0.2434389,0.6655389,0.6213821,2.179909,-41.39235,-20.75562,1006.678
2.833986282,-6.269737,9.986993,-12.50436,0.2530541,0.7136198,0.6602772,2.914099,-41.76448,-21.18594,1006.678
2.866764069,-11.48788,11.87796,-10.42734,0.2709998,0.7250717,0.6746582,2.920133,-42.13486,-21.61532,1006.68
2.899541378,-8.816689,10.69611,-8.655757,0.2486768,0.7235749,0.6963747,2.920133,-42.13486,-21.61532,1006.682
2.934840202,-1.859162,6.145969,-5.051505,0.2262647,0.755539,0.6973424,4.005604,-41.77304,-21.62246,1006.682
2.967617512,-14.28332,5.909598,-1.325075,0.2355375,0.7351341,0.6935002,4.36292,-41.40948,-21.62866,1006.682
3.000395298,-10.80455,4.609559,0.7519521,0.2327741,0.670275,0.68494,5.097836,-41.77566,-21.62387,1006.682
3.033172131,-0.4303842,1.595833,0.1410619,0.2381603,0.652333,0.689768,5.097836,-41.77566,-21.62387,1006.68
3.068471432,-3.350061,2.836779,-1.874876,0.2279352,0.6614044,0.6758189,4.724818,-41.42818,-22.93447,1006.68
3.101248264,-4.09551,3.664077,-3.951902,0.2182568,0.6492113,0.6850062,5.08286,-41.05867,-22.50556,1006.68
3.134026051,4.849882,2.600408,-4.868237,0.2162725,0.6667213,0.6840218,5.08286,-41.05867,-22.50556,1006.68
3.166803360,4.415037,3.664077,-5.418039,0.223534,0.6760356,0.6839905,4.724818,-41.42818,-22.93447,1006.682
3.199581146,0.9362729,3.30952,-5.234772,0.2273557,0.7043825,0.693566,5.453699,-41.42398,-22.5003,1006.682
3.234879494,-5.151563,4.314095,-5.418039,0.2205854,0.6896045,0.6777194,5.453699,-41.42398,-22.5003,1006.683
3.267657280,-7.946998,6.145969,-6.57873,0.213306,0.6870819,0.6738896,5.095656,-41.79349,-22.92921,1006.683
3.300434113,-17.57572,8.39149,-7.983778,0.2079263,0.7066422,0.6916832,5.454426,-41.41804,-22.06518,1006.683
3.333211899,-18.94238,9.986993,-9.022291,0.1949529,0.6495742,0.6951695,5.454426,-41.41804,-22.06518,1006.685
3.365989208,-10.49395,7.682379,-8.961202,0.1813541,0.6569938,0.7279232,6.173017,-41.07828,-23.75014,1006.687
3.401288033,-1.237954,3.604984,-4.623882,0.179342,0.6912436,0.7529071,6.173017,-41.07828,-23.75014,1006.689
3.434065342,4.539278,0.5321642,-1.202896,0.1759396,0.6886361,0.7322206,6.173017,-41.07828,-23.75014,1006.686
3.466843128,3.545345,-1.476987,0.6297741,0.1861287,0.6896082,0.7196795,6.530333,-40.71471,-23.75634,1006.686
3.499619961,0.06658199,0.0003300849,1.179575,0.1910466,0.657284,0.6879467,6.887649,-40.35115,-23.76254,1006.688
3.534919262,2.365051,1.300369,-0.7752733,0.1813677,0.645588,0.6985773,6.887649,-40.35115,-23.76254,1006.69
3.567696095,-0.9894713,1.300369,-1.874876,0.1807927,0.6886365,0.7264327,6.89441,-40.71558,-23.75681,1006.69
3.600473881,0.5635482,0.4730715,-0.4698282,0.1783626,0.6890865,0.724031,6.900445,-41.08596,-24.18619,1006.69
3.666028976,2.862017,-0.4724114,-0.2254722,0.1822759,0.6734034,0.7052723,6.89441,-40.71558,-23.75681,1006.687
3.701327324,2.054447,0.4139789,-0.5309172,0.1905675,0.6583912,0.7076821,6.901171,-41.08002,-23.75108,1006.689
3.734105110,6.961988,-0.2951333,-0.4087392,0.1778885,0.6862305,0.734145,6.901171,-41.08002,-23.75108,1006.689
3.766881943,2.240809,-0.0587626,-0.5920063,0.1870943,0.6890255,0.704756,7.251726,-40.35202,-23.76301,1006.691
3.799659729,0.9362729,0.05942276,-0.7141843,0.1813074,0.67091,0.6980579,6.895137,-40.70964,-23.3217,1006.691
3.834958076,3.483225,-0.1178553,-0.9585404,0.1734704,0.7011011,0.7066955,6.895137,-40.70964,-23.3217,1006.693
3.867735863,-0.9894713,0.3548862,0.446507,0.1851258,0.6992067,0.700413,7.259214,-40.71051,-23.32217,1006.693
3.900513172,1.246877,0.5321642,0.8130412,0.1846756,0.6861165,0.7095797,6.901898,-41.07408,-23.31597,1006.694
3.933290005,-4.09551,0.4730715,-0.1643832,0.1900514,0.6685177,0.6937085,6.901898,-41.07408,-23.31597,1006.694
3.966067791,-0.3061427,0.3548862,-0.4698282,0.1745296,0.6610659,0.6913497,6.901794,-41.07492,-23.37813,1006.696
4.001366138,-0.05765956,-0.176948,-0.8363623,0.1807698,0.6933292,0.7009135,6.901171,-41.08002,-23.75108,1006.696
4.034143925,1.557481,0.1776081,-0.5920063,0.1759641,0.6723499,0.701438,6.901171,-41.08002,-23.75108,1006.698
4.066921234,2.924138,0.1185154,-0.2865612,0.1793289,0.6875029,0.705258,6.901171,-41.08002,-23.75108,1006.695
4.099699020,0.7499105,0.1776081,0.07997292,0.1763948,0.6957413,0.7028457,6.89576,-40.70454,-22.94875,1006.695
4.134997368,3.1105,0.3548862,0.07997292,0.1769365,0.6713672,0.6990303,6.901171,-41.08002,-23.75108,1006.697
4.167775154,0.8741521,0.0003300849,-0.5920063,0.1812437,0.6987073,0.7033111,6.901171,-41.08002,-23.75108,1006.697
4.200551987,0.4393067,0.2957935,-0.2865612,0.1807783,0.6894196,0.698994,7.629326,-41.08177,-23.75202,1006.699
4.233329773,6.092298,0.7094423,-0.2865612,0.17938,0.6665809,0.7081776,7.278771,-41.80977,-23.74009,1006.699
4.266107082,2.613534,-0.2360406,-0.7752733,0.1827166,0.6924049,0.7057239,7.278771,-41.80977,-23.74009,1006.699
4.301405907,2.613534,0.4730715,-0.4698282,0.1773971,0.6815888,0.6975697,7.259837,-40.70542,-22.94922,1006.699
4.334183216,7.148351,0.05942276,-0.7752733,0.1710799,0.6849957,0.7048,6.909282,-41.43342,-22.93729,1006.699
4.366961002,-0.3682634,0.4139789,-1.202896,0.1822167,0.6957129,0.6917607,6.909282,-41.43342,-22.93729,1006.699
4.399737835,0.1287028,0.4730715,-0.04220513,0.1865494,0.7113276,0.6907641,7.266598,-41.06985,-22.94349,1006.699
4.435037136,0.9983937,0.5321642,-0.04220513,0.1749525,0.6893877,0.7014146,7.63889,-41.42328,-22.068,1006.701
4.467813969,-0.9894713,0.5321642,-0.4698282,0.174433,0.7019861,0.6927324,7.63889,-41.42328,-22.068,1006.696
4.500591755,-1.424317,0.945813,0.2021509,0.1768782,0.694701,0.6927375,7.268051,-41.05797,-22.07326,1006.696
4.533369064,2.675654,0.5321642,0.07997292,0.1774101,0.6772457,0.7033526,7.272737,-41.43939,-23.31071,1006.698
4.566146851,5.408969,-0.8269675,-0.4087392,0.172979,0.7025214,0.7013996,7.272737,-41.43939,-23.31071,1006.698
4.601445198,3.172621,-0.176948,-0.4087392,0.1729754,0.7009497,0.685517,7.273359,-41.43429,-22.93776,1006.7
4.634222984,1.930205,0.2957935,-0.1643832,0.1787729,0.7141781,0.6898156,7.637437,-41.43517,-22.93823,1006.7
4.666999817,-1.237954,0.3548862,0.324329,0.180724,0.7092806,0.6835606,7.637437,-41.43517,-22.93823,1006.702
4.699777603,-0.8652297,1.300369,0.1410619,0.1773892,0.6829796,0.6874591,6.916043,-41.79786,-22.93156,1006.702
4.735076427,-0.2440219,0.3548862,-0.1032941,0.1749261,0.6995818,0.6965857,7.273359,-41.43429,-22.93776,1006.705
4.767853737,-0.8031089,0.6503496,-0.1032941,0.176881,0.6937336,0.6937017,7.273359,-41.43429,-22.93776,1006.705
4.800631046,2.986258,0.5321642,-0.1032941,0.1730414,0.6742001,0.6908521,7.644925,-41.79366,-22.49739,1006.705
4.833408356,2.675654,0.0003300849,-0.5309172,0.1715234,0.7000004,0.6908168,6.915421,-41.80295,-23.30451,1006.705
4.866185665,2.427171,0.2957935,-0.3476502,0.174423,0.7028396,0.6754021,6.915421,-41.80295,-23.30451,1006.705
4.901484489,3.234741,-0.0587626,-0.2254722,0.1739043,0.7194916,0.6893377,6.91677,-41.79191,-22.49645,1006.707
4.934262276,-1.548558,0.7094423,0.2632399,0.1826775,0.704927,0.685488,7.274086,-41.42835,-22.50265,1006.707
4.967039108,0.5635482,0.945813,-0.1643832,0.1725115,0.6901709,0.6768699,7.274086,-41.42835,-22.50265,1006.703
4.999816895,5.719573,1.714018,-0.1032941,0.1817615,0.6815349,0.6845626,7.274086,-41.42835,-22.50265,1006.703
5.035115242,22.30582,-0.5315041,-2.119232,0.1654194,0.6021808,0.6389916,6.910736,-41.42153,-22.06706,1006.703
5.067893028,85.04781,-14.95012,17.30708,0.1949376,0.6690369,0.7625309,6.560907,-42.14359,-21.62002,1006.703
5.100670338,256.8117,-46.86017,68.98839,0.2192607,0.8396441,0.6837541,6.560907,-42.14359,-21.62002,1006.703
5.133448124,312.2235,-74.51554,113.7055,0.3547475,1.62488,0.5388034,7.302986,-42.45118,-17.32627,1006.703
5.166224957,186.2426,-57.96959,149.9313,0.420211,1.645766,0.4519716,3.391922,-46.2916,-5.634378,1006.703
5.201524258,196.5546,-52.35579,206.3776,0.4031749,1.408589,0.1938782,3.391922,-46.2916,-5.634378,1006.703
5.234301090,199.1637,-40.41906,230.5077,0.4491898,1.436484,0.08782742,-2.100216,-46.94486,3.398191,1006.703
5.267078877,121.14,-12.52732,233.9898,0.4522169,0.959452,-0.01736036,-10.56891,-44.19651,11.88377,1006.697
5.299856186,104.7401,0.6503496,227.1478,0.4609567,0.534227,-0.1033853,-10.56891,-44.19651,11.88377,1006.695
5.335155010,78.33876,3.486798,202.1013,0.5281201,0.4917538,0.01156485,-16.85851,-38.28616,16.52415,1006.693
5.367932320,40.44509,8.096026,181.0256,0.6549078,0.250206,-0.06731514,-24.31037,-31.95974,20.2891,1006.693
5.400710106,63.05705,3.30952,162.088,0.7242741,0.08200401,-0.03545627,-24.31037,-31.95974,20.2891,1006.693
5.433486939,40.69357,1.300369,128.428,0.8017834,-0.03180461,0.03432887,-27.70168,-25.68383,21.06519,1006.693
5.466264248,7.645317,-2.777026,102.4652,0.8013841,-0.05975488,0.0776945,-30.77567,-20.20421,21.41819,1006.689
5.501563072,7.831679,-15.36377,81.75599,0.776831,-0.1541552,0.04949467,-30.77567,-20.20421,21.41819,1006.687
5.534340382,27.3376,-23.87311,58.05345,0.8504866,-0.1079113,-0.04268982,-32.31352,-15.76079,21.78547,1006.686
5.567118168,30.63,-11.52274,40.94852,0.9396873,-0.07860567,-0.2080526,-33.10794,-12.10364,22.53717,1006.686
5.599895001,54.36014,-3.486138,38.07734,0.9264283,-0.02800582,-0.2697118,-33.10794,-12.10364,22.53717,1006.686
5.632672787,43.79961,3.95954,31.47973,1.085616,-0.01628898,-0.3870779,-33.12074,-11.36882,22.96082,1006.684
5.700748920,66.53581,43.43345,38.74932,1.067574,-0.04642922,-0.7075766,-33.91577,-7.716758,23.33957,1006.684
5.733526230,46.78141,88.34389,29.70815,1.12933,0.07769158,-0.9327061,-33.93075,-6.999772,22.45789,1006.684
5.766304016,-1.921283,169.7736,27.26459,1.192576,-0.2855755,-1.489725,-35.05927,-5.125268,21.62163,1006.684
5.801602364,-13.66211,371.5161,-0.1032941,0.738238,0.03173476,-1.608504,-35.05927,-5.125268,21.62163,1006.684
5.834380150,-110.322,570.7175,10.34293,0.1359406,0.07221631,-0.7358715,-36.92353,-3.381085,15.56592,1006.682
5.867156982,-22.17266,532.9572,28.36419,-0.1039384,-0.3936036,-1.037858,-39.94598,-2.097075,2.307015,1006.679
5.899934769,-174.4307,-175.5049,111.262,0.1197945,0.02991429,3.006818,-39.94598,-2.097075,2.307015,1006.68
5.932712078,103.8704,5.141393,6.860854,0.7825522,-1.087134,0.2804968,-39.98463,-1.573689,-12.74688,1006.68
5.968010902,7.521075,50.64276,-30.89216,0.8284581,1.014519,1.146078,-38.95928,2.074007,-12.37048,1006.682
6.000788212,-30.3726,-40.00542,-4.379526,0.6391167,-0.09780856,0.7539687,-38.50821,0.6092968,-12.78321,1006.682
6.033565044,-51.86639,-50.76028,-4.012991,0.7739819,-0.5385481,0.3162738,-38.50821,0.6092968,-12.78321,1006.682
6.066342831,14.29224,-26.65047,-25.0887,0.5844683,-0.6120356,0.6922962,-39.66039,0.6180034,-12.34662,1006.68
6.101641178,-0.05765956,-53.59673,-44.69828,0.4899667,-0.2467825,0.8719991,-39.65072,0.2773428,-10.60044,1006.68
6.134418964,-44.7225,-68.78355,-59.72618,0.6739962,-0.3099235,0.5356673,-39.65072,0.2773428,-10.60044,1006.68
6.167196274,-47.82854,-56.01953,-75.36496,0.5546411,-0.3650053,0.4623851,-40.36328,-0.4328032,-9.344863,1006.676
6.199974060,-16.95451,-63.46521,-91.7979,0.4797491,-0.3047859,0.5274557,-40.68316,-2.588833,-7.134455,1006.676
6.232750893,-14.15908,-71.97456,-110.0635,0.563457,-0.1879803,0.4847214,-40.68316,-2.588833,-7.134455,1006.676
6.268050194,-37.01952,-60.03783,-133.0941,0.6569373,-0.1014567,0.4179413,-41.00386,-4.751657,-5.421317,1006.676
6.300827026,-11.67424,-57.61504,-143.5403,0.677636,-0.03339345,0.3754298,-40.18909,-9.151722,-2.741871,1006.676
6.333604813,-18.25905,-56.90592,-157.8351,0.731602,0.1347965,0.3336512,-40.18909,-9.151722,-2.741871,1006.676
6.366382122,-51.43154,-44.55555,-173.8405,0.7380759,0.2585897,0.2679841,-39.72141,-14.60132,-1.351056,1006.676
6.401680946,-83.23738,-33.20976,-197.543,0.8414856,0.2526291,0.1969876,-37.37913,-19.75852,-0.4647143,1006.676
6.434458256,-61.49511,-15.48195,-192.045,0.6135336,0.5483197,0.1990081,-37.37913,-19.75852,-0.4647143,1006.676
6.467236042,-92.61761,-0.5905967,-198.215,0.7957849,0.6796715,0.1685334,-33.62342,-25.96267,-0.3720028,1006.676
6.500012875,-108.8933,47.27448,-198.8259,0.6906494,0.6001,0.2685446,-29.15693,-31.5412,-3.274359,1006.674
6.532790184,-65.09811,47.45175,-176.8338,0.3861411,0.8345635,0.3127174,-29.15693,-31.5412,-3.274359,1006.675
6.568089485,-74.91319,68.01601,-156.6134,0.5627099,0.9327692,0.4252706,-22.84045,-35.62952,-7.943465,1006.674
6.600866318,-128.5234,87.51659,-141.4633,0.3582447,0.7728398,0.5752187,-16.89753,-39.02505,-10.88216,1006.675
6.633644104,-122.0007,94.43044,-134.9879,0.333485,0.5600546,0.5423842,-16.89753,-39.02505,-10.88216,1006.675
6.666421413,-105.1039,97.03052,-122.4035,0.2267964,0.7123146,0.5741776,-10.69052,-40.57406,-16.46152,1006.677
6.701720238,-138.4627,112.5128,-103.527,0.1687571,0.8593601,0.7781911,-4.457353,-40.30697,-22.50472,1006.679
6.734497547,-178.1579,121.4358,-87.27732,0.1679809,0.6330953,1.089494,-4.457353,-40.30697,-22.50472,1006.681
6.767275333,-209.4668,83.32101,-131.689,0.2706902,0.2621664,1.834957,1.400391,-39.2923,-27.25358,1006.684
6.800052166,-21.79993,-20.62302,38.44387,-0.02909258,1.303277,1.538543,7.516309,-36.05986,-34.15156,1006.684
6.832829952,-42.92099,-19.02751,38.99368,-0.01957159,0.1957176,0.6824029,7.516309,-36.05986,-34.15156,1006.686
6.868128300,-74.60259,-10.34089,19.13975,0.09469669,0.08955196,0.476269,11.16367,-33.15324,-34.20218,1006.681
6.900906086,-5.462167,-0.2951333,10.58728,0.104722,-0.04082986,0.4851063,8.897517,-32.06049,-34.65158,1006.685
6.933683395,44.91778,3.900447,-11.28258,0.1461115,0.3997652,0.9002407,8.139411,-30.62477,-36.41401,1006.685
6.966460228,1.681722,11.40522,-24.11128,0.1545525,0.5663999,1.109843,8.139411,-30.62477,-36.41401,1006.685
7.001759529,18.20585,3.486798,-9.205558,0.08943731,0.360525,0.9986319,8.161148,-31.70619,-35.52659,1006.688
7.034536362,35.59967,-6.086216,8.388079,0.09776822,0.5395778,1.033,9.612149,-31.33336,-34.66398,1006.687
7.067314148,16.03162,-8.863573,8.876791,0.1096778,0.4012286,0.8743312,9.612149,-31.33336,-34.66398,1006.684
7.100091457,10.00591,-3.663416,4.906005,0.08884825,0.3700102,0.8224407,9.254833,-31.69693,-34.65778,1006.686
7.132869244,29.63607,-5.318011,0.07997292,0.1125007,0.4321649,0.8372132,8.1911,-33.14017,-33.76323,1006.686
7.168167591,18.26797,0.1776081,-3.768635,0.1125003,0.4452929,0.9041026,8.1911,-33.14017,-33.76323,1006.686
7.200945377,23.98308,-1.831543,-1.386163,0.1216505,0.4765162,0.9006643,8.932777,-33.87079,-33.75271,1006.688
7.233722210,21.68461,-2.481562,1.607198,0.1118551,0.5109839,0.8963034,9.298307,-33.85977,-32.88295,1006.688
7.266499996,11.37256,-0.8269675,1.057397,0.1138635,0.477181,0.8655424,9.298307,-33.85977,-32.88295,1006.689
7.301798344,24.16944,-1.181523,0.9352192,0.1232259,0.4137269,0.8343273,7.863009,-34.94365,-32.42877,1006.689
7.334576130,37.83601,-5.022548,-1.935965,0.09684185,0.4882375,0.8650847,8.228436,-34.93348,-31.62118,1006.689
7.367353439,35.22694,-5.318011,-4.562793,0.1143488,0.4751599,0.8544729,8.228436,-34.93348,-31.62118,1006.691
7.400130272,52.18591,-6.736236,-3.951902,0.112831,0.4949016,0.8236396,8.607489,-35.65134,-30.73997,1006.687
7.432908058,54.73286,-8.981758,-3.157745,0.1159928,0.5947704,0.8234816,8.629952,-36.72682,-29.41744,1006.687
7.468206406,44.73142,-6.145309,-3.46319,0.1290974,0.5887274,0.7791744,8.629952,-36.72682,-29.41744,1006.689
7.500984192,62.3116,-7.090792,-1.691609,0.1319906,0.59197,0.751725,8.654166,-37.85794,-27.72101,1006.689
7.533761501,46.34656,-8.863573,-3.829724,0.1311039,0.7619818,0.7577286,8.313279,-38.92661,-25.9629,1006.69
7.566539288,11.1862,-2.954304,-0.7752733,0.1496776,0.7074717,0.740919,8.313279,-38.92661,-25.9629,1006.69
7.599316120,15.41041,-1.654265,1.973732,0.1303263,0.6720561,0.7140621,7.964905,-39.63678,-24.64564,1006.692
7.634615421,5.098365,-1.299709,1.179575,0.1191821,0.6667798,0.7391272,7.985916,-40.72414,-24.19333,1006.69
7.667392254,13.98164,-3.190675,-2.180321,0.1270214,0.6189435,0.6443525,7.985916,-40.72414,-24.19333,1006.69
7.700170040,10.13015,0.6503496,-3.707546,0.1204122,0.7632634,0.7447553,7.629326,-41.08177,-23.75202,1006.688
7.732947349,12.18013,-1.417894,-3.890813,0.1260922,0.6195949,0.7391819,7.987369,-40.71226,-23.32311,1006.688
7.768245697,21.68461,-7.090792,-1.813787,0.1235755,0.6570791,0.7396128,7.987369,-40.71226,-23.32311,1006.688
7.801023483,22.80279,-6.854421,-0.7752733,0.1346506,0.6865293,0.6889992,7.987992,-40.70716,-22.95016,1006.688
7.833800316,2.551413,-3.545231,-4.257348,0.1467188,0.7234054,0.7245357,8.373806,-41.78946,-22.06321,1006.69
7.866578102,0.1287028,-4.786177,-8.044867,0.145015,0.6260943,0.7405714,8.373806,-41.78946,-22.06321,1006.69
7.899355412,37.46329,-9.218129,-7.861599,0.1119112,0.6497415,0.6789999,8.015763,-42.15897,-22.49213,1006.69
7.934654236,42.49507,-12.29095,-4.74606,0.1106836,0.7613965,0.698089,8.380567,-42.1539,-22.05748,1006.692
7.967431545,15.34829,-8.213553,-4.196259,0.1470275,0.7827713,0.6464649,7.655319,-42.12838,-20.3161,1006.692
8.000209332,6.527143,-6.263494,-2.8523,0.1453986,0.8553294,0.6468408,7.655319,-42.12838,-20.3161,1006.693
8.032986641,-17.32724,0.6503496,-3.341012,0.1674303,0.7770201,0.6353539,8.762527,-42.84798,-19.43582,1006.693
8.068285465,-16.89239,-3.486138,-4.868237,0.1884859,0.7122643,0.6830564,8.403757,-43.22343,-20.29985,1006.689
8.101062775,-29.75139,-6.38168,-6.151107,0.1345698,0.7276974,0.7260021,8.403757,-43.22343,-20.29985,1006.691
8.133839607,-38.82103,-3.95888,-10.67169,0.09846788,0.5828118,0.6656546,8.40303,-43.22937,-20.73496,1006.691
8.166617394,-28.63322,-8.627202,-17.51366,0.07341287,0.7129225,0.7059522,7.645651,-41.78772,-22.06227,1006.691
8.199394703,-53.85425,-4.313436,-18.49109,0.09083309,0.7399084,0.7135721,7.645651,-41.78772,-22.06227,1006.691
8.234693527,-35.90135,-4.608899,-18.55218,0.1145698,0.5538611,0.6853958,8.715523,-40.714,-23.32405,1006.693
8.267470837,13.36043,-10.69545,-19.59069,0.08930283,0.5685325,0.724424,9.421213,-39.64027,-24.64751,1006.693
8.300248623,12.05589,-10.57726,-14.88684,0.0888705,0.7612964,0.7799724,9.421213,-39.64027,-24.64751,1006.694
8.333025456,11.93165,-9.099943,-6.639819,0.134951,0.7588995,0.6600077,9.784564,-39.64708,-25.0831,1006.698
8.368324757,-46.39976,0.0003300849,-3.890813,0.1543213,0.788551,0.6984259,10.50741,-39.27251,-24.21954,1006.696
8.401101589,-71.49655,8.036934,-6.884175,0.123425,0.716349,0.7183439,10.50741,-39.27251,-24.21954,1006.696
8.433878899,-64.04206,7.386915,-10.36625,0.1219656,0.5112277,0.7090293,10.14791,-39.6539,-25.51868,1006.7
8.466656685,-20.4954,3.95954,-9.69427,0.1675665,0.5276134,0.6992692,10.89255,-37.49889,-27.72964,1006.696
8.499433518,-50.74821,7.26873,-2.302499,0.08578339,0.8681722,0.954553,10.89255,-37.49889,-27.72964,1006.696
8.534732819,-76.46622,11.28703,-7.006353,0.087262,0.4124211,0.7598035,11.23459,-36.35081,-28.1212,1006.698
8.567509651,-55.59364,7.682379,-6.456552,0.06880622,0.4177584,0.7790937,11.58151,-35.65253,-30.30869,1006.698
8.600287438,-27.32868,-0.8860602,-11.64912,0.05090378,0.4196171,0.9278741,11.58151,-35.65253,-30.30869,1006.698
8.633064747,2.116567,-7.622626,-10.48843,0.04188718,0.5384724,0.9411945,12.26016,-33.12104,-31.65508,1006.698
8.668363571,-24.22264,3.486798,-14.39812,0.0897047,0.410654,0.7829057,12.60395,-32.02861,-31.67274,1006.696
8.701140881,-17.01663,1.595833,-11.28258,0.03897865,0.5375142,0.9469792,12.60395,-32.02861,-31.67274,1006.696
8.733918667,-44.84674,6.086876,-11.58803,0.09094378,0.5133402,0.8400301,12.59647,-31.67011,-32.11357,1006.696
8.766695499,-33.16803,7.859657,-13.17634,0.05383493,0.4007226,0.8686881,13.31047,-30.94808,-32.49893,1006.698
8.799472809,-9.437897,3.545891,-11.2215,0.01695638,0.3861503,0.8485804,13.31047,-30.94808,-32.49893,1006.7
8.834771633,11.31044,0.4730715,-11.16041,0.05647748,0.3000437,0.8154026,13.64751,-29.4912,-32.52232,1006.7
8.867548943,41.00417,-6.854421,-15.19228,-0.02020736,0.5156276,0.9524475,13.63243,-28.77506,-33.46616,1006.701
8.900326729,18.39221,-6.145309,-19.04089,0.1194487,0.5896308,0.9207163,13.63243,-28.77506,-33.46616,1006.701
8.968402863,30.19516,-11.22728,-16.71951,-0.02087822,0.3839315,0.92521,14.74712,-29.85316,-32.14505,1006.7
9.001179695,22.74067,-11.40456,-18.79653,0.05251531,0.5447806,0.854996,16.18918,-29.13372,-32.59349,1006.695
9.033957481,7.148351,-7.504441,-24.41672,0.008485735,0.4796876,0.862419,16.18918,-29.13372,-32.59349,1006.695
9.066734791,18.57857,-9.395407,-16.59733,0.1015282,0.555337,0.8433112,15.476,-29.84896,-31.71087,1006.695
9.099511623,27.15124,-4.963455,-12.07674,0.1080996,0.6473179,0.8253466,16.5569,-29.10488,-30.41841,1006.697
9.134810925,21.68461,-2.42247,-6.395463,0.07260121,0.6694454,0.8282856,16.5569,-29.10488,-30.41841,1006.697
9.167587757,2.427171,0.7094423,-0.7752733,0.07703924,0.633164,0.7883767,16.20561,-29.83882,-30.84159,1006.695
9.200365543,-3.225819,5.968691,0.2021509,0.05113878,0.5081376,0.8401324,17.29785,-29.84144,-30.843,1006.699
9.233142853,15.59678,0.8276276,-1.386163,-0.01092628,0.4807038,0.8918266,17.29785,-29.84144,-30.843,1006.699
9.268441677,20.06947,-4.667992,0.507596,0.05649029,0.5093539,0.8685181,16.9345,-29.83462,-30.40742,1006.699
9.301218987,27.58609,-4.490714,-1.508342,0.03862123,0.4602066,0.8262748,16.93522,-29.82868,-29.97231,1006.699
9.333996773,69.02065,-6.204401,-1.447253,0.01438809,0.4344443,0.7926758,16.93522,-29.82868,-29.97231,1006.701
9.366774082,63.67826,-12.40913,-0.4087392,0.07213324,0.6596137,0.8157862,16.95769,-30.90416,-28.64978,1006.702
9.399550915,55.35407,-8.863573,1.790465,0.04105155,0.6486616,0.7489671,16.61524,-31.98556,-27.82406,1006.704
9.434850216,82.43873,-8.686295,1.729376,0.02547501,0.6656113,0.7537921,16.61524,-31.98556,-27.82406,1006.704
9.467627049,49.14199,-6.263494,3.439869,0.01930501,0.8051652,0.7285656,16.28039,-33.4246,-26.49533,1006.704
9.500404835,30.56788,-3.663416,5.333628,0.05631359,0.7581245,0.7131451,15.93419,-34.11694,-23.87273,1006.706
9.533182144,39.886,-5.081641,4.722738,0.07586924,0.6982349,0.6920091,15.93419,-34.11694,-23.87273,1006.704
9.565959931,31.99666,-6.558958,6.738676,0.05281251,0.8024657,0.7203071,15.96259,-35.56365,-23.04175,1006.706
9.601258278,-7.512153,-0.176948,3.806403,0.08558447,0.6923142,0.6693709,15.60673,-35.91533,-22.16533,1006.706
9.634036064,18.64069,-1.004245,-1.508342,0.08134712,0.6296973,0.6348173,15.60673,-35.91533,-22.16533,1006.706
9.666812897,40.50721,-1.713358,0.446507,0.09532254,0.6912991,0.7218178,14.89886,-37.00689,-22.14719,1006.706
9.699590206,21.9331,-3.072489,1.607198,0.108322,0.7477648,0.7717636,15.61567,-36.26193,-20.85426,1006.707
9.734889030,21.43613,-8.745387,-2.363588,0.04006425,0.6529463,0.7359662,15.61567,-36.26193,-20.85426,1006.705
9.767666340,53.17985,-19.73663,-6.761997,0.008572213,0.6138697,0.6874823,15.27518,-37.39727,-19.53031,1006.711
9.800444126,65.04491,-26.05954,-16.04753,0.03731175,0.7680649,0.6246046,14.91183,-37.39046,-19.09473,1006.711
9.833220959,35.22694,-24.52313,-17.57475,-0.0166826,0.7989405,0.5770314,14.91183,-37.39046,-19.09473,1006.713
9.865998745,44.6693,-28.54144,-20.01831,0.03274867,0.8170338,0.4579905,15.29296,-38.09134,-16.97034,1006.709
9.901297092,47.34049,-25.29134,-17.94129,0.0722345,0.956659,0.4581678,15.65994,-38.06844,-15.23036,1006.71
9.934074402,13.36043,-18.08203,-20.14049,0.1100601,0.9754082,0.4474599,15.66816,-38.42098,-14.35441,1006.714
9.966852188,-11.11516,-11.99549,-15.98644,0.09556875,0.9471731,0.4667912,15.66816,-38.42098,-14.35441,1006.714
9.999629021,-0.05765956,-11.52274,-15.00901,0.06100947,0.7738431,0.4464359,16.38341,-37.68876,-13.99386,1006.714
10.034928322,15.41041,-13.05915,-15.25337,0.04807789,0.9073437,0.4693707,16.74146,-37.31925,-13.56494,1006.716
10.067705154,5.905935,-14.89103,-11.58803,0.0800693,0.9481566,0.5568412,16.74146,-37.31925,-13.56494,1006.716
10.100482941,-23.60143,-5.73166,-11.09932,0.0841626,0.848407,0.4953675,17.09837,-36.889,-13.13699,1006.716
10.133260250,-11.48788,-8.154461,-18.49109,0.01337294,0.7923496,0.4335242,17.8258,-36.89669,-13.57304,1006.716
10.166038036,-15.96058,-7.327163,-19.59069,0.009215063,0.8991685,0.3910132,17.8258,-36.89669,-13.57304,1006.717
10.201336384,-7.450032,-5.849845,-18.24673,0.09070374,0.9348614,0.3830644,17.09026,-36.53561,-13.95078,1006.719
10.234113216,-4.219751,-0.4724114,-11.71021,0.06935953,0.9380405,0.4456873,17.81155,-36.17376,-14.01961,1006.721
10.266891003,9.011974,0.7094423,-4.318437,0.07137044,0.91438,0.4726744,17.81155,-36.17376,-14.01961,1006.718
10.299668312,15.41041,3.427706,0.5686851,0.02474357,0.9208696,0.4814397,18.53232,-35.81617,-14.39923,1006.718
10.334967136,0.5014274,5.200486,-1.447253,-0.02232025,0.9008383,0.4589576,18.89099,-35.44156,-13.59737,1006.718
10.367744446,-25.15445,11.87796,-0.4698282,-0.02851856,0.8611507,0.5023546,18.89099,-35.44156,-13.59737,1006.718
10.400522232,-25.46506,8.627861,-2.363588,0.0051364,0.812773,0.5788842,19.24758,-35.08394,-14.03868,1006.72
10.433299065,-11.79849,4.609559,-6.517641,0.05279828,0.762837,0.4844995,18.88288,-35.08817,-14.41116,1006.72
10.466076374,-24.34688,9.455158,-8.777935,-0.03381132,0.8472167,0.5360835,18.88288,-35.08817,-14.41116,1006.72
10.501375198,-40.68465,10.16427,-11.40476,-0.0982416,0.8010432,0.6272833,19.23874,-34.73649,-15.28759,1006.72
10.534152508,-8.195481,-0.1178553,-9.69427,0.01960472,0.8598433,0.6066979,19.96544,-34.75012,-16.15875,1006.722
10.566930294,-20.74388,3.545891,-3.46319,-0.04112783,0.8830121,0.6496482,19.96544,-34.75012,-16.15875,1006.719
10.599707604,-6.207616,-5.258919,0.6908631,0.008153626,0.7826001,0.64872,19.95264,-34.0153,-15.7351,1006.721
10.635006428,-23.7878,-3.722509,1.240664,-0.03846573,0.777083,0.611774,20.73326,-33.66465,-16.61207,1006.723
10.667783737,-16.27118,-8.154461,-0.7752733,-0.1186089,0.7901753,0.6297548,20.73326,-33.66465,-16.61207,1006.723
10.700560570,-30.06199,-6.913514,-2.913389,0.01730411,0.8148375,0.6510565,20.71829,-32.94766,-17.49375,1006.723
10.733338356,-46.46188,-1.122431,-0.4087392,-0.03582308,0.7006554,0.6840872,20.30102,-33.30513,-17.05236,1006.725
10.766115665,-33.97561,-6.38168,-5.418039,-0.06845799,0.5578771,0.7825776,20.30102,-33.30513,-17.05236,1006.726
10.801414490,-5.027322,-22.3367,-9.205558,0.08420084,0.6878923,0.8056063,19.54978,-32.233,-18.7469,1006.726
10.834191799,-9.437897,-25.52771,-5.051505,-0.003254224,0.8989783,0.7289591,19.90772,-31.86434,-18.38015,1006.726
10.866969585,-36.77104,-26.23682,-8.839024,0.01349948,0.5821965,0.6793351,19.90772,-31.86434,-18.38015,1006.726
10.899746418,-12.10909,-29.84147,-14.09268,-0.01369489,0.5677838,0.6004781,19.90106,-31.49906,-18.32372,1006.725
10.935045719,0.5014274,-26.76866,-24.29454,-0.04131838,0.5522326,0.6385946,19.89961,-31.51094,-19.19394,1006.725
10.967822552,40.56933,-33.15067,-33.58008,-0.1128711,0.6165972,0.5953447,19.52877,-31.14563,-19.1992,1006.72
11.000599861,10.06803,-28.18688,-30.34236,0.03925646,0.9827853,0.6830025,19.52877,-31.14563,-19.1992,1006.72
11.033377647,-18.81813,-20.80029,-34.49641,0.03102169,0.5547073,0.627348,21.03431,-30.40341,-17.96944,1006.72
11.066154480,34.60574,-26.65047,-47.44728,0.0003904913,0.5462393,0.4969843,21.39839,-30.40429,-17.96991,1006.72
11.101453781,64.05098,-23.51856,-52.63985,-0.05033413,0.6190659,0.3848376,21.39839,-30.40429,-17.96991,1006.722
11.134230614,95.23561,-22.45489,-53.31183,-0.0783047,0.7516444,0.4333217,22.48458,-30.03652,-17.54194,1006.724
11.167007923,120.2082,-27.00503,-46.40877,-0.07505322,1.007975,0.3804592,22.85302,-30.00173,-14.93174,1006.724
11.199785709,96.72651,-18.02294,-39.81116,-0.07972434,1.125974,0.3355258,22.85302,-30.00173,-14.93174,1006.724
11.235084057,73.92818,-14.83193,-28.4486,-0.04962297,1.344873,0.4005896,25.4208,-30.69001,-11.50484,1006.724
11.267861843,15.59678,-1.299709,-13.84832,-0.00422337,1.221232,0.2856229,26.85973,-29.57642,-9.783458,1006.721
11.300638676,12.92558,0.1185154,-3.157745,-0.1993951,1.025562,0.3975753,26.85973,-29.57642,-9.783458,1006.723
11.333416462,10.68923,-2.127006,-1.019629,-0.1806705,0.9031977,0.3582436,27.60203,-30.30194,-9.399985,1006.723
11.366193771,-20.93024,4.432281,-0.6530952,-0.05776427,0.8930027,0.4253581,27.60203,-30.30194,-9.399985,1006.723
11.401492596,-31.24229,5.082301,-8.839024,-0.060617,0.8600832,0.3873869,27.60203,-30.30194,-9.399985,1006.725
11.434269905,-62.3648,13.9462,-14.88684,-0.09669715,0.9175755,0.3637991,27.60203,-30.30194,-9.399985,1006.725
11.467046738,-77.95712,21.2146,-19.40742,-0.1357759,0.8171374,0.3953317,27.58643,-29.59005,-10.65462,1006.725
11.499824524,-58.26483,21.51007,-28.26533,-0.163891,0.8040138,0.4329644,27.58643,-29.59005,-10.65462,1006.725
11.532601833,-101.9979,28.24663,-16.53624,-0.1877949,1.290511,0.593544,28.66296,-28.88163,-11.97283,1006.725
11.567900658,-141.2582,37.64237,-9.938626,-0.2788686,0.7869721,0.5718949,29.71735,-27.0251,-13.74429,1006.727
11.600677967,-56.27696,21.45097,-8.533579,-0.3628608,0.7778578,0.5528534,29.71735,-27.0251,-13.74429,1006.727
11.633455276,-73.48442,29.25121,1.301753,-0.3704109,0.7069668,0.66321,30.84114,-25.58709,-15.01187,1006.728
11.666232586,-17.45148,17.25539,1.240664,-0.1191272,0.6154068,0.7118509,30.43214,-23.43526,-17.65645,1006.727
11.701531410,-81.43587,31.49673,2.890068,-0.008209493,0.959008,0.8227459,30.43214,-23.43526,-17.65645,1006.727
11.734308720,-100.6933,43.49254,4.539471,-0.290453,0.3768174,0.7164677,30.77593,-22.34282,-17.67411,1006.727
11.767086029,-18.25905,18.96908,1.546109,-0.3098583,0.7976739,0.8174468,31.11016,-20.90887,-19.37579,1006.724
11.799863815,-129.1446,41.4243,12.54213,-0.3648127,0.831241,0.8078993,31.11016,-20.90887,-19.37579,1006.724
11.832641125,-28.07413,25.58746,15.65767,-0.4110451,0.05089272,0.7778966,32.54546,-19.825,-19.82997,1006.722
11.867939472,54.48438,-2.42247,22.86618,-0.2074611,0.8471311,0.9427648,32.875,-18.00963,-20.2942,1006.722
11.933494091,72.87213,-4.608899,43.75862,-0.2395328,0.8136468,0.7185768,32.87646,-17.99774,-19.42398,1006.721
11.966271877,65.16916,0.8867203,53.28851,-0.2136986,0.7482265,0.5949041,31.80451,-19.08843,-19.40538,1006.721
12.001570225,60.13737,8.80514,56.77058,-0.3301333,0.2669774,0.4471648,31.8329,-20.53514,-18.57439,1006.721
12.034348011,176.3032,20.74186,50.78386,-0.06024287,0.5340862,0.5732016,31.8329,-20.53514,-18.57439,1006.721
12.067125320,-78.57832,25.82383,-3.829724,-0.2122636,1.48081,1.16421,31.15498,-23.06068,-16.7929,1006.721
12.099902153,-27.14232,21.62825,-2.913389,0.01073842,-0.2897603,0.7307175,30.49059,-26.31509,-14.99994,1006.721
12.132679939,-16.3333,27.41933,-0.4087392,-0.01917121,1.095989,0.9236514,30.49059,-26.31509,-14.99994,1006.722
12.167978287,33.92241,14.18257,-8.044867,-0.02694097,0.1998658,0.517307,32.2832,-24.86765,-15.46032,1006.722
12.200756073,121.3885,8.450583,-16.71951,-0.2260705,1.064218,0.6656988,32.64125,-24.49814,-15.03141,1006.72
12.233533382,34.72998,5.023208,4.050759,-0.3018898,1.09885,0.6942267,32.64125,-24.49814,-15.03141,1006.72
12.266311169,36.46936,7.26873,4.844916,-0.1885106,0.5686734,0.5883759,33.37293,-24.47102,-12.91895,1006.72
12.301609516,57.5283,-0.2951333,-5.173683,-0.09566772,0.9144574,0.4745145,34.1093,-24.82531,-12.04394,1006.72
12.334386349,7.024109,9.632437,-2.730122,-0.2462775,0.9876651,0.6774148,34.1093,-24.82531,-12.04394,1006.722
12.367164135,9.571061,5.495949,-4.807148,-0.2162233,0.7507265,0.3970667,34.11824,-25.17192,-10.73287,1006.722
12.399941444,7.458954,1.418555,-9.449914,-0.2725869,0.5946116,0.5673563,34.48304,-25.16685,-10.29823,1006.72
12.432719231,36.96632,5.082301,-18.61327,-0.2443655,1.184191,0.5707331,34.48304,-25.16685,-10.29823,1006.72
12.468017578,-31.98774,7.682379,-12.99308,-0.3587731,0.8618684,0.3722064,34.84171,-24.79225,-9.496366,1006.722
12.500795364,-11.67424,-2.895211,-13.35961,-0.2272654,0.3308571,0.6148198,34.47025,-24.43203,-9.874578,1006.72
12.533572197,42.49507,4.786837,-22.03425,-0.2963678,0.982506,0.4859594,34.47025,-24.43203,-9.874578,1006.718
12.566349507,-3.350061,-6.440773,-9.205558,-0.2385085,0.9478184,0.4709522,35.19091,-24.07528,-10.31636,1006.72
12.601648331,-8.257602,-0.4133187,-14.33704,-0.2966769,0.9170715,0.5317881,35.19226,-24.06425,-9.508296,1006.72
12.634425640,-6.766703,-2.42247,-17.20822,-0.3828086,0.5805908,0.5045805,35.19226,-24.06425,-9.508296,1006.72
12.667203426,18.76494,-1.358801,-17.63584,-0.2334347,0.8815667,0.6029331,35.54896,-23.70577,-9.887448,1006.716
12.699980259,-15.96058,7.386915,-13.23743,-0.2942978,0.9431017,0.5601435,36.26963,-23.34903,-10.32923,1006.718
12.732757568,-16.70603,9.04151,-20.69029,-0.2228643,0.6960475,0.4563723,36.26963,-23.34903,-10.32923,1006.718
12.768056393,3.483225,15.24624,-18.9798,-0.4064369,0.7122633,0.4875904,36.63506,-23.33886,-9.521635,1006.718
12.800833702,16.40435,6.145969,-9.022291,-0.3528701,0.8484629,0.468485,36.2561,-22.62015,-10.34069,1006.719
12.833611488,-0.8031089,13.00072,-14.70357,-0.2290514,1.046968,0.4298646,36.2561,-22.62015,-10.34069,1006.718
12.866388798,-18.07269,23.40103,-3.157745,-0.5601823,0.6683319,0.6584234,36.97146,-21.88708,-9.917977,1006.718
12.901687622,19.88311,15.24624,-1.508342,-0.4196164,0.9727174,0.6273054,36.97208,-21.88199,-9.545025,1006.719
12.934464931,-59.13452,24.87835,1.240664,-0.5295111,0.8127776,0.5219076,37.71449,-22.60666,-9.099393,1006.718
12.967241764,-12.10909,6.973267,3.134424,-0.7393008,0.6343751,0.61317,37.71449,-22.60666,-9.099393,1006.718
13.000019550,75.91605,49.87455,-1.508342,-0.9571937,0.6173733,0.8115521,36.96605,-21.51161,-9.115643,1006.718
13.032796860,5.843814,-0.7087821,33.12913,-1.623429,1.229982,0.7592592,36.97644,-21.84632,-6.934355,1006.718
13.068095684,-149.9551,-87.16137,60.06939,-1.455498,0.9640067,0.2697169,36.97644,-21.84632,-6.934355,1006.719
13.100872993,-158.4035,-162.2091,30.74666,-1.012197,0.1137389,0.03215428,36.59958,-21.11063,-6.510233,1006.719
13.133649826,-73.54654,-231.8793,-8.777935,-0.3694944,0.1767559,-0.08306646,34.42427,-21.86993,-9.106624,1006.719
13.166427612,-71.18595,-222.3063,-42.86561,0.1362216,0.2822019,-0.09549619,34.42427,-21.86993,-9.106624,1006.719
13.201725960,76.90998,-258.412,-53.49509,1.145649,0.097629,-0.1861828,30.71694,-18.62798,-12.57223,1006.719
13.234503746,379.1897,-259.2983,0.7519521,1.745829,3.595663,0.9984919,28.38204,-13.83012,-13.07989,1006.719
13.267281056,-407.8185,-37.93717,85.91004,1.420173,1.278557,-0.04709341,28.38204,-13.83012,-13.07989,1006.715
13.300057888,-329.7326,48.39724,69.72145,0.4331354,-0.5597368,0.2704221,24.34266,-12.00428,-13.53848,1006.715
13.332835674,42.06023,16.07354,40.88744,-0.06416056,-0.3902583,1.006867,21.03281,-11.00841,-21.25914,1006.715
13.368134022,77.59331,-3.486138,33.06804,-0.1641549,0.6615311,1.23561,21.03281,-11.00841,-21.25914,1006.715
13.400911808,32.74211,9.514252,35.87814,0.02968827,0.523288,0.7332981,21.36453,-9.175206,-20.41803,1006.713
13.433689118,80.88571,2.364038,13.39738,0.1289786,0.6404124,0.7877613,22.1347,-11.35169,-19.51437,1006.715
13.466466904,38.0845,-12.46823,6.005607,0.1725782,0.8674894,0.6818973,22.1347,-11.35169,-19.51437,1006.715
13.499243736,-7.760636,-9.631778,19.99499,0.2073398,0.7267768,0.5761275,21.44243,-13.15514,-18.2416,1006.715
13.534542084,-43.79069,-0.5905967,18.8343,0.1585271,0.4829746,0.8745736,21.82472,-14.26631,-19.46806,1006.715
13.567319870,4.104433,-13.17734,28.18092,0.2676583,0.5011744,0.6990716,21.82472,-14.26631,-19.46806,1006.717
13.600097180,-26.58323,10.40064,11.38144,0.2192076,0.6686019,0.7408127,20.73997,-14.62218,-19.02581,1006.719
13.632874966,-39.13163,14.24167,-9.08338,0.1514433,0.5976553,0.8455359,20.73997,-14.62218,-19.02581,1006.719
13.668173313,-25.8999,12.23251,-20.26267,0.2528635,0.4030478,0.7536485,20.73997,-14.62218,-19.02581,1006.719
13.700950146,-43.48008,10.34155,-38.22284,0.2164489,0.60028,0.7245559,20.73176,-14.26964,-19.90176,1006.717
13.733727932,-49.5058,27.47843,-57.77133,0.3340336,0.5544807,0.6506976,21.42683,-12.44325,-19.49624,1006.717
13.766505241,-88.3934,56.31565,-66.56814,0.1080329,0.4922286,0.935331,21.42683,-12.44325,-19.49624,1006.719
13.799283028,-37.51649,52.06098,-67.11794,0.1059585,0.5457084,0.924184,21.77812,-11.70931,-19.07306,1006.717
13.834581375,-57.70574,57.5566,-63.14716,0.1713425,0.3936226,0.827023,24.25832,-8.076988,-19.56876,1006.717
13.867359161,-50.25125,80.66184,-58.93202,0.1833924,0.2397945,0.8936542,25.30344,-5.456769,-18.80317,1006.717
13.900135994,-9.437897,78.94816,-44.51501,-0.04832147,0.08228067,0.9334315,25.30344,-5.456769,-18.80317,1006.717
13.932913303,-20.61964,91.77127,-37.55086,-0.02227019,0.3854409,1.073952,27.07337,-2.515917,-16.6758,1006.717
13.968212605,2.551413,87.22113,-31.7474,-0.2359738,0.1903766,1.015064,29.2337,-1.039629,-14.96109,1006.717
14.000989437,37.46329,72.09341,-29.24275,-0.3085819,0.4882857,0.9392132,29.2337,-1.039629,-14.96109,1006.717
14.033767223,-1.486437,66.36141,-30.52562,-0.3507241,0.4460891,0.9451531,31.08377,0.8009734,-13.31388,1006.717
14.066544533,-14.96665,69.90697,-30.70889,-0.3297119,0.4225834,1.11169,31.80203,1.557822,-11.15072,1006.717
14.099321365,-1.6728,61.75219,-31.31978,-0.3874924,0.3842451,0.9207841,31.80203,1.557822,-11.15072,1006.719
14.134620667,-9.003052,60.15668,-39.44462,-0.6264928,0.6519115,1.0384,32.51158,2.733054,-9.491519,1006.719
14.167397499,-60.8739,59.92031,-74.50971,-0.8955511,0.8670272,0.9891335,32.8718,3.120393,-7.757273,1006.719
14.200175285,-77.14954,75.34351,-81.71822,-1.190941,0.4599216,0.6525317,32.8718,3.120393,-7.757273,1006.719
14.232952595,63.8025,63.82043,-29.85365,-0.7228357,0.6171453,0.42687,32.85682,3.837379,-8.638956,1006.716
14.268251419,212.7681,66.71597,-19.22416,-0.1716746,-0.05898491,0.1676091,32.82978,5.295127,-8.661876,1006.72
14.301028729,380.7427,89.76212,-47.81382,0.05211941,-0.03874751,0.147312,32.82978,5.295127,-8.661876,1006.72
14.333805561,181.5214,-15.8956,-98.15116,0.6405544,0.6398696,1.355518,33.18637,5.652749,-9.103188,1006.72
14.366583347,-83.73434,43.8471,-110.6133,0.3507701,-0.6151732,0.3818956,32.84726,4.17889,-10.32297,1006.72
14.399360657,120.643,30.66943,-117.7607,-0.7204755,0.9520172,0.953932,32.84726,4.17889,-10.32297,1006.722
14.434659481,-53.54365,13.178,-55.99974,-1.509416,0.209651,0.5549852,32.77423,8.198736,-9.577939,1006.722
14.467436791,60.07525,0.4139789,-20.01831,-0.8696492,0.3455526,0.768913,31.58018,13.73459,-9.228324,1006.724
14.500213623,21.49825,33.3286,-28.08206,-0.7637869,0.7188148,0.59866,31.58018,13.73459,-9.228324,1006.721
14.532991409,-0.2440219,15.71898,-32.17503,-0.8973418,0.2703122,0.3479005,31.15598,17.02134,-8.844312,1006.721
14.568289757,7.769558,-4.608899,-28.50969,-0.8365018,0.4352069,0.45437,30.79336,17.0341,-7.973619,1006.721
14.601067543,13.73315,-11.52274,-36.20691,-0.6650549,0.4312245,0.516065,30.79336,17.0341,-7.973619,1006.721
14.633844852,-6.393979,-4.727085,-45.6757,-0.7006695,0.2974862,0.5173138,30.41503,17.7579,-8.41972,1006.723
14.699399471,2.675654,5.377764,-42.01036,-0.7564545,0.2812162,0.5559795,30.77162,18.11552,-8.861032,1006.723
14.734697819,-1.113713,16.60537,-36.57344,-0.8215312,0.2921261,0.5922197,30.37374,19.93858,-8.889212,1006.725
14.767475605,12.55286,19.56001,-33.76334,-0.8030939,0.2779101,0.4867791,29.63882,20.30477,-8.894002,1006.725
14.800252914,-6.269737,22.45555,-33.4579,-0.8096908,0.4143404,0.5732343,29.63882,20.30477,-8.894002,1006.726
14.833029747,-21.79993,22.39646,-26.61593,-1.005104,0.2921745,0.5397052,29.60389,22.18769,-8.923607,1006.725
14.868329048,15.6589,18.90999,-17.63584,-0.7747914,0.2283027,0.5329974,29.23981,22.18856,-8.923138,1006.725
14.901106358,0.2529443,27.18296,-25.02761,-0.8385391,0.2847072,0.5263246,29.16852,22.94136,-7.194072,1006.725
14.933883667,-4.406114,28.83756,-28.63186,-0.7963483,0.076121,0.3864626,29.16852,22.94136,-7.194072,1006.726
14.966660976,10.81348,31.49673,-31.38087,-0.8828082,0.3189141,0.5258967,28.79768,23.30667,-7.199332,1006.726
14.999438286,-11.48788,33.3877,-42.49907,-0.8352707,0.09479584,0.3172107,28.77884,24.41187,-6.346299,1006.726
15.034737110,-3.909148,31.14217,-40.84967,-0.9691538,0.2654785,0.4395369,28.77884,24.41187,-6.346299,1006.728
15.067514420,-6.828824,26.17839,-38.58937,-0.9574121,0.009857474,0.366246,28.03176,25.51796,-5.554484,1006.728
15.100292206,6.27866,26.00111,-30.46453,-0.8518544,0.1364303,0.3710998,27.29226,26.26641,-4.259669,1006.728
15.133069038,-3.971269,24.64198,-30.40345,-0.9727937,0.1455152,0.3521185,27.29226,26.26641,-4.259669,1006.73
15.168368340,6.961988,18.0236,-26.86028,-0.9633021,0.02851831,0.325316,26.17371,27.73272,-3.846068,1006.732
15.201145172,3.669587,16.66446,-20.75138,-0.9950333,0.1155216,0.4080544,25.78332,29.19728,-3.433407,1006.729
15.233922482,-3.847027,13.47346,-19.28524,-1.055285,0.1254827,0.3720802,25.78332,29.19728,-3.433407,1006.729
15.266700268,-7.946998,7.26873,-9.633181,-1.001385,-0.09273499,0.3039279,25.04236,29.93385,-3.008816,1006.731
15.299477100,14.91345,10.45973,-0.4087392,-0.7988692,0.1059616,0.3382874,25.04236,29.93385,-3.008816,1006.733
15.334776402,-12.10909,12.46889,-8.105955,-1.082371,0.07740332,0.3544065,25.04236,29.93385,-3.008816,1006.733
15.367553234,-8.319723,1.241277,-2.119232,-0.9451703,-0.2768557,0.1635144,24.68505,29.57028,-3.002616,1006.733
15.400330544,10.06803,-1.476987,5.028183,-0.9862502,0.0864615,0.3507953,25.03706,30.31017,-2.144322,1006.733
15.433108330,-4.09551,-8.390831,9.243325,-1.238214,0.07245774,0.3908857,25.03706,30.31017,-2.144322,1006.733
15.465885162,-12.60606,-37.22806,16.94054,-1.139582,-0.2111512,0.1104453,26.13001,30.3135,-1.71062,1006.733
15.501184464,15.78314,-42.84187,17.67361,-0.9550976,0.4940105,0.5084752,25.77801,29.57361,-2.568913,1006.734
15.533961296,-33.10591,-42.25094,-10.18298,-1.027575,0.344433,0.5175371,25.77801,29.57361,-2.568913,1006.734
15.566738606,-52.61184,-30.4915,-15.49773,-0.8303934,0.07547402,0.2642784,26.54528,27.37336,-3.405697,1006.734
15.599516392,-84.7904,-25.5868,-1.935965,-0.9876909,0.08164938,0.3609146,27.27198,27.35972,-4.276859,1006.73
15.634814739,-81.18739,-42.48731,3.623136,-1.183615,0.2060765,0.4897153,27.27198,27.35972,-4.276859,1006.728
15.667592525,78.95997,-67.77898,73.44788,-0.8906292,0.4215562,-0.1130065,28.37918,26.64012,-3.396586,1006.728
15.700369358,155.12,-43.25551,119.509,-0.579216,0.6595844,0.4038413,29.13293,25.16874,-4.244829,1006.728
15.733146667,82.06601,-15.42286,129.8941,-0.5202698,0.3923551,0.495563,29.13293,25.16874,-4.244829,1006.728
15.765924454,-9.003052,22.27827,122.8689,-0.207488,0.3178545,0.2619544,31.78908,22.1884,-8.491314,1006.728
15.801222801,-29.37867,75.34351,91.28587,-0.2366197,-0.1399745,0.01529355,35.52138,16.982,-10.96335,1006.727
15.834000587,-89.38734,100.4579,-10.24407,-0.6955838,-0.1019225,1.066656,39.6695,12.6109,-10.02961,1006.722
15.866777420,-241.459,8.15512,-70.23348,-1.909449,-2.098261,0.4308888,39.6695,12.6109,-10.02961,1006.724
15.899554729,336.8854,-40.65544,4.417293,-1.229729,1.410561,0.4095474,42.62131,10.75581,-7.455256,1006.722
15.934854031,-114.6705,33.26951,-17.69693,-1.211531,0.2869662,0.389055,42.5557,14.06676,-9.683339,1006.722
15.967630863,63.86462,1.654925,-11.40476,-0.9030269,0.2073199,0.3311613,42.5557,14.06676,-9.683339,1006.724
16.000408649,23.42399,2.836779,-18.30782,-0.791406,0.4568387,0.4291996,42.5557,14.06676,-9.683339,1006.724
16.033185959,7.831679,10.40064,-28.08206,-0.8848513,0.3375218,0.4026449,42.54218,14.79563,-9.694799,1006.724
16.065962791,21.00128,6.559618,-25.94395,-1.067483,0.137085,0.3042196,42.54218,14.79563,-9.694799,1006.724
16.101262093,20.38008,15.30533,-21.54554,-0.8891931,0.3525801,0.5422274,43.60674,16.24567,-10.09208,1006.724
16.134038925,10.37863,29.07393,-24.5389,-0.8258173,0.2034838,0.3170245,43.58708,17.34407,-9.736319,1006.724
16.166816711,6.589263,36.10596,-25.33306,-0.8958697,0.2660214,0.3594562,43.58708,17.34407,-9.736319,1006.724
16.199594021,10.62711,25.76474,-30.70889,-0.999121,0.1572609,0.1817612,42.85217,17.71026,-9.741109,1006.726
16.234892845,11.99377,29.90123,-39.99442,-0.9369307,0.3942546,0.4291578,43.2049,18.45609,-8.447704,1006.726
16.267670155,7.645317,34.27409,-40.84967,-0.9863607,0.1195842,0.2814296,43.2049,18.45609,-8.447704,1006.728
16.300446987,-3.971269,37.64237,-39.81116,-0.974847,0.1882133,0.3313605,43.16578,20.6546,-7.61186,1006.728
16.333224773,1.122635,34.45136,-36.45126,-1.019927,0.135512,0.2309422,43.13979,22.19092,-6.3304,1006.726
16.366002083,4.787761,34.21499,-37.61195,-0.9806557,0.1647053,0.2495781,43.13979,22.19092,-6.3304,1006.724
16.401300907,-9.189414,41.66067,-37.73413,-1.04229,0.1460168,0.2276099,42.3927,23.29701,-5.538587,1006.724
16.434078217,2.489292,35.39685,-37.30651,-1.001413,0.08107186,0.08416501,41.99772,25.14385,-3.826319,1006.724
16.466855049,2.489292,40.06517,-42.07145,-0.8911722,0.07215054,0.06947612,41.99772,25.14385,-3.826319,1006.724
16.499632836,-6.083375,32.44221,-41.88818,-1.072456,0.1594508,0.1646028,40.88811,26.26355,-2.101653,1006.724
16.534931183,-7.946998,33.68316,-45.30917,-1.073214,0.07135783,0.1743646,39.77768,27.37646,-0.8742573,1006.726
16.567708969,-15.46361,36.81507,-41.27729,-0.9844528,-0.1046972,0.1041406,39.77768,27.37646,-0.8742573,1006.722
16.600486279,-5.524288,33.74225,-41.15511,-1.200941,0.06084285,0.07648559,39.39549,28.48848,0.4143577,1006.722
16.633263111,-16.64391,34.27409,-41.09402,-1.118539,-0.079116,0.09190467,38.21169,30.3372,2.127642,1006.722
16.666040897,-15.64997,37.16963,-35.16839,-1.086767,-0.1776171,0.03662117,38.21169,30.3372,2.127642,1006.722
16.701339245,-7.636394,31.02399,-32.60265,-1.079787,-0.06308342,-0.03047729,37.10187,31.45521,3.727991,1006.722
16.734117031,-7.015186,32.14675,-29.30384,-1.001299,-0.1676822,0.1018687,36.39014,30.75185,5.480837,1006.722
16.766894340,-10.12123,34.51046,-29.42602,-1.092286,-0.1071867,0.01582955,34.92249,31.50205,6.776592,1006.722
16.799671173,-8.319723,37.406,-25.39415,-0.9739908,-0.2252325,0.05760536,34.92249,31.50205,6.776592,1006.722
16.834970474,-14.28332,34.09681,-24.41672,-1.088419,-0.1235963,-0.1073835,33.09814,31.89378,8.451499,1006.722
16.867747784,-19.56358,35.92868,-25.33306,-1.019931,-0.1272141,-0.0796215,31.2867,31.55154,9.764914,1006.724
16.900525093,-37.33012,45.91534,-34.5575,-1.192761,-0.1281508,-0.006524542,31.2867,31.55154,9.764914,1006.724
16.933302402,-17.26511,31.31945,-22.27861,-1.108771,-0.1362517,-0.08180398,30.56884,31.21771,11.88498,1006.724
16.966079712,-25.03021,21.27369,-16.96386,-1.043011,-0.1960824,0.06013194,29.8518,30.89069,14.50232,1006.724
17.001378536,-49.44368,19.26454,-20.01831,-1.07641,-0.2699836,-0.09130641,29.8518,30.89069,14.50232,1006.724
17.034155846,8.887733,0.7094423,-2.8523,-1.07603,-0.2539581,-0.2386282,28.72208,29.82391,16.26145,1006.722
17.066932678,27.95881,-8.272646,0.507596,-0.9310046,-0.1749245,-0.1837347,27.65148,28.74426,17.08811,1006.722
17.099710465,-16.27118,-0.8269675,1.301753,-0.9743201,-0.123302,-0.132204,27.65148,28.74426,17.08811,1006.722
17.135008812,6.713505,-11.10909,-9.449914,-1.037327,-0.4184959,-0.3434088,27.65824,28.37982,17.09384,1006.72
17.167786598,30.25728,-6.913514,-12.07674,-0.8945683,-0.204132,-0.295453,27.31445,27.28738,17.1115,1006.72
17.200563908,46.28444,-2.895211,0.9963081,-0.9458281,-0.2825944,-0.2408193,27.31445,27.28738,17.1115,1006.72
17.233341694,46.71928,-11.10909,-5.845662,-0.9919679,-0.2498076,-0.09298118,27.68467,26.91698,16.74381,1006.717
17.266118527,18.08161,-9.927241,-7.433976,-1.017411,-0.1601041,-0.04973348,28.04126,27.2746,16.3025,1006.713
17.301416874,46.09808,-14.83193,-1.447253,-0.9453289,-0.2571174,-0.07960266,28.04126,27.2746,16.3025,1006.711
17.334194660,54.11166,-12.88188,2.584623,-0.9406056,-0.1884278,-0.01280811,28.04053,27.26866,15.86738,1006.711
17.366971970,25.34974,-17.5502,2.890068,-0.9086034,-0.1777572,-0.05766674,27.66678,27.61019,14.12168,1006.71
17.399749756,12.6771,-17.19564,4.417293,-0.8978761,-0.2098036,-0.1264786,27.66678,27.61019,14.12168,1006.71
17.435048103,1.868085,-13.35462,5.21145,-0.8692941,-0.1813069,-0.1251453,28.386,27.95505,12.80967,1006.708
17.467824936,-9.437897,-10.10452,8.693524,-0.893122,-0.1517448,-0.04763407,28.03617,27.23299,13.25671,1006.708
17.500602722,-14.78028,-9.809055,10.52619,-0.9740317,-0.2233498,-0.02182207,28.03617,27.23299,13.25671,1006.706
17.533380032,-7.32579,-17.84566,13.21411,-0.9507349,-0.2172575,-0.01418472,29.91651,27.22254,12.81918,1006.706
17.566157818,-1.6728,-19.08661,15.84094,-0.9755278,-0.1992265,0.01713543,30.29411,26.49279,12.83017,1006.706
17.601456165,-8.506085,-19.973,16.51292,-0.9706729,-0.1956629,0.03348484,30.29411,26.49279,12.83017,1006.702
17.634232998,-10.43183,-23.04582,16.87945,-0.9279187,-0.2141214,-0.01087403,30.67847,25.39861,12.84689,1006.7
17.667010784,-3.28794,-22.86854,16.57401,-0.9530948,-0.2470265,-0.01991059,31.03579,25.76217,12.84069,1006.704
17.699788093,-0.05765956,-24.52313,15.16896,-0.962838,-0.2279059,0.009928126,31.03579,25.76217,12.84069,1006.704
17.732565880,0.004461214,-24.64132,13.39738,-0.9653475,-0.1877824,0.03971803,32.5103,24.64839,11.61282,1006.703
17.767864227,-12.97878,-25.52771,10.46511,-0.9754767,-0.2156012,0.04363488,32.52986,23.54914,11.1949,1006.698
17.800641060,-5.213684,-29.25055,11.68689,-0.97885,-0.2313919,0.01815451,32.88645,23.90676,10.75359,1006.697
17.833418846,5.781693,-31.14151,10.89273,-0.9593942,-0.2463712,0.01187324,32.88645,23.90676,10.75359,1006.697
17.866196156,15.47254,-29.90057,8.93788,-0.9910707,-0.1958934,0.02486906,33.99075,23.16338,9.893414,1006.697
17.901494980,7.024109,-27.06412,6.127785,-1.033854,-0.16627,0.06391618,34.72422,22.78531,9.027982,1006.693
17.934272289,1.371118,-24.10949,6.188874,-1.00034,-0.1638147,0.09656559,34.72422,22.78531,9.027982,1006.693
17.967050076,-5.524288,-21.33213,6.616498,-0.9386684,-0.163737,0.1036396,34.36544,22.40985,8.163958,1006.692
17.999827385,-11.42576,-17.37292,6.249963,-0.9561294,-0.1696401,0.1162053,35.08611,22.7666,7.722177,1006.69
18.032604218,-16.83027,-16.90018,3.98967,-0.9255316,-0.1687673,0.1349046,35.08611,22.7666,7.722177,1006.69
18.067903519,-15.96058,-15.95469,2.156999,-0.943529,-0.1522344,0.1527327,35.83506,21.60571,7.366429,1006.688
18.100680351,-15.89846,-16.07288,2.156999,-0.9188001,-0.12934,0.1935553,35.47098,21.60658,7.366899,1006.686
18.133457661,-18.69389,-18.14112,4.478382,-0.9406267,-0.1402603,0.190254,35.47098,21.60658,7.366899,1006.686
18.166235447,-9.810621,-20.38665,6.799765,-0.9672615,-0.1711892,0.1869943,36.56321,21.60397,7.365489,1006.683
18.201533794,-2.169766,-21.50941,10.89273,-0.9863331,-0.1087936,0.2177526,36.21047,20.85813,6.072084,1006.683
18.234311581,1.184756,-23.57765,13.09193,-0.9788881,-0.1814705,0.193295,36.21047,20.85813,6.072084,1006.683
18.267088413,13.67103,-22.86854,15.16896,-0.8457552,-0.2234465,0.1603099,36.9379,20.85044,5.636033,1006.683
18.299865723,18.45433,-16.78199,13.58065,-0.881797,-0.1704026,0.1973803,37.31477,20.11475,5.211911,1006.683
18.332643509,17.02555,-13.23643,8.082634,-0.9308496,-0.1644067,0.2080776,37.31477,20.11475,5.211911,1006.681
18.367941856,14.10588,-9.040851,4.783827,-0.9206801,-0.1450497,0.2479773,37.69092,19.37312,4.352678,1006.675
18.400718689,15.34829,-4.904363,6.005607,-0.9333089,-0.1381458,0.2754345,37.31863,19.72654,3.477194,1006.675
18.433496475,-0.1197803,0.1185154,9.793126,-0.9135002,-0.09255904,0.2936105,37.31863,19.72654,3.477194,1006.679
18.466273785,-15.96058,5.850505,12.29778,-0.9085447,-0.1343995,0.2941432,38.04616,19.7197,3.103302,1006.675
18.501572609,-23.60143,7.091452,11.68689,-0.9095685,-0.1084579,0.3138424,38.42438,18.99505,3.487245,1006.675
18.534349918,-23.04235,6.323247,11.44253,-0.9153901,-0.1119626,0.3071224,38.42438,18.99505,3.487245,1006.675
18.567126751,-18.94238,7.032359,9.670948,-0.930411,-0.1237132,0.3163216,38.07455,18.27299,3.934286,1006.675
18.599904537,-4.09551,3.782262,11.13708,-0.9071589,-0.104682,0.2936138,37.7112,18.27981,4.369868,1006.677
18.632681847,1.930205,4.550467,12.60322,-0.9436373,-0.07664125,0.3076175,37.7112,18.27981,4.369868,1006.673
18.667980671,7.396834,1.595833,15.77985,-0.9567505,-0.08033058,0.2831047,38.08204,17.9145,4.375128,1006.673
18.700757980,5.47109,4.609559,20.48371,-0.8829016,-0.09723434,0.2848805,37.72545,17.55688,4.81644,1006.675
18.733534813,5.47109,9.04151,24.75994,-0.8776117,-0.07475643,0.2891663,37.72545,17.55688,4.81644,1006.675
18.766312599,-1.051592,13.82802,24.08796,-0.906236,-0.08724478,0.2786631,38.46037,17.1907,4.82123,1006.673
18.801611423,-4.654597,20.91914,21.82766,-1.061853,0.02294615,0.3428872,38.83869,16.46689,5.267331,1006.673
18.834388733,-17.57572,16.01445,15.84094,-1.186616,-0.003925979,0.270538,39.22451,15.3846,6.154275,1006.673
18.867166042,-4.778839,11.99614,13.45847,-0.903872,-0.07610171,0.1972905,39.22451,15.3846,6.154275,1006.673
18.899943352,-1.486437,14.41894,15.84094,-0.8929286,0.0209968,0.2096336,39.24625,14.30318,7.041688,1006.673
18.932721138,-1.051592,13.29618,15.53549,-1.026945,0.0173665,0.1988857,38.87614,14.67443,7.47154,1006.673
18.968019485,14.41648,6.264154,10.70946,-1.094523,0.04730859,0.1734886,38.87614,14.67443,7.47154,1006.673
19.000797272,27.46185,2.482223,10.15966,-1.074326,0.129259,0.1675409,39.6866,13.59027,8.295776,1006.672
19.033574104,26.65427,0.7685349,17.61252,-1.03798,0.1622874,0.180883,40.05817,13.2309,8.736148,1006.673
19.066351414,16.03162,1.300369,22.98836,-0.9689306,0.1214654,0.1807808,40.05817,13.2309,8.736148,1006.667
19.101650238,10.99984,0.2957935,28.60854,-0.9869949,0.1652417,0.1942358,39.6994,12.85545,7.872125,1006.667
19.134427547,13.79527,-2.836118,31.17428,-1.024817,0.1329107,0.1428685,39.70761,12.5029,8.748078,1006.672
19.167205334,22.5543,-6.38168,30.13577,-1.008851,0.1578995,0.1451998,39.70761,12.5029,8.748078,1006.669
19.199982166,26.84064,-9.099943,30.13577,-1.000648,0.1813992,0.1528467,40.44896,11.69965,7.88933,1006.669
19.232759476,23.23763,-10.10452,33.12913,-0.9661732,0.1801688,0.1445836,41.19678,10.5995,7.532627,1006.667
19.268058300,21.0634,-7.327163,30.99102,-0.9714911,0.1693762,0.1397989,41.19678,10.5995,7.532627,1006.667
19.300835610,8.390766,-7.208977,22.56073,-1.048423,0.2598837,0.1504349,40.85975,9.142624,7.556017,1006.667
19.333612442,9.074095,-9.040851,14.68025,-1.055574,0.1957111,0.105782,41.59924,8.394175,6.261203,1006.669
19.366390228,22.67854,-10.04543,13.76391,-0.9944885,0.2381661,0.1142376,41.59924,8.394175,6.261203,1006.671
19.401688576,16.59071,-6.38168,12.23669,-0.9527615,0.258727,0.1492471,41.24942,7.672116,6.708244,1006.669
19.434466362,8.639249,-5.318011,11.01491,-0.9625055,0.2722794,0.1487684,41.63232,6.566045,5.854741,1006.669
19.467243672,2.862017,-3.486138,7.349566,-0.9581616,0.2789769,0.126124,41.63232,6.566045,5.854741,1006.669
19.500020504,2.427171,-2.599748,3.98967,-0.9620328,0.2735972,0.1275854,41.63232,6.566045,5.854741,1006.669
19.532798290,5.53321,-4.136158,1.057397,-0.9819371,0.2729876,0.1338912,41.62629,6.936426,6.284122,1006.669
19.568096638,9.819544,-5.908938,-0.2865612,-1.014494,0.2844718,0.1435783,41.62629,6.936426,6.284122,1006.671
19.600874424,12.86346,-7.622626,-2.180321,-1.004266,0.2673569,0.1214372,42.0092,5.830355,5.430619,1006.673
19.633651733,18.82706,-9.099943,-4.379526,-0.9916043,0.2523811,0.1238366,41.63836,6.195665,5.425359,1006.673
19.666428566,21.43613,-9.572685,-7.922688,-0.9891977,0.2652047,0.1440287,41.63836,6.195665,5.425359,1006.674
19.699206352,18.51645,-9.159037,-12.80981,-1.004773,0.2821779,0.1522232,41.6316,6.560102,5.419629,1006.674
19.734505176,14.66496,-9.631778,-18.36891,-1.015395,0.2582747,0.1595049,41.98143,7.282158,4.972588,1006.674
19.767282486,21.31189,-10.2818,-22.40078,-1.031401,0.2523569,0.1682163,42.33729,7.633835,4.096164,1006.674
19.800059795,18.26797,-8.804481,-26.86028,-1.140252,0.2956033,0.21462,42.33729,7.633835,4.096164,1006.674
19.832837105,15.22405,-9.986334,-34.80186,-1.2422,0.2824563,0.1975526,41.59426,8.353416,3.27758,1006.673
19.868135929,26.46791,-9.513593,-40.42205,-1.094405,0.208249,0.2045343,41.94544,9.086512,3.638602,1006.673
19.900913239,35.16482,-7.977182,-39.50571,-0.9089589,0.2369413,0.2555569,41.94544,9.086512,3.638602,1006.671
19.933691025,15.16193,-1.949728,-32.60265,-0.7346013,0.221323,0.251316,41.19576,10.17138,2.876446,1006.671
19.966467857,-2.356128,5.968691,-27.8988,-0.7748113,0.182018,0.2505079,40.7825,12.77811,2.40074,1006.671
19.999245167,-7.946998,6.973267,-28.14315,-0.8981104,0.1689104,0.2647796,40.7825,12.77811,2.40074,1006.671
20.034543991,-5.959133,2.482223,-26.67702,-0.9942495,0.1671509,0.2674171,40.7825,12.77811,2.40074,1006.669
20.067321301,-10.18335,-2.067914,-16.41406,-1.054416,0.1466269,0.2598889,40.75545,14.23586,2.37782,1006.667
20.100098133,-6.890945,-7.622626,-2.913389,-1.012869,0.02850325,0.2426394,40.75545,14.23586,2.37782,1006.667
20.132875919,10.44075,-12.52732,7.410655,-0.9505925,-0.02662644,0.224283,40.37109,15.33004,2.361099,1006.667
20.168174267,11.86953,-13.23643,11.13708,-0.8933351,-0.001005349,0.2679126,40.73517,15.32916,2.36063,1006.669
20.200952053,13.17407,-13.70917,12.23669,-0.8476977,0.005850788,0.2884925,40.73517,15.32916,2.36063,1006.669
20.233729363,9.881665,-12.23186,11.13708,-0.9225938,0.05792284,0.3025512,40.73372,15.31728,1.490406,1006.669
20.266506195,2.178688,-11.52274,5.82234,-0.9608722,0.02604651,0.3171308,40.76003,13.85359,1.078215,1006.671
20.299283981,5.160486,-13.23643,1.423931,-0.9080384,0.06190377,0.2972157,40.76003,13.85359,1.078215,1006.671
20.334582329,3.296862,-10.75454,-0.5920063,-0.8906205,0.09390722,0.3260078,41.11059,14.58159,1.066285,1006.671
20.367360115,-5.897012,-10.99091,3.745314,-0.8882741,0.1345784,0.3586736,40.75109,14.20019,-0.2328503,1006.669
20.400137425,-6.145495,-10.34089,7.04412,-0.8964643,0.1011674,0.3264921,40.75109,14.20019,-0.2328503,1006.669
20.432914257,2.613534,-8.627202,8.693524,-0.8780545,0.119358,0.3288278,41.1212,13.82894,-0.6627018,1006.667
20.468213558,7.831679,-5.554382,11.01491,-0.855822,0.1694488,0.3614322,41.47779,14.18656,-1.104014,1006.667
20.500990391,7.95592,-1.004245,11.99233,-0.8494986,0.1636102,0.3546869,41.47779,14.18656,-1.104014,1006.667
20.533768177,3.607466,4.727745,13.21411,-0.8412957,0.1931786,0.394576,41.84936,13.82719,-0.6636417,1006.669
20.566545487,-6.393979,8.450583,14.31371,-0.8232737,0.1649069,0.369545,41.86964,12.73388,-0.6464517,1006.667
20.599322319,-0.2440219,13.23709,13.15302,-0.78187,0.1117285,0.3767474,41.86964,12.73388,-0.6464517,1006.669
20.634621620,-11.79849,14.59622,12.90867,-0.7863541,0.1614324,0.385829,41.15686,11.95196,-0.1979852,1006.671
20.667398930,-5.64853,17.90541,15.04678,-0.845101,0.1544803,0.3672057,41.88575,11.95616,0.2361865,1006.671
20.700175762,-16.51966,29.42849,11.50362,-1.444684,0.3080172,0.3347011,41.88575,11.95616,0.2361865,1006.673
20.732953548,-15.27725,11.58249,1.851554,-1.456765,0.2724549,0.2779826,41.88575,11.95616,0.2361865,1006.667
20.768251896,3.048379,6.323247,2.584623,-1.201758,0.2294205,0.2264183,42.27301,10.88575,1.993353,1006.667
20.801029682,21.43613,4.609559,20.78915,-0.9210839,0.2244334,0.2223906,41.9157,10.52218,1.999553,1006.667
20.833806992,15.59678,10.04609,37.40536,-0.6946237,0.1504255,0.2335177,41.9157,10.52218,1.999553,1006.667
20.866583824,9.943786,14.71441,42.84228,-0.6825801,0.1859056,0.2084048,41.90894,10.88662,1.993823,1006.667
20.899361610,-19.0045,18.43725,38.56605,-0.8033969,0.3555008,0.228653,42.30151,9.439886,2.886497,1006.668
20.934659958,-69.38445,18.31906,25.30974,-1.04156,0.4579335,0.2569824,42.30151,9.439886,2.886497,1006.67
20.967437744,-100.01,8.864232,12.35886,-1.192868,0.3676959,0.2093412,42.33594,7.622797,3.2881,1006.674
21.000215054,-95.28881,-4.431621,4.172937,-1.154786,0.2616575,0.1131383,42.72165,6.539652,4.112885,1006.674
21.032991886,-46.71036,-15.24558,4.295115,-1.031678,0.1424688,0.05478119,42.72165,6.539652,4.112885,1006.674
21.068291187,13.54679,-20.7412,12.78649,-0.9652419,0.1881417,0.09932141,42.74266,5.452284,4.565186,1006.675
21.101068020,38.0845,-22.21852,21.40004,-0.9302915,0.1928133,0.09875011,42.75473,4.711523,3.706423,1006.675
21.133845806,50.32229,-18.96842,25.06538,-0.8794646,0.2660366,0.1317331,42.75473,4.711523,3.706423,1006.677
21.166623116,22.5543,-12.40913,21.21677,-0.8946645,0.3363475,0.1754672,43.1236,4.33008,2.530665,1006.677
21.199399948,-8.816689,-9.395407,13.64173,-0.9364291,0.3394451,0.1808565,42.77159,3.59019,1.672372,1006.677
21.234699249,-17.01663,-8.922666,4.783827,-0.9454741,0.2563225,0.1449011,42.77159,3.59019,1.672372,1006.677
21.267476082,-12.35757,-8.213553,-3.035567,-0.9163315,0.2516485,0.1381,42.78511,2.861317,1.683832,1006.679
21.300253391,-9.810621,-7.327163,-8.228133,-0.9498599,0.26564,0.1593384,43.14846,2.8545,1.24825,1006.681
21.333031178,-1.734921,-7.327163,-13.29852,-0.9818916,0.2610731,0.1714552,43.14846,2.8545,1.24825,1006.681
21.368329525,5.47109,-6.204401,-18.67435,-1.002316,0.280128,0.2046889,43.15522,2.490063,1.25398,1006.682
21.401107311,8.515008,-6.677143,-22.09534,-0.9901398,0.2717139,0.2407749,43.50505,3.212121,0.8069389,1006.682
21.433884144,12.24225,-5.199826,-27.47117,-1.013426,0.2667965,0.2620174,43.50505,3.212121,0.8069389,1006.681
21.466661453,13.36043,1.182184,-38.89482,-1.321532,0.3663093,0.2346792,43.12745,3.941867,0.7959487,1006.678
21.499439240,26.59215,1.595833,-49.46322,-1.233842,0.2417087,0.2110723,43.10644,5.029234,0.343647,1006.676
21.534737587,52.86924,1.950389,-51.17371,-0.9496332,0.2020072,0.3235781,43.10644,5.029234,0.343647,1006.678
21.567515373,47.15413,-0.354226,-42.49907,-0.7875952,0.2713584,0.3664118,42.72884,5.758981,0.3326569,1006.678
21.600292683,21.31189,0.05942276,-36.20691,-0.7490866,0.2007616,0.3235856,42.31743,8.310913,0.2930167,1006.678
21.633069515,15.90738,-2.186099,-28.9984,-0.7917385,0.1597006,0.2833143,42.31743,8.310913,0.2930167,1006.678
21.665847301,28.14517,-1.53608,-24.72217,-0.944593,0.1119895,0.2596807,41.54944,10.50522,0.6946881,1006.678
21.701145649,48.02382,-9.277222,-20.56811,-1.00199,0.1700536,0.3439676,41.89105,11.57983,-0.6283066,1006.676
21.733923435,39.32691,-9.631778,-13.66506,-0.9019951,0.1875676,0.361033,41.87568,12.3635,-1.075834,1006.676
21.766700745,15.03769,-6.440773,-6.090018,-0.8874108,0.183413,0.3764083,41.87568,12.3635,-1.075834,1006.676
21.799477577,7.831679,-8.036275,-3.218834,-0.8517737,0.0952623,0.3340968,41.85477,13.45172,-1.465976,1006.676
21.834776878,18.88918,-10.69545,-2.913389,-0.8299547,0.1055583,0.3176633,41.49672,13.08221,-1.894888,1006.678
21.867553711,21.87098,-9.631778,-4.196259,-0.8810391,0.1490323,0.3273461,41.49672,13.08221,-1.894888,1006.678
21.900331020,15.53466,-8.981758,-1.569431,-0.9150537,0.1640206,0.352435,41.49527,13.07032,-2.765112,1006.678
21.933108807,19.63463,-9.749963,2.401356,-0.8858048,0.1155477,0.3505132,41.13047,13.06525,-3.199753,1006.678
21.965885639,16.21798,-7.327163,7.7161,-0.8552891,0.1504923,0.3662731,41.13047,13.06525,-3.199753,1006.676
22.001184940,5.595331,-3.781601,10.34293,-0.8451298,0.167163,0.3700748,41.48706,13.42287,-3.641064,1006.678
22.033961773,-4.281872,0.6503496,8.510257,-0.9009442,0.1570001,0.3764802,41.13578,12.68892,-4.064247,1006.68
22.066739082,-7.822757,1.595833,4.844916,-0.9291223,0.1646111,0.3842373,41.13578,12.68892,-4.064247,1006.678
22.099516869,-3.039457,2.541316,3.195513,-0.8882647,0.1322001,0.3668603,41.86393,12.68718,-4.065187,1006.678
22.134815216,0.9983937,5.73232,5.516895,-0.8757406,0.1772023,0.3797595,41.1365,12.69487,-3.629135,1006.678
22.167593002,-3.909148,8.627861,7.227387,-0.8718724,0.1845569,0.3821461,41.1365,12.69487,-3.629135,1006.678
22.200369835,-7.450032,9.986993,8.632435,-0.9024961,0.1974246,0.3783484,41.87215,12.33463,-3.189233,1006.678
22.233147144,-5.524288,11.99614,9.243325,-0.8766777,0.1555005,0.3417669,42.23767,12.34564,-2.319479,1006.68
22.265924931,-5.027322,20.26912,7.227387,-1.099815,0.2707818,0.3787059,42.23767,12.34564,-2.319479,1006.68
22.301223278,-24.0984,19.02817,-1.569431,-1.381586,0.3192551,0.3340531,41.51741,11.92221,-2.311855,1006.682
22.334000111,-14.2212,12.70526,-3.524279,-1.209451,0.2052823,0.266426,41.53301,11.21032,-1.057219,1006.677
22.366777897,1.805964,12.58707,5.577984,-0.9753875,0.195933,0.251444,41.53301,11.21032,-1.057219,1006.682
22.399555206,10.31651,14.35985,18.34559,-0.8130111,0.1160096,0.2593625,41.89854,11.22134,-0.187465,1006.677
22.434854031,14.10588,14.71441,25.37083,-0.7156084,0.2021473,0.2724798,41.54195,10.86372,0.2538464,1006.677
22.467631340,-5.275805,18.43725,20.97242,-0.7132452,0.2279297,0.2652149,41.54195,10.86372,0.2538464,1006.679
22.500408650,-35.21802,20.21003,9.182236,-0.8548163,0.3462698,0.2937727,41.91352,10.50435,0.6942184,1006.683
22.533185959,-73.67078,18.37815,-4.562793,-1.064669,0.378501,0.2783369,42.29184,9.780548,1.14032,1006.679
22.565963268,-88.64188,7.209637,-11.7713,-1.131626,0.3439019,0.2159708,42.29184,9.780548,1.14032,1006.679
22.601262570,-66.40265,-5.73166,-5.295861,-1.082301,0.2078046,0.1260443,42.30827,9.075449,2.892227,1006.679
22.634039402,-7.512153,-16.78199,10.77055,-0.9928064,0.1421939,0.1086019,41.5875,8.717852,3.271849,1006.681
22.666816711,22.86491,-18.37749,26.6537,-0.9536585,0.2224982,0.1233102,41.5875,8.717852,3.271849,1006.681
22.699594498,28.95274,-18.20022,35.69487,-0.9707588,0.2707159,0.1439767,41.56721,9.811163,3.254659,1006.681
22.734892845,18.26797,-15.0683,39.05476,-0.921786,0.3008505,0.1462219,42.3143,8.705069,2.462845,1006.681
22.767669678,-2.045525,-11.22728,34.16764,-0.9417017,0.3086509,0.1712882,42.71146,6.876068,2.055914,1006.681
22.800447464,-20.68176,-10.34089,26.95914,-0.9722695,0.3021882,0.1891808,42.71146,6.876068,2.055914,1006.681
22.833224773,-14.28332,-12.7046,18.40668,-0.9502011,0.1971744,0.1194893,42.72426,6.14125,1.632262,1006.681
22.866002560,-3.971269,-12.58641,12.84758,-0.9556633,0.2472667,0.1155759,43.46593,5.410631,1.642782,1006.681
22.901300907,2.862017,-11.34547,8.815702,-0.9663081,0.2341283,0.1300618,43.46593,5.410631,1.642782,1006.681
22.934077740,2.240809,-8.627202,3.806403,-1.000853,0.2736648,0.1839966,43.47873,4.675812,1.219131,1006.679
22.966855526,-0.6167465,-9.513593,-1.569431,-1.00419,0.2488517,0.1917437,42.75661,4.307177,0.7906885,1006.679
22.999632835,2.924138,-8.213553,-6.028929,-0.9774381,0.2316018,0.2003708,42.75661,4.307177,0.7906885,1006.679
23.034931660,3.483225,-5.613475,-11.2215,-0.9978113,0.2302418,0.2394115,43.47728,4.663925,0.348907,1006.677
23.067708969,12.73922,0.5912569,-24.17237,-1.286785,0.2491064,0.2179258,43.1132,4.664797,0.3493769,1006.677
23.100485802,37.96025,0.0003300849,-35.6571,-1.148749,0.1892213,0.1950647,43.1132,4.664797,0.3493769,1006.676
23.133263588,71.8782,5.673227,-42.98779,-0.9743919,0.1902642,0.2755183,43.46979,5.022418,-0.09193444,1006.676
23.166040897,56.09952,10.40064,-44.20956,-0.8499126,0.3490855,0.4126531,42.72063,6.111531,-0.5432966,1006.676
23.201339245,0.5635482,9.573344,-43.17105,-0.7891748,0.3381242,0.4442955,42.72063,6.111531,-0.5432966,1006.676
23.234117031,-29.75139,4.136817,-37.9174,-0.7695596,0.2362281,0.3356148,43.0509,7.932843,-0.5724165,1006.677
23.266893864,-17.26511,-1.890636,-31.99176,-0.8168663,0.1063337,0.2733457,42.29111,9.774603,0.7052085,1006.677
23.299671650,23.48611,-9.159037,-25.76068,-0.9470402,0.1258103,0.2890287,42.29111,9.774603,0.7052085,1006.677
23.334970474,51.87531,-16.25016,-16.1697,-1.000171,0.2151289,0.3102,41.53592,11.2341,0.6832283,1006.677
23.367747307,39.07843,-15.65923,-6.090018,-0.9516393,0.2358469,0.359634,41.87713,12.37539,-0.20561,1006.677
23.400525093,31.56182,-17.01836,1.973732,-0.9150909,0.1851603,0.3808036,41.87713,12.37539,-0.20561,1006.677
23.433302403,32.80423,-18.85024,6.983031,-0.842717,0.172,0.36236,41.86892,12.72794,-1.081564,1006.677
23.466079712,28.5179,-15.36377,6.066696,-0.8097257,0.1804344,0.34494,41.86757,12.7169,-1.889628,1006.677
23.501378536,16.71495,-9.631778,2.706801,-0.8346171,0.2322827,0.3367378,41.86757,12.7169,-1.889628,1006.677
23.534155369,1.619601,-3.367953,-0.8974513,-0.8452227,0.2056147,0.3666476,41.87215,12.33463,-3.189233,1006.679
23.566933155,2.675654,1.477647,-1.569431,-0.8383545,0.1779779,0.3763002,42.22946,12.69819,-3.195433,1006.675
23.599710465,-0.6788673,6.736896,-0.7141843,-0.8326147,0.2140464,0.373344,42.22946,12.69819,-3.195433,1006.673
23.635008812,-14.15908,12.29161,-0.5920063,-0.8161184,0.2245891,0.3988011,41.48779,13.42881,-3.205953,1006.673
23.667786598,-22.48326,14.35985,0.7519521,-0.8393543,0.189645,0.3743595,42.23019,12.70414,-2.760321,1006.673
23.700563431,-18.56965,13.65074,2.951157,-0.877669,0.1652799,0.3484935,42.22342,13.06857,-2.766052,1006.673
23.733341217,-12.97878,13.29618,6.43323,-0.8864756,0.1929608,0.34751,42.22342,13.06857,-2.766052,1006.672
23.766118526,-14.40756,15.54171,10.34293,-0.9029827,0.1883125,0.3292644,42.22768,13.10339,-0.2175398,1006.67
23.801416874,-16.27118,18.85089,13.70282,-0.9506301,0.2147321,0.3336699,41.87037,12.73983,-0.21134,1006.67
23.834194660,-30.93168,24.70107,11.99233,-1.340281,0.3044347,0.3243502,41.87037,12.73983,-0.21134,1006.67
23.866971493,-32.60895,18.90999,9.060058,-1.395033,0.2421595,0.2595901,42.25055,11.96123,0.6708286,1006.67
23.899749279,-15.27725,15.06896,11.80906,-1.123946,0.1804423,0.233528,42.98837,11.61882,2.416065,1006.67
23.932526588,4.042312,12.88253,20.48371,-0.9301168,0.1435234,0.2244594,42.98837,11.61882,2.416065,1006.67
23.967824936,16.34223,10.99157,25.79845,-0.7957042,0.1836512,0.2303378,42.62564,11.63073,3.2246,1006.67
24.000602722,8.142283,10.28246,26.53152,-0.734556,0.1962704,0.2205465,42.9971,11.27052,3.602813,1006.67
24.033379555,-4.281872,8.568769,23.78251,-0.7588959,0.2233915,0.2277838,42.9971,11.27052,3.602813,1006.67
24.066156864,-30.3726,7.386915,17.49034,-0.9037992,0.3104198,0.2400304,43.38292,10.18822,4.489757,1006.672
24.101455689,-63.29661,6.086876,8.265901,-1.169543,0.357569,0.195823,44.13136,9.093164,4.506007,1006.672
24.134232998,-59.50724,-2.42247,2.034822,-1.216527,0.2897871,0.1002456,44.13136,9.093164,4.506007,1006.67
24.167010784,-25.15445,-9.159037,2.523534,-1.061828,0.1632301,0.06493,44.14561,8.370234,4.952578,1006.67
24.199787617,11.99377,-10.51817,8.388079,-0.9308801,0.2371654,0.1039796,44.15985,7.647304,5.39915,1006.67
24.232564926,17.83312,-6.322587,14.9246,-0.8591229,0.2896376,0.1393511,44.15985,7.647304,5.39915,1006.67
24.267864227,-2.356128,-1.063338,15.65767,-0.8733359,0.3460587,0.1455575,44.15913,7.64136,4.964038,1006.67
24.300641060,-31.11805,2.777686,9.243325,-0.9490713,0.3355288,0.123129,44.89404,7.275177,4.968828,1006.67
24.333418846,-28.5711,1.123091,1.912643,-0.9761269,0.2763115,0.1146179,44.89404,7.275177,4.968828,1006.67
24.366196156,-15.15301,-1.240616,-3.279923,-0.9858214,0.2679075,0.1083959,44.90226,6.922628,5.844782,1006.67
24.401494503,2.30293,-4.904363,-5.540217,-0.9872515,0.2551791,0.1007167,46.00656,6.179249,4.984609,1006.67
24.434272289,11.1862,-5.790753,-6.273285,-0.9635326,0.2890728,0.1136061,46.00656,6.179249,4.984609,1006.67
24.467049122,12.30437,-5.140733,-6.700908,-0.9659513,0.2937438,0.1578901,46.01477,5.8267,5.860562,1006.67
24.499826431,7.024109,-6.618051,-7.861599,-0.963991,0.2945484,0.2012067,45.27164,6.545432,4.979818,1006.67
24.532604218,-1.921283,-8.627202,-10.61061,-0.9236401,0.2789802,0.2252026,45.27164,6.545432,4.979818,1006.67
24.567902565,-21.86205,-2.42247,-16.10862,-1.118504,0.3568164,0.3064163,46.35784,6.913194,5.407791,1006.666
24.600680351,-37.33012,-7.504441,-27.04355,-1.371929,0.3124204,0.1800047,45.62896,6.908995,4.973619,1006.672
24.633457184,3.483225,-2.540655,-28.93731,-1.050932,0.09948885,0.2007442,45.62896,6.908995,4.973619,1006.672
24.666234493,34.48149,-6.204401,-21.36227,-0.8757597,0.1844809,0.3758977,45.25739,7.268361,4.533247,1006.672
24.701533317,11.68317,-6.027123,-11.40476,-0.7341669,0.2776099,0.4307781,45.23784,8.367617,4.951169,1006.667
24.734310627,-24.71961,-5.081641,-5.540217,-0.7340723,0.2235247,0.357211,45.21683,9.454983,4.498867,1006.667
24.767087460,-34.41045,-5.495289,-1.447253,-0.8184497,0.1593975,0.2718254,45.21683,9.454983,4.498867,1006.666
24.799865246,-8.443964,-5.613475,-1.569431,-0.9372714,0.1050697,0.3063658,45.21537,9.443094,3.628644,1006.67
24.832642555,9.446819,-6.499865,-0.8363623,-0.9962401,0.2067899,0.367004,45.22213,9.078657,3.634374,1006.666
24.867941380,-7.760636,-0.1178553,4.783827,-0.9065292,0.2622504,0.3902943,45.22213,9.078657,3.634374,1006.666
24.900718689,-36.27407,6.914174,9.243325,-0.8229793,0.2538544,0.4132141,45.20861,9.807531,3.622914,1006.666
24.933495522,-56.96029,10.7552,10.52619,-0.83213,0.220099,0.4026968,44.8513,9.443968,3.629113,1006.67
24.966273308,-60.25269,10.99157,10.22075,-0.8418764,0.2250237,0.3521695,44.8513,9.443968,3.629113,1006.672
25.001571655,-60.62542,13.11891,10.15966,-0.8705052,0.2160014,0.3498442,44.50896,8.363417,4.516997,1006.666
25.034349442,-58.94815,14.30076,11.6258,-0.8603255,0.2259208,0.3632832,45.24533,8.009123,5.39201,1006.664
25.067126751,-64.53902,16.90084,15.41332,-0.8924916,0.2778456,0.3748339,45.24533,8.009123,5.39201,1006.664
25.099904060,-78.88892,19.85547,19.01757,-0.9347257,0.2700772,0.3590609,44.53069,7.281994,5.40441,1006.67
25.132681370,-82.67829,19.79638,23.96578,-0.9109205,0.2598607,0.3320635,44.55316,6.206515,6.726935,1006.666
25.167980194,-85.72221,20.50549,27.87548,-0.8997239,0.2477715,0.3310925,44.55316,6.206515,6.726935,1006.666
25.200757027,-86.5919,18.20088,31.90735,-0.8977212,0.2138782,0.2873349,44.2182,4.766622,7.993502,1006.666
25.233534813,-78.32984,16.90084,34.65636,-0.872472,0.2110529,0.270913,43.86234,4.414945,8.869925,1006.666
25.266312122,-72.5526,18.49634,35.69487,-0.9161788,0.2105979,0.2580206,43.86234,4.414945,8.869925,1006.666
25.301610947,-68.26627,18.90999,36.67229,-0.9385849,0.2416482,0.2676542,43.54744,1.809964,9.346571,1006.666
25.334388256,-67.70718,20.68277,39.72674,-0.9317567,0.2255058,0.2493705,43.5699,0.7344842,10.6691,1006.67
25.367165089,-67.02386,22.8101,43.63644,-0.9269329,0.2356567,0.2324962,43.5699,0.7344842,10.6691,1006.67
25.399942875,-65.90569,26.8875,46.93525,-0.9059767,0.1981356,0.204584,43.23433,-0.7105036,11.56271,1006.67
25.432720184,-63.8557,33.3286,48.03485,-1.005146,0.249078,0.225441,42.54133,-2.519905,12.40036,1006.67
25.468018532,-84.72828,33.68316,41.6205,-1.277286,0.3352673,0.199963,42.54133,-2.519905,12.40036,1006.667
25.500796318,-74.22987,31.14217,41.74268,-0.9316437,0.1525118,0.1180685,42.22676,-5.052259,13.74628,1006.669
25.533573151,-59.56936,34.9832,38.68823,-0.9508516,0.2668251,0.12083,40.82036,-7.64868,14.65945,1006.667
25.566350937,-66.15417,37.3469,29.46379,-1.038346,0.296981,0.08007629,40.82036,-7.64868,14.65945,1006.67
25.601649285,-57.08453,35.10138,18.95648,-0.9731376,0.2229669,0.003978031,40.8549,-9.46492,15.12321,1006.67
25.634426594,-39.31799,40.95156,9.915304,-0.9193156,0.2601143,0.02834383,39.74327,-11.64284,15.59419,1006.67
25.667204380,-44.66038,46.80173,3.867492,-0.9189724,0.3306285,0.08263061,39.76574,-12.71832,16.91671,1006.67
25.699981213,-66.52689,48.51542,-1.997054,-0.9010821,0.364954,0.0945705,39.76574,-12.71832,16.91671,1006.672
25.732758999,-115.975,51.88371,-4.929327,-0.9294457,0.4434097,0.06467509,39.06744,-14.15139,18.61886,1006.672
25.768057346,-137.4067,49.10635,-2.791211,-1.006451,0.3514271,0.0269688,38.34676,-14.50814,19.06064,1006.672
25.800834656,-133.3688,43.0198,-0.04220513,-1.046614,0.2901288,0.0151224,38.34676,-14.50814,19.06064,1006.672
25.833612442,-103.613,33.3286,1.48502,-1.044621,0.2692297,0.01900006,37.65773,-16.7049,18.22574,1006.672
25.866389275,-74.0435,25.94202,3.562047,-1.029099,0.2802179,0.03964524,36.9645,-18.58608,18.25628,1006.673
25.899166584,-53.91637,21.45097,6.372141,-0.9751931,0.2787663,0.04625864,36.9645,-18.58608,18.25628,1006.673
25.934465408,-53.54365,23.81468,7.410655,-1.011243,0.3362336,0.08909872,37.3549,-20.05065,17.84362,1006.675
25.967242718,-67.7693,26.00111,6.372141,-1.010293,0.349045,0.1092944,35.54804,-20.77516,17.85743,1006.675
26.000020504,-86.77827,27.6557,7.349566,-0.9908774,0.3536372,0.1159804,35.54804,-20.77516,17.85743,1006.677
26.032797337,-100.8797,28.12845,9.609859,-0.9781546,0.3072875,0.08906387,35.93167,-21.87528,17.43904,1006.675
26.068096161,-107.6508,26.00111,12.84758,-0.9897248,0.2675804,0.06604579,34.86441,-23.3474,16.22019,1006.675
26.100873947,-96.09638,21.74644,13.825,-0.9793969,0.2085913,0.04541166,34.86441,-23.3474,16.22019,1006.677
26.133650780,-87.27523,18.73271,13.51956,-0.9799911,0.2579075,0.06411184,35.63095,-25.5536,14.9483,1006.677
26.166428089,-84.4798,15.48261,11.68689,-1.000302,0.2191317,0.04544535,34.56398,-27.09324,13.23314,1006.677
26.199205875,-83.05102,13.29618,10.52619,-0.9965035,0.255194,0.0439379,34.56398,-27.09324,13.23314,1006.675
26.234504223,-86.15706,8.686954,10.95382,-1.013424,0.2218675,0.03440103,34.2256,-28.56116,12.44846,1006.673
26.267282009,-77.77075,2.895872,13.58065,-1.002668,0.1902664,0.02960953,33.88421,-30.05369,9.861181,1006.675
26.300058842,-65.59508,-3.249767,17.12381,-1.003156,0.1932582,0.04019614,33.88421,-30.05369,9.861181,1006.675
26.332836151,-53.91637,-9.277222,20.30044,-0.9812914,0.1876029,0.04111553,33.90845,-31.53437,8.205813,1006.673
26.368134976,-44.59826,-12.6455,20.91133,-0.9822786,0.2004784,0.07286833,33.18415,-31.92084,6.472036,1006.673
26.400912285,-41.55434,-12.76369,16.02421,-1.099894,0.2493354,0.09617902,33.18415,-31.92084,6.472036,1006.675
26.433690071,-45.65431,-15.36377,8.204812,-1.230614,0.2921048,0.1002755,32.8232,-32.31412,4.302677,1006.675
26.466466904,-36.6468,-18.43659,7.593922,-1.021572,0.1896265,0.1004155,32.13218,-34.52702,2.286757,1006.675
26.499244213,-16.08482,-13.82736,17.30708,-0.8457263,0.1795636,0.1929164,32.13218,-34.52702,2.286757,1006.673
26.534543038,-22.11053,-5.672567,23.35489,-0.9056139,0.2563302,0.2381908,32.12324,-34.18041,0.9756913,1006.675
26.567320347,-44.47401,-1.122431,16.20747,-0.9376414,0.2462721,0.2310615,31.03559,-34.56007,-0.3225043,1006.675
26.600097180,-55.46939,1.832203,5.150361,-0.9094309,0.2270461,0.2339117,31.03559,-34.56007,-0.3225043,1006.675
26.632874966,-54.72394,3.486798,-4.74606,-0.8670963,0.1934507,0.2545604,31.02676,-34.21261,-1.57141,1006.675
26.668173313,-47.45581,4.550467,-9.327736,-0.8709939,0.2018015,0.2694793,30.66726,-34.59401,-2.870545,1006.675
26.700951099,-42.17554,4.905023,-11.28258,-0.881723,0.2227047,0.2766937,30.65759,-34.25335,-4.616722,1006.673
26.733728409,-40.00132,4.668652,-12.26001,-0.8719903,0.2160477,0.2882333,30.65759,-34.25335,-4.616722,1006.673
26.766505241,-30.80744,7.26873,-11.95456,-0.9098797,0.2250924,0.3037131,31.01887,-34.27715,-6.29548,1006.675
26.799283028,-27.63928,7.091452,-7.861599,-0.935189,0.2618339,0.3648508,31.36797,-33.56103,-7.177634,1006.671
26.834581852,-31.11805,7.150545,-1.019629,-0.9176871,0.2552451,0.3768532,31.36797,-33.56103,-7.177634,1006.671
26.867358685,-33.78924,8.627861,3.134424,-0.9113724,0.2487655,0.3479663,31.72383,-33.20935,-8.054057,1006.673
26.900136471,-44.53614,10.22336,5.272539,-0.9109157,0.268018,0.3845197,31.7231,-33.2153,-8.489169,1006.673
26.932913780,-44.28765,7.741471,8.265901,-0.8996654,0.2310102,0.3720334,31.7231,-33.2153,-8.489169,1006.672
26.968212605,-41.18161,5.850505,11.13708,-0.8641836,0.2131688,0.3551284,31.70074,-32.13897,-9.749535,1006.669
27.000989914,-39.62859,4.727745,13.21411,-0.8826815,0.2319888,0.3522558,31.33449,-32.15593,-11.0544,1006.669
27.033766747,-36.46043,2.718594,13.45847,-0.913239,0.2160884,0.3436877,31.33449,-32.15593,-11.0544,1006.669
27.066544533,-29.62715,0.8867203,13.21411,-0.923462,0.2267112,0.3427332,31.33303,-32.16781,-11.92462,1006.667
27.099321842,-29.44079,1.477647,13.39738,-0.9142556,0.2325455,0.3301872,31.33085,-32.18565,-13.22996,1006.666
27.134620190,-32.79531,3.900447,15.77985,-0.8909636,0.2395717,0.3320468,31.33085,-32.18565,-13.22996,1006.666
27.167397976,-32.54683,4.19591,18.40668,-0.8646696,0.2060852,0.3175941,30.59521,-31.82541,-13.66986,1006.666
27.200174809,-29.75139,7.26873,20.36153,-0.8647149,0.2230541,0.3064973,30.16162,-31.47693,-14.91822,1006.668
27.232952595,-31.92562,10.99157,20.42262,-0.8724592,0.2152973,0.3209682,30.16162,-31.47693,-14.91822,1006.668
27.268250942,-32.60895,13.70983,20.05608,-0.8535096,0.213124,0.3358487,28.71061,-31.84977,-15.78083,1006.666
27.301028252,-31.98774,16.54628,19.3841,-0.8544533,0.198895,0.3219129,27.97497,-31.48953,-16.22074,1006.666
27.333806038,-38.51042,20.50549,20.30044,-0.8802717,0.2352642,0.3301025,27.97497,-31.48953,-16.22074,1006.668
27.366582871,-44.84674,24.11014,19.9339,-1.083324,0.2696241,0.3324578,27.62442,-32.21753,-16.20881,1006.668
27.399360657,-51.6179,18.90999,19.13975,-1.12021,0.2539204,0.2897277,27.97206,-31.5133,-17.96118,1006.668
27.434659004,-52.23911,19.73729,18.10123,-1.232483,0.2937474,0.2687541,27.97206,-31.5133,-17.96118,1006.668
27.467436314,-44.16341,14.59622,17.49034,-1.247456,0.2473793,0.2024315,26.87921,-31.51578,-18.33273,1006.67
27.500214100,-11.17728,8.982417,22.07202,-1.02926,0.1665829,0.1577505,27.5849,-30.44205,-19.65619,1006.667
27.568289280,33.05272,17.55086,35.87814,-0.6909623,0.245972,0.2415482,26.47915,-29.71056,-19.66624,1006.666
27.601067066,-10.61819,22.75101,35.75596,-0.7514304,0.360649,0.2761768,26.13753,-30.78516,-18.34324,1006.666
27.633844376,-70.81322,24.58289,28.73072,-0.899101,0.3761888,0.2370319,25.06017,-31.50038,-17.52231,1006.67
27.666622162,-102.06,17.49176,17.00163,-1.090844,0.3406087,0.1836278,25.06017,-31.50038,-17.52231,1006.67
27.699398994,-89.8843,8.096026,6.249963,-1.109978,0.2050515,0.1135987,25.06413,-31.88774,-19.19487,1006.67
27.734697819,-31.98774,-4.136158,0.7519521,-1.080337,0.1950208,0.1063231,24.6701,-30.4529,-20.95777,1006.672
27.767475605,10.37863,-11.58184,3.195513,-0.9668292,0.2451853,0.1098292,24.6701,-30.4529,-20.95777,1006.672
27.800252438,25.97095,-10.87272,9.670948,-0.8906354,0.266407,0.1283896,25.37579,-29.37917,-22.28123,1006.672
27.833029747,20.13159,-6.263494,13.94718,-0.9020116,0.3605477,0.1624514,25.01171,-29.37829,-22.28076,1006.672
27.865807533,-7.822757,-1.77245,12.90867,-0.9340913,0.3764459,0.1759816,25.01171,-29.37829,-22.28076,1006.672
27.901105881,-27.14232,0.4139789,7.899367,-0.9316046,0.3496061,0.1654262,24.2925,-29.72315,-20.96876,1006.672
27.933883667,-25.15445,2.068574,-1.019629,-0.937866,0.3281242,0.1654734,24.29105,-29.73504,-21.83898,1006.672
27.966660500,-23.16659,1.654925,-9.266647,-0.9607194,0.345117,0.1852379,24.29105,-29.73504,-21.83898,1006.673
27.999437809,-23.72568,1.418555,-16.47515,-0.9942706,0.3653193,0.1891379,23.91948,-29.37568,-22.27935,1006.673
28.034736633,-29.00594,0.4139789,-20.14049,-1.020483,0.3667492,0.2161541,24.63349,-28.65364,-22.6647,1006.675
28.067513943,-30.12411,-2.186099,-17.63584,-1.02085,0.3231337,0.2479906,24.63349,-28.65364,-22.6647,1006.675
28.100291729,-17.88632,-5.258919,-12.50436,-1.035812,0.2840159,0.2437528,24.61852,-27.93666,-23.54639,1006.677
28.133068562,-7.015186,-8.981758,-8.777935,-1.022691,0.28127,0.2533531,25.68112,-26.43267,-24.44189,1006.677
28.165845871,-2.728853,-10.81363,-9.022291,-0.9633735,0.2486297,0.2508548,25.68112,-26.43267,-24.44189,1006.677
28.201144695,5.53321,-13.59099,-12.74872,-0.8895333,0.2386649,0.2699491,25.30352,-25.70293,-24.45288,1006.677
28.233922005,6.651384,-9.749963,-22.03425,-0.9905896,0.2687359,0.3033575,25.66687,-25.70974,-24.88847,1006.677
28.266698837,9.198337,-9.040851,-34.67968,-1.218437,0.3125025,0.2874656,25.66687,-25.70974,-24.88847,1006.683
28.299476624,26.53003,-11.81821,-43.17105,-1.048203,0.1840165,0.2362311,26.03771,-26.07505,-24.88321,1006.681
28.334774971,40.87993,-7.740811,-37.30651,-0.7292464,0.231684,0.3340819,26.01815,-24.9758,-24.46528,1006.681
28.367552757,17.771,-3.545231,-24.23346,-0.6496387,0.2551903,0.3969161,26.01815,-24.9758,-24.46528,1006.681
28.400330067,-8.630326,-1.654265,-14.88684,-0.7433103,0.2262862,0.3451947,27.48268,-25.33184,-23.59121,1006.681
28.433106899,-22.17266,-1.595172,-11.40476,-0.9554895,0.2085694,0.2937376,27.46312,-24.23258,-23.17329,1006.681
28.465884686,-0.9894713,-8.56811,-8.350311,-1.037758,0.0854361,0.2652366,27.46312,-24.23258,-23.17329,1006.677
28.501183033,38.95419,-13.29552,-0.5309172,-0.9396987,0.118698,0.3780739,28.1891,-24.25216,-24.47956,1006.675
28.533960343,28.95274,-10.99091,11.56471,-0.8140983,0.1929888,0.4046203,28.17027,-23.14696,-23.62653,1006.675
28.566738129,0.4393067,-4.608899,17.97906,-0.8126537,0.1968536,0.3983534,28.17027,-23.14696,-23.62653,1006.679
28.599515438,-18.19693,-1.949728,17.12381,-0.8484018,0.115073,0.3773815,27.82647,-24.2394,-23.60887,1006.679
28.634814262,-7.263669,-1.063338,9.854216,-0.8741516,0.1196784,0.3702152,27.4624,-24.23853,-23.6084,1006.679
28.667591572,-4.530355,-0.4133187,5.700162,-0.9020035,0.1970353,0.391826,27.82575,-24.24534,-24.04398,1006.679
28.700368404,-14.40756,1.714018,7.166298,-0.8990384,0.1786732,0.4091756,27.82575,-24.24534,-24.04398,1006.675
28.733146191,-23.66356,0.7094423,12.66431,-0.843563,0.1264692,0.3994955,27.11184,-24.96653,-23.59647,1006.675
28.765923500,-14.40756,0.1776081,16.20747,-0.8566774,0.1232635,0.3745006,27.4624,-24.23853,-23.6084,1006.675
28.801222324,-7.636394,0.5321642,14.61916,-0.8625665,0.1520432,0.3879493,27.4624,-24.23853,-23.6084,1006.677
28.833999634,-4.716718,1.063998,11.32035,-0.848024,0.1659254,0.4057043,27.10363,-24.61398,-24.47242,1006.677
28.866776466,-7.884877,1.063998,8.571346,-0.8582562,0.1824628,0.4148495,26.38899,-25.34111,-24.46002,1006.677
28.899554253,-9.065172,1.477647,8.32699,-0.8631522,0.1959352,0.3970305,26.38899,-25.34111,-24.46002,1006.677
28.934852600,-2.169766,2.541316,8.082634,-0.8937208,0.1833972,0.3817183,26.38369,-24.96478,-23.59553,1006.677
28.967629910,1.805964,4.018632,10.95382,-0.8816311,0.2019184,0.3691463,26.3762,-24.60629,-24.03637,1006.677
29.000407696,-0.05765956,9.336973,15.35223,-0.8695255,0.2115962,0.3455162,26.3762,-24.60629,-24.03637,1006.677
29.033184528,-3.536423,24.05105,13.03084,-1.095033,0.3085644,0.4132956,26.39794,-25.68771,-23.14896,1006.679
29.065962315,-19.99843,17.01902,3.867492,-1.33396,0.3101828,0.3729441,26.39107,-25.32412,-23.21685,1006.68
29.101260662,-2.542491,12.29161,0.0188839,-1.219327,0.2794067,0.2918499,26.39107,-25.32412,-23.21685,1006.68
29.134037972,9.50894,10.34155,8.754613,-0.9118364,0.217779,0.2348941,26.3918,-25.31818,-22.78174,1006.679
29.166815758,26.84064,14.12348,21.40004,-0.7345126,0.1838153,0.2504096,27.48341,-25.32589,-23.1561,1006.679
29.199592590,24.48005,15.00987,28.18092,-0.7099104,0.2613036,0.2978893,27.48341,-25.32589,-23.1561,1006.68
29.234890938,-4.90308,18.20088,23.47707,-0.8451836,0.3825013,0.3095801,27.50649,-26.39628,-21.46062,1006.68
29.267668724,-46.08915,18.43725,12.41995,-1.019111,0.4154323,0.2815427,26.06443,-27.11572,-21.01217,1006.679
29.300446034,-57.8921,12.82344,1.607198,-1.066022,0.3280975,0.2456835,26.06443,-27.11572,-21.01217,1006.679
29.333223820,-48.0149,6.264154,-4.196259,-1.049899,0.2797778,0.2115414,26.42851,-27.11659,-21.01264,1006.677
29.366000652,-10.49395,-3.604323,-0.1032941,-0.9288354,0.2064573,0.1680422,27.14845,-26.76579,-21.88953,1006.675
29.401299477,16.28011,-3.249767,9.426592,-0.8551767,0.2734627,0.1899091,27.14845,-26.76579,-21.88953,1006.679
29.434076786,16.77707,0.945813,16.51292,-0.8990023,0.3317656,0.2221764,27.85487,-25.68611,-22.77789,1006.679
29.466854096,-3.660665,5.082301,14.86351,-0.9141457,0.3746724,0.2471785,26.77761,-26.40048,-21.89479,1006.679
29.499631882,-24.0984,7.032359,9.243325,-0.9121597,0.3541565,0.2361334,26.77761,-26.40048,-21.89479,1006.681
29.534930229,-29.50291,7.327823,2.890068,-0.9193582,0.3165311,0.2270613,26.04197,-26.04024,-22.33469,1006.677
29.567707539,-23.10447,4.255003,-0.7752733,-0.9076358,0.2863858,0.2203399,26.7983,-27.56047,-22.31176,1006.677
29.600485325,-9.748501,-0.7087821,-2.119232,-0.8925406,0.2649516,0.2015633,26.77012,-26.04198,-22.33563,1006.677
29.633262157,3.234741,-3.30886,-3.707546,-0.9270788,0.2919676,0.2059367,26.77012,-26.04198,-22.33563,1006.677
29.666039467,6.651384,-5.495289,-7.617243,-0.9795841,0.3228571,0.2286387,27.49755,-26.04967,-22.77169,1006.677
29.701338291,10.31651,-7.504441,-13.05417,-1.034441,0.3190537,0.2379204,26.4047,-26.05215,-23.14323,1006.677
29.734115601,10.68923,-7.858997,-17.94129,-1.087877,0.336429,0.2794181,26.4047,-26.05215,-23.14323,1006.677
29.766893387,-6.890945,-6.027123,-30.58671,-1.464453,0.4509472,0.3210544,26.7694,-26.04793,-22.77075,1006.679
29.799670219,2.924138,-18.90933,-35.41275,-1.259495,0.2059042,0.2058921,27.11933,-25.32502,-23.15563,1006.679
29.834968567,65.23128,-22.86854,-27.47117,-0.9100648,0.07976513,0.2066976,27.11933,-25.32502,-23.15563,1006.677
29.867746353,94.67652,-18.85024,-9.877537,-0.6538097,0.1557249,0.3162071,27.83459,-24.5928,-22.79508,1006.675
29.900523663,66.78429,-13.76827,-6.517641,-0.7274878,0.3202571,0.392189,27.8428,-24.94534,-21.91912,1006.675
29.933301449,8.142283,-10.69545,-8.533579,-0.7566795,0.3276975,0.3065647,27.8428,-24.94534,-21.91912,1006.669
29.966078281,-6.953066,-9.218129,-14.27595,-0.8248966,0.2173512,0.2789738,27.87806,-26.75564,-21.02025,1006.675
30.001376629,-3.722785,-7.681719,-15.6199,-0.9725392,0.2414133,0.3447529,27.51544,-26.74288,-20.14956,1006.675
30.034154415,13.67103,-11.16819,-9.144469,-0.9738856,0.1916039,0.3275022,27.51544,-26.74288,-20.14956,1006.675
30.066931725,13.48467,-9.749963,0.324329,-0.9201222,0.2520783,0.3446125,27.50722,-26.39033,-21.02551,1006.675
30.099708557,-2.418249,-4.904363,10.46511,-0.8433031,0.2083053,0.3310182,27.87202,-26.38526,-20.59087,1006.675
30.132486343,-5.772771,-3.072489,12.35886,-0.8281843,0.1811808,0.3343927,27.87202,-26.38526,-20.59087,1006.677
30.167784691,-1.424317,-1.595172,9.426592,-0.8442389,0.1906672,0.3170875,27.8713,-26.3912,-21.02598,1006.677
30.200562477,2.054447,1.300369,5.577984,-0.8423656,0.2199116,0.3180017,27.14314,-26.38946,-21.02504,1006.677
30.233339787,-2.169766,7.505101,4.844916,-0.8321615,0.2206143,0.3367495,27.14314,-26.38946,-21.02504,1006.677
30.266116619,-10.30759,13.41437,3.806403,-0.8346173,0.2348049,0.3492494,26.77834,-26.39453,-21.45968,1006.677
30.301415920,-18.63177,18.0236,1.607198,-0.8079189,0.240462,0.3602488,27.16383,-27.54946,-21.44201,1006.677
30.334193230,-25.8999,20.62368,0.1410619,-0.8283147,0.2412726,0.3612587,27.16383,-27.54946,-21.44201,1006.677
30.366970062,-33.16803,21.39188,1.179575,-0.8618757,0.2653611,0.3637088,27.50046,-26.0259,-21.03124,1006.677
30.399747849,-39.38011,20.3873,3.806403,-0.8963138,0.2504995,0.3691079,27.86381,-26.03271,-21.46682,1006.677
30.432525158,-37.70285,17.90541,7.410655,-0.884183,0.2550175,0.3738859,27.86381,-26.03271,-21.46682,1006.677
30.467823982,-34.34833,17.07812,11.68689,-0.8803087,0.2604474,0.3796449,28.22113,-25.66915,-21.47302,1006.679
30.500601292,-36.77104,14.30076,14.25262,-0.9080263,0.2792875,0.3907535,28.2076,-24.94028,-21.48448,1006.68
30.533378124,-32.1741,10.63701,14.9246,-0.9288684,0.2599954,0.3730217,28.2076,-24.94028,-21.48448,1006.68
30.566155911,-22.23478,14.71441,9.976394,-1.12374,0.3260943,0.3772352,27.83604,-24.58091,-21.92485,1006.68
30.601454258,-22.98023,8.864232,0.7519521,-1.278235,0.3639054,0.3972804,27.83531,-24.58685,-22.35996,1006.682
30.634232044,-12.48181,1.182184,-3.707546,-1.201863,0.2964697,0.3432884,27.83459,-24.5928,-22.79508,1006.68
30.667009354,10.44075,-5.081641,7.7161,-1.012451,0.267372,0.2735669,27.83459,-24.5928,-22.79508,1006.68
30.699786186,27.83457,-6.38168,28.97508,-0.7972366,0.2208473,0.2582044,28.17162,-23.13592,-22.81847,1006.68
30.732563972,37.15269,-2.245192,50.5395,-0.7200975,0.2487415,0.2546099,27.83604,-24.58091,-21.92485,1006.68
30.767862320,16.34223,6.973267,60.37483,-0.7801442,0.3866659,0.269948,27.83604,-24.58091,-21.92485,1006.68
30.800639629,-31.86349,15.54171,52.43326,-0.9255248,0.4707879,0.2850882,27.13493,-26.03691,-21.90099,1006.679
30.866194248,-96.65546,7.446008,9.793126,-1.078276,0.3731758,0.2292783,26.07836,-27.91128,-21.43487,1006.683
30.901493549,-69.57081,-5.081641,1.546109,-0.9449236,0.2270347,0.1348354,24.96929,-27.13688,-22.75121,1006.683
30.934270382,-15.46361,-13.41371,7.593922,-0.855961,0.1753495,0.08945426,24.58817,-26.436,-24.8756,1006.683
30.967047691,16.34223,-14.18191,15.90203,-0.8804033,0.251888,0.1293499,24.58817,-26.436,-24.8756,1006.683
30.999825478,26.03307,-13.29552,22.92727,-0.8946171,0.3108212,0.1466238,24.1881,-24.63077,-26.20911,1006.685
31.032602310,17.21192,-9.927241,21.33895,-0.9224085,0.3628561,0.168754,23.11012,-25.35109,-25.76113,1006.685
31.067901611,2.862017,-7.858997,16.0853,-0.9253041,0.3550294,0.1673285,23.11012,-25.35109,-25.76113,1006.685
31.100678444,-3.039457,-5.495289,9.670948,-0.8955868,0.3123512,0.1576951,23.14465,-27.16733,-25.29737,1006.685
31.133455753,1.371118,-2.540655,2.706801,-0.8994781,0.3177699,0.1711743,21.6955,-27.59496,-25.72392,1006.685
31.166233540,-0.8652297,0.6503496,-7.80051,-0.957792,0.3398041,0.1881271,21.6955,-27.59496,-25.72392,1006.685
31.201531887,-2.977336,0.8867203,-19.83504,-0.9859471,0.3407039,0.2112979,22.06031,-27.58988,-25.28927,1006.685
31.234309673,-7.450032,2.954964,-28.57078,-0.9689212,0.3362801,0.2550681,21.68834,-27.16384,-25.29549,1006.685
31.267086983,-9.437897,13.53255,-42.62125,-1.275473,0.4059978,0.2836091,21.68834,-27.16384,-25.29549,1006.685
31.299863815,-2.790974,5.200486,-53.18965,-1.233015,0.3086771,0.2451461,22.76632,-26.44352,-25.74347,1006.683
31.332641602,38.89207,8.15512,-54.47252,-1.140543,0.2228834,0.2633478,23.85856,-26.44614,-25.74488,1006.681
31.367939949,72.93425,-3.899787,-40.1166,-0.9322326,0.2342432,0.3157865,23.85856,-26.44614,-25.74488,1006.681
31.400717259,74.42515,-8.981758,-25.21088,-0.6958161,0.2580855,0.3084507,25.65335,-24.98087,-24.89993,1006.681
31.433495045,55.97528,-8.390831,-12.68763,-0.6084813,0.2850372,0.2971316,26.01285,-24.59947,-23.60079,1006.677
31.466271877,30.87849,-0.2360406,-9.999715,-0.7444488,0.2873053,0.2964879,26.01285,-24.59947,-23.60079,1006.676
31.501571179,14.23012,2.600408,-20.26267,-1.014931,0.3064462,0.3625658,26.39856,-25.68262,-22.77601,1006.676
31.534348011,22.86491,-5.022548,-28.87622,-1.013877,0.2723926,0.3669469,27.13565,-26.03097,-21.46588,1006.676
31.567125321,31.74818,-6.145309,-29.5482,-0.9230564,0.2694114,0.38936,27.13565,-26.03097,-21.46588,1006.676
31.599903107,14.78921,-5.968031,-15.98644,-0.7672159,0.2834247,0.3961897,27.86381,-26.03271,-21.46682,1006.674
31.632679939,-3.660665,-0.4724114,-4.379526,-0.7627533,0.2364154,0.3543715,28.22934,-26.0217,-20.59707,1006.674
31.667978287,-13.53787,0.05942276,0.7519521,-0.832224,0.2443882,0.3237171,27.86454,-26.02677,-21.03171,1006.674
31.700756073,-3.225819,-0.4724114,-1.325075,-0.8709569,0.1978368,0.3296555,27.86454,-26.02677,-21.03171,1006.674
31.733533382,11.80741,-1.181523,-4.196259,-0.8871049,0.2558702,0.3599321,28.22185,-25.6632,-21.03791,1006.674
31.766311169,5.222607,1.53674,-2.607944,-0.859979,0.2909304,0.3963984,28.21509,-25.29877,-21.04364,1006.676
31.801609516,-12.60606,4.19591,3.867492,-0.842978,0.2886437,0.3973242,28.21509,-25.29877,-21.04364,1006.676
31.834386349,-20.93024,6.441432,11.6258,-0.8404753,0.2489202,0.3550183,28.22185,-25.6632,-21.03791,1006.674
31.867164135,-21.55145,6.086876,17.06272,-0.8647063,0.2272316,0.3469253,27.85174,-25.29195,-20.60806,1006.676
31.899941444,-19.06662,4.609559,19.81173,-0.8778034,0.2212678,0.3455213,27.85174,-25.29195,-20.60806,1006.68
31.932719231,-17.20299,3.604984,20.54479,-0.9050435,0.2425103,0.3513303,28.22789,-26.03359,-21.46729,1006.68
31.968017578,-19.50146,2.186759,22.31638,-0.9142424,0.2256802,0.3234584,27.49901,-26.03778,-21.90146,1006.682
32.000794411,-15.40149,7.977842,20.78915,-1.071729,0.2940492,0.3290239,27.49901,-26.03778,-21.90146,1006.68
32.033572197,-23.47719,5.259579,14.06936,-1.224258,0.314566,0.311063,27.12682,-25.68351,-22.71479,1006.678
32.066349506,-11.30152,4.491374,6.799765,-1.217828,0.2598775,0.2832112,27.12744,-25.67842,-22.34183,1006.678
32.101648331,9.633182,0.3548862,9.426592,-1.036235,0.25873,0.2500497,27.12744,-25.67842,-22.34183,1006.678
32.134425640,23.67248,2.364038,18.46777,-0.9206091,0.2283102,0.2190141,26.41208,-26.41149,-22.76455,1006.678
32.167202950,27.83457,6.441432,28.73072,-0.8274498,0.2623465,0.238959,26.04342,-26.02835,-21.46447,1006.676
32.199980736,18.39221,8.39149,34.71745,-0.7575555,0.2731072,0.2315566,26.04342,-26.02835,-21.46447,1006.674
32.232757568,2.240809,11.81887,35.87814,-0.7372344,0.3004269,0.2136568,26.42778,-27.12253,-21.44775,1006.674
32.268055916,-16.08482,15.06896,28.36419,-0.8446447,0.3333288,0.1715022,24.62205,-27.90779,-21.43299,1006.674
32.300833702,-37.08164,16.90084,13.70282,-0.967622,0.3883789,0.1813381,24.62205,-27.90779,-21.43299,1006.68
32.333611012,-52.98456,12.17342,-4.807148,-1.093889,0.3890493,0.1493854,24.27898,-28.99428,-20.98022,1006.68
32.366388798,-38.69678,2.127667,-17.14713,-1.056276,0.2817299,0.07966045,23.53585,-28.27555,-21.86096,1006.682
32.399165630,-2.48037,-5.258919,-16.65842,-0.9838609,0.2500224,0.0554684,23.53585,-28.27555,-21.86096,1006.682
32.434463978,19.44827,-5.081641,-10.73278,-0.9213245,0.3004762,0.09182752,23.88568,-27.55349,-22.308,1006.682
32.467241764,23.36187,-3.249767,-1.874876,-0.9087455,0.3256275,0.1216042,25.31985,-26.40887,-22.76314,1006.682
32.500019074,13.17407,0.2367008,2.584623,-0.9161214,0.3680686,0.1403309,25.31985,-26.40887,-22.76314,1006.68
32.532795906,-3.847027,3.664077,1.546109,-0.9476911,0.3707141,0.1384763,24.95577,-26.408,-22.76267,1006.682
32.568095207,-11.79849,4.136817,-2.8523,-0.9689652,0.3310431,0.1323288,24.59918,-26.76562,-22.32135,1006.683
32.600872040,-4.530355,-0.2951333,-6.028929,-0.9912286,0.3026962,0.1449398,24.96326,-26.76649,-22.32183,1006.685
32.633649826,8.266524,-6.086216,-8.839024,-1.01109,0.2775077,0.1185499,24.96326,-26.76649,-22.32183,1006.685
32.666427135,26.77852,-10.69545,-12.44328,-1.001862,0.2801336,0.1348904,25.32734,-26.76737,-22.32229,1006.685
32.699203968,34.35725,-13.11825,-15.74208,-1.049991,0.3136956,0.1864597,24.58566,-26.03675,-22.33282,1006.685
32.734503269,45.84959,-12.58641,-21.60663,-1.167993,0.3145856,0.1761483,24.58566,-26.03675,-22.33282,1006.683
32.767280102,47.52686,-14.95012,-29.12058,-1.134516,0.3301069,0.196744,24.95868,-26.38422,-21.02222,1006.683
32.800057888,54.48438,-15.30468,-32.3583,-1.032855,0.2624972,0.2274119,24.98082,-27.53233,-20.56896,1006.683
32.832835197,52.12379,-15.00921,-27.65444,-0.8911543,0.3042741,0.2515624,24.98082,-27.53233,-20.56896,1006.683
32.868133545,35.04058,-13.11825,-21.78989,-0.7769174,0.2496516,0.2436719,26.06661,-27.09789,-19.70683,1006.687
32.900911331,29.69819,-10.34089,-20.26267,-0.8050163,0.2160678,0.2105752,26.43277,-27.08178,-18.46413,1006.687
32.933688164,32.67999,-9.749963,-22.70623,-0.8375279,0.2080508,0.2174035,26.43277,-27.08178,-18.46413,1006.687
32.966465950,40.56933,-9.454499,-28.08206,-0.8715542,0.2253805,0.2290108,26.79757,-27.0767,-18.02949,1006.687
32.999243259,38.89207,-6.263494,-30.34236,-0.9211897,0.274808,0.2526407,27.15416,-26.71908,-18.4708,1006.687
33.034541607,26.53003,-2.304284,-27.8988,-0.9818888,0.2823351,0.2874314,27.15416,-26.71908,-18.4708,1006.687
33.067319393,11.86953,-1.299709,-20.81247,-0.9594918,0.2551844,0.2782733,28.6141,-26.69285,-16.29712,1006.687
33.100096703,13.42255,-0.2951333,-10.30516,-0.8928171,0.1873983,0.2555933,28.25606,-27.06236,-16.72603,1006.689
33.132873535,18.08161,0.5912569,-3.585368,-0.899621,0.1938169,0.2762983,28.25606,-27.06236,-16.72603,1006.69
33.168172836,17.08768,-1.595172,-2.363588,-0.9234259,0.1964602,0.2647981,28.60131,-25.95804,-15.87347,1006.69
33.200949669,22.30582,-2.717933,-3.157745,-0.9326535,0.197364,0.2657814,28.98567,-27.05222,-15.85675,1006.689
33.233727455,27.08912,-4.313436,-1.569431,-0.9175221,0.1648789,0.2686826,28.98567,-27.05222,-15.85675,1006.693
33.266504765,32.67999,-2.245192,1.48502,-0.9068934,0.1858465,0.2594799,28.97891,-26.68778,-15.86248,1006.69
33.299281597,25.34974,2.659501,2.584623,-0.8957483,0.1977054,0.2705069,29.716,-27.03613,-14.55235,1006.69
33.334580898,15.59678,6.559618,3.134424,-0.9035473,0.212325,0.2810934,29.716,-27.03613,-14.55235,1006.69
33.367357731,11.49681,8.036934,4.050759,-0.9161146,0.1828106,0.2542114,28.9892,-27.02335,-13.74335,1006.695
33.400135517,13.36043,7.091452,3.684225,-0.9933921,0.208819,0.235101,28.63977,-27.81209,-13.73046,1006.696
33.432912827,14.168,4.550467,-0.1643832,-1.117741,0.2217549,0.2137152,28.63977,-27.81209,-13.73046,1006.695
33.468211174,28.8285,-4.313436,-4.318437,-1.041339,0.1376164,0.1390497,29.0053,-27.80108,-12.86071,1006.695
33.500988960,66.16309,-5.672567,-7.25071,-1.058807,0.1215007,0.08375883,28.63446,-27.43577,-12.86597,1006.695
33.533765793,85.54477,-6.677143,-9.938626,-1.054115,0.1937484,0.1019306,28.63446,-27.43577,-12.86597,1006.693
33.566543102,82.31449,-5.613475,-7.739421,-0.9462364,0.1595651,0.0993194,29.3648,-27.41968,-11.56157,1006.695
33.599320889,76.59938,-3.899787,-2.119232,-0.8203919,0.1280606,0.1101397,29.38934,-28.47818,-8.995872,1006.689
33.634619236,53.86317,1.418555,-1.386163,-0.8793107,0.2032839,0.1424173,29.39297,-28.44846,-6.820314,1006.689
33.667397022,22.2437,2.777686,-9.755359,-1.069823,0.2677372,0.1148531,29.39297,-28.44846,-6.820314,1006.69
33.700173855,13.11195,-5.790753,-21.97316,-1.166752,0.1778729,0.05552956,29.03638,-28.80608,-6.379003,1006.69
33.732951164,38.45722,-12.88188,-28.50969,-1.182229,0.1438471,0.01373908,29.77275,-29.16037,-5.503989,1006.692
33.768249989,82.50085,-20.80029,-29.42602,-1.069039,0.113787,-0.03269481,29.77275,-29.16037,-5.503989,1006.692
33.801027298,108.7779,-20.62302,-26.1883,-0.9570244,0.1825736,-0.01092152,29.76734,-28.7849,-4.701654,1006.692
33.833805084,112.7537,-16.95927,-25.69959,-0.9410709,0.2169699,0.01353825,30.54483,-28.04008,-3.408798,1006.692
33.866581917,99.27346,-14.00464,-29.48711,-1.014446,0.2362224,-0.001238951,30.54483,-28.04008,-3.408798,1006.692
33.899359226,89.83111,-12.82278,-38.89482,-1.052297,0.2175684,-0.04685042,31.27121,-27.63663,-0.431844,1006.692
33.934658527,88.15385,-14.3001,-49.70758,-1.073655,0.2084093,-0.07759312,31.98086,-26.46055,1.289518,1006.692
33.967435360,88.71293,-10.75454,-55.51103,-1.06925,0.1943455,-0.07421284,31.98086,-26.46055,1.289518,1006.692
34.000213146,86.72507,-6.736236,-55.20559,-1.063436,0.20582,-0.04199268,33.06102,-25.72241,2.146872,1006.692
34.032990456,78.21452,-4.84527,-51.2348,-0.9934483,0.1816655,-0.02768142,34.12287,-23.87482,4.168053,1006.692
34.065767288,78.27664,-4.017972,-48.54689,-1.114807,0.1675297,-0.02352138,34.12287,-23.87482,4.168053,1006.692
34.101066589,84.92356,-5.613475,-51.7846,-1.205132,0.1726908,-0.01320632,35.53476,-21.30348,5.86651,1006.69
34.133843422,103.3113,-15.0683,-55.44994,-1.085059,0.1041186,-0.07307663,36.96621,-19.83139,7.147046,1006.69
34.166620731,115.7355,-5.672567,-54.96123,-0.8455309,0.06138488,0.007288433,36.96621,-19.83139,7.147046,1006.69
34.199398518,96.41591,6.677803,-56.36628,-0.896154,0.1347943,0.1189738,37.28441,-17.26931,7.976689,1006.69
34.234696865,48.08594,14.12348,-62.16973,-1.030149,0.1249197,0.1207506,37.96691,-14.63633,9.612972,1006.69
34.267474651,30.87849,18.49634,-66.38487,-1.033323,0.02586758,0.09828338,37.96691,-14.63633,9.612972,1006.692
34.300251484,21.9331,20.09184,-60.7036,-1.002008,-0.07924162,0.07381807,38.64315,-11.70475,10.87153,1006.692
34.333028793,57.83891,18.85089,-48.54689,-0.9910918,-0.1866264,0.02678058,39.32471,-9.149493,11.26559,1006.692
34.365806580,66.84642,19.50091,-39.93333,-1.001639,-0.0254939,0.09828565,39.32471,-9.149493,11.26559,1006.692
34.401104927,53.49045,18.73271,-38.40611,-1.010189,-0.1119982,0.0657037,39.65705,-7.311199,12.47965,1006.692
34.433882713,71.25699,15.65989,-38.52829,-0.969803,-0.1543011,0.02716273,40.40637,-5.047896,13.74863,1006.692
34.466659546,75.60545,17.37358,-37.61195,-0.941278,-0.09739958,0.0510774,40.40637,-5.047896,13.74863,1006.692
34.499436855,64.9828,21.09642,-31.38087,-0.8825526,-0.07765084,0.08893593,39.58519,-3.211933,14.59122,1006.695
34.534735680,55.66468,23.22375,-23.92801,-0.8916569,-0.1404857,0.02888201,39.95658,-0.2915111,14.97994,1006.693
34.567512989,53.0556,27.83298,-20.20158,-0.9238371,-0.08676013,0.01925012,39.14215,1.180015,15.82826,1006.693
34.600290775,58.77072,27.36024,-15.92535,-0.9654565,-0.1536254,-0.02098477,39.14215,1.180015,15.82826,1006.693
34.633067608,47.40261,31.26036,-9.69427,-0.941792,-0.09784893,-0.01294181,38.75063,2.70532,16.23997,1006.693
34.665844917,37.83601,33.97862,-1.447253,-0.983775,-0.2087765,-0.01556322,38.35483,4.545359,17.45497,1006.691
34.701143742,50.13593,30.9649,4.234026,-0.9763985,-0.2522185,-0.03813924,38.35483,4.545359,17.45497,1006.691
34.733921051,47.89958,29.84213,5.089272,-0.9730574,-0.2359225,-0.08005021,37.62136,4.92343,18.3204,1006.691
34.766698837,41.43902,35.33775,4.844916,-0.9913827,-0.2851188,-0.05875267,37.5965,6.399009,19.60281,1006.691
34.799475670,53.17985,31.85129,2.645712,-1.001506,-0.3138548,-0.0466513,37.5965,6.399009,19.60281,1006.691
34.834774494,68.21307,32.14675,2.706801,-0.9451752,-0.3163371,-0.05111343,36.49823,6.772008,20.03361,1006.689
34.867552280,61.44191,33.56497,3.745314,-1.002679,-0.2225679,-0.01501623,35.75801,7.514514,20.89331,1006.689
34.900329113,51.12986,33.80134,3.073335,-0.9826471,-0.2775396,-0.02990311,35.75801,7.514514,20.89331,1006.689
34.933106422,61.37979,32.79677,1.790465,-0.9622983,-0.2563536,-0.01939334,35.36823,8.984173,21.67892,1006.688
34.965884209,63.8025,28.89665,2.462445,-0.9531463,-0.222071,-0.003100422,34.62801,9.726681,22.53863,1006.688
35.001182556,57.59042,27.24206,3.134424,-0.9750221,-0.2196191,-0.04444934,34.62801,9.726681,22.53863,1006.69
35.033960342,51.93743,25.52837,5.089272,-0.9220873,-0.2210754,-0.03735228,34.24438,10.82681,22.95702,1006.69
35.066737175,53.49045,26.0602,8.388079,-0.870137,-0.224262,-0.06779648,32.76851,11.92955,23.37682,1006.688
35.099514484,31.68606,30.61034,10.03748,-0.8445304,-0.1725162,-0.08141334,32.76851,11.92955,23.37682,1006.688
35.134813309,24.66641,32.85586,8.876791,-0.943589,-0.1799519,-0.1211202,32.00542,13.81422,23.34816,1006.687
35.167590618,32.61787,26.35567,9.54877,-1.026592,-0.2084773,-0.2012677,32.00011,14.19055,24.21265,1006.687
35.200368404,63.18129,22.75101,15.23005,-0.8522499,-0.2334346,-0.2878074,32.00011,14.19055,24.21265,1006.687
35.233145237,68.27519,35.39685,21.15568,-0.8227395,-0.180848,-0.255224,31.27872,13.82786,24.21932,1006.688
35.265922546,63.36765,46.97901,21.09459,-1.185617,-0.09189633,-0.1245298,30.15872,15.28228,23.7627,1006.688
35.301221371,63.74038,40.24245,17.7347,-1.071089,-0.06822406,-0.1498679,30.15872,15.28228,23.7627,1006.688
35.333998680,11.74529,49.52,17.12381,-1.081885,-0.01855948,-0.1388458,29.78933,15.65948,24.62766,1006.684
35.366776466,8.204404,45.79716,18.34559,-1.096115,-0.1614166,-0.1438918,29.34502,16.75975,25.04613,1006.69
35.399553299,39.69964,36.75598,17.00163,-1.057895,-0.1077279,-0.1734264,29.34502,16.75975,25.04613,1006.688
35.434851647,59.26768,33.21041,13.15302,-1.052176,-0.07298835,-0.2274048,27.89827,16.42173,26.73203,1006.688
35.467629433,68.21307,28.483,11.01491,-0.9604538,-0.04421772,-0.1925263,26.42844,17.15409,26.72244,1006.684
35.500406742,51.19198,27.47843,11.74797,-0.8366689,-0.02200813,-0.1591581,26.42844,17.15409,26.72244,1006.684
35.533184528,22.05734,24.28742,10.03748,-0.9612734,-0.1065117,-0.1847287,25.67179,18.6017,25.83024,1006.688
35.565961361,61.37979,13.53255,7.04412,-1.074487,-0.1035965,-0.3298358,26.00892,20.05942,25.86901,1006.688
35.601259709,25.2255,14.35985,9.609859,-0.791442,-0.03974329,-0.1024379,24.55189,20.05697,25.43578,1006.687
35.634037495,6.961988,13.76892,11.87015,-1.030923,-0.210927,-0.1280868,24.55189,20.05697,25.43578,1006.687
35.666814804,33.54968,-0.8860602,6.616498,-1.099388,-0.2423251,-0.2886519,25.2583,21.13665,24.54743,1006.687
35.699592590,28.89062,2.895872,10.77055,-0.8883881,-0.1076427,-0.08477662,25.25227,21.50703,24.97681,1006.685
35.734890938,-24.34688,13.178,8.876791,-0.9202474,-0.4034841,-0.1463508,25.25227,21.50703,24.97681,1006.685
35.767668247,6.216539,2.954964,2.828979,-1.068567,-0.3309011,-0.2462317,25.23802,22.22996,24.53024,1006.685
35.800445557,1.122635,4.077725,6.616498,-1.06955,-0.3275536,-0.2539362,24.87322,22.22489,24.09559,1006.685
35.833222866,-9.313655,4.077725,6.188874,-0.9656652,-0.3165026,-0.2604569,24.87322,22.22489,24.09559,1006.687
35.866000652,-36.46043,12.23251,0.5686851,-0.9374229,-0.362003,-0.3239951,25.24551,21.87146,24.97108,1006.687
35.901299000,-22.6075,11.5234,-0.3476502,-0.8084975,-0.2565142,-0.2975037,24.88143,21.87234,24.97155,1006.687
35.934076309,-60.25269,14.65531,-0.2254722,-0.9338894,-0.2093572,-0.2992027,24.88143,21.87234,24.97155,1006.687
35.966854095,-50.68609,7.859657,0.7519521,-0.9433661,-0.3199281,-0.3596652,25.26111,21.15957,26.22571,1006.687
35.999630928,-20.55752,-3.013397,-0.7752733,-0.9394844,-0.3325702,-0.4313782,24.18385,20.44521,27.10881,1006.687
36.032408237,-18.32117,-5.022548,-11.95456,-0.9376378,-0.3098062,-0.5219129,24.18385,20.44521,27.10881,1006.688
36.067707062,22.18158,-13.88645,0.446507,-0.9938617,-0.08542089,-0.1943104,24.56821,19.35102,27.12553,1006.69
36.100484371,51.50259,-25.94136,16.39074,-0.9445789,0.06522623,0.04843332,24.19061,20.08077,27.11454,1006.69
36.133262157,30.38152,-26.00045,3.806403,-0.9316685,-0.307521,-0.2003809,24.19061,20.08077,27.11454,1006.69
36.166038990,11.86953,-28.48234,-1.508342,-0.7622356,-0.1197027,-0.3599152,25.63808,20.42473,25.86375,1006.696
36.201337338,-16.0227,-25.29134,-1.263986,-0.9021512,-0.0841115,-0.326423,26.35054,21.13403,24.54601,1006.696
36.234115124,3.731708,-35.51437,4.722738,-0.9292282,-0.3290288,-0.2845926,26.35054,21.13403,24.54601,1006.698
36.266892433,19.63463,-44.31918,9.121147,-0.9075746,-0.2506027,-0.3088302,25.60886,21.86465,24.5355,1006.7
36.299670219,13.04982,-50.81938,14.19153,-0.8559207,-0.1230519,-0.3086636,26.69142,22.20269,22.78791,1006.7
36.332447052,-58.63755,-49.8148,21.46113,-0.8974351,-0.2130248,-0.2400762,26.69142,22.20269,22.78791,1006.7
36.367745400,-61.86783,-61.81061,23.66033,-0.8301144,-0.3485101,-0.2636184,27.4174,22.18312,21.48163,1006.698
36.400523186,-45.96491,-94.60705,46.01891,-0.8715876,0.01423101,0.121504,28.50828,22.16946,20.67216,1006.698
36.433300495,-23.91204,-147.2586,79.31243,-0.9963908,-0.1930809,0.08552901,28.50828,22.16946,20.67216,1006.698
36.466078282,-27.94989,-165.4001,58.66434,-0.6044909,-0.1274446,0.5085803,29.66432,21.77254,18.50084,1006.698
36.501376629,-48.82247,-191.2236,83.83302,-0.7782392,0.2285185,0.4280684,32.60431,19.89073,14.67189,1006.698
36.534153462,-20.30903,-247.7162,76.99105,-0.7919599,-0.1574187,0.2756096,35.89943,18.35465,9.531399,1006.698
36.566931248,71.25699,-279.9217,106.1305,-1.420139,0.4861002,-0.2803245,35.89943,18.35465,9.531399,1006.7
36.599708557,-55.77999,-221.9518,126.9619,-2.059924,1.212173,0.7540636,38.08392,17.51015,1.459394,1006.7
36.632486343,-129.2067,-235.1885,93.17963,-1.196309,-0.1693704,0.513898,39.18139,16.2911,-7.537854,1006.7
36.667784691,37.27693,-125.5716,7.655011,-0.1355875,0.6388152,1.997091,39.18139,16.2911,-7.537854,1006.7
36.700562000,37.09056,-97.56168,-17.3304,-1.075619,0.2045945,1.968205,39.63664,14.0211,-13.53343,1006.701
36.733339310,104.7401,-62.99247,-22.27861,-0.7668623,0.2414879,0.9488553,37.76121,13.2322,-18.24361,1006.705
36.766116619,10.81348,-15.30468,-7.983778,-0.1968917,0.01103074,0.6012703,37.76121,13.2322,-18.24361,1006.706
36.801415920,12.80134,38.64694,-5.662395,-0.03584589,-0.1462418,0.4836731,36.33557,11.31795,-20.76064,1006.706
36.834192753,3.296862,36.99235,-9.633181,-0.2521885,0.1816882,0.5554149,36.02028,8.77965,-19.84983,1006.706
36.866970062,-26.45899,12.40979,6.43323,-0.3921369,0.4283985,0.5520054,36.02028,8.77965,-19.84983,1006.706
