Time (s),Gyroscope X (deg/s),Gyroscope Y (deg/s),Gyroscope Z (deg/s),Accelerometer X (g),Accelerometer Y (g),Accelerometer Z (g),Magnetometer X (uT),Magnetometer Y (uT),Magnetometer Z (uT),Barometer (hPa)
0.000000000,0.8433802,-0.3047224,0.381055,0.1305754,0.9118096,0.3820418,-24.56555,-23.48351,-30.76317,1007.534
0.032776356,0.716188,-0.3032206,0.2576875,0.1286376,0.909842,0.3815681,-24.56555,-23.48351,-30.76317,1007.534
0.065552712,0.899767,-0.0655952,0.07413652,0.1330086,0.909388,0.381077,-25.2884,-23.85809,-31.62672,1007.534
0.100850582,-0.1586949,-0.06469592,0.1350724,0.1261954,0.9146484,0.3753089,-25.29443,-23.48771,-31.19734,1007.534
0.133627892,0.7106678,-0.5950614,0.2568339,0.1320461,0.9054737,0.3796411,-25.29443,-23.48771,-31.19734,1007.532
0.166404247,0.9552211,-0.4160062,-0.04870005,0.1247385,0.9156439,0.3801245,-24.93639,-23.1182,-30.76843,1007.532
0.199180603,0.6412306,-0.5912918,-0.04855885,0.1296016,0.9122651,0.3786739,-24.92287,-23.84707,-30.75697,1007.531
0.234478951,0.3904592,-0.293882,0.2563715,0.1257171,0.9112217,0.3733898,-24.92287,-23.84707,-30.75697,1007.533
0.267255306,-0.3553728,0.06157566,0.194544,0.1388285,0.9113479,0.3757653,-24.92287,-23.84707,-30.75697,1007.533
0.300031662,0.3270264,0.06167697,-0.2941754,0.127636,0.9219861,0.3781826,-24.92214,-23.84113,-30.32186,1007.531
0.332808971,-0.5418344,-0.05675974,0.07286798,0.130089,0.9128031,0.3854111,-24.92214,-23.84113,-30.32186,1007.53
0.365585327,0.4522987,-0.4691203,0.01178837,0.1300911,0.9108148,0.3796377,-24.93036,-23.48858,-31.19781,1007.53
0.400883198,1.131128,-0.2901908,-0.04931432,0.1300803,0.9136767,0.3709689,-24.93036,-23.48858,-31.19781,1007.528
0.433660030,0.2580155,-0.4071193,0.01207154,0.1276461,0.9181033,0.3801139,-24.93036,-23.48858,-31.19781,1007.526
0.466436386,1.001536,-0.2872744,-0.04912395,0.1325303,0.9059614,0.3791578,-24.56628,-23.48945,-31.19828,1007.529
0.499212742,1.802957,-0.5810289,-0.1707952,0.13154,0.9137357,0.3777044,-24.55879,-23.84795,-30.75744,1007.529
0.534510612,0.7405499,-0.5192378,-0.04813554,0.1315249,0.9180453,0.367108,-24.55879,-23.84795,-30.75744,1007.529
0.567287922,-0.1920194,-0.1043438,-0.04769016,0.1349337,0.9131766,0.3632564,-24.55879,-23.84795,-30.75744,1007.529
0.600064278,0.3667199,0.01387751,-0.04724668,0.1228082,0.910764,0.3810991,-24.92963,-23.48264,-30.7627,1007.529
0.632840633,-0.1921855,-0.04499354,0.01392024,0.1228044,0.9096929,0.3671412,-24.92963,-23.48264,-30.7627,1007.527
0.665617943,0.05665205,0.01422711,-0.3522299,0.1300845,0.9117218,0.3700091,-24.92214,-23.84113,-30.32186,1007.527
0.700915337,-0.3158141,0.01446133,-0.1681832,0.1334891,0.9103227,0.3748168,-24.9289,-23.47669,-30.32759,1007.527
0.733691692,-0.1277751,-0.1035235,-0.1065044,0.1281466,0.9112688,0.3772348,-24.9289,-23.47669,-30.32759,1007.525
0.766469002,-0.4999978,0.3100283,-0.2281526,0.1315303,0.9176252,0.3767358,-24.56628,-23.48945,-31.19828,1007.525
0.799245357,-0.3737964,0.1319126,-0.166191,0.1276595,0.9117451,0.3762725,-24.92287,-23.84707,-30.75697,1007.529
0.834543228,-0.3096258,0.2494448,0.01761377,0.1276645,0.9098037,0.3772382,-24.92287,-23.84707,-30.75697,1007.528
0.867320061,0.1255851,0.1308171,0.01759911,0.1281425,0.9127198,0.3757885,-24.92287,-23.84707,-30.75697,1007.526
0.900096416,0.06304976,0.07111691,-0.1653756,0.1271643,0.9151268,0.3728991,-24.92287,-23.84707,-30.75697,1007.526
0.932873249,-0.4944231,0.1884193,-0.2868986,0.1291142,0.9107162,0.3666434,-25.28018,-24.21064,-30.75077,1007.526
0.965650082,-0.05828362,0.1283179,-0.1638771,0.1286222,0.9141482,0.3704903,-25.28018,-24.21064,-30.75077,1007.524
1.000947952,-0.1201871,0.2455692,0.0199368,0.126208,0.908784,0.3724295,-24.92214,-23.84113,-30.32186,1007.524
1.033724308,-0.4300864,0.008549628,-0.2236574,0.1252245,0.9141399,0.3733865,-25.28622,-23.84026,-30.32139,1007.524
1.066500664,-0.1795577,0.1852735,-0.2224586,0.1349447,0.9103181,0.3724065,-25.28622,-23.84026,-30.32139,1007.524
1.099277973,-0.5500888,0.1840182,-0.4046659,0.127171,0.913716,0.3801216,-25.29371,-23.48177,-30.76223,1007.524
1.132054329,-0.2997923,0.1245833,-0.2207266,0.1218373,0.9097484,0.3762894,-24.92287,-23.84707,-30.75697,1007.53
1.167352200,-0.05001324,0.124092,0.02427253,0.1286311,0.9122671,0.3801203,-24.92287,-23.84707,-30.75697,1007.528
1.200129032,-0.04943928,0.1234753,0.08551139,0.1194151,0.9077968,0.3787048,-24.92963,-23.48264,-30.7627,1007.528
1.232905388,-0.3598801,0.122805,-0.03617211,0.1305682,0.9137175,0.3762627,-24.92963,-23.48264,-30.7627,1007.528
1.265681743,0.3865674,0.003897068,-0.03560328,0.1266685,0.9184985,0.3680815,-24.92963,-23.48264,-30.7627,1007.527
1.300980568,-0.9175211,0.2990842,-0.09642095,0.1228007,0.9131724,0.3772446,-24.92287,-23.84707,-30.75697,1007.527
1.333756924,0.0160228,0.121606,-0.09600864,0.1237715,0.9126701,0.3738735,-24.92214,-23.84113,-30.32186,1007.527
1.366533279,0.3883117,0.00344401,-0.1564957,0.1227995,0.9126486,0.3719504,-24.92214,-23.84113,-30.32186,1007.531
1.399310112,0.4481673,-0.173255,-0.03375668,0.136389,0.916198,0.3757637,-24.54454,-24.57088,-30.31087,1007.531
1.432086468,0.1363602,0.06298742,-0.1562186,0.1218212,0.9145484,0.3661736,-25.28622,-23.84026,-30.32139,1007.529
1.467384338,-1.2898,0.1215442,-0.1556286,0.1242576,0.9121771,0.372429,-25.28622,-23.84026,-30.32139,1007.529
1.500161648,-0.1689022,0.1210673,-0.1547066,0.1334867,0.9118004,0.3772213,-24.92214,-23.84113,-30.32186,1007.531
1.532938003,-0.6648283,0.06170328,0.0286546,0.1286269,0.9122001,0.3704932,-25.29225,-23.46988,-29.89201,1007.531
1.565714359,-0.5381883,0.1793592,-0.0931994,0.1262001,0.9121966,0.3729058,-25.29225,-23.46988,-29.89201,1007.531
1.601012230,-0.3498926,0.06096143,-0.1539369,0.1305772,0.9103218,0.3781932,-25.29371,-23.48177,-30.76223,1007.531
1.633789062,0.2700912,0.1195279,0.2129373,0.1271498,0.9209611,0.3714462,-24.55879,-23.84795,-30.75744,1007.535
1.666565418,-0.4739257,-0.1762003,-0.2147107,0.1281439,0.9107215,0.3685711,-24.55879,-23.84795,-30.75744,1007.535
1.699342251,0.1475767,-0.1762049,-0.1530529,0.1242554,0.9136582,0.375315,-24.92142,-23.83519,-29.88675,1007.535
1.732119083,-0.2247749,0.2370126,-0.213901,0.1252262,0.9131558,0.3719439,-24.93036,-23.48858,-31.19781,1007.535
1.767416954,-0.2843311,0.2362134,0.03049381,0.1223318,0.9063567,0.3782187,-25.65851,-23.48684,-31.19687,1007.535
1.800193310,0.274531,-0.1185084,0.1525281,0.1286393,0.9083541,0.3777194,-25.65851,-23.48684,-31.19687,1007.537
1.832970619,0.7074775,0.2357337,0.09129662,0.1247334,0.9155635,0.3685719,-24.55807,-23.842,-30.32233,1007.537
1.865746975,-0.7219614,0.4124769,-0.0918253,0.1276315,0.9234304,0.3757736,-24.55879,-23.84795,-30.75744,1007.535
1.901044369,-0.2216328,0.4114999,-0.1527411,0.1291187,0.9097757,0.3714584,-24.55879,-23.84795,-30.75744,1007.535
1.933821678,-0.09787129,0.05591511,0.03118677,0.1228012,0.9131791,0.3782073,-24.92287,-23.84707,-30.75697,1007.535
1.966598034,0.0273924,0.1145203,-0.2740981,0.1262047,0.9112593,0.3782021,-24.92287,-23.84707,-30.75697,1007.533
1.999374390,-0.1594713,0.05505351,0.03112298,0.1247416,0.9136723,0.3767579,-24.92287,-23.84707,-30.75697,1007.538
2.032151699,-0.09664184,-0.1223561,0.1527147,0.1218322,0.9116898,0.3753237,-24.92818,-23.47075,-29.89248,1007.538
2.067449093,0.3375753,-0.06305968,0.09147266,0.1329947,0.9152324,0.3810682,-24.55879,-23.84795,-30.75744,1007.536
2.100225925,-0.2833521,-0.0038209,-0.03073347,0.1286271,0.9132143,0.376268,-24.55879,-23.84795,-30.75744,1007.534
2.133002758,0.2145545,-0.06250849,0.03004012,0.1286392,0.907847,0.374832,-25.27873,-24.19875,-29.88054,1007.534
2.165779114,0.5234065,-0.1805502,0.1519998,0.1247404,0.9146631,0.3791632,-24.55879,-23.84795,-30.75744,1007.532
2.201076984,0.08632263,-0.002905939,0.1514858,0.1266773,0.9161102,0.3748242,-24.55879,-23.84795,-30.75744,1007.532
2.233854294,0.08632158,-0.002838409,0.2730075,0.1291133,0.9122176,0.3724174,-24.57232,-23.11907,-30.7689,1007.531
2.266630649,0.4576613,-0.179697,0.1501957,0.1189149,0.9131199,0.3743657,-24.9236,-23.85302,-31.19208,1007.531
2.299407005,0.08400714,-0.1200944,0.2108449,0.1276447,0.9175761,0.3743383,-24.9236,-23.85302,-31.19208,1007.531
2.332183838,0.2081986,0.2343394,0.2101002,0.1203734,0.9126551,0.3758071,-24.9289,-23.47669,-30.32759,1007.529
2.367481708,-0.1023452,-0.002226179,0.1482421,0.1271746,0.9122583,0.3806051,-25.28622,-23.84026,-30.32139,1007.533
2.400258064,0.828207,-0.1792354,0.2088996,0.1310578,0.9117634,0.3748204,-25.28622,-23.84026,-30.32139,1007.531
2.433035374,-0.7265891,0.1161613,0.2082587,0.1266682,0.9189988,0.3700062,-24.56483,-23.47757,-30.32806,1007.53
2.465811729,-0.7229063,-0.002163932,0.1460524,0.1305818,0.9073628,0.3729027,-25.27946,-24.20469,-30.31566,1007.53
2.501109600,0.02365015,0.05653058,-0.09871478,0.1247433,0.9136991,0.3806087,-25.27946,-24.20469,-30.31566,1007.527
2.533886433,-0.4723012,-0.002514593,0.2066151,0.1266704,0.9185286,0.3724137,-24.92214,-23.84113,-30.32186,1007.53
2.566662788,-0.2841113,0.05656963,0.2666125,0.1300985,0.9078993,0.3806048,-24.92214,-23.84113,-30.32186,1007.526
2.599439144,0.151093,-0.1799386,0.2042069,0.1232933,0.9107614,0.3801353,-24.92214,-23.84113,-30.32186,1007.524
2.632216453,0.6471503,-0.3562793,0.2033171,0.1266842,0.9141989,0.380122,-24.92214,-23.84113,-30.32186,1007.524
2.667514324,-0.09901435,-0.2367713,0.01896605,0.1291264,0.9068668,0.3733882,-24.56555,-23.48351,-30.76317,1007.523
2.700290680,4.12316,-3.131143,1.911567,0.08356354,0.893099,0.4794166,-24.56555,-23.48351,-30.76317,1007.523
2.733067512,74.1954,-17.90431,10.76947,0.09192202,0.8498359,0.4813875,-24.93639,-23.1182,-30.76843,1007.521
2.765844345,114.8845,-34.39117,49.0112,0.1530433,1.252968,0.3179346,-24.93567,-23.11226,-30.33332,1007.519
2.801141739,181.8507,-40.18225,104.1135,0.3261821,1.531474,0.2381609,-25.98089,-25.24362,-26.44368,1007.517
2.833919048,166.5069,-24.04995,161.7204,0.3702272,1.766009,0.08366717,-25.98089,-25.24362,-26.44368,1007.517
2.866695404,105.4422,-9.158597,219.083,0.2784578,1.756196,0.04346524,-28.4945,-26.63072,-21.6934,1007.517
2.899471760,64.3182,3.487237,264.7165,0.2149244,1.503292,-0.03879712,-32.55432,-26.57427,-18.26942,1007.52
2.932249069,41.83047,15.8967,295.6276,0.2417688,1.238478,-0.05145844,-32.55432,-26.57427,-18.26942,1007.52
2.967546463,-11.34491,25.05607,301.0034,0.2899461,0.7894899,-0.03019745,-37.00231,-22.17358,-17.08937,1007.516
3.033100128,-27.55844,27.71524,268.8706,0.5557423,0.07946834,-0.1274742,-41.5157,-14.46023,-18.01308,1007.515
3.065876484,-5.319198,33.32904,246.8785,0.6147889,-0.03567922,-0.08796902,-44.30402,-4.935705,-19.46498,1007.515
3.101174355,-13.0843,43.25661,222.8094,0.6751171,-0.08182427,-0.07263898,-44.84575,4.595325,-20.04956,1007.514
3.133951187,-69.3036,42.60659,196.2357,0.6961313,-0.3275438,0.006143483,-44.84575,4.595325,-20.04956,1007.512
3.166728020,-56.63096,27.71524,173.6328,0.7700141,-0.578283,-0.07019037,-43.55316,13.32644,-21.05918,1007.512
3.199504376,-14.51307,24.52423,154.0843,0.8115607,-0.4822498,-0.03770104,-39.97526,19.93223,-21.60316,1007.51
3.232281208,-4.263144,30.4335,129.5265,0.8750778,-0.6478192,-0.04049033,-39.97526,19.93223,-21.60316,1007.508
3.267579079,48.60164,47.92493,104.1135,0.8600805,-0.6819347,-0.09575994,-37.90749,26.17806,-22.0773,1007.507
3.300355434,42.94865,77.53037,75.21839,0.7905236,-0.630352,-0.08845229,-33.96494,29.43651,-23.00426,1007.505
3.333132744,66.86515,110.0904,47.42288,0.7172911,-0.6846456,-0.1738791,-33.96494,29.43651,-23.00426,1007.508
3.365909099,106.2497,146.137,22.92619,0.7040341,-0.6239067,-0.1782715,-31.03054,31.20996,-26.08253,1007.508
3.398685455,100.4725,190.9883,-3.464266,0.492618,-0.5059556,0.01844777,-27.38475,30.40273,-31.17279,1007.506
3.433983803,37.85474,228.1576,-35.59709,0.2228732,-0.5081185,0.5221139,-27.38475,30.40273,-31.17279,1007.504
3.466760158,94.19829,206.4115,-47.57054,0.1598149,-1.26322,0.9912851,-22.24823,27.77492,-35.86333,1007.502
3.499536514,565.4465,86.45337,47.11744,-1.532492,2.429003,3.021081,-17.05488,25.53518,-38.81923,1007.5
3.532313824,-389.7226,-3.485699,31.84518,1.094868,0.6029729,0.7561637,-17.05488,25.53518,-38.81923,1007.5
3.567611694,-95.76704,29.07437,9.79205,0.7191349,-1.698376,-0.3446832,-12.58381,19.57439,-43.02119,1007.499
3.600388050,154.0827,0.3553254,1.667211,0.3774471,-0.3658847,0.5489705,-12.28549,23.6528,-37.92551,1007.497
3.633164883,8.471615,17.90585,-16.59841,0.4665304,-0.1954526,0.8575366,-12.28549,23.6528,-37.92551,1007.497
3.665941238,20.70941,2.541755,-16.47623,0.4884175,-0.438664,0.7355853,-11.6087,26.23907,-39.70796,1007.497
3.698718548,7.726165,-4.017533,-18.36999,0.6126319,-0.4011668,0.7256069,-11.19679,23.62131,-40.04032,1007.497
3.734016418,6.732233,-8.035835,-18.06454,0.5231374,-0.3188883,0.8287066,-12.29588,23.98752,-40.1068,1007.495
3.766792774,-23.08574,-18.96798,-15.4988,0.5244374,-0.2384848,0.9031934,-12.29588,23.98752,-40.1068,1007.499
3.799569607,-39.60987,-25.46818,-12.07782,0.541599,-0.3211025,0.8382934,-12.2755,22.89506,-40.02745,1007.498
3.832346439,-45.3871,-34.09571,-15.01009,0.4565578,-0.3092209,0.7580898,-13.0151,23.64266,-38.79479,1007.496
3.867643833,-75.20507,-37.70036,-30.34343,0.5021867,-0.5409101,0.5835965,-13.0151,23.64266,-38.79479,1007.494
3.900421143,-69.17935,-42.54596,-49.76974,0.4414598,-0.5136107,0.6602358,-14.49813,25.17653,-37.94656,1007.494
3.933197498,-53.40068,-47.62793,-70.96763,0.5212691,-0.5778763,0.7077982,-16.7061,26.66838,-35.85326,1007.494
3.998751163,-0.03893193,-62.75566,-116.0513,0.6472222,-0.4991017,0.468144,-19.28555,28.52044,-34.13818,1007.491
4.034048557,45.55772,-61.75108,-133.4617,0.6552743,-0.4279488,0.3948506,-22.5938,27.08768,-32.86777,1007.489
4.066825390,28.59875,-55.48726,-149.0394,0.7147196,-0.3201926,0.3406347,-22.5938,27.08768,-32.86777,1007.489
4.099602222,31.82903,-43.78691,-161.8681,0.8275614,-0.2061766,0.2819505,-26.5506,24.55216,-32.38739,1007.491
4.132378578,16.23671,-29.66376,-172.1921,0.757215,-0.03004304,0.2712619,-30.50023,21.58553,-32.33542,1007.491
4.167676449,18.41094,-12.64506,-181.5998,0.8256076,-0.01949381,0.1651842,-30.50023,21.58553,-32.33542,1007.491
4.200453281,55.12432,-1.181084,-182.6384,0.6253506,0.2716512,0.1806239,-33.74223,16.49735,-31.81579,1007.49
4.233230114,48.788,15.8967,-178.6676,0.7551434,0.6326219,0.2452373,-36.19426,11.34655,-31.29621,1007.49
4.266006946,-8.797961,30.55169,-166.2054,0.8810516,0.7975859,0.3534777,-36.19426,11.34655,-31.29621,1007.494
4.298783302,-66.75664,53.71601,-162.4179,0.9176244,0.5341315,0.3845952,-36.80216,4.776538,-32.06235,1007.492
4.334081173,-45.44922,56.13882,-158.2027,0.6840274,0.3593431,0.4638747,-35.26649,0.3152881,-33.73496,1007.49
4.366858482,-26.50238,43.19752,-166.6941,0.5478376,0.472799,0.5540413,-35.26649,0.3152881,-33.73496,1007.489
4.399634838,-13.27066,32.56084,-172.7419,0.3646508,0.5213015,0.5351483,-33.40689,-1.886735,-34.51099,1007.489
4.432411194,1.389846,17.43311,-172.9252,0.2871813,0.6367471,0.5606701,-31.10308,-5.189881,-35.76766,1007.49
4.467709541,29.53056,10.04653,-163.5786,0.2202688,0.778094,0.4460517,-31.10308,-5.189881,-35.76766,1007.49
4.500485897,9.341306,18.37859,-152.216,0.2678289,0.9892202,0.4229967,-29.5773,-8.892537,-35.27617,1007.493
4.533262253,-42.77803,41.7202,-140.9146,0.2430264,1.000028,0.396083,-28.05338,-12.5404,-35.22075,1007.493
4.566039562,-87.2565,66.18458,-127.5972,0.1225826,1.025942,0.4853815,-28.05338,-12.5404,-35.22075,1007.493
4.598815918,-96.20189,75.93488,-104.2001,0.08603794,1.128724,0.7418791,-25.81555,-15.46707,-35.61284,1007.493
4.634113789,11.14281,23.63784,-36.20798,0.02508254,1.77071,1.385118,-22.92144,-14.78594,-38.61168,1007.491
4.666890621,-74.64598,-11.34503,50.72169,0.3721778,0.6408336,0.6259276,-22.92144,-14.78594,-38.61168,1007.495
4.699666977,74.81661,-2.481123,28.48529,-0.1278478,0.3231767,0.3012291,-19.25514,-12.98366,-39.45317,1007.495
4.732444286,37.35778,22.98782,20.54372,0.1103912,0.8250056,0.3904037,-20.00503,-11.90049,-40.33965,1007.494
4.767742157,-74.08689,44.43847,10.03641,0.05890318,0.8935086,0.7081214,-19.99088,-12.62427,-39.95524,1007.494
4.800518513,-95.82916,27.12431,14.74026,0.01434706,0.7217193,1.131603,-19.99088,-12.62427,-39.95524,1007.498
4.833295345,17.72761,-2.362938,26.95806,0.02124047,0.2151326,0.8339058,-19.27833,-11.91413,-41.21081,1007.498
4.866071701,98.73311,-10.34045,16.57293,0.01646819,0.5578293,0.6735885,-18.24695,-8.636813,-41.26379,1007.498
4.898848534,52.63949,-5.731221,8.142647,0.03442422,0.7573327,0.6255904,-18.24695,-8.636813,-41.26379,1007.496
4.934146881,50.83799,-2.776587,6.676511,0.09832065,0.8436646,0.6368614,-19.31068,-10.08006,-40.36924,1007.496
4.966923237,28.03966,3.369052,8.142647,0.1210805,0.8691536,0.6329181,-19.64626,-11.52504,-39.47562,1007.494
4.999699593,15.24278,6.678242,7.043045,0.09842444,0.7922488,0.5969856,-19.64626,-11.52504,-39.47562,1007.492
5.032476902,20.77153,7.74191,0.9952321,0.07958909,0.7482216,0.5918016,-19.2491,-13.35404,-39.88256,1007.497
5.067774296,25.74119,5.378203,-1.326151,0.1046374,0.8326711,0.5892082,-19.24099,-13.70744,-39.06876,1007.498
5.100551605,9.589788,7.387354,-6.579806,0.1041903,0.8135693,0.5743158,-19.24099,-13.70744,-39.06876,1007.498
5.133327961,6.111025,9.101042,-12.01673,0.1013707,0.779654,0.6032554,-19.58614,-14.81092,-39.85917,1007.498
5.166104317,5.489817,12.23295,-17.08712,0.07658588,0.7836666,0.5797214,-19.2153,-15.17623,-39.8539,1007.497
5.198881626,4.309523,25.52881,-21.24117,0.0881038,0.8164914,0.4535278,-19.2153,-15.17623,-39.8539,1007.497
5.234179020,-59.98548,50.22955,-31.68739,0.05501758,0.8697155,0.5830123,-18.10278,-16.27216,-39.83813,1007.495
5.266955376,-64.89302,54.95696,-30.70997,-0.03598135,0.7896107,0.7994803,-17.37005,-16.65617,-41.13867,1007.499
5.299732685,0.5822758,46.80217,-23.01275,-0.03511147,0.6046851,0.6798979,-17.37005,-16.65617,-41.13867,1007.499
5.332509041,30.27601,43.72935,-26.67809,-0.06417054,0.7808802,0.6984743,-15.23509,-14.12818,-42.48694,1007.499
5.367806911,29.28207,48.57495,-27.77769,-0.05879145,0.760806,0.6768306,-13.42074,-13.76216,-42.0599,1007.497
5.400583744,45.18499,54.01148,-36.0858,-0.05458712,0.8239148,0.6420674,-13.42074,-13.76216,-42.0599,1007.497
5.433360576,13.25491,63.52541,-39.38461,-0.1356586,0.8189789,0.6600776,-10.83912,-15.5964,-42.46965,1007.497
5.466137409,28.41238,67.07097,-38.59045,-0.1738987,0.7533486,0.5832494,-9.294357,-17.05184,-42.01358,1007.497
5.498913765,18.53518,67.30734,-40.17876,-0.2483048,0.8039804,0.5997158,-9.294357,-17.05184,-42.01358,1007.497
5.534211635,32.57448,66.59823,-39.50679,-0.2938871,0.7661637,0.5392294,-5.281291,-17.41399,-41.1428,1007.5
5.566988468,28.41238,70.8529,-39.32352,-0.3527565,0.8012414,0.4714441,-2.35515,-18.14984,-41.13509,1007.5
5.599765301,12.57159,69.78923,-38.40718,-0.3624585,0.8093914,0.5345132,-2.35515,-18.14984,-41.13509,1007.498
5.632541656,19.21851,71.38474,-42.62233,-0.3576431,0.8123356,0.4618117,0.2094948,-18.93368,-40.25574,1007.498
5.667840004,-9.357048,75.75759,-43.41648,-0.3955862,0.8331674,0.4214359,3.555085,-19.29423,-39.3841,1007.498
5.700616360,-16.56306,73.03933,-43.72193,-0.4376501,0.7639117,0.4582236,3.555085,-19.29423,-39.3841,1007.498
5.766170025,7.104958,66.06639,-45.0048,-0.492542,0.755519,0.3678704,10.46787,-18.92939,-38.15558,1007.502
5.798946381,-2.896488,68.19373,-47.50945,-0.5663218,0.7285451,0.2896241,10.46787,-18.92939,-38.15558,1007.502
5.834244728,9.030702,61.51625,-47.32618,-0.6160477,0.5972498,0.2389156,13.06317,-18.14008,-37.73625,1007.501
5.867021084,24.18817,48.81133,-45.79895,-0.7164733,0.7760696,0.3004985,15.60713,-17.76392,-36.43993,1007.501
5.899797440,7.850407,39.82924,-44.82153,-0.7039124,0.5893015,0.2521327,17.41607,-17.02243,-35.21057,1007.499
5.932574749,21.95182,32.91539,-51.05261,-0.7050779,0.6786904,0.2909911,17.41607,-17.02243,-35.21057,1007.503
5.965351105,17.91397,35.16092,-59.23854,-0.7284856,0.713294,0.2524855,19.59595,-16.6454,-33.91378,1007.503
6.000649452,-7.058579,36.99279,-62.10972,-0.7072378,0.5515276,0.2170581,21.40355,-15.91494,-33.49248,1007.503
6.033425808,15.05642,37.05188,-61.43774,-0.8341323,0.6181602,0.2162959,21.40355,-15.91494,-33.49248,1007.502
6.066202164,12.38522,34.15634,-60.09378,-0.8599277,0.6488258,0.2447113,22.54439,-15.17694,-32.6352,1007.502
6.098979473,13.62764,33.6245,-57.83349,-0.9107344,0.572384,0.2391706,24.33981,-13.70658,-31.4173,1007.502
6.134277344,24.06393,35.92912,-54.16815,-0.8952716,0.5874959,0.1524661,24.33981,-13.70658,-31.4173,1007.502
6.167053700,16.7958,32.79721,-49.40321,-0.8930218,0.4559379,0.1415877,25.41924,-12.97437,-30.99506,1007.502
6.199830532,5.862542,34.86545,-44.51609,-0.8708398,0.52241,0.1486553,27.21476,-11.50316,-29.71499,1007.502
6.232606888,9.403426,27.53796,-34.4364,-0.9269822,0.4434853,0.1426497,27.21476,-11.50316,-29.71499,1007.502
6.265384197,-7.307063,27.06522,-24.47889,-0.8854441,0.3333082,0.1475309,28.66504,-11.13627,-29.28749,1007.5
6.300682068,8.347373,28.77891,-17.7591,-0.9221691,0.4438671,0.05166038,29.73906,-10.02859,-28.06291,1007.504
6.333458423,2.259537,22.98782,-12.07782,-0.9366133,0.393135,0.05754744,29.73906,-10.02859,-28.06291,1007.504
6.366235256,4.12316,20.15137,-9.573168,-0.9001642,0.3727159,0.01898283,30.09856,-9.647197,-26.76378,1007.504
6.399012089,-2.337401,14.65575,-8.840099,-0.9762165,0.4961384,-0.0007586398,30.80716,-8.549687,-26.3468,1007.502
6.434309482,-1.46771,7.387354,-10.55059,-0.956126,0.4284388,0.04502511,30.80716,-8.549687,-26.3468,1007.502
6.467086792,4.247402,10.57836,-10.24515,-0.9030411,0.361644,0.04114898,31.17196,-8.544616,-25.91215,1007.502
6.499863148,0.8928797,12.11477,-9.695346,-0.9521762,0.3951425,0.01474013,31.89408,-8.175981,-25.48371,1007.502
6.532639980,-4.822232,12.23295,-7.129607,-0.9291113,0.2905351,0.002327685,31.89408,-8.175981,-25.48371,1007.502
6.565416813,-5.567681,7.032798,-3.647533,-0.9274118,0.3928303,0.002650839,31.90084,-8.540418,-25.47798,1007.502
6.600714207,-4.014662,3.664516,-2.181397,-0.9041194,0.3983485,-0.002226342,31.52387,-7.805576,-25.11602,1007.502
6.633491516,1.017121,0.8280669,-1.448329,-0.9663271,0.4181847,-0.01654954,31.52387,-7.805576,-25.11602,1007.505
6.666267872,-12.52521,-5.435758,0.3232529,-0.8990816,0.3269836,0.02482553,31.8947,-8.170886,-25.11076,1007.505
6.699045181,-7.555546,-3.840255,3.072259,-0.8777909,0.3568136,0.01654692,31.88005,-7.381272,-25.12317,1007.505
6.734342575,-7.1207,0.5916961,2.094834,-0.9599654,0.4063797,0.02918253,32.2434,-7.388089,-25.55876,1007.503
6.767118931,-16.19033,-0.9447136,1.239588,-0.8285804,0.2901471,0.03578515,32.2434,-7.388089,-25.55876,1007.501
6.799896240,-13.0843,-2.244753,-3.280999,-0.9309548,0.4536903,0.004011601,31.50859,-7.021057,-25.50139,1007.501
6.832672596,-9.170686,-4.844831,-5.358026,-1.032875,0.4334053,0.01102298,31.50183,-6.65662,-25.50712,1007.501
6.865448952,0.4580342,-9.926802,-6.213272,-1.041031,0.3919425,0.01158617,31.50183,-6.65662,-25.50712,1007.501
6.966300964,-19.29637,-22.45445,-20.93573,-0.9074197,0.3695573,0.06377143,31.1363,-6.667635,-26.37687,1007.502
6.999077320,-12.89793,-20.32711,-22.64622,-0.9622414,0.3546896,0.09280557,30.77004,-6.684594,-27.68174,1007.502
7.034375191,-15.75549,-18.8498,-27.35007,-0.9680943,0.3668601,0.09905881,30.37143,-4.867481,-28.14503,1007.5
7.067152023,-17.24639,-20.68167,-28.3275,-0.9398063,0.3150034,0.1019581,30.37143,-4.867481,-28.14503,1007.5
7.099928856,-3.8283,-23.93177,-27.59443,-0.9217213,0.2695335,0.125089,30.72064,-4.150518,-28.96502,1007.5
7.132705689,-12.02824,-32.50021,-31.0765,-1.079846,0.4042244,0.1435528,29.9722,-3.055461,-28.98127,1007.5
7.165482044,-6.251009,-37.58218,-36.87996,-1.012482,0.2562773,0.148911,29.9722,-3.055461,-28.98127,1007.5
7.200779915,-18.61304,-35.86849,-44.14955,-0.9119419,0.2585587,0.2160598,29.22158,-1.978237,-30.30286,1007.499
7.233557224,-17.49487,-30.1365,-52.7631,-0.9372008,0.2688099,0.2497996,28.82225,-0.1670671,-31.20126,1007.499
7.266333580,-26.19178,-24.04995,-59.05527,-0.9239597,0.2189364,0.2758369,28.82225,-0.1670671,-31.20126,1007.497
7.299110412,-29.5463,-18.8498,-66.99684,-1.061355,0.2105313,0.2829145,28.42967,1.279665,-32.09394,1007.495
7.334408283,-33.02506,-16.95883,-70.96763,-1.054345,0.1240011,0.2979504,27.66658,3.164335,-32.1226,1007.497
7.367184639,-35.63414,-17.72703,-75.06059,-1.000911,0.1151799,0.2959116,27.66658,3.164335,-32.1226,1007.496
7.399961948,-39.23714,-18.7907,-71.70069,-1.008524,0.04228694,0.2584933,27.26059,5.340791,-32.96457,1007.496
7.432738304,-48.43102,-19.618,-64.00348,-0.98794,-0.03538345,0.2705956,26.83493,8.615652,-33.45079,1007.496
7.465514660,-54.76733,-15.65879,-53.00746,-0.9776326,-0.07145371,0.3240566,26.83493,8.615652,-33.45079,1007.496
7.500813007,-51.9719,-14.18147,-37.36867,-0.952179,-0.1594786,0.3120949,26.42425,11.17353,-33.05531,1007.494
7.533589363,-50.66736,-16.72246,-30.34343,-0.9497863,-0.1564743,0.2509518,24.55072,14.17111,-31.85658,1007.492
7.566366672,-54.33249,-21.62715,-24.90651,-0.9278043,-0.2057578,0.2812997,24.55072,14.17111,-31.85658,1007.492
7.599143028,-37.37352,-26.70912,-26.12829,-0.8927433,-0.2513839,0.2615494,24.13932,16.72304,-31.89623,1007.492
7.634440899,-23.89331,-24.64088,-25.94502,-0.8559723,-0.1814126,0.3340424,24.11373,18.19268,-31.04892,1007.492
7.667217731,-27.55844,-20.26802,-20.99681,-0.8512634,-0.2978087,0.4694693,24.11373,18.19268,-31.04892,1007.492
7.699994087,-23.95543,-13.82692,-12.7498,-0.8697188,-0.3040849,0.4295695,22.62361,20.01835,-31.07569,1007.491
7.732771397,-19.35849,-5.908499,-5.541293,-0.8206168,-0.3370915,0.3866616,21.50361,21.47277,-31.53232,1007.491
7.765547752,-15.38276,-0.9447136,-0.8374383,-0.8219217,-0.4195937,0.2905167,21.50361,21.47277,-31.53232,1007.491
7.800845623,-0.6601397,1.77355,2.278101,-0.9166483,-0.1876663,0.3481552,21.48405,22.57203,-31.11439,1007.491
7.833622456,0.1474304,5.200925,4.782751,-0.8600665,-0.2847237,0.4006357,21.04577,23.30192,-31.1253,1007.491
7.866398811,-0.7843813,7.623725,7.531757,-0.8633544,-0.3400941,0.3564417,21.47656,22.93052,-31.55523,1007.491
7.899176121,9.030702,12.41023,10.28076,-0.8903229,-0.2196531,0.409274,21.47656,22.93052,-31.55523,1007.491
7.934473991,8.844339,15.42396,11.80799,-0.8862287,-0.3203968,0.3449136,21.85562,22.21266,-30.67402,1007.491
7.967250347,24.31241,16.78309,11.25819,-0.8281161,-0.2516265,0.359113,22.21293,22.57623,-30.68022,1007.495
8.000027180,15.18066,21.15595,11.62472,-0.9614,-0.1503873,0.3698664,22.21293,22.57623,-30.68022,1007.496
8.032803535,6.980716,33.86087,11.62472,-0.9572285,-0.2837684,0.3045924,22.96137,21.48117,-30.66397,1007.495
8.065580845,36.05324,44.26119,11.07492,-0.9845924,-0.2088961,0.3185039,23.70585,20.77348,-28.97516,1007.491
8.100878716,39.78049,55.66607,9.914228,-0.9436033,-0.09075832,0.3086014,23.70585,20.77348,-28.97516,1007.491
8.133655071,52.14252,63.76178,5.149285,-1.01563,-0.2353328,0.266149,24.81098,20.03689,-29.33806,1007.495
8.166431904,19.46699,62.22536,-3.097732,-1.010489,0.06312762,0.31623,26.29496,18.58075,-28.94407,1007.495
8.199208736,-16.19033,49.34316,-10.85604,-1.045224,-0.04273009,0.2635221,26.29496,18.58075,-28.94407,1007.496
8.231985569,-26.93723,55.19333,-17.08712,-1.0661,-0.2448905,0.2831308,26.67619,17.88072,-26.75752,1007.495
8.267283439,-34.39172,53.30237,-20.81355,-1.067481,-0.06390367,0.3271465,28.48513,18.62222,-25.52816,1007.495
8.332836628,-54.33249,60.57077,-18.91979,-1.248149,-0.2872197,0.1579909,29.57496,19.0197,-22.92463,1007.493
8.365613460,-45.13861,64.58907,-14.88791,-1.33771,-0.1691137,0.3005084,29.55966,20.15377,-19.95819,1007.499
8.400911808,-56.07187,53.24327,6.06562,-1.338787,0.07722727,0.2871429,29.55966,20.15377,-19.95819,1007.499
8.433688164,-9.605532,50.87957,55.6699,-1.248296,0.3524471,-0.02589028,30.25972,22.02091,-16.56905,1007.497
8.466464519,100.6589,35.45638,125.4336,-1.139079,0.5861564,0.04281453,31.35548,22.04716,-14.45706,1007.497
8.499241829,207.2581,-12.11323,146.0206,-0.8369691,0.1884919,0.2756764,31.35548,22.04716,-14.45706,1007.497
8.532018185,-73.27932,-26.70912,166.5465,-0.6366173,1.284797,0.2412976,32.89348,20.95616,-14.00671,1007.499
8.567316532,-360.2152,-54.18722,162.6368,-0.7252129,0.5204169,0.03711836,34.11272,14.01735,-14.76948,1007.497
8.600092888,-357.7925,-107.1343,129.9541,-0.7242267,0.08324764,-0.07630782,34.11272,14.01735,-14.76948,1007.5
8.632869244,-255.4174,-94.13387,99.53182,-0.3856796,-0.1910845,-0.2215872,34.89901,11.06314,-12.98318,1007.5
8.665646553,-170.4983,-42.36868,71.8585,-0.6123454,0.3479277,-0.3898572,33.46974,9.608885,-12.95837,1007.498
8.700943947,-252.9947,38.5292,30.01251,-0.8089032,0.06797625,-0.5598525,32.01416,9.61832,-12.52139,1007.496
8.733721256,-200.1299,71.56201,-5.174758,-0.9463379,-0.168847,-0.7623043,32.01416,9.61832,-12.52139,1007.496
8.766497612,-103.6564,97.44461,-9.267723,-1.148686,0.04066872,-0.4362582,30.48332,10.76791,-8.68277,1007.496
8.799273968,-7.369184,82.84872,-6.030005,-1.637347,0.01258847,0.1055124,28.63629,12.65305,-4.420113,1007.496
8.832051277,72.26965,56.90702,5.576909,-1.328158,0.1997004,-0.2536361,28.63629,12.65305,-4.420113,1007.494
8.867348671,-58.92943,104.713,-37.61303,-1.387743,-0.5421236,-0.6109912,27.16323,13.77872,-2.322023,1007.494
8.900125980,74.506,100.1629,-59.66616,-1.187011,0.3409428,0.1371633,25.6958,14.6007,-0.2191589,1007.497
8.932902336,-30.78872,85.3897,-61.6821,-0.8620071,0.6799991,0.1074811,25.6958,14.6007,-0.2191589,1007.495
8.965678692,-14.01611,87.16248,-51.54132,-0.929667,0.2848822,-0.1796172,23.85731,15.7162,1.071336,1007.495
9.000977039,-29.17358,82.55325,-51.84677,-1.154088,-0.0673803,-0.06880353,22.7477,16.83591,2.796002,1007.495
9.033753872,-12.71157,72.68478,-57.16151,-1.152171,-0.06018927,-0.08759202,22.7477,16.83591,2.796002,1007.495
9.066530705,-25.69481,73.74844,-63.08714,-1.196922,-0.04967691,-0.2030285,20.48569,17.96262,4.83295,1007.495
9.099307060,-5.878285,71.91657,-61.74319,-1.095236,0.2821334,-0.1657422,18.28916,18.70862,5.694533,1007.495
9.132084370,-8.300995,68.90284,-61.6821,-1.103335,-0.01250709,-0.2933212,18.28916,18.70862,5.694533,1007.495
9.167381763,17.91397,62.04809,-63.39259,-1.056693,-0.03441269,-0.3477927,16.80861,20.19278,7.35178,1007.495
9.200158596,6.297388,51.47049,-48.79232,-1.079362,0.112237,-0.3133019,14.23593,21.68041,9.072597,1007.493
9.232935429,15.24278,51.88414,4.599484,-1.331395,0.3547432,-0.1561457,14.23593,21.68041,9.072597,1007.492
9.265711784,-111.173,37.52462,21.82659,-1.337967,0.04758449,-0.1946574,12.76006,22.78316,9.492397,1007.494
9.301010132,-109.1851,22.75145,5.882353,-1.285529,-1.070324,-0.6994895,12.38672,23.54772,12.02992,1007.496
9.333786964,1.327725,-12.82234,3.01117,-1.211729,-0.1869016,-0.3780023,12.38672,23.54772,12.02992,1007.496
9.366563320,-18.4888,-36.87307,-0.6541713,-1.369135,-0.3450558,-0.3095185,13.12735,23.22824,15.45344,1007.494
9.399340153,35.68052,-70.79226,6.06562,-1.014812,-0.03618599,-0.09276761,13.86444,22.87989,16.76357,1007.492
9.432116508,80.4696,-74.04236,-3.952978,-0.9677749,-0.1085232,-0.6063831,13.86444,22.87989,16.76357,1007.492
9.467415333,79.16506,-76.05151,4.171861,-0.8694617,0.2307434,-0.4733091,16.42651,22.14491,16.77174,1007.491
9.500191688,63.32426,-74.92874,13.45739,-0.8816616,0.1125255,-0.1592541,18.95862,22.8439,15.01654,1007.491
9.532968044,108.8588,-64.8239,13.09086,-0.9350178,-0.2077927,-0.6332675,18.95862,22.8439,15.01654,1007.489
9.565744877,165.0781,-64.52843,17.42818,-0.895152,0.004947655,-0.4849419,22.27967,23.54185,13.32249,1007.489
9.601042747,63.88335,-46.44608,26.46935,-0.9104075,0.132482,-0.2665597,24.08155,24.2256,10.32506,1007.487
9.633820057,36.17748,-40.24135,27.75222,-0.8385594,-0.2783151,-0.3147285,24.08155,24.2256,10.32506,1007.485
9.666596413,121.4693,-42.19141,26.53044,-0.7405691,-0.2441196,-0.3477451,26.24628,24.96836,7.26404,1007.484
9.699373245,68.41817,-29.42739,23.47599,-0.6907842,-0.112404,-0.1665883,28.0703,24.50401,4.719864,1007.484
9.732149601,82.70595,-16.19062,28.91291,-0.7247289,-0.147849,-0.2502113,28.0703,24.50401,4.719864,1007.482
9.767447472,86.18471,-16.84064,32.15063,-0.6869962,-0.06134579,-0.1127617,29.15049,24.8926,2.225417,1007.478
9.800224781,92.95588,-12.64506,29.09618,-0.6794446,-0.1702417,-0.09287965,30.25446,24.0766,0.4959762,1007.481
9.833001137,121.2208,-8.213114,19.38302,-0.7970107,-0.1418298,-0.06809417,31.34993,23.68068,-1.613103,1007.479
9.865777969,147.3116,-7.385816,13.02977,-0.8929309,-0.01945523,-0.004511345,31.34993,23.68068,-1.613103,1007.479
9.901075840,179.1795,-6.794889,7.898291,-0.9851329,0.1741011,0.06521306,32.15334,22.53877,-5.015666,1007.477
9.933852196,127.8678,-10.10408,11.93017,-1.050192,0.410552,0.2474471,32.16188,21.76914,-7.987828,1007.476
9.966629505,94.44678,0.6507888,13.76284,-0.9850399,0.1518169,0.1523729,32.16188,21.76914,-7.987828,1007.476
9.999405861,101.5907,-1.358362,21.15461,-1.065245,0.202842,0.2323923,32.89919,21.00286,-10.58798,1007.474
10.032182693,66.05758,7.801003,20.78807,-0.959222,0.1305975,0.2216597,32.18852,19.88837,-12.24814,1007.474
10.067480564,76.24538,7.623725,19.93283,-1.093797,0.1722852,0.2849745,32.18852,19.88837,-12.24814,1007.474
10.100257874,63.63486,-1.831104,20.23827,-1.084964,0.1374362,0.3057046,33.67042,18.41524,-13.09732,1007.474
10.133034229,70.77876,-4.135719,13.76284,-1.108144,0.07962864,0.2851482,33.33194,16.94648,-13.94415,1007.474
10.165810585,81.96049,-8.094929,15.16788,-1.020214,0.2739733,0.3217116,33.33194,16.94648,-13.94415,1007.474
10.201108933,40.21533,-10.39954,0.3232529,-0.9682759,0.2786728,0.3047336,34.07215,16.20397,-14.80386,1007.476
10.233885288,50.96223,-9.926802,-9.634256,-1.056063,0.2194009,0.2212742,34.09172,15.10472,-15.22178,1007.476
10.266662597,34.62446,-11.40412,-18.8587,-1.108254,0.5319873,0.2705072,34.09172,15.10472,-15.22178,1007.475
10.299438953,-37.3114,-18.31796,-22.58513,-1.252275,0.4509586,0.27771,33.35617,15.4658,-15.59952,1007.473
10.332215309,-21.34636,-40.18225,-14.76573,-1.185701,0.200781,0.1508496,34.09037,15.09368,-16.02984,1007.469
10.367513656,-3.144971,-49.81436,-4.197334,-1.043438,0.2109187,0.1769718,34.09037,15.09368,-16.02984,1007.469
10.400290012,-1.094985,-53.30083,16.26748,-0.9283732,0.2106403,0.1386717,33.68499,17.27523,-16.49887,1007.469
10.433067322,11.51553,-50.87803,36.48795,-0.895751,0.1476483,0.005833448,33.68354,17.26334,-17.36909,1007.469
10.465843677,18.53518,-41.60048,59.64069,-0.9175853,0.1310492,-0.04367001,33.68354,17.26334,-17.36909,1007.466
10.498620987,16.23671,-30.01831,76.13473,-0.9928945,0.1549568,-0.01705252,32.5884,17.24218,-19.10813,1007.464
10.533918381,14.00036,-21.56806,86.51986,-0.9477315,0.1518774,-0.02389406,33.34901,15.40721,-19.88848,1007.462
10.566694736,20.52304,-14.12238,92.68985,-1.049796,0.1929779,-0.01408669,33.34901,15.40721,-19.88848,1007.462
10.599472046,49.34709,-19.38163,99.04311,-0.957902,0.1400837,-0.02674034,34.48109,13.21203,-20.29062,1007.462
10.632248402,63.01366,-0.05832334,88.96342,-0.7939253,0.2002995,-0.03925407,35.64133,9.498358,-20.66889,1007.461
10.667546749,48.41528,9.101042,87.00857,-0.8888186,0.296786,0.01233129,36.06553,6.211609,-21.0529,1007.461
10.700323105,25.05786,19.50135,77.72304,-0.7266536,0.3059919,0.0205973,36.06553,6.211609,-21.0529,1007.463
10.733100414,-11.40703,28.838,65.01653,-0.964003,0.4696206,0.02332045,37.24148,1.786895,-20.11437,1007.463
10.765876770,-35.26141,28.18798,60.19049,-0.9268751,0.3749449,0.02144963,38.03121,-1.488839,-19.62863,1007.461
10.798653126,-26.62663,26.82885,44.36843,-0.9617876,0.3531839,0.01578889,38.03121,-1.488839,-19.62863,1007.461
10.833951473,-40.66592,27.89252,22.92619,-1.16023,0.5029411,0.07812952,38.43118,-3.294914,-18.35727,1007.46
10.866727829,-46.0083,14.83303,9.975318,-1.195478,0.41887,0.07737711,39.1743,-4.013646,-17.47653,1007.458
10.899505138,-26.06754,1.418994,-2.303575,-1.10421,0.4390376,0.1363377,39.1743,-4.013646,-17.47653,1007.46
10.932281494,-25.32209,-1.772011,-19.65286,-1.042822,0.3579251,0.1647147,39.18782,-4.74252,-17.46507,1007.46
10.967579365,8.657977,-10.04499,-39.4457,-1.250394,0.2398972,0.1105097,39.5466,-4.367067,-16.60104,1007.46
11.000356197,28.72299,-21.03622,-57.58913,-0.9372238,0.2659228,0.1848201,39.5466,-4.367067,-16.60104,1007.46
11.033133030,20.95789,-18.90889,-71.27307,-0.9032569,0.2789829,0.2010862,39.52413,-3.291588,-17.92357,1007.46
11.065909863,24.06393,-25.58636,-71.70069,-0.9378827,0.1308778,0.1662521,39.13842,-2.208444,-18.74836,1007.46
11.098686218,63.94547,-31.90928,-70.90654,-0.9684245,0.09148117,0.07059295,39.13842,-2.208444,-18.74836,1007.46
11.133984566,92.39679,-35.92758,-70.11238,-1.028921,0.2107572,0.0662244,39.0964,-0.03370905,-19.65296,1007.461
11.166761398,108.983,-34.56845,-65.89724,-0.9957228,0.3456737,0.09723084,38.71131,1.054531,-20.10479,1007.461
11.199538231,99.6028,-32.14565,-55.87864,-0.9960195,0.4779224,0.1350598,38.71131,1.054531,-20.10479,1007.461
11.232314587,78.79234,-27.12277,-43.17213,-0.8799791,0.4792337,0.114084,38.32404,2.124939,-21.86196,1007.467
11.267612457,57.1743,-16.24972,-27.65552,-0.8139244,0.4770299,0.1379988,37.58778,2.480083,-22.67481,1007.467
11.300389290,35.929,-6.676704,-16.78167,-0.7798318,0.4324502,0.129802,37.58778,2.480083,-22.67481,1007.466
11.333166122,20.33668,3.073589,-4.319512,-0.8648756,0.4629845,0.1405476,37.22974,2.110574,-23.10372,1007.466
11.365942955,11.32917,7.150984,1.850478,-0.8725209,0.4113116,0.1430504,36.50834,1.747882,-23.09705,1007.467
11.398719311,13.814,9.27832,9.120071,-0.8875412,0.4020932,0.1662053,36.50834,1.747882,-23.09705,1007.467
11.434017181,3.067107,16.96037,13.64066,-0.8016453,0.4328504,0.21361,36.87845,1.376629,-23.52691,1007.469
11.466794491,-14.45095,23.28329,12.66323,-0.8653225,0.4625756,0.2223808,36.88667,1.02408,-22.65095,1007.469
11.499570846,-24.63876,22.57417,10.34185,-0.9022707,0.480758,0.2200342,36.88667,1.02408,-22.65095,1007.467
11.532347679,-29.67054,19.79682,6.859778,-0.9445587,0.5029594,0.2417623,37.63573,-0.06588173,-22.26175,1007.467
11.567645550,-33.27355,14.65575,2.40028,-0.9634061,0.4612702,0.2226154,37.9945,0.3095698,-21.39773,1007.467
11.600422859,-16.3767,9.396505,-4.44169,-0.9716553,0.4537085,0.1956901,37.9945,0.3095698,-21.39773,1007.467
11.633199215,-17.18427,4.905462,-9.267723,-0.9208358,0.5293402,0.2248186,38.73087,-0.04472399,-20.52271,1007.467
11.665975571,-31.28568,5.791852,-20.20266,-1.0827,0.5975656,0.2149911,38.3593,0.314641,-20.96308,1007.469
11.698752403,-52.77947,-3.544791,-12.93306,-1.178852,0.5981341,0.2022216,38.3593,0.314641,-20.96308,1007.469
11.734050274,-37.24928,-12.70416,2.583547,-1.041547,0.4187368,0.0832699,37.9817,1.044388,-20.97407,1007.467
11.766827583,-36.06898,-6.853982,18.22233,-0.9804311,0.443478,0.06575864,38.32019,2.513152,-20.12724,1007.466
11.799603939,-53.21432,2.423569,32.76152,-0.8745124,0.4130475,0.04485473,37.95466,2.502137,-20.99699,1007.466
11.832380772,-50.97797,5.437296,46.14001,-0.9272218,0.3074031,-0.0256212,37.95466,2.502137,-20.99699,1007.466
11.867678642,-25.01148,1.418994,60.86247,-0.9766141,0.2388981,-0.08220149,38.32623,2.142771,-20.55662,1007.466
11.900454998,-15.81761,7.801003,65.87177,-0.961625,0.2673281,-0.07409674,37.24752,1.416515,-20.54375,1007.468
11.933232307,-14.26459,11.93749,71.55305,-1.042734,0.272916,-0.08354001,37.24752,1.416515,-20.54375,1007.468
11.966008663,-7.990391,20.32865,71.30869,-0.9383217,0.2720063,-0.05971821,37.65143,-0.7769241,-20.94495,1007.468
11.998785496,-6.188889,23.93331,71.7974,-0.9898767,0.3076302,-0.05772417,36.97061,-3.326238,-20.9039,1007.468
12.034083366,-13.95399,33.21085,67.64335,-0.8276507,0.2879876,-0.06578113,36.97061,-3.326238,-20.9039,1007.468
12.066860676,-22.9615,46.03397,56.03643,-0.8815922,0.3010006,-0.09070361,35.89866,-4.416931,-20.8853,1007.464
12.099637032,-39.60987,48.92951,45.83457,-0.798654,0.3492228,-0.0495759,34.84845,-6.589047,-19.97929,1007.464
12.132413387,-64.14757,52.77053,29.64598,-0.8375955,0.3913437,-0.03895706,34.84845,-6.589047,-19.97929,1007.466
12.167711735,-67.87482,45.32486,18.9554,-0.9278224,0.3485351,-0.06322798,36.33366,-8.105082,-19.52218,1007.466
12.200488091,-54.64309,39.71105,7.34849,-0.8822309,0.3748757,-0.0421959,35.95638,-7.302708,-18.66391,1007.464
12.233265400,-53.89764,31.20171,1.850478,-0.9693288,0.4571894,-0.006973977,35.95638,-7.302708,-18.66391,1007.468
12.266041756,-51.72342,28.66072,-5.72456,-1.013939,0.4345574,0.0138645,36.69305,-7.724535,-18.28521,1007.467
12.298818588,-39.23714,22.81054,-12.07782,-1.102856,0.4687699,0.06793635,37.38627,-5.843355,-18.31575,1007.468
12.334116459,-34.95081,10.2829,-14.03267,-1.122368,0.5187366,0.1328911,37.38627,-5.843355,-18.31575,1007.468
12.366892814,-22.89938,0.4735108,-19.28632,-1.114072,0.5052993,0.1516648,38.82978,-5.112028,-17.89398,1007.468
12.399670124,0.08530962,-11.34503,-32.23719,-1.260529,0.4150352,0.09438484,39.16681,-3.655153,-17.91737,1007.468
12.432446480,33.87901,-28.18644,-37.85738,-0.9905872,0.4470651,0.1736024,39.16681,-3.655153,-17.91737,1007.468
12.467744827,40.27745,-26.29547,-45.61569,-0.7532514,0.4887948,0.1460203,39.8829,-2.916136,-17.05955,1007.468
12.500521183,16.17459,-18.49524,-51.05261,-0.7169509,0.5397997,0.1530777,39.49781,-1.827897,-17.51138,1007.468
12.533298492,-15.1964,-10.34045,-51.29697,-0.7096494,0.5340797,0.1622149,39.49781,-1.827897,-17.51138,1007.47
12.566074848,-26.50238,-8.981318,-47.02074,-0.7609819,0.4696322,0.1311453,39.47546,-0.7515678,-18.77175,1007.47
12.598851204,-21.59484,-7.976743,-44.51609,-0.7943872,0.4234182,0.1091515,39.44237,1.076561,-18.36528,1007.47
12.634149551,-11.65552,-3.07205,-39.56787,-0.8187862,0.4743668,0.1110581,39.44237,1.076561,-18.36528,1007.472
12.666925907,-21.09788,4.905462,-30.70997,-0.8315378,0.5323883,0.1355503,39.40784,2.892803,-18.82904,1007.472
12.699703216,-40.23107,15.48305,-16.96494,-0.8433047,0.5759796,0.114814,39.73761,4.779949,-18.48617,1007.472
12.732479572,-60.29609,29.31074,-4.075156,-0.8534536,0.5478528,0.07444604,39.73761,4.779949,-18.48617,1007.472
12.765256882,-73.03084,40.42016,9.975318,-0.8776932,0.5310813,0.07308473,39.36822,5.157147,-17.6212,1007.472
12.800554275,-78.93231,49.10679,22.55965,-0.9028999,0.5158832,0.08905235,40.42207,7.358981,-16.35166,1007.472
12.833330631,-78.55959,49.63862,29.82925,-0.9184042,0.5071913,0.1184653,41.16124,7.027613,-13.79836,1007.472
12.866107941,-88.37467,48.45677,27.50786,-0.9552186,0.4612953,0.07626195,41.16124,7.027613,-13.79836,1007.472
12.898884296,-96.20189,46.27034,19.56629,-0.915295,0.4198604,0.09307736,42.2699,6.319897,-12.04786,1007.47
12.934182644,-101.9791,47.51128,12.72432,-0.8178853,0.5010575,0.09609347,44.15522,6.350203,-9.501775,1007.47
12.966959000,-123.8456,50.5841,10.95274,-0.8613044,0.5823735,0.07537535,44.15522,6.350203,-9.501775,1007.472
12.999736309,-136.7046,51.17503,10.6473,-0.9393185,0.4948513,-0.02009869,44.5168,6.748581,-6.959463,1007.47
13.032512665,-140.6804,50.22955,11.56363,-0.9913377,0.5131239,-0.06139996,44.88523,6.783371,-4.349263,1007.47
13.065289021,-159.2545,47.33401,14.43482,-0.9806218,0.4884766,-0.1167448,44.88523,6.783371,-4.349263,1007.472
13.100587368,-163.6029,48.87041,17.306,-0.9672032,0.3524779,-0.1493043,45.26105,6.458821,-1.36038,1007.472
13.133363724,-140.0592,50.82047,16.87838,-1.05506,0.3294936,-0.1971974,45.64967,5.399451,1.204851,1007.474
13.166141033,-136.2698,50.70229,15.77877,-1.093029,0.3691272,-0.1952417,45.64967,5.399451,1.204851,1007.474
13.198917389,-141.2395,54.72059,12.96868,-1.035262,0.3733984,-0.2107887,46.38677,5.0511,2.514977,1007.474
13.234215736,-138.0713,57.61613,14.67917,-0.9822684,0.3430602,-0.2248281,45.68378,3.999444,5.45457,1007.474
13.266992092,-132.6047,62.52083,15.35115,-0.9272888,0.2942279,-0.2393258,45.68378,3.999444,5.45457,1007.476
13.299768448,-137.388,69.55286,16.81729,-0.8739736,0.3360875,-0.2371085,45.71621,2.51577,8.026957,1007.476
13.332545757,-154.8439,77.64856,18.03907,-0.8486549,0.3015151,-0.2664796,45.37812,1.470033,11.46335,1007.474
13.365322113,-158.5712,81.13503,15.16788,-0.8874266,0.2684999,-0.2750023,45.37812,1.470033,11.46335,1007.474
13.400620460,-155.7136,75.63941,8.997893,-0.9967423,0.2923665,-0.2834435,44.70769,-1.413998,13.68569,1007.474
13.433396816,-142.4198,64.35271,1.11741,-1.092366,0.2733977,-0.3048494,43.66028,-3.563188,16.26999,1007.476
13.466174126,-114.5275,49.69771,-4.991491,-1.108377,0.268921,-0.2990284,43.66028,-3.563188,16.26999,1007.474
13.498950481,-93.28221,37.7019,-4.808224,-1.017127,0.2888005,-0.2814644,42.20705,-6.815709,18.06396,1007.474
13.534248829,-95.02159,38.58829,-2.975554,-0.9200509,0.3077178,-0.2692077,41.50842,-8.321413,18.89684,1007.474
13.567025185,-104.6503,46.27034,1.361766,-0.9162059,0.3303677,-0.2384438,41.50842,-8.321413,18.89684,1007.474
13.599802017,-112.2912,54.24785,2.766814,-0.9696283,0.3353229,-0.2320669,41.17211,-9.772345,19.35535,1007.474
13.632578850,-115.3972,57.0843,2.461369,-1.047318,0.3402529,-0.2001202,40.10765,-11.22153,19.81479,1007.477
13.665355205,-108.8124,53.53874,-0.3487263,-1.051705,0.3500507,-0.1866464,40.10765,-11.22153,19.81479,1007.475
13.700653553,-110.2412,47.57038,-3.342088,-0.9940533,0.4151652,-0.137301,39.06348,-13.76403,20.29142,1007.475
13.733429909,-115.8321,42.48841,-1.38724,-0.9677867,0.3974142,-0.1301161,39.10404,-15.95065,20.3258,1007.475
13.766207218,-115.2108,40.47926,1.911567,-0.8891096,0.3942647,-0.1173012,36.95266,-17.77354,19.92216,1007.475
13.798983574,-120.6154,39.23831,5.821264,-0.9012414,0.3942806,-0.1004248,36.95266,-17.77354,19.92216,1007.473
13.834281445,-125.8956,37.87918,12.23561,-0.9182093,0.3890059,-0.0681254,35.89463,-19.65979,19.51806,1007.473
13.867058277,-120.2426,33.80178,16.2064,-0.9676663,0.3538363,-0.09346727,35.19748,-21.50316,17.86936,1007.473
13.899835110,-105.0852,26.11974,19.19976,-1.030224,0.3177038,-0.1014476,35.19748,-21.50316,17.86936,1007.473
13.932611942,-79.98837,16.66491,21.52114,-1.006859,0.298588,-0.07692473,34.15643,-24.43981,16.17616,1007.473
13.965388298,-58.37034,11.34656,21.58223,-1.033545,0.2890916,-0.0797353,33.82939,-26.65443,14.09761,1007.472
14.000686646,-43.33711,8.805579,20.78807,-1.087939,0.2940219,-0.07576282,33.82939,-26.65443,14.09761,1007.472
14.033463478,-24.94936,5.31911,21.39896,-0.9649224,0.2284783,-0.05381317,32.33123,-27.75599,13.24654,1007.47
14.066240311,-17.43275,7.032798,15.1068,-1.069893,0.2671427,-0.0406257,31.25896,-28.91932,12.39587,1007.468
14.099016666,-5.257077,2.187199,4.721662,-1.129479,0.2076908,-0.0437643,31.25896,-28.91932,12.39587,1007.468
14.134314537,-5.008594,-8.685855,-9.756434,-1.046519,0.2507098,0.01951384,30.90164,-29.28288,12.40207,1007.468
14.167091370,-9.294928,-10.57682,-20.38593,-0.9836311,0.1520866,0.04935775,30.91516,-30.01175,12.41353,1007.474
14.199868202,4.185281,-12.99962,-21.48553,-0.9233857,0.1470761,0.09687722,30.91516,-30.01175,12.41353,1007.47
14.232645035,2.756503,-9.985894,-23.37929,-0.9446476,0.1086069,0.1234605,31.25896,-28.91932,12.39587,1007.474
14.265421390,14.9943,-9.808616,-20.44701,-0.9836199,0.1684281,0.1581209,32.34298,-28.56938,11.51851,1007.474
14.300719738,19.59123,-16.13153,-14.76573,-1.014336,0.2369325,0.2408847,32.34298,-28.56938,11.51851,1007.472
14.333496570,73.51207,-25.17271,-12.13891,-0.9966772,0.154503,0.2024581,31.95822,-27.40852,11.93594,1007.472
14.366272926,90.47105,-29.48648,-11.52802,-0.9480373,0.3127806,0.1424153,33.09626,-26.69345,11.11493,1007.47
14.399049759,55.24856,-23.93177,-9.267723,-0.8690823,0.3867007,0.1016822,33.09626,-26.69345,11.11493,1007.469
14.434347629,9.465547,-15.54061,-4.319512,-0.8443295,0.3953207,0.120865,34.17704,-25.95021,12.34524,1007.469
14.467124462,1.451967,-15.95426,1.422855,-0.8315737,0.338377,0.1112934,34.14469,-24.11613,13.18681,1007.469
14.499901295,21.39273,-24.64088,6.554333,-0.7897796,0.321092,0.09677942,34.14469,-24.11613,13.18681,1007.469
14.532678127,47.42134,-19.73619,1.545033,-0.6436663,0.3216418,0.0001596855,34.50804,-24.12295,12.75123,1007.469
14.565454483,59.28641,-8.685855,-8.351387,-0.8013921,0.4958898,0.03348513,34.50731,-24.12889,12.31612,1007.467
14.600752830,58.04399,-8.685855,-4.624958,-0.8622974,0.5926298,0.08065723,34.50731,-24.12889,12.31612,1007.469
14.633529663,54.81371,-2.126567,-8.779011,-0.8750411,0.6361259,0.04740794,34.87284,-24.11788,13.18587,1007.469
14.666306019,29.53056,3.014496,-11.34475,-0.9248693,0.770937,0.09305231,35.21278,-22.63723,14.90293,1007.469
14.699082851,-19.54486,10.40108,-9.817524,-0.9609017,0.8200847,0.1301285,35.21278,-22.63723,14.90293,1007.468
14.734380722,-56.63096,16.19217,-1.448329,-0.9947042,0.7403957,0.1274407,35.57,-22.27451,14.83457,1007.468
14.767158031,-74.52174,14.83303,0.9952321,-1.173235,0.6646022,0.08850667,35.19239,-21.54477,14.82358,1007.466
14.799934387,-75.32931,2.246291,7.226312,-1.24038,0.5209872,0.1081368,34.84122,-22.27786,14.46256,1007.466
14.832711220,-35.01293,-8.154021,15.22897,-1.133562,0.3141768,0.07594395,34.84122,-22.27786,14.46256,1007.466
14.865487575,-15.38276,-4.135719,25.79737,-0.9468719,0.4385594,0.1585893,34.48026,-22.67115,12.2932,1007.468
14.900785923,-51.9719,11.76021,36.91557,-0.8996342,0.3698799,0.1008173,34.14116,-24.145,11.07341,1007.465
14.933562756,-45.26286,11.99658,50.72169,-0.9615093,0.239844,0.03569489,34.14116,-24.145,11.07341,1007.463
14.966339588,-22.9615,8.982857,61.229,-0.9317799,0.1877583,0.003933002,33.80412,-25.60188,11.0968,1007.463
14.999115944,7.477682,11.16929,66.54375,-1.014335,0.1828888,-0.0367796,31.58457,-27.06613,10.25239,1007.461
15.034413815,24.93362,14.53757,69.78147,-0.9333586,0.2358446,-0.01298339,31.58457,-27.06613,10.25239,1007.46
15.067191124,24.80938,22.27871,66.78811,-0.9403045,0.2986344,-0.01017338,30.17141,-29.29811,11.15983,1007.464
15.099967480,18.16245,23.63784,60.61811,-0.8043652,0.3065335,-0.0182095,29.08874,-29.63701,12.84526,1007.462
15.132744312,53.19857,29.31074,52.00456,-0.6496223,0.1336953,-0.1954571,29.08874,-29.63701,12.84526,1007.462
15.165520668,253.7866,43.43389,47.36179,-0.6969042,-0.02005839,-0.3270064,26.94703,-31.80056,14.18779,1007.462
15.200819016,367.6539,32.61993,37.95409,-0.8639865,0.6228176,-0.2688529,24.7846,-32.45457,19.2991,1007.462
15.233595848,175.1417,49.28407,29.09618,-0.6659712,1.074518,-0.2661524,24.7846,-32.45457,19.2991,1007.46
15.266372680,-13.95399,61.22079,29.70707,-0.8045811,0.734495,-0.3895026,22.52471,-27.53968,27.36927,1007.459
15.299149036,-59.67488,58.20706,24.33124,-0.9193637,0.6189716,-0.3351437,20.57571,-23.47372,31.16252,1007.459
15.331925392,-51.22645,36.93369,15.96204,-1.02353,0.5322987,-0.2770025,20.57571,-23.47372,31.16252,1007.459
15.367224216,-19.6691,1.950828,8.753537,-0.9925272,0.5849596,-0.1654796,18.39728,-23.83887,30.73596,1007.46
15.400000572,-53.7734,-23.10447,-3.769711,-0.8809527,0.6438392,-0.09699819,16.97332,-25.66945,29.89626,1007.465
15.432777405,-77.13081,-37.58218,-29.9769,-1.066837,0.5941673,-0.1528018,16.97332,-25.66945,29.89626,1007.465
15.465553760,-98.43824,-61.45562,-52.88528,-1.024067,0.5961574,-0.05807794,16.62069,-26.41443,28.66502,1007.465
15.500852585,-134.7168,-68.42855,-75.12168,-0.7800415,0.5044312,0.04545565,18.47165,-28.33739,26.0816,1007.465
15.533628940,-139.3137,-59.26919,-87.70602,-0.8710119,0.3666778,0.02614321,18.47165,-28.33739,26.0816,1007.466
15.566405773,-119.0623,-57.91006,-91.24918,-0.9019886,0.326556,0.03686711,21.03269,-29.50049,21.43359,1007.468
15.599182129,-83.34289,-52.59172,-89.84413,-0.9475155,0.2719278,0.01010117,24.38318,-30.66039,17.15752,1007.468
15.631958485,-23.52059,-50.70075,-84.34612,-0.9774854,0.2071145,-0.02920173,24.38318,-30.66039,17.15752,1007.468
15.667257309,47.2971,-48.27795,-70.84545,-0.9611543,0.290338,0.01251258,27.64596,-30.36239,12.8586,1007.468
15.700033665,67.73484,-40.77318,-54.84013,-0.8973122,0.4025927,0.03962959,30.89343,-28.93033,11.52612,1007.47
15.732810497,58.16824,-26.23638,-39.4457,-0.8570552,0.4234377,0.04720448,30.89343,-28.93033,11.52612,1007.47
15.765586853,41.58199,-10.10408,-24.29562,-0.856523,0.405482,0.05589479,32.71251,-25.59417,11.47116,1007.468
15.800885677,14.12461,4.905462,-12.07782,-0.8657014,0.3975608,0.1185055,33.76563,-23.39828,12.3056,1007.47
15.833662033,6.359508,15.01031,-5.602382,-0.8965951,0.3238844,0.1365002,34.83155,-21.9372,12.71638,1007.47
15.866438866,11.14281,16.25126,-3.036643,-0.8670095,0.3443106,0.1667251,34.83155,-21.9372,12.71638,1007.47
15.899215221,11.39129,17.4922,-3.403177,-0.8525264,0.3911081,0.2253463,34.47641,-22.28293,14.02791,1007.476
15.931992531,13.06855,10.75564,-1.631596,-0.9137318,0.4114411,0.2812988,34.10692,-21.90659,14.83072,1007.476
15.967290401,24.37453,-0.8265282,0.1399859,-0.9084584,0.440227,0.2822056,34.10692,-21.90659,14.83072,1007.476
16.000066757,29.6548,-7.267631,0.01780785,-0.9090564,0.4743264,0.2138023,34.47173,-21.90151,15.26536,1007.477
16.032843590,24.99574,-9.099504,-3.647533,-0.9757447,0.531796,0.1537036,34.10089,-21.5362,15.2601,1007.477
16.065619946,12.69583,-7.976743,-11.28366,-0.9898007,0.5128803,0.111887,34.10089,-21.5362,15.2601,1007.477
16.100918770,14.49733,-4.903924,-16.59841,-0.9090685,0.4574644,0.1002263,34.08882,-20.79544,16.11886,1007.477
16.133695126,3.874677,-0.1765087,-21.85206,-0.8872541,0.4762776,0.1179566,34.81021,-20.43275,16.11219,1007.477
16.166471958,-30.66448,9.219228,-38.95699,-1.16416,0.5214056,0.07666692,34.81021,-20.43275,16.11219,1007.476
16.199248314,-70.17329,5.437296,-41.33946,-1.227755,0.5251294,0.1283179,34.78317,-18.975,16.08927,1007.476
16.232025623,-65.70058,-2.362938,-29.06056,-1.064464,0.2559357,0.09223415,34.78244,-18.98095,15.65416,1007.474
16.267323494,-34.82656,-4.963016,-10.18406,-0.934987,0.1235514,0.08971977,34.78244,-18.98095,15.65416,1007.474
16.300099850,-25.69481,-3.426606,6.859778,-1.01064,0.0920945,0.1395269,36.22991,-18.63698,14.40338,1007.474
16.332876682,-18.92365,-8.922226,17.12273,-1.039419,-0.0667737,0.09073567,35.50779,-19.00562,13.97493,1007.474
16.365653515,6.607991,-6.38124,18.34451,-1.011562,-0.1511198,0.04458601,35.50779,-19.00562,13.97493,1007.474
16.400951862,17.66549,-4.076626,17.24491,-1.017635,-0.02621326,0.1541626,36.23595,-19.00736,13.97399,1007.472
16.433728218,14.49733,-2.008382,9.486606,-1.104537,-0.03780705,0.1322436,35.13695,-18.64031,13.96967,1007.472
16.466505051,33.38205,-8.272206,4.477306,-1.057108,0.0227603,0.1002699,35.13695,-18.64031,13.96967,1007.474
16.532058716,33.50629,-8.981318,-10.91713,-0.9203482,0.08791907,0.06085705,35.1383,-18.62927,14.77774,1007.476
16.567356586,31.95327,-12.17232,-11.22257,-0.8796567,0.1261571,0.04770614,35.1383,-18.62927,14.77774,1007.476
16.600133419,39.96685,-13.59055,-8.717921,-0.8946933,0.1166842,0.03427795,35.48886,-17.90127,14.76581,1007.476
16.632909775,56.36673,-14.0042,-2.120308,-0.9312669,0.1765741,0.00587409,35.48773,-17.84053,14.76485,1007.477
16.665686607,54.44099,-10.04499,6.676511,-0.9216366,0.2157981,0.03178566,35.48773,-17.84053,14.76485,1007.479
16.700984955,56.73946,-7.799465,13.09086,-0.9458642,0.1901228,0.01070191,36.19498,-16.75406,14.37377,1007.479
16.733761311,72.0833,-9.394967,16.02313,-0.9711769,0.2167053,0.01168461,37.269,-15.64638,15.59835,1007.479
16.766538143,72.89086,-9.867709,10.95274,-1.022121,0.1951971,-0.00837934,36.5423,-15.63275,16.46951,1007.477
16.799314499,88.60742,-16.54518,6.06562,-1.098379,0.2012623,-0.02505527,36.5423,-15.63275,16.46951,1007.476
16.832091808,100.0376,-23.69539,-0.2265482,-1.120242,0.2039117,-0.03800417,36.15939,-14.52668,17.32301,1007.476
16.867389679,112.7724,-28.30462,-8.595743,-1.088202,0.2070845,-0.04049176,36.50392,-13.4283,17.74047,1007.476
16.900166512,114.8224,-31.96837,-13.23851,-1.080542,0.2574704,-0.01796187,36.50392,-13.4283,17.74047,1007.476
16.932942867,114.636,-35.86849,-18.61434,-1.05173,0.1865232,-0.02947595,36.4776,-11.96461,18.15266,1007.476
16.965720177,122.0284,-38.29129,-27.04463,-1.089177,0.206509,-0.05204126,36.79435,-9.414418,18.11208,1007.476
17.001018047,126.1284,-43.90509,-36.6356,-1.254687,0.166798,-0.1006877,36.79435,-9.414418,18.11208,1007.477
17.033794880,140.6646,-49.16434,-47.7538,-1.022531,0.1514125,-0.07088941,37.84528,-7.236358,17.64118,1007.477
17.066571236,131.0359,-41.12774,-58.38329,-0.9639671,0.2368261,-0.0451635,39.22391,-3.188134,16.26998,1007.482
17.099348068,103.2058,-30.78652,-64.61437,-0.9080684,0.2245708,0.01633669,39.22391,-3.188134,16.26998,1007.482
17.132124901,83.57564,-22.8681,-67.36337,-0.9079576,0.1808423,0.03132454,39.16837,-0.2845254,15.35391,1007.482
17.167422771,78.04689,-18.31796,-69.74585,-0.9816534,0.1238635,-0.01943913,39.08465,4.13757,14.41397,1007.48
17.200199604,75.12721,-12.3496,-70.29565,-0.9763137,0.1253993,-0.01512185,39.08465,4.13757,14.41397,1007.48
17.232975960,57.98188,9.041949,-75.30495,-0.8874745,0.1308837,-0.03363258,39.02245,7.406464,13.55434,1007.478
17.265753269,10.5216,36.28368,-78.42049,-1.018485,0.3297395,0.1444823,38.96015,10.67451,12.63255,1007.478
17.301051140,-45.94619,50.22955,-83.24652,-1.005778,-0.1092971,0.1687006,38.96015,10.67451,12.63255,1007.476
17.333827972,5.179214,43.3157,-75.5493,-0.9792176,-0.2724852,0.06250259,37.80874,14.04073,14.25972,1007.475
17.366604328,26.85936,39.23831,-69.68475,-0.908765,-0.09794663,0.003346299,35.22327,16.26318,16.40419,1007.475
17.399381637,22.13818,43.67026,-62.59843,-1.022694,0.02006192,-0.04902977,35.22327,16.26318,16.40419,1007.475
17.432157993,9.900393,46.5658,-44.69935,-0.8657681,-0.01463264,-0.04405471,33.34951,19.18898,16.79581,1007.475
17.467455864,-7.244942,56.96611,-24.53998,-0.9608825,-0.0408023,-0.05101009,31.07878,20.664,17.64601,1007.473
17.500232696,31.58054,56.49337,-11.65019,-0.8623961,-0.2064533,-0.03751589,31.07878,20.664,17.64601,1007.475
17.533009052,68.2318,54.36604,-8.107031,-0.8982115,-0.0640152,-0.1026295,29.23343,22.14309,18.86862,1007.476
17.565786362,23.93969,59.56619,-11.65019,-0.9069699,-0.05831077,-0.1122445,27.03013,23.25352,19.72447,1007.476
17.601084232,18.34882,54.12967,-7.984853,-0.9471967,-0.0791874,-0.05435423,27.03013,23.25352,19.72447,1007.478
17.633861065,-7.1207,50.11136,-6.213272,-0.9342818,-0.232653,-0.2168538,25.91045,24.78057,20.13711,1007.478
17.666637421,35.74264,48.10221,-1.692685,-1.026573,-0.4571932,-0.3881426,23.71996,25.15619,20.56931,1007.478
17.699414730,94.07405,41.77929,1.300677,-1.092718,-0.1831473,-0.2613193,23.71996,25.15619,20.56931,1007.48
17.732191086,72.64238,33.86087,-0.7152603,-1.057973,-0.3079503,-0.3204211,21.91494,24.37688,21.01919,1007.482
17.767489433,110.2876,26.11974,-6.33545,-0.90328,-0.2214384,-0.3223625,19.99676,26.24648,19.68668,1007.482
17.800265789,27.60481,40.59744,-10.12297,-0.9671347,-0.1182157,-0.3199598,19.2529,26.95927,18.37082,1007.482
17.833043098,9.403426,46.74308,-8.901189,-0.8575829,-0.2459796,-0.3344679,19.2529,26.95927,18.37082,1007.483
17.865819454,-15.44488,50.52501,-10.18406,-0.8898153,-0.1764031,-0.3758934,17.4034,28.4044,17.10708,1007.483
17.898596764,0.8307589,40.77472,-5.602382,-0.9377042,-0.2593192,-0.4054993,15.58374,28.41471,17.54454,1007.485
17.933894157,22.63515,27.95161,4.23295,-0.8407165,-0.1912741,-0.3321836,15.58374,28.41471,17.54454,1007.489
17.966670513,2.818624,18.73315,17.42818,-0.8679243,0.04564845,-0.1976948,14.49827,28.05289,17.55168,1007.489
17.999447823,-2.834367,0.4144181,32.08954,-0.9174386,-0.1550722,-0.1467319,14.13877,27.67149,16.25254,1007.491
18.032224178,93.82557,-29.90013,51.51585,-0.8974461,-0.2046081,-0.220353,14.13877,27.67149,16.25254,1007.491
18.067522526,95.81343,-40.77318,65.26088,-1.002483,0.08102154,-0.1319638,13.43548,26.19766,14.97107,1007.491
18.100298882,61.27428,-51.70533,57.13604,-1.079823,-0.4950057,-0.2286286,14.14513,26.88403,11.97504,1007.491
18.133076191,100.9695,-63.58295,30.37905,-1.367336,-0.6806238,-0.2411451,14.14513,26.88403,11.97504,1007.491
18.165852547,158.5554,-87.87004,33.37241,-1.494249,-0.5713452,-0.06242354,14.51629,26.10164,8.132188,1007.497
18.198629856,117.7421,-93.8975,80.47205,-1.434065,0.07930645,0.07027163,15.23198,26.41763,4.706783,1007.499
18.266704559,3.253469,-70.85135,130.0152,-0.8139923,-0.1215564,0.06621548,17.44319,24.53246,0.505815,1007.499
18.299480915,15.11854,-59.62375,103.747,-0.6560531,-0.2020671,-0.07507677,19.6523,22.97987,-1.586529,1007.501
18.332257271,66.86515,-65.00117,91.71243,-0.9000788,0.1255416,-0.01626561,19.6523,22.97987,-1.586529,1007.501
18.367555618,44.87439,-56.31456,71.18652,-1.076113,0.00840617,-0.120127,23.03482,20.40298,-2.856061,1007.501
18.400331974,39.03504,-68.13309,67.76553,-1.324608,0.1945226,0.04817709,23.45622,17.09331,-4.918361,1007.501
18.433109283,-2.648005,-67.30579,58.23564,-1.252235,0.1550861,-0.1069336,23.45622,17.09331,-4.918361,1007.502
18.465885639,7.29132,-62.4011,41.80269,-1.26623,-0.1159397,-0.2634159,24.57186,15.60322,-7.072409,1007.502
18.498662948,29.90328,-37.34581,13.88501,-1.071563,-0.1008893,-0.294226,24.61075,13.33293,-8.715362,1007.502
18.533960342,85.74986,-9.394967,-22.03533,-1.000067,-0.146434,-0.2760352,24.61075,13.33293,-8.715362,1007.502
18.566737652,104.7588,0.5916961,-54.35142,-1.03161,0.100089,-0.01639664,25.72036,12.21323,-10.44003,1007.501
18.599514007,141.1616,19.38317,-70.05129,-1.142676,0.02086024,-0.1402051,25.72963,11.44954,-12.97708,1007.501
18.632291317,89.16651,31.02443,-81.23058,-1.109974,0.3717839,-0.07293959,25.72963,11.44954,-12.97708,1007.499
18.667588711,43.56985,47.57038,-83.42979,-1.014569,0.2453969,-0.2226789,27.19655,10.6934,-14.70794,1007.499
18.700366020,28.03966,48.9886,-75.5493,-0.9845423,0.5060676,-0.1037653,28.27319,11.40268,-15.96399,1007.495
18.733142376,47.04862,55.54789,-54.10706,-0.7910634,0.4197391,-0.07376827,29.70994,12.49844,-15.54795,1007.494
18.765919685,61.77124,55.72517,-32.66482,-0.6159046,0.5115932,0.1076326,29.70994,12.49844,-15.54795,1007.492
18.798696041,37.4199,38.29283,-23.13493,-0.5750943,0.5446199,0.3255429,31.48249,15.11097,-15.21841,1007.492
18.833993435,33.56841,-1.594733,4.782751,-0.4815647,0.6839522,0.6389589,33.35004,15.83533,-15.2323,1007.492
18.866770744,127.2465,-57.08276,32.82261,-0.7493343,0.5868412,0.7234973,33.35004,15.83533,-15.2323,1007.492
18.899547100,129.2344,-107.2524,44.12408,-0.7858866,0.3950159,0.4971517,34.07008,16.18699,-16.04703,1007.492
18.932324409,104.1376,-96.79304,41.06963,-1.292106,0.08371858,0.4641635,33.7365,13.91887,-22.04159,1007.49
18.967621803,-16.99791,-88.46097,15.71768,-1.586281,-0.3023704,0.767257,33.7365,13.91887,-22.04159,1007.49
19.000399113,103.33,-88.93371,48.15595,-1.448109,0.3267804,0.3755966,32.33511,10.52395,-26.21398,1007.49
19.033175468,-13.02217,-70.67407,57.74693,-1.115268,0.2426892,0.4197006,30.46175,9.752033,-29.68099,1007.49
19.065952778,36.11536,-82.5517,44.30734,-0.7488921,0.09924063,0.2221709,30.46175,9.752033,-29.68099,1007.49
19.098729134,19.71548,-80.54255,33.00587,-0.7696368,0.4658475,0.2977227,28.32182,7.183284,-31.31635,1007.49
19.134027481,-0.7843813,-64.64662,18.46669,-0.8840304,0.1917375,0.3787946,26.53025,5.324706,-34.26897,1007.492
19.166803837,7.788286,-56.61002,19.44411,-0.9867163,0.3236589,0.5627195,26.53025,5.324706,-34.26897,1007.496
19.199581146,6.111025,-38.88222,17.67253,-0.940128,0.3372745,0.5736598,24.72579,4.200094,-36.8601,1007.496
19.232357502,-17.8676,-24.10905,11.80799,-0.8991865,0.2622311,0.5188005,23.27562,3.834053,-37.22544,1007.492
19.267655849,-11.28279,-17.43157,4.782751,-0.8769647,0.3076037,0.5032758,23.27562,3.834053,-37.22544,1007.498
19.300432205,-18.73729,-14.53603,-1.142884,-0.8958079,0.2710326,0.519742,21.82534,3.467162,-37.65294,1007.5
19.333208561,-21.84332,-12.99962,-3.036643,-0.9514834,0.4196194,0.5923357,21.44629,4.185021,-38.53416,1007.5
19.365985870,-35.44777,-7.622187,-0.3487263,-0.8885174,0.2540255,0.4465833,21.44629,4.185021,-38.53416,1007.5
19.398762226,-36.50383,-12.52688,-0.6541713,-0.847961,0.1542854,0.4827396,20.27986,4.916658,-38.54413,1007.501
19.434060573,-24.88724,-15.48151,-7.251785,-0.8267773,0.2632651,0.6505203,20.63041,5.64466,-38.55606,1007.503
19.466836929,-31.09932,-8.922226,-1.020706,-0.8358647,0.1789724,0.516369,20.63041,5.64466,-38.55606,1007.503
19.499614239,-36.50383,-6.38124,-0.8374383,-0.8329712,0.2004076,0.5837204,20.60336,7.102407,-38.57898,1007.506
19.532390594,-22.52665,-20.03165,2.766814,-0.8781615,0.1934566,0.4789013,20.59046,7.836376,-38.21749,1007.506
19.567688942,-34.88869,-21.33169,1.300677,-0.8480837,0.2074249,0.4903616,20.59046,7.836376,-38.21749,1007.508
19.600465298,-27.06147,-18.49524,1.606122,-0.8051342,0.1288816,0.5601755,19.49158,8.204281,-38.15965,1007.508
19.633242607,-33.21143,-12.05414,3.255526,-0.8167072,0.1027695,0.601158,19.10045,9.662901,-38.1821,1007.508
19.666018963,-2.461642,-13.82692,3.805327,-0.8450013,0.1545292,0.5842995,19.10045,9.662901,-38.1821,1007.511
19.698795795,-7.804029,-14.24057,5.393641,-0.8029141,0.004434811,0.5213675,18.35805,10.38758,-38.62773,1007.511
19.734093666,4.806489,-17.01792,8.325914,-0.862571,0.2075447,0.6651301,18.35805,10.38758,-38.62773,1007.511
19.766870499,21.26849,-19.79528,18.83322,-0.7607358,0.0436608,0.5784904,18.36263,10.00531,-39.92734,1007.511
19.799647331,25.61695,-23.75449,26.28608,-0.8042201,0.1572946,0.5827546,18.36263,10.00531,-39.92734,1007.511
19.832424164,26.48664,-30.43196,46.81199,-0.8086681,0.1893784,0.5793472,17.2704,10.00793,-39.92593,1007.511
19.865200520,42.82441,-32.73658,41.31398,-0.5961635,0.2717768,0.6167465,16.93264,8.545105,-40.33765,1007.515
19.900498390,39.09716,-33.85934,43.69645,-0.7517822,0.3920464,0.7295731,16.93264,8.545105,-40.33765,1007.515
19.933275700,4.620126,-21.56806,28.85182,-0.4083554,-0.1217929,0.4551567,15.87214,6.708556,-41.55077,1007.515
19.966052055,27.04573,-13.1769,21.2157,-0.7414588,0.5764528,0.9011168,15.54041,4.875356,-42.39187,1007.515
19.998828888,38.9108,2.778125,28.17984,-0.5478034,0.1514254,0.6211455,15.54041,4.875356,-42.39187,1007.515
20.034126759,23.31848,23.9924,17.73362,-0.6862884,0.6331267,0.7901873,14.47523,3.420226,-42.36754,1007.515
20.066903591,-14.32671,35.22001,16.08422,-0.6370965,0.3272503,0.5888411,15.23228,1.905938,-41.90949,1007.515
20.099680424,0.4580342,39.77014,10.21967,-0.7676513,0.5150422,0.6461497,15.23228,1.905938,-41.90949,1007.517
20.132457256,5.986784,36.52005,10.40294,-0.7781406,0.4189669,0.5702643,15.23904,1.541501,-41.90376,1007.517
20.165233612,9.71403,31.14261,6.615422,-0.8014247,0.4075173,0.5626349,16.70419,1.190555,-40.65673,1007.517
20.200531960,3.004986,23.57875,9.425516,-0.8004559,0.4044559,0.5414574,16.70419,1.190555,-40.65673,1007.515
20.233308792,1.70045,20.15137,10.34185,-0.7856288,0.505617,0.5730396,17.7829,1.916811,-40.66961,1007.513
20.266085625,-17.18427,16.07398,12.17452,-0.7829919,0.4114168,0.5409241,18.51927,1.562517,-39.79459,1007.513
20.298861980,-7.369184,13.00116,13.45739,-0.7681274,0.4894197,0.5340322,18.51927,1.562517,-39.79459,1007.513
20.334160328,-18.42668,9.219228,13.70175,-0.7596838,0.4045518,0.5062211,19.24815,1.566716,-39.36042,1007.513
20.366937160,-24.763,5.96913,16.69511,-0.6996813,0.2790692,0.4590945,18.51927,1.562517,-39.79459,1007.513
20.399713993,-2.772246,-0.7674355,14.31264,-0.795204,0.4384618,0.5226205,18.51927,1.562517,-39.79459,1007.518
20.432490349,3.439831,-7.563094,14.43482,-0.741119,0.3574809,0.5086548,19.23463,2.29559,-39.37188,1007.518
20.465267658,10.64584,-13.35418,13.3963,-0.7271873,0.4173855,0.4916838,19.60619,1.936224,-38.93151,1007.518
20.500565052,11.32917,-13.76783,12.05234,-0.7262165,0.4143576,0.4753198,19.60619,1.936224,-38.93151,1007.518
20.533342361,10.14888,-17.54976,12.17452,-0.7112631,0.4634436,0.5122752,18.88938,1.191264,-40.22444,1007.518
20.566118717,20.21244,-19.618,7.043045,-0.7127374,0.4843721,0.5820446,18.52603,1.19808,-39.78886,1007.518
20.598895073,16.23671,-15.00877,6.676511,-0.7492483,0.5265567,0.5989153,18.52603,1.19808,-39.78886,1007.518
20.634193420,5.614059,-18.14068,4.84384,-0.7295628,0.4111127,0.5730491,17.81067,0.4650073,-40.21157,1007.519
20.666970253,7.726165,-26.65003,12.78541,-0.7004344,0.4153089,0.5811568,17.09531,-0.268065,-40.63428,1007.519
20.699747086,8.347373,-30.60924,21.64332,-0.7559707,0.4847445,0.5474886,17.09531,-0.268065,-40.63428,1007.518
20.732523441,4.682247,-35.27756,26.40826,-0.7925873,0.5656837,0.5344567,16.36653,-0.2714143,-41.0063,1007.516
20.765300751,11.63977,-42.07322,23.17054,-0.7193444,0.6135724,0.6093032,15.64368,-0.6459937,-41.86985,1007.516
20.800598621,-6.126768,-47.45066,18.83322,-0.5177984,0.3885143,0.5706554,14.21369,-2.106195,-42.28016,1007.518
20.833375454,-11.40703,-45.32332,15.53442,-0.6177653,0.5739858,0.6076778,14.21369,-2.106195,-42.28016,1007.519
20.866151810,-10.66158,-51.88261,16.63402,-0.5749004,0.5345285,0.6952435,12.39258,-2.107776,-42.71293,1007.519
20.898929119,8.844339,-57.02367,18.10015,-0.5070431,0.5927925,0.7277272,10.51682,-2.479592,-43.57499,1007.519
20.934226513,5.614059,-56.90548,25.49193,-0.6113403,0.5470112,0.7131215,10.51682,-2.479592,-43.57499,1007.518
20.967003822,-3.952541,-45.73697,22.13203,-0.5289237,0.6184076,0.7956126,8.324869,-2.115863,-44.01302,1007.518
20.999780178,-20.78727,-57.96915,13.51848,-0.6432902,0.7508174,0.9237265,6.145817,-2.486103,-44.81253,1007.518
21.032557487,-166.5847,-53.24174,6.615422,-0.571434,0.6023029,1.19238,6.145817,-2.486103,-44.81253,1007.518
21.065333843,-198.6391,-54.54178,30.56231,-0.6553187,0.1281588,1.116757,3.968736,-2.840209,-44.43103,1007.518
21.100631714,-54.82946,-77.11517,32.39499,-0.275704,0.1464379,0.977678,2.418496,2.271343,-44.07426,1007.518
21.133408546,-45.51134,-65.71029,29.15727,-0.3068862,0.3894951,0.948504,2.418496,2.271343,-44.07426,1007.518
21.166184902,34.68658,-69.96496,13.27412,-0.3082792,0.09751175,0.6346182,0.8738903,7.079196,-43.71271,1007.519
21.198962212,69.16362,-67.95581,8.570271,-0.3558052,0.5218254,0.8463718,-0.6491334,7.453214,-43.28137,1007.518
21.234259605,-10.66158,-64.11478,-7.251785,-0.3432782,0.5729364,0.8972895,-0.6491334,7.453214,-43.28137,1007.519
21.267036915,16.73368,-81.96078,-14.21593,-0.3059452,0.3374996,0.6140337,-3.526493,5.649898,-42.37874,1007.521
21.299813270,79.10294,-97.97489,-18.49216,-0.2052775,0.4710727,0.580861,-5.335537,4.907555,-43.67027,1007.521
21.332590580,105.9391,-96.02483,-26.49483,-0.09289596,0.3546484,0.4426191,-5.335537,4.907555,-43.67027,1007.521
21.365366936,168.8675,-83.26081,-14.33811,0.02831965,0.6059532,0.2956189,-8.212896,3.104239,-42.76763,1007.521
21.400665283,123.9541,-50.10983,-2.731198,0.1561669,0.7825032,0.4567871,-11.11673,-0.5878,-42.27043,1007.519
21.433441639,149.7964,-39.41405,8.631359,0.1017094,0.8207991,0.4963302,-11.11673,-0.5878,-42.27043,1007.519
21.466218948,95.19222,-29.54557,19.68847,0.1249715,1.075366,0.6561848,-14.63966,-6.750727,-40.42787,1007.519
21.498995304,48.10467,-21.44987,29.34053,0.1206433,0.861322,0.6979148,-16.38174,-10.79298,-38.68325,1007.519
21.534293651,59.65913,-26.23638,20.48263,0.1011031,0.9234744,0.7642954,-16.38174,-10.79298,-38.68325,1007.521
21.567070007,22.01394,-31.79109,11.50254,0.120759,0.832827,0.802413,-18.17363,-12.23448,-37.78776,1007.523
21.599847317,53.69554,-39.41405,5.149285,0.1437978,0.7237676,0.7101012,-19.22456,-14.41254,-37.31685,1007.523
21.632623672,45.18499,-34.80482,-10.06188,0.1324453,0.7788756,0.5940369,-19.22456,-14.41254,-37.31685,1007.525
21.665400505,61.27428,-32.44111,-15.98751,0.1441028,0.7648875,0.5295278,-21.09752,-14.76143,-36.50063,1007.525
21.700698376,42.57592,-29.25011,-14.88791,0.1032208,0.7953988,0.4838495,-21.77471,-17.28102,-34.28402,1007.523
21.733474731,46.92438,-26.0591,-14.27702,0.03579194,0.777671,0.5369859,-22.83129,-19.15539,-33.8179,1007.525
21.766252041,61.3364,-28.00916,-11.46693,0.0828269,0.7916922,0.4656117,-22.83129,-19.15539,-33.8179,1007.525
21.799028397,52.39101,-9.394967,-4.869313,0.1465193,0.9657558,0.4863782,-23.54239,-19.85365,-31.6921,1007.525
21.834326744,25.43059,0.4144181,-15.19336,0.001698176,1.006081,0.4361179,-24.60612,-21.29689,-30.79755,1007.525
21.867103100,-1.405589,10.2238,-12.26108,0.09474669,1.082835,0.4357816,-24.60612,-21.29689,-30.79755,1007.525
21.899880409,-39.54774,13.94664,-8.901189,-0.1235949,1.007807,0.4147512,-24.57908,-22.75464,-30.77463,1007.525
21.932656765,-17.74335,2.305384,-6.518717,-0.08443527,0.8776721,0.4240004,-23.47332,-23.48613,-30.76458,1007.525
21.965433598,-12.09036,-2.599309,-1.753774,0.110332,0.8437787,0.3586057,-23.47332,-23.48613,-30.76458,1007.525
22.000731468,4.12316,-5.25848,-3.464266,0.08164802,0.8586442,0.359614,-23.48153,-23.13358,-31.64053,1007.525
22.066285133,-35.01293,3.54633,10.52512,0.2742496,0.9545987,0.479353,-23.8531,-22.77421,-32.0809,1007.527
22.099061966,-35.88262,7.919188,9.669872,0.2047736,0.7649989,0.4725832,-24.19689,-23.86665,-32.06324,1007.527
22.134359837,-1.840434,2.305384,7.715024,0.1824079,0.7840509,0.5077469,-23.85518,-22.79119,-33.32408,1007.527
22.167137146,-4.946473,-0.05832334,7.531757,0.1282681,0.884886,0.5053165,-23.85518,-22.79119,-33.32408,1007.527
22.199913502,-5.50556,-3.840255,6.371066,0.06923576,0.7901378,0.4685345,-24.58937,-22.41907,-32.89376,1007.527
22.232690334,16.7958,-6.14487,3.01117,0.1079443,0.8484315,0.4702802,-24.23215,-22.05635,-32.96211,1007.525
22.265466690,11.63977,-4.017533,1.545033,0.1660397,0.9139013,0.4300907,-24.23215,-22.05635,-32.96211,1007.525
22.300765037,9.776151,-0.05832334,0.9341431,0.1271721,0.9213126,0.4219886,-24.97373,-21.32489,-32.91048,1007.527
22.333541870,-4.387386,2.778125,1.972656,0.1004223,0.9421291,0.4359802,-24.58261,-22.78351,-32.88803,1007.527
22.366318703,-14.94792,2.600847,2.827903,0.1123132,0.8469331,0.4596822,-24.58261,-22.78351,-32.88803,1007.527
22.399095058,-1.46771,-1.003806,0.8730541,0.09779726,0.8269004,0.46793,-24.95282,-22.4131,-32.52033,1007.527
22.431872368,9.217064,-3.485699,-2.059219,0.07971358,0.8744122,0.458274,-24.59623,-22.05548,-32.96164,1007.533
22.499946594,-7.182821,1.596272,-3.708622,0.09470747,0.8988757,0.4562761,-25.32366,-22.04779,-32.52559,1007.531
22.532723427,-6.685855,0.9462523,-2.914465,0.1215027,0.8636159,0.4663743,-24.95282,-22.4131,-32.52033,1007.531
22.565499782,-4.760111,1.241716,-3.097732,0.1069626,0.8512886,0.4620951,-24.95282,-22.4131,-32.52033,1007.531
22.600798130,6.173146,-1.417455,-2.059219,0.09139857,0.8618669,0.4611534,-24.5955,-22.04954,-32.52653,1007.533
22.633574963,11.51553,0.1189547,0.3232529,0.1077299,0.9324627,0.4379029,-24.58875,-22.41397,-32.5208,1007.533
22.666351795,-3.704058,0.4144181,1.422855,0.1082433,0.9227999,0.4485061,-24.58875,-22.41397,-32.5208,1007.533
22.699128151,-3.8283,1.005345,0.3843419,0.107468,0.8425094,0.4597003,-24.58875,-22.41397,-32.5208,1007.531
22.731905460,3.501952,0.8280669,-0.5930823,0.1010616,0.8834172,0.4668743,-24.22539,-22.42079,-32.95638,1007.531
22.767203331,3.004986,0.7689742,-0.4709043,0.08695167,0.8939674,0.4601528,-24.95282,-22.4131,-32.52033,1007.533
22.799980164,1.576208,0.6507888,-0.4098153,0.0972214,0.8638736,0.4625806,-24.95282,-22.4131,-32.52033,1007.531
22.832756519,4.93073,0.3553254,-0.2876372,0.111747,0.8790059,0.4500079,-24.95885,-22.04272,-32.09095,1007.531
22.865533829,1.576208,1.182623,-0.3487263,0.09178731,0.9007661,0.4514666,-24.22602,-22.42589,-33.32934,1007.531
22.900831699,2.942865,0.2962328,-0.7763494,0.1068839,0.8823846,0.4514585,-24.22602,-22.42589,-33.32934,1007.531
22.933608532,0.4580342,0.6507888,-0.2265482,0.09768708,0.8686174,0.4437993,-24.59623,-22.05548,-32.96164,1007.533
22.966384888,0.02318884,0.5326035,-0.3487263,0.09667441,0.8866493,0.4466626,-24.95282,-22.4131,-32.52033,1007.533
22.999162197,-0.287415,0.1189547,-0.7152603,0.09768791,0.8711563,0.4587176,-24.95282,-22.4131,-32.52033,1007.533
23.031938553,3.129228,0.6507888,-0.7763494,0.1039398,0.8945092,0.4475963,-24.95282,-22.4131,-32.52033,1007.531
23.067236900,0.3337927,-0.2356014,-0.6541713,0.09279474,0.8856831,0.4524496,-24.23143,-22.05041,-32.527,1007.531
23.100013256,1.514087,0.5916961,-0.04328117,0.09715355,0.8890784,0.4452138,-24.23143,-22.05041,-32.527,1007.531
23.132789612,-1.032864,-0.3537867,0.07889687,0.0957231,0.8798797,0.4548583,-24.96031,-22.05461,-32.96117,1007.531
23.165566921,1.451967,-0.3537867,0.50652,0.1015491,0.8784003,0.4452194,-24.5955,-22.04954,-32.52653,1007.531
23.200864792,0.08530962,-0.3537867,0.445431,0.101528,0.8866563,0.4418375,-24.5955,-22.04954,-32.52653,1007.531
23.233641625,0.3337927,-0.8856209,1.178499,0.1039425,0.8930348,0.4456731,-24.21718,-22.77334,-32.08043,1007.531
23.266417980,0.7065174,-0.4128794,1.056321,0.07627718,0.8874364,0.444303,-24.58947,-22.41992,-32.95591,1007.531
23.299195289,-0.03893193,-0.7674355,1.239588,0.1126811,0.8935879,0.4446888,-24.58947,-22.41992,-32.95591,1007.529
23.331971645,-2.337401,0.1189547,0.9341431,0.1024967,0.8906678,0.4572327,-24.21853,-22.78438,-32.8885,1007.531
23.367269993,0.1474304,0.0007693423,0.6286981,0.1098063,0.8774984,0.4456826,-24.5901,-22.42501,-33.32887,1007.531
23.400046348,-0.9086228,0.5326035,1.11741,0.1034662,0.8901453,0.4509735,-24.5901,-22.42501,-33.32887,1007.531
23.432823658,1.576208,0.2962328,0.567609,0.09186559,0.865116,0.4375606,-24.95355,-22.41905,-32.95544,1007.531
23.465600014,-1.405589,0.1189547,0.2621639,0.1029856,0.887189,0.4466469,-24.59623,-22.05548,-32.96164,1007.529
23.500898361,-0.6601397,0.05986202,0.1399859,0.1025188,0.8793959,0.4471411,-24.59623,-22.05548,-32.96164,1007.529
23.533674717,2.135295,-0.5901574,-0.1043702,0.09233786,0.8724891,0.4466943,-24.58198,-22.77841,-32.51507,1007.531
23.566452026,4.12316,-1.653826,0.1399859,0.1088257,0.8823941,0.4504911,-24.95282,-22.4131,-32.52033,1007.531
23.599228382,4.620126,-2.953865,-0.5930823,0.09910861,0.8857591,0.4558041,-24.95282,-22.4131,-32.52033,1007.531
23.632005215,15.6155,-8.035835,3.194437,0.095209,0.9016564,0.5053697,-24.96634,-21.68423,-32.53179,1007.531
23.667303085,38.22747,-28.54099,11.7469,0.1035133,0.9025054,0.617506,-24.58198,-22.77841,-32.51507,1007.529
23.700080395,123.7678,-49.63708,40.76418,0.07917818,0.9135361,0.5520819,-24.94315,-22.75376,-30.77416,1007.531
23.732856750,211.4823,-81.7244,83.34323,0.1063624,1.310139,0.4710322,-24.94315,-22.75376,-30.77416,1007.531
23.765633583,230.864,-82.07896,152.9236,0.3319917,1.743897,0.2416779,-26.35173,-24.87831,-26.44894,1007.531
23.800931454,214.899,-50.58257,237.1654,0.4310463,2.097752,-0.04983292,-30.30242,-26.94409,-18.26659,1007.531
23.833707809,81.52565,-13.70873,295.5054,0.2706753,1.923603,-0.1767509,-30.30242,-26.94409,-18.26659,1007.531
23.866485119,38.22747,4.609998,339.184,0.1829742,1.21916,-0.2375769,-35.82999,-26.1383,-13.60901,1007.529
23.899261475,19.71548,22.10143,347.6143,0.2629915,0.8475073,-0.2694578,-41.41671,-19.17713,-11.97039,1007.534
23.932038307,-48.49314,37.52462,332.6475,0.3958292,0.3382634,-0.190062,-41.41671,-19.17713,-11.97039,1007.534
23.967336178,-10.97219,39.88833,315.1761,0.2939612,0.0854351,-0.2154328,-45.31006,-8.915174,-12.99723,1007.532
24.000113487,-64.70666,48.33858,275.5293,0.3742566,-0.1742871,-0.1204036,-46.98603,2.793209,-14.485,1007.53
24.032889843,-58.37034,30.66987,243.4575,0.6535944,-0.4410648,-0.1586916,-46.98603,2.793209,-14.485,1007.528
24.065666676,-34.019,26.59248,213.585,0.6896772,-0.5076081,-0.1760059,-44.6507,14.19509,-15.47589,1007.528
24.100964546,4.433764,27.89252,178.7032,0.8688568,-0.7419187,-0.3277067,-41.47631,22.92763,-16.05283,1007.528
24.133741856,64.93941,54.6615,147.6089,0.7392723,-0.7647592,-0.304741,-41.47631,22.92763,-16.05283,1007.528
24.166518211,62.20609,86.217,113.8877,0.7173484,-0.7403275,-0.336977,-37.58972,29.15637,-17.4617,1007.527
24.199295044,61.27428,130.3001,74.72968,0.6335285,-0.8376724,-0.4372361,-32.92182,32.39014,-20.06789,1007.527
24.232071400,96.18616,181.3562,37.52646,0.4740293,-0.72697,-0.3648204,-32.92182,32.39014,-20.06789,1007.525
24.267370224,91.21649,239.3261,-6.579806,0.3532952,-0.7550794,-0.1295871,-29.24854,33.41005,-24.81392,1007.525
24.300146580,105.5664,283.7047,-44.33282,0.09999737,-0.5717096,0.1398185,-23.77102,31.85175,-31.20041,1007.525
24.332923412,18.72154,280.3955,-61.74319,0.4251693,-0.9881865,-0.2593739,-23.77102,31.85175,-31.20041,1007.522
24.365699768,-44.95225,-109.8525,-48.60905,-0.4444922,0.9622516,2.444521,-17.11148,28.84993,-36.32228,1007.52
24.400998115,-209.4481,74.103,-13.60504,1.269331,-0.7585942,0.3650108,-10.4483,25.87782,-39.2686,1007.518
24.433774948,57.1743,-28.77737,-1.814863,0.4710024,-0.7848113,0.1459988,-10.4483,25.87782,-39.2686,1007.518
24.466551781,39.03504,34.09724,-20.69137,0.5020633,-0.282715,0.5928348,-12.32583,25.9112,-37.15278,1007.518
24.499328136,-15.75549,23.22419,-27.22789,0.4024715,-0.3999834,0.9383841,-12.71165,26.9935,-38.03972,1007.516
24.532105446,7.664044,0.5916961,-30.34343,0.6262128,-0.5861458,0.7932441,-12.71165,26.9935,-38.03972,1007.516
24.567403316,22.07606,-5.967592,-28.57185,0.5828172,-0.310509,0.7712704,-12.32042,25.53572,-37.95511,1007.516
24.600180149,-36.93867,-10.51773,-27.41116,0.5162499,-0.2718523,0.8772696,-11.96383,25.89334,-38.39642,1007.516
24.632956505,-36.37959,-22.57263,-27.77769,0.5515525,-0.4111865,0.8990571,-11.96383,25.89334,-38.39642,1007.515
24.665733814,-33.08718,-44.49602,-35.96362,0.4680811,-0.4586449,0.7582877,-13.0493,25.53152,-38.38928,1007.515
24.701031685,-50.04616,-40.71409,-54.16815,0.5238606,-0.5005593,0.4068244,-14.50208,25.56389,-36.27401,1007.515
24.733808041,-67.62634,-52.00079,-81.10841,0.3605706,-0.5747921,0.7842299,-15.25583,27.03527,-35.42576,1007.515
24.766584873,-28.92509,-62.4011,-99.4962,0.6414714,-0.4898713,0.6818683,-15.25583,27.03527,-35.42576,1007.515
24.799361229,-43.83408,-61.5738,-129.7353,0.5363061,-0.3956627,0.5582657,-18.90056,27.43136,-33.7485,1007.515
24.832138538,4.558006,-49.04616,-153.2545,0.6635296,-0.6647633,0.2286368,-23.32726,27.46575,-32.00234,1007.515
24.867436409,57.05006,-30.43196,-181.5998,0.6492921,-0.3905268,0.2503999,-23.32726,27.46575,-32.00234,1007.515
24.900213242,43.19713,-15.71788,-200.904,0.5433257,-0.1279931,0.3104258,-27.30362,26.02949,-31.10403,1007.515
24.932989597,14.74581,2.482662,-219.2307,0.5901511,-0.008645091,0.3274638,-31.20592,20.51179,-31.01196,1007.515
24.965766907,-7.244942,15.66033,-236.4578,0.4228946,0.0743925,0.2829688,-31.20592,20.51179,-31.01196,1007.515
24.998543262,-11.71764,24.05149,-275.2493,0.38399,-0.1299063,0.1567708,-33.33612,14.32174,-30.91165,1007.515
25.033841610,174.0856,30.19713,-266.0248,0.3350633,0.6740865,0.3395553,-35.05542,8.786924,-31.69262,1007.515
25.066617966,150.3555,-14.47694,-245.9266,0.5102555,1.333671,0.3578815,-35.05542,8.786924,-31.69262,1007.513
25.099395275,35.12143,-10.69501,-222.5906,0.2112008,1.058267,0.1245827,-34.89057,-0.008413792,-30.68392,1007.517
25.132171631,61.15004,-16.78155,-160.8907,0.3519431,1.306821,0.1888581,-33.60051,-10.63535,-30.14525,1007.515
25.167469978,-10.4131,-1.772011,-127.2917,0.3805943,1.296998,0.1425942,-33.60051,-10.63535,-30.14525,1007.515
25.200246334,-2.585884,12.41023,-93.99818,0.3801477,1.087486,0.2011558,-31.30569,-16.45374,-28.75106,1007.515
25.233023644,-21.4706,15.8967,-78.60375,0.3087994,1.105552,0.3635167,-30.09891,-19.44378,-29.51381,1007.513
25.265799999,-22.46453,16.84218,-74.4497,0.3185461,0.8793976,0.3277324,-30.09891,-19.44378,-29.51381,1007.513
25.298576832,3.812556,17.01946,-74.69405,0.2422453,0.9201506,0.3966866,-28.25148,-20.90589,-29.49325,1007.519
25.333874702,-36.87655,19.38317,-76.34346,0.2206717,1.039965,0.5631083,-27.13365,-22.37815,-30.34196,1007.519
25.366652012,-37.622,15.54214,-80.25316,0.1958868,1.069237,0.6699854,-27.13365,-22.37815,-30.34196,1007.519
25.399428367,-59.55064,12.35114,-76.52673,0.1091474,1.191489,0.6348674,-26.38594,-23.47915,-30.76082,1007.516
25.432205200,-70.2354,15.83761,-44.39391,0.08243047,1.182004,0.5637035,-24.93326,-23.51236,-32.93826,1007.518
25.467503071,-68.86874,22.51508,-6.457628,0.08182191,1.233114,0.5602584,-24.93326,-23.51236,-32.93826,1007.52
25.533056736,1.389846,2.778125,-0.8985274,0.01040088,0.6378671,0.5642131,-22.80184,-21.01324,-36.39992,1007.524
25.565833568,16.85792,2.246291,-0.6541713,0.03597634,0.9083388,0.5570058,-22.80184,-21.01324,-36.39992,1007.524
25.598609924,-19.6691,3.959979,4.23295,0.06026955,0.9082686,0.5877554,-22.1,-19.55129,-35.98867,1007.524
25.633907795,-1.964676,4.550906,2.217012,0.04268131,0.7498618,0.5918867,-22.10073,-19.55723,-36.42378,1007.524
25.666685104,-1.405589,5.08274,1.545033,0.04546758,0.7979043,0.5634074,-22.83627,-19.19615,-36.80152,1007.524
25.699461460,8.347373,2.600847,-2.364664,0.05037036,0.7774662,0.560057,-22.83627,-19.19615,-36.80152,1007.524
25.732238293,3.501952,5.08274,1.789389,0.06072535,0.914373,0.5545312,-22.83637,-19.19699,-36.86368,1007.522
25.767536163,-9.294928,10.46017,0.7508761,0.06055583,0.7758559,0.52634,-21.74331,-19.19282,-36.36782,1007.522
25.800313473,3.439831,10.2238,0.1399859,-0.01199779,0.8700567,0.5725808,-21.74331,-19.19282,-36.36782,1007.522
25.833089828,-11.71764,7.74191,5.088196,0.01430689,0.8372414,0.5846019,-21.38745,-18.84114,-37.24424,1007.522
25.865866661,1.389846,6.737335,1.239588,0.06463558,0.7026686,0.5726513,-22.10811,-19.19789,-36.80246,1007.524
25.898643017,17.23064,7.032798,2.461369,0.008444967,0.8528078,0.5889246,-22.10811,-19.19789,-36.80246,1007.524
25.933941841,2.383778,8.39193,7.776113,0.05268965,0.8232703,0.5604639,-21.75828,-18.47583,-37.2495,1007.524
25.966718197,14.80793,9.27832,7.715024,0.01872897,0.8087927,0.5504576,-21.03126,-18.41684,-37.2514,1007.526
25.999495029,8.09889,2.837218,13.88501,0.02501137,0.8245406,0.566304,-21.03126,-18.41684,-37.2514,1007.526
26.032271385,26.42452,1.950828,22.25421,0.06579851,0.8208307,0.5440702,-21.01661,-19.20645,-37.23898,1007.526
26.067570210,35.68052,5.31911,28.30202,0.07532435,0.8902418,0.4986949,-21.37996,-19.19964,-36.8034,1007.526
26.100346565,52.82585,5.673666,46.50655,0.02150558,1.059224,0.4903848,-21.37996,-19.19964,-36.8034,1007.526
26.133123398,15.67762,18.55587,49.37773,0.09160466,0.9837816,0.4831118,-21.3576,-20.27596,-35.54303,1007.527
26.165899754,-0.7843813,21.09686,39.66458,0.07560021,0.7788835,0.5234116,-22.09179,-19.90384,-35.11271,1007.527
26.198677063,4.744368,10.93292,20.78807,0.06030581,0.6840683,0.5645065,-22.09179,-19.90384,-35.11271,1007.526
26.233974934,31.95327,-0.9447136,1.850478,0.122945,0.6780385,0.5325971,-21.72989,-19.92254,-36.41852,1007.526
26.266751766,48.10467,-5.081202,-6.33545,0.1467341,0.863542,0.4253989,-21.74269,-19.18773,-35.99487,1007.526
26.299528122,22.75939,4.491813,-8.717921,0.1317195,1.044326,0.386653,-21.74269,-19.18773,-35.99487,1007.526
26.332305431,-4.449507,9.337413,-12.87197,0.1472587,0.8510239,0.4456336,-22.4491,-20.2674,-35.10651,1007.526
26.367603302,24.25029,5.31911,-21.72988,0.0677014,0.8151764,0.4290287,-22.06474,-21.36159,-35.08979,1007.526
26.400380134,20.15032,2.837218,-29.9769,0.05916318,0.9324073,0.4182823,-22.06474,-21.36159,-35.08979,1007.526
26.433156490,58.6652,6.382779,-41.40055,0.06132599,0.8171654,0.3024427,-21.70066,-21.36246,-35.09026,1007.526
26.465933800,92.21043,24.11058,-54.96231,0.05039131,0.7242444,0.3305277,-20.93653,-23.16856,-33.75722,1007.528
26.498710155,122.2769,19.50135,-58.38329,-0.07153201,1.175079,0.453366,-20.93653,-23.16856,-33.75722,1007.528
26.534008026,27.48057,22.92873,-53.98488,0.006282824,1.313024,0.3759556,-19.36264,-26.06476,-32.03505,1007.528
26.566784859,-14.69944,37.11097,-52.7631,0.02579058,1.060451,0.3113062,-17.47737,-29.38602,-30.24443,1007.526
26.667636394,-42.77803,47.68856,-55.32884,-0.1366944,1.002311,0.4104583,-13.0843,-30.87802,-31.96759,1007.524
26.700413227,-77.62778,50.11136,-59.84943,-0.1228627,0.8964983,0.375927,-8.669672,-30.17165,-32.85499,1007.528
26.733189583,-72.47176,50.76138,-64.73655,-0.2234756,0.7435779,0.4283832,-8.669672,-30.17165,-32.85499,1007.526
26.765966892,-54.76733,53.77511,-71.15089,-0.2572889,0.867269,0.3965071,-6.152832,-28.68814,-34.99555,1007.526
26.798743248,-114.3412,77.88493,-77.7485,-0.3106745,0.8586578,0.413013,-2.919506,-26.5323,-36.71245,1007.526
26.834041595,-121.9199,97.32642,-73.96099,-0.4402788,0.649637,0.4872837,-2.919506,-26.5323,-36.71245,1007.526
26.866817951,-74.52174,100.5174,-68.21862,-0.476349,0.7113269,0.5070122,1.447071,-23.28082,-38.07507,1007.53
26.899595261,-65.07938,99.63103,-57.95567,-0.4898386,0.8598525,0.4500196,5.363299,-18.55868,-38.58984,1007.527
26.932371616,-71.29146,98.2719,-49.15885,-0.483207,0.7098222,0.3688799,5.363299,-18.55868,-38.58984,1007.527
26.965148449,-61.66274,97.14915,-45.67678,-0.5868805,0.6025591,0.3370362,9.684499,-15.9514,-38.20144,1007.526
27.000446320,-49.48707,92.24445,-42.8056,-0.6387622,0.5780287,0.3737797,13.68991,-12.67527,-37.82314,1007.527
27.033223629,-22.71302,80.5441,-40.30095,-0.680324,0.4878196,0.3383935,13.68991,-12.67527,-37.82314,1007.527
27.065999985,-25.32209,77.88493,-39.56787,-0.7859038,0.5599023,0.2552597,16.94236,-11.20245,-36.172,1007.527
27.098776817,-26.68875,72.5075,-44.21064,-0.9277386,0.3791531,0.2775298,19.08167,-8.638797,-34.9096,1007.527
27.134074688,24.25029,52.41598,-35.71927,-0.895548,0.5326791,0.3243955,19.08167,-8.638797,-34.9096,1007.527
27.166851997,5.427697,45.08849,-34.9862,-0.8410977,0.496291,0.2790732,22.02222,-6.745168,-33.63771,1007.527
27.199628353,18.9079,33.44723,-33.70333,-0.8410399,0.4769908,0.3050957,23.4881,-7.090168,-31.95557,1007.527
27.232405186,15.11854,30.01985,-30.09908,-0.8664856,0.5580667,0.2982948,23.4881,-7.090168,-31.95557,1007.527
27.265181541,-14.57519,31.79263,-22.82948,-0.8923298,0.4020965,0.3125506,24.5615,-5.987588,-31.10394,1007.527
27.300480366,12.3231,28.66072,-10.18406,-0.9517376,0.4681675,0.2899679,25.64769,-5.619825,-30.67597,1007.527
27.333256721,4.12316,31.67445,-8.351387,-0.8880209,0.4138031,0.2398371,25.64769,-5.619825,-30.67597,1007.529
27.366033554,3.129228,33.50632,-5.968916,-0.9177862,0.4734066,0.2321161,26.72702,-4.888474,-30.31589,1007.529
27.398809910,6.980716,30.07895,-5.968916,-0.89969,0.4114397,0.194139,27.44987,-4.513894,-29.45234,1007.529
27.434108734,-8.735841,26.47429,-5.663471,-0.9089288,0.4126731,0.1724978,27.44987,-4.513894,-29.45234,1007.531
27.466885090,7.788286,23.04692,-3.769711,-0.8458068,0.4066039,0.1343296,27.45133,-4.502007,-28.58211,1007.531
27.499661446,-4.946473,29.07437,-5.419115,-0.8715292,0.4121483,0.1921457,28.17948,-4.503752,-28.58305,1007.531
27.532438278,0.9550005,26.47429,-2.242486,-0.9253665,0.3757707,0.1384157,28.17948,-4.503752,-28.58305,1007.531
27.565215111,1.762571,28.12889,-1.509418,-0.8871682,0.4442811,0.1391846,28.91658,-4.852102,-27.27293,1007.531
27.600513458,-4.760111,29.25165,0.1399859,-0.9250001,0.4254347,0.1359332,28.91117,-4.476626,-26.47059,1007.533
27.633289814,4.558006,29.96076,-3.036643,-0.8069812,0.4192477,0.154917,28.91117,-4.476626,-26.47059,1007.533
27.666066646,-3.952541,32.61993,-5.113669,-0.9168312,0.4539636,0.09639914,29.64691,-4.836016,-25.96853,1007.533
27.698843002,-9.54341,31.20171,-6.213272,-0.8889247,0.3517013,0.06519856,29.99954,-4.091032,-24.73728,1007.533
27.734141827,-7.741908,29.36983,-11.0393,-0.9416274,0.4583024,0.04975933,30.36507,-4.080017,-23.86753,1007.533
27.766918182,-16.12821,19.1468,-16.47623,-0.9972859,0.373293,0.008622356,30.36507,-4.080017,-23.86753,1007.533
27.799695015,-5.443439,8.982857,-22.7684,-0.9537659,0.472864,0.1272654,31.43848,-2.977436,-23.01591,1007.527
27.832471371,-11.96612,0.9462523,-25.08978,-0.9758348,0.3318798,-0.01928509,31.43306,-2.60196,-22.21357,1007.527
27.865248680,-14.76156,3.191774,-31.74848,-0.9634333,0.4280064,-0.008388061,31.43306,-2.60196,-22.21357,1007.527
27.900546551,-7.369184,-4.253904,-38.3461,-0.8947228,0.3288644,0.009890139,31.04663,-1.524759,-23.47347,1007.531
27.933323383,-22.9615,-4.60846,-43.2943,-0.9548624,0.3183606,0.1125787,31.39791,-0.7908139,-23.05029,1007.529
27.966099739,-7.431304,-3.426606,-49.58648,-0.9974154,0.4364308,0.05329414,31.39791,-0.7908139,-23.05029,1007.525
27.998877048,-10.47522,-5.731221,-55.45102,-1.101262,0.4133414,0.07956878,31.00002,1.032243,-23.07847,1007.525
28.034174919,-15.81761,-7.444909,-61.92646,-0.9673519,0.254197,0.07564013,30.61639,2.13237,-22.66007,1007.527
28.066951752,-11.77976,-7.267631,-64.37001,-1.01673,0.1980369,0.1133881,30.61639,2.13237,-22.66007,1007.533
28.099728107,-11.34491,-9.040411,-65.71397,-1.037056,0.1620493,0.07546298,30.93805,4.372915,-23.13099,1007.53
28.132505417,-16.6873,-14.59512,-66.01942,-1.015609,0.132206,0.1004879,30.53944,6.19003,-23.59428,1007.534
28.165281773,-16.25245,-16.01335,-66.81358,-1.030087,0.08850474,0.0668928,30.53944,6.19003,-23.59428,1007.534
28.200580120,-10.84795,-16.30881,-58.93309,-1.022743,0.08042512,0.1569022,30.13406,8.37158,-24.0633,1007.534
28.233356476,-5.132835,-14.06329,-47.14291,-0.983591,-0.05538229,0.1209119,29.73618,10.19464,-24.09148,1007.533
28.266133785,-7.617667,-7.91765,-33.82551,-0.9544548,-0.0434856,0.1858087,29.73618,10.19464,-24.09148,1007.533
28.298910141,-1.032864,-8.685855,-26.12829,-0.9461716,-0.07328116,0.09341249,29.34433,11.64732,-24.54905,1007.533
28.334208488,1.451967,-11.40412,-22.7684,-0.9962037,-0.06135872,0.1170999,28.58125,13.53199,-24.57771,1007.533
28.366984844,-6.623734,-18.67252,-23.62364,-0.9917393,-0.1068267,0.08683206,28.58125,13.53199,-24.57771,1007.533
28.399762153,4.247402,-23.16356,-20.93573,-0.9899465,-0.03034549,0.1569913,28.57303,13.88453,-25.45367,1007.533
28.432538509,3.998919,-24.16814,-15.31554,-1.050532,-0.07762319,0.1547995,28.20292,14.25579,-25.02381,1007.533
28.465314865,-2.523763,-27.41823,-11.77237,-1.006789,-0.08922666,0.1845577,28.20292,14.25579,-25.02381,1007.528
28.500613212,-5.132835,-29.54557,-5.235847,-0.9105211,-0.1400024,0.1911449,27.09571,14.97539,-25.90409,1007.528
28.533389568,-3.766179,-31.79109,1.056321,-0.9493501,-0.1410796,0.2230085,26.73028,14.96523,-26.71168,1007.528
28.566166878,0.7065174,-37.16853,6.981956,-1.06655,-0.06806143,0.2183628,26.73028,14.96523,-26.71168,1007.528
28.598943233,6.359508,-34.68664,7.165223,-1.015141,-0.03222122,0.2677671,26.3505,15.67714,-28.02801,1007.528
28.634241581,-3.579816,-27.24096,3.072259,-0.9101745,-0.05831829,0.3108801,25.62766,15.30256,-28.89156,1007.528
28.667017937,4.433764,-20.62258,1.545033,-0.9343574,-0.08884864,0.3620078,24.89805,15.29242,-29.76085,1007.528
28.699795246,-1.405589,-10.10408,-1.814863,-0.8960702,-0.06238985,0.3387717,24.89805,15.29242,-29.76085,1007.528
28.732571602,-3.393454,-5.967592,0.2010749,-1.065874,-0.1312519,0.3055829,23.44788,14.92638,-30.12619,1007.527
28.765348434,5.614059,-2.18566,0.7508761,-0.9778478,0.0246914,0.3527939,23.81195,14.9255,-30.12666,1007.528
28.800646305,-8.114633,0.9462523,3.927505,-0.9760439,-0.1284772,0.316437,23.81195,14.9255,-30.12666,1007.527
28.833423614,-5.691923,4.609998,4.477306,-0.9883925,-0.03486854,0.3452069,23.81195,14.9255,-30.12666,1007.527
28.866199970,-1.778314,9.573784,1.11741,-0.9112511,-0.009966802,0.3315083,23.80519,15.28994,-30.13239,1007.527
28.898976803,-19.35849,11.52384,-0.1654592,-0.9596301,-0.09194978,0.2966072,23.80519,15.28994,-30.13239,1007.528
28.934274673,-22.21605,17.4922,-1.692685,-0.9354206,-0.05746451,0.3239354,24.16927,15.28907,-30.13286,1007.528
28.967051983,-23.14786,24.87879,-2.181397,-0.965498,-0.0744554,0.2980388,24.17062,15.30011,-29.3248,1007.528
28.999828339,-21.34636,31.85173,-4.197334,-1.07826,-0.02761983,0.3049748,24.17062,15.30011,-29.3248,1007.528
29.032605171,-26.37814,36.52005,-9.573168,-0.9883728,-0.05830453,0.2667802,24.87994,16.40356,-28.4727,1007.53
29.065381527,-21.40848,40.71563,-17.88128,-1.049148,-0.03126137,0.2365579,25.25369,16.06203,-26.72699,1007.53
29.100680351,-35.44777,43.07933,-31.0765,-1.031153,-0.03772895,0.2654066,25.25369,16.06203,-26.72699,1007.53
29.133456707,-35.26141,47.98402,-39.20134,-1.094247,-0.06001625,0.217935,25.96364,17.17057,-25.50195,1007.53
29.166233540,-49.54919,52.41598,-44.76044,-1.088377,-0.08151063,0.2015872,26.65486,19.38517,-23.36171,1007.534
29.199009895,-69.55208,59.92075,-46.1044,-1.092523,-0.1674461,0.2455305,26.65486,19.38517,-23.36171,1007.536
29.234308720,-75.20507,66.8346,-44.69935,-1.120654,-0.2020426,0.1368616,26.64414,20.13697,-21.69488,1007.536
29.267085075,-85.88984,68.4301,-41.40055,-1.163697,-0.2881116,0.06825868,27.33816,22.37449,-17.87635,1007.536
29.299861908,-63.96121,61.45716,-37.24649,-1.221926,-0.327386,-0.04658947,27.33816,22.37449,-17.87635,1007.536
29.332638264,-59.98548,52.53416,-39.32352,-1.198924,-0.180424,0.04796274,26.92458,25.3983,-14.50394,1007.538
29.365415573,-53.52492,36.34277,-24.4178,-1.239816,-0.1338993,0.06387454,26.90324,26.90275,-11.10813,1007.536
29.400713444,8.533735,10.10562,1.545033,-1.130075,-0.1415243,0.02607953,26.90324,26.90275,-11.10813,1007.536
29.433490276,64.00759,-4.667553,46.87308,-0.964215,0.1758889,0.1571009,27.25816,27.66642,-8.509389,1007.536
29.466266632,131.1602,-43.846,64.77217,-0.9417058,-0.03385172,0.5053881,27.25816,27.66642,-8.509389,1007.536
29.531820297,-161.4908,-99.5113,107.4734,-0.6590556,0.5066888,0.2247132,28.73039,26.53395,-11.10475,1007.536
29.567118168,-141.9849,-144.0672,135.3911,-0.8120227,0.3274165,0.3326899,29.16248,22.82203,-11.48208,1007.534
29.599895000,-187.3331,-132.3077,102.5863,-0.7383621,-0.2748053,0.06963661,29.16248,22.82203,-11.48208,1007.534
29.632671356,-115.6457,-108.6116,102.8306,-0.6607667,-0.06806257,-0.1296614,28.83762,20.62524,-12.25529,1007.533
29.665448666,-138.3198,-53.77357,100.9369,-0.9178546,0.2263439,-0.1371972,27.76494,19.5286,-12.6718,1007.531
29.700746536,-120.4911,-3.603884,101.6088,-0.9517587,0.1718345,-0.2309001,27.0734,17.73109,-10.96392,1007.529
29.733523369,-194.1664,60.51168,92.38441,-0.8255031,0.06692267,-0.7615021,27.0734,17.73109,-10.96392,1007.527
29.766299725,-201.5587,109.9723,60.86247,-1.355761,-0.3544897,-0.8419222,26.74146,16.31582,-7.894753,1007.527
29.799077034,-42.15682,156.7146,4.110772,-1.297133,-0.6938632,-0.7587555,25.67271,15.67108,-1.914637,1007.527
29.831853390,58.97581,123.0317,-30.16017,-1.460681,0.2047318,-0.1411721,25.67271,15.67108,-1.914637,1007.529
29.867151737,-77.25505,119.7816,-26.617,-1.136307,0.432949,-0.0002836927,24.23636,14.99834,1.952549,1007.531
29.899928093,-19.35849,95.0218,-26.37265,-0.9552683,0.2170528,-0.237699,23.14901,15.04087,4.875422,1007.531
29.932705402,-23.20998,76.40762,-38.71263,-1.115093,0.05446162,-0.1740165,23.14901,15.04087,4.875422,1007.531
30.000780106,-3.766179,45.67941,-46.04331,-1.189292,0.01388551,-0.1766675,19.418,16.90674,7.400061,1007.533
30.033556461,31.76691,43.3157,-51.05261,-1.063217,-0.09634807,-0.07138221,19.418,16.90674,7.400061,1007.533
30.066333771,16.48519,48.2204,-54.16815,-1.088212,0.01753186,0.01611328,18.30091,18.38494,8.683886,1007.531
30.099110127,5.303455,50.70229,-40.66748,-1.234855,0.1960819,-0.1157011,16.8318,19.12325,9.109417,1007.531
30.131886959,-9.48129,43.72935,-28.3275,-1.310393,-0.1169442,-0.2146921,16.8318,19.12325,9.109417,1007.533
30.167184830,-4.760111,28.30616,-15.4988,-1.307215,-0.2153176,-0.1471607,15.7147,20.60145,10.39324,1007.533
30.199962139,-39.29926,-7.149446,-32.05393,-1.444151,-0.2110023,-0.1324016,15.33918,21.34817,11.62543,1007.533
30.232738495,-28.67661,-52.47353,-39.93441,-1.363887,-0.4793037,-0.1504793,15.33918,21.34817,11.62543,1007.534
30.265515327,102.4604,-77.41064,-14.70465,-1.155031,-0.1038286,-0.1963072,16.0432,22.82795,13.34201,1007.534
30.300813198,95.81343,-69.13766,12.23561,-0.8922538,0.240113,-0.3591864,17.12794,23.18383,12.89976,1007.534
30.333590507,-27.99328,-53.24174,17.12273,-0.8757532,0.06889393,-0.2073385,17.12794,23.18383,12.89976,1007.534
30.366366863,58.29248,-71.85593,36.91557,-0.8865981,-0.02009203,0.03639034,20.00988,24.60488,10.69753,1007.534
30.399143696,132.651,-73.21506,32.63934,-0.8955796,-0.2143713,-0.4359928,22.26793,23.86552,10.33314,1007.534
30.431920051,185.7643,-74.86965,34.77746,-0.7639897,-0.2031511,-0.3814466,22.26793,23.86552,10.33314,1007.533
30.467218876,205.7672,-63.11021,43.69645,-0.7226642,0.02934873,-0.1248478,25.16081,24.60655,7.27118,1007.533
30.499995232,119.2951,-51.05531,49.80536,-0.7964895,-0.1584449,-0.07673487,26.95854,25.25634,1.787395,1007.533
30.532772064,199.6794,-39.59133,52.31001,-0.7410171,-0.4329397,-0.1852405,26.95854,25.25634,1.787395,1007.533
30.565548420,283.1697,-48.15977,64.83326,-0.8307061,-0.05468379,-0.03252482,29.14187,24.82213,-2.933764,1007.531
30.600847244,211.9793,-28.4819,62.69514,-0.680443,0.07733139,0.07089395,30.99544,22.50078,-7.997801,1007.529
30.633623600,196.5733,-16.95883,59.15197,-0.911018,0.03962306,0.03828371,31.82975,19.51291,-13.11216,1007.529
30.666400433,144.0191,-23.28175,50.78278,-0.8788346,0.2142536,0.1785018,31.82975,19.51291,-13.11216,1007.529
30.699176788,104.0134,-11.40412,36.36577,-0.9680229,0.1361394,0.1186609,32.98461,15.82517,-16.03989,1007.529
30.731954098,79.84839,-6.972167,22.8651,-0.8931119,0.3171516,0.2847615,33.04441,12.46667,-17.2927,1007.527
30.767251968,30.95934,-2.481123,13.9461,-0.9664793,0.3587507,0.4018438,33.04441,12.46667,-17.2927,1007.527
30.800028324,24.74726,-17.90431,14.98462,-0.8979444,0.3129287,0.313661,33.81771,9.896029,-18.55887,1007.526
30.832805157,20.52304,-24.16814,16.57293,-0.9046872,0.2667549,0.1953317,33.4733,8.798496,-18.91416,1007.526
30.865581512,41.27139,-26.11819,14.74026,-0.8949171,0.2172394,0.06685952,33.4733,8.798496,-18.91416,1007.524
30.900880337,57.67127,-22.27717,15.16788,-0.8536233,0.4062996,0.02989314,33.84268,8.421297,-19.77912,1007.522
30.933656692,26.54876,-9.099504,12.8465,-0.9622186,0.5444532,0.06652598,33.84799,8.044973,-20.64362,1007.52
30.966433525,-0.7222605,-4.135719,6.981956,-0.9422213,0.5126731,0.09492679,33.84799,8.044973,-20.64362,1007.52
30.999209881,8.471615,4.078164,-1.448329,-0.9756655,0.4921192,0.1210306,33.51023,6.582154,-21.05534,1007.52
31.031987190,20.64729,7.150984,-7.55723,-0.8863606,0.514975,0.1487033,33.50951,6.57621,-21.49045,1007.515
31.067285061,21.45486,12.76479,-13.23851,-0.8879217,0.5562664,0.1351667,33.50951,6.57621,-21.49045,1007.515
31.100061893,7.726165,12.58751,-25.82285,-1.073591,0.6241025,0.09795861,34.24514,6.215972,-21.05055,1007.516
31.132838249,-13.14642,-2.540216,-23.62364,-1.148652,0.7569457,0.1711034,34.96799,6.590551,-20.18699,1007.516
31.165615559,-34.14324,-14.35875,-10.55059,-1.132853,0.6288014,0.07450536,34.96799,6.590551,-20.18699,1007.516
31.200913429,-24.763,-12.05414,13.45739,-0.8944453,0.4382589,0.1223633,34.96123,6.954988,-20.19273,1007.516
31.233690262,-49.36283,12.23295,33.92221,-0.885855,0.5243884,0.2411094,36.02039,8.780499,-19.78767,1007.516
31.266466617,-84.21258,21.33323,57.07495,-1.023911,0.3748529,0.1949701,36.02039,8.780499,-19.78767,1007.515
31.299243927,-54.33249,13.94664,73.32463,-0.9865268,0.1472891,0.06333134,35.66307,8.416935,-19.78147,1007.515
31.332020283,8.533735,7.446447,81.51056,-0.9405283,0.1926092,0.01164823,37.86313,7.699808,-18.52966,1007.515
31.367318630,35.74264,4.609998,95.01123,-0.9413792,0.3460051,0.009493605,37.86313,7.699808,-18.52966,1007.513
31.400094986,32.51236,8.569208,94.95014,-0.8067644,0.2877652,-0.05283356,38.62655,5.887766,-17.63172,1007.513
31.432872295,30.21389,12.76479,85.23699,-0.9331226,0.334484,-0.04634658,38.6878,2.54115,-18.01431,1007.513
31.465648651,39.28352,1.005345,78.15067,-0.818908,0.2886045,-0.05761965,38.6878,2.54115,-18.01431,1007.513
31.500946998,59.72126,2.65994,57.56366,-0.6650369,0.3057128,-0.09363116,39.5053,-2.18639,-17.07054,1007.513
31.533723354,46.86226,10.2829,33.92221,-0.7186789,0.4082609,-0.06044453,39.2028,-5.459506,-16.58338,1007.513
31.566500664,15.6155,11.11019,16.32858,-0.9285691,0.4601204,-0.05472988,39.2028,-5.459506,-16.58338,1007.513
31.599277019,-5.629802,10.69654,-0.7152603,-0.8236699,0.4577202,-0.0357206,39.25947,-8.423854,-15.66637,1007.515
31.632053852,-34.08112,16.42854,-17.39256,-0.824254,0.4991101,-0.03626296,39.6378,-9.147656,-15.22026,1007.516
31.667351723,-75.26719,22.98782,-29.85472,-0.986573,0.5683174,0.02563203,39.65943,-10.22993,-14.39501,1007.518
31.700129032,-110.676,20.32865,-33.70333,-1.059549,0.6412759,0.0993435,39.65943,-10.22993,-14.39501,1007.518
31.732905388,-137.1395,17.5513,-30.40452,-1.022095,0.6294709,0.1777344,40.34629,-8.050996,-14.86544,1007.52
31.765681744,-144.5319,21.62869,-32.78699,-1.034568,0.5736656,0.2221334,40.31136,-6.168071,-14.89505,1007.52
31.800980091,-108.067,27.12431,-46.28767,-1.458398,0.306556,0.07094955,40.31136,-6.168071,-14.89505,1007.52
31.833756447,-16.31458,4.964554,-53.25182,-1.162612,0.3046503,0.2117712,41.34961,-3.254344,-14.88014,1007.52
31.866533756,25.05786,3.605423,-54.10706,-0.8747486,0.5795895,0.3916661,41.66094,-0.3286824,-14.11838,1007.52
31.899310112,6.173146,3.782701,-40.5453,-0.7018558,0.5663574,0.3821301,41.66094,-0.3286824,-14.11838,1007.522
31.932086945,15.05642,-4.076626,-25.15087,-0.7243845,0.4171868,0.2495525,41.25026,2.229193,-13.72291,1007.52
31.967384815,36.42596,-13.76783,-15.37662,-0.8353404,0.2856319,0.09501547,41.95628,3.375554,-14.17711,1007.52
32.000162125,82.2711,-33.03204,-3.708622,-0.9015174,0.3389634,0.06957988,41.95628,3.375554,-14.17711,1007.517
32.032938480,76.80447,-34.50936,3.255526,-0.7944971,0.4651384,0.08550218,41.2274,3.371355,-14.61128,1007.522
32.065715313,72.45602,-22.39536,6.004531,-0.7671941,0.412045,0.05182213,41.59616,2.989064,-15.8492,1007.522
32.098492146,61.58488,-4.667553,12.54106,-0.7685021,0.5754839,0.1637362,41.59616,2.989064,-15.8492,1007.523
32.133790493,3.626194,11.64203,21.03243,-0.8078802,0.608262,0.2321335,41.25953,1.465504,-16.25996,1007.523
32.166566849,-26.00542,23.87421,26.65262,-0.7745281,0.4526168,0.1519016,40.92177,0.002686024,-16.67168,1007.523
32.199343681,-40.47956,33.26995,22.13203,-0.8245891,0.4721676,0.1519909,40.92177,0.002686024,-16.67168,1007.525
32.232120037,-87.13226,31.02443,15.41224,-0.9770175,0.4619232,0.1928023,41.65065,0.006884575,-16.23751,1007.525
32.267418861,-73.77629,21.80597,9.486606,-0.882164,0.1855108,0.1814412,41.67374,-1.0635,-14.54203,1007.525
32.300195217,57.91975,-1.653826,9.242249,-0.7714038,0.1564145,0.1364557,41.67374,-1.0635,-14.54203,1007.521
32.332972050,79.66203,-5.199387,-4.869313,-0.7496412,0.4032237,0.1629883,42.03178,-0.6939917,-14.11312,1007.521
32.365748405,91.65134,-3.367513,-22.34077,-0.8823501,0.4700019,0.1901587,41.66771,-0.693119,-14.11265,1007.521
32.398525715,33.94114,-8.863133,-29.61037,-0.8547614,0.500164,0.1520202,41.66771,-0.693119,-14.11265,1007.521
32.433823585,68.72878,-12.40869,-40.5453,-0.8392383,0.487932,0.05524816,42.0453,-1.422866,-14.10166,1007.521
32.466600418,10.58372,-5.140294,-45.49351,-0.7623339,0.6258124,0.1097332,41.68799,-1.78643,-14.09546,1007.519
32.499376774,-31.90689,-1.949289,-49.52539,-0.7400535,0.4331906,0.04835635,41.68799,-1.78643,-14.09546,1007.521
32.532154083,-28.80085,-4.549367,-55.45102,-0.7112019,0.3507355,0.06285305,41.29686,-0.3278098,-14.11791,1007.519
32.567451954,-3.269212,-8.213114,-61.62101,-0.7237095,0.2984146,0.04803936,41.26306,1.494375,-14.14656,1007.519
32.600228310,12.50947,-15.48151,-69.74585,-0.7022803,0.2748457,0.06487171,42.37355,3.733029,-14.6185,1007.519
32.633005142,26.54876,-18.96798,-81.53603,-0.7508737,0.2905392,0.0688142,42.37355,3.733029,-14.6185,1007.519
32.665781498,-20.04182,-26.53184,-100.5958,-0.7450168,0.4986511,0.152725,40.80112,6.641122,-15.47044,1007.519
32.698558807,-51.9719,-25.40908,-110.2479,-0.7483137,0.4552641,0.1508727,40.03022,8.811659,-16.80922,1007.517
32.733856678,-75.82627,-35.33665,-116.4179,-0.6453039,0.4304377,0.1689576,40.03022,8.811659,-16.80922,1007.517
32.766633511,-80.54745,-34.50936,-118.8614,-0.4971229,0.1935535,0.1747395,39.22165,13.19259,-16.44193,1007.517
32.799409866,39.03504,-45.38241,-114.5852,-0.5432758,-0.2193628,0.1037484,37.319,17.63094,-16.50929,1007.516
32.832187176,251.426,-100.6341,-96.74719,-0.492017,-0.3601284,-0.02949824,37.319,17.63094,-16.50929,1007.514
32.867485046,386.6629,-150.1537,-53.86271,-0.2882857,0.3454658,-0.01275317,33.95754,21.98232,-18.74938,1007.512
32.900261879,386.9735,-164.8087,-4.930402,-0.1053062,0.6174981,0.1553608,30.63226,20.41029,-27.67303,1007.509
32.933038235,464.9972,-173.4953,45.83457,0.1551232,1.499027,-1.281043,30.63226,20.41029,-27.67303,1007.509
32.965815544,-556.8275,-53.65539,-102.8561,-2.562015,-2.004522,3.139955,26.39961,12.23118,-35.68317,1007.503
32.998591900,-365.8682,-170.4225,-210.8615,-2.643477,-2.448956,2.150657,19.93105,4.622722,-33.44091,1007.502
33.033890247,-148.0106,-121.7301,-338.4764,-1.139048,-2.243846,1.331834,19.93105,4.622722,-33.44091,1007.505
33.066666603,-240.8812,-11.87686,-517.4672,-2.283989,0.2149206,1.473808,10.12475,20.47728,-26.34122,1007.512
33.099443913,-386.1196,85.15333,-442.7554,0.9811802,0.002481249,0.6870596,0.5398394,27.57247,-20.03647,1007.512
33.132220268,44.68803,-193.2323,-267.9797,1.640965,-2.053421,-0.6813623,0.5398394,27.57247,-20.03647,1007.517
33.167518616,207.1339,104.1812,28.91291,-0.3928126,-1.204518,0.1515684,-13.48472,32.08446,-12.37953,1007.524
33.200294972,-226.0343,26.71066,98.49331,0.01365172,-0.9488913,0.49343,-22.59615,29.16715,-14.06231,1007.524
33.233071327,-184.7861,-3.603884,78.02849,0.1723387,-0.7616527,0.1933644,-22.59615,29.16715,-14.06231,1007.527
33.265848636,-109.0609,-5.553943,32.15063,-0.02760248,-1.059574,-0.03532191,-21.08094,29.56871,-11.08637,1007.527
33.298624992,-61.8491,-7.976743,24.14797,-0.04724998,-0.9718253,-0.07006562,-20.42748,33.99286,-7.302225,1007.528
33.333923340,-40.41743,13.00116,-18.8587,0.1468828,-0.7120581,0.001768043,-20.42748,33.99286,-7.302225,1007.532
33.366699695,-30.29175,38.05645,-58.99418,-0.04988461,-0.6583769,0.04355095,-19.73739,36.26819,-5.162942,1007.532
33.399477005,6.111025,46.03397,-76.58781,-0.0656319,-0.9835154,0.0219357,-20.48375,37.38023,-3.936016,1007.539
33.432253361,3.688314,35.87003,-58.74983,0.006921948,-1.090848,-0.09167599,-20.48375,37.38023,-3.936016,1007.54
33.467551708,20.64729,34.03815,-5.785649,0.03594261,-1.220158,0.04852634,-21.60962,35.92524,-3.911608,1007.54
33.500328064,-47.31284,10.04653,10.58621,0.01514833,-1.057375,0.01944861,-24.50549,34.81004,-6.004059,1007.545
33.533105373,-29.17358,12.88297,23.65926,0.03336448,-0.972003,-0.05244616,-24.50549,34.81004,-6.004059,1007.547
33.565881729,10.64584,24.8197,37.83191,0.02254561,-0.8918865,0.06539237,-24.49687,34.39081,-5.562263,1007.55
33.598658562,-22.6509,39.00194,30.6234,0.02715086,-1.003848,-0.001840448,-24.13883,34.76032,-5.13335,1007.549
33.633956432,7.974648,41.66111,28.79073,-0.09433638,-0.978066,-0.07042588,-21.96298,35.17432,-5.577967,1007.549
33.666733742,43.88046,39.41559,33.55568,-0.1663141,-1.109233,0.06424244,-21.96298,35.17432,-5.577967,1007.555
33.699510097,-34.51596,3.664516,9.303338,-0.3389414,-0.984268,0.1722886,-20.82577,35.88259,-6.89625,1007.556
33.732286453,-81.10654,-23.16356,-0.3487263,-0.08880218,-0.8260012,0.07855394,-20.09085,35.51641,-6.891459,1007.561
33.767584801,-106.1412,-1.53564,-22.03533,0.06664108,-0.8980019,-0.1667194,-20.09085,35.51641,-6.891459,1007.56
33.800361156,33.75477,-12.82234,9.669872,-0.1876559,-0.9797596,-0.2718926,-19.72252,35.55035,-4.343417,1007.56
33.833138466,45.86832,1.950828,21.52114,-0.5931202,-0.9242721,0.0004735263,-19.36157,35.94363,-2.174059,1007.562
33.865914822,8.90646,5.023647,12.66323,-0.6042414,-0.7433179,-0.01854593,-19.36157,35.94363,-2.174059,1007.562
33.898692131,-16.87366,7.860096,-23.3182,-0.3085167,-0.9765155,-0.1503076,-17.90141,35.55193,-3.910655,1007.561
33.933989525,21.5791,5.614574,-32.66482,-0.1854872,-1.053989,-0.1629981,-18.26548,35.55281,-3.910185,1007.563
33.966766834,53.81978,5.791852,-32.48155,-0.15439,-1.050876,-0.1029063,-18.26548,35.55281,-3.910185,1007.565
33.999543190,78.29537,8.096466,-25.21196,-0.1102129,-1.030954,-0.02265371,-18.9876,35.18417,-4.338627,1007.565
34.067617893,42.76228,-0.8265282,-0.7152603,-0.07240723,-0.9584623,0.2009806,-19.6986,33.99705,-6.868054,1007.566
34.100395203,11.45341,-3.426606,6.06562,-0.1010568,-0.9668018,0.1567758,-20.05872,33.61056,-8.540142,1007.566
34.133171558,-0.4116566,-1.890196,6.126709,-0.1083342,-0.9829329,0.08701994,-20.77481,32.87154,-9.397965,1007.567
34.165948391,-4.573749,-0.5310648,6.371066,-0.1097652,-0.9891091,0.1111007,-20.77481,32.87154,-9.397965,1007.567
34.198725224,-14.82368,0.3553254,7.409579,-0.1277505,-0.986531,0.08322051,-20.05342,33.23424,-9.404634,1007.567
34.234023571,-17.8676,0.4735108,7.531757,-0.1409127,-0.9697719,0.05771431,-20.78761,33.60636,-8.974314,1007.567
34.266799927,-16.6873,2.069013,8.509181,-0.1598265,-0.9821926,0.04526249,-20.78761,33.60636,-8.974314,1007.569
34.299576282,-12.89793,2.246291,5.576909,-0.1724206,-0.9989941,0.02558185,-19.3313,33.60287,-8.976193,1007.571
34.400428295,6.794353,-0.2356014,-2.975554,-0.1680589,-0.9905007,0.05107087,-19.6933,33.62073,-7.732548,1007.571
34.433204651,10.14888,-0.5901574,-3.097732,-0.1583511,-0.9884549,0.05345157,-20.07901,34.70387,-8.557332,1007.573
34.465981483,12.69583,-0.9447136,-3.158821,-0.1520485,-0.9824943,0.06257351,-20.07901,34.70387,-8.557332,1007.573
34.498758316,10.27312,-1.121992,-3.342088,-0.1491199,-0.9872833,0.07075693,-20.07224,34.33944,-8.551601,1007.573
34.534056663,8.223131,-0.8856209,-2.425753,-0.1398882,-0.9891343,0.073626,-20.05945,33.60462,-8.975254,1007.574
34.566833019,3.750435,-0.8265282,-1.265062,-0.1355138,-0.9905455,0.07554319,-20.43029,33.96993,-8.980514,1007.576
34.599609852,2.445899,-0.2946941,-0.04328117,-0.1345565,-0.9862078,0.0678326,-20.43029,33.96993,-8.980514,1007.576
34.632386684,1.079242,-0.4128794,0.7508761,-0.1413376,-0.992062,0.07459657,-20.05342,33.23424,-9.404634,1007.578
34.665163517,0.8307589,-0.3537867,1.056321,-0.1418183,-0.9940107,0.07508201,-19.68934,33.23336,-9.405105,1007.578
34.700461388,1.514087,-0.5310648,1.972656,-0.1437432,-1.001332,0.07509761,-19.68934,33.23336,-9.405105,1007.578
34.733237743,2.50802,-0.5310648,2.094834,-0.1442602,-0.9861683,0.08518457,-20.06018,33.59867,-9.410365,1007.578
34.766014576,2.259537,-0.6492501,1.606122,-0.1539812,-0.9813489,0.08953263,-20.06018,33.59867,-9.410365,1007.578
34.798791408,3.564073,-0.6492501,0.50652,-0.1554252,-0.9877293,0.08425069,-20.06018,33.59867,-9.410365,1007.578
34.834089756,3.004986,-0.2946941,-0.1043702,-0.1534871,-0.9847474,0.0904993,-20.42425,33.59955,-9.409895,1007.578
34.866866112,3.439831,-0.6492501,-1.265062,-0.1593187,-0.9853768,0.07703595,-20.0737,34.32755,-9.421825,1007.578
34.899642944,6.359508,-1.417455,-1.203973,-0.1476573,-0.9856627,0.09193094,-20.0737,34.32755,-9.421825,1007.578
34.932419777,7.29132,-2.422031,0.567609,-0.1471224,-1.007618,0.08570505,-19.33202,33.59693,-9.411304,1007.578
34.965196609,11.88826,-4.312997,1.667211,-0.1447301,-0.9935045,0.08134586,-20.0609,33.59273,-9.845477,1007.578
35.000494480,15.73975,-8.449485,3.01117,-0.1418128,-0.9913982,0.1005902,-20.0609,33.59273,-9.845477,1007.578
35.033271313,18.03821,-7.622187,4.110772,-0.1476518,-0.984061,0.1121457,-19.32526,33.23249,-9.405575,1007.578
35.066048145,12.69583,-5.435758,4.599484,-0.1418513,-0.962702,0.1650496,-19.68476,32.8511,-10.70471,1007.582
35.098824978,2.632261,-1.712918,3.560971,-0.1573817,-0.9647295,0.1723099,-19.68476,32.8511,-10.70471,1007.584
35.134122849,-2.896488,0.2962328,-0.1654592,-0.1670679,-0.9820976,0.137701,-19.68548,32.84515,-11.13982,1007.584
35.166899681,-3.331333,0.5916961,-1.814863,-0.1728839,-0.986019,0.1410902,-19.68476,32.8511,-10.70471,1007.586
35.199676037,-0.9086228,-0.4719721,-2.670109,-0.172882,-0.9955872,0.09585662,-19.68476,32.8511,-10.70471,1007.584
35.232453346,6.856474,-12.52688,0.445431,-0.1849169,-1.043054,0.07814632,-19.68476,32.8511,-10.70471,1007.584
35.265229702,-1.46771,-25.17271,8.997893,-0.1800714,-1.038627,0.07860951,-20.05632,33.21046,-11.14508,1007.584
35.300527572,-20.66303,-38.05492,14.67917,-0.2379534,-0.9866154,0.1335436,-20.05632,33.21046,-11.14508,1007.584
35.333304405,-32.21749,-47.15519,21.03243,-0.2300321,-1.06499,0.05951328,-20.06236,33.58084,-10.7157,1007.586
35.366081238,-38.05685,-51.70533,23.53708,-0.1722046,-1.079969,0.07720908,-19.70213,33.96818,-8.981454,1007.586
35.398858070,-33.33567,-44.85058,25.98064,-0.1968462,-1.138373,0.04269751,-19.70213,33.96818,-8.981454,1007.586
35.434155941,28.78511,-15.65879,41.68052,-0.3379038,-1.046871,-0.006686093,-19.72074,35.14516,-7.32131,1007.584
35.466932773,31.20782,1.182623,34.5331,-0.1157795,-1.12442,0.06077595,-19.00466,35.88417,-6.463487,1007.584
35.499709129,112.5239,19.08771,50.78278,-0.3439046,-1.155194,0.1119064,-19.00466,35.88417,-6.463487,1007.584
35.532486439,173.1538,12.29205,54.44812,-0.3512785,-1.103124,0.184531,-17.92875,36.5875,-8.154644,1007.58
35.565262794,220.4898,24.46514,52.85981,-0.3979916,-1.042415,0.2861177,-16.12229,36.88899,-12.45168,1007.58
35.600561142,249.5002,39.71105,76.37908,-0.4126097,-0.6049145,0.3235205,-15.03617,36.41664,-20.15505,1007.58
35.633337498,258.5077,69.02103,94.82796,-0.5294846,-0.4641922,0.3192534,-15.03617,36.41664,-20.15505,1007.582
35.666114807,215.955,92.42173,98.73766,-0.625779,-0.3718984,0.4700089,-11.34701,32.95601,-28.25003,1007.582
35.698891163,154.8282,88.5807,105.2742,-0.6706469,-0.2510664,0.670661,-7.574391,28.49237,-34.15329,1007.582
35.734189510,135.1359,89.28982,101.8532,-0.6457109,-0.5461811,0.5752557,-7.574391,28.49237,-34.15329,1007.58
35.766965866,273.2303,90.53076,126.4721,-0.5556077,-0.09012876,0.3529283,-2.394722,23.62909,-37.93827,1007.58
35.799742699,306.8377,115.1724,150.3579,-0.579307,0.5041135,0.4589511,2.473662,19.19172,-41.72955,1007.58
35.832519531,27.29421,114.2269,145.5318,-0.5595301,0.6264955,0.8048188,2.473662,19.19172,-41.72955,1007.58
35.865295887,-50.85373,96.85368,165.4469,-0.7567759,0.2661082,0.8351929,7.771803,8.161871,-43.30372,1007.585
35.900594234,-98.56248,90.2944,166.5465,-0.8407717,0.2347076,0.6929564,11.54232,4.520519,-42.38097,1007.583
35.933370590,-241.5645,75.52122,168.3791,-0.9070384,0.9639708,0.7959886,11.54232,4.520519,-42.38097,1007.583
35.966147900,-487.7491,30.49259,181.8798,-1.211771,-0.0006383634,0.4934632,15.5351,5.251681,-41.52737,1007.579
35.998924255,-274.7991,0.8871596,217.7391,-1.085605,0.3072251,-0.2110509,19.80146,11.11806,-38.26812,1007.579
36.034222603,-196.7754,11.81931,214.7457,-1.110559,-0.3737666,0.08366532,19.80146,11.11806,-38.26812,1007.577
36.066998959,-225.6616,10.40108,182.002,-1.154631,-0.4066905,0.1646882,23.36093,19.25207,-33.67584,1007.577
36.099776268,-184.8482,2.364477,153.4123,-0.7736861,-0.2994488,0.2103152,28.77381,22.20203,-30.24784,1007.577
36.132552624,-96.8231,7.091891,93.72836,-0.8589225,-0.9638887,0.4363147,28.77381,22.20203,-30.24784,1007.577
36.165329933,-58.37034,8.687393,46.56764,-0.6676888,-0.2831776,0.6018677,33.2031,22.60849,-26.40544,1007.577
36.200627327,78.91658,15.54214,54.69248,-0.5220982,0.3375441,0.4600292,35.75444,22.62531,-24.73044,1007.577
36.233404636,-41.97046,37.40644,55.54772,-0.8521988,0.1300553,0.6454864,35.75444,22.62531,-24.73044,1007.576
36.266180992,52.95009,38.41101,51.94347,-0.9087008,0.1727931,0.4857439,36.5036,21.5362,-24.27908,1007.576
36.298957348,10.33524,56.96611,42.47467,-0.7939473,0.5429405,0.6273969,37.99122,20.10978,-21.70953,1007.576
36.334255695,7.850407,63.11176,39.23695,-1.027641,0.160055,0.4778621,37.99122,20.10978,-21.70953,1007.577
36.367032051,43.32137,67.54371,30.37905,-0.950962,0.5823108,0.4544198,40.21843,17.93575,-20.37263,1007.577
36.399809360,-23.2721,70.0256,26.7748,-0.9734995,0.2663308,0.4973093,42.06263,16.86695,-18.24439,1007.577
36.432585716,10.64584,66.53914,25.61411,-0.8854988,0.4193434,0.4732833,42.06263,16.86695,-18.24439,1007.577
36.465363026,12.88219,63.52541,26.28608,-0.836154,0.2547557,0.2784628,43.61102,15.44122,-15.61276,1007.579
36.500660419,18.2867,58.91617,24.69777,-0.8494414,0.3210776,0.2365159,45.07304,15.48443,-12.1959,1007.579
36.533437729,27.16997,54.30694,22.3153,-0.9474705,0.501951,0.2403267,46.56668,13.68763,-10.05573,1007.579
36.566214085,14.18673,47.62947,20.17718,-0.9473048,0.4444334,0.3034713,46.56668,13.68763,-10.05573,1007.579
36.598991394,19.83972,45.56123,19.01649,-0.970243,0.4595899,0.1292499,47.68324,12.55474,-8.298549,1007.581
36.631767750,0.8928797,39.77014,13.64066,-0.876361,0.4033882,0.1989094,48.42168,12.21743,-6.180359,1007.581
36.667066097,17.66549,39.71105,11.07492,-0.9222517,0.5031942,0.1786506,48.42168,12.21743,-6.180359,1007.581
36.699842453,0.3959135,31.20171,6.248888,-0.8876308,0.4289784,0.110327,48.80219,11.51145,-4.428923,1007.583
36.732618809,14.93218,29.01528,3.438793,-0.952383,0.4995019,0.1041166,48.80426,11.52844,-3.185745,1007.585
36.765396118,0.271672,21.15595,-2.242486,-0.906011,0.393571,0.08346774,48.80426,11.52844,-3.185745,1007.583
36.800693512,15.80187,17.96494,-8.107031,-0.9262017,0.5046595,0.04387653,48.44913,11.1827,-1.874211,1007.583
36.833470821,7.912527,10.16471,-17.08712,-0.9343234,0.4617173,0.1118325,48.8079,11.55816,-1.010187,1007.583
36.866247177,14.55945,14.83303,-24.53998,-0.9248297,0.5498196,0.09290411,48.8079,11.55816,-1.010187,1007.583
36.899024487,-4.69799,9.92834,-33.09244,-1.008942,0.3847724,0.06254522,49.16594,11.92767,-0.5812752,1007.585
36.931800842,-9.294928,8.687393,-34.55857,-0.8925077,0.4265846,0.05209744,48.78293,13.03289,0.2100689,1007.585
