Time (s),Gyroscope X (deg/s),Gyroscope Y (deg/s),Gyroscope Z (deg/s),Accelerometer X (g),Accelerometer Y (g),Accelerometer Z (g),Magnetometer X (uT),Magnetometer Y (uT),Magnetometer Z (uT),Barometer (hPa)
0.000000000,-0.5683001,-1.156571,0.6135079,0.508082,0.6517167,0.5567541,-30.93649,-30.37019,-2.357851,1006.576
0.035296440,-1.934957,-0.3883658,1.163309,0.5105528,0.6342241,0.5596628,-30.93649,-30.37019,-2.357851,1006.576
0.068071842,1.357444,-0.3292731,0.3691518,0.5192941,0.6327991,0.5543492,-31.64571,-31.47279,-3.147786,1006.576
0.100846767,1.916531,0.4980244,-0.7915395,0.5202588,0.6332106,0.5423123,-31.27955,-31.45669,-1.90508,1006.576
0.133621693,2.040772,-0.7429219,-1.891142,0.5280245,0.632718,0.532186,-31.27955,-31.45669,-1.90508,1006.578
0.168918133,6.824073,-3.402092,-4.334702,0.5571048,0.6513141,0.5099464,-30.91548,-31.45756,-1.905549,1006.58
0.201692581,6.513469,-1.215663,-3.540545,0.5574812,0.709723,0.57436,-31.29308,-30.72781,-1.916539,1006.58
0.234467983,-9.637934,1.916249,2.140733,0.4794156,0.6653422,0.5895342,-31.28631,-31.09225,-1.910809,1006.581
0.267242909,-8.644002,-0.7429219,4.462116,0.4527668,0.6407613,0.5886717,-31.28631,-31.09225,-1.910809,1006.581
0.300017834,-5.537962,-0.6247365,5.073006,0.4543137,0.5992489,0.5704389,-31.28028,-31.46263,-2.340192,1006.581
0.335314274,7.321039,-1.038385,1.652021,0.4974642,0.6248578,0.5592266,-31.65788,-30.73288,-2.351182,1006.581
0.368089676,7.631643,0.2616537,-0.2417383,0.5314327,0.6318795,0.5475828,-31.65788,-30.73288,-2.351182,1006.581
0.400864601,5.581657,2.329898,1.285487,0.5455199,0.6320874,0.5605459,-31.2938,-30.73376,-2.351651,1006.581
0.433639526,8.377091,2.093527,3.545781,0.5333021,0.6620746,0.545126,-31.29453,-30.7397,-2.786763,1006.581
0.468935490,6.078623,0.2616537,4.950828,0.5129299,0.6566877,0.5653997,-31.29453,-30.7397,-2.786763,1006.581
0.501710415,3.842275,-0.5065512,4.034493,0.4930424,0.6467443,0.5601668,-30.57096,-30.35917,-1.488098,1006.583
0.534485817,2.910463,-2.279331,1.041131,0.4833725,0.6271052,0.5491481,-31.66391,-30.3625,-1.921799,1006.579
0.567260742,4.649846,-3.933927,-1.158074,0.5085966,0.6385376,0.5519592,-31.66391,-30.3625,-1.921799,1006.581
0.600035668,3.345309,-4.583946,-2.196587,0.534777,0.6512583,0.5287725,-31.66922,-29.98618,-1.057307,1006.581
0.635332108,4.028638,-4.170298,-2.563121,0.5609929,0.6503925,0.5128267,-30.929,-30.72868,-1.917009,1006.581
0.668106556,2.724101,-1.865683,-1.035896,0.546375,0.6701856,0.5051298,-30.929,-30.72868,-1.917009,1006.581
0.700881481,-1.127387,-0.7429219,-0.4860944,0.5464199,0.6532066,0.5147825,-32.01374,-31.08456,-1.474758,1006.581
0.733656883,0.3635115,0.4980244,0.4913299,0.5236034,0.6546145,0.5345703,-30.93503,-30.3583,-1.487628,1006.579
0.768953324,-2.431924,0.6753024,1.041131,0.5080628,0.6564665,0.539418,-30.93503,-30.3583,-1.487628,1006.579
0.801728249,-2.369803,1.443507,0.3080628,0.5090661,0.6448563,0.5495417,-31.64967,-31.08543,-1.475228,1006.579
0.834503174,0.9225985,0.6162097,0.4302409,0.4984105,0.6335689,0.5500653,-32.39061,-30.34887,-1.050637,1006.579
0.867278576,1.85441,-0.6247365,-0.3028273,0.5109864,0.6551369,0.5548167,-32.39061,-30.34887,-1.050637,1006.579
0.900053501,-2.245561,0.02528298,-0.3028273,0.5255674,0.6468886,0.5417978,-32.01978,-30.71418,-1.045377,1006.577
0.935349464,2.351376,0.02528298,0.06370676,0.5230767,0.6706355,0.5278084,-31.66319,-30.35656,-1.486688,1006.577
0.968124390,-4.171305,0.7934878,-0.05847127,0.52019,0.6609276,0.5360129,-31.66319,-30.35656,-1.486688,1006.577
1.000899315,-3.363735,0.1434683,-0.1806493,0.5231613,0.6355897,0.5307491,-31.6557,-30.71505,-1.045847,1006.577
1.033674717,-2.991011,0.2616537,-0.9748065,0.5236527,0.631644,0.5230521,-31.29235,-30.72187,-1.481428,1006.579
1.068971157,-1.872836,1.029859,-1.341341,0.532838,0.6528104,0.5441784,-31.29235,-30.72187,-1.481428,1006.581
1.101745605,-2.618286,1.325322,-0.6693614,0.5323728,0.643526,0.5403426,-31.30515,-29.98705,-1.057776,1006.582
1.134520531,-1.686474,1.443507,-0.1806493,0.5250876,0.6444494,0.5418026,-31.29838,-30.35149,-1.052047,1006.578
1.167295456,-1.437991,1.798064,0.2469738,0.5119679,0.6482328,0.5413466,-31.29838,-30.35149,-1.052047,1006.578
1.200070858,-1.127387,1.148044,-0.7304505,0.5100355,0.6438267,0.5403951,-31.66995,-29.99212,-1.492418,1006.578
1.235367298,2.537739,-0.2110877,-2.196587,0.5119674,0.6497407,0.5480834,-31.66391,-30.3625,-1.921799,1006.58
1.268142223,2.724101,-0.8020146,-2.929655,0.5168062,0.655075,0.538918,-31.65715,-30.72694,-1.91607,1006.58
1.300917149,-6.221291,-0.3883658,-2.62421,0.5264607,0.6835642,0.5619575,-31.65715,-30.72694,-1.91607,1006.58
1.333692551,-1.748595,0.5571171,-0.6693614,0.5125219,0.617991,0.5341704,-31.66246,-30.35061,-1.051576,1006.58
1.366466999,-1.562233,0.08437566,-0.1806493,0.5231457,0.6474692,0.5581689,-31.65788,-30.73288,-2.351182,1006.58
1.401762962,-1.437991,0.5571171,0.6745969,0.5154168,0.6308588,0.5601377,-31.65788,-30.73288,-2.351182,1006.58
1.434538365,1.916531,1.384415,1.041131,0.523638,0.6410113,0.5394043,-31.28559,-31.0863,-1.475698,1006.58
1.467313290,-0.5683001,2.861732,1.407665,0.505624,0.6623374,0.546154,-31.65112,-31.09732,-2.345452,1006.581
1.500088215,1.108961,1.975342,1.590932,0.5085562,0.6560906,0.554821,-31.65112,-31.09732,-2.345452,1006.58
1.535384178,-0.6304209,1.148044,1.407665,0.5032325,0.6482369,0.5524386,-31.65715,-30.72694,-1.91607,1006.58
1.568159104,1.668048,-0.6838292,-0.3028273,0.5037408,0.6384937,0.5514894,-31.65039,-31.09138,-1.91034,1006.58
1.600934506,3.096826,-1.924775,-1.096985,0.5217023,0.6405951,0.551925,-31.65039,-31.09138,-1.91034,1006.58
1.633709431,3.158946,-2.338424,-0.3639164,0.5182627,0.6560946,0.5437266,-31.29308,-30.72781,-1.916539,1006.58
1.666484356,-0.1955755,-1.511127,-0.7915395,0.5304072,0.6502177,0.5244522,-31.65715,-30.72694,-1.91607,1006.58
1.701780796,-1.748595,0.02528298,-0.4860944,0.5172995,0.6511594,0.5355532,-31.65715,-30.72694,-1.91607,1006.58
1.734556198,-2.369803,0.3798391,-0.3028273,0.5245712,0.6565908,0.5374532,-31.65715,-30.72694,-1.91607,1006.58
1.767331124,-1.313749,0.8525805,-0.2417383,0.5187885,0.6395532,0.5456758,-31.65039,-31.09138,-1.91034,1006.58
1.800105572,1.295323,0.4980244,-0.3028273,0.5148972,0.6414354,0.5408685,-31.65039,-31.09138,-1.91034,1006.581
1.835402012,-0.6925417,1.088951,0.3080628,0.5105014,0.6536248,0.548081,-30.92827,-30.72274,-1.481898,1006.581
1.868176937,-0.3819378,1.088951,0.5524189,0.5061434,0.6502428,0.5572423,-32.02123,-30.72607,-1.9156,1006.581
1.900952339,-2.742527,0.3798391,0.3080628,0.5071314,0.6449572,0.5663938,-32.02123,-30.72607,-1.9156,1006.581
1.933727264,4.152879,-0.6247365,0.1858848,0.5139471,0.6346859,0.5519523,-31.27955,-31.45669,-1.90508,1006.581
1.966502190,0.3635115,1.148044,0.857864,0.5099828,0.6662366,0.5413242,-31.65715,-30.72694,-1.91607,1006.575
2.001798153,1.792289,0.6162097,0.6135079,0.5144167,0.6405008,0.5471288,-31.65715,-30.72694,-1.91607,1006.575
2.034573078,1.543806,-0.6838292,-0.1806493,0.5129307,0.6536685,0.5514447,-31.65039,-31.09138,-1.91034,1006.574
2.067348003,1.916531,-1.215663,-1.463519,0.5299482,0.6410304,0.5345757,-31.67067,-29.99806,-1.92753,1006.574
2.100123405,-3.363735,-0.6838292,-1.524608,0.5211791,0.654144,0.5398718,-31.67067,-29.99806,-1.92753,1006.574
2.135419846,-7.153102,-1.452034,-2.502032,0.5115475,0.6229838,0.5529383,-31.28631,-31.09225,-1.910809,1006.575
2.168194771,-1.003146,-2.397517,-5.006681,0.5212364,0.6338263,0.5596381,-31.65715,-30.72694,-1.91607,1006.575
2.200969696,-0.5683001,-2.042961,-4.395792,0.5187331,0.6634375,0.5485281,-31.65715,-30.72694,-1.91607,1006.575
2.233744144,-0.1334547,-1.452034,-2.746388,0.5230853,0.6667292,0.5263701,-31.28559,-31.0863,-1.475698,1006.575
2.266519547,-3.984943,0.9707659,-0.9137175,0.5356781,0.6799743,0.5248762,-31.27883,-31.45074,-1.469968,1006.577
2.301815987,-7.650068,4.102678,0.4302409,0.5075937,0.6481327,0.5322112,-31.28631,-31.09225,-1.910809,1006.575
2.334590912,-5.724324,4.398141,0.3080628,0.4930479,0.6437987,0.5568017,-31.28631,-31.09225,-1.910809,1006.577
2.367365837,-5.848566,4.16177,0.918953,0.4852532,0.6579815,0.5746092,-30.92973,-30.73463,-2.352121,1006.573
2.400141239,-10.94247,3.393566,2.324,0.4677724,0.664398,0.607855,-30.55816,-31.09399,-1.911749,1006.573
2.435436726,-15.91213,1.561693,1.407665,0.472309,0.59127,0.5920695,-30.55816,-31.09399,-1.911749,1006.571
2.468212128,2.227135,0.6753024,1.285487,0.5062402,0.6123586,0.5722214,-31.28704,-31.09819,-2.345921,1006.571
2.500987053,5.395295,-0.7429219,-1.035896,0.5334337,0.6095795,0.560127,-32.02331,-30.74305,-3.158776,1006.571
2.533761978,8.874058,-1.747497,-1.341341,0.5284515,0.6611035,0.5513967,-32.02331,-30.74305,-3.158776,1006.569
2.566537380,-5.165237,-0.2110877,-0.3639164,0.5323415,0.6556648,0.5350294,-31.66464,-30.36844,-2.356911,1006.571
2.601833820,-6.531894,1.561693,-0.9137175,0.5285482,0.6181648,0.5399085,-30.93045,-30.74057,-2.787233,1006.571
2.634608746,-6.531894,2.38899,-0.6693614,0.5256095,0.6339096,0.5663666,-30.93045,-30.74057,-2.787233,1006.571
2.667383194,-4.481909,2.684454,-1.463519,0.5197982,0.6285472,0.5726462,-31.65319,-31.1143,-3.588628,1006.571
2.700158119,-2.866769,1.738971,-2.502032,0.4864761,0.7720333,0.6553032,-30.92431,-31.1101,-3.154456,1006.571
2.735454559,-58.34062,7.766424,16.43556,0.4715399,0.9308097,0.673391,-30.92431,-31.1101,-3.154456,1006.571
2.768229485,-93.8737,1.857156,55.77689,0.3594486,1.362402,0.9589354,-30.91828,-31.48048,-3.583837,1006.571
2.801004887,-326.3918,-25.9164,83.26695,0.6234052,1.292415,1.223164,-32.02684,-30.77192,-5.272177,1006.569
2.833779812,-431.8108,-84.59543,95.36257,0.2419758,0.5533149,1.084143,-32.02684,-30.77192,-5.272177,1006.569
2.866554737,-329.4978,-166.9706,63.90173,0.2463163,-0.3002186,0.83463,-32.83402,-27.21921,-12.16601,1006.569
2.901850700,0.9847193,-204.199,46.61354,0.6164577,-0.3828585,0.6923563,-35.18,-18.81109,-15.21739,1006.569
2.934625626,121.3748,-205.0263,68.11687,0.7111263,0.1879015,0.4308548,-35.18,-18.81109,-15.21739,1006.569
2.967401028,66.33578,-172.7617,91.51397,0.956109,0.2585945,0.2867214,-38.16993,-13.97982,-8.947927,1006.569
3.000175953,19.74519,-147.6473,102.5711,0.772767,0.1637531,0.2459021,-40.74627,-11.68265,-1.333484,1006.563
3.035472393,-32.2499,-130.2741,101.8991,0.8105129,-0.0243225,0.0492191,-40.74627,-11.68265,-1.333484,1006.563
3.068246841,-24.91964,-118.9874,109.4741,0.7661108,-0.1427097,0.0273602,-41.59369,-7.962511,4.01805,1006.562
3.101021767,11.04828,-109.0598,122.8526,0.643909,-0.1927276,0.1254418,-40.87257,-3.831171,8.614959,1006.56
3.133797169,-15.91213,-103.5642,117.3546,0.6716524,-0.2359175,0.04457239,-40.87257,-3.831171,8.614959,1006.56
3.166572094,-24.17419,-93.93208,111.3679,0.6921028,-0.4939828,-0.110567,-39.86044,0.9675765,13.20097,1006.56
3.201868534,1.357444,-82.76356,101.8991,0.7174332,-0.5071527,-0.003744936,-38.10944,5.012778,16.11921,1006.56
3.234643459,-35.91502,-73.84056,78.31874,0.6917083,-0.5163013,-0.02773822,-38.10944,5.012778,16.11921,1006.56
3.267418861,-53.4952,-65.27213,60.78619,0.7279314,-0.6579389,-0.1282153,-36.34605,8.389845,19.04796,1006.562
3.300193787,-16.28486,-57.35371,44.90305,0.7226009,-0.6785274,-0.2109658,-33.83455,10.59923,21.12369,1006.562
3.335489273,6.886193,-50.32168,33.29613,0.7860974,-0.6428891,-0.2751912,-31.66008,11.35174,23.22281,1006.56
3.368264675,27.38605,-38.32587,25.90436,0.7739676,-0.6463795,-0.272269,-31.66008,11.35174,23.22281,1006.56
3.401039600,24.96334,-26.86189,16.74101,0.7801847,-0.6028609,-0.2550204,-30.21522,12.0941,24.45265,1006.56
3.433814526,7.693764,-23.61179,14.11418,0.819109,-0.6412094,-0.2834552,-29.51193,13.56794,25.73413,1006.558
3.466589928,16.94976,-18.41163,14.78616,0.8366773,-0.6912124,-0.3512935,-29.51193,13.56794,25.73413,1006.558
3.501885414,20.30428,-12.67964,15.94685,0.8831487,-0.6354799,-0.3769999,-28.06987,14.28738,25.28567,1006.558
3.534660816,27.51029,-11.61598,22.05575,0.8940661,-0.7499174,-0.4577221,-28.4407,14.65269,25.28041,1006.558
3.567435742,69.50394,-10.19775,28.89772,0.8698792,-0.8143575,-0.5904235,-28.4407,14.65269,25.28041,1006.557
3.600210667,102.4279,-11.08414,34.82336,0.9072789,-0.8401444,-0.7016679,-27.30735,15.74918,25.69685,1006.555
3.635507107,141.4398,21.88958,35.06771,0.7888088,-0.8809105,-0.8885751,-26.97988,17.54757,23.98944,1006.555
3.668282509,162.8094,58.40885,26.08763,0.6346316,-0.9770483,-0.8707355,-26.97988,17.54757,23.98944,1006.555
3.701057434,116.7778,127.8428,-23.76101,0.4479934,-1.142547,-1.052961,-26.3397,21.9331,20.50005,1006.551
3.733832359,86.09019,277.2881,-115.5778,0.2833072,-1.157787,-1.295635,-27.50878,25.50452,14.91202,1006.55
3.766606808,108.5779,466.9756,-224.1941,-0.2707174,-0.6192787,-0.5822358,-27.50878,25.50452,14.91202,1006.552
3.801903248,141.564,463.0755,-228.8979,-0.621097,-0.05231213,0.6870916,-31.23392,25.73942,4.779186,1006.55
3.834678650,1077.786,28.09431,327.5009,-5.400353,6.6304,-1.129267,-36.61255,19.6417,-11.1581,1006.55
3.867453575,-434.5441,76.78668,78.86854,0.5916654,1.012598,1.504776,-36.61255,19.6417,-11.1581,1006.547
3.900228500,-278.9315,30.16255,9.654682,0.5115525,-1.858962,0.4151587,-35.04659,12.97985,-18.26727,1006.549
3.935524464,173.0593,39.32191,-48.8686,0.3876015,-0.5194995,0.7186172,-34.71133,14.84192,-15.31276,1006.547
3.968299389,46.70561,10.24832,-57.05452,0.4448155,0.1741922,0.9508964,-34.71133,14.84192,-15.31276,1006.547
4.001074791,-60.76333,-6.770376,-44.34801,0.2543823,-0.4182535,0.8704096,-35.09184,15.54789,-17.0642,1006.547
4.033849716,-1.562233,-33.53936,-48.19662,0.2493377,-0.7626885,0.7924787,-35.05803,13.7257,-17.03555,1006.547
4.066624641,7.196797,-49.78985,-65.54589,0.2336833,-0.4994582,0.8441062,-35.05803,13.7257,-17.03555,1006.549
4.101921082,-30.44839,-55.8764,-93.03595,0.1868926,-0.4657339,0.6371807,-35.76445,12.64603,-16.1472,1006.549
4.134696007,-17.65151,-60.36744,-123.275,0.1546948,-0.4077389,0.6111762,-37.53398,10.1282,-13.99134,1006.55
4.167470455,-21.56512,-58.94921,-155.5911,0.2709076,-0.4729325,0.6215888,-37.53398,10.1282,-13.99134,1006.55
4.200245857,9.86799,-64.56301,-178.2551,0.4513877,-0.4151949,0.5830461,-39.29747,7.239993,-12.26486,1006.55
4.235542297,77.02055,-82.46809,-197.7425,0.4879983,-0.08003122,0.6204817,-40.66861,2.833277,-10.45282,1006.552
4.268317223,51.36467,-98.48221,-209.1662,0.8809558,0.2667637,0.5713722,-40.66861,2.833277,-10.45282,1006.548
4.301092148,6.513469,-68.6995,-210.0825,0.7591229,0.4245313,0.4327911,-40.87907,-5.143556,-7.404825,1006.548
4.333867550,43.41321,-70.41319,-206.6615,0.8554265,0.5672565,0.4602666,-39.63124,-13.17783,-3.860485,1006.55
4.366642475,27.01332,-63.32207,-209.716,0.8663065,0.6916519,0.4759382,-39.63124,-13.17783,-3.860485,1006.55
4.401938439,-26.78327,-53.09904,-195.0546,0.6338918,1.003532,0.3600113,-38.03691,-20.44713,-2.069477,1006.551
4.434713364,-161.4611,-42.9351,-172.9404,0.5538205,0.9844097,0.3679318,-33.89291,-27.78328,-0.2808022,1006.553
4.467488289,-172.9534,-33.77573,-164.6934,0.535621,0.4356144,0.1940678,-29.06201,-33.29005,-2.314361,1006.555
4.500263691,-63.43452,-35.13486,-176.6668,0.4354957,0.279699,0.235456,-29.06201,-33.29005,-2.314361,1006.557
4.535560131,39.87233,-31.88477,-180.7598,0.3248685,0.4598746,0.2941729,-23.11441,-37.06701,-6.490501,1006.557
4.568335056,114.6036,-28.3983,-168.7253,0.323994,0.8361537,0.3359677,-18.68536,-40.36335,-6.879682,1006.557
4.601109505,89.81743,-13.09329,-125.4742,0.3934402,1.249551,0.3780212,-18.68536,-40.36335,-6.879682,1006.56
4.633884430,181.5698,-9.134084,-88.69863,0.4906676,1.409726,0.3924714,-11.64668,-43.24293,-2.989001,1006.562
4.666659832,112.9264,-27.63009,-78.06915,0.5486504,1.978035,0.5931678,-7.944033,-46.10347,1.714051,1006.562
4.701955795,-93.31462,-31.88477,-47.09702,0.3377213,1.380783,0.2662796,-7.944033,-46.10347,1.714051,1006.563
4.734731198,-120.275,-22.42994,-23.76101,0.2334644,0.9108507,0.2604961,-4.663807,-46.08245,3.823222,1006.563
4.767506123,-129.4689,-9.606825,-6.472818,0.2719693,0.6326025,0.1929521,-2.115668,-46.51159,-0.4632952,1006.565
4.800281525,-25.16813,-13.15239,-17.65211,0.241529,0.5654973,0.1748337,-2.115668,-46.51159,-0.4632952,1006.567
4.835577011,47.94803,-17.8798,-29.01467,0.3526767,1.026841,0.3380191,-2.129488,-46.20489,-4.695825,1006.57
4.868351936,-5.537962,-18.29345,-29.68665,0.3328609,0.9760926,0.2779724,-1.035076,-46.18967,-3.391899,1006.572
4.901127338,-5.103117,-10.55231,-23.57774,0.2985798,0.8929703,0.2724026,-1.035076,-46.18967,-3.391899,1006.572
4.933902264,5.02257,-6.947654,-20.21785,0.2728661,0.8865247,0.2869142,0.06922519,-46.93306,-4.252071,1006.576
4.966677189,26.20576,-6.770376,-18.32409,0.2664714,0.9276167,0.3205628,1.135139,-45.47198,-3.84129,1006.577
5.001973152,46.33289,-7.361302,-13.43697,0.2488183,1.001549,0.3277136,1.135139,-45.47198,-3.84129,1006.579
5.034748077,17.75733,-5.529429,-6.656085,0.2419592,1.025286,0.3175855,1.580906,-46.56037,-3.389536,1006.583
5.067523479,-6.345532,-1.156571,-2.01332,0.2411417,0.9559529,0.2936239,2.31041,-46.55107,-2.582412,1006.584
5.100298405,-0.1955755,0.6753024,-1.341341,0.2393591,0.8862016,0.2807364,2.31041,-46.55107,-2.582412,1006.584
5.135594845,14.34069,-0.9202,-3.357278,0.2339916,0.8978692,0.2841011,2.688737,-47.27488,-2.13631,1006.584
5.168369770,7.445281,-1.038385,-3.907079,0.238783,0.9262007,0.2903048,3.039292,-46.54688,-2.14824,1006.584
5.201145172,6.389227,-1.452034,-4.212524,0.2324924,0.9163874,0.2874463,3.039292,-46.54688,-2.14824,1006.584
5.233919621,11.04828,-1.983868,-3.479456,0.230508,0.9354121,0.2941614,2.30583,-46.1688,-1.282807,1006.586
5.266694546,7.818005,-2.515702,-1.646786,0.2455526,0.9399578,0.2994139,3.033984,-46.17055,-1.283746,1006.586
5.301990986,7.755884,-1.983868,-0.6082724,0.2465713,0.9169685,0.2840425,3.033984,-46.17055,-1.283746,1006.588
5.334765911,7.321039,-1.629312,-0.05847127,0.2402461,0.9202514,0.2734626,2.684156,-46.89261,-0.836705,1006.588
5.367541313,9.433145,-1.392941,-1.096985,0.2300899,0.9005982,0.2610009,3.048234,-46.89348,-0.8371747,1006.588
5.400316238,13.59524,-2.988444,-2.257676,0.2324787,0.9176878,0.264339,3.048234,-46.89348,-0.8371747,1006.59
5.433091164,14.0922,-4.465761,-2.502032,0.2227396,0.9282845,0.2590511,2.678122,-46.52223,-0.4073229,1006.59
5.468387127,15.64522,-5.647614,-2.929655,0.2309691,0.9370529,0.2493912,3.413661,-46.88332,-0.02957964,1006.591
5.501162052,15.08613,-5.647614,-2.563121,0.2212415,0.9417685,0.2388172,3.051036,-46.87056,0.8411136,1006.59
5.533936978,14.0922,-5.470336,-2.379854,0.2066418,0.9532585,0.2277632,3.051036,-46.87056,0.8411136,1006.59
5.566712380,11.73161,-5.529429,-2.990744,0.2003299,0.9491724,0.2080485,3.045002,-46.50018,1.270495,1006.59
5.602008820,12.6013,-5.824893,-3.540545,0.2265303,0.9541242,0.1882431,2.681651,-46.49336,1.706077,1006.59
5.634783268,8.811936,-4.406668,-2.196587,0.2454327,0.967882,0.1828825,2.681651,-46.49336,1.706077,1006.59
5.667558193,3.158946,-1.865683,-0.05847127,0.2512672,0.9655257,0.1872045,3.046351,-46.48914,2.07856,1006.59
5.700333119,-0.2576963,-0.09290238,0.980042,0.2347809,0.9586768,0.2026575,3.780644,-46.86041,1.710397,1006.59
5.733108521,-0.6925417,0.202561,0.918953,0.2198037,0.9268978,0.2032223,3.780644,-46.86041,1.710397,1006.591
5.768404961,5.02257,-0.5065512,-0.6693614,0.2183341,0.9312288,0.1974429,3.404394,-46.11963,2.507472,1006.593
5.801179886,6.264986,-1.452034,-1.463519,0.2115183,0.9389744,0.1988915,3.409806,-46.49511,1.705137,1006.593
5.833954811,9.308903,-1.747497,-1.707875,0.2352394,0.9713904,0.2093763,3.409806,-46.49511,1.705137,1006.595
5.866729259,-2.92889,2.448083,1.835288,0.2584036,1.041581,0.2597586,4.13931,-46.48581,2.512262,1006.591
5.902025700,-21.44088,3.098103,6.966765,0.27022,0.9750227,0.2694581,3.047805,-46.47725,2.948783,1006.591
5.934801102,-13.36518,0.3798391,7.699834,0.214543,0.9048786,0.2648822,3.047805,-46.47725,2.948783,1006.591
5.967576027,-1.37587,0.2616537,2.751623,0.1851966,1.001835,0.3052401,3.034282,-45.74837,2.937323,1006.591
6.000350952,-42.81043,1.088951,8.249635,0.2010738,1.065342,0.3137712,3.045728,-46.49423,1.705607,1006.591
6.033126354,-48.4013,-1.570219,11.67062,0.187009,0.8427383,0.2568581,3.045728,-46.49423,1.705607,1006.591
6.068421841,-2.680407,-6.770376,5.806074,0.1958243,0.8141838,0.2722838,2.680198,-46.50525,0.8358533,1006.591
6.101196766,6.140744,-12.62055,1.468754,0.2403186,0.8925946,0.2884264,2.657838,-45.42892,-0.4245126,1006.586
6.133972168,2.972584,-15.98883,-2.01332,0.2418727,0.8426052,0.2418059,2.657838,-45.42892,-0.4245126,1006.586
6.166747093,19.49671,-21.54354,-8.488755,0.2321045,0.8648706,0.2336124,2.287622,-45.05851,-0.05681992,1006.586
6.202043533,11.79373,-24.02544,-15.08637,0.2417764,0.8784779,0.217684,2.288349,-45.05257,0.3782916,1006.586
6.234817982,18.44066,-23.07996,-18.14082,0.2055132,0.8073443,0.1875514,2.288349,-45.05257,0.3782916,1006.586
6.267592907,33.10116,-23.67088,-20.34002,0.1705736,1.000329,0.1762721,3.737897,-44.69162,0.370682,1006.586
6.300368309,21.11185,-21.77992,-22.60032,0.2463125,0.9942414,0.1202637,3.733939,-44.30426,2.04324,1006.588
6.333143234,-4.357667,-19.41621,-22.47814,0.2816334,1.057231,0.1711093,3.733939,-44.30426,2.04324,1006.588
6.368439674,-17.83788,-16.81613,-16.49142,0.2391083,0.9595582,0.1140753,4.469582,-44.6645,2.483142,1006.586
6.401214600,8.874058,-16.81613,-16.0027,0.2243054,0.8426114,0.05363512,5.910292,-43.9561,1.226626,1006.586
6.433990002,36.95265,-14.39333,-12.27627,0.2049181,1.04302,0.1106611,7.361917,-43.57817,2.462193,1006.586
6.466764450,17.81945,-13.56603,-10.87123,0.1831583,1.001827,0.09633394,7.361917,-43.57817,2.462193,1006.586
6.502060890,19.80732,-8.956805,-6.778263,0.2437177,1.071926,0.1586617,7.726721,-43.5731,2.896835,1006.586
6.534835816,-12.68185,-3.343,1.652021,0.2791283,1.112075,0.2865594,7.707164,-42.47384,3.314756,1006.58
6.567610741,-29.14386,-0.09290238,17.22972,0.3078172,1.339738,0.4931338,7.707164,-42.47384,3.314756,1006.58
6.600386143,-120.3993,-6.711283,42.82602,0.1084713,1.262756,0.5885509,7.350574,-42.83146,3.756068,1006.582
6.633161068,-81.76015,-29.93471,44.23106,0.08223625,0.8466201,0.520887,6.974026,-42.51285,0.332073,1006.582
6.668456555,-30.51051,-40.09865,45.6972,0.2160659,0.9423036,0.6022568,6.974026,-42.51285,0.332073,1006.58
6.701231957,-42.93467,-46.48066,55.41035,0.1773435,0.8908652,0.6057957,5.885752,-42.8976,-1.339075,1006.58
6.734006882,17.19824,-63.32207,76.05845,0.230738,1.122872,0.7068867,4.786032,-42.53649,-1.778507,1006.58
6.766781807,-40.38772,-80.8135,95.24039,0.1343976,1.214443,0.7536693,4.786032,-42.53649,-1.778507,1006.582
6.802078247,-17.65151,-106.0461,101.6547,0.1047028,1.017042,0.6279204,1.862071,-41.7828,-0.4808729,1006.58
6.834852696,2.165014,-125.0148,100.6162,0.3084693,1.291332,0.6053625,-1.853009,-41.0459,-0.5497148,1006.58
6.867628098,-118.4735,-135.0606,94.38515,0.2690759,1.082432,0.4483655,-1.853009,-41.0459,-0.5497148,1006.58
6.900403023,-72.06931,-151.3702,77.9522,0.3605212,0.7730085,0.246443,-4.763448,-41.02109,0.7593791,1006.58
6.933177948,-54.61338,-158.5795,64.57371,0.3543163,0.9246442,0.2077202,-8.413059,-40.66491,-0.4848282,1006.579
6.968474388,-82.07076,-167.2661,52.29482,0.220891,0.6418203,0.03902363,-8.413059,-40.66491,-0.4848282,1006.579
7.001249790,-23.42875,-162.6569,40.56572,0.2451991,0.6243023,0.01203613,-10.98126,-39.56039,-0.1257763,1006.579
7.034024715,-60.82545,-157.4567,28.83663,0.2231497,0.6927354,-0.06599532,-13.22495,-39.54313,0.7473447,1006.579
7.066799164,-74.49203,-159.9386,8.066368,0.2856542,0.5103409,-0.245898,-13.22495,-39.54313,0.7473447,1006.573
7.102095604,-63.18604,-156.5112,-9.954892,0.3986501,0.5560461,-0.3227714,-14.71361,-37.70557,1.590797,1006.571
7.134870529,-76.97685,-149.0065,-19.9124,0.4818081,0.5036495,-0.323371,-14.34819,-37.6954,2.398392,1006.569
7.167645931,-64.8633,-143.4518,-29.01467,0.3648126,0.4808589,-0.3784158,-14.34819,-37.6954,2.398392,1006.568
7.200420857,-23.55299,-137.6607,-36.10099,0.4409214,0.5194377,-0.455191,-12.82371,-38.05753,2.837276,1006.566
7.233195782,6.699831,-130.0377,-15.51399,0.379753,0.7206642,-0.4404269,-11.35461,-38.79584,2.411745,1006.566
7.268491745,-27.4666,-108.7643,-7.511331,0.3689298,0.7704005,-0.4890938,-11.35461,-38.79584,2.411745,1006.564
7.301266670,-37.59228,-102.7369,-5.434305,0.4865053,0.724961,-0.5812442,-8.802639,-38.77393,4.459696,1006.568
7.334041596,-11.56368,-89.55922,-2.990744,0.5877132,0.8311076,-0.6370009,-7.690745,-39.87495,4.102524,1006.567
7.366816998,-39.58015,-81.5817,-9.893803,0.5478604,0.8494028,-0.6196049,-7.690745,-39.87495,4.102524,1006.567
7.402113438,-6.96674,-77.44521,-23.76101,0.6291618,0.9442936,-0.7292098,-6.247958,-39.14957,4.089184,1006.567
7.434888363,-40.9468,-67.28127,-23.39448,0.5684121,0.9889168,-0.6126435,-4.78551,-39.52259,3.720082,1006.567
7.467662811,-71.94507,-53.80815,-5.73975,0.5244678,1.10497,-0.5400286,-3.337415,-39.17353,2.842249,1006.567
7.500437737,-81.76015,-43.99877,27.18723,0.5264532,0.8824078,-0.5401791,-3.337415,-39.17353,2.842249,1006.567
7.533213139,-71.82083,-31.5893,49.11819,0.5050669,1.127379,-0.375872,-2.242678,-39.57539,0.2980583,1006.565
7.568509579,-192.77,-19.59349,53.94422,0.7773919,0.9349707,-0.4970497,-2.967601,-39.96696,-1.808672,1006.565
7.601284504,-248.306,0.7343951,65.36787,0.7390742,1.146948,-0.3644224,-2.967601,-39.96696,-1.808672,1006.565
7.634059429,-355.7749,5.69818,72.57637,0.5244836,0.9274327,-0.3664708,-5.168689,-39.67795,-7.716669,1006.565
7.702130318,-35.10745,-19.29802,17.3519,0.3518157,0.2628123,-0.2013965,-7.417507,-37.26091,-17.94801,1006.563
7.734905720,9.433145,-14.6888,-15.69726,0.5418179,0.4474943,0.003897286,-10.06504,-32.5379,-23.98741,1006.569
7.767680645,-28.77113,-7.715858,-35.24575,0.4201864,0.3225265,-0.1010441,-11.92527,-30.34097,-23.58433,1006.569
7.800455570,-0.009213155,-2.456609,-43.55385,0.3916483,0.2735011,-0.1129366,-11.92527,-30.34097,-23.58433,1006.567
7.833230972,154.1124,4.870883,-3.723812,0.5250883,1.333378,-0.1225523,-11.54974,-31.0877,-24.81651,1006.565
7.868526459,-281.4785,22.59869,37.9389,0.4840561,0.6352277,-0.0347576,-11.16331,-32.1649,-23.55662,1006.565
7.901301861,20.24216,9.302834,-6.96153,0.6613498,0.4482653,0.1812351,-11.16331,-32.1649,-23.55662,1006.564
7.934076786,0.1771492,2.802639,-4.579059,0.776066,1.491128,0.549077,-10.46249,-31.13108,-27.80155,1006.564
7.966851711,-53.80581,1.857156,18.08496,0.7729012,1.374034,0.4534701,-10.13222,-29.30977,-27.83067,1006.564
8.002148151,5.146811,-7.952229,11.05973,0.6335419,0.6798495,0.0389503,-10.13222,-29.30977,-27.83067,1006.564
8.034923077,27.94514,-7.184024,9.104881,0.466565,1.101632,0.2404012,-9.035305,-29.6938,-29.06952,1006.562
8.067697525,-73.87082,-7.774951,18.63477,0.5607811,0.6879869,0.2460962,-10.50379,-28.9504,-28.27104,1006.56
8.100472927,-49.14675,-0.8020146,19.0013,0.6382054,0.1844333,0.2298238,-10.50379,-28.9504,-28.27104,1006.56
8.133247852,20.18004,-3.874834,8.55508,0.6921936,0.3236692,0.08652146,-10.8767,-28.60207,-29.51947,1006.561
8.168544292,30.74057,-1.629312,-4.029257,0.48114,0.894286,0.2421232,-11.63866,-26.77814,-29.54718,1006.561
8.201319218,-6.221291,-6.65219,5.317362,0.8825123,1.186578,0.2595038,-11.63866,-26.77814,-29.54718,1006.56
8.234094620,-57.84365,5.107254,26.2098,0.7558544,0.9558708,0.2933659,-11.62587,-27.51296,-29.97083,1006.563
8.266869545,53.78738,1.916249,21.07833,0.7789955,0.5498882,-0.054583,-11.61911,-27.8774,-29.96511,1006.563
8.302165508,-9.016726,8.830092,13.74765,0.7836466,0.8437303,-0.03770788,-11.61911,-27.8774,-29.96511,1006.563
8.334940434,-33.86504,16.74851,9.471416,0.7372084,0.5566744,-0.07904357,-12.38034,-26.04752,-29.5577,1006.563
8.367715359,-35.5423,18.93494,0.5524189,0.5964289,0.5666612,0.05557522,-12.73838,-26.41703,-29.98662,1006.561
8.400490761,-22.43481,22.83506,-5.006681,0.5928045,0.2479353,0.03103338,-12.73838,-26.41703,-29.98662,1006.56
8.433265686,76.33722,34.41722,-6.35064,0.4675517,0.4583926,0.1195838,-12.0123,-26.43576,-31.23073,1006.56
8.468561649,133.4262,39.4401,-13.00934,0.4115307,0.7182539,0.01535091,-11.29778,-25.70948,-31.30529,1006.56
8.501336575,6.513469,36.89912,-25.71586,0.4167262,0.8266479,0.2582629,-9.77636,-28.95809,-28.70709,1006.56
8.534111500,-70.5163,35.18543,-30.4808,0.6866242,0.5079759,0.5430692,-9.77636,-28.95809,-28.70709,1006.56
8.566886902,60.31006,23.66236,-31.64149,0.6095466,0.8775387,0.621157,-8.280106,-31.1533,-29.04754,1006.56
8.602182865,-85.86012,25.13967,-10.68796,0.7362441,0.9184521,0.7493184,-6.480001,-30.06435,-29.06708,1006.56
8.634958267,-64.67694,13.26204,9.043792,0.4942418,0.8165034,0.8776069,-6.480001,-30.06435,-29.06708,1006.56
8.667732716,-38.46198,0.8525805,1.041131,0.51534,0.4473209,0.501207,-5.025146,-30.07973,-29.93918,1006.56
8.700507641,5.271053,-3.815742,-1.463519,0.4404142,1.122719,0.5027736,-4.326838,-28.64665,-31.64133,1006.564
8.733282566,-73.74657,4.81179,17.71843,0.6291234,0.7361394,0.2246816,-4.326838,-28.64665,-31.64133,1006.56
8.768579006,7.072556,0.4980244,10.63211,0.5159069,0.7445624,0.1012274,-3.606898,-28.29585,-32.51822,1006.558
8.801354408,30.98906,7.648239,19.12348,0.4844503,0.9166656,0.1645824,-3.998021,-26.83722,-32.54067,1006.56
8.834129334,41.73595,1.679878,19.30675,0.592387,0.6884362,0.3427742,-3.998021,-26.83722,-32.54067,1006.56
8.866903782,5.395295,0.6753024,11.48735,0.6301063,0.5777432,0.4882228,-3.997294,-26.83128,-32.10556,1006.558
8.902200222,105.7204,2.15262,8.616169,0.6813585,0.8429681,0.325964,-4.69695,-28.2754,-31.21148,1006.558
8.934975147,-15.47729,6.820941,6.783499,0.5228891,0.7298299,0.4256709,-4.69695,-28.2754,-31.21148,1006.558
8.967750549,-0.8167832,-2.811166,9.104881,0.5610709,0.6026119,0.4353993,-4.680625,-28.98134,-29.52173,1006.558
9.000525475,33.2254,-9.902288,2.812712,0.5747139,0.6322604,0.690444,-4.310513,-29.3526,-29.95158,1006.558
9.033300400,9.371023,-18.05708,-9.588358,0.6113062,0.7231699,0.4822719,-4.310513,-29.3526,-29.95158,1006.558
9.068596363,30.55421,-14.21605,4.401027,0.6336635,0.8777323,0.2697054,-5.381008,-30.4314,-29.06276,1006.558
9.101371288,-17.27879,-3.756649,17.3519,0.6501406,1.065255,0.111497,-5.001332,-31.14417,-27.80859,1006.558
9.134146690,-11.12883,-0.9792926,16.61883,0.53177,0.7916815,-0.005743507,-5.001332,-31.14417,-27.80859,1006.554
9.166921616,6.327106,-3.874834,7.94419,0.53261,0.6724681,0.1494326,-5.744359,-30.42459,-28.62718,1006.554
9.202218056,-25.41661,-2.752073,-1.891142,0.6309153,0.5863196,0.1796551,-6.107813,-30.41862,-28.25376,1006.554
9.234992981,-2.92889,11.72563,-16.0027,0.5929504,0.2194085,0.2009967,-6.107813,-30.41862,-28.25376,1006.552
9.267767429,28.93907,6.880034,-21.43963,0.7160628,0.5791381,0.5154545,-6.452957,-31.5221,-29.04416,1006.552
9.300542355,-18.5212,10.07104,-11.66538,0.6242491,0.8191635,0.6135083,-6.107813,-30.41862,-28.25376,1006.554
9.333317757,-31.87717,4.929976,-6.106284,0.601593,0.4947528,0.354597,-6.107813,-30.41862,-28.25376,1006.56
9.368614197,47.88591,-2.102053,-14.9031,0.5225242,0.6220921,0.1312408,-5.024419,-30.07378,-29.50407,1006.56
9.401389122,26.88908,-4.111205,-9.527268,0.7661504,0.8645552,0.03643194,-5.388496,-30.07291,-29.5036,1006.557
9.434164047,-15.16668,0.3798391,3.484692,0.6465405,0.9539984,0.1554772,-5.388496,-30.07291,-29.5036,1006.557
9.466938496,-27.40448,0.4389318,4.706472,0.6525531,0.7069351,0.3392341,-4.651504,-30.42211,-28.25564,1006.559
9.502234936,37.26325,-13.92059,-10.56578,0.3995573,0.715703,0.3634077,-3.917315,-30.79424,-28.68596,1006.559
9.535010338,61.9252,-10.96596,-0.7915395,0.6565558,1.058838,0.3016294,-4.300949,-29.69411,-28.26756,1006.559
9.567785263,-38.46198,-3.99302,10.02122,0.5888169,0.759984,0.3402681,-4.300949,-29.69411,-28.26756,1006.559
9.600560188,8.31497,-10.90686,-9.282913,0.6504875,0.5362896,0.2456307,-3.88809,-32.23415,-27.3577,1006.561
9.633335591,68.51,-8.484064,-9.527268,0.7244459,0.8701116,0.1852632,-4.285973,-30.41109,-27.38588,1006.561
9.668631077,12.6013,-5.943078,-1.707875,0.5762894,0.9033227,0.236589,-4.285973,-30.41109,-27.38588,1006.561
9.701406479,47.69954,-8.83862,2.873801,0.6666204,0.8740076,0.1146344,-3.892775,-31.85273,-26.12026,1006.561
9.734181404,10.98616,-6.061264,4.645383,0.6508165,0.7732551,0.07294523,-4.612715,-32.20354,-25.24336,1006.559
9.766956330,43.9723,-4.288483,7.760923,0.7414872,0.8204626,0.02885511,-4.612715,-32.20354,-25.24336,1006.559
9.799731732,18.81338,-1.215663,9.043792,0.5580011,0.8072209,0.09621954,-5.32662,-32.92472,-24.79585,1006.559
9.835027218,46.64349,-2.811166,7.699834,0.6877676,0.728343,-0.05656103,-5.303534,-33.99511,-23.10037,1006.557
9.867802143,39.93445,2.920825,14.78616,0.6512734,0.9829273,0.03748873,-5.303534,-33.99511,-23.10037,1006.559
9.900577545,-14.6076,12.08019,7.150033,0.7204388,0.4443807,-0.1683678,-6.386202,-34.334,-21.41495,1006.559
9.933352470,67.95092,13.85297,-6.228462,0.6678813,0.7335728,0.01905205,-5.637363,-35.49574,-21.83285,1006.557
9.968648911,95.96738,1.561693,-14.10894,0.7315051,0.7211964,-0.01621961,-5.637363,-35.49574,-21.83285,1006.557
10.001423836,94.228,1.975342,-15.4529,0.6958709,0.9775808,-0.1546723,-7.089817,-35.39075,-18.8483,1006.555
10.034199238,55.0298,14.08934,-13.00934,0.7309639,0.7208223,-0.1394464,-6.677608,-37.58634,-14.95959,1006.555
10.066973686,14.46493,19.40768,-1.341341,0.7388738,0.6968306,0.04300713,-6.677608,-37.58634,-14.95959,1006.555
10.099748611,-38.21349,30.87166,-14.29221,0.5454858,0.07794201,-0.2646357,-6.289717,-38.65165,-12.82947,1006.555
10.135045052,106.3416,20.58954,-29.07575,0.3792061,0.8995459,0.3506635,-6.290444,-38.6576,-13.26458,1006.554
10.167819977,10.42708,13.91206,-25.53259,0.4265975,0.7509353,0.2145497,-6.290444,-38.6576,-13.26458,1006.554
10.200595379,-13.17882,18.87585,-19.05716,0.3126388,0.8927362,0.2218267,-6.279427,-38.98722,-10.71034,1006.549
10.233370304,-29.95143,12.0211,-3.784901,0.1058933,0.8669153,0.3292183,-5.901826,-39.71696,-10.69935,1006.549
10.268666267,-15.35305,10.48469,9.043792,0.3579182,0.6490334,0.281294,-5.901826,-39.71696,-10.69935,1006.552
10.301441193,-27.28023,-1.983868,3.60687,0.4081362,0.5480871,0.2023838,-4.453732,-39.3679,-11.57719,1006.552
10.334216118,18.37854,-6.534005,-11.29885,0.3718485,0.9165091,0.2774884,-5.560213,-38.64236,-12.02235,1006.552
10.366991520,-34.98321,-3.224814,-17.77429,0.5255744,0.9803435,0.1672771,-5.560213,-38.64236,-12.02235,1006.55
10.399766445,-47.59373,-7.53858,-17.83538,0.6850381,0.8776727,0.05922855,-4.468604,-38.65007,-12.39671,1006.55
10.435061932,-36.78471,9.184649,-5.006681,0.6291259,1.317027,0.06254988,-4.113467,-38.30434,-13.70824,1006.55
10.467837334,-25.54085,2.507176,0.1858848,0.7407873,1.314628,0.003562522,-4.113467,-38.30434,-13.70824,1006.55
10.500612259,-27.4666,-4.702132,17.53516,0.8062539,1.130999,-0.07718477,-3.759681,-37.96965,-15.82784,1006.55
10.533387661,12.16646,-0.8020146,25.96545,0.7021288,1.017699,-0.06617709,-3.416615,-36.88315,-16.28062,1006.546
10.568683624,16.32855,-2.633888,27.24832,0.6897239,0.7240328,-0.04837602,-3.418691,-36.90014,-17.52379,1006.548
10.634233475,-9.575813,1.384415,23.64407,0.5252749,0.6645243,-0.003611006,-4.508846,-36.88053,-16.27921,1006.548
10.667008400,10.7998,11.72563,28.34792,0.6637137,0.8750979,0.1348568,-5.586102,-37.5949,-15.39611,1006.548
10.699783325,-81.94652,8.534629,20.28417,0.6790435,0.363856,0.2082766,-5.586102,-37.5949,-15.39611,1006.546
10.735079765,75.77814,-8.011322,3.912315,0.6411014,0.5917921,0.183955,-6.686549,-37.23973,-16.27066,1006.546
10.767855168,13.7816,-10.19775,-0.9748065,0.7334002,0.5790591,0.2030097,-7.050627,-37.23886,-16.27019,1006.546
10.800630093,69.13121,-16.52067,-7.511331,0.6546614,0.807018,0.1609744,-7.050627,-37.23886,-16.27019,1006.546
10.833405018,25.64667,-9.547732,-8.122221,0.9133174,0.8436757,0.008676734,-7.769114,-37.57778,-14.52307,1006.546
10.868700981,1.295323,5.225439,-13.43697,0.375631,1.168506,0.3011677,-8.116139,-38.27691,-12.39774,1006.546
10.901475906,31.54814,-9.429546,-3.601634,0.3470124,0.6823177,-0.03209672,-8.116139,-38.27691,-12.39774,1006.546
10.934251308,41.86019,10.95743,12.28151,0.4835562,1.294658,0.1726793,-7.743951,-38.63118,-11.58442,1006.549
10.967026234,-84.36922,21.18046,21.32268,0.4690419,0.4569086,0.1845664,-6.999367,-39.33802,-9.833449,1006.549
10.999801159,44.46926,-6.888561,8.005279,0.2697713,0.5407084,0.2181267,-6.999367,-39.33802,-9.833449,1006.549
11.035097122,-50.57552,-2.279331,7.760923,0.5204042,0.4374581,-0.1529607,-7.358862,-39.71942,-11.13258,1006.551
11.067872047,37.13901,-3.224814,7.088943,0.6058463,0.4656774,-0.04971314,-7.710145,-40.45336,-11.55577,1006.549
11.100647450,-23.05602,-12.44327,5.806074,0.6484821,0.6832617,-0.1887744,-7.710145,-40.45336,-11.55577,1006.549
11.133422375,-5.3516,-6.120356,-2.62421,0.8166007,0.778832,-0.5151991,-6.987298,-40.07878,-10.69221,1006.549
11.168718815,-17.71363,0.2616537,-3.601634,0.707109,0.9201711,-0.2995023,-6.638922,-39.36861,-12.00948,1006.549
11.201493263,8.31497,-1.80659,-3.418367,0.7353842,0.7009342,-0.1331692,-6.638922,-39.36861,-12.00948,1006.549
11.234268189,-2.059199,5.993644,-0.3028273,0.7155328,0.9178441,0.05620752,-6.645684,-39.00418,-12.01521,1006.551
11.267043114,-72.6284,11.90291,11.05973,0.7745104,0.8334394,0.104331,-7.003623,-39.37284,-12.38196,1006.553
11.299818516,-82.195,19.58496,4.584294,0.72575,0.5197327,0.1554625,-7.003623,-39.37284,-12.38196,1006.553
11.335114956,-37.09532,2.448083,-5.984106,0.4013999,0.758611,0.3681523,-7.020675,-38.67284,-14.50682,1006.553
11.367889881,-19.26665,-1.333849,3.851226,0.6073641,0.9429628,0.436702,-7.407942,-37.60242,-16.26399,1006.553
11.400664806,-79.39957,0.7343951,12.83131,0.6434652,0.638296,0.2849652,-7.407942,-37.60242,-16.26399,1006.553
11.433439255,-8.768243,-3.224814,8.738347,0.6348787,0.5744562,0.2898954,-8.151697,-36.88879,-17.51768,1006.553
11.468735695,24.52849,-7.893137,1.529843,0.6880899,0.8131818,0.02658592,-8.524716,-36.54131,-18.82828,1006.553
11.501511097,-79.95865,1.916249,12.15933,0.7977124,0.8840185,0.1359696,-8.524716,-36.54131,-18.82828,1006.553
11.534286022,5.954382,1.443507,9.16597,0.6545594,0.8337089,0.07717749,-8.537512,-35.80649,-18.40463,1006.553
11.567060948,-8.271277,-5.706707,8.799437,0.6828414,0.8105536,0.2152961,-8.184852,-35.41106,-20.52518,1006.553
11.599836350,11.85585,-11.49779,4.523205,0.5831847,0.6508378,0.1998883,-8.184852,-35.41106,-20.52518,1006.555
11.635131836,-15.47729,-13.62513,7.516567,0.6904442,0.8812606,0.2185411,-8.555691,-35.04575,-20.53044,1006.555
11.667907238,-65.60875,-11.4387,16.98536,0.7535012,0.4690866,0.05294292,-8.554237,-35.03386,-19.66022,1006.555
11.700682163,-9.078847,-6.120356,-1.585697,0.7384367,0.4682698,0.02361682,-9.278537,-35.42033,-21.394,1006.555
11.733457089,10.86192,-8.779528,-10.62687,0.8944513,0.8203848,0.04389599,-9.278537,-35.42033,-21.394,1006.556
11.768753529,-40.9468,-10.37503,-1.585697,0.8673826,0.7700545,0.05270056,-9.29206,-34.69146,-21.40546,1006.558
11.801527977,-8.209156,-11.02505,-3.601634,0.8526815,0.6410662,0.151609,-9.292683,-34.69655,-21.77841,1006.558
11.834302902,30.92693,-12.50237,4.523205,0.7071286,0.8700015,0.5405495,-9.292683,-34.69655,-21.77841,1006.56
11.867078304,13.71948,-13.21148,6.111519,0.5645022,0.6031492,0.5085573,-10.02698,-34.32528,-21.41025,1006.56
11.899853229,74.10088,-11.02505,15.39705,0.6878188,0.3755944,0.3449448,-11.09634,-35.46482,-20.52047,1006.562
11.935149670,-37.15744,-7.361302,9.593594,0.6733595,0.7292011,0.2943846,-11.09634,-35.46482,-20.52047,1006.562
11.967924595,-54.73762,0.6162097,-10.01598,0.4968082,0.1943619,0.07658982,-11.43661,-36.52839,-18.38941,1006.56
12.000699043,44.2829,-14.74789,-22.23379,0.5769591,0.3859522,0.07659231,-11.81628,-35.81562,-19.64357,1006.56
12.033474445,84.3508,-7.53858,-30.54189,0.6572331,0.6683488,-0.2426852,-11.81628,-35.81562,-19.64357,1006.56
12.068770885,33.53601,-4.997595,-18.75171,0.6526135,1.047289,0.1163319,-10.6914,-37.23014,-16.26549,1006.56
12.101545811,32.97692,-1.983868,-4.456881,0.6678161,1.15885,-0.03790809,-8.47491,-38.65236,-13.26176,1006.56
12.134320736,-6.034928,-0.8611073,4.889739,0.5114099,0.9546724,-0.1455358,-8.47491,-38.65236,-13.26176,1006.562
12.167096138,-32.37414,7.175498,17.04645,0.5659679,0.5017568,0.003758222,-7.731155,-39.366,-12.00807,1006.562
12.199871063,-46.41343,15.09392,8.738347,0.5359557,0.7055089,0.2042502,-8.104071,-39.01767,-13.2565,1006.562
12.235167027,-101.6388,16.63033,-4.395792,0.7891051,-0.02466662,-0.04459515,-8.104071,-39.01767,-13.2565,1006.562
12.267941952,19.43459,23.78054,8.799437,0.7286546,1.788921,0.356196,-8.842517,-38.68036,-15.37469,1006.56
12.300716877,-322.6646,41.0947,25.84327,0.7632286,0.270415,0.1172404,-8.138175,-37.61766,-17.50622,1006.562
12.333492279,55.15404,-5.411244,12.3426,0.6733448,0.578969,0.5425123,-8.138175,-37.61766,-17.50622,1006.562
12.368787766,-105.7388,16.80761,31.34128,0.7108412,0.93402,0.4971216,-7.833141,-35.09335,-23.88796,1006.562
12.401562691,-200.8457,33.35355,15.03052,0.6874613,-0.3957255,-0.1930169,-8.224368,-33.63558,-23.97257,1006.562
12.434338093,4.836208,-5.529429,47.10225,0.5463769,0.4843434,0.6050518,-8.224368,-33.63558,-23.97257,1006.565
12.467113018,-154.7521,8.534629,93.591,0.4181775,0.288163,0.6330891,-8.670501,-29.68873,-28.63488,1006.565
12.499888420,88.57501,26.79427,80.82339,0.9021097,0.1560632,0.5955569,-9.047479,-28.95389,-28.27292,1006.565
12.535184384,-196.0003,40.32649,179.1767,-0.06234509,1.640757,0.6620347,-9.047479,-28.95389,-28.27292,1006.567
12.567959786,-395.0352,42.09927,131.4051,0.391508,-1.270768,-1.003535,-9.472406,-25.67308,-28.32402,1006.567
12.600734234,475.5874,-111.3053,137.6973,0.1484301,1.613822,0.5975542,-11.30193,-25.74344,-33.79164,1006.567
12.633509159,-43.9286,-63.32207,51.37848,-1.26109,-0.6867579,-0.4806246,-11.30193,-25.74344,-33.79164,1006.565
12.668805599,347.805,-78.03614,-173.368,-0.9887031,-1.363191,-2.970335,-12.56755,-16.17586,-31.82677,1006.567
12.701580525,639.6484,-156.0385,-268.4836,-2.3724,1.778267,-1.090145,-16.26224,-16.53142,-31.81626,1006.567
12.734355927,-131.5189,6.407292,-505.1424,-0.9803302,-0.7213088,-2.565535,-17.16667,-25.55612,-21.10365,1006.567
12.767130852,182.6259,296.7296,-660.3696,-1.922174,-0.782216,-1.436823,-17.16667,-25.55612,-21.10365,1006.563
12.799905300,325.1309,331.6534,-790.1227,-2.92385,1.059393,-0.2169704,-8.554535,-35.45604,-23.88129,1006.553
12.835201740,-2035.272,-213.6539,2.446178,2.159479,13.54813,2.641765,19.28751,-36.85603,-10.34266,1006.528
12.867976665,24.40425,-168.9207,240.7544,-0.09295608,-1.934409,-0.9532493,19.28751,-36.85603,-10.34266,1006.541
12.900752068,-44.98465,-22.84358,147.7769,-2.687847,0.9885019,2.612984,29.35988,-29.06888,-30.00078,1006.548
12.933526993,262.6374,-53.92634,199.7026,-0.02590564,2.637439,0.5762078,20.93001,-29.43093,-31.2895,1006.548
12.968822479,-60.82545,-8.661342,-40.4994,0.1223639,0.0487032,0.2418418,20.93001,-29.43093,-31.2895,1006.555
13.001597881,174.3017,-9.311361,-53.02265,0.2654043,1.674168,0.8003205,15.96822,-36.35706,-27.75436,1006.562
13.034372807,488.1979,11.72563,4.584294,-0.06375948,1.572198,0.3997992,14.08996,-36.32962,-26.07364,1006.569
13.099923134,-17.40303,-269.0237,-18.14082,-0.597979,2.155729,1.120304,15.71362,-40.49761,-10.71577,1006.575
13.135219574,-354.5325,-277.7103,-159.3175,-0.1740989,0.6890352,-1.241496,14.30188,-45.50949,-4.293395,1006.58
13.167994022,-443.6758,-375.9224,-133.1104,-0.554348,0.728027,-1.130421,14.30188,-45.50949,-4.293395,1006.585
13.200768948,-372.1748,-266.3645,-224.2552,-0.760062,0.5763579,-1.542231,15.74538,-43.17604,-19.99948,1006.588
13.233543873,-163.6353,-292.779,-480.2792,-1.461786,1.671897,-1.3025,15.19279,-34.99306,-39.21451,1006.592
13.268840313,-205.7532,-200.0625,-398.0534,-0.6246771,1.174671,-0.7617226,15.19279,-34.99306,-39.21451,1006.592
13.301615715,98.63858,-137.6016,-417.663,-1.237222,1.682506,0.303737,11.57107,-20.45129,-47.0859,1006.591
13.334390640,-424.7911,-109.8871,-421.7559,-0.7227013,2.533526,0.05814638,6.653436,-10.61713,-48.47767,1006.595
13.367165089,-668.4287,70.64104,-354.1304,-0.005155236,1.116254,-0.1715104,6.653436,-10.61713,-48.47767,1006.6
13.399940014,-583.199,187.4082,-263.5354,-0.2264796,0.2355052,-0.2813339,4.043643,-7.264401,-48.0918,1006.602
13.435236454,-452,200.1131,-183.0201,-0.7180926,0.4154034,0.1956278,3.585527,18.44024,-38.73492,1006.605
13.468011856,-466.5363,159.9892,-60.41442,-0.4122983,0.2161599,-0.03825768,3.585527,18.44024,-38.73492,1006.605
13.500786781,-376.5854,135.4657,41.35988,-0.3663816,-0.1893446,-0.4849405,3.993491,37.36618,-22.93087,1006.605
13.533561707,-200.5351,74.65935,51.07304,-0.6389429,-0.7900986,-0.7510257,4.978735,44.88327,-6.13968,1006.607
13.568857670,246.7345,-79.80892,34.45682,-0.6859836,-1.182517,-0.5346726,4.978735,44.88327,-6.13968,1006.604
13.601632595,-208.7971,-188.3622,-21.98943,-0.8342196,-3.803668,2.53109,8.264138,45.36637,3.112025,1006.604
13.634407997,353.458,90.85074,-201.1635,-0.702898,-5.228219,-1.193295,11.18125,44.55664,-2.288091,1006.604
13.667182923,1494.617,-185.9394,103.915,-1.544826,2.252942,-1.482245,11.18125,44.55664,-2.288091,1006.606
13.699957848,-40.3256,-204.0217,128.9004,0.303977,0.5549928,0.7605187,7.869021,45.11336,-15.47299,1006.608
13.735254288,-74.18142,-130.865,50.46214,-0.2711768,-0.6481302,0.3824577,4.510404,27.63221,-37.20224,1006.609
13.768028736,176.2274,-226.2406,53.69986,-0.677518,-0.314409,0.1845974,1.599134,27.65023,-36.39042,1006.608
13.800803662,117.1506,-262.5826,71.23241,-0.4152459,0.2873357,0.2552727,1.599134,27.65023,-36.39042,1006.608
13.833579064,-37.59228,-259.628,59.50332,-0.4583392,0.2009904,0.07691984,-3.15824,25.44029,-38.89837,1006.606
13.868875504,-87.53738,-276.8239,27.06505,-0.5244383,-0.2035934,-0.03254544,-9.64184,21.82945,-37.52727,1006.606
13.901650429,-57.6573,-318.3661,-25.04388,-0.5143807,-0.3703484,-0.1415871,-9.64184,21.82945,-37.52727,1006.606
13.934425354,-32.00141,-372.6132,-104.3985,-0.2195502,-0.4270858,-0.2505073,-17.00936,23.73887,-32.44942,1006.604
13.967199802,-2.494044,-407.7733,-210.5101,0.2021848,-0.3209816,-0.2073822,-25.39606,25.33216,-24.00794,1006.604
13.999975204,-356.3961,-499.3079,-205.0732,8.51062,-2.210139,1.021523,-25.39606,25.33216,-24.00794,1006.604
14.035271645,-565.9916,662.3361,-267.1396,3.927465,-0.9347599,1.742887,-35.54715,21.16861,-10.37533,1006.606
14.068046570,-111.8887,-54.93091,-129.9337,-1.241007,-1.196511,0.4317952,-40.89547,15.31884,-8.162242,1006.608
14.100821495,-183.017,-56.88097,-219.8568,-0.1661168,0.5914894,0.8308948,-40.89547,15.31884,-8.162242,1006.609
14.133596897,-252.2196,-64.85847,-266.5287,-0.1951379,0.3293078,-0.2772174,-40.50434,13.86022,-8.139792,1006.609
14.166371346,-112.1372,-8.543157,-220.2844,-0.04078898,-0.4825571,-0.3880357,-42.98012,6.982926,-5.043931,1006.609
14.201667786,276.7388,-41.81234,-265.0015,-0.2173489,-1.192793,-0.4746357,-42.98012,6.982926,-5.043931,1006.609
14.234442711,560.4445,-133.9378,-253.5168,-0.2228139,-0.7725211,-0.6846485,-43.56974,-0.3469758,-3.622102,1006.607
14.267217636,617.5956,-175.1845,-197.5593,0.007404324,0.1137442,-0.212389,-41.55374,-10.15423,3.679477,1006.605
14.299993038,306.3704,-192.3805,-200.7359,0.2978399,0.403608,0.3597871,-41.55374,-10.15423,3.679477,1006.605
14.335288525,173.6184,-226.3588,-237.5115,0.9134338,0.3681772,-0.08254698,-38.08555,-15.80811,17.31747,1006.605
14.368063450,154.7958,-256.3779,-272.3933,-0.1710843,1.531166,0.1613602,-30.79665,-15.34564,25.75594,1006.607
14.400838852,-181.8367,-319.0752,-319.9816,-1.146042,1.605807,-0.3298357,-30.79665,-15.34564,25.75594,1006.609
14.433613777,-54.6755,-414.2735,-312.2233,-1.08391,1.185221,-1.494245,-22.33808,-16.00812,32.09671,1006.611
14.466388703,591.567,-446.6563,-342.5235,1.142328,2.398756,-6.087769,-7.61238,-21.57556,31.7918,1006.611
14.501685143,-14.17275,167.9667,127.3121,-0.00742265,2.541972,-3.019946,-7.61238,-21.57556,31.7918,1006.614
14.534459591,124.3566,138.8931,55.65471,-0.158402,-0.01549131,-1.368513,9.926089,-21.60061,33.01234,1006.614
14.567234993,44.09654,99.83282,96.03455,-0.2328104,1.109488,-0.03040257,10.18835,-16.06825,33.36008,1006.616
14.600009918,-240.7272,83.46416,75.93627,0.05744256,0.3403303,-0.04629804,10.18835,-16.06825,33.36008,1006.617
14.635306358,-117.9144,29.92618,50.88977,0.2723097,0.02977554,-0.06896362,4.36664,-16.02541,35.481,1006.621
14.668081284,-19.51514,-40.98504,16.67992,0.5044174,0.412645,-0.2000589,0.3765344,-20.43562,32.13626,1006.621
14.700856686,-25.04389,-40.74867,-17.1634,0.3426752,0.5913571,-0.4305168,0.3765344,-20.43562,32.13626,1006.621
14.733631134,-18.76969,-56.05367,-50.88453,0.2315437,0.3621103,-0.4154669,-1.727017,-24.8754,31.40073,1006.618
14.766406059,110.5658,-80.28167,-84.23914,0.1285038,0.1899863,-0.4602111,0.4492321,-24.52809,30.52196,1006.62
14.801702500,204.6166,-129.3877,-117.8992,-0.1350047,2.031738,-1.158411,3.417846,-24.15379,31.75557,1006.622
14.834477425,-2.618286,-89.08648,-45.32543,0.1452875,0.6292366,-1.820278,3.417846,-24.15379,31.75557,1006.622
14.867252827,43.22685,-13.56603,-9.282913,0.1273991,0.7995462,-0.7701614,8.057247,-18.98445,32.97363,1006.622
14.900027752,32.04511,41.68562,52.47808,-0.002390493,0.6790555,-0.6416298,11.64466,-16.07174,33.3582,1006.625
14.935323238,50.99194,36.72184,41.72641,0.05343845,0.6879315,-0.6230024,11.64466,-16.07174,33.3582,1006.627
14.968098640,33.59813,17.75309,14.84725,0.1346963,0.6083942,-0.6721742,10.91119,-15.69367,34.22363,1006.627
15.000873566,22.91335,0.6753024,2.446178,0.08699618,0.6415634,-0.7476848,8.702489,-14.20776,35.88182,1006.629
15.033648491,2.475618,-9.902288,-6.839352,0.1491918,0.6255799,-0.7396251,8.702489,-14.20776,35.88182,1006.629
15.066423893,-15.16668,-11.49779,-10.13816,0.1418097,0.6613548,-0.7690247,8.324889,-13.47801,35.87083,1006.629
15.101719379,-11.99852,-5.647614,-4.762326,0.1218564,0.6817009,-0.7608248,9.052316,-13.4857,35.43478,1006.631
15.134494782,-7.339465,3.629937,1.285487,0.1180317,0.6608836,-0.7381603,9.052316,-13.4857,35.43478,1006.631
15.167269707,1.357444,5.639088,2.99598,0.1209965,0.6460546,-0.7030056,9.051589,-13.49164,34.99966,1006.632
15.200044632,3.718033,1.679878,1.10222,0.1311792,0.6479371,-0.7246939,9.059077,-13.85014,35.44051,1006.634
15.235341072,-0.1955755,-0.5065512,-0.4860944,0.1335964,0.6498116,-0.7381805,9.059077,-13.85014,35.44051,1006.634
15.268116474,-1.810716,-0.9202,-0.7304505,0.1272668,0.6575715,-0.7352891,9.429916,-14.21545,35.44577,1006.634
15.300890923,1.108961,-0.3292731,-0.3639164,0.125795,0.6643944,-0.7328891,9.058351,-13.85608,35.00539,1006.634
15.333665848,3.345309,-0.2110877,-0.05847127,0.1277541,0.6576023,-0.7314394,9.058351,-13.85608,35.00539,1006.632
15.366440773,1.85441,-0.3292731,0.002617747,0.1306858,0.64882,-0.7372094,9.065112,-14.22052,35.01112,1006.633
15.401737213,-1.934957,-0.09290238,-0.3639164,0.1301947,0.6522653,-0.7314371,9.065112,-14.22052,35.01112,1006.633
15.434512615,-1.500112,-0.2701804,-0.05847127,0.1282646,0.6473888,-0.7299811,9.065112,-14.22052,35.01112,1006.633
15.467287541,-0.5683001,0.02528298,-0.2417383,0.1263092,0.6512086,-0.7386468,9.057624,-13.86202,34.57028,1006.629
15.500061989,0.05290762,0.02528298,-0.1195603,0.1297123,0.6513005,-0.7295091,9.422428,-13.85695,35.00492,1006.631
15.535358429,0.4256323,-0.3292731,0.002617747,0.127758,0.656148,-0.7304745,9.422428,-13.85695,35.00492,1006.633
15.568133354,0.6119946,-0.2110877,0.002617747,0.1292124,0.6556195,-0.7381788,9.065839,-14.21457,35.44624,1006.633
15.600908756,0.4256323,-0.1519951,-0.05847127,0.1272849,0.6497723,-0.7362401,9.429916,-14.21545,35.44577,1006.633
15.633683682,0.798357,-0.1519951,0.002617747,0.1263148,0.649781,-0.733831,9.429916,-14.21545,35.44577,1006.634
15.666458607,-0.07133393,-0.03380971,0.1247958,0.1297107,0.6502663,-0.738172,9.057624,-13.86202,34.57028,1006.636
15.701754570,-0.3819378,-0.09290238,-0.1195603,0.1292248,0.6512664,-0.7338401,9.423155,-13.85101,35.44004,1006.636
15.734529495,-0.319817,-0.4474585,-0.3639164,0.1292239,0.6502421,-0.7410591,9.423155,-13.85101,35.44004,1006.638
15.767304421,-1.189508,0.202561,-0.4860944,0.1282483,0.6537001,-0.7328788,8.701762,-14.2137,35.4467,1006.638
15.800079823,-12.12277,0.6162097,-2.685299,0.1350236,0.6619894,-0.7396464,9.065839,-14.21457,35.44624,1006.64
15.835376263,-55.91791,24.48965,-6.839352,0.1532835,0.7359237,-0.7754219,9.794721,-14.21037,35.88041,1006.64
15.868150711,-153.696,56.63607,-1.096985,0.1907357,0.8973365,-0.8614364,9.794721,-14.21037,35.88041,1006.641
15.900925636,-215.1956,70.87741,9.288148,0.2534994,1.236205,-0.9530734,9.447397,-15.33168,33.78467,1006.641
15.933700562,-302.0405,108.2831,59.25896,0.2323063,0.9508074,-0.9963969,7.333051,-19.37007,31.302,1006.641
15.966475964,-90.70554,118.5652,78.5631,0.3034069,0.9026245,-0.7967278,7.333051,-19.37007,31.302,1006.64
16.001772404,-112.5721,159.5755,95.05713,0.262619,1.32454,-0.7279508,4.203024,-27.88652,25.47173,1006.64
16.034547329,-151.7081,176.8897,118.9429,0.2588854,0.8692549,-0.6391666,-1.639094,-30.45234,23.40604,1006.64
16.067321777,-26.84539,179.4898,128.2896,0.2672815,0.6407121,-0.456406,-1.639094,-30.45234,23.40604,1006.638
16.100096703,84.3508,178.367,121.1421,0.3314936,0.6153008,-0.3356982,-6.695908,-33.04892,19.22593,1006.638
16.135393143,114.1688,181.9126,99.39445,0.4246942,0.6398811,-0.2748233,-14.39149,-33.78225,17.56905,1006.638
16.168168545,96.52647,181.1443,80.27359,0.6437277,0.6484364,-0.1482762,-14.39149,-33.78225,17.56905,1006.638
16.200943470,70.0009,181.0853,56.93758,0.7001932,0.6192718,0.002300021,-19.91288,-30.48414,17.89748,1006.634
16.233718395,28.50422,177.1261,29.87514,0.6978157,0.6114541,0.07163353,-25.42345,-27.93697,16.62124,1006.632
16.266492844,-19.57726,172.1623,3.484692,0.8842829,0.6272994,0.1650329,-25.42345,-27.93697,16.62124,1006.632
16.301789284,-54.61338,172.4577,-12.7039,0.7665778,0.7192023,0.2152352,-28.43761,-26.1654,12.36963,1006.632
16.334564209,-81.13895,182.858,-31.94694,0.7276983,0.7491594,0.2975951,-30.99539,-26.23486,6.840782,1006.632
16.367339611,-112.8205,190.4219,-38.91109,0.5265647,0.8139807,0.4057995,-30.99539,-26.23486,6.840782,1006.63
16.400114536,-149.7203,193.9084,-21.19527,0.3937738,0.9193812,0.4540918,-31.34218,-27.77156,1.021243,1006.63
16.435410500,-214.5744,197.7494,15.09161,0.2062292,0.9670305,0.4578343,-30.60859,-28.98804,-7.851216,1006.628
16.468185425,-292.3496,201.8268,49.54581,0.06019367,0.7035257,0.4210317,-30.60859,-28.98804,-7.851216,1006.628
16.500960350,-287.939,189.2991,84.00002,-0.09182331,0.339579,0.5856037,-29.53265,-29.12397,-17.61156,1006.627
16.533735752,-225.5076,161.8801,107.1528,-0.2206119,-0.01732827,0.6138847,-27.46122,-24.17738,-28.69671,1006.625
16.566510677,-77.16322,140.6068,112.7119,-0.2536086,-0.2248534,0.6470084,-27.46122,-24.17738,-28.69671,1006.625
16.601806641,12.91191,124.9472,106.2364,-0.2769369,0.0140429,0.7805222,-25.37665,-16.19187,-35.22898,1006.623
16.634581566,7.507401,121.4607,106.9695,-0.2868295,0.101041,0.8362525,-22.58458,-10.04928,-38.68672,1006.622
16.667356491,18.31642,117.2061,115.6441,-0.3319803,0.09774204,0.8363646,-22.58458,-10.04928,-38.68672,1006.622
16.700131893,32.04511,108.4604,116.9881,-0.3446877,0.143829,0.8955327,-19.70118,-8.61634,-40.01874,1006.622
16.735428333,26.76484,110.5286,113.0173,-0.3216653,0.04764665,0.8340088,-17.17613,-7.48538,-41.28335,1006.622
16.768203259,73.16906,120.338,111.3679,-0.3317407,-0.02125828,0.7426779,-14.28597,-6.416882,-42.60963,1006.622
16.800977707,117.2748,123.2335,104.2816,-0.3850868,0.1692498,0.8176097,-14.28597,-6.416882,-42.60963,1006.62
16.833752632,141.8125,124.8881,98.78356,-0.4227872,0.2807446,0.7174078,-10.92831,-7.518192,-42.59675,1006.62
16.866528034,152.9321,128.4928,87.17664,-0.3554078,0.5350961,0.7231223,-7.952262,-10.85396,-41.67776,1006.62
16.901823997,94.35225,143.2659,80.02924,-0.4638369,0.5495578,0.4817141,-7.952262,-10.85396,-41.67776,1006.618
16.934599400,95.09769,127.3109,60.78619,-0.5473936,0.5421864,0.3625457,-4.586215,-15.5876,-40.73727,1006.62
16.967374325,5.705899,125.7154,45.1474,-0.5286965,0.6780093,0.5413632,-1.603908,-19.22197,-39.44056,1006.618
17.000148773,-109.4039,103.2011,19.97873,-0.7354661,0.423504,0.4709957,-1.603908,-19.22197,-39.44056,1006.618
17.035445213,41.48746,57.40427,27.73703,-0.8148074,0.4208541,1.095995,1.394982,-20.69874,-40.2917,1006.618
17.068220139,311.278,53.32688,41.2377,-1.310471,1.248126,0.330559,3.895572,-18.15888,-40.70805,1006.618
17.100995541,117.2127,9.775575,72.3931,-1.509747,1.698529,0.1339572,3.895572,-18.15888,-40.70805,1006.618
17.133770466,-197.429,14.14843,36.41167,-0.552667,0.2866093,0.2459725,4.708363,-22.15545,-35.17503,1006.616
17.166545391,-61.38454,54.15418,4.706472,-0.5458806,-0.5484335,0.1312068,4.073412,-27.26771,-35.96409,1006.616
17.201841354,106.2794,59.82708,10.93755,-0.5414239,1.39809,0.8705223,4.073412,-27.26771,-35.96409,1006.616
17.234616280,1.419565,13.6166,-8.427667,-0.5975875,0.397523,0.2810513,3.984167,-22.54107,-36.84665,1006.618
17.267391682,185.4213,-1.629312,-22.90576,-0.5803241,1.096864,0.2530001,5.497369,-25.43713,-35.1244,1006.62
17.300166607,17.69521,10.30741,-17.1634,-0.6972363,1.0385,0.1951205,5.497369,-25.43713,-35.1244,1006.62
17.335462093,44.90411,9.952853,-10.74905,-0.6860946,0.4674331,0.3552856,5.191638,-28.31693,-32.52958,1006.622
17.368237496,27.07545,30.63529,1.529843,-0.7193279,1.139612,0.1940578,5.568511,-29.05263,-32.9537,1006.622
17.401012421,-101.5767,33.23537,-1.158074,-0.4604066,0.054566,0.1045831,5.568511,-29.05263,-32.9537,1006.622
17.433787823,123.7975,59.11796,-3.112922,-0.7167211,1.519234,0.4322349,6.311642,-29.77136,-32.07296,1006.622
17.466562748,-86.10861,49.54495,-5.434305,-0.4624829,0.3211683,0.1345119,7.74236,-28.30521,-31.22753,1006.622
17.501859188,54.96767,38.96736,-16.73577,-0.6442162,0.9999896,0.1964969,7.74236,-28.30521,-31.22753,1006.623
17.534633637,-42.00286,42.21746,-22.11161,-0.8350128,0.7544196,0.06109419,8.840627,-28.67821,-31.65832,1006.623
17.567408562,30.98906,45.52665,-36.0399,-0.6798956,0.440953,-0.02833455,9.96874,-30.48603,-30.38791,1006.623
17.600183487,-28.46053,56.3997,-53.20592,-0.7965835,1.168491,0.2375201,9.96874,-30.48603,-30.38791,1006.623
17.635479927,-25.54085,66.85912,-72.63222,-0.5452359,0.5910107,0.02695786,11.76354,-29.02076,-29.54295,1006.625
17.668255329,-25.16813,44.87663,-71.53262,-0.7846897,0.6318836,0.09918709,15.08448,-28.32366,-31.29917,1006.627
17.701030255,-29.5787,43.87205,-87.96556,-0.7534785,0.3660449,0.07400156,15.08448,-28.32366,-31.29917,1006.627
17.733804703,-29.14386,58.70432,-121.8089,-1.054845,0.9081642,0.09219103,17.57976,-25.40748,-30.85103,1006.627
17.766579628,65.90093,23.95782,-105.6203,-1.255644,1.100959,0.5333041,20.09512,-23.58631,-30.51001,1006.627
17.801876068,16.63915,16.09849,-115.3945,-0.9963596,0.6054479,0.05399963,24.41705,-20.97309,-29.68649,1006.627
17.834651470,13.16039,24.01691,-125.1688,-0.8738511,0.5491403,0.07401111,24.41705,-20.97309,-29.68649,1006.628
17.867426395,-32.62262,19.58496,-111.9125,-0.8864557,0.339233,0.09024231,26.21247,-19.50273,-28.46859,1006.627
17.900201321,-12.06064,26.67608,-98.41178,-1.039427,0.3452622,0.09059605,28.76084,-16.22905,-28.52352,1006.627
17.935497284,-53.24672,12.19837,-82.46755,-1.00995,0.6180525,0.1319935,28.76084,-16.22905,-28.52352,1006.627
17.968272209,-34.61049,-5.11578,-68.11163,-1.001431,0.7050889,0.1010349,30.87165,-12.21953,-28.15426,1006.628
18.001047611,-73.93294,-17.46615,-51.55651,-0.9446121,1.064276,-0.1432102,31.90907,-9.312596,-28.63662,1006.628
18.033822536,-209.3562,31.69896,32.99068,-1.13613,1.488811,-0.4971968,31.90907,-9.312596,-28.63662,1006.628
18.066597462,-477.6559,70.40467,115.7052,-1.300455,1.197384,-0.325003,32.57389,-5.984708,-29.49815,1006.628
18.101893425,-319.2479,32.93991,212.7146,-1.242116,0.1433298,-0.3389563,32.83187,-0.1376061,-28.34713,1006.628
18.134668350,-120.9584,5.520902,227.0094,-0.8169457,0.4561148,-0.2046921,32.83187,-0.1376061,-28.34713,1006.633
18.167443275,-232.9621,-1.215663,162.5605,-0.2042736,0.06394433,-0.3956921,35.66158,4.633852,-25.44175,1006.631
18.200218678,-159.5975,26.32153,101.4715,0.2964308,-0.03660901,0.3012464,37.17343,1.726753,-24.52757,1006.631
18.232993603,-89.89798,19.99861,75.753,-0.1913027,0.6078971,-0.001344688,37.17343,1.726753,-24.52757,1006.629
18.268289566,-227.9303,54.86329,-10.74905,-0.19773,-0.4470827,-0.4209309,37.53355,2.113244,-22.85548,1006.629
18.301064491,-31.38021,52.3814,-48.44098,-1.01156,0.1484086,-0.5161705,39.00015,1.774187,-20.73823,1006.629
18.333839417,36.14508,105.1512,-72.87658,-1.085652,-0.1890272,-0.765313,39.00015,1.774187,-20.73823,1006.629
18.366614819,-38.08925,177.5397,-76.603,-2.522409,0.2344375,-1.597225,40.42764,3.633638,-17.78514,1006.628
18.401911259,-168.0459,93.6281,-43.00405,-2.497053,-1.298591,0.2192781,41.84503,6.249987,-12.79226,1006.628
18.434686184,128.3944,50.43134,-55.34403,-1.440128,-0.163324,0.4157881,41.84503,6.249987,-12.79226,1006.628
18.467460632,29.00119,40.68105,-36.34535,-0.7035712,1.53209,0.5842947,42.59319,8.923578,-8.172434,1006.628
18.500235558,-66.22996,30.28074,-23.8221,-1.031143,0.4715464,-0.2494553,42.91743,11.11527,-7.772171,1006.625
18.533010960,1.668048,5.875458,-32.25238,-1.131261,0.3192845,-0.1729332,42.91743,11.11527,-7.772171,1006.623
18.568307400,14.03008,-11.32051,-20.52329,-1.138068,0.1564517,0.02227985,42.90212,12.24934,-4.805738,1006.623
18.601082325,20.24216,-11.37961,-6.35064,-1.05544,0.1644847,0.2377218,43.24519,13.33584,-5.25851,1006.623
18.633857250,-39.33167,-10.25684,3.912315,-0.9474313,0.05605736,0.1341363,43.24519,13.33584,-5.25851,1006.623
18.666631699,-33.98928,-10.6114,12.28151,-0.9201969,0.2145315,-0.01201976,43.23843,13.70027,-5.26424,1006.623
18.701928139,-19.63938,-4.87941,7.883101,-0.8051428,-0.003614326,-0.1433756,42.14413,13.68591,-6.506006,1006.623
18.734703064,-26.47266,7.116405,10.32666,-0.749974,0.5212681,0.04920986,42.14413,13.68591,-6.506006,1006.622
18.767478466,-16.59546,22.89415,5.806074,-0.9359824,0.04738222,-0.3568667,42.51704,13.33758,-5.25757,1006.617
18.800253391,21.36033,22.24413,-9.282913,-0.8776127,0.6964936,0.04684169,42.09977,12.98011,-4.816181,1006.617
18.833027840,-83.62378,30.51711,-12.1541,-0.9452757,0.3568982,0.03981222,42.09977,12.98011,-4.816181,1006.617
18.868324280,-12.12277,27.50338,-18.44627,-1.331898,0.2140686,0.1362541,42.15514,13.35629,-3.951765,1006.617
18.901099205,-15.97425,19.58496,-1.219163,-1.389786,0.4897449,0.2774962,42.52129,13.37239,-2.709059,1006.617
18.933874607,-100.0858,2.684454,-3.051833,-1.333521,1.250461,0.9043934,42.49705,14.85307,-1.053691,1006.617
18.966649532,-71.88295,-10.31594,50.1567,-1.41308,1.079739,1.243237,42.49705,14.85307,-1.053691,1006.617
19.001945496,-1.997078,-50.26259,95.24039,-1.341397,0.7977053,1.501983,42.51202,14.13608,-0.1720076,1006.617
19.034720421,-89.77374,-49.90804,98.47812,-0.5661092,0.4581076,0.410853,42.5579,11.57314,-1.002121,1006.619
19.067495346,41.36322,-61.60838,135.3148,-0.8442308,0.546872,0.0623916,42.5579,11.57314,-1.002121,1006.617
19.100270748,-92.25857,-127.9104,96.21782,-0.218182,0.3226356,0.2619725,42.61522,8.264332,-3.063951,1006.617
19.133045673,-108.6585,-94.28663,21.62813,0.1445677,-0.1521933,-0.02891471,42.7182,2.320804,-6.763003,1006.617
19.168341160,-7.712189,-109.2962,-12.64281,-0.3650839,0.1718703,-0.02049253,42.7182,2.320804,-6.763003,1006.615
19.201116562,-58.96183,-113.1372,-22.7225,-0.3490537,0.1852393,0.06176216,42.75243,0.08238602,-10.52031,1006.614
19.233891487,-5.724324,-103.9778,-29.32011,-0.4044808,-0.2300287,-0.1261743,41.59236,0.02655983,-14.80778,1006.614
19.266666889,122.2445,-91.2729,-24.3719,-0.4921733,-0.1059854,-0.1126751,41.59236,0.02655983,-14.80778,1006.614
19.301962853,157.0942,-61.60838,-15.69726,-0.8626099,0.2912591,-0.0435605,40.12223,0.3367462,-19.03843,1006.614
19.334737301,91.12196,-39.86228,-35.91772,-1.48391,0.4163966,0.06843772,39.77418,-0.7905054,-21.56928,1006.614
19.367512703,47.69954,-13.62513,-51.18998,-1.424959,0.3548104,0.1762158,39.77418,-0.7905054,-21.56928,1006.614
19.400287628,-51.19673,1.975342,-48.50206,-1.516491,0.2951701,0.3945796,39.81267,-2.99411,-22.77808,1006.614
19.433062554,18.81338,6.939126,-39.03326,-1.250363,0.05753963,0.2912951,40.17602,-3.000926,-23.21366,1006.611
19.468358994,-24.29844,27.56247,-38.17802,-1.429273,0.5819386,0.4156018,40.17602,-3.000926,-23.21366,1006.619
19.501134396,-127.3568,55.92696,-26.26566,-1.060074,0.1325158,-0.502072,40.52189,-1.891506,-21.98814,1006.619
19.533908844,-162.7035,76.96396,4.401027,-1.346462,0.452899,0.3198089,41.22518,-0.4176717,-20.70667,1006.619
19.566683769,-23.11814,49.78132,23.58298,-1.196306,-0.02691244,0.1983914,41.22518,-0.4176717,-20.70667,1006.615
19.601980209,126.5308,63.37264,24.98802,-1.122075,0.3970335,0.1407757,43.05642,2.52813,-18.20642,1006.615
19.634755135,126.5308,48.77674,16.13012,-1.11596,0.3364421,0.4551817,44.14541,2.91882,-16.10016,1006.616
19.667530537,153.6155,19.52587,4.950828,-1.048305,0.24809,0.3454039,44.14541,2.91882,-16.10016,1006.616
19.700304985,156.0382,-2.279331,-0.4860944,-1.066966,0.5062898,0.1674366,45.28778,0.3880687,-14.38318,1006.618
19.733079910,150.5716,-14.09787,-21.56181,-1.078892,0.5837716,-0.02230847,46.06544,-2.146904,-13.03867,1006.618
19.768376351,197.2243,-13.27057,-27.05982,-1.17668,0.6360665,-0.1588621,46.06544,-2.146904,-13.03867,1006.618
19.801151276,208.2196,-25.62094,-28.77031,-1.327605,0.7967762,-0.1895535,46.80098,-2.507991,-12.66093,1006.62
19.833926678,170.4502,-11.85235,-40.62158,-1.132006,0.6344443,-0.1657047,46.07896,-2.875777,-13.02721,1006.622
19.866700649,178.4638,7.88461,-61.94165,-1.209913,0.305634,-0.2203809,46.07896,-2.875777,-13.02721,1006.622
19.901997089,230.2725,7.766424,-66.95094,-1.321479,0.4625731,-0.2102442,45.72092,-3.245286,-13.45612,1006.62
19.934772491,171.8169,14.08934,-56.19928,-1.199602,0.6878458,-0.1093055,46.08573,-3.240214,-13.02148,1006.616
19.967547417,75.28117,24.48965,-43.79821,-1.253685,0.5693492,-0.0651947,44.98205,-2.49174,-11.78835,1006.616
20.000322342,49.3768,25.96697,-28.95358,-1.051162,0.3575245,-0.02299597,44.98205,-2.49174,-11.78835,1006.614
20.033097744,63.29186,26.14425,-21.31745,-0.9834678,0.2839375,0.02942281,44.96998,-1.750978,-10.92959,1006.614
20.068393230,69.19333,11.13471,-18.87389,-0.9469579,0.2493194,0.05008695,44.22289,-0.6448832,-10.13778,1006.614
20.101168633,113.3612,4.339048,-11.6043,-0.9280928,0.2513751,-0.09725759,44.22289,-0.6448832,-10.13778,1006.614
20.133943558,134.2338,-10.19775,-10.87123,-1.042852,0.5210893,-0.1147209,42.71266,-1.005684,-10.13009,1006.614
20.166718483,54.40859,-19.12074,-11.72647,-0.9285851,0.4639095,-0.07013913,43.14355,-1.376235,-10.49786,1006.612
20.202014446,42.1708,-29.58015,-18.87389,-0.9467339,0.3058382,-0.2272631,43.14355,-1.376235,-10.49786,1006.612
20.234789372,84.90989,-29.58015,-13.62023,-0.9181333,0.3235131,-0.2413171,42.36148,-1.738781,-10.49111,1006.612
20.267564774,112.9885,-33.95301,-3.418367,-1.033127,0.4895568,-0.2485151,41.6326,-1.74298,-10.92528,1006.61
20.300339699,114.4794,-29.28469,18.08496,-1.013218,0.5064109,-0.1600171,41.6326,-1.74298,-10.92528,1006.61
20.333114624,102.4279,-17.99798,51.98937,-1.077031,0.3986551,-0.1004958,41.63646,-2.131192,-12.66,1006.604
20.368410587,74.41148,-6.120356,83.5724,-1.011481,0.199661,-0.07965285,40.58552,-4.309252,-12.1891,1006.604
20.401185513,91.24621,-2.633888,112.3453,-1.0479,0.1872165,-0.1445316,40.58552,-4.309252,-12.1891,1006.604
20.433960438,84.84777,-1.097478,144.4781,-0.905014,0.1242523,-0.1957999,39.92007,-7.642235,-11.70052,1006.604
20.466735840,79.50538,8.652814,145.4556,-1.038551,0.1023263,-0.3167533,38.18362,-11.98819,-9.951126,1006.603
20.502032280,43.91018,14.79845,148.3268,-1.106349,0.4217954,-0.379651,38.18362,-11.98819,-9.951126,1006.601
20.534806728,-25.72721,8.002794,144.0505,-1.090901,0.2664676,-0.3226528,36.45466,-16.69264,-7.760887,1006.597
20.567581654,20.24216,-11.08414,162.9881,-0.9828317,0.3549722,-0.3321884,33.28196,-22.20019,-6.799531,1006.597
20.600356579,57.07978,-10.84777,183.0864,-0.9950776,0.1723756,-0.4512619,33.28196,-22.20019,-6.799531,1006.596
20.633131981,171.382,-10.19775,202.7571,-1.023705,0.1396295,-0.5734106,29.73126,-26.91131,-5.415007,1006.592
20.668428421,55.58888,-46.1261,222.1223,-0.8679163,0.678151,-0.08119588,25.3884,-31.22809,-1.983953,1006.589
20.701202870,-128.3507,-122.8284,208.2551,-0.7430705,0.4300244,-0.1932753,25.3884,-31.22809,-1.983953,1006.585
20.733977795,-129.1583,-193.6805,183.514,-0.2585823,0.513701,-0.01885352,20.02582,-36.35493,-0.2174423,1006.585
20.766752720,-234.2045,-248.8731,120.348,-0.3920516,0.1160542,0.179902,12.73458,-39.69793,-6.061484,1006.582
20.802049160,-60.39061,-306.0748,43.74235,-0.3455646,-0.2729606,0.002755615,12.73458,-39.69793,-6.061484,1006.578
20.834824562,23.78304,-336.2121,-7.389153,-0.2644431,0.1327913,0.05201329,6.186631,-40.89696,-14.92455,1006.575
20.867599010,-29.39234,-326.9345,-52.10632,-0.2472585,0.2556009,0.0421602,0.2761731,-39.82435,-17.48265,1006.571
20.900373936,29.24967,-313.3432,-87.11031,-0.1457462,0.4139701,-0.1383485,0.2761731,-39.82435,-17.48265,1006.568
20.933148861,41.79807,-256.8506,-97.55654,-0.2677227,1.063986,-0.1582934,-4.814149,-40.17657,-17.47034,1006.568
20.968445301,19.86944,-164.9024,-107.0864,-0.3755477,1.251533,-0.3036916,-5.902124,-40.13914,-14.92042,1006.564
21.001220703,-35.60442,-90.80016,-112.2179,-0.3387609,1.122241,-0.1702468,-6.257364,-40.48573,-13.67105,1006.561
21.033994675,161.8775,-60.72199,-52.71721,-0.5392146,1.686093,-0.2298286,-6.257364,-40.48573,-13.67105,1006.557
21.066770077,-88.65556,-41.63506,-0.8526285,-0.338626,1.931999,0.08221011,-4.065412,-40.84945,-13.23302,1006.552
21.102066517,-22.49693,-29.1665,8.55508,-0.2956311,0.8162025,0.1728418,-2.958308,-41.56991,-12.41491,1006.552
21.134841442,-56.53912,-21.30717,-8.977468,-0.2568349,0.4339098,0.2012449,-2.958308,-41.56991,-12.41491,1006.548
21.167616367,43.10261,-26.80279,-8.977468,-0.357994,0.5189497,0.2952222,-3.339334,-40.86818,-14.47714,1006.546
21.200390816,57.70099,-34.66212,5.500629,-0.4292859,1.117232,0.4090537,-3.709549,-40.49778,-14.10945,1006.546
21.233166218,41.73595,-25.85731,0.1247958,-0.3899119,0.8641646,0.2495296,-3.709549,-40.49778,-14.10945,1006.545
21.268462658,37.82234,-4.761224,-10.38251,-0.3957222,1.087628,0.3839879,-3.322282,-41.56818,-12.35228,1006.54
21.301237583,1.730169,5.402717,-24.18863,-0.4489614,0.7979436,0.3229364,-3.68959,-41.174,-10.24414,1006.54
21.334012508,-27.21811,19.2895,-43.37059,-0.654749,0.7693977,0.3874887,-3.68959,-41.174,-10.24414,1006.54
21.366786957,32.04511,30.81257,-18.50735,-0.9398022,0.9247125,0.09237459,-2.961436,-41.17575,-10.24508,1006.54
21.402083397,113.6718,24.48965,-5.617572,-0.8626512,0.3694216,0.270651,-1.875239,-40.80799,-9.817108,1006.539
21.434858799,203.9333,6.702756,-11.66538,-0.7303857,0.4725,0.1565806,-1.875239,-40.80799,-9.817108,1006.534
21.467633724,101.5583,-4.583946,-27.79288,-0.5910829,0.7213091,0.2593679,-1.482468,-41.83339,-4.765524,1006.534
21.500408650,91.24621,-6.238542,-47.58573,-0.5314171,0.5279382,0.1853881,-1.088141,-42.84606,1.218442,1006.534
21.533183098,145.7883,-28.04374,-68.05054,-0.5132019,0.8537264,0.2974926,-1.088141,-42.84606,1.218442,1006.534
21.568479538,107.8325,-41.45778,-72.38786,-0.3966552,1.040732,0.22473,0.003558278,-42.43329,4.940831,1006.534
21.601254463,116.0945,-59.36287,-65.85134,-0.4013181,1.174522,0.2794147,2.250453,-42.00461,10.02923,1006.534
21.634029865,64.72063,-88.25918,-46.79157,-0.3546529,1.353493,0.2559289,2.250453,-42.00461,10.02923,1006.534
21.666804791,-30.51051,-93.45934,-32.55783,-0.2108456,1.326129,0.2801785,5.14236,-40.50204,13.79423,1006.536
21.702100754,-78.71624,-94.40482,-23.88319,-0.1630591,1.230156,0.2190769,7.671345,-39.4089,14.20887,1006.536
21.734875679,-114.9948,-87.37279,-22.53923,-0.1864777,1.068615,0.1996401,7.671345,-39.4089,14.20887,1006.534
21.767650604,-109.0933,-69.94044,-28.77031,-0.2239145,0.8801624,0.1793143,9.856963,-39.82442,10.8552,1006.534
21.800426007,-41.25741,-44.29423,-50.02929,-0.4160568,0.5832785,0.02040542,10.58409,-40.25429,6.198081,1006.534
21.833200455,61.36612,-17.22978,-59.25373,-0.6896853,0.8735186,-0.07613675,10.58409,-40.25429,6.198081,1006.534
21.868496895,67.14335,-6.179449,-68.2949,-0.8644062,0.8268954,-0.1271577,12.77241,-40.64774,4.460546,1006.535
21.901271820,121.0021,16.63033,-73.97618,-0.8753625,0.5149254,-0.2219712,15.36426,-39.53691,6.180435,1006.535
21.934046745,211.0151,18.28492,-78.61894,-0.9831256,0.6908154,-0.2927409,15.36426,-39.53691,6.180435,1006.537
21.966822147,163.1821,1.207137,-77.58043,-1.03075,0.9282238,-0.2039338,17.17069,-38.39616,9.952582,1006.537
22.002117634,78.01448,-6.770376,-65.91243,-0.7765967,0.6435603,-0.1925549,19.66857,-34.96904,16.67208,1006.537
22.034893036,78.9463,-0.7429219,-63.34669,-0.6151385,0.3174603,-0.2853492,21.06298,-31.28146,20.03164,1006.537
22.067667961,96.02951,1.5026,-61.94165,-0.6186188,0.5702247,-0.2125549,21.06298,-31.28146,20.03164,1006.535
22.100442886,21.04973,1.679878,-70.79955,-0.73564,0.7889768,-0.1317383,22.468,-28.34653,21.6622,1006.531
22.133217335,-66.41632,-14.09787,-75.80885,-0.874921,0.7511331,-0.1534935,24.60721,-25.78372,22.86245,1006.533
22.168513775,-120.3372,-25.68003,-72.93767,-0.9127833,0.7206948,-0.2828442,24.60721,-25.78372,22.86245,1006.533
22.201288700,-170.9656,-29.10741,-72.08242,-1.063117,0.622425,-0.3660964,26.412,-25.0762,21.60546,1006.533
22.234064102,-194.6957,-38.32587,-72.44895,-1.079864,0.517052,-0.3707115,28.94672,-24.77561,17.36965,1006.535
22.266839027,-173.3883,-31.41202,-73.54855,-1.03881,0.4154851,-0.317706,28.94672,-24.77561,17.36965,1006.535
22.302134991,-115.4296,-37.79404,-53.51136,-1.116292,0.3337545,-0.2812969,30.83207,-25.58456,11.84654,1006.535
22.334909916,-56.53912,-35.72579,-26.93764,-0.9055094,0.3438126,-0.1388476,33.01083,-25.6365,8.42499,1006.532
22.367684841,-49.20887,-15.75246,0.6745969,-0.8732316,0.4668801,-0.05968494,33.01083,-25.6365,8.42499,1006.532
22.400460243,-73.00113,2.507176,34.15138,-0.8561398,0.4240866,-0.0707323,34.45622,-25.30952,5.931028,1006.532
22.433235169,-71.26174,24.25328,60.23639,-0.8345814,0.3444494,-0.06248026,33.71236,-24.59673,4.615173,1006.532
22.468531132,-74.92687,40.74014,77.21914,-0.869231,0.4212459,-0.04325935,33.71236,-24.59673,4.615173,1006.532
22.501306057,-98.16004,51.31773,79.60161,-0.8669242,0.4769579,-0.01879934,33.38074,-26.42908,3.836228,1006.528
22.534080982,-117.9144,55.98605,78.19656,-0.8820996,0.5330011,0.00425755,31.24226,-28.98594,3.071093,1006.528
22.566856384,-128.9719,60.29982,74.6534,-0.8603314,0.569277,0.01185303,31.24226,-28.98594,3.071093,1006.528
22.599630833,-150.3415,61.36349,63.84064,-0.9011596,0.5935591,0.05090357,28.67818,-31.54858,1.809235,1006.528
22.634926796,-172.9534,56.10424,53.45551,-0.863214,0.5616511,0.03930898,26.51589,-33.041,-1.08649,1006.53
22.667702198,-183.017,57.9952,35.49533,-0.8119722,0.436785,-0.04871356,26.51589,-33.041,-1.08649,1006.53
22.700477123,-156.9884,63.7272,13.74765,-0.7252189,0.2930281,-0.09443202,24.35817,-34.9157,-5.28182,1006.53
22.733251572,-109.8387,77.79126,-16.18597,-0.7618998,0.2022438,-0.07832326,23.61755,-34.59621,-8.705345,1006.527
22.768548012,-51.07249,79.50494,-43.98148,-0.7066508,0.2576276,-0.02462525,23.61755,-34.59621,-8.705345,1006.527
22.801322937,-37.40592,75.72301,-54.67205,-0.6996064,0.5726699,0.02638892,23.9653,-33.89114,-10.39556,1006.526
22.834098339,-117.1069,64.25903,-50.02929,-0.5231507,0.487776,0.00299298,25.39664,-32.4199,-9.177186,1006.527
22.866873264,-168.9777,74.60025,-37.99475,-0.4904889,0.4051958,-0.1452194,25.39664,-32.4199,-9.177186,1006.527
22.899647713,-205.8153,73.4184,-33.10763,-0.5870999,0.5950737,-0.1789718,27.18925,-30.97246,-9.637567,1006.523
22.934944153,-288.0012,37.31276,-49.05186,-0.7491535,0.6002466,0.1294763,28.58732,-28.09442,-12.17164,1006.525
22.967719078,-231.4712,1.561693,-27.97615,-0.921042,0.5543939,-0.09436148,28.58732,-28.09442,-12.17164,1006.528
23.000494480,-109.7766,-10.37503,1.652021,-0.8809711,0.8284093,-0.2397594,30.05876,-25.95219,-15.1916,1006.528
23.033268929,-132.3886,44.75844,56.2656,-0.8317543,0.9401323,-0.3416118,30.7061,-21.99777,-19.10942,1006.53
23.068565369,-178.358,93.45082,97.4396,-0.781742,0.9420475,-0.3364384,30.7033,-22.0207,-20.7877,1006.53
23.101340294,-235.8197,118.447,120.348,-0.7087436,0.8982355,-0.2109101,30.7033,-22.0207,-20.7877,1006.53
23.134115219,-320.1176,120.3971,130.0611,-0.6655129,0.8907501,-0.2187031,28.44205,-21.23759,-21.66744,1006.532
23.166889668,-490.2664,141.375,176.672,-0.6622813,1.360929,-0.2661115,24.06284,-20.89155,-23.78094,1006.534
23.199664593,-482.7498,114.4287,228.5977,-0.6165811,1.14299,-0.2143857,24.06284,-20.89155,-23.78094,1006.533
23.234961033,-441.3773,77.08215,161.3998,0.1039034,0.1913368,-0.0962453,18.48538,-14.69407,-24.67936,1006.533
23.267736435,-171.4004,171.2759,149.3653,-0.6244164,-1.738276,-3.627693,16.12637,-4.713576,-19.36223,1006.535
23.300511360,-404.8503,338.6263,53.02788,-4.128809,4.989904,-1.557741,16.12637,-4.713576,-19.36223,1006.535
23.368582249,-129.4689,121.6971,61.45817,-0.8829665,0.2265048,-0.2961296,16.1181,-2.682507,-4.099814,1006.542
23.401357174,-28.14993,64.49541,60.78619,-0.4122206,1.225539,0.06467631,16.1181,-2.682507,-4.099814,1006.545
23.434132576,-63.62089,144.8024,94.26297,-0.8705403,0.5932521,0.1100389,15.78606,-4.098624,-1.092801,1006.545
23.466907024,-16.28486,125.7154,108.2524,-0.496323,1.014172,-0.1831883,15.08702,-5.537644,0.1742346,1006.547
23.499681950,-34.98321,99.71465,74.1036,-0.5708775,0.9306614,-0.1260849,15.08702,-5.537644,0.1742346,1006.544
23.534978390,-89.27677,98.06005,82.16735,-0.4346844,0.8682801,0.05467809,14.322,-6.600194,2.305842,1006.548
23.567753315,-65.04967,109.524,72.3931,-0.703933,0.9218174,-0.1873703,13.60995,-7.376174,3.18942,1006.549
23.600527764,-44.48769,109.8195,100.2497,-0.4589228,1.050029,0.02557995,13.60995,-7.376174,3.18942,1006.549
23.633303166,-107.6024,122.288,138.0638,-0.03819947,0.5175518,-0.1503124,11.82076,-8.795594,5.701042,1006.551
23.668599129,-79.71017,61.77714,138.6747,-0.5202407,1.048386,-0.2770487,10.01993,-9.890486,5.28547,1006.555
23.701374531,-74.86475,19.58496,105.0146,-0.3097597,1.190116,-0.1097663,10.01993,-9.890486,5.28547,1006.557
23.734148979,-75.79656,-28.93013,77.83002,-0.4404006,0.9851099,-0.1572836,6.771005,-11.33444,5.74773,1006.554
23.766923905,4.525604,-56.05367,89.19258,-0.2809772,1.182355,0.1404853,6.047431,-11.71496,4.449065,1006.554
23.799698830,7.569522,-59.00831,110.757,-0.07112723,0.9288373,0.06142631,6.047431,-11.71496,4.449065,1006.555
23.834995270,51.55103,-43.64421,85.64942,-0.109125,0.7932528,0.1502913,5.696877,-12.44296,4.460995,1006.557
23.867769718,38.81627,-11.08414,34.76227,-0.05208661,1.081631,0.01879103,4.611406,-12.80478,4.468134,1006.559
23.900545120,21.23609,-5.647614,16.55774,0.0205959,1.142486,-0.002171636,4.611406,-12.80478,4.468134,1006.559
23.933320045,7.196797,-6.297634,0.4302409,0.07438312,0.7992628,0.0935277,4.253363,-13.17429,4.039223,1006.559
23.968616486,-27.7772,6.230014,-9.527268,-0.03443423,0.9940466,-0.06054352,4.624202,-13.5396,4.044483,1006.562
24.001390934,-24.42268,7.411868,-19.9124,0.06223794,0.9965568,0.04416027,4.624202,-13.5396,4.044483,1006.562
24.034165859,-35.91502,9.834667,-19.24042,-0.07109486,0.9035804,0.001294083,4.617441,-13.17516,4.038753,1006.564
24.066941261,-46.41343,11.25289,-18.32409,0.001208351,0.94084,0.08963699,5.351111,-13.55153,3.297637,1006.56
24.099716187,-41.44377,7.057312,-16.12488,-0.05571709,0.9890954,0.09355017,5.351111,-13.55153,3.297637,1006.564
24.135011673,-46.78616,2.270805,-10.74905,-0.1314471,0.9730944,0.05476361,4.993795,-13.9151,3.303837,1006.564
24.167787075,-65.48451,0.7343951,-11.11558,-0.01414582,0.8738825,0.1446496,5.727258,-14.29317,2.438404,1006.56
24.200562000,-76.72837,19.64405,-16.18597,-0.2082993,1.046658,0.1501446,5.368488,-14.66862,1.574381,1006.562
24.233336926,-58.52699,3.570844,-22.90576,-0.02661735,0.8221273,0.2111851,5.368488,-14.66862,1.574381,1006.562
24.268632889,-61.50878,10.48469,-34.63486,-0.09294707,0.9599539,0.290078,5.718421,-13.94571,1.189498,1006.565
24.301407814,-66.22996,13.43932,-34.75703,-0.08069031,0.9058245,0.265581,5.715514,-13.96949,-0.5509489,1006.565
24.334183216,-55.91791,19.76224,-35.12357,-0.05821272,0.8804464,0.441263,5.715514,-13.96949,-0.5509489,1006.565
24.366958141,-17.21667,31.28531,-41.0492,0.006409717,1.090247,0.557283,6.799634,-13.61871,-1.366153,1006.561
24.399733067,-8.581881,23.24871,-41.78227,-0.06576169,0.758044,0.287911,6.792873,-13.25427,-1.371883,1006.563
24.435029030,37.94658,46.53122,-39.76633,-0.1404082,0.9473665,0.4981578,6.792873,-13.25427,-1.371883,1006.563
24.467803955,67.32971,55.21785,-43.55385,-0.1803485,0.7657892,0.3488227,7.144155,-12.52033,-0.9487011,1006.564
24.500579357,67.39183,61.12712,-54.85532,-0.2677747,0.9687397,0.2928862,8.608575,-12.87721,-0.1367862,1006.564
24.533354283,80.18871,84.40964,-61.94165,-0.1807969,1.185597,0.4863419,8.608575,-12.87721,-0.1367862,1006.564
24.568649769,-12.24701,134.8748,-86.68269,-0.1910986,1.40813,0.3522123,8.953821,-11.77289,0.7157774,1006.564
24.601425171,-120.0887,200.054,-74.95361,-0.1137407,1.563698,0.4283309,10.40617,-11.38902,2.386456,1006.566
24.634200096,-253.5241,244.1962,-49.47949,-0.02877209,1.280439,0.004476601,10.40617,-11.38902,2.386456,1006.568
24.666975498,-161.5853,259.9149,-15.81944,0.273518,0.9537635,-0.0602505,12.57181,-10.28905,3.23667,1006.568
24.699749470,-118.4735,243.3689,7.150033,0.3007372,0.9715973,0.09032428,15.19194,-10.62578,5.725385,1006.568
24.735045910,-201.1563,235.8051,11.7928,0.09583141,0.5764844,0.1790136,15.19194,-10.62578,5.725385,1006.566
24.767821312,-241.1621,219.6728,-9.710536,-0.1556842,0.3441921,0.06491484,16.26804,-9.501121,8.193137,1006.57
24.800596237,-238.3045,217.1318,-51.98413,-0.4944553,0.1967903,-0.3436984,17.37275,-9.821474,11.61619,1006.57
24.833370686,-102.1358,250.5782,-112.279,-1.364046,-0.2469528,-1.406702,17.37275,-9.821474,11.61619,1006.57
24.868667126,27.01332,188.8264,-103.8487,-1.794276,0.2998066,0.3446885,17.37377,-9.393353,16.27238,1006.571
24.901442051,58.38432,96.16908,-119.4264,-0.492542,0.612044,-0.3736918,16.26904,-8.233739,20.9185,1006.571
24.934217453,15.02401,66.20909,-142.3959,-0.8351288,1.225377,0.1297007,16.26904,-8.233739,20.9185,1006.571
24.966991901,70.0009,14.85755,-131.0333,-1.492633,0.6024571,0.01041457,10.67596,-4.116144,23.41016,1006.573
24.999766827,24.90122,11.01652,-100.9164,-1.14813,0.1200892,0.1282581,8.040245,0.6335893,23.77407,1006.573
25.035063267,11.35889,6.939126,-66.34005,-1.221224,0.1654338,-0.1970374,8.040245,0.6335893,23.77407,1006.575
25.067838192,13.53312,-22.84358,-48.80751,-1.139352,0.2313448,-0.2724234,6.524434,3.928051,24.53244,1006.575
25.100612640,14.52705,-17.76161,-24.98279,-1.216229,0.1898833,0.2313258,5.768611,5.38245,24.13751,1006.575
25.133388042,4.649846,7.943702,25.84327,-0.9844214,-0.1138034,0.1253342,5.768611,5.38245,24.13751,1006.577
25.168684006,-13.86215,11.962,24.74367,-0.6033944,0.3346375,-0.0004367814,6.839833,6.4672,23.6838,1006.575
25.201459408,-19.76362,-0.8611073,37.51127,-0.9315348,0.07541072,-0.04355306,7.946314,5.741651,24.12896,1006.575
25.234233856,-24.36056,-34.30757,59.6255,-1.015406,0.2232503,-0.04453968,8.331299,4.652563,24.51863,1006.575
25.267008781,14.58917,-58.47647,66.2842,-0.8122355,0.49378,-0.3270259,8.331299,4.652563,24.51863,1006.577
25.299783707,-21.25452,-40.68958,42.58166,-1.042353,0.3485835,0.08145211,9.443814,3.556634,24.53441,1006.577
25.335080147,-5.724324,-18.648,31.95217,-0.8742512,0.2989326,0.02336483,9.448499,3.175214,23.29697,1006.577
25.367854595,9.495265,23.60326,35.00662,-0.9400499,0.4425309,0.2312527,9.448499,3.175214,23.29697,1006.577
25.400629997,-16.96819,58.11339,32.07435,-0.8038177,0.3226651,0.1998218,9.819338,2.809905,23.30223,1006.578
25.468701363,-1.997078,143.2659,6.783499,-1.385947,0.8592907,-0.02440225,10.20443,1.721665,23.75406,1006.577
25.501475811,-32.37414,201.2359,48.38512,-1.615773,0.7453948,0.1221671,8.39215,1.372629,24.5702,1006.577
25.534250736,-109.1554,228.7731,164.5764,-0.9775655,2.037864,0.80609,6.205907,1.78306,27.55091,1006.577
25.567026138,-150.7763,128.7882,268.4889,0.1531599,2.610489,1.248286,6.205907,1.78306,27.55091,1006.577
25.599801064,-409.0746,-14.6297,335.5035,0.2711768,1.845089,0.5088254,5.186893,-1.812839,30.9662,1006.577
25.635096550,-462.1257,-83.94541,355.8462,-0.5762617,1.527462,-0.3045941,7.187431,-11.74661,29.00612,1006.577
25.667871952,-335.4614,-122.9466,327.4398,-0.3751904,1.565691,-1.072419,7.187431,-11.74661,29.00612,1006.575
25.700646877,-403.0488,-107.4643,270.5048,-0.3543653,1.789277,-1.092541,6.838568,-33.89684,12.87973,1006.573
25.733421803,-363.1673,-131.2196,252.7279,-0.5314106,1.343214,-0.8700229,-2.916315,-42.90538,-3.441119,1006.573
25.768717766,-174.1337,-163.1887,240.7544,-0.3206182,0.7609622,-0.5971945,-2.916315,-42.90538,-3.441119,1006.571
25.801492691,15.70734,-118.9283,219.3733,0.1321638,0.5416029,-0.188299,-14.34011,-40.1478,-17.02294,1006.565
25.834268093,89.63107,-46.48066,177.0997,0.2342337,0.6046568,0.3519331,-24.67739,-32.40945,-17.13107,1006.565
25.867043018,66.46002,-5.647614,121.2032,0.1376008,0.9124061,0.8797523,-24.67739,-32.40945,-17.13107,1006.57
25.899817944,-68.83904,-2.279331,87.05447,0.007745781,1.224262,0.9874153,-32.46671,-27.61339,-14.27415,1006.57
25.935113907,-243.6469,-8.897713,45.57502,0.1326981,0.9616426,1.032282,-34.70309,-24.67482,-13.01183,1006.564
25.967888832,-330.2433,-9.429546,29.44752,0.3159333,0.4663795,0.960389,-34.70309,-24.67482,-13.01183,1006.568
26.000664234,-297.8163,14.03025,22.72773,0.5331096,-0.04199089,0.7137015,-36.59179,-21.38159,-16.85369,1006.566
26.033439159,-181.1534,37.8446,19.12348,0.4024143,-0.4231101,0.6943688,-37.415,-16.70075,-21.2162,1006.566
26.068734646,-40.69832,16.68942,8.432902,0.5043099,-0.5910975,0.717967,-37.415,-16.70075,-21.2162,1006.566
26.101510048,6.327106,-7.243117,-14.29221,0.3843441,-0.1258631,0.9481226,-37.52598,-10.89268,-22.98617,1006.566
26.134284973,-94.55704,-35.78489,-27.36526,0.4126602,-0.006565478,0.8400506,-36.48919,-7.990844,-23.84148,1006.562
26.167059422,-128.3507,-39.98046,-52.90047,0.4634098,-0.373991,0.5405957,-36.48919,-7.990844,-23.84148,1006.562
26.199834347,-54.17853,-52.03537,-61.81947,0.3863738,-0.4250229,0.6486803,-35.75365,-8.351932,-23.46374,1006.562
26.235130787,-16.16061,-67.99039,-52.96156,0.5703025,-0.3983046,0.5577078,-36.49315,-7.603481,-22.16893,1006.562
26.267906189,24.65273,-62.37659,-57.60432,0.6504709,-0.4367674,0.4632287,-36.83341,-8.667049,-20.03787,1006.562
26.300680637,60.80703,-53.57178,-57.23779,0.8371888,-0.3306391,0.5122061,-36.83341,-8.667049,-20.03787,1006.562
26.333455563,68.38577,-50.14441,-59.25373,0.8796155,-0.2127871,0.4594595,-37.52423,-10.45862,-17.89488,1006.564
26.368752003,77.20691,-41.04413,-67.31747,0.9067153,-0.1786425,0.4343129,-37.10254,-13.34612,-15.73611,1006.564
26.401526928,78.26296,-28.04374,-67.1953,0.8626291,0.001869017,0.5313805,-37.10254,-13.34612,-15.73611,1006.562
26.434301376,43.10261,-27.571,-57.66541,0.852222,0.09396587,0.5505209,-37.04492,-16.23274,-13.57687,1006.562
26.467076779,8.501332,-19.71167,-55.03859,0.8066648,0.05553337,0.5415409,-36.61042,-19.85506,-11.84175,1006.564
26.499851704,-15.97425,-12.38418,-63.34669,0.7772687,-0.02809729,0.5970933,-36.61042,-19.85506,-11.84175,1006.562
26.535148144,-18.58332,-6.947654,-75.74776,0.8194301,0.02450274,0.6864473,-35.49645,-20.9391,-10.95575,1006.562
26.567922592,-51.25885,-6.41582,-86.6216,0.8118382,0.1549919,0.6901195,-34.71984,-23.55264,-10.91562,1006.562
26.600697518,-94.18431,-1.629312,-113.1953,0.745514,0.0575268,0.621589,-34.71984,-23.55264,-10.91562,1006.562
26.633472920,-68.65267,-7.361302,-142.3348,0.5828299,0.05991516,0.60031,-33.23326,-25.40719,-13.00225,1006.562
26.668768883,-22.93178,-6.534005,-164.6323,0.5345976,0.1024525,0.4718367,-30.28901,-27.25419,-14.28269,1006.562
26.701543331,33.78449,5.579995,-178.6828,0.470697,0.20647,0.3784473,-30.28901,-27.25419,-14.28269,1006.562
26.734318733,80.87204,11.48926,-165.1821,0.381047,0.5555327,0.4652603,-27.25621,-30.55228,-15.04303,1006.562
26.767093659,32.54207,22.00776,-144.7173,0.5333628,0.8645581,0.6670866,-22.45424,-34.19696,-14.18377,1006.558
26.799868584,-55.23458,45.46755,-120.7704,0.6180648,0.9655659,0.5926037,-22.45424,-34.19696,-14.18377,1006.558
26.835164547,-128.5371,70.58195,-95.78496,0.6506434,0.9513974,0.6170973,-16.92434,-37.91516,-14.13256,1006.558
26.867939472,-120.6478,72.53201,-79.77963,0.5325621,0.7823545,0.6132998,-12.48078,-39.07088,-17.91278,1006.558
26.900714874,-63.37241,63.01809,-70.86064,0.4768529,0.7192814,0.5750181,-12.48078,-39.07088,-17.91278,1006.561
26.933489799,-24.23631,48.06763,-62.67471,0.3693028,0.8434483,0.7002401,-8.510765,-37.68642,-22.60278,1006.561
26.966264248,-47.53161,38.6128,-45.08108,0.3607148,0.7947415,0.7802399,-4.887043,-36.99514,-24.73233,1006.561
27.001560688,-81.8844,29.27616,-34.45159,0.1722731,0.6652521,1.086065,-4.887043,-36.99514,-24.73233,1006.559
27.034335613,12.04222,9.125555,-23.2723,0.1616256,0.2141513,0.9442875,-2.348169,-36.66059,-26.4818,1006.56
27.067111015,102.6764,-8.484064,-7.266975,0.2577549,0.6430697,1.015136,-0.9227303,-35.16767,-28.12368,1006.564
27.099885464,-7.401585,-11.08414,11.73171,0.3091143,0.8958299,1.021372,-0.9227303,-35.16767,-28.12368,1006.566
27.135181427,-64.17998,-13.8615,16.37447,0.3131651,0.3766919,0.813234,0.5371088,-35.14229,-26.01217,1006.568
27.167956829,16.01795,-25.03001,14.96943,0.4231651,0.2549118,0.7481728,-0.1697391,-36.29544,-26.05524,1006.568
27.200731754,58.6328,-24.79364,6.72241,0.431969,0.4277091,0.7228607,-0.1697391,-36.29544,-26.05524,1006.569
27.233506203,56.52069,-23.5527,-0.3028273,0.3447476,0.5434451,0.6617602,-0.9071316,-35.87956,-26.86905,1006.571
27.266281128,43.53745,-18.11617,-8.855289,0.2995912,0.5319754,0.6074908,-2.353477,-36.28426,-25.61731,1006.571
27.301577568,52.11012,-6.888561,-18.56844,0.2028041,0.5999036,0.6167638,-1.965586,-37.34958,-23.48719,1006.571
27.334352017,44.77987,-1.865683,-22.53923,0.1242214,0.7838362,0.6869518,-1.965586,-37.34958,-23.48719,1006.571
27.367127419,4.277121,1.207137,-18.263,0.1871707,0.8589181,0.6924656,-2.306473,-38.41824,-21.72908,1006.574
27.399902344,-30.51051,7.470961,-13.86459,0.2418859,0.7175667,0.6809962,-1.934285,-38.77251,-20.91576,1006.574
27.435198784,-11.68792,6.170922,-8.672023,0.2129567,0.6381928,0.717768,-1.934285,-38.77251,-20.91576,1006.574
27.467973232,-2.12132,0.4980244,-7.389153,0.2342826,0.657966,0.7340539,-0.8501633,-38.42173,-21.73096,1006.57
27.500748158,-3.177373,-4.111205,-8.183311,0.3329381,0.6288037,0.7641897,-0.8508899,-38.42767,-22.16607,1006.57
27.533523560,5.705899,-5.233966,-5.12886,0.3723425,0.5934047,0.7391187,-0.8508899,-38.42767,-22.16607,1006.57
27.566298485,9.246782,-5.11578,-1.035896,0.3980557,0.6069166,0.7602173,-0.8441286,-38.79211,-22.16034,1006.572
27.601593971,1.171082,-4.524854,3.179247,0.3950919,0.6268134,0.7534553,0.2406154,-38.43624,-22.60259,1006.574
27.634369373,1.357444,-4.288483,2.262911,0.3510366,0.559297,0.6925285,0.2406154,-38.43624,-22.60259,1006.572
27.667144299,16.63915,-5.883986,-1.341341,0.3015092,0.5528285,0.66233,-0.1220085,-38.42347,-21.7319,1006.574
27.699919224,17.69521,-6.829468,-5.800839,0.2916793,0.6014065,0.6560224,-0.8427792,-38.78107,-21.35228,1006.574
27.735215187,15.95583,-5.647614,-10.81014,0.2892425,0.6037712,0.6488042,-0.8427792,-38.78107,-21.35228,1006.575
27.767990112,15.08613,-4.347576,-14.78092,0.2862151,0.6550019,0.6655818,0.2501796,-38.77775,-20.91858,1006.571
27.800765515,12.97403,-4.22939,-17.65211,0.287124,0.6818199,0.6689088,-0.1003752,-39.50574,-20.90665,1006.571
27.833539963,19.12399,-7.243117,-18.01864,0.2767777,0.7491051,0.6919372,-0.1003752,-39.50574,-20.90665,1006.573
27.866314888,14.96189,-17.40706,-7.144797,0.2588225,0.7561988,0.7531021,0.6292329,-39.49561,-20.03736,1006.573
27.901611328,45.83592,-39.38954,10.81537,0.2641517,0.7590852,0.7415324,1.002148,-39.84393,-18.78893,1006.573
27.934386253,73.04482,-66.57217,29.99732,0.3745195,0.9445973,0.9518275,1.002148,-39.84393,-18.78893,1006.573
27.967160702,60.99339,-101.9687,70.43826,0.3871236,0.9393268,0.8791199,1.429085,-39.82712,-17.48414,1006.575
27.999936104,155.1064,-117.7464,103.6096,0.3905272,0.8964848,0.6673773,-1.162358,-40.51492,-14.9208,1006.573
28.035232067,240.833,-134.056,139.0412,0.5339528,1.210156,0.5674039,-1.162358,-40.51492,-14.9208,1006.571
28.068006516,256.7359,-130.6877,179.2989,0.5958402,1.245914,0.1720051,-5.143097,-41.14759,-8.563973,1006.571
28.100781918,234.124,-103.9187,216.2577,0.7125951,1.099267,-0.1154237,-10.20756,-41.70801,2.891287,1006.571
28.133556843,192.6894,-73.07236,247.291,0.6190848,1.012778,-0.1136275,-10.20756,-41.70801,2.891287,1006.571
28.166331768,180.5138,-52.44902,253.8886,0.7177022,0.5501488,-0.2936748,-16.1321,-38.65189,12.11471,1006.57
28.201627731,223.3771,-19.77077,237.5167,0.7760886,0.2913487,-0.3198981,-21.69655,-32.27818,19.66892,1006.568
28.234402657,197.5349,-3.461185,226.7039,0.6835538,0.2625287,-0.01060097,-27.31761,-23.07945,25.0027,1006.568
28.267178059,86.89775,-0.4474585,205.6283,0.6708591,0.08252906,-0.03581174,-27.31761,-23.07945,25.0027,1006.568
28.299952984,-21.68936,18.69857,173.3732,0.7004706,-0.3426422,-0.1392153,-30.10699,-13.14379,26.9638,1006.564
28.335248947,45.02835,5.166346,154.1302,0.5704207,-0.5944856,-0.1991788,-31.34909,-5.062814,26.83819,1006.56
28.368023872,53.35254,-3.402092,130.2444,0.6497948,-0.4781581,-0.1653658,-31.34909,-5.062814,26.83819,1006.558
28.400798798,21.48458,0.4389318,114.5445,0.7098164,-0.6149595,-0.2293231,-31.80106,-0.3242602,26.76417,1006.558
28.433574200,31.48602,-5.529429,97.68396,0.6467882,-0.644296,-0.1699218,-31.1608,4.411675,26.68874,1006.557
28.466348648,16.14219,-22.01629,77.15805,0.7513562,-0.7463284,-0.3303095,-31.1608,4.411675,26.68874,1006.555
28.501644611,67.95092,-21.24808,71.23241,0.6818421,-0.7632864,-0.5842781,-30.14397,8.479454,26.68551,1006.555
28.534420014,130.4444,-36.02126,71.59895,0.8635247,-0.8499302,-0.8656937,-29.45576,10.66943,27.02314,1006.553
28.567194939,191.6955,-22.19357,54.37184,0.8747836,-0.9337884,-1.101943,-29.45576,10.66943,27.02314,1006.553
28.599969387,217.7862,51.31773,24.43822,0.7232193,-0.8977136,-1.054945,-28.02126,15.02799,26.14436,1006.553
28.635265827,171.1956,131.7429,-28.70922,0.3369222,-0.7556462,-0.8920244,-27.77315,20.79443,21.3903,1006.549
28.668040753,50.37074,276.6972,-138.1807,0.3586746,-0.9731861,-1.174307,-27.77315,20.79443,21.3903,1006.551
28.700815201,106.7143,486.4171,-222.5447,-0.3210371,-0.6855909,-0.5324363,-29.01433,24.7623,13.68227,1006.548
28.733590603,93.04771,475.3668,-265.4291,-0.6155745,0.08390817,0.7287517,-34.46286,22.77998,1.037567,1006.544
28.766365528,1073.81,71.94109,183.3307,-5.537042,4.245,-0.2458994,-34.46286,22.77998,1.037567,1006.544
28.801661492,-373.7278,-5.352151,36.2284,1.170227,0.8192677,1.022815,-38.37104,15.95499,-14.51719,1006.54
28.834436417,-409.5094,20.41226,-35.79555,0.867899,-2.100902,0.07387403,-37.47458,6.836379,-14.80999,1006.542
28.867211342,261.5192,5.402717,-63.10233,0.4564175,-0.4770853,0.6418536,-37.47458,6.836379,-14.80999,1006.542
28.899986744,88.07805,-21.24808,-74.77033,0.5312714,0.3697614,0.9552102,-37.58454,13.07257,-11.92378,1006.542
28.935282230,-93.00401,-17.58434,-73.3042,0.4816756,-0.2332783,0.8628526,-38.62476,10.14271,-13.11971,1006.542
28.968057156,-90.89191,-33.12571,-97.37327,0.2699226,-0.6433669,0.7672192,-38.62476,10.14271,-13.11971,1006.54
29.000832558,-72.6284,-55.58093,-122.1754,0.1089768,-0.3451324,0.7743719,-38.93475,7.228081,-13.0734,1006.54
29.033607483,-123.0084,-65.86305,-158.8288,0.1104329,-0.3633161,0.6790862,-39.62371,5.381717,-10.49434,1006.542
29.066381931,-82.07076,-57.88555,-190.9617,0.2318867,-0.4325643,0.4502557,-39.62371,5.381717,-10.49434,1006.544
29.101678371,-24.29844,-52.98085,-223.8886,0.3562131,-0.2236045,0.513667,-40.99608,1.034891,-8.745412,1006.542
29.134453297,24.71486,-63.61753,-244.1702,0.5054584,-0.08424697,0.5535373,-41.5937,-5.870685,-7.392426,1006.542
29.167228699,31.54814,-80.0453,-265.0015,0.6860138,0.3403485,0.4614918,-41.5937,-5.870685,-7.392426,1006.544
29.200003147,-37.90289,-70.41319,-274.3481,0.8916402,0.6416535,0.399417,-40.35482,-13.55835,-5.159151,1006.545
29.235299587,-19.08029,-60.54471,-282.6563,0.6678019,0.8535728,0.4665378,-36.90371,-22.70305,-2.470663,1006.545
29.268074513,-5.227358,-74.43149,-276.1808,0.420491,1.107162,0.390687,-30.55285,-31.47032,-2.776242,1006.544
29.300848961,-90.20858,-66.86763,-257.3043,0.2325266,1.094205,0.2241198,-30.55285,-31.47032,-2.776242,1006.544
29.333623886,-45.04678,-51.0308,-223.1556,0.1905351,0.9897121,0.236411,-22.36026,-38.11536,-3.055516,1006.545
29.366399288,-7.525827,-33.18481,-180.6376,0.2495218,1.133757,0.4285986,-13.90888,-42.53754,-5.110964,1006.541
29.401694775,29.99512,-27.92555,-155.7133,0.3575726,1.243189,0.4869036,-13.90888,-42.53754,-5.110964,1006.545
29.434469700,24.71486,-36.55309,-139.4636,0.3771262,1.375704,0.3990496,-6.535026,-44.39516,-6.397124,1006.547
29.467245102,7.38316,-42.1078,-115.2113,0.3135275,1.333411,0.2067195,-1.059616,-45.13118,-5.957601,1006.547
29.500020027,-6.345532,-31.35293,-77.58043,0.1516759,0.9795721,0.1556497,-1.059616,-45.13118,-5.957601,1006.549
29.535315991,204.2439,-24.3209,-43.8593,0.2896135,1.155544,0.08140891,4.09742,-45.14949,-6.399369,1006.549
29.568090916,98.32798,-8.543157,-19.66805,0.180419,1.567703,0.2302689,6.651671,-45.10889,-2.983923,1006.551
29.600865841,-23.73935,1.679878,3.179247,0.2038177,1.08746,0.05909103,6.651671,-45.10889,-2.983923,1006.55
29.633641243,-16.53334,7.88461,11.243,0.1628055,0.9664316,0.003532751,7.379397,-44.6944,0.801095,1006.55
29.666415692,-30.26203,3.570844,7.455478,0.172814,0.861551,0.1076412,7.377944,-44.70629,-0.06912827,1006.552
29.701712132,14.96189,2.507176,1.957466,0.1825057,0.8825425,0.1730518,7.377944,-44.70629,-0.06912827,1006.553
29.734487057,13.90584,2.625361,-0.3639164,0.1617813,1.036318,0.2494057,7.377321,-44.71139,-0.4420812,1006.557
29.767261505,-0.1955755,0.7343951,0.3691518,0.1731924,0.9316101,0.2365397,6.29185,-45.07321,-0.4349415,1006.559
29.800036431,14.65129,-3.283907,0.796775,0.1814019,0.950673,0.2364915,6.29185,-45.07321,-0.4349415,1006.56
29.835332871,14.96189,-5.824893,-1.524608,0.1790921,0.8939032,0.199999,7.014594,-44.69947,0.3664532,1006.56
29.868107796,33.34964,-7.715858,-2.257676,0.17556,0.9463465,0.1816366,7.01532,-44.69353,0.8015649,1006.562
29.900882244,26.01939,-8.779528,-3.112922,0.1881378,0.9603647,0.1512599,7.01532,-44.69353,0.8015649,1006.564
29.933657646,28.62847,-8.543157,-3.784901,0.1808071,0.9742134,0.1204492,7.744928,-44.68339,1.670848,1006.566
29.966432571,24.52849,-7.834044,-3.540545,0.1773684,0.9866971,0.09877729,7.01885,-44.66466,2.914964,1006.567
30.001728535,18.8755,-5.824893,-2.929655,0.1831988,0.9827591,0.08577263,7.01885,-44.66466,2.914964,1006.567
30.034503460,15.95583,-4.643039,-2.440943,0.1919136,0.9920319,0.07803619,7.748458,-44.65452,3.784248,1006.567
30.067278385,13.65736,-4.052112,-1.830053,0.1919322,0.9837357,0.07564184,7.741697,-44.29008,3.778518,1006.569
30.100053787,11.29677,-3.283907,-1.096985,0.1909471,0.988561,0.07034193,7.741697,-44.29008,3.778518,1006.569
30.135349274,8.439212,-2.69298,-0.4250054,0.18222,0.9826305,0.06844611,7.378865,-44.27902,4.524894,1006.569
30.168124676,9.184661,-3.520278,-0.5471834,0.166693,0.97712,0.06512173,7.379591,-44.27308,4.960005,1006.569
30.200899601,9.805869,-3.99302,-1.035896,0.1613705,0.9682755,0.06033406,7.379591,-44.27308,4.960005,1006.569
30.233674049,10.30284,-3.520278,-1.40243,0.1691236,0.9726366,0.04779369,7.744396,-44.26801,5.394647,1006.571
30.266448975,11.1104,-4.761224,-1.035896,0.171085,0.9638595,0.04395138,8.114508,-44.63926,4.964796,1006.571
30.301745415,19.74519,-6.41582,-2.074409,0.1826899,0.9839048,0.04100547,7.739088,-43.89168,6.25914,1006.572
30.334520340,12.41494,-6.120356,-1.280252,0.1851046,0.987761,0.03232942,7.739088,-43.89168,6.25914,1006.57
30.367294788,14.58917,-7.656766,-0.1195603,0.1687121,0.9379264,0.02955524,7.375633,-43.88571,6.632563,1006.57
30.400070191,32.29359,-10.25684,-1.707875,0.1812663,0.9662257,0.02178102,8.111276,-44.24595,7.072465,1006.57
30.435366631,19.49671,-8.424972,-1.768964,0.1738941,1.001651,0.01211788,8.111276,-44.24595,7.072465,1006.57
30.468141079,18.13005,-7.006746,-2.196587,0.1559639,0.9828668,-0.006103028,7.74189,-43.86876,7.937428,1006.574
30.500916004,18.93762,-9.311361,-1.952231,0.1487063,0.967047,-0.03109278,7.74324,-43.85772,8.745493,1006.575
30.533690930,32.79056,-11.97053,-3.357278,0.1667634,0.923664,-0.05802648,7.74324,-43.85772,8.745493,1006.575
30.566466332,38.13294,-10.6114,-3.662723,0.1821081,1.004113,-0.06396047,8.471395,-43.85946,8.744553,1006.579
30.601761818,27.19969,-8.129508,-2.01332,0.1782515,0.9898697,-0.07644526,8.46754,-43.47125,10.47927,1006.576
30.634537220,24.96334,-6.770376,-1.585697,0.1593017,0.9915325,-0.09469456,8.46754,-43.47125,10.47927,1006.578
30.667312145,22.04366,-6.356727,-1.707875,0.1520536,0.9718199,-0.1191971,9.190283,-43.09752,11.28066,1006.58
30.700086594,25.58455,-6.41582,-1.891142,0.1710417,0.9500451,-0.1216161,8.470343,-43.44832,12.15756,1006.58
30.735383034,30.98906,-6.474912,-3.174011,0.1506029,0.9633141,-0.149988,8.470343,-43.44832,12.15756,1006.58
30.768157959,31.48602,-7.184024,-3.357278,0.1452308,0.9708678,-0.1779056,9.178941,-42.35081,12.57454,1006.58
30.800932408,28.62847,-7.184024,-1.768964,0.1616773,1.000331,-0.1630668,8.811631,-41.95663,14.68268,1006.58
30.833707333,23.0376,-7.597673,-1.585697,0.1345504,0.9637393,-0.2096394,8.811631,-41.95663,14.68268,1006.578
30.866482735,24.40425,-7.952229,-0.9748065,0.1389001,0.9760854,-0.1904139,9.174982,-41.96345,14.2471,1006.576
30.901778221,23.16184,-6.947654,-1.219163,0.1437807,0.9588355,-0.2255389,9.52699,-41.22356,15.10539,1006.576
30.934553623,25.08758,-7.715858,-3.051833,0.1185632,0.9389195,-0.2577003,9.52699,-41.22356,15.10539,1006.576
30.967328548,29.6224,-7.30221,-2.929655,0.1378798,0.9818729,-0.2674381,9.892418,-41.21339,15.91298,1006.574
31.000103474,15.45886,-3.99302,-0.3639164,0.1578703,0.9434199,-0.2881261,9.887836,-40.83112,17.21259,1006.576
31.035399437,13.22251,-2.102053,-4.334702,0.1305937,0.9772246,-0.2967768,9.887836,-40.83112,17.21259,1006.579
31.068174362,-7.401585,-1.274756,-4.273613,0.1476267,0.9648309,-0.2785068,9.889186,-40.82008,18.02065,1006.579
31.100949764,-13.86215,1.148044,-2.929655,0.1278755,0.8953933,-0.2947216,9.888562,-40.82518,17.6477,1006.579
31.133724690,1.668048,0.6162097,-6.839352,0.1312321,0.9114265,-0.304381,9.888562,-40.82518,17.6477,1006.581
31.166499138,-4.54403,1.738971,-3.357278,0.1781875,0.9848217,-0.2420259,9.874313,-40.10225,17.20113,1006.582
31.201795578,0.1150284,0.08437566,0.6745969,0.1428408,0.9421412,-0.2438032,10.25264,-40.82605,17.64723,1006.582
31.234570503,-0.07133393,-2.102053,0.6135079,0.1132081,0.9482556,-0.2394099,10.25264,-40.82605,17.64723,1006.578
31.267344952,3.158946,-3.638463,-0.3639164,0.09820686,0.925193,-0.2460786,10.62275,-41.19731,17.21738,1006.578
31.300119877,9.930111,-3.638463,-1.219163,0.1039971,0.9383076,-0.2581462,10.60923,-40.46843,17.20592,1006.58
31.335416317,17.88157,-3.99302,-1.035896,0.1608022,0.9417137,-0.2568419,9.881802,-40.46074,17.64197,1006.58
31.368190765,20.49064,-5.056688,0.5524189,0.1524327,0.9949082,-0.2313901,9.881802,-40.46074,17.64197,1006.58
31.400966168,6.57559,-5.293058,3.179247,0.07526574,0.9812249,-0.2153015,10.61203,-40.44551,18.88421,1006.58
31.433741093,14.77553,-8.661342,5.561718,0.05978762,0.9552627,-0.2181138,10.60527,-40.08107,18.87848,1006.58
31.466516018,1.916531,-9.843196,4.889739,0.03982287,0.9693659,-0.2671866,10.60527,-40.08107,18.87848,1006.582
31.501811981,13.28463,-14.86607,0.7356859,0.1830755,0.9510179,-0.3464421,10.58572,-38.98182,19.2964,1006.584
31.534586907,-24.11207,-12.91601,2.507267,0.1505929,0.9378981,-0.3030227,11.30638,-38.62507,18.85462,1006.579
31.567362309,-40.20135,-18.47073,9.654682,0.1750357,0.8876358,-0.2062512,11.30638,-38.62507,18.85462,1006.577
31.600136757,16.63915,-22.48903,4.706472,0.1343845,0.8171954,-0.2715138,11.67514,-39.00736,17.6167,1006.577
31.632911682,33.97085,-26.80279,2.140733,0.1507706,1.087152,-0.2016807,10.94626,-39.01156,17.18253,1006.577
31.668208122,5.02257,-31.23475,5.806074,0.1295773,1.000251,-0.2761106,10.94626,-39.01156,17.18253,1006.579
31.700982571,1.792289,-24.97092,6.172608,0.09803279,0.9891456,-0.2943108,12.02497,-38.2853,17.16966,1006.579
31.733757496,-1.003146,-26.80279,11.73171,0.1129947,1.036851,-0.2458006,13.10972,-37.92943,16.72741,1006.581
31.766532421,-18.76969,-28.10283,18.51259,0.1737113,1.027577,-0.251707,13.10972,-37.92943,16.72741,1006.581
31.801828385,-0.5061794,-28.22102,19.18457,0.1515513,0.9422526,-0.3083265,13.45424,-36.83104,17.14486,1006.581
31.834603310,-10.94247,-26.03459,19.73437,0.1316408,0.9460931,-0.2924002,14.1749,-36.4743,16.70308,1006.581
31.867378712,-9.513693,-24.79364,18.20714,0.1027166,0.8566942,-0.2965291,14.1749,-36.4743,16.70308,1006.581
31.900153637,9.743748,-27.39372,16.13012,0.09611435,0.9778842,-0.3005469,13.8101,-36.47937,16.26844,1006.579
31.932928085,-34.17564,-27.09826,18.26823,0.1401486,1.043051,-0.2973801,14.88019,-35.33388,15.81377,1006.575
31.968224525,-36.10138,-28.16193,16.67992,0.1205998,0.890402,-0.3033614,14.88019,-35.33388,15.81377,1006.575
32.000999451,-34.61049,-29.10741,13.38111,0.1168331,0.8462477,-0.2748855,14.50936,-34.96857,15.80851,1006.575
32.033773899,-5.289479,-32.83025,9.960128,0.1566016,0.8579504,-0.3207268,14.51477,-35.34404,15.00618,1006.575
32.066548824,-16.7197,-29.81652,7.760923,0.1084088,0.9011073,-0.3601493,14.51477,-35.34404,15.00618,1006.575
32.101845264,-8.147036,-31.41202,6.111519,0.1542071,0.8357193,-0.3630475,14.51404,-35.34999,14.57107,1006.577
32.134619713,29.18755,-31.11656,5.744985,0.1653256,0.8380651,-0.4593498,14.87136,-34.98643,14.56487,1006.577
32.167395115,44.53138,-24.91183,4.584294,0.1267081,0.9286765,-0.5498908,14.87136,-34.98643,14.56487,1006.577
32.200170040,-2.245561,-9.72501,5.134095,0.2190793,0.873634,-0.5919054,15.66695,-35.35275,14.56958,1006.577
32.232944965,12.47706,3.807214,-3.051833,0.08127144,0.8006961,-0.7594638,16.37555,-34.25525,14.98656,1006.574
32.268240929,8.501332,20.58954,-13.62023,0.06157845,0.903392,-0.8158911,16.37555,-34.25525,14.98656,1006.572
32.301015854,-43.86648,37.54913,-27.54853,0.03848068,0.6221039,-0.756205,16.74639,-34.62055,14.99182,1006.574
32.333791256,77.39327,54.68601,-52.22849,0.02790326,0.3069491,-1.099397,16.36203,-33.52637,14.9751,1006.574
32.366565704,185.7319,69.57738,-61.02531,-0.02698486,1.218913,-0.6510497,16.36203,-33.52637,14.9751,1006.574
32.401862145,-87.66163,96.46455,-78.92439,0.1098905,0.4731905,-0.4042744,16.0278,-34.96032,16.67678,1006.574
32.434637070,18.13005,92.85989,-86.37725,-0.09332579,0.2342726,-0.058296,15.99825,-33.10332,19.19664,1006.576
32.467411518,83.91595,76.01848,-88.75972,-0.1162262,1.2072,0.573764,16.03954,-35.284,19.66613,1006.574
32.500186443,-91.26463,42.45383,-51.55651,-0.7265947,3.795627,1.279394,16.03954,-35.284,19.66613,1006.574
32.532961369,-45.04678,9.716482,47.10225,0.23085,1.148838,0.02812725,15.70779,-36.76765,22.17683,1006.576
32.568257332,-131.4568,-12.38418,71.53786,0.1646452,0.3238712,-0.3709653,14.93967,-38.2753,18.40908,1006.573
32.601032257,-11.87428,-1.865683,41.72641,-0.166152,0.05244084,-0.9753247,14.93967,-38.2753,18.40908,1006.572
32.633807659,0.5498738,17.6349,-20.95092,0.2347272,1.021446,-0.6465591,13.84318,-38.3075,15.86198,1006.572
32.666582585,-112.8205,34.71268,-15.4529,0.1233991,1.13917,-0.3225161,12.7705,-39.40413,15.44547,1006.572
32.701878548,-4.978875,7.470961,30.60821,0.06854258,1.233382,0.1944546,12.7705,-39.40413,15.44547,1006.572
32.734653473,-38.8347,16.33486,-12.58172,0.2773643,0.7976375,0.1060455,13.49451,-39.43984,12.95817,1006.572
32.767428398,99.57039,-16.16611,5.989341,-0.06632436,0.9300692,-0.04737469,12.43535,-41.26535,12.55312,1006.572
32.800202847,76.70995,-25.20729,4.156671,0.09550101,0.6334356,-0.2456325,12.43535,-41.26535,12.55312,1006.572
32.832978249,89.07198,-12.62055,-16.85795,-0.04791847,1.354291,-0.06827492,12.79547,-40.87886,14.22521,1006.572
32.868274212,-7.898551,-23.84816,4.156671,0.4866346,0.9593394,-0.1450027,12.77414,-39.37441,17.62102,1006.572
32.901048660,29.37391,-14.33424,-3.418367,-0.06020799,0.734607,-0.4278517,12.77414,-39.37441,17.62102,1006.572
32.933824062,33.97085,-15.69337,0.06370676,0.1104845,1.26637,-0.2952395,13.46703,-37.56586,16.72121,1006.573
32.966598988,-34.98321,-8.188601,7.699834,0.3228773,1.197516,-0.2263234,14.19196,-37.1743,18.82794,1006.573
33.001894951,-34.362,-15.39791,15.45814,0.2532037,0.6462098,-0.419316,14.19196,-37.1743,18.82794,1006.575
33.034669876,35.02691,-15.16154,15.09161,0.1335886,0.7168797,-0.4085489,15.25456,-35.67032,17.93243,1006.575
33.067444801,69.75242,-4.702132,0.6135079,0.2775378,0.8255785,-0.4287899,15.23428,-34.57701,17.91524,1006.577
33.100219250,3.904396,14.62117,-7.266975,0.1449992,0.8005595,-0.5054557,15.23428,-34.57701,17.91524,1006.577
33.132994652,2.040772,31.52168,-11.35994,0.1363659,0.9658069,-0.4748772,14.13205,-33.81665,20.01859,1006.579
33.168291092,-167.4247,52.73595,-22.60032,0.06607722,1.126177,-0.4412569,14.12529,-33.45221,20.01286,1006.58
33.201065540,-174.0095,85.11875,-36.34535,0.02281494,1.339243,-0.4963506,14.12529,-33.45221,20.01286,1006.58
33.233840466,-333.5357,127.2518,-2.563121,-0.0213709,1.174741,-0.2861241,14.10762,-32.7573,17.51505,1006.58
33.266615391,-250.915,177.5988,29.20317,-0.3462246,0.5753828,-0.2185037,13.41079,-35.01775,12.01823,1006.58
33.301911354,-100.6449,160.1664,31.52455,-0.4108295,0.2143412,-0.02141076,13.41079,-35.01775,12.01823,1006.58
33.334686279,57.07978,131.9202,30.30277,-0.1438034,0.4584517,0.09263343,11.64107,-38.44661,5.297798,1006.582
33.367461205,174.6123,107.2194,20.34526,-0.0297108,0.6258283,-0.1384617,9.474809,-39.55167,4.074632,1006.582
33.400236607,215.3635,127.2518,8.005279,0.02792701,0.8745723,-0.2270625,9.474809,-39.55167,4.074632,1006.582
33.433011055,96.46436,99.41918,-18.20191,-0.01744491,1.301723,0.4602672,8.769313,-40.20407,9.557007,1006.582
33.468307495,78.57357,33.7672,-29.13684,0.3911032,0.5544189,0.1528344,8.009104,-37.94608,14.62059,1006.582
33.501082420,266.7374,-33.95301,-18.75171,0.4516373,1.413069,0.009394952,9.073135,-36.08066,17.94711,1006.584
33.533856869,78.01448,-54.69454,-24.24972,0.482129,1.611278,-0.2398401,9.073135,-36.08066,17.94711,1006.584
33.566631794,5.146811,-46.89431,-36.77297,0.1579742,1.283953,-0.4152377,10.83653,-32.70359,20.87585,1006.584
33.601928234,2.910463,-31.47112,-14.10894,-0.176311,1.399043,-0.2721352,13.33025,-29.80015,20.39161,1006.584
33.634702683,25.77091,-14.15696,7.699834,-0.2396764,0.8840972,-0.2866124,13.33025,-29.80015,20.39161,1006.584
33.667478085,140.8807,-4.938502,15.15269,-0.1418024,0.7573723,-0.3477865,14.0503,-29.44849,19.57688,1006.583
33.700253010,84.72353,-3.402092,22.23902,-0.01055546,0.9304244,-0.2034687,14.05913,-29.79595,20.82578,1006.585
33.733027935,103.2355,-10.13866,3.118158,0.005025093,0.6630029,-0.4375258,14.05913,-29.79595,20.82578,1006.585
33.768323898,25.52243,-19.77077,-8.122221,0.06148449,0.9938621,-0.5527224,14.38545,-27.58727,22.46922,1006.589
33.801098824,-7.712189,4.81179,-8.427667,0.0188529,0.9460464,-0.5838378,14.36662,-26.48208,23.32226,1006.585
33.833873749,-21.62724,6.052736,-8.672023,-0.06934042,1.086012,-0.5212625,14.36662,-26.48208,23.32226,1006.585
33.866648197,10.73768,-3.224814,18.69586,-0.05389713,1.149822,-0.3986481,14.72248,-26.1304,22.44583,1006.587
33.901944637,-3.73646,10.30741,20.52853,0.05336202,1.179212,-0.363326,14.3712,-26.86435,22.02265,1006.588
33.934719086,-46.84828,4.398141,31.15801,0.02004272,1.082312,-0.460336,14.3712,-26.86435,22.02265,1006.588
33.967494488,-17.65151,0.4389318,25.66,0.145179,0.7144678,-0.5592389,14.39221,-27.95171,22.47495,1006.59
34.000269413,-25.04389,2.861732,18.57368,0.02076179,0.9899957,-0.4293914,12.5868,-28.66434,23.35898,1006.59
34.033044338,-53.1846,6.052736,7.394389,0.02392584,0.6716831,-0.4727231,12.5868,-28.66434,23.35898,1006.592
34.068340302,-6.842498,8.416443,-7.205886,-0.01620914,0.815889,-0.4184514,11.87289,-29.38552,23.8065,1006.586
34.101115227,-22.93178,13.14386,-3.051833,0.0232557,0.7713355,-0.3592703,10.80552,-30.85848,22.52549,1006.586
34.133890629,1.481686,7.766424,10.14339,-0.04917778,0.8325644,-0.2220027,10.80552,-30.85848,22.52549,1006.586
34.166664600,-1.065266,0.202561,11.18191,-0.05123159,0.8888944,-0.1734652,10.82581,-31.95179,22.54268,1006.586
34.201961041,21.29821,-5.470336,22.48338,0.1672934,0.8703108,-0.2370139,10.82518,-31.95689,22.16973,1006.584
34.234736443,31.98299,0.1434683,15.76358,0.06881393,0.8062484,-0.3661701,10.82518,-31.95689,22.16973,1006.586
34.267510891,11.48313,7.116405,4.706472,0.1479556,1.016935,-0.350309,10.48201,-33.04423,22.56034,1006.586
34.300285816,0.6741154,2.920825,0.7356859,0.2101211,0.9994687,-0.415414,9.741063,-32.30767,22.98493,1006.584
34.333060742,24.09365,11.13471,6.661321,-0.04360448,1.099375,-0.4515463,9.741063,-32.30767,22.98493,1006.584
34.401131630,24.59061,-1.865683,21.56704,0.1056951,0.6016495,-0.4164921,9.36419,-31.57198,23.40905,1006.584
34.433907032,31.1133,6.170922,12.3426,-0.1764201,0.9796177,-0.5641708,9.36419,-31.57198,23.40905,1006.586
34.466681957,-13.61366,7.530054,6.661321,0.11417,0.9364997,-0.3202632,8.657046,-32.6576,23.8623,1006.586
34.501977444,4.774087,-20.59806,22.23902,0.1055697,0.6532308,-0.4228273,8.636762,-31.56429,23.84511,1006.586
34.534752846,61.86308,-20.06623,-5.495394,0.2036861,1.044979,-0.4467558,7.914642,-31.93292,23.41666,1006.588
34.567527294,-5.040996,-10.72959,29.87514,0.04583186,0.8818449,-0.3233883,7.914642,-31.93292,23.41666,1006.588
34.600302220,48.94196,-10.43412,5.683896,0.167162,0.9253348,-0.2385406,8.636762,-31.56429,23.84511,1006.589
34.633077145,-16.47122,-27.39372,17.29081,0.3221785,0.8370758,-0.4399845,8.637488,-31.55834,24.28022,1006.589
34.668373108,90.87348,-13.68422,6.478054,0.08513194,0.6321633,-0.6263631,8.637488,-31.55834,24.28022,1006.591
34.701148033,22.04366,0.1434683,-5.006681,0.1943674,1.296503,-0.4052343,8.630001,-31.19985,23.83938,1006.589
34.733923435,-18.2106,-20.83443,13.992,0.344706,0.5402237,-0.5021675,8.611067,-30.0955,24.63025,1006.589
34.766698361,97.83101,29.09888,-11.72647,0.2671823,1.051815,-0.6606414,8.611067,-30.0955,24.63025,1006.59
34.801994324,-82.94045,54.74511,-5.73975,-0.2977729,1.344393,-0.7011395,8.605032,-29.72512,25.05963,1006.59
34.834769249,-65.11179,53.32688,2.812712,0.2713286,0.7725854,-0.4777942,8.214637,-28.26056,25.47229,1006.59
34.867544174,-28.27417,73.35931,-14.17003,0.307259,0.7870041,-0.4085851,8.214637,-28.26056,25.47229,1006.59
34.900318623,-61.13606,41.27197,-26.51002,0.03260397,0.7349408,-0.281257,7.513527,-29.71656,25.49615,1006.592
34.933094025,34.34358,-14.03878,-25.4715,0.4541205,0.46739,-0.5316803,6.421295,-29.71394,25.49756,1006.59
34.968389988,58.57068,-4.524854,-36.16208,0.297627,0.9351403,-0.5262377,6.421295,-29.71394,25.49756,1006.59
35.001164436,-74.49203,13.43932,-41.23247,0.0005012811,1.133332,-0.4541088,7.521015,-30.07505,25.93699,1006.59
35.033939838,-41.87862,15.44847,-48.56315,-0.02969342,0.7447799,-0.5425036,7.500004,-28.98768,25.48469,1006.592
35.066714764,9.246782,-3.343,-19.11825,0.006271501,1.174423,-0.3651326,7.500004,-28.98768,25.48469,1006.592
35.102010727,-22.24845,-24.61637,-5.678661,0.1676554,0.8906024,-0.4011897,7.876151,-29.72932,24.62546,1006.592
35.134785652,13.71948,-20.42078,-9.771625,0.2093928,0.9123381,-0.3373003,8.611067,-30.0955,24.63025,1006.594
35.167560577,-4.047063,-15.87065,-4.579059,0.05214733,0.8885136,-0.2824976,8.611067,-30.0955,24.63025,1006.594
35.200335026,2.040772,-20.36169,-13.19261,-0.000379051,0.9185679,-0.3098559,9.716821,-30.82699,24.6403,1006.592
35.233110428,-15.29093,-16.63885,-7.511331,0.01772681,0.8511968,-0.354564,9.710786,-30.45661,25.06968,1006.594
35.268406868,-1.934957,-14.6297,0.5524189,-0.01775195,0.8640339,-0.356906,9.710786,-30.45661,25.06968,1006.59
35.301180840,-9.513693,-12.50237,13.93091,0.05567696,0.8198661,-0.3531627,11.53793,-30.82541,25.07306,1006.59
35.333956242,25.27394,-14.6888,22.911,0.1166994,0.6916218,-0.3083475,11.1671,-30.4601,25.0678,1006.59
35.366731167,67.39183,-29.1665,13.56438,0.2089675,0.8617501,-0.4676721,11.1671,-30.4601,25.0678,1006.588
35.402027130,15.45886,-23.61179,4.401027,0.1771868,1.147991,-0.5195338,10.80978,-30.82367,25.074,1006.588
35.434802055,-12.80609,-11.32051,5.134095,0.1290932,0.9452022,-0.5576231,11.51838,-29.72616,25.49098,1006.588
35.467576981,-13.1167,-3.165722,5.561718,0.137695,1.018882,-0.4783298,11.51838,-29.72616,25.49098,1006.588
35.500351429,-28.27417,9.302834,10.63211,-0.009478506,0.8547992,-0.3641321,11.49737,-28.63879,25.03868,1006.588
35.533126831,-11.9364,3.9254,6.966765,-0.02471992,0.7436393,-0.2922055,11.50413,-29.00323,25.04441,1006.588
35.568423271,0.5498738,-11.55688,7.211122,0.03083244,0.8679037,-0.2790464,9.703299,-30.09812,24.62884,1006.588
35.601197720,23.53456,-9.784102,10.57102,-0.001228616,0.8421633,-0.4401878,9.703299,-30.09812,24.62884,1006.588
35.633972645,32.72844,-15.63428,6.416965,0.06742772,0.9507763,-0.5223458,10.43894,-30.45836,25.06874,1006.584
35.666747570,4.339242,-10.37503,4.21776,0.1958366,1.05325,-0.5786428,10.4276,-29.71165,26.36262,1006.584
35.699522972,-33.24383,-3.697556,10.99864,0.1036025,1.066494,-0.4542527,10.4276,-29.71165,26.36262,1006.584
35.734818459,-15.85001,-9.547732,7.150033,0.1714346,0.9354579,-0.3988595,10.7767,-28.99554,25.48046,1006.584
35.767593384,-52.99823,-7.243117,8.616169,0.0677279,0.8468726,-0.4061818,11.14681,-29.36679,25.05061,1006.585
35.800367832,-11.99852,-5.352151,3.912315,0.009165608,0.7680514,-0.3943714,11.14681,-29.36679,25.05061,1006.585
35.833143234,-22.93178,-0.2110877,0.3080628,0.1304693,0.817188,-0.3379325,9.345982,-30.46168,24.63504,1006.585
35.868439674,-17.71363,6.289107,0.3080628,0.07114088,0.8723806,-0.2440094,10.08766,-31.1923,24.64556,1006.585
35.901214123,-29.70294,-8.070415,-0.7304505,0.133833,1.03739,-0.3334587,10.08766,-31.1923,24.64556,1006.585
35.933989048,-72.00719,-1.452034,4.950828,0.1269725,0.8666472,-0.2951575,10.08704,-31.1974,24.27261,1006.583
35.966763973,-7.463706,-7.774951,7.150033,0.04095944,0.8916454,-0.3089507,10.08413,-31.22117,22.53216,1006.585
35.999539375,-45.04678,-19.35712,10.81537,0.1932419,1.412287,-0.1425827,10.08413,-31.22117,22.53216,1006.585
36.034834862,-261.7862,-3.165722,19.18457,0.09052896,1.483664,-0.3306591,10.09765,-31.95005,22.54362,1006.585
36.067610264,-206.8714,-29.22559,16.98536,0.01118573,1.22085,0.00206483,9.740766,-32.72985,18.76386,1006.585
36.100384712,-233.8939,-30.34835,25.96545,0.1495004,1.045107,-0.01292057,9.740766,-32.72985,18.76386,1006.585
36.133159637,-154.9384,-36.84855,31.09693,0.008018525,0.9537186,0.1825042,9.441599,-36.88513,12.48812,1006.586
36.168456078,-179.7867,-52.6263,24.68258,0.1537139,0.7719824,0.3475397,8.737285,-38.78709,6.550464,1006.586
36.201230526,-155.1248,-69.70408,14.72507,0.1235248,0.5971741,0.3194744,8.737285,-38.78709,6.550464,1006.588
36.234005451,-90.82979,-69.99954,7.516567,0.09497818,0.3525475,0.334833,7.291501,-39.95672,0.7266049,1006.588
36.266780376,7.631643,-77.91796,5.561718,0.09333599,0.4643023,0.5089214,6.934614,-40.73652,-3.053153,1006.588
36.299555779,43.16473,-98.6004,-23.21121,0.1722219,0.1563052,0.4572115,6.934614,-40.73652,-3.053153,1006.588
36.334851265,191.944,-108.4098,-45.08108,0.08703468,0.8285851,0.3028459,5.834894,-40.37541,-3.492585,1006.588
36.367626667,105.5961,-130.7468,-48.74642,0.04675432,1.45036,0.3958698,6.591118,-41.40678,1.185576,1006.588
36.400401116,31.05118,-117.9237,-46.54721,0.1790631,1.064667,-0.03708826,6.591118,-41.40678,1.185576,1006.588
36.433176041,105.4719,-90.97744,-16.98013,0.3718911,1.40305,-0.2849942,8.376439,-39.17952,4.443264,1006.588
36.468472481,87.70532,-66.21761,7.455478,0.1788865,1.064421,-0.4226582,10.56589,-39.144,7.424067,1006.588
36.501246929,57.07978,-50.32168,16.67992,0.2468097,1.250984,-0.640676,10.56589,-39.144,7.424067,1006.586
36.534021855,40.30717,-17.46615,23.58298,0.1079767,1.012033,-0.7271131,11.27801,-38.01762,9.954449,1006.58
36.566796780,90.87348,13.20295,23.03318,0.2006199,0.9061948,-0.4398004,11.63813,-37.63113,11.62654,1006.58
36.599572182,4.649846,19.76224,29.32534,0.394373,1.149433,-0.223051,11.63813,-37.63113,11.62654,1006.58
36.634867668,34.7163,34.77178,19.42892,0.1163078,0.8804779,-0.1844399,10.89999,-36.87164,13.72942,1006.58
36.667643070,-32.68474,27.20792,18.51259,0.4344153,1.119461,0.1114456,9.814513,-37.23346,13.73656,1006.579
