Time (s),Gyroscope X (deg/s),Gyroscope Y (deg/s),Gyroscope Z (deg/s),Accelerometer X (g),Accelerometer Y (g),Accelerometer Z (g),Magnetometer X (uT),Magnetometer Y (uT),Magnetometer Z (uT),Barometer (hPa)
0.000000000,0.2721551,0.3317723,-0.3700406,-0.02697342,0.9908692,0.08701256,3.077838,-37.47013,2.500669,1007.752
0.034765720,1.449655,-0.07914713,-0.918507,-0.03226733,0.9792299,0.08405715,2.376255,-37.45089,3.383153,1007.752
0.067047596,3.556759,0.0969612,-0.918507,-0.03034974,0.9840534,0.07779575,2.388901,-37.80977,3.823496,1007.751
0.101812840,1.759523,0.3317723,-0.4309813,-0.03034732,0.9845521,0.08214952,2.388901,-37.80977,3.823496,1007.751
0.134095192,-0.9053444,0.2143668,-0.2481592,-0.03230862,0.9956737,0.08125012,3.500541,-37.44595,4.673788,1007.751
0.168860435,-1.711002,0.155664,-0.004396385,-0.03229124,0.9908589,0.08847428,2.751017,-37.44924,3.813365,1007.751
0.201142311,-0.8433707,0.3317723,0.05654432,-0.03130571,0.9845854,0.09278743,2.751017,-37.44924,3.813365,1007.751
0.233424663,2.813075,-0.1965527,-0.6138034,-0.04137178,0.945829,0.08872125,2.739032,-37.45487,3.377638,1007.751
0.268189907,4.796232,-0.3139583,0.117485,-0.04437283,0.9854782,0.08170158,2.751017,-37.44924,3.813365,1007.749
0.300472259,7.027284,0.03825843,2.006647,-0.03618072,0.9980904,0.08368939,2.751017,-37.44924,3.813365,1007.749
0.335237503,5.973732,-0.1378499,1.092536,-0.02399485,0.9565023,0.08197634,3.114455,-37.81774,3.812465,1007.749
0.367519379,11.73728,-0.900986,-0.1872185,-0.02498077,0.9627741,0.07717974,2.764325,-38.17264,4.258324,1007.749
0.402285099,16.32333,0.2730695,-1.588855,-0.02452979,0.9748573,0.07241309,3.125779,-37.44759,4.243576,1007.749
0.434566975,18.49241,-0.1965527,-2.685787,-0.0264882,0.9781722,0.05261518,3.125779,-37.44759,4.243576,1007.749
0.466848850,23.01649,-2.016339,-3.599898,-0.0298246,0.9573503,0.0515371,2.775649,-37.80248,4.689434,1007.749
0.501614571,29.46175,-2.955583,-4.63589,-0.03468411,0.9626122,0.03755777,2.800009,-37.06138,5.613902,1007.749
0.533896446,35.10136,-2.016339,-4.757771,-0.04100379,0.9673418,0.01052571,2.800009,-37.06138,5.613902,1007.749
0.568661690,36.96057,-1.781528,-3.843661,-0.04924846,0.9686832,-0.01507114,3.185044,-37.0549,6.417594,1007.749
0.600944042,41.17477,-2.368556,-4.026483,-0.02466159,0.9821301,-0.06629218,3.5951,-36.67184,8.15037,1007.749
0.635709286,23.6982,-3.601314,-7.25634,-0.03831023,1.02513,-0.0752036,3.5951,-36.67184,8.15037,1007.749
0.667992115,12.60491,1.799342,-10.42526,-0.06051648,1.007627,-0.08057309,3.257617,-37.38561,9.036571,1007.749
0.700273991,12.66689,5.438914,-6.707874,-0.0628823,0.9907317,-0.0661609,3.61841,-36.29605,9.017207,1007.751
0.735038757,16.94307,8.72627,-0.918507,-0.07794172,1.019232,-0.06838357,3.61841,-36.29605,9.017207,1007.751
0.767321587,13.22465,13.5399,1.519121,-0.05997388,0.9863714,-0.07005947,3.641719,-35.92027,9.884046,1007.751
0.802086830,13.72044,12.07233,4.444275,-0.04888831,0.995539,-0.08743503,3.290266,-35.54613,10.32067,1007.749
0.834368229,6.655442,8.197945,4.688038,-0.04029167,1.03177,-0.1133532,3.290266,-35.54613,10.32067,1007.749
0.866651058,4.734259,2.679883,-0.4309813,-0.03547214,1.025854,-0.1496552,3.314898,-35.89938,11.19674,1007.749
0.901416302,-4.251922,0.3904751,-5.245297,-0.04408582,0.9983482,-0.1193364,3.665689,-35.909,10.7555,1007.749
0.933698654,-3.942054,1.094908,-6.159408,-0.05564949,0.9789398,-0.1247396,3.665689,-35.909,10.7555,1007.749
0.968463898,-3.446265,1.799342,-4.148364,-0.05563156,0.9760821,-0.1112196,3.290266,-35.54613,10.32067,1007.749
1.000745773,-0.5954761,1.799342,-2.807669,-0.06820928,0.985308,-0.09131907,4.040452,-35.90735,11.18571,1007.747
1.035511494,4.672285,8.432756,0.5440699,-0.07930966,0.9785225,-0.08504903,4.040452,-35.90735,11.18571,1007.749
1.067793369,16.8811,7.610917,0.05654432,-0.0759472,0.9759963,-0.1193948,3.665689,-35.909,10.7555,1007.749
1.100075245,24.13201,7.082592,0.6050107,-0.06047746,0.9740704,-0.1295913,3.302913,-35.90501,10.76101,1007.749
1.134840965,26.0532,5.849833,2.128528,-0.05277607,0.9998455,-0.09852125,3.302913,-35.90501,10.76101,1007.749
1.167122841,29.5857,5.438914,-0.4309813,-0.05755895,0.9629107,-0.1407801,3.688337,-35.1687,11.61772,1007.751
1.201888084,33.36609,7.904431,2.920758,-0.0619425,0.9720519,-0.1528047,3.362178,-35.51232,12.93503,1007.752
1.234170437,42.16636,6.143347,3.10358,-0.08223988,0.9451647,-0.2157608,3.009402,-34.40915,13.36243,1007.752
1.268935680,51.77227,4.558372,4.688038,-0.04170219,0.9786671,-0.217108,3.009402,-34.40915,13.36243,1007.752
1.301218033,50.34688,2.445072,4.139572,-0.04891701,0.9465531,-0.2627183,2.68258,-34.38826,14.67512,1007.748
1.333499908,42.41425,1.094908,3.712987,-0.0741665,0.9699906,-0.322477,2.378407,-33.62707,16.85004,1007.748
1.368265152,28.78004,1.094908,3.530164,-0.0620584,0.9617983,-0.3225497,2.378407,-33.62707,16.85004,1007.748
1.400547504,18.61636,2.210261,3.469224,-0.03975958,0.9386366,-0.3217626,2.764493,-33.25527,17.71136,1007.748
1.435312748,3.680707,0.3904751,-0.06533709,-0.03443978,0.9386551,-0.3208071,2.401055,-32.88676,17.71226,1007.748
1.467594623,-2.206791,-1.1945,-4.63589,-0.02377787,0.9363413,-0.298605,2.401055,-32.88676,17.71226,1007.748
1.502360344,4.796232,-2.662069,-5.976585,-0.01859874,0.983178,-0.3336409,2.037616,-32.51826,17.71316,1007.748
1.534642219,11.79926,-5.303694,-5.976585,-0.002994684,0.9388056,-0.3029867,2.773832,-31.79157,18.12863,1007.748
1.566925049,12.85281,-3.3078,-5.428119,-0.06388519,0.9187462,-0.3160224,2.773832,-31.79157,18.12863,1007.748
1.601689815,14.09228,-2.838178,-7.500103,-0.09238697,0.9065614,-0.3174806,3.488062,-32.1697,17.68648,1007.748
1.633971691,12.48097,-4.012233,-8.170451,-0.08192452,0.9752557,-0.333066,3.512694,-32.52295,18.56255,1007.75
1.668737888,14.34018,-4.481855,-3.721779,-0.07999394,0.9654728,-0.3655162,3.512694,-32.52295,18.56255,1007.748
1.701019287,19.17412,-4.951478,-0.5528627,-0.1045575,0.9247572,-0.3642444,3.13661,-31.79556,18.12311,1007.75
1.733301163,30.70122,-8.004022,2.859817,-0.04577953,0.8199972,-0.339828,3.147272,-31.0609,18.54961,1007.75
1.768067360,56.11043,-5.303694,7.674132,-0.0798861,0.9185187,-0.3696509,3.147272,-31.0609,18.54961,1007.75
1.800349235,68.00936,-6.360344,7.064725,-0.07412478,0.9217852,-0.4102536,3.907458,-30.32294,19.83652,1007.75
1.835114002,62.24582,-9.295483,5.72403,-0.04275119,0.91773,-0.4910785,3.579977,-29.93753,21.1446,1007.75
1.867396831,48.79753,-9.530294,3.591105,-0.07109917,0.8411894,-0.4909692,3.579977,-29.93753,21.1446,1007.75
1.902162075,39.56346,-7.240886,2.676995,-0.05184374,0.8662976,-0.5237417,3.263818,-29.18197,22.8838,1007.75
1.934444427,29.70964,-5.949425,1.823825,-0.04461049,0.8642811,-0.5537421,3.660566,-28.07551,24.17161,1007.75
1.966726303,19.11215,-3.718719,2.006647,-0.0692145,0.8492972,-0.5276685,3.660566,-28.07551,24.17161,1007.75
2.001491547,8.390704,-2.662069,0.6659514,-0.04544474,0.8091202,-0.5511532,3.684926,-27.3344,25.09608,1007.75
2.033773899,4.548337,-0.1965527,-0.4919221,-0.08073316,0.8061305,-0.5467432,3.682552,-26.97069,25.02922,1007.75
2.068539143,10.7457,-0.372661,-2.259202,-0.07158674,0.8265113,-0.5379452,3.68189,-26.60618,25.0246,1007.748
2.100821018,17.06702,-0.6661749,-5.610941,-0.06776807,0.8370672,-0.5678666,3.68189,-26.60618,25.0246,1007.748
2.135586738,32.25057,-1.546717,-6.037526,-0.09423844,0.7876633,-0.5584217,3.693876,-26.60054,25.46033,1007.748
2.167868614,52.20609,-1.018392,-5.062475,-0.107865,0.8068097,-0.6090445,4.082335,-26.59246,26.38851,1007.748
2.200150966,90.31988,-2.603367,1.580062,-0.1562443,0.8085236,-0.6335859,4.082335,-26.59246,26.38851,1007.748
2.234916210,137.2959,9.254595,-16.58027,-0.2406598,0.8789635,-0.7678828,3.399704,-24.74017,28.05713,1007.752
2.267198086,160.1022,14.53784,-55.27761,-0.2672188,0.8287038,-0.8681831,4.531345,-22.17798,29.75117,1007.752
2.301963806,218.1096,28.21559,-80.75083,-0.1498888,0.6358402,-1.045021,4.531345,-22.17798,29.75117,1007.752
2.334245682,181.2972,-80.44325,-78.49603,0.09151624,0.786984,-1.059185,4.247173,-19.21843,32.76985,1007.751
2.369010925,59.58095,20.64293,-12.68006,-0.06224287,1.054323,-0.8658917,5.395508,-12.6353,35.28458,1007.751
2.401293278,44.52135,14.89006,16.57147,-0.03154842,0.7490187,-0.8768792,5.395508,-12.6353,35.28458,1007.749
2.433575153,11.9232,18.99925,34.4271,-0.1206557,0.6246193,-0.8106799,6.872098,-6.862853,36.49661,1007.749
2.468340397,9.568204,17.06206,43.81197,-0.1750368,0.5488172,-0.7133391,6.882099,-5.763671,36.91849,1007.749
2.500622749,10.00202,4.793183,48.87005,-0.1967851,0.5414715,-0.7205856,6.882099,-5.763671,36.91849,1007.749
2.535387993,9.134388,1.271017,50.82015,-0.1893084,0.4241605,-0.7865329,6.155223,-5.026663,36.92029,1007.749
2.567670822,13.53452,-2.603367,51.67332,-0.1734158,0.4752495,-0.7181119,6.131252,-5.037931,36.04884,1007.751
2.602435589,-8.404158,-9.999916,53.80625,-0.144447,0.5020271,-0.6948169,6.131252,-5.037931,36.04884,1007.751
2.634717464,-35.48664,-16.80944,53.25778,-0.1651179,0.434546,-0.7410828,5.441654,-5.013051,37.36705,1007.751
2.667000294,-17.14244,-21.21215,49.96698,-0.1775568,0.3710467,-0.7617214,4.715439,-4.640558,37.37347,1007.749
2.701765060,-21.41863,-30.722,49.23569,-0.1896418,0.4047455,-0.6604651,4.715439,-4.640558,37.37347,1007.747
2.734046936,-26.50047,-38.35336,47.71218,-0.2370234,0.399259,-0.6686126,5.429007,-4.65417,36.92671,1007.745
2.768813133,-33.13165,-46.92397,42.16657,-0.2368994,0.3289157,-0.7202573,6.154561,-4.662147,36.91568,1007.74
2.801095009,-24.02152,-52.79424,35.82874,-0.2180079,0.3056509,-0.7470195,6.154561,-4.662147,36.91568,1007.74
2.833377361,-10.44929,-58.72322,30.70972,-0.2499354,0.305504,-0.7633885,6.869452,-5.40479,36.47815,1007.742
2.868142605,-11.81271,-63.12593,28.02833,-0.245615,0.310761,-0.7865729,8.319899,-5.056228,36.45147,1007.74
2.900424480,-5.181527,-64.94572,26.56575,-0.2466267,0.3203468,-0.8131054,8.319899,-5.056228,36.45147,1007.74
2.935190201,-16.46073,-66.23717,24.43283,-0.213197,0.2586507,-0.9116662,10.48524,-5.45031,35.98727,1007.734
2.967472076,-8.466132,-57.25565,18.39969,-0.1952293,0.1783884,-1.049458,12.27449,-5.117005,35.08362,1007.734
3.002237320,27.04478,-49.68299,11.33057,-0.1961906,0.1725458,-1.059158,15.5275,-5.158536,34.59826,1007.74
3.034519672,37.02254,-46.10212,8.771066,-0.2084684,0.2899855,-0.9511402,15.5275,-5.158536,34.59826,1007.736
3.066801548,20.84741,-42.99088,7.491311,-0.2576652,0.2610414,-0.8825505,17.32807,-4.455082,34.12572,1007.736
3.101566792,8.638598,-45.33899,7.247548,-0.3065804,0.3123817,-0.828008,19.49076,-3.3911,33.64305,1007.74
3.133849144,-12.55639,-46.21953,5.175564,-0.3577004,0.2409633,-0.8679459,19.49076,-3.3911,33.64305,1007.74
3.168614387,-6.049159,-47.39359,-1.22321,-0.3746194,0.2360495,-0.8756724,20.57777,-2.674035,33.61728,1007.74
3.200896740,-5.429422,-44.86937,-8.840798,-0.3483825,0.1687188,-0.917204,22.71914,-3.079385,32.28162,1007.74
3.235661983,16.38531,-43.16698,-16.33651,-0.3485505,0.2559832,-0.8702974,22.71914,-3.079385,32.28162,1007.739
3.267943859,16.38531,-41.22979,-20.23671,-0.3698767,0.302138,-0.7984401,23.77085,-2.743738,30.95327,1007.74
3.300226211,4.982153,-41.05368,-22.79622,-0.442992,0.3772593,-0.7031013,25.19666,-2.04193,30.05053,1007.74
3.334991455,-7.288632,-46.51304,-24.19786,-0.5237734,0.4003634,-0.6713724,25.19666,-2.04193,30.05053,1007.74
3.367273331,-29.35126,-53.02905,-24.01504,-0.5730401,0.3818806,-0.6573516,26.26075,-0.9708123,29.21093,1007.742
3.402039051,-30.52876,-57.02084,-23.89315,-0.6096855,0.3308959,-0.6773835,28.04829,-0.6383128,28.24503,1007.742
3.434320927,-20.36507,-61.01263,-25.78232,-0.6289548,0.2925366,-0.6993148,28.04829,-0.6383128,28.24503,1007.744
3.469086170,-28.79349,-63.88906,-26.75737,-0.6256589,0.3288278,-0.702983,29.46344,-0.6711707,26.91579,1007.744
3.501368523,-14.78745,-60.60171,-27.91524,-0.6633142,0.283039,-0.7597246,30.86595,-0.3451471,25.1462,1007.745
3.533650398,-23.02994,-57.66657,-27.42772,-0.6560506,0.2801709,-0.7554057,30.86595,-0.3451471,25.1462,1007.745
3.568416119,-8.28021,-50.91575,-26.02608,-0.6875141,0.314151,-0.6976153,31.90568,-0.01513529,23.38214,1007.745
3.600697994,-19.68336,-49.38948,-22.67434,-0.6978258,0.3936124,-0.6599165,34.04639,-0.05597019,22.04186,1007.745
3.635463238,-26.87231,-43.22569,-21.45553,-0.7547058,0.3081828,-0.6883192,34.04639,-0.05597019,22.04186,1007.745
3.667746067,-28.48362,-40.40796,-21.82117,-0.7905346,0.3284121,-0.6861932,34.37254,0.2876539,20.72455,1007.745
3.700027466,-16.39876,-36.76838,-21.45553,-0.7896242,0.3726489,-0.627931,35.05148,-0.4718928,18.97984,1007.747
3.734792709,-26.87231,-33.71584,-20.48047,-0.823488,0.3939891,-0.5851941,35.05148,-0.4718928,18.97984,1007.747
3.767075539,-25.26099,-28.96091,-21.33364,-0.9033026,0.4180721,-0.5510443,35.40227,-0.4815164,18.5386,1007.749
3.801840305,-38.70927,-26.02578,-23.64939,-0.9477578,0.4048789,-0.5510235,36.79279,-0.1611271,16.33329,1007.751
3.834122181,-31.58231,-23.14934,-27.06207,-0.9884113,0.4319807,-0.5159743,36.79279,-0.1611271,16.33329,1007.751
3.868888378,-19.18757,-20.50772,-31.02322,-1.013149,0.4653094,-0.5133142,36.05591,-0.5233006,15.91321,1007.752
3.901170254,-13.11416,-15.75279,-34.19213,-1.023995,0.571438,-0.4599926,36.03194,-0.5345697,15.04176,1007.754
3.933452606,-12.24652,-8.767158,-33.70461,-1.012998,0.6554923,-0.3701023,36.37074,-0.5498271,14.16479,1007.756
3.968217850,-32.57388,-8.18013,-28.95123,-1.010397,0.5932215,-0.326469,36.37074,-0.5498271,14.16479,1007.758
4.000499725,-13.85784,-8.884563,-21.27271,-0.9177471,0.4837681,-0.2876491,36.36942,0.1792045,14.15555,1007.758
4.035265446,-9.023894,-6.066831,-6.585992,-0.8244354,0.489847,-0.2863653,35.994,0.5420732,13.72073,1007.761
4.067547321,-23.15389,-7.5344,2.189469,-0.8146158,0.4210995,-0.3036977,35.994,0.5420732,13.72073,1007.761
4.102312565,-13.98179,-9.412889,2.920758,-0.8525649,0.3013289,-0.342972,36.73022,1.268763,14.13619,1007.763
4.134594917,-12.43245,-13.46338,0.7268921,-0.8858781,0.2882526,-0.3178358,36.71955,0.5340967,13.7097,1007.763
4.166876793,-7.5985,-14.69614,-2.563906,-0.9051501,0.2630756,-0.305368,36.71955,0.5340967,13.7097,1007.763
4.201642513,-9.829553,-17.16166,-8.353273,-0.9458927,0.3161965,-0.3035278,36.69426,1.25186,12.82901,1007.764
4.233924389,-24.64126,-20.91863,-13.89888,-0.9554174,0.2415194,-0.3406733,36.67162,0.5115585,11.96679,1007.766
4.268689632,-14.4156,-22.2688,-19.07884,-0.9370701,0.2585618,-0.3251459,36.67162,0.5115585,11.96679,1007.768
4.300971985,-12.61837,-18.92274,-23.9541,-0.9259213,0.2391595,-0.3480018,37.01108,0.1317854,11.09443,1007.768
4.335737228,5.911758,-13.8743,-29.07311,-0.9120079,0.2998299,-0.3065946,36.98645,0.4850316,10.21837,1007.768
4.368019104,7.4611,-9.530294,-31.75451,-0.9081217,0.3004035,-0.2833946,36.98645,0.4850316,10.21837,1007.77
4.400301456,13.47254,-6.242939,-31.32792,-0.9266088,0.3551053,-0.2622559,36.58639,1.201148,8.90747,1007.77
4.435066700,10.86965,-7.475697,-27.42772,-0.9580975,0.3855603,-0.2450945,36.20832,3.022081,8.454179,1007.77
4.467349052,5.539916,-10.46954,-21.27271,-0.9580522,0.3510523,-0.2892837,36.20832,3.022081,8.454179,1007.77
4.502114296,17.06702,-8.062724,-13.47229,-0.9511703,0.3051132,-0.2852088,36.20766,3.386597,8.449562,1007.77
4.534396171,8.576625,-8.004022,-7.1954,-0.9352515,0.3343207,-0.2478523,36.21832,4.121263,8.876058,1007.771
4.566678524,5.911758,-5.597208,-4.514009,-0.9336329,0.2597654,-0.2584319,36.21832,4.121263,8.876058,1007.773
4.601443767,8.82452,-6.771264,-4.63589,-0.9431704,0.2251062,-0.1962448,35.8076,4.102713,7.138666,1007.773
4.633725643,10.93162,-11.64359,-5.428119,-0.9527465,0.2015266,-0.1489812,36.17038,4.098724,7.13315,1007.776
4.668491363,10.80768,-16.92685,-6.159408,-0.9653311,0.213656,-0.1290642,36.17038,4.098724,7.13315,1007.776
4.700773239,23.94609,-24.4995,-6.890696,-0.9850593,0.1851704,-0.0929257,36.16972,4.463241,7.128534,1007.776
4.735538483,22.33478,-32.65919,-4.331186,-1.017017,0.2220346,-0.04043583,35.43152,4.830098,6.699223,1007.776
4.767821312,28.96596,-40.17315,1.153477,-1.006914,0.2516619,-0.01708409,35.73371,5.162454,4.510458,1007.778
4.800102711,22.89254,-46.86526,8.28354,-1.016133,0.250527,-0.05864641,35.73371,5.162454,4.510458,1007.78
4.834868908,35.03938,-50.15261,17.11994,-1.044888,0.3570178,-0.02607198,35.69643,5.874581,3.194045,1007.78
4.867150784,23.82215,-53.43997,31.07536,-1.037497,0.5154042,0.0101037,35.63716,5.481892,1.020027,1007.78
4.901915550,-23.95955,-56.0229,44.90891,-1.039003,0.5430232,0.02186651,35.63716,5.481892,1.020027,1007.782
4.934198380,-15.46916,-53.32257,53.56248,-1.050835,0.4038047,-0.06640198,35.92802,5.444097,-1.599849,1007.782
4.968963623,-26.31455,-55.43587,57.64551,-1.045608,0.4601227,-0.01678228,35.15652,4.335988,-3.317878,1007.782
5.001245975,-32.32599,-49.33078,54.90318,-0.999378,0.3217096,-0.05924466,35.15652,4.335988,-3.317878,1007.782
5.033527851,-30.96257,-41.4646,47.95594,-0.9725841,0.2253642,-0.09514124,36.56443,3.570074,-4.949122,1007.782
5.068293095,-12.55639,-30.89811,34.48804,-0.9147505,0.09088686,-0.1284209,35.76962,2.086181,-7.533989,1007.782
5.100575447,6.531495,-21.21215,19.43569,-0.8991795,0.05321908,-0.1185164,35.76962,2.086181,-7.533989,1007.78
5.135340690,18.49241,-16.10501,2.006647,-0.901619,0.0663159,-0.1073176,36.12173,1.347527,-7.965999,1007.778
5.167622566,10.9936,-14.98965,-13.59417,-0.9299121,0.1912875,-0.04804997,36.08775,0.2370749,-9.259332,1007.778
5.202388286,7.089258,-11.05657,-28.95123,-0.9062005,0.1733483,-0.07817627,36.08775,0.2370749,-9.259332,1007.778
5.234670162,-0.5335025,-2.485961,-36.14223,-0.902703,0.1088317,-0.1268945,35.33691,0.9628143,-10.12899,1007.778
5.266952038,9.692151,2.679883,-40.46902,-0.9438753,0.1582649,-0.07044583,34.9728,1.695834,-10.1327,1007.778
5.301717758,8.886494,2.445072,-42.78477,-0.9730421,0.2284007,-0.05548101,34.9728,1.695834,-10.1327,1007.778
5.333999634,-0.2236342,1.32972,-44.9177,-1.016245,0.3150549,-0.009451948,35.3336,2.785394,-10.15207,1007.778
5.368765354,-9.147842,-0.1378499,-44.12547,-1.05055,0.3092053,0.00702564,34.60474,4.61595,-10.16411,1007.778
5.401047230,-22.72007,-4.481855,-48.75696,-1.030791,0.3588291,0.06817849,34.60474,4.61595,-10.16411,1007.778
5.433329105,-53.76888,-6.536453,-57.71524,-1.057313,0.1030425,0.00925206,34.60342,5.344981,-10.17335,1007.78
5.468094826,-4.56179,-0.4900666,-69.96432,-1.016091,0.08166657,0.09267657,33.87521,6.811021,-10.18078,1007.782
5.500376701,-9.767579,5.497617,-78.92261,-1.00745,0.1136848,0.1087935,33.87521,6.811021,-10.18078,1007.783
5.535141945,8.080835,6.789078,-82.94469,-0.9112406,0.1388155,0.160457,32.0567,9.382572,-10.18551,1007.783
5.567424297,-12.68034,9.313298,-78.13038,-0.8648768,0.1626591,0.1600091,30.95374,10.84697,-10.62316,1007.785
5.602189541,-26.31455,14.06822,-69.53774,-0.9082727,0.1088022,0.1549621,29.86012,13.77506,-10.64354,1007.785
5.634471416,55.24279,29.33094,-36.26411,-1.020187,-0.00231193,0.1623065,29.86012,13.77506,-10.64354,1007.787
5.666754246,132.7719,34.90771,0.9097142,-1.541569,0.838469,0.09327783,28.41835,15.25471,-10.20421,1007.789
5.701519012,-148.0928,-4.305747,6.272496,-1.42089,0.5360496,0.1435096,26.59248,15.26902,-10.61236,1007.789
5.733801842,-122.0019,-16.33982,-3.356135,-1.132356,-0.1589525,-0.2700531,26.59248,15.26902,-10.61236,1007.789
5.768567085,-70.56374,-13.58079,-5.428119,-0.7941772,-0.4274244,-0.2394347,28.41703,15.98374,-10.21344,1007.789
5.800848484,16.75715,3.619128,0.1784257,-0.7982699,-0.2348514,0.04158011,28.10087,16.7393,-8.474252,1007.789
5.835614681,33.79991,1.32972,0.117485,-1.000825,-0.226425,0.1290835,28.10087,16.7393,-8.474252,1007.79
5.867896557,7.089258,-5.890722,-0.004396385,-1.037874,0.1460153,0.250207,27.74941,17.11344,-8.037625,1007.79
5.900178432,-16.7706,-1.898933,-0.3700406,-1.005745,0.02629443,0.1663055,28.43967,16.72404,-9.351221,1007.79
5.934944153,-12.12258,0.6252862,-0.6747441,-0.9624491,-0.1147071,0.07645779,28.43967,16.72404,-9.351221,1007.79
5.967226028,-11.00705,5.497617,0.6659514,-1.00897,-0.09375666,0.01479703,27.75074,16.38441,-8.028393,1007.79
6.001991272,1.20176,3.560425,0.2393664,-1.032334,-0.03093033,0.009886781,28.82642,16.73132,-8.485283,1007.79
6.034273624,0.9538654,3.971344,-0.4309813,-1.04202,-0.02271481,0.01478876,28.82642,16.73132,-8.485283,1007.79
6.069038868,-4.189949,2.034153,-0.004396385,-0.99739,-0.06352827,0.07150627,28.48894,16.01755,-7.599082,1007.79
6.101321220,1.573602,1.036206,1.458181,-0.9803666,-0.09971883,0.08770072,28.82642,16.73132,-8.485283,1007.79
6.133603096,5.60189,-1.664122,2.128528,-1.019245,-0.009254519,0.1119874,28.82642,16.73132,-8.485283,1007.792
6.168368339,-3.632185,-2.427258,2.128528,-1.014414,-0.02636165,0.05773457,28.48828,16.38206,-7.603698,1007.792
6.200650692,-4.251922,0.683989,1.519121,-1.004674,-0.07687061,-0.003970329,28.10153,16.37479,-8.469636,1007.792
6.235415935,8.018862,2.914695,0.5440699,-1.022591,-0.06090297,0.01066224,28.10153,16.37479,-8.469636,1007.792
6.267697811,10.43583,1.681936,0.3003071,-1.015379,-0.01805082,0.08340615,28.46431,16.3708,-8.475151,1007.79
6.299980163,5.292022,0.5665835,1.275358,-0.9930657,-0.0426168,0.09820498,28.451,17.09419,-8.92011,1007.792
6.334745407,2.317286,-0.6661749,1.945706,-1.002772,-0.03546415,0.07506151,28.451,17.09419,-8.92011,1007.794
6.367027759,-0.2236342,-0.7835804,2.067588,-1.011512,-0.02977034,0.04900704,27.36399,16.37713,-8.894332,1007.792
6.401793003,2.998996,0.5665835,1.39724,-1.0197,-0.04481037,0.04458822,28.47563,16.74095,-8.044041,1007.792
6.434074879,7.523073,0.5078807,-0.06533709,-1.022673,-0.01188532,0.05251686,28.47563,16.74095,-8.044041,1007.792
6.468840599,-1.153239,1.036206,-0.3090999,-1.03286,-0.0008101997,0.04486676,27.73875,16.37877,-8.464121,1007.792
6.501122475,-0.9053444,0.8013946,-0.6747441,-1.017803,-0.0346964,0.02868816,28.82708,16.36681,-8.480667,1007.79
6.533404350,-2.330739,1.271017,-0.06533709,-0.9930465,-0.0772329,0.02210824,28.82708,16.36681,-8.480667,1007.792
6.568170071,7.585047,2.034153,0.5440699,-0.9866984,-0.09650491,0.04180597,28.45298,16.00064,-8.906262,1007.792
6.600451946,17.37688,1.271017,0.4831293,-1.010062,-0.01462354,0.09066576,28.441,15.99501,-9.34199,1007.79
6.635217190,2.069391,1.97545,0.6659514,-1.023681,0.02361561,0.1049323,27.73809,16.74329,-8.468737,1007.79
6.667499542,-2.454686,4.030047,-0.2481592,-1.027931,-0.03950411,0.04656988,27.73809,16.74329,-8.468737,1007.79
6.702264786,-6.049159,5.497617,-0.06533709,-0.9571601,-0.1236123,0.01451561,28.10219,16.01027,-8.46502,1007.786
6.734547615,13.16268,10.13514,0.2393664,-0.9376577,-0.1957033,0.001977703,28.80443,15.62651,-9.342889,1007.786
6.766829491,34.17175,12.60065,4.078631,-0.9172416,-0.2137708,0.0796646,28.80443,15.62651,-9.342889,1007.786
6.801594257,120.0053,27.62856,4.444275,-1.088993,0.002277707,0.003913009,28.10153,16.37479,-8.469636,1007.786
6.833877087,41.73254,6.319456,11.45246,-1.078681,0.6219631,0.2162598,27.7161,15.63847,-9.326342,1007.786
6.868642330,-43.66717,-7.006075,11.26963,-1.030013,0.003368355,-0.009744186,27.7161,15.63847,-9.326342,1007.788
6.900923729,-12.24652,-3.366503,10.96493,-1.029998,0.01320418,0.03672182,28.04425,14.88855,-10.62981,1007.788
6.935689926,-17.26639,-10.52824,10.11176,-0.9850686,0.03662356,0.05512882,27.32936,15.63119,-10.19228,1007.788
6.967971802,-23.77363,-11.29138,8.100718,-0.95592,-0.03407647,0.01647235,27.32936,15.63119,-10.19228,1007.79
7.000253677,-22.84402,-12.40673,3.347342,-0.9500665,-0.05730483,0.01149327,27.6928,15.26269,-10.19318,1007.79
7.035019398,-19.24955,-11.23267,-2.685787,-0.9427271,-0.09944157,-0.005199053,29.14324,15.61125,-10.21986,1007.79
7.067301273,-20.48902,-12.87635,-4.818712,-0.9452106,-0.2418763,0.09213448,29.14324,15.61125,-10.21986,1007.79
7.102066517,73.3391,-5.832019,-4.696831,-0.9833004,0.08676273,-0.002119109,28.79179,15.98539,-9.783232,1007.791
7.134348869,-33.81335,-13.8156,-6.525052,-1.006032,-0.1150969,-0.00176756,28.05226,17.08128,-10.22178,1007.791
7.166630745,47.62004,-7.358292,-1.832618,-1.065859,0.03378959,0.001141693,28.05226,17.08128,-10.22178,1007.791
7.201396465,16.69518,-4.599261,0.5440699,-1.000508,0.003491995,0.001795453,28.02829,17.07001,-11.09323,1007.793
7.233678341,22.76859,2.855992,2.25041,-1.008259,0.02491015,0.04544343,27.65353,17.06836,-11.52344,1007.795
7.268443584,33.30412,5.791131,4.931801,-1.019386,0.03023433,0.05516645,27.65353,17.06836,-11.52344,1007.795
7.300725937,31.9407,-0.3139583,5.114623,-1.134104,0.1276399,0.1927807,27.99234,17.05311,-12.40041,1007.797
7.335491180,1.511628,12.01363,3.469224,-1.44189,0.2087959,0.1252572,27.25414,17.41996,-12.82972,1007.798
7.367773056,-14.84942,-16.57463,-4.453068,-0.8662208,0.0722036,0.02945273,27.25414,17.41996,-12.82972,1007.798
7.400055408,-11.75074,-2.485961,0.4221885,-1.022715,-0.2001529,0.04612865,27.63022,16.69258,-12.39028,1007.798
7.434820652,19.54596,-6.360344,3.16452,-1.031055,0.06805078,0.08586325,28.00366,17.42326,-11.9693,1007.798
7.467102527,-1.401134,-6.536453,4.078631,-1.013012,-0.008478358,0.05009821,27.60559,17.04582,-13.26635,1007.8
7.501868248,0.2101815,-3.425205,5.663089,-1.014886,-0.03462259,0.04801984,27.60559,17.04582,-13.26635,1007.802
7.534150123,4.610311,-2.662069,6.333437,-1.010159,0.02602318,0.08993021,27.24149,17.77884,-13.27006,1007.802
7.568915367,6.345574,1.505828,6.272496,-1.008673,0.01102718,0.09032518,27.96837,17.04184,-13.27186,1007.803
7.601197719,8.638598,-0.7248777,6.881903,-1.020337,0.03762809,0.09581939,27.96837,17.04184,-13.27186,1007.803
7.633479595,-0.4715288,-1.077094,7.003785,-0.9951739,0.03875301,0.1209104,28.3185,17.39673,-13.71772,1007.803
7.668245315,-0.8433707,2.151558,5.236505,-1.000516,0.03864117,0.09239836,28.69524,16.30483,-13.27366,1007.799
7.700527191,-4.127975,1.858045,3.834868,-1.003424,0.04495834,0.1025928,28.69524,16.30483,-13.27366,1007.801
7.735292435,4.796232,3.384317,2.006647,-1.005354,0.0342212,0.07739706,28.6826,16.66371,-13.714,1007.803
7.767574787,6.593468,2.503775,1.519121,-1.012143,0.04877867,0.09489825,28.33247,16.30882,-13.26815,1007.803
7.802340031,-0.6574498,3.090803,2.616054,-1.024238,0.04187902,0.06829596,28.33247,16.30882,-13.26815,1007.805
7.834621906,-10.32534,-4.657964,3.895809,-1.012133,0.03953816,0.08130941,28.69524,16.30483,-13.27366,1007.805
7.866904736,-0.5954761,2.855992,3.591105,-1.0063,0.02502052,0.0763799,28.69458,16.66934,-13.27828,1007.806
7.901669502,0.08623414,7.082592,3.16452,-1.01019,0.03468967,0.07692671,28.69458,16.66934,-13.27828,1007.806
7.933951378,3.122944,8.197945,2.128528,-1.013139,0.05159102,0.06881069,29.07001,16.30647,-12.84345,1007.806
7.968717575,-2.826528,5.086697,2.798876,-1.013607,0.04822999,0.07701106,29.43278,16.30248,-12.84897,1007.806
8.000998974,4.362417,6.847781,1.519121,-1.013163,0.06126141,0.06644855,29.43278,16.30248,-12.84897,1007.808
8.033281803,2.875049,6.436861,0.6050107,-1.01462,0.06074221,0.0572634,28.70789,15.94594,-12.83332,1007.806
8.068047047,0.7679445,3.736533,1.336299,-1.023817,0.06312248,0.05342925,28.71921,16.3161,-12.40221,1007.806
8.100328922,-1.277186,2.386369,1.823825,-1.017528,0.06217259,0.05341029,28.71921,16.3161,-12.40221,1007.806
8.135094642,-4.56179,1.212314,1.092536,-1.009777,0.05150569,0.04076353,28.69524,16.30483,-13.27366,1007.806
8.167376518,-2.02087,0.683989,0.6659514,-1.007855,0.0602547,0.05047791,29.44543,15.9436,-12.40862,1007.806
8.202141762,-3.756133,-0.02044435,1.762884,-1.019467,0.05188826,0.01903185,29.44543,15.9436,-12.40862,1007.806
8.234424114,-5.553369,-1.077094,2.920758,-1.014578,0.0379517,0.04359744,29.44543,15.9436,-12.40862,1007.806
8.266705990,-6.606921,1.32972,2.189469,-1.007332,0.04282647,0.04796049,29.09464,15.95323,-11.96738,1007.805
8.301471233,-1.587055,4.264858,1.275358,-1.016554,0.05878622,0.0529055,29.43411,15.57345,-12.83974,1007.805
8.333753586,-7.040737,3.912642,1.214418,-1.023326,0.05484794,0.03887798,29.43411,15.57345,-12.83974,1007.805
8.368518829,-3.19837,5.380211,-1.588855,-1.0074,0.07479851,0.0578112,29.43212,16.667,-12.85358,1007.805
8.400800705,-7.722447,7.141294,-3.904601,-0.9996345,0.06027984,0.05094377,29.82019,15.94525,-11.97841,1007.806
8.435566425,-10.07745,9.548109,-6.159408,-1.000589,0.0549555,0.051399,29.82019,15.94525,-11.97841,1007.805
8.467848301,-5.615343,12.89417,-8.840798,-1.005401,0.04868336,0.06104248,29.4694,15.95487,-11.53717,1007.805
8.500130653,3.308865,11.89622,-8.657976,-1.042649,0.03580968,0.006420983,29.48073,16.32502,-11.10606,1007.805
8.534895897,12.97676,5.791131,-8.901739,-1.011229,0.04660657,0.02430189,29.48073,16.32502,-11.10606,1007.806
8.567177772,24.99965,2.503775,-11.03466,-0.9889004,0.02552473,0.06764337,29.12927,16.69916,-10.66943,1007.806
8.601943016,37.14649,4.440967,-16.15368,-0.989605,0.1394448,0.1267887,29.10398,17.41692,-11.55012,1007.805
8.634225368,20.10373,12.65936,-19.07884,-1.023563,-0.07851717,-0.04551471,29.10398,17.41692,-11.55012,1007.805
8.668990612,36.34083,11.25049,-18.28661,-1.004118,0.1124989,0.04158157,28.7312,16.32173,-11.96648,1007.801
8.701272964,23.01649,13.5399,-18.16473,-0.9912208,-0.0522662,-0.03770013,29.8182,17.0388,-11.99226,1007.799
8.733554840,11.98518,18.23612,-15.23957,-1.070832,-0.1397325,-0.07670099,29.8182,17.0388,-11.99226,1007.799
8.768320084,47.49609,13.5399,-9.511147,-1.060525,0.02751536,0.001577961,29.08001,17.40565,-12.42157,1007.801
8.800602436,-2.144818,5.380211,-2.320143,-1.057999,-0.0570564,-0.1096158,29.45279,18.50085,-12.00521,1007.801
8.835367680,4.114522,4.382264,-0.3700406,-1.007246,-0.01301369,-0.007952647,29.45279,18.50085,-12.00521,1007.799
8.867649555,-9.147842,8.843676,0.5440699,-1.010103,-0.04166714,-0.03566542,29.45279,18.50085,-12.00521,1007.801
8.899931908,-3.756133,7.728323,-0.7966256,-1.026649,-0.007945613,-0.06686153,29.45477,17.4073,-11.99136,1007.801
8.934697151,-3.694159,6.20205,-3.051432,-1.016894,-0.03102532,-0.03123933,29.45477,17.4073,-11.99136,1007.801
8.966979027,-2.144818,5.732428,-3.295194,-1.011087,-0.0353903,-0.03901168,29.10332,17.78144,-11.55473,1007.801
9.001744747,-2.764554,5.849833,-2.624847,-1.005754,-0.03775706,-0.02791754,29.84085,17.7791,-11.13004,1007.801
9.034026623,-2.950475,7.728323,-1.466973,-1.0067,-0.04793543,-0.03184088,29.84085,17.7791,-11.13004,1007.802
9.068791866,-3.012449,9.019784,-0.3090999,-1.007711,-0.03150428,-0.03754655,29.11332,18.88062,-11.13285,1007.802
9.101074696,-2.888501,9.548109,0.4221885,-1.004321,-0.0402692,-0.0564578,29.50073,18.52339,-10.2623,1007.802
9.133356094,-1.834949,9.489407,1.701943,-1.004324,-0.04126162,-0.06371501,29.50073,18.52339,-10.2623,1007.802
9.168121338,-3.384291,9.313298,1.336299,-1.019346,-0.03312684,-0.07813955,29.4761,18.87663,-11.13837,1007.802
9.200404167,-3.818106,9.019784,0.9706549,-1.013518,-0.03789384,-0.06174229,29.86284,18.88391,-10.27243,1007.804
9.235168934,-1.896923,10.36995,0.05654432,-1.018425,-0.008394574,-0.06349774,29.86284,18.88391,-10.27243,1007.802
9.267451763,-3.818106,10.95698,-1.345092,-1.024703,-0.02597157,-0.104193,29.86284,18.88391,-10.27243,1007.806
9.302217007,-5.615343,11.77881,-4.148364,-1.022296,-0.01574646,-0.08770314,30.23892,18.15653,-9.832989,1007.802
9.334498882,-9.9535,12.48325,-9.389265,-1.039298,0.01711229,-0.08747967,29.52403,18.89917,-9.395462,1007.802
9.366781235,-17.0185,13.07028,-18.95696,-1.062581,0.03580121,-0.1221308,29.52403,18.89917,-9.395462,1007.803
9.401546478,-17.51429,10.01773,-34.25307,-1.116747,0.05418145,-0.07888351,30.26025,19.62586,-8.979999,1007.803
9.433828354,-18.31994,6.789078,-44.79581,-1.207119,0.03360941,-0.07542165,29.93343,19.64675,-7.667303,1007.803
9.468594074,-9.395737,-11.99581,-47.11156,-1.340474,0.1850976,-0.0994117,29.93343,19.64675,-7.667303,1007.801
9.500875950,-23.89757,-19.92069,-49.18354,-1.114976,-0.1023281,-0.1402071,29.57933,21.47895,-7.24914,1007.801
9.535641193,25.12359,-26.78891,-41.68784,-0.9867952,0.1048672,-0.08322635,28.47902,21.48528,-7.66832,1007.799
9.567923546,58.96122,-27.37594,-0.3700406,-0.7927894,0.4639531,-0.0999734,28.47902,21.48528,-7.66832,1007.801
9.600205421,19.73188,-18.33571,44.96984,-0.7322555,0.6213171,-0.1248314,27.35142,23.30293,-8.982033,1007.799
9.634970665,-56.9915,5.321508,77.3903,-0.8415778,0.4019581,-0.2172129,28.44107,22.56193,-8.989347,1007.799
9.667253017,-67.52703,9.430703,86.71423,-0.9985989,0.1352861,-0.236278,28.44107,22.56193,-8.989347,1007.799
9.702018261,-44.41085,1.858045,87.07987,-1.088229,-0.1568426,-0.1130187,30.67832,22.20166,-6.839191,1007.799
9.734300137,0.6439971,-15.16576,88.1768,-1.045333,-0.4499166,0.04765788,32.5424,20.01635,-5.158413,1007.799
9.766582489,48.79753,-20.44901,72.21034,-0.9943365,-0.5499987,0.03102544,32.5424,20.01635,-5.158413,1007.798
9.801347732,25.74333,-22.3862,35.40215,-0.9349449,-0.7079715,0.06045585,34.71276,17.8005,-5.537291,1007.795
9.833629608,38.20004,-18.39441,1.641003,-0.8533874,-0.6121402,0.1386586,35.79374,15.23129,-5.957253,1007.795
9.868395328,146.8399,90.44054,-15.60522,-1.458969,0.2163177,-1.211855,35.79374,15.23129,-5.957253,1007.795
9.900677204,151.24,-224.3825,-58.14183,-0.6033408,1.041241,2.016978,36.8481,14.10887,-7.267132,1007.797
9.935442448,-46.27006,-41.75812,-39.43303,-1.601261,-1.145731,-1.177233,36.43606,14.81935,-9.013756,1007.797
9.967724800,66.64594,-41.22979,-29.56064,-1.085948,0.5276161,0.5135373,36.43606,14.81935,-9.013756,1007.795
10.000006676,24.56583,-16.57463,-20.35859,-0.9857698,-0.09324078,0.004597745,35.67323,15.53946,-10.31914,1007.795
10.034771919,-6.297053,-21.03604,-12.1316,-0.9992951,-0.08833537,0.03559486,34.55894,16.6337,-11.18789,1007.795
10.067054272,15.7036,-18.92274,-4.696831,-1.0139,-0.04382756,0.04409786,34.55894,16.6337,-11.18789,1007.795
10.101819515,17.87267,-16.45722,2.676995,-1.016337,-0.03071926,0.05868081,34.15955,16.9853,-12.49417,1007.799
10.134101391,14.34018,-16.0463,5.602149,-1.00336,0.004175659,0.0632022,33.76081,16.97239,-13.79584,1007.797
10.168867111,6.407547,-14.63744,5.419326,-1.003393,0.02651663,0.0870178,33.74949,16.60224,-14.22695,1007.798
10.201148987,9.444257,-13.28727,3.956749,-1.005787,0.02123565,0.1014961,33.74949,16.60224,-14.22695,1007.798
10.233430862,7.832942,-7.945319,1.153477,-1.005766,0.01399146,0.1058058,33.01196,16.60458,-14.65164,1007.798
10.268196583,3.06097,-1.840231,0.05654432,-1.006285,0.03094724,0.1117046,33.3634,16.23044,-15.08827,1007.8
10.300478458,0.2101815,-1.253203,-1.893558,-1.014058,0.03810379,0.08807354,33.3634,16.23044,-15.08827,1007.802
10.335243702,-1.33916,-2.427258,-5.550001,-1.009671,0.0323959,0.1136539,33.35207,15.86029,-15.51938,1007.8
10.367526054,-0.4095552,-2.955583,-4.574949,-1.005735,-0.004450237,0.09023084,33.00063,16.23443,-15.08276,1007.8
10.402291298,-4.437843,-4.423153,-2.442024,-1.011516,-0.01366147,0.09019092,33.00063,16.23443,-15.08276,1007.8
10.434573173,-3.446265,-3.190394,-2.685787,-1.007676,0.009197429,0.1207693,32.99997,16.59894,-15.08737,1007.8
10.466855526,-4.251922,-2.544664,-4.270246,-1.00529,0.02129273,0.1179323,32.98798,16.59331,-15.5231,1007.796
10.501620769,-2.516659,-3.3078,-8.10951,-1.012071,0.02415565,0.1116785,32.98798,16.59331,-15.5231,1007.8
10.533902645,-3.570212,-4.775369,-12.55818,-1.009157,0.01982005,0.1150316,32.62454,16.96181,-15.5222,1007.8
10.568668365,-8.466132,-5.597208,-17.6772,-1.018345,0.01832234,0.1092416,32.62454,16.96181,-15.5222,1007.802
10.600950241,-8.466132,-7.006075,-23.58845,-1.033343,0.02411284,0.1170419,32.62454,16.96181,-15.5222,1007.798
10.635715485,-18.75376,-6.771264,-31.26698,-1.024599,0.01062049,0.1266151,32.24978,16.96017,-15.95241,1007.796
10.667998314,-14.10573,-7.240886,-40.46902,-1.040959,-0.01841309,0.1409884,31.54489,18.80199,-15.093,1007.798
10.700279713,-31.08652,1.094908,-55.52138,-1.16617,-0.04064948,0.1111587,31.54489,18.80199,-15.093,1007.798
10.735044956,-52.28151,9.430703,-74.35206,-1.293074,0.06804916,0.1642616,31.89369,19.88592,-15.54809,1007.798
10.767327785,-36.10638,-13.63949,-85.13857,-1.376761,0.0549674,0.08750083,30.46457,21.00669,-14.66843,1007.798
10.802092552,-51.53782,-19.80328,-114.0854,-1.465049,-0.1321051,-0.205853,30.46457,21.00669,-14.66843,1007.799
10.834374428,-34.80494,-27.43464,-134.3177,-1.424655,-0.05570522,-0.257717,29.03281,23.58552,-13.80722,1007.799
10.866657257,-16.15087,-39.46871,-146.8106,-1.327675,0.04142551,-0.2375528,26.51138,26.90535,-12.9387,1007.799
10.901422501,-15.841,-52.03111,-127.858,-0.8178168,-0.06374481,0.2843145,26.51138,26.90535,-12.9387,1007.799
10.933703899,99.73988,-14.57873,-82.82281,-0.6003268,-0.1192685,-0.00508286,22.51488,30.22987,-12.91957,1007.801
10.968470097,70.92213,-0.900986,10.66023,-0.4889837,1.206567,0.4392444,18.49508,33.1786,-13.76729,1007.803
11.000751972,-93.43202,26.16099,71.78375,-0.608353,0.3250828,-0.2515099,16.2465,33.16872,-16.34855,1007.803
11.035516739,-94.48558,51.81411,124.6803,-0.6672475,0.315058,-0.161037,16.2465,33.16872,-16.34855,1007.803
11.067799568,-110.2269,55.39498,165.3887,-0.8348131,-0.007942254,-0.2282601,18.14495,32.8237,-13.32143,1007.803
11.100081444,-46.39401,61.79359,193.5433,-1.058712,-0.001321751,-0.2272564,21.89191,33.20468,-9.02393,1007.803
11.134846687,-26.81034,53.6339,204.7564,-1.292677,-0.1780594,-0.06048731,21.89191,33.20468,-9.02393,1007.801
11.167129040,0.2721551,42.06945,202.4406,-1.428661,-0.5086511,0.03316348,26.30979,30.63338,-6.87917,1007.803
11.201894283,75.01238,33.32273,184.0365,-1.475277,-0.5735652,0.1953302,31.44454,26.22589,-5.15809,1007.803
11.234176159,53.38359,21.28866,138.1482,-1.309518,-0.8543822,0.4418638,31.44454,26.22589,-5.15809,1007.805
11.268941879,24.13201,5.1454,82.87496,-1.159445,-1.084327,0.5765626,36.88413,20.69269,-5.607311,1007.801
11.301223755,12.60491,-5.832019,24.06718,-1.186421,-0.898332,0.6492273,40.88196,16.63914,-5.617207,1007.802
11.333505630,-87.42058,54.74925,-77.82568,-1.256155,-0.8823927,-0.01526005,40.88196,16.63914,-5.617207,1007.804
11.368271351,329.91,-233.1879,-65.69848,-1.074079,0.6035086,1.05056,40.88725,13.72302,-5.580279,1007.806
11.400553226,-266.3386,-8.767158,-63.87025,-1.25074,-0.5996231,-0.2587673,41.18613,15.87795,-7.792124,1007.806
11.435318470,167.2292,-45.22158,-51.49929,-0.9378585,0.2876891,0.5601977,41.18613,15.87795,-7.792124,1007.807
11.467600822,35.10136,-40.99498,-31.99827,-0.9492531,-0.221596,-0.06050812,40.44462,18.06739,-8.244515,1007.807
11.499882698,-33.31757,-26.96502,-20.54142,-1.147662,-0.004417443,-0.2087117,38.55684,19.14707,-10.84515,1007.807
11.534647941,40.74096,-32.8353,-23.77127,-0.9871261,0.1069646,0.1077446,38.55684,19.14707,-10.84515,1007.807
11.566930294,11.05557,-27.25854,-25.66043,-0.9864533,0.0222326,0.09372507,38.14414,20.22207,-12.59639,1007.807
11.601695537,11.9232,-17.04425,-28.52465,-1.01215,0.05754672,0.1118685,37.39462,20.21877,-13.45681,1007.804
11.633977413,11.73728,-17.22036,-29.13406,-1.01201,-0.01272939,0.08004507,37.39462,20.21877,-13.45681,1007.804
11.668743133,6.469521,-13.46338,-22.85716,-1.007548,-0.05917245,0.08025482,36.63112,21.3034,-14.76681,1007.802
11.701025009,-0.4095552,-12.28932,-16.33651,-1.007038,-0.06737165,0.08794213,35.89226,22.03477,-15.20073,1007.801
11.733306885,-3.756133,-9.530294,-12.07066,-1.005109,-0.06054525,0.1015131,35.89226,22.03477,-15.20073,1007.801
11.768072605,-3.818106,-8.649753,-10.4862,-0.9997703,-0.06484609,0.1130796,35.51551,23.12667,-15.64479,1007.799
11.800354481,-4.313896,-8.18013,-10.42526,-1.008516,-0.05233961,0.098183,34.78996,23.13465,-15.63376,1007.797
11.835119724,-6.111132,-7.710508,-12.37536,-1.012401,-0.04020168,0.113247,34.0744,24.24181,-15.20085,1007.795
11.867402077,-5.801264,-5.597208,-16.76309,-1.01287,-0.04405156,0.1199943,34.0744,24.24181,-15.20085,1007.791
11.902167320,-12.24652,-4.951478,-24.68538,-1.040057,0.003310767,0.1246731,34.40122,24.22091,-16.51355,1007.791
11.934449196,-11.87468,-7.182183,-37.66575,-1.065624,-0.01899046,0.1342702,33.67435,24.95792,-16.51175,1007.794
11.966731548,-23.58771,-8.062724,-49.30543,-1.066973,-0.08112092,0.07977466,33.67435,24.95792,-16.51175,1007.79
12.001496792,-25.0131,-0.8422832,-64.72343,-1.245063,0.01941243,0.1943382,32.97078,26.07072,-15.64311,1007.79
12.033778667,5.044127,-10.82176,-91.65922,-1.537851,0.1001536,0.134515,31.16558,27.91887,-15.20289,1007.79
12.068544388,-48.9969,-4.129639,-126.3345,-1.594585,-0.2197229,-0.3902622,31.16558,27.91887,-15.20289,1007.79
12.100826263,-5.677317,-24.55821,-149.431,-1.60304,0.1516011,-0.1942737,29.73513,29.76868,-14.33245,1007.791
12.135591507,-20.67494,-51.855,-164.849,-1.429633,0.451811,-0.1455635,26.83828,33.45138,-13.89876,1007.791
12.167873859,-74.09624,-41.17109,-141.7525,-0.7173408,0.1950701,0.3174765,26.83828,33.45138,-13.89876,1007.793
12.200155735,50.22293,-22.2688,-76.91157,-0.7663314,-0.571305,-0.3089611,22.10358,37.14275,-14.30894,1007.795
12.234920978,-41.12625,-8.825861,9.075768,-0.5172204,1.311737,0.5100018,17.72232,39.36644,-15.1419,1007.795
12.267203331,-85.99519,4.382264,64.10522,-0.5882201,0.007848109,-0.2040464,17.72232,39.36644,-15.1419,1007.795
12.301968574,-76.20335,26.3371,116.6361,-0.6378779,0.2267042,0.01726967,17.0114,37.92198,-14.67668,1007.795
12.334250450,-51.10401,31.32684,157.4054,-0.780954,-0.04367066,-0.1067527,19.59878,37.9166,-12.97238,1007.795
12.369016170,-28.60757,38.13636,188.5461,-0.9201139,-0.09984671,-0.143997,19.59878,37.9166,-12.97238,1007.795
12.401298046,-10.44929,36.7862,208.9613,-1.116568,-0.0100713,-0.04685884,24.04063,35.35657,-9.956171,1007.795
12.433579922,4.982153,42.12815,211.3989,-1.330015,-0.1629635,-0.1439559,29.16605,29.48539,-8.652353,1007.795
12.468346119,35.65912,40.24966,211.5208,-1.392132,-0.4625476,-0.1020159,29.16605,29.48539,-8.652353,1007.795
12.500627518,81.08581,40.60188,197.1388,-1.454576,-0.3750421,0.06878661,32.47758,23.63414,-7.320959,1007.795
12.535392761,77.73923,23.16715,164.2308,-1.463055,-1.048849,0.1635952,35.04025,17.41509,-6.845371,1007.795
12.567675590,107.7345,16.41633,111.9437,-1.382699,-0.7360439,0.5809579,35.04025,17.41509,-6.845371,1007.795
12.599957466,21.83899,-13.8743,22.48272,-1.234647,-1.391889,0.5599893,39.04071,11.90348,-6.836803,1007.795
12.634722233,28.1603,-24.79302,-78.19132,-1.012256,-0.7099138,0.1239419,39.41407,6.067239,-6.768465,1007.795
12.667005062,4.176496,-145.9556,-107.3819,-1.405759,0.9451589,0.9028682,39.41407,6.067239,-6.768465,1007.797
12.701770306,27.29267,-56.84473,-82.27435,-1.10391,-1.199308,0.1576147,39.74222,5.317314,-8.071928,1007.797
12.734051704,77.73923,-43.4018,-45.64898,-1.063795,0.3680474,0.5319198,38.9521,7.848729,-10.27184,1007.795
12.768816948,56.04845,-40.29055,-21.21176,-0.9155842,-0.099586,0.07209182,37.45909,11.12842,-11.5985,1007.795
12.801099777,-21.79047,-27.55205,-10.72996,-0.9964397,0.1367125,0.04025239,37.45909,11.12842,-11.5985,1007.795
12.833381653,15.57965,-23.85377,-15.97086,-1.02261,0.1662034,0.05401276,36.72023,11.8598,-12.03243,1007.795
12.868146419,28.09833,-27.31724,-23.28375,-1.023836,0.05815543,0.01569283,36.68427,11.84289,-13.33961,1007.795
12.900429249,12.85281,-15.63538,-28.89029,-0.9631454,0.2063963,0.1546684,36.68427,11.84289,-13.33961,1007.795
12.935194492,20.4136,-11.58489,-32.85144,-0.9730878,0.09680612,0.09702092,35.92078,12.92751,-14.64961,1007.795
12.967475891,15.26978,-12.46543,-31.99827,-1.011669,0.04434444,0.07118353,35.18258,13.29437,-15.07892,1007.795
13.002242088,12.29504,-13.58079,-27.24489,-1.002909,0.02749898,0.09088985,35.18258,13.29437,-15.07892,1007.793
13.034523964,6.779389,-15.45928,-24.07598,-1.000979,0.03041791,0.09380291,34.78252,14.01048,-16.38982,1007.791
13.066805840,2.627154,-15.81149,-23.64939,-0.9994542,-0.003477513,0.08635533,33.31811,14.74984,-16.81271,1007.791
13.101571560,1.759523,-15.9289,-25.41667,-1.003816,0.01357204,0.123203,33.31811,14.74984,-16.81271,1007.791
13.133853435,-1.401134,-13.28727,-28.21994,-0.9965272,0.007877358,0.1502275,34.03035,15.46526,-17.2687,1007.791
13.168618679,-7.908368,-12.81765,-30.41381,-1.0144,-0.01457538,0.1085626,32.94136,15.84174,-17.25677,1007.791
13.200901031,-6.297053,-12.87635,-35.41095,-1.028812,-0.0498994,0.1214457,32.94136,15.84174,-17.25677,1007.793
13.235666275,-19.18757,-12.75895,-39.92056,-1.017678,-0.04639821,0.1456135,32.56528,16.56912,-17.69622,1007.793
13.267948150,-14.22968,-12.40673,-45.03958,-1.053885,-0.07655133,0.1319838,31.46231,18.03352,-18.13386,1007.793
13.300230503,-21.54257,-3.660017,-58.50747,-1.172956,0.003246739,0.2182628,31.46231,18.03352,-18.13386,1007.791
13.334995746,-7.040737,3.795236,-78.67885,-1.437138,0.03552264,0.1126592,30.35935,19.49791,-18.5715,1007.791
13.367277622,-78.06255,0.3317723,-102.9333,-1.504664,-0.1183851,-0.1220547,30.01724,21.33575,-17.71761,1007.789
13.434325218,-39.70085,-31.95476,-150.467,-1.50493,0.1419034,-0.2830096,28.59745,23.92022,-16.42068,1007.795
13.466607094,-47.01374,-51.56148,-150.2232,-1.175881,0.3480471,0.008000047,24.59897,28.33828,-16.4154,1007.795
13.501372814,5.292022,-30.6633,-118.7778,-0.6873823,-0.2280266,0.2482917,24.59897,28.33828,-16.4154,1007.798
13.533654690,130.9746,-8.884563,-42.35818,-0.8062785,0.4768274,-0.002216506,20.25168,31.67242,-15.95503,1007.794
13.568419933,-179.8853,6.906484,33.26923,-0.5920167,0.4928003,0.1032856,15.84512,34.61387,-17.66868,1007.798
13.600702286,-50.60822,15.24228,82.57026,-0.5772913,0.152216,-0.02340985,15.84512,34.61387,-17.66868,1007.797
13.635467529,-83.20637,29.33094,132.9682,-0.7013555,0.04472252,-0.07983255,15.15817,33.18068,-16.33201,1007.797
13.667749405,-49.43072,32.20738,171.0562,-0.8018175,0.01803677,-0.01547042,17.01867,33.91231,-14.62591,1007.793
13.700031757,-34.1852,35.14252,199.6983,-1.017438,-0.02199259,-0.07856379,17.01867,33.91231,-14.62591,1007.793
13.734797001,-47.01374,28.4504,215.2991,-1.282708,-0.07080533,0.0218022,20.00942,31.36824,-11.58763,1007.794
13.767078876,-57.98308,22.1692,205.6705,-1.514115,-0.3823165,-0.02829761,24.41796,27.33324,-9.860138,1007.793
13.801844120,25.24754,0.8013946,196.5294,-1.471674,-0.7774044,-0.1253895,28.47505,23.67238,-7.696015,1007.793
13.834126472,20.22767,0.2730695,158.929,-1.276018,-1.021831,0.1241871,28.47505,23.67238,-7.696015,1007.793
13.868891716,32.31254,13.89211,101.5228,-1.20103,-0.9906691,0.260049,32.12406,18.53491,-7.250821,1007.793
13.901173592,7.089258,-4.305747,38.20543,-1.124894,-1.290519,0.2494781,33.95588,15.23996,-6.801129,1007.791
13.933455944,27.97438,-16.63333,-22.9181,-0.9911955,-1.22664,0.1364285,33.95588,15.23996,-6.801129,1007.793
13.968221188,642.1334,101.3593,-54.30257,-2.463572,1.908578,-1.366854,35.03554,13.39978,-7.230323,1007.793
14.000503063,-441.5381,-71.0508,-82.82281,-0.745463,-0.7267696,-0.07783944,34.99892,13.74739,-8.542119,1007.794
14.035268784,357.2404,2.092856,-49.97577,-1.046223,0.6154642,0.270298,34.99892,13.74739,-8.542119,1007.796
14.067550659,-164.3299,-36.65098,-32.48579,-1.025503,-0.454727,0.03936934,34.24609,15.56668,-9.425621,1007.798
14.102315903,85.98173,-5.362397,-20.78518,-1.007025,0.4227248,0.3392162,33.47193,15.91663,-11.16211,1007.796
14.134598255,-6.854816,-26.96502,-18.16473,-1.038979,-0.1613977,-0.213706,33.47193,15.91663,-11.16211,1007.796
14.166880131,35.72109,-33.48103,-21.45553,-0.9731739,0.1629087,0.1824822,33.09518,17.00854,-11.60617,1007.796
14.201645374,14.5261,-16.80944,-22.43058,-0.9895095,0.1066113,0.1483566,32.68182,18.44805,-13.36203,1007.798
14.233927727,5.911758,-9.001969,-24.74632,-0.982209,0.081417,0.133211,32.68182,18.44805,-13.36203,1007.799
14.268692970,12.23307,-6.360344,-23.46657,-1.016955,0.03127299,0.07402122,31.58216,18.08986,-13.77659,1007.799
14.300974846,11.42741,-8.18013,-19.44448,-1.006725,0.003760679,0.08641215,31.58084,18.81889,-13.78582,1007.799
14.333257198,4.176496,-8.297536,-14.63017,-1.012538,0.01151807,0.09565412,31.58084,18.81889,-13.78582,1007.795
14.368022442,1.573602,-9.354186,-12.19254,-1.015487,0.02597357,0.07978919,30.84265,19.18575,-14.21514,1007.798
14.400304317,1.015839,-9.999916,-12.86289,-1.006242,0.01206747,0.1096634,30.10378,19.91713,-14.64906,1007.796
14.435070038,0.2721551,-9.530294,-16.21463,-1.006762,0.02950718,0.1155649,30.10378,19.91713,-14.64906,1007.796
14.467351913,0.7679445,-8.18013,-19.99295,-1.003344,0.02085528,0.1300115,30.10246,20.64616,-14.65829,1007.796
14.502117157,-1.215213,-9.178078,-21.15082,-0.9993972,-0.01594663,0.1196416,29.71571,20.63888,-15.52423,1007.796
14.534399986,-5.05758,-9.412889,-23.03999,-0.9945866,0.007420253,0.1565054,29.71571,20.63888,-15.52423,1007.792
14.566681385,-12.74231,-5.714614,-27.8543,-1.006667,0.001555618,0.14973,29.33962,21.36626,-15.96368,1007.79
14.601446628,-13.05218,-5.538506,-33.88743,-1.013873,-0.01879176,0.1491464,29.70108,22.09131,-15.97842,1007.79
14.633729458,-17.45231,-4.481855,-39.43303,-0.9915081,-0.05487538,0.1924025,28.26196,22.1129,-15.52063,1007.79
14.668494224,-33.0077,4.147453,-48.20849,-1.039958,-0.009960768,0.206782,28.26196,22.1129,-15.52063,1007.792
14.700776100,-27.86389,5.438914,-62.71238,-1.2902,-0.1406695,0.1181088,27.19429,23.95871,-14.65571,1007.792
14.735541344,-74.77795,11.19179,-70.8175,-1.386687,-0.110264,-0.1101768,26.48874,26.16505,-13.80092,1007.792
14.767824173,-37.7177,7.376106,-93.06085,-1.528038,-0.07270596,-0.1889426,26.48874,26.16505,-13.80092,1007.793
14.800105572,-37.22191,-8.767158,-112.3791,-1.392455,-0.1570506,-0.2027672,25.0816,28.39064,-12.06365,1007.795
14.834870815,-32.82178,-23.56026,-128.7112,-1.354512,0.002767424,-0.05545835,23.64983,30.96947,-11.20245,1007.795
14.867153645,-48.74901,-39.99704,-132.6723,-1.213651,0.1977408,0.09714641,23.64983,30.96947,-11.20245,1007.799
14.901918411,-65.41993,-41.64071,-101.9582,-0.6743506,-0.134753,0.4866458,21.11775,33.55463,-10.76042,1007.8
14.934200287,59.02319,-15.87019,-39.6768,-0.5321423,-0.06969879,0.1420174,17.50866,36.52192,-9.87074,1007.802
14.968966484,-104.7112,-12.81765,42.41034,-0.4408571,0.6766733,0.3989029,17.50866,36.52192,-9.87074,1007.802
15.001247883,-100.9308,-14.46133,92.8083,-0.5501276,0.1736593,0.1410227,14.96724,37.64338,-9.84598,1007.802
15.033529758,-140.7799,-6.771264,140.5858,-0.690981,0.2142075,0.08741168,16.4896,38.02575,-7.258296,1007.802
15.068295956,-139.5404,-24.02988,180.6238,-0.8316465,-0.0302911,0.02879544,16.4896,38.02575,-7.258296,1007.804
15.100577831,-94.23769,-33.07011,203.7813,-1.169431,0.06633864,-0.01682069,20.24842,36.58817,-2.626486,1007.804
15.135342598,-121.9399,-42.93217,204.2079,-1.386094,-0.1107849,0.02131425,26.13138,32.91301,-0.05421448,1007.805
15.167625427,-196.1843,-54.20311,178.4909,-1.559402,-0.2542613,-0.04439225,26.13138,32.91301,-0.05421448,1007.805
15.199907303,-237.5208,-60.71911,134.3699,-1.445413,-0.7088308,-0.3329349,29.82834,27.79807,2.133887,1007.805
15.234672069,-216.6357,-43.69531,64.28805,-1.144958,-0.7517731,-0.8356359,33.54861,23.05893,5.188826,1007.804
15.266954899,-140.8419,-37.29671,28.69867,-0.6571986,-1.507222,-0.8332475,33.54861,23.05893,5.188826,1007.805
15.301720142,-2.70258,-13.58079,-22.6134,-0.8534812,-1.589632,0.1480875,35.80643,17.96558,7.834716,1007.805
15.334002018,762.1144,0.03825843,-55.21667,-2.014497,1.963386,-3.139313,36.20847,16.15592,9.15946,1007.805
15.368766785,-536.9775,-83.37839,-18.04285,-1.344553,-1.298128,-1.097436,36.20847,16.15592,9.15946,1007.809
15.401049614,355.6911,27.92208,-10.24243,-1.186271,0.6818259,1.265411,36.11127,16.83987,5.664414,1007.811
15.433331489,-133.9628,-23.03193,0.8487735,-0.874705,-0.4242823,0.04211807,36.12127,17.93905,6.086294,1007.811
15.468096256,29.46175,-2.838178,2.433232,-1.005771,0.3247145,0.4048874,35.40572,19.04621,6.519203,1007.809
15.500379085,15.08386,-0.4313638,-0.9794477,-0.9893003,0.001436668,0.09989766,35.40572,19.04621,6.519203,1007.809
15.535144329,-16.15087,2.738586,-5.245297,-0.9864559,0.04665507,0.1605785,36.11995,18.66809,6.077063,1007.809
15.567426205,-13.54797,7.023889,-7.134459,-1.005832,0.05672132,0.1485915,36.15657,18.32047,7.388859,1007.803
15.602191925,-12.68034,9.13719,-5.367178,-0.9873359,0.00205553,0.1380886,36.15657,18.32047,7.388859,1007.801
15.634473801,-16.70863,11.89622,-1.16227,-0.9994507,0.01021991,0.1299427,36.14326,19.04387,6.943899,1007.801
15.666755676,-14.22968,12.95287,2.859817,-0.9970704,0.02570926,0.1290587,36.16657,19.41966,7.810737,1007.801
15.701521397,-18.01007,14.36174,5.114623,-1.00966,0.02902314,0.1179856,36.16657,19.41966,7.810737,1007.801
15.733803272,-17.51429,14.94876,5.602149,-1.011655,0.05368814,0.1152295,35.82909,18.70588,8.696939,1007.801
15.768568516,-23.89757,13.18768,3.895809,-1.015096,0.08080795,0.1240931,36.94271,17.97615,9.561077,1007.801
15.800850391,-36.35427,14.30303,3.10358,-1.017039,0.08418663,0.1231496,36.94271,17.97615,9.561077,1007.801
15.835616112,-45.09256,22.1692,-0.4919221,-1.014034,0.01132555,0.04006081,36.22914,17.98977,10.00784,1007.803
15.867897987,-39.5769,22.1105,-4.209305,-0.999082,0.04541867,0.09195037,35.90232,18.01066,11.32053,1007.803
15.900179863,-38.58533,25.45656,-2.137321,-1.012439,-0.0462234,0.04988236,35.90232,18.01066,11.32053,1007.803
15.934945583,-34.12322,32.5596,2.981698,-1.002341,-0.01710624,0.06549619,34.47717,16.94433,12.22789,1007.803
15.967227459,-59.90427,27.21764,11.8181,-1.039693,0.02431999,0.04067343,35.62543,16.96054,14.38998,1007.805
16.001992702,-73.41454,38.31247,19.07004,-1.019328,0.01239286,0.07391898,35.62543,16.96054,14.38998,1007.805
16.034275055,-96.40676,44.24145,23.9453,-1.029944,-0.006605772,0.04579441,34.93583,16.98542,15.70819,1007.805
16.066556931,-112.21,43.41961,28.45491,-1.009964,0.1567704,0.115812,34.28682,14.4756,18.3659,1007.807
16.101322174,-174.8034,38.84079,24.55471,-1.045548,0.3406943,0.2987075,34.28682,14.4756,18.3659,1007.807
16.133604526,-238.1405,36.19917,24.00624,-1.10437,0.1716655,0.02134619,34.36336,11.95779,21.01257,1007.807
16.168369770,-312.0751,26.04359,7.186607,-1.02599,-0.05803692,0.002467401,34.42857,9.069841,23.22813,1007.805
16.200651645,-280.8404,20.11461,-15.60522,-1.05719,-0.1812952,-0.07213233,34.42857,9.069841,23.22813,1007.805
16.235416889,-253.0762,9.724217,-25.47761,-1.008473,-0.3555793,-0.134625,33.75023,2.897952,24.62481,1007.805
16.267699241,-198.6013,4.264858,-36.75164,-1.030402,-0.04901689,-0.04533223,33.412,-4.018224,25.15376,1007.805
16.299981117,-165.3834,0.4491779,-42.84571,-0.9982815,-0.1687705,-0.1389026,33.412,-4.018224,25.15376,1007.805
16.334746361,-115.9904,-2.838178,-42.66289,-0.9778408,0.01210552,-0.04606486,33.73466,-8.358187,23.45995,1007.805
16.367028713,-93.2461,-6.47775,-33.64367,-0.9381362,0.2479337,0.1098909,34.07678,-10.19602,22.60606,1007.805
16.401793957,-142.1433,-6.125533,-16.94591,-0.9043267,0.4779863,0.1372317,33.69268,-11.66137,21.75859,1007.801
16.434075832,-194.0153,-0.5487694,2.859817,-0.9000596,0.4986603,0.09383061,33.69268,-11.66137,21.75859,1007.803
16.468841553,-222.7091,5.791131,20.22792,-0.9360512,0.3599336,0.02833861,34.72372,-13.15957,19.58187,1007.803
16.501123428,-198.1055,9.372001,26.62669,-0.9915985,0.08788306,-0.09298133,34.65909,-17.20305,17.01828,1007.806
16.533405304,-156.0874,6.730375,23.09213,-1.022955,0.06953169,-0.05530988,34.65909,-17.20305,17.01828,1007.806
16.568171024,32.18859,-8.297536,24.25,-1.494896,-0.07646748,-0.4703967,34.20705,-20.8893,13.58414,1007.808
16.600452900,-11.50284,-10.52824,2.859817,-1.058739,0.0567162,-0.09398072,34.18836,-23.81669,12.74962,1007.81
16.635218143,30.45333,-22.56231,0.117485,-1.003562,0.1147554,0.1358638,34.18836,-23.81669,12.74962,1007.811
16.667500496,4.920179,-17.16166,-0.3700406,-1.023388,0.07804538,0.02982468,33.81295,-23.45382,12.31479,1007.813
16.702265739,-8.09429,-20.03809,1.701943,-1.017941,0.03998749,0.07600666,34.17506,-23.09329,12.30466,1007.813
16.734547615,0.3961024,-21.74047,1.823825,-1.024654,0.01723332,0.07879237,34.17506,-23.09329,12.30466,1007.813
16.766829967,8.080835,-19.74458,2.555113,-1.00874,0.03860456,0.08854837,33.80096,-23.45946,11.87906,1007.815
16.801595211,7.275179,-16.57463,2.494173,-0.9981651,0.0779544,0.1245238,34.12844,-23.84486,10.57098,1007.815
16.833877087,5.911758,-13.75689,-0.8575662,-1.006855,0.05795085,0.08381992,34.12844,-23.84486,10.57098,1007.815
16.868642330,-3.632185,-9.001969,-0.4919221,-1.000064,0.06294545,0.1239591,34.11646,-23.8505,10.13526,1007.815
16.900924683,7.770968,-8.473644,-2.137321,-1.020854,0.04579125,0.07749625,34.85532,-24.58187,10.56919,1007.815
16.935689926,8.514651,-6.242939,-3.904601,-1.005918,0.0783556,0.1066555,34.85532,-24.58187,10.56919,1007.813
16.967971802,6.965311,-4.36445,-3.78272,-1.004443,0.06819889,0.107078,34.84201,-23.85848,10.12423,1007.811
17.000254154,5.353995,-5.068883,-1.771677,-1.004379,0.03621046,0.09239287,34.47923,-23.85449,10.12974,1007.811
17.035019398,3.74268,-5.362397,-0.3700406,-0.9952231,0.06444873,0.1350763,34.47923,-23.85449,10.12974,1007.811
17.067301273,-2.392712,-3.425205,-1.406033,-0.9962369,0.08624241,0.1410037,35.20412,-23.49795,10.11409,1007.811
17.102066994,-7.536526,0.5078807,-2.746728,-0.9927714,0.05335641,0.1441933,35.19214,-23.50358,9.678368,1007.811
17.134348869,-7.722447,2.797289,-2.137321,-0.9990548,0.04846311,0.1335433,35.19214,-23.50358,9.678368,1007.811
17.166630745,-7.288632,4.264858,-0.7356848,-1.007301,0.05419598,0.1186071,35.55425,-23.14305,9.668237,1007.811
17.201395988,-9.643631,4.734481,-0.4919221,-1.012626,0.06002231,0.1288039,35.91637,-22.78253,9.658105,1007.81
17.233678341,-10.51126,3.090803,-0.3700406,-1.013111,0.04779823,0.09199414,35.91637,-22.78253,9.658105,1007.81
17.268443584,-14.04376,-0.4900666,-0.2481592,-1.022785,0.0462893,0.08330451,35.19214,-23.50358,9.678368,1007.81
17.300725460,-5.181527,-0.372661,-2.624847,-1.001059,0.09459296,0.1816704,34.8287,-23.13508,9.679268,1007.808
17.335491180,-30.6527,-3.3078,-3.843661,-0.9801232,0.006307133,0.1013559,35.54293,-23.5132,9.237126,1007.808
17.367773056,-9.395737,-1.253203,-3.538957,-1.053246,0.05549841,0.1133957,35.54293,-23.5132,9.237126,1007.808
17.400054932,-4.995606,-1.135797,-4.63589,-0.9859062,0.008326178,0.1308696,34.79275,-23.15198,8.372087,1007.808
17.434820652,-3.19837,-1.135797,-5.48906,-0.9777393,0.03451622,0.1411531,34.42997,-23.14799,8.377603,1007.808
17.467102527,0.08623414,-1.605419,-6.220348,-0.9961001,0.01741808,0.1091885,34.42997,-23.14799,8.377603,1007.808
17.501867771,5.415969,-2.955583,-6.525052,-0.9965377,0.0005037676,0.1163449,35.51896,-23.52447,8.365672,1007.808
17.534150123,7.647021,-1.546717,-5.793763,-1.006731,0.02670352,0.1450387,35.51896,-23.52447,8.365672,1007.81
17.568915367,3.866627,-0.07914713,-4.757771,-1.015905,0.01207258,0.119353,35.51896,-23.52447,8.365672,1007.81
17.601197243,3.246891,-1.253203,-3.721779,-1.001387,0.009230142,0.1251068,35.52896,-22.42529,8.787551,1007.807
17.633480072,3.618733,-1.898933,-3.173313,-1.000445,0.02671985,0.1445418,36.25584,-23.1623,8.785752,1007.807
17.668244839,0.3961024,-1.429311,-1.710736,-0.9984757,0.005857489,0.1270151,36.25584,-23.1623,8.785752,1007.807
17.700526714,3.494786,-3.660017,-1.893558,-1.030949,0.02597684,0.09384225,35.51764,-22.79544,8.356441,1007.809
17.735291958,3.866627,-7.416995,-2.685787,-1.013442,-0.006793717,0.1192404,35.52962,-22.78981,8.792168,1007.809
17.767574310,8.638598,-8.004022,-0.9794477,-0.9998996,-0.00576422,0.1259852,35.52962,-22.78981,8.792168,1007.809
17.802339554,3.432812,-8.591049,-2.259202,-1.000033,0.06258764,0.1611818,35.15354,-22.06242,8.352724,1007.809
17.834621429,3.804654,-10.70435,-3.843661,-0.99605,0.006874847,0.1395851,36.24187,-22.07439,8.336178,1007.809
17.866904259,14.09228,-12.46543,-4.818712,-0.9888633,0.05108869,0.1857477,36.24187,-22.07439,8.336178,1007.809
17.901669025,7.399126,-10.82176,-7.25634,-0.9931469,0.02008517,0.1797794,35.51764,-22.79544,8.356441,1007.811
17.933950901,6.345574,-10.58694,-9.145502,-0.9873303,0.02211446,0.2025,36.22988,-22.08002,7.900452,1007.811
17.968716145,1.945444,-7.827913,-11.0956,-1.011512,0.01176326,0.1672022,36.22988,-22.08002,7.900452,1007.807
18.000998497,2.007418,-3.249097,-10.18149,-1.000323,-0.007959197,0.1926882,36.21724,-21.72114,7.460108,1007.805
18.033280373,-3.260344,-0.6074721,-9.023621,-0.9853151,-0.01566084,0.1921287,36.5667,-21.00173,7.009634,1007.805
18.068045616,-3.012449,1.681936,-9.328324,-0.9853342,-0.007921255,0.1912058,36.5667,-21.00173,7.009634,1007.805
18.100328445,-4.313896,1.97545,-10.85184,-0.9790586,-0.001105352,0.1979992,36.93015,-21.37024,7.008734,1007.805
18.135093212,-2.082844,2.092856,-13.71605,-0.9916162,-0.01671874,0.1708649,37.30358,-20.63956,7.429714,1007.803
18.167375088,-4.933632,1.623233,-14.99581,-0.9997849,-0.04193928,0.1610703,37.30358,-20.63956,7.429714,1007.803
18.202141285,-1.649028,0.4491779,-14.32546,-1.002156,-0.06325379,0.1566033,37.67702,-19.90888,7.850694,1007.801
18.234422684,-3.074423,2.210261,-13.47229,-1.003627,-0.05503607,0.1552029,37.66438,-19.55,7.410351,1007.801
18.266704559,0.6439971,2.034153,-16.70215,-0.999258,-0.05250898,0.1832473,37.28895,-19.18713,6.975523,1007.801
18.301470756,-4.251922,-0.1965527,-23.10093,-1.011412,-0.02447077,0.1848832,37.28895,-19.18713,6.975523,1007.8
18.333752632,-12.37047,-1.018392,-30.96228,-1.027372,-0.02648323,0.1757208,37.65107,-18.8266,6.965392,1007.8
18.368517399,-28.66955,0.4491779,-40.5909,-1.071166,-0.1019774,0.2121273,38.01318,-18.46608,6.95526,1007.798
18.400799274,4.176496,-0.2552555,-54.54633,-1.163667,0.002714656,0.3390995,38.01318,-18.46608,6.95526,1007.798
18.435565472,-51.78572,10.07643,-62.40768,-1.257395,-0.1457768,0.01116915,38.01054,-17.00801,6.936797,1007.798
18.467846870,-32.44994,0.2143668,-75.14429,-1.346967,-0.1044867,-0.009674337,39.09556,-15.1974,6.897171,1007.792
18.500128746,-34.43309,-9.88251,-90.74511,-1.279653,-0.1522559,-0.02556106,39.09556,-15.1974,6.897171,1007.792
18.534894943,-36.78809,-18.68793,-105.3099,-1.260536,-0.03927327,0.02580121,40.16661,-12.29887,6.407971,1007.792
18.567176819,-56.18585,-30.6633,-116.7058,-1.271714,-0.03758229,-0.03701212,40.50079,-9.762522,5.498691,1007.794
18.601941585,-41.99388,-40.58406,-118.656,-1.178604,0.06783624,0.004478903,40.50079,-9.762522,5.498691,1007.794
18.634224415,-89.77558,-53.55738,-90.80605,-0.6411728,-0.2565746,0.4960338,41.546,-5.84247,4.124959,1007.796
18.668989181,77.05752,-17.68998,-42.17537,-0.7852038,0.0134256,0.1807437,41.128,-1.851347,2.336792,1007.797
18.701271057,-103.1619,-15.9876,17.42464,-0.6455533,0.7238189,0.3469173,41.128,-1.851347,2.336792,1007.797
18.733552933,-119.337,-7.299589,58.25492,-0.6876437,-0.04492771,-0.1282323,40.39649,1.437272,2.306281,1007.796
18.768319130,-66.9073,9.078486,103.0463,-0.7002971,-0.01060473,-0.1280099,40.38252,2.525185,1.856706,1007.796
18.800601006,-55.81401,12.13103,135.1011,-0.7906789,-0.02339788,-0.1138681,40.38252,2.525185,1.856706,1007.797
18.835365772,-29.4752,18.06001,163.6214,-0.9248672,-0.1356811,-0.1470912,40.76125,0.339736,2.314612,1007.797
18.867648602,-15.28323,24.63472,183.3052,-1.035676,-0.09624672,-0.1263237,40.4184,-4.02483,2.811245,1007.797
18.899930477,-10.32534,31.67905,188.7899,-1.185538,-0.1170428,-0.1386884,40.4184,-4.02483,2.811245,1007.797
18.934695244,-1.711002,35.43604,180.7457,-1.297173,-0.1136766,-0.05044276,40.43954,-9.061663,3.310825,1007.797
18.966978073,-0.3475815,37.54934,170.8733,-1.342021,-0.1567929,-0.02641932,39.7645,-17.05613,4.730586,1007.797
19.001743317,-20.55099,26.80672,158.6243,-1.363458,-0.4823929,0.01528502,39.7645,-17.05613,4.730586,1007.797
19.034025192,35.4732,23.22585,140.9514,-1.264196,-0.6838115,0.1855466,35.83446,-23.91552,6.621865,1007.797
19.068789959,40.55504,11.4266,102.1322,-1.285954,-0.6477043,0.2916718,28.97427,-28.56717,7.65812,1007.797
19.101072788,-14.78745,-11.29138,28.45491,-1.212743,-1.088348,0.4345236,23.2091,-30.30903,9.076628,1007.797
19.133354664,14.15425,-23.56026,-63.19991,-1.041079,-0.984284,0.1524172,23.2091,-30.30903,9.076628,1007.797
19.168119430,350.2374,-36.70968,-107.5647,-1.805642,1.621112,-0.07042308,22.49686,-31.02445,9.532618,1007.797
19.200402260,-205.4184,-49.50689,-74.29111,-1.339661,-1.657444,-0.8882263,23.66379,-28.08085,12.52923,1007.797
19.235167503,120.1912,-23.97118,-55.21667,-1.107494,0.5616217,0.2846271,23.66379,-28.08085,12.52923,1007.797
19.267449379,35.72109,-37.1206,-37.23917,-0.8490848,-0.1970568,0.09895029,25.77987,-27.76843,10.31289,1007.796
19.302214145,-18.69179,-19.56847,-20.41953,-1.080528,0.08096509,-0.05995518,26.83827,-24.51103,9.383346,1007.796
19.334496975,-0.1616605,-27.14113,-19.38354,-1.048556,0.08715995,0.02751355,26.83827,-24.51103,9.383346,1007.797
19.366778850,28.65609,-30.19367,-22.36964,-0.9296858,0.1976001,0.2439824,28.65017,-23.43742,9.341921,1007.799
19.401543617,-2.268765,-19.68588,-24.92915,-0.9754575,0.081361,0.1109579,27.91263,-23.43508,8.917225,1007.797
19.433826446,-5.73929,-11.8197,-27.42772,-1.009839,0.09913872,0.1024312,27.91263,-23.43508,8.917225,1007.797
19.468591690,3.370838,-8.004022,-25.96514,-1.01989,0.04969329,0.08573481,28.98765,-22.72365,8.455719,1007.797
19.500873566,-1.091265,-6.712561,-21.27271,-0.9840151,0.02085816,0.1144999,29.71189,-22.00259,8.435456,1007.793
19.535639286,-4.747712,-6.419047,-14.14264,-0.9975401,0.01648047,0.1193385,29.71189,-22.00259,8.435456,1007.792
19.567921162,-5.553369,-6.536453,-11.15655,-0.999492,0.02617481,0.1256825,30.04871,-20.9243,7.54464,1007.792
19.600203037,-3.632185,-5.362397,-11.94877,-1.006286,0.03338653,0.1175197,30.41016,-20.19926,7.529893,1007.792
19.634967804,-2.950475,-6.125533,-13.95982,-1.005757,0.01549403,0.1208009,30.41016,-20.19926,7.529893,1007.792
19.667250633,-0.3475815,-5.479803,-16.45839,-1.002868,0.02668837,0.1372953,31.49981,-20.94026,7.522578,1007.79
19.702015877,-1.029292,-4.834072,-18.83508,-0.991711,0.01220886,0.1391227,30.76029,-19.84437,7.084034,1007.792
19.734297752,-0.9673181,-3.425205,-21.02894,-1.00913,0.01455581,0.1324054,30.76029,-19.84437,7.084034,1007.792
19.766580105,-8.776,-4.716667,-23.71033,-1.010082,-4.343939E-05,0.1091194,32.19941,-19.86596,6.626246,1007.792
19.801345348,-5.677317,-6.184236,-28.58559,-1.00616,-0.0100753,0.1443449,32.21008,-19.13129,7.05274,1007.792
19.833627224,-9.209816,-4.834072,-33.58273,-1.021145,-0.0198688,0.1230502,32.21008,-19.13129,7.05274,1007.792
19.868392944,-15.53113,-2.075042,-37.11729,-1.009898,-0.0667191,0.1401634,32.53491,-18.05864,5.726197,1007.792
19.900674820,-22.22429,2.973397,-41.6269,-1.082541,-0.01607794,0.1512435,32.53293,-16.96509,5.712349,1007.792
19.935440063,-26.74836,5.849833,-56.92302,-1.230602,0.06178009,0.260779,33.24385,-15.52064,5.247128,1007.792
19.967721462,-54.63651,-5.303694,-67.46576,-1.387782,-0.02478904,-0.01928543,33.24385,-15.52064,5.247128,1007.792
20.000004292,-50.91809,-8.121428,-97.022,-1.547419,-0.06168495,-0.2047916,33.98006,-14.79395,5.662592,1007.793
20.034769535,-38.70927,-23.61896,-128.7721,-1.506447,0.01168594,-0.1512845,35.04046,-12.63009,4.746897,1007.792
20.067051411,-20.98481,-33.42233,-144.4339,-1.38763,0.06717422,-0.1570263,35.04046,-12.63009,4.746897,1007.792
20.101817131,-29.97099,-49.03726,-128.1627,-0.9081259,0.09230698,0.2853964,36.449,-9.01779,3.371496,1007.793
20.134099006,96.51725,-21.27085,-80.44613,-0.4947847,-0.1800043,-0.02402634,37.14208,-4.359083,2.429774,1007.795
20.168864250,87.77896,-2.720772,21.75143,-0.3879471,1.36748,0.2847577,37.14208,-4.359083,2.429774,1007.795
20.201146602,-81.16124,20.81904,99.02425,-0.4940642,0.2933806,-0.1354278,37.47163,0.7288799,1.488183,1007.795
20.233428478,-65.04809,53.6926,153.5662,-0.7099319,0.4140771,-0.03662166,37.85838,0.7361603,2.354121,1007.795
20.268193722,-83.51624,60.32602,187.9367,-0.9991506,-0.039405,-0.2343695,37.85838,0.7361603,2.354121,1007.797
20.300475597,-63.06492,58.27142,188.7899,-1.336588,-0.05959603,-0.1950819,37.17474,-2.519601,3.713876,1007.797
20.335241318,-8.342184,47.05919,178.7347,-1.443807,-0.3158747,-0.1880896,36.13349,-8.626747,5.115303,1007.797
20.367523193,31.9407,37.02101,166.4247,-1.383357,-0.4861746,-0.08428197,36.13349,-8.626747,5.115303,1007.799
20.402288437,46.19464,36.14047,148.1425,-1.341083,-0.5198988,0.06723492,34.74224,-15.14954,6.963357,1007.797
20.434570789,66.95581,38.42987,120.5973,-1.20593,-0.5600377,0.2465546,32.24735,-19.84342,8.369153,1007.797
20.466852665,-0.5954761,27.04153,84.64224,-1.16595,-0.4271553,0.4405995,32.24735,-19.84342,8.369153,1007.797
20.501617908,-57.61124,-0.4313638,39.0586,-1.07009,-0.6990228,0.388086,30.49001,-24.53964,10.19964,1007.797
20.533900261,-35.42467,-5.127586,-10.30338,-1.114753,-0.8650072,0.2832991,28.6548,-25.98903,9.374231,1007.799
20.568665504,69.86857,76.29317,-71.00032,-2.46633,0.09755038,-1.706367,28.6548,-25.98903,9.374231,1007.8
20.600947380,-27.43007,-40.70147,-67.28294,-0.6598021,0.1620382,0.803504,27.92057,-27.80927,8.972615,1007.802
20.633229256,73.15318,-43.28439,-56.43549,-1.071164,-0.296947,-0.3444524,30.45736,-26.37913,8.915543,1007.804
20.667994976,24.8757,-36.53357,-38.09234,-1.086246,-0.1282926,0.02782005,30.45736,-26.37913,8.915543,1007.804
20.700276852,32.18859,-19.56847,-22.3087,-0.9502254,0.2742852,0.1849997,31.89054,-23.12007,8.416211,1007.804
20.735042095,10.00202,-30.13497,-15.97086,-1.01888,-0.02294002,-0.07131449,32.96489,-22.04413,7.95009,1007.804
20.767324448,7.894915,-31.07421,-20.6633,-0.9847803,0.1335499,0.0967716,32.96489,-22.04413,7.95009,1007.804
20.802089691,12.79083,-20.74253,-23.34469,-0.9779717,0.1400831,0.1625417,33.67714,-21.3287,7.494101,1007.804
20.834371567,9.50623,-14.93095,-25.53855,-1.003439,0.0434312,0.08034593,34.02727,-20.97381,7.048243,1007.804
20.866653919,11.86123,-11.93711,-24.68538,-0.9980653,0.0241253,0.09086023,34.02727,-20.97381,7.048243,1007.81
20.901419163,8.762547,-10.76305,-18.83508,-0.9979747,-0.00677405,0.1119556,34.3774,-20.61892,6.602385,1007.808
20.933701038,0.9538654,-8.649753,-12.37536,-1.002839,-0.004466513,0.08297293,35.43911,-19.18409,5.695921,1007.806
20.968466282,1.88347,-9.23678,-8.353273,-1.006703,0.001408195,0.1062197,35.06303,-18.45671,5.256478,1007.806
21.000748634,0.3341288,-7.651805,-7.743866,-1.005257,0.006765042,0.114949,35.06303,-18.45671,5.256478,1007.806
21.035513878,1.635576,-7.182183,-9.084561,-1.00626,0.02323059,0.1193957,35.43778,-18.45506,5.686688,1007.806
21.067795753,4.176496,-8.121428,-12.49724,-1.000456,0.02422978,0.1237398,35.42448,-17.73166,5.241731,1007.804
21.100078106,-1.587055,-7.240886,-14.02076,-0.9984606,-0.001898472,0.1231035,35.42448,-17.73166,5.241731,1007.804
21.134843349,-0.7194234,-7.358292,-13.71605,-0.9979538,-0.01304055,0.1191716,36.16135,-17.36949,5.66181,1007.804
21.167125225,-4.437843,-4.716667,-14.3864,-1.000879,0.0005371907,0.1298907,36.16202,-17.73401,5.666426,1007.804
21.201890468,-10.07745,-3.014286,-19.07884,-1.005275,0.01988844,0.131944,36.16202,-17.73401,5.666426,1007.804
21.234172821,-16.89455,-3.483908,-25.47761,-1.021673,-0.004906075,0.1120173,36.14805,-16.64609,5.216852,1007.804
21.268938064,-19.93126,-5.949425,-35.16718,-1.022091,-0.02858228,0.1230027,36.12276,-15.92833,4.336166,1007.803
21.301219940,-21.41863,-2.720772,-44.79581,-1.035161,-0.001313216,0.1840992,36.12276,-15.92833,4.336166,1007.801
21.333502292,-38.27546,8.256648,-57.3496,-1.203834,-0.06643829,0.1014244,36.47157,-14.84441,3.881077,1007.801
21.368267536,-55.81401,12.77676,-73.31606,-1.343852,0.07912117,0.1900562,37.19513,-13.75884,3.856198,1007.801
21.400549412,-44.5348,0.2730695,-93.18273,-1.450935,-0.07108985,0.08017579,37.19513,-13.75884,3.856198,1007.801
21.435314655,-43.29533,-18.80533,-119.1435,-1.471979,-0.08392002,-0.2611595,38.64359,-12.31673,3.815673,1007.799
21.467597008,-29.53718,-32.65919,-142.4838,-1.470822,0.04240913,-0.2546425,39.72465,-8.31902,3.748352,1007.797
21.499878883,-25.9427,-40.81887,-146.6277,-1.237882,0.1871881,0.002384654,39.72465,-8.31902,3.748352,1007.799
21.534644127,5.353995,-35.82914,-118.656,-0.6381176,-0.2129722,0.2221654,39.99636,-4.413529,0.6427431,1007.799
21.566926479,148.3272,-7.769211,-32.48579,-0.6149814,0.54648,-0.03075564,40.32657,0.309917,-0.2942326,1007.799
21.601691723,-141.5236,14.77266,49.11381,-0.4919821,0.7258887,0.1135807,40.32657,0.309917,-0.2942326,1007.801
21.633973598,-74.28217,19.70369,104.8746,-0.5731645,0.2480529,-0.02094007,40.63479,3.928549,-2.088814,1007.799
21.668738842,-110.9706,35.31863,149.2394,-0.8105807,0.2048792,-0.1366992,40.30929,3.220408,-0.7668865,1007.801
21.701021194,-84.63177,34.55549,178.8566,-0.9434054,-0.07483887,-0.1703937,40.30929,3.220408,-0.7668865,1007.801
21.733303070,-51.53782,33.73365,199.2717,-1.141765,-0.02013626,-0.139682,40.74059,-1.494112,1.466238,1007.799
21.768068314,-35.42467,35.43604,201.4046,-1.34647,-0.1699149,-0.1821516,39.32338,-6.934625,2.428992,1007.803
21.800350666,-9.333763,25.33916,197.6872,-1.431045,-0.3526835,-0.0650495,39.32338,-6.934625,2.428992,1007.8
21.835115910,39.25359,22.52142,180.8067,-1.430426,-0.406851,-0.05617348,39.33319,-12.34161,2.497461,1007.8
21.867397785,33.24215,16.35763,161.6104,-1.306768,-0.7333719,0.01953706,38.31802,-19.59179,4.784959,1007.8
21.902163029,74.45462,17.47298,124.1928,-1.275307,-0.5894852,0.4694019,36.5167,-26.49764,4.900238,1007.799
21.934445381,-65.7298,-9.295483,45.45737,-1.290988,-1.097485,0.5177918,36.5167,-26.49764,4.900238,1007.799
21.966727257,5.787811,-8.062724,-71.36596,-1.021383,-0.963751,0.05435341,32.20992,-32.26513,6.347459,1007.802
22.001492500,229.8846,-172.137,-97.69234,-1.475502,0.7509817,0.210597,31.14019,-35.89268,6.845891,1007.802
22.033774853,-143.4448,-37.47282,-79.71484,-1.458093,-0.9745674,-0.0549909,31.14019,-35.89268,6.845891,1007.802
22.068540096,182.6606,-41.64071,-61.37169,-0.995898,0.3905274,0.2534405,33.29825,-32.27709,6.330913,1007.802
22.100821972,-12.37047,-27.14113,-39.00645,-0.9346891,-0.1299346,0.272104,35.12081,-30.46882,6.715982,1007.802
22.135587215,15.82754,-20.39031,-27.67148,-1.056988,0.1664024,-0.001024032,35.12081,-30.46882,6.715982,1007.8
22.167869568,29.15188,-32.24827,-23.71033,-1.043637,0.01617295,-0.07538968,36.94404,-29.02507,7.105667,1007.802
22.200151443,14.65004,-30.48719,-24.99009,-0.951432,0.155079,0.1383979,37.25755,-28.32256,5.348014,1007.802
22.234916687,7.275179,-17.45517,-24.74632,-0.9778897,0.09742038,0.1395774,37.25755,-28.32256,5.348014,1007.802
22.267199039,9.010441,-12.87635,-23.10093,-1.018363,0.002613859,0.04340467,37.98045,-26.87248,5.31852,1007.802
22.301964283,14.40215,-13.05246,-20.11483,-1.004397,0.04346447,0.09098383,38.69205,-25.79254,4.857914,1007.8
22.334246158,7.708994,-10.70435,-15.05675,-0.9990026,0.01740487,0.1077444,38.69205,-25.79254,4.857914,1007.8
22.366528511,1.325707,-9.23678,-9.572087,-1.012568,0.02263205,0.09088299,39.76707,-25.08111,4.396408,1007.799
22.401293754,1.20176,-11.11527,-7.865747,-1.009682,0.02795373,0.0880064,39.77706,-23.98193,4.818288,1007.799
22.433575630,-0.03771318,-9.88251,-9.876791,-1.00828,0.05658665,0.1108878,39.77706,-23.98193,4.818288,1007.799
22.468340874,-4.127975,-9.588997,-13.95982,-1.00295,0.05274025,0.1137551,39.78905,-23.97629,5.254015,1007.799
22.500623226,-1.401134,-9.88251,-16.82403,-0.9989828,0.01748677,0.1319168,40.11587,-23.99718,3.941319,1007.797
22.535388470,-1.463107,-9.119374,-19.81013,-0.9994521,0.01754436,0.1493219,40.11587,-23.99718,3.941319,1007.797
22.567670345,-4.189949,-10.17602,-20.968,-1.005691,-0.009644047,0.1283929,40.09058,-23.27942,3.060633,1007.797
22.599952698,-4.251922,-8.591049,-22.36964,-0.9989483,0.009322233,0.1502409,40.82679,-22.55273,3.476097,1007.797
22.634717941,-11.37889,-7.945319,-26.63549,-1.006196,0.002482269,0.1371648,40.82679,-22.55273,3.476097,1007.797
22.666999817,-19.55942,-8.121428,-31.99827,-1.005646,-0.01971809,0.1544412,41.53838,-21.4728,3.015491,1007.795
22.701765060,-20.73692,-9.588997,-38.45798,-1.012868,-0.02156644,0.1863532,41.87652,-21.12354,2.133907,1007.795
22.734047413,-31.08652,-3.894828,-47.05062,-1.057872,0.002598072,0.2151105,42.5881,-20.0436,1.673301,1007.795
22.768812656,-24.76521,-2.133744,-64.2359,-1.287481,-0.03391024,0.2033118,42.5881,-20.0436,1.673301,1007.795
22.801094532,-65.04809,3.501722,-74.77864,-1.506864,0.03394948,-0.007092269,42.57281,-18.22666,1.214495,1007.795
22.833376884,-74.59203,-1.898933,-97.93611,-1.560929,-0.08261777,-0.2300203,42.90765,-16.05482,0.3098307,1007.795
22.868142128,-35.05283,-26.78891,-124.6891,-1.457488,-0.05608659,-0.1996358,42.90765,-16.05482,0.3098307,1007.795
22.900424004,-31.21046,-38.17725,-140.8384,-1.407963,0.07874191,-0.1535327,43.62725,-12.78216,0.2572565,1007.795
22.935189247,-62.69308,-69.75935,-133.7693,-1.003451,0.2925535,0.1944037,43.89753,-8.086884,-2.858353,1007.797
22.967471600,-13.17613,-34.65508,-87.63713,-0.5367468,-0.3956289,0.07200925,43.89753,-8.086884,-2.858353,1007.8
23.002236843,116.1009,-18.92274,6.272496,-0.4975961,0.9513941,0.4034879,43.85176,-2.696805,-4.234002,1007.802
23.034518719,-208.765,11.4266,71.96658,-0.5772576,0.3380034,-0.03492296,43.09971,0.5821552,-5.011474,1007.798
23.066801071,-91.88268,10.83957,124.1928,-0.639752,0.2122872,0.04861525,43.09971,0.5821552,-5.011474,1007.798
23.101566315,-127.8274,12.07233,169.7764,-0.831567,0.1107275,-0.05597156,42.7409,-1.600951,-4.978263,1007.8
23.133848190,-107.7479,6.789078,192.6901,-1.012323,0.08077764,-0.03013003,41.69172,-5.218849,-3.732871,1007.801
23.168613434,-111.4664,-4.129639,209.0222,-1.264771,-0.144842,-0.1352916,41.69172,-5.218849,-3.732871,1007.801
23.200895786,-99.25755,-7.651805,203.111,-1.440949,-0.2725576,-0.1172674,39.50459,-11.70591,-4.426669,1007.801
23.235661030,-122.2498,-21.44696,192.9339,-1.468485,-0.4327631,0.04093238,35.11562,-17.51204,-5.967289,1007.803
23.267942905,-173.3161,-25.61486,165.6934,-1.367085,-0.589887,-0.0003049619,35.11562,-17.51204,-5.967289,1007.803
23.300225258,-214.1567,-19.68588,114.3813,-1.236169,-1.105973,-0.4632717,31.42388,-21.88015,-8.471105,1007.803
23.334990501,-69.88203,-16.45722,36.80379,-1.061409,-1.486247,-0.7278343,29.13332,-25.19321,-12.75374,1007.805
23.367272377,131.0366,27.92208,-66.00318,-0.9183145,-1.223615,-0.603856,29.13332,-25.19321,-12.75374,1007.807
23.402037620,100.2976,-87.48759,-63.93119,-1.623284,1.09534,1.42147,26.5466,-25.55234,-14.45342,1007.81
23.434319973,319.4365,-54.73143,-69.23304,-0.347076,-0.2476378,-1.115367,27.76744,-25.86684,-9.672356,1007.81
23.466601848,-239.8758,-18.98144,-20.54142,-1.422237,0.3063597,0.1958682,27.76744,-25.86684,-9.672356,1007.81
23.501367092,67.2037,35.43604,-14.32546,-1.049388,0.09749097,0.2209496,28.84245,-25.15541,-10.13386,1007.81
23.533649444,-20.92284,-11.7023,-9.572087,-0.9844455,-0.03707471,0.01264927,28.81716,-24.43765,-11.01455,1007.807
23.568414688,12.79083,-8.591049,-10.66902,-0.9741352,0.1619528,0.1868297,28.81716,-24.43765,-11.01455,1007.808
23.600696564,-5.925211,-1.840231,-12.80194,-0.9722508,0.1935153,0.2169783,29.91748,-24.44398,-10.59537,1007.808
23.635461807,-12.74231,-2.427258,-15.30051,-1.020469,0.09816174,0.1087333,29.9188,-25.17301,-10.58613,1007.808
23.667744160,-6.668895,-2.427258,-17.6772,-1.003989,0.09006551,0.1333071,30.26761,-24.08908,-11.04122,1007.808
23.700026035,-6.049159,-0.7835804,-18.28661,-0.9801918,0.05342347,0.1533519,30.26761,-24.08908,-11.04122,1007.807
23.734791279,-7.660474,1.153611,-13.71605,-0.9883755,0.03644773,0.148922,30.62972,-23.72856,-11.05136,1007.807
23.767073631,-8.28021,0.8013946,-8.901739,-1.003861,0.0314692,0.1208877,30.97986,-23.37366,-11.49721,1007.807
23.801838875,-6.730869,1.212314,-7.25634,-1.001909,0.02959307,0.1368263,30.97986,-23.37366,-11.49721,1007.807
23.834120750,-9.45771,2.973397,-5.671882,-0.9985302,0.03397448,0.1416783,30.60245,-21.91725,-11.94589,1007.808
23.868885994,-12.49442,3.795236,-4.026483,-0.9966018,0.03200171,0.1290935,30.62708,-22.27049,-11.06982,1007.808
23.901168346,-11.31692,5.027995,-3.965542,-0.9956324,0.03983251,0.1542748,30.62708,-22.27049,-11.06982,1007.808
23.933450222,-12.24652,7.2587,-4.514009,-0.992269,0.04806079,0.1518971,31.33933,-21.55507,-11.52581,1007.808
23.968215466,-11.99863,7.552214,-6.34223,-1.004372,0.05138915,0.1446905,31.33999,-21.91959,-11.52119,1007.807
24.000497818,-9.147842,8.843676,-9.328324,-0.9874153,0.0447297,0.1644371,31.33999,-21.91959,-11.52119,1007.803
24.035263062,-13.73389,11.13308,-10.91278,-1.009648,0.02516154,0.1208643,31.32668,-21.19619,-11.96615,1007.801
24.067544937,-9.643631,9.195892,-12.68006,-1.005787,0.02465263,0.1102174,31.31337,-20.4728,-12.41111,1007.8
24.102310181,-12.24652,11.25049,-15.42239,-1.008215,0.03388951,0.1247783,31.31337,-20.4728,-12.41111,1007.8
24.134592533,-15.96494,11.13308,-17.55532,-1.015388,-0.01173354,0.09117711,31.70078,-20.83003,-11.54056,1007.8
24.166874409,-20.11718,14.18563,-18.95696,-1.012958,-0.01314074,0.102283,32.42368,-19.37995,-11.57005,1007.798
24.201639652,-21.29468,21.58218,-19.62731,-1.029922,0.006190952,0.1091976,32.42368,-19.37995,-11.57005,1007.8
24.233921528,-33.81335,29.15483,-17.6772,-0.9983935,-0.04022547,0.09436254,33.16057,-19.01777,-11.14997,1007.801
24.268687248,-34.49506,29.74186,-12.68006,-1.002707,-0.07037908,0.05359155,33.52267,-18.65725,-11.1601,1007.803
24.300969124,-33.9373,30.21148,-6.585992,-1.00566,-0.05691436,0.03095285,33.52267,-18.65725,-11.1601,1007.803
24.333250999,-47.13769,31.62035,-1.588855,-1.032422,0.03369753,0.08857151,33.9081,-17.92093,-10.30339,1007.803
24.368016720,-72.36098,29.68316,5.602149,-1.062701,0.1838606,0.1576554,34.28088,-16.82574,-9.887032,1007.805
24.400298595,-108.3057,19.11666,12.1228,-1.088932,0.2673395,0.2519737,34.28088,-16.82574,-9.887032,1007.805
24.435063839,-166.313,15.35968,18.39969,-1.067979,0.1654447,0.154178,34.99445,-16.83935,-10.33379,1007.803
24.467345714,-219.7343,-2.603367,24.73753,-1.008249,0.07479667,0.2009109,34.58307,-16.49339,-12.0758,1007.803
24.502111435,-202.8155,8.608865,29.4909,-1.025951,-0.001679149,0.2111498,34.53249,-15.05786,-13.83717,1007.804
24.534393310,-251.8987,-1.135797,26.68763,-0.9960936,-0.1960564,0.09008747,34.53249,-15.05786,-13.83717,1007.804
24.566675186,-212.2355,-0.372661,17.85123,-1.025295,-0.3855002,-0.09608378,34.47123,-14.357,-16.02503,1007.803
24.601440906,-174.8034,-7.064778,0.3612478,-1.062341,-0.2314359,-0.01245991,34.76879,-11.47304,-18.24611,1007.803
24.633722782,-158.3184,-11.64359,-13.95982,-1.064316,-0.2413837,-0.09034585,34.76879,-11.47304,-18.24611,1007.803
24.668488026,-131.9796,-11.93711,-26.02608,-1.053898,-0.1455076,-0.0816047,33.97868,-8.941622,-20.44602,1007.801
24.700769901,-135.822,-10.93916,-35.10624,-1.039051,-0.06933729,-0.03672724,34.32495,-6.460388,-20.91881,1007.799
24.735535622,-144.7462,-10.23473,-40.22526,-1.022354,0.03923395,0.0001120074,34.32495,-6.460388,-20.91881,1007.797
24.767817497,-162.9665,-10.88046,-38.94551,-1.022407,0.08445879,0.06515005,34.28371,-3.561166,-22.26292,1007.797
24.800099373,-182.984,-16.0463,-34.07025,-1.007583,0.1918102,0.172085,33.1881,0.4604735,-22.29714,1007.797
24.834864616,-218.3089,-20.39031,-29.25594,-0.9922019,0.2022224,0.08992648,33.1881,0.4604735,-22.29714,1007.799
24.867146969,-232.4389,-17.92479,-27.8543,-0.9730312,0.2870864,0.1261422,32.41865,4.825736,-23.64868,1007.797
24.901912212,-231.2614,-14.63744,-22.6134,-0.9440085,0.0253306,-0.0276919,31.38231,9.240063,-21.50889,1007.797
24.934194088,-202.8155,-15.69409,-23.77127,-0.9825361,-0.07382247,-0.1229266,31.38231,9.240063,-21.50889,1007.797
24.968959808,-118.0356,-33.89195,-28.89029,-0.8509345,-0.2587735,0.0241538,31.05821,14.36981,-19.82509,1007.797
25.001241684,28.53214,-12.93505,7.186607,-0.7706449,0.5760016,0.1017265,29.2497,18.04054,-19.40795,1007.799
25.033523560,-39.51493,4.264858,49.17475,-0.7973731,0.5084267,-0.2529607,29.2497,18.04054,-19.40795,1007.799
25.068288803,-54.51256,-5.773317,53.25778,-1.201776,-0.2764877,0.2346216,29.2597,19.13973,-18.98607,1007.801
25.100571156,63.79516,4.910589,33.45205,-1.126716,-0.03646343,-0.1151519,29.28433,18.78648,-18.11,1007.803
25.135336399,-33.06967,-27.14113,12.24469,-1.279485,-0.005981981,0.01249506,29.28433,18.78648,-18.11,1007.803
25.167618274,4.300443,-16.57463,8.039777,-0.9534864,-0.03302635,0.03871125,30.33803,18.02858,-19.42449,1007.804
25.199900627,14.46412,-18.57052,18.94816,-0.9687528,-0.1490047,-0.04313299,30.33869,17.66406,-19.41988,1007.804
25.234665870,6.965311,-17.74868,21.44673,-0.9999995,0.06125871,0.1974321,30.33869,17.66406,-19.41988,1007.804
25.266947746,-3.694159,-16.51593,19.98415,-1.054505,-0.07565457,-0.03141202,30.31604,16.92376,-20.2821,1007.806
25.301712990,-4.871659,-23.44285,14.13385,-1.003925,0.06882834,0.1496231,30.30538,16.1891,-20.7086,1007.806
25.333995342,-17.57626,-19.15755,12.48845,-0.9809413,-0.05025303,0.1194067,30.30538,16.1891,-20.7086,1007.802
25.368760586,-20.42705,-15.57668,14.13385,-1.01837,0.03825842,0.1373945,30.3067,15.46007,-20.69936,1007.804
25.401042461,-19.55942,-11.29138,14.13385,-1.020195,-0.02726584,0.08143038,29.95657,15.10517,-20.25351,1007.804
25.433324814,-18.93968,-8.591049,10.78211,-1.002397,0.02224103,0.109713,29.95657,15.10517,-20.25351,1007.805
25.468090057,-20.73692,-5.362397,7.247548,-1.01207,0.02025146,0.1019875,29.21837,15.47203,-20.68282,1007.805
25.500371933,-8.404158,-4.951478,5.541208,-0.979618,0.01861476,0.1628215,29.58048,15.83256,-20.69295,1007.805
25.535137176,-11.99863,-1.898933,5.663089,-0.9878192,-0.009184318,0.1061188,29.58114,15.46804,-20.68833,1007.807
25.567419529,-25.32297,1.740639,6.699081,-1.010628,0.02022121,0.09183198,29.58114,15.46804,-20.68833,1007.807
25.602184772,-10.38731,-0.7835804,6.760022,-1.021287,0.01765977,0.05896656,29.59247,15.83819,-20.25722,1007.807
25.634466648,-16.95652,-1.1945,6.638141,-1.013005,0.01012059,0.1120841,29.94326,15.82857,-20.69846,1007.809
25.666749000,-10.8831,-2.368556,7.613192,-0.9980754,0.03532282,0.1107449,29.94326,15.82857,-20.69846,1007.809
25.701514244,-12.61837,-2.016339,8.466362,-1.006763,0.02070637,0.08892577,30.3067,15.46007,-20.69936,1007.809
25.733796120,-17.51429,-0.07914713,8.405421,-0.9971367,0.05133454,0.1224364,29.95657,15.10517,-20.25351,1007.811
25.768561363,-14.16771,0.3904751,8.771066,-1.010128,0.01638065,0.100511,29.95657,15.10517,-20.25351,1007.814
25.800843716,-18.69179,-0.5487694,9.928939,-1.015959,0.04556521,0.1495168,30.69345,15.46735,-19.83342,1007.816
25.835608959,-6.978764,-4.305747,9.258591,-1.003029,0.08075241,0.09747761,29.61578,16.21398,-19.39038,1007.816
25.867890835,-14.29166,-4.892775,6.516259,-0.997196,0.06428268,0.08770262,29.61578,16.21398,-19.39038,1007.819
25.900172710,-12.24652,-5.538506,3.834868,-0.9989792,0.02776393,0.1658159,30.34133,16.206,-19.40141,1007.821
25.934938431,-4.499817,-3.953531,2.189469,-1.001134,0.1167587,0.1537571,30.70411,16.20201,-19.40693,1007.828
25.967220306,-6.173106,-3.718719,1.336299,-1.002446,0.05136029,0.134534,30.70411,16.20201,-19.40693,1007.83
26.001985550,-2.578633,-5.068883,0.7268921,-1.004861,0.05674047,0.1534239,29.62909,15.49058,-18.94543,1007.83
26.034267902,-4.437843,-3.072989,0.5440699,-0.9966554,0.05181493,0.1209878,30.34199,15.84148,-19.3968,1007.83
26.066549778,-0.5954761,-2.779475,-0.9794477,-1.016928,0.022098,0.07977027,30.34199,15.84148,-19.3968,1007.833
26.101315022,23.32636,-6.653858,-3.051432,-0.991466,0.1221505,0.1658529,29.96657,16.20436,-19.83163,1007.833
26.133596897,-4.871659,-3.131692,-2.381084,-1.005396,0.08731177,0.1787377,29.96789,15.47532,-19.82239,1007.835
26.168362617,3.556759,-4.305747,0.4221885,-1.015392,-0.008818501,0.09457776,29.96789,15.47532,-19.82239,1007.835
26.200644493,0.3961024,-6.008128,0.4221885,-1.00441,0.06197988,0.1283139,30.31736,16.19473,-20.27287,1007.836
26.235409736,-1.772976,-6.653858,-0.5528627,-1.002938,0.05376544,0.1306812,29.24234,15.4833,-19.81136,1007.836
26.267691612,-2.516659,-7.006075,-0.8575662,-0.9980735,0.04803601,0.1494923,29.24234,15.4833,-19.81136,1007.836
26.299973965,-2.082844,-6.066831,-0.6747441,-0.9903211,0.05105506,0.1770487,29.95524,15.8342,-20.26274,1007.835
26.334739208,-0.7813971,-4.775369,-1.345092,-1.004386,0.06647775,0.1703986,29.60445,15.84383,-19.8215,1007.835
26.367021084,-2.578633,-3.777422,-1.345092,-1.00586,0.07810427,0.1753023,29.22969,15.84218,-20.25171,1007.835
26.401785850,-5.181527,-3.836125,-1.588855,-1.007307,0.07322807,0.1656089,29.22969,15.84218,-20.25171,1007.833
26.434068680,-4.251922,-2.603367,-1.284151,-1.003438,0.07715315,0.1781923,29.24168,15.84781,-19.81598,1007.833
26.468833923,-7.660474,-2.016339,-2.685787,-1.008153,0.01948631,0.158537,29.22969,15.84218,-20.25171,1007.833
26.501115799,-10.01547,-1.1945,-5.48906,-1.017353,0.02624979,0.1629462,29.22969,15.84218,-20.25171,1007.833
26.533398151,-6.544948,-0.02044435,-8.840798,-1.030448,0.03777597,0.1480534,29.22969,15.84218,-20.25171,1007.831
26.568163395,-6.297053,0.5078807,-13.04571,-1.059484,0.03759802,0.1200755,29.24102,16.21233,-19.82059,1007.831
26.600445270,-9.333763,0.7426918,-14.56923,-1.049764,0.01535021,0.1155771,29.24102,16.21233,-19.82059,1007.83
26.635210037,-3.818106,9.254595,-13.71605,-1.03848,-0.06408711,0.08416106,28.87824,16.21632,-19.81508,1007.83
26.667492866,1.635576,11.83752,-12.98477,-0.9987717,-0.1111359,0.01854374,28.86493,16.93972,-20.26004,1007.83
26.702258110,-74.77795,-13.40468,15.96207,-0.6061767,-0.299217,0.5924037,28.86493,16.93972,-20.26004,1007.83
26.734539986,118.0221,15.47709,17.30276,-0.4338314,0.1012176,0.2288294,28.5248,17.68401,-19.3923,1007.83
26.766822338,-62.07335,36.61009,25.10317,-0.7905089,0.6329594,0.2186019,29.60247,16.93737,-19.83534,1007.83
26.801587582,-356.3863,8.667567,17.48558,-0.9969718,0.07098115,-0.7926016,29.60247,16.93737,-19.83534,1007.831
26.833869457,-105.269,22.69753,-6.281289,-0.8394793,0.1989163,-0.01532766,29.27764,15.86472,-18.5088,1007.83
26.868634224,-18.44389,15.59449,-55.88702,-1.034921,-0.07953015,-0.3350758,30.83264,18.08657,-14.63701,1007.83
26.900917053,123.6617,31.32684,4.505216,-1.401404,-0.2386724,-0.1476166,30.83264,18.08657,-14.63701,1007.83
26.933198929,-113.6974,23.75418,-14.56923,-0.898556,0.0762789,0.117048,30.13973,19.93403,-13.34188,1007.83
26.967964172,51.52438,3.208208,-12.19254,-1.032416,-0.1978625,0.01618937,30.10378,19.91713,-14.64906,1007.83
27.000245571,-1.958897,5.967239,-8.475154,-0.9688858,-0.054754,0.0661769,30.10378,19.91713,-14.64906,1007.828
27.035011768,21.90096,3.325614,-2.442024,-0.96984,-0.04346425,0.1141036,29.39955,21.39444,-13.78504,1007.828
27.067293644,8.948467,-0.372661,1.641003,-1.050149,0.01477901,0.2330503,29.38757,21.3888,-14.22077,1007.822
27.102058411,-16.02692,3.325614,0.9706549,-0.9965515,0.02341385,0.1653025,29.38757,21.3888,-14.22077,1007.822
27.134341240,-15.22126,3.619128,0.4831293,-1.031181,-0.1088351,0.01089165,29.75167,20.65578,-14.21705,1007.822
27.166623115,5.849784,0.683989,0.7878328,-1.002704,-0.0615668,0.08361484,29.76431,20.2969,-13.77671,1007.822
27.201388359,2.441233,2.327667,0.5440699,-1.015326,-0.03688963,0.09345113,30.13841,20.66306,-13.35111,1007.822
27.233669758,-1.896923,2.621181,-0.2481592,-1.014834,-0.04418322,0.08277296,30.13841,20.66306,-13.35111,1007.824
27.268435955,0.7059708,2.092856,-0.7966256,-1.005128,-0.06062388,0.0783076,29.77497,21.03157,-13.35021,1007.819
27.300717830,0.7059708,2.621181,-1.16227,-1.009989,-0.04803918,0.08322402,29.76365,20.66142,-13.78133,1007.821
27.335482597,3.308865,2.855992,-1.466973,-1.00757,-0.04949224,0.08079336,29.76365,20.66142,-13.78133,1007.821
27.367764473,4.238469,1.916747,-1.345092,-1.014338,-0.05243647,0.07450649,29.40088,20.66541,-13.77581,1007.821
27.400047302,3.618733,0.3317723,-0.9794477,-1.016276,-0.05539143,0.06095759,29.76365,20.66142,-13.78133,1007.823
27.434812546,2.317286,-1.722825,-0.4309813,-1.018682,-0.06023598,0.06141867,29.76365,20.66142,-13.78133,1007.821
27.467093944,1.449655,-2.662069,0.05654432,-1.005618,-0.05625517,0.08268446,29.39889,21.75895,-13.78966,1007.821
27.501859188,0.9538654,-1.135797,1.031596,-1.003679,-0.05671554,0.08799548,30.4892,20.65344,-13.79236,1007.819
27.534142017,0.6439971,0.3904751,1.519121,-1.017712,-0.05435565,0.08223788,30.4892,20.65344,-13.79236,1007.819
27.568906784,1.635576,1.564531,0.2393664,-1.00905,-0.03300514,0.09200938,29.75101,21.0203,-14.22167,1007.815
27.601188660,-0.5954761,3.266911,-1.466973,-1.007576,-0.0470726,0.08080713,29.4122,21.03555,-13.3447,1007.819
27.633471489,-0.5335025,4.617075,-1.954499,-1.00319,-0.05962428,0.08604413,29.4122,21.03555,-13.3447,1007.818
27.668236732,-0.2856078,5.849833,-1.466973,-1.002247,-0.05092718,0.08125716,30.11444,20.65179,-14.22257,1007.818
27.700518131,0.7059708,5.791131,-1.22321,-1.02546,-0.05979927,0.0532173,29.41286,20.67104,-13.34008,1007.818
27.735283375,-1.33916,7.317403,-0.7966256,-1.031279,-0.06574912,0.01597123,29.41286,20.67104,-13.34008,1007.818
27.767566204,-0.5335025,9.019784,0.4831293,-1.027416,-0.07602178,-0.01986997,30.4892,20.65344,-13.79236,1007.818
27.799848080,-1.587055,11.66141,1.214418,-1.057891,-0.07517868,-0.03091858,30.12576,21.02194,-13.79146,1007.816
27.834612846,1.20176,13.12898,0.6050107,-1.066135,-0.07236905,-0.0516727,30.12576,21.02194,-13.79146,1007.812
27.866895676,6.903337,13.36379,0.1784257,-1.105879,-0.02840232,-0.03876765,30.16238,20.67433,-12.47966,1007.81
27.901660919,1.325707,12.18973,-0.3700406,-1.096191,-0.02976749,-0.0213925,30.16172,21.03885,-12.48428,1007.81
27.933942318,-1.834949,14.47914,-0.4919221,-1.079737,-0.03699579,-0.02630344,30.16172,21.03885,-12.48428,1007.808
27.968707561,-0.3475815,16.70985,0.1784257,-1.048765,-0.05488311,-0.04725977,30.17437,20.67997,-12.04393,1007.808
28.000990391,1.077813,17.59039,-0.4309813,-1.012486,-0.05619191,-0.03574287,30.18768,19.95657,-11.59898,1007.81
28.033272266,6.035706,19.23407,-1.649795,-0.9892713,-0.05415216,-0.02466221,30.18768,19.95657,-11.59898,1007.807
28.068037033,15.33175,21.46477,-4.453068,-0.9641144,-0.0545167,-0.01069878,30.21231,19.60332,-10.72291,1007.807
28.100318909,8.390704,27.62856,-1.16227,-0.9559492,-0.02344642,0.01169846,30.22429,19.60896,-10.28718,1007.807
28.135085106,5.725837,29.38965,-1.771677,-0.9964049,-0.1025445,-0.01863729,30.61236,18.88721,-9.412009,1007.807
28.167366504,21.15728,27.62856,-4.209305,-1.000872,-0.04194953,0.01604102,30.61236,18.88721,-9.412009,1007.807
28.202131748,9.444257,24.1064,-5.732822,-1.023136,-0.04210157,-0.01001755,30.64832,18.90411,-8.104829,1007.807
28.234413624,2.503207,20.58423,-7.134459,-1.014928,-0.02942058,0.01227504,30.28687,18.17907,-8.090081,1007.807
28.266696453,-3.19837,19.9385,-6.098467,-1.0149,-0.05813781,-0.03671561,30.28687,18.17907,-8.090081,1007.805
28.301461220,-15.22126,21.46477,-4.757771,-1.013906,-0.09760352,-0.1167095,30.67428,17.82183,-7.219527,1007.803
28.333743095,-5.73929,24.28251,-4.331186,-1.032217,-0.1487028,-0.1860924,31.78657,17.82113,-6.36462,1007.799
28.368508339,-0.2856078,26.57191,-2.259202,-1.036609,-0.1376455,-0.2039072,31.78657,17.82113,-6.36462,1007.797
28.400790691,1.945444,31.44424,0.4221885,-1.042085,-0.0874861,-0.2490535,31.09632,18.21053,-5.051024,1007.797
28.435555935,-10.57324,35.08382,2.311351,-1.040742,-0.05567862,-0.2890009,31.11687,18.22019,-4.304064,1007.8
28.467837810,-9.395737,40.77799,3.347342,-1.049459,-0.07188446,-0.3514379,31.11687,18.22019,-4.304064,1007.795
28.500120640,-10.38731,45.2981,5.663089,-1.054325,-0.06762319,-0.3750916,31.15282,18.2371,-2.996884,1007.795
28.534885406,-13.98179,49.75951,8.222599,-1.047114,-0.06044836,-0.4060065,31.93962,17.52826,-0.8200493,1007.794
28.567167282,-15.28323,54.22092,9.075768,-1.054869,-0.07227641,-0.4626194,31.93962,17.52826,-0.8200493,1007.794
28.601932526,-10.82113,59.56288,9.319531,-1.045268,-0.05738621,-0.5036476,31.97558,17.54516,0.4871316,1007.792
28.634214878,-10.26337,66.72462,9.136709,-1.068046,-0.04544798,-0.5315701,32.4249,16.12255,3.550168,1007.79
28.666496754,-7.350605,72.65359,10.53835,-1.070025,-0.01974141,-0.5125656,32.4249,16.12255,3.550168,1007.789
28.701261997,-8.590079,78.99349,13.95103,-1.094241,-0.01068469,-0.5327663,32.87224,15.79349,6.599355,1007.787
28.733543873,-8.342184,81.40031,18.15593,-1.087093,0.03385584,-0.5330119,32.96944,15.10954,10.0944,1007.787
28.768309593,-11.50284,80.22626,23.57965,-1.062464,0.04357051,-0.543162,32.96944,15.10954,10.0944,1007.781
28.800591469,-19.31152,78.17165,30.46595,-1.029657,0.06534466,-0.5716317,33.07797,14.79573,14.02056,1007.781
28.835356712,-26.37652,75.35392,35.95062,-0.9895387,0.05317773,-0.6259325,32.11016,14.49953,18.39899,1007.781
28.867639065,-33.75138,73.71024,38.44919,-0.9605567,0.0492238,-0.6748448,32.11016,14.49953,18.39899,1007.779
28.899920940,-26.81034,72.18398,38.75389,-0.9242819,0.03910274,-0.6933511,32.19339,14.90348,21.44446,1007.776
28.934686184,-34.37112,72.18398,38.81483,-0.8803206,0.04540987,-0.7258005,31.54107,14.21624,24.07908,1007.776
28.966968060,-35.92046,73.47543,39.18048,-0.8353735,0.04886533,-0.7437649,31.54107,14.21624,24.07908,1007.774
29.001733780,-47.07572,74.76689,37.83978,-0.8060177,0.1011435,-0.7643188,29.77513,14.25872,25.84957,1007.771
29.034015656,-43.41927,79.63923,35.28027,-0.7861417,0.06085065,-0.8187359,26.93416,13.58977,28.08156,1007.769
29.068780899,-32.32599,83.68972,30.5269,-0.7711262,0.05953345,-0.7917032,25.52232,11.80005,29.43388,1007.766
29.101062775,-20.98481,85.74432,24.61565,-0.7262062,0.1107661,-0.7054566,25.52232,11.80005,29.43388,1007.766
29.133345127,-23.71165,82.75047,17.91217,-0.6807198,0.1100559,-0.6678504,23.76101,9.290916,31.23668,1007.764
29.168110370,-30.9006,75.23652,10.05082,-0.58445,0.09634298,-0.6545996,21.9744,7.499549,32.15879,1007.762
29.200392246,-27.05823,69.30753,2.189469,-0.5494329,-0.003387637,-0.6968178,21.9744,7.499549,32.15879,1007.759
29.235157490,-9.395737,57.44958,-9.328324,-0.456652,0.04989464,-0.6174309,19.84899,5.72344,33.95787,1007.757
29.267439842,-34.86691,49.28989,-19.50542,-0.4409585,-0.02587083,-0.5685848,17.34815,4.3102,35.32212,1007.757
29.302205086,-33.62743,39.83874,-36.50788,-0.4253418,-0.0833846,-0.5602435,17.34815,4.3102,35.32212,1007.755
29.334486961,-29.35126,31.91387,-54.72915,-0.4388498,-0.1018634,-0.5753061,16.63657,3.230265,35.78273,1007.754
29.366769314,-16.52271,20.40812,-74.90052,-0.4351103,-0.04570022,-0.5701604,15.21009,2.892972,36.68085,1007.75
29.401534557,-8.961921,3.384317,-91.23264,-0.3704441,0.03653595,-0.4910318,15.21009,2.892972,36.68085,1007.748
29.433816433,-15.22126,-15.75279,-101.0441,-0.3729573,0.08939847,-0.4549513,14.88525,1.820316,38.0074,1007.748
29.468581676,-5.491395,-42.52126,-107.0772,-0.3243326,0.2147307,-0.3542717,15.22406,1.805058,37.13043,1007.747
29.500864029,-23.95955,-63.24333,-108.4179,-0.3614807,0.3649505,-0.4055488,15.22406,1.805058,37.13043,1007.745
29.535629272,-0.5954761,-79.68011,-109.2101,-0.3559578,0.4634969,-0.4615627,15.96226,1.438201,37.55974,1007.743
29.567911148,-19.06363,-110.1469,-94.0359,-0.3432825,0.6325039,-0.4374241,18.11297,2.496548,36.64135,1007.743
29.600193024,-15.09731,-120.3611,-72.58478,-0.2464419,0.6088919,-0.3468806,18.11297,2.496548,36.64135,1007.743
29.634958744,-9.27179,-139.7918,-32.66861,-0.2126893,0.9246674,-0.7280412,20.95261,3.89453,34.40013,1007.743
29.667240620,128.9295,148.3215,53.92813,-1.22531,2.040623,-2.291656,24.52111,3.461956,32.17096,1007.741
29.702005863,-427.594,9.019784,13.09786,-1.949365,0.50813,-2.223876,24.52111,3.461956,32.17096,1007.743
29.734287739,2.441233,-75.92313,44.6042,0.1191016,-1.037015,0.1757226,27.07055,4.533219,32.55423,1007.744
29.766570091,8.82452,-39.99704,33.39111,-1.086947,0.6344529,0.1960442,25.56209,-3.503981,30.06348,1007.744
29.801335335,-11.06903,-27.72816,22.48272,-0.9395304,-0.2102084,-1.136115,25.56209,-3.503981,30.06348,1007.744
29.833617210,28.53214,-50.97446,24.79847,-0.7772953,0.7151644,-0.5254548,27.37795,-4.617471,30.04974,1007.743
29.868382454,-50.54625,-43.16698,25.10317,-0.654593,0.3427535,-0.5674787,28.08285,-6.459296,29.19034,1007.745
29.900664806,-16.64665,-39.87963,27.66268,-0.6678032,0.4315028,-0.4997476,28.08285,-6.459296,29.19034,1007.745
29.935430050,-30.03297,-38.17725,28.57679,-0.6964049,0.466305,-0.4874022,29.12456,-7.222831,27.44012,1007.741
29.967711925,-46.33204,-34.18546,26.93139,-0.71754,0.4184499,-0.453788,30.20344,-8.637741,27.00554,1007.741
29.999994278,-24.45534,-33.77454,24.37188,-0.7733009,0.5036622,-0.3942038,31.24647,-10.13031,25.26455,1007.739
30.034759521,-18.25797,-33.12881,23.45777,-0.8042723,0.5225304,-0.3693744,31.24647,-10.13031,25.26455,1007.739
30.067041397,-9.9535,-30.19367,20.71544,-0.7844391,0.5079595,-0.4018904,32.31348,-11.61161,24.39501,1007.741
30.101806641,-3.632185,-28.55,18.94816,-0.7506365,0.5440292,-0.3538977,31.54131,-12.3552,22.67237,1007.741
30.134088993,-13.67192,-26.31929,19.67945,-0.7607661,0.5284653,-0.3684675,31.54131,-12.3552,22.67237,1007.741
30.168854236,-11.56481,-26.96502,21.20297,-0.7438616,0.5445586,-0.3461743,32.60765,-13.47198,21.79821,1007.741
30.201136112,-13.85784,-25.43875,22.97025,-0.7012679,0.5380118,-0.3148798,31.8721,-14.56319,21.38737,1007.743
30.233417988,-8.837974,-23.44285,24.31094,-0.7250355,0.5698898,-0.3127136,31.8721,-14.56319,21.38737,1007.743
30.268183708,-14.16771,-20.68382,24.61565,-0.7671355,0.5813676,-0.3173919,32.19958,-14.94859,20.07929,1007.743
30.300465584,-9.395737,-20.68382,25.71258,-0.8073598,0.6229051,-0.3069169,32.56434,-16.04613,20.08762,1007.743
30.335230827,-13.79587,-19.56847,26.56575,-0.7914354,0.6311234,-0.3228579,32.56434,-16.04613,20.08762,1007.748
30.367512703,-0.7194234,-24.4408,30.22219,-0.7457927,0.6085818,-0.1587153,32.90447,-16.79042,19.21988,1007.748
30.402278423,11.61333,-27.66945,30.40501,-0.7160432,0.6468068,-0.3282491,32.8705,-17.90087,17.92655,1007.748
30.434560299,-21.29468,-25.14524,32.35512,-0.7007102,0.6824307,-0.3962444,32.8705,-17.90087,17.92655,1007.75
30.466842174,-50.54625,-24.08858,32.7817,-0.6392219,0.6834179,-0.2996836,32.13428,-18.62756,17.51108,1007.75
30.501607418,-58.60282,-23.32545,35.88968,-0.6573082,0.8013053,-0.1974522,32.46375,-20.10651,16.21685,1007.748
30.533889770,-105.3929,-15.28317,38.69295,-0.6824295,0.7754295,-0.2434718,32.46375,-20.10651,16.21685,1007.748
30.568655014,-120.8244,-14.05041,34.54898,-0.6803704,0.7754639,-0.09215976,31.68092,-21.58477,14.06771,1007.744
30.600936890,-116.92,-17.39647,34.97557,-0.6234207,0.8357718,-0.05133073,31.60165,-24.17582,11.04994,1007.744
30.633218765,-158.0086,-14.16781,33.08641,-0.6361663,0.9058743,-0.06009001,31.60165,-24.17582,11.04994,1007.744
30.667984486,-89.58966,-26.90632,29.73467,-0.6249496,0.4783202,-0.0006650677,31.52106,-26.03784,8.022927,1007.744
30.700266361,-55.81401,-42.40385,21.38579,-0.5918956,0.7146221,0.3008227,30.70359,-28.26204,4.575838,1007.744
30.735031605,-26.1906,-37.41411,18.76534,-0.6891832,0.6997796,0.1443139,30.70359,-28.26204,4.575838,1007.744
30.767313480,-21.4806,-37.29671,18.09499,-0.7055387,0.8735151,0.1603236,29.90745,-29.0169,1.98174,1007.746
30.802079201,-28.66955,-40.58406,18.39969,-0.6218879,0.8859605,0.192121,29.51004,-29.75885,0.6893072,1007.744
30.834361076,-19.1256,-36.41616,24.25,-0.5227604,0.8745183,0.1589684,28.73853,-30.86696,-1.028721,1007.744
30.866642952,-7.784421,-23.91248,38.14449,-0.5222005,0.9813192,-0.02751626,28.73853,-30.86696,-1.028721,1007.744
30.901407719,33.55201,0.2143668,57.82833,-0.09721586,1.386843,-0.1025097,28.68993,-30.52498,-2.776244,1007.746
30.933690548,71.47989,34.6729,96.16003,0.07847214,1.224749,-0.95998,27.25411,-32.32597,-2.295376,1007.748
30.968455791,15.7036,94.54973,120.7191,-0.0602906,1.425745,-0.3639085,27.25411,-32.32597,-2.295376,1007.748
31.000737667,44.02556,148.028,127.9101,-0.4303526,1.405545,-0.01369956,25.8769,-33.36976,0.3548946,1007.748
31.035502434,-65.54388,139.5161,131.0791,-0.5545398,0.7987524,0.1049445,20.88589,-35.46157,3.509894,1007.742
31.067785263,-47.8194,122.9619,124.0099,-0.658069,0.3883484,0.03853671,20.88589,-35.46157,3.509894,1007.742
31.100067139,87.34515,87.32929,102.9854,-0.5550732,0.1472896,-0.06796211,16.52389,-37.24192,3.163433,1007.746
31.134831905,117.4024,72.771,72.1494,-0.4893712,0.2649972,0.1960396,12.58261,-37.90454,4.976242,1007.744
31.167114734,162.2713,59.9738,38.81483,-0.4429192,0.5080823,0.3457374,12.58261,-37.90454,4.976242,1007.744
31.201879978,113.622,38.07766,5.236505,-0.311679,0.6235842,0.3316081,9.437471,-37.8123,9.38315,1007.746
31.234161854,107.6105,18.11871,-14.99581,-0.170059,0.7986421,0.1756641,8.078938,-35.92869,12.86795,1007.746
31.268926620,100.3596,-1.018392,-9.998672,0.01708226,1.193477,0.1465657,8.078938,-35.92869,12.86795,1007.74
31.301209450,7.585047,5.497617,23.51871,0.09100034,1.203195,0.09570058,7.084506,-34.7781,16.35646,1007.742
31.333491325,17.06702,9.78292,48.26064,0.1454478,2.076103,0.02367979,6.743053,-33.30478,17.21497,1007.742
31.368256092,-105.6408,46.70697,74.40421,-0.2368107,1.376266,-0.5354301,6.743053,-33.30478,17.21497,1007.742
31.400537968,-120.7624,41.0128,40.15553,-0.6119095,0.818801,-0.2138874,4.553746,-32.92197,16.80772,1007.744
31.435303211,37.8282,-48.45024,-37.30011,0.2654071,0.7648168,-0.178377,2.283186,-34.03666,13.36884,1007.744
31.467586040,101.847,-28.55,-41.32219,-0.02661626,1.941062,-0.2672639,2.283186,-34.03666,13.36884,1007.747
31.499867439,3.122944,-18.15961,-14.50828,-0.04632875,0.8700567,-0.2757283,1.548293,-35.49238,12.96261,1007.747
31.534632683,-1.525081,-5.362397,-16.58027,-0.002234235,0.9042811,-0.06678316,2.659271,-34.76405,13.80828,1007.747
31.566915512,-7.722447,4.440967,-11.03466,-0.04817534,0.8635726,-0.1882587,2.659271,-34.76405,13.80828,1007.749
31.601680279,-6.730869,2.679883,1.823825,-0.1097662,0.9286193,-0.2196631,2.681257,-33.65923,14.66589,1007.749
31.633962154,-7.040737,8.021836,13.7682,-0.06049938,0.9534554,-0.2152771,3.757603,-33.67683,14.21362,1007.751
31.668727398,-15.34521,3.736533,17.97311,-0.04548759,0.9550549,-0.1843603,3.034034,-34.7624,14.2385,1007.751
31.701010227,-13.36205,-6.536453,4.261453,-0.05058915,1.041899,-0.2573382,3.034034,-34.7624,14.2385,1007.751
31.733291626,-0.7194234,-2.838178,-7.621984,-0.05563691,1.133853,-0.2505198,2.645301,-33.67613,13.35871,1007.745
31.768056869,-34.74296,-6.771264,-1.771677,-0.02513902,1.121378,-0.2448552,3.360193,-34.41878,12.92119,1007.746
31.800338745,-28.79349,-3.425205,3.834868,-0.05770557,0.8123289,-0.1648411,3.360193,-34.41878,12.92119,1007.748
31.835103989,-19.00165,-1.840231,3.712987,-0.06625323,0.7572426,-0.1337123,3.349531,-35.15344,12.49469,1007.748
31.867386341,-20.86086,4.206156,4.627097,-0.01545013,0.9588001,-0.1041529,3.687675,-34.80418,11.6131,1007.748
31.902151585,-48.31519,5.262805,5.663089,-0.02360283,1.118804,-0.1486688,3.687675,-34.80418,11.6131,1007.748
31.934433460,-56.86756,4.851886,3.530164,-0.05595097,1.109632,-0.1148105,2.938813,-35.17199,10.7573,1007.748
31.966715813,-33.31757,3.619128,-2.259202,-0.0540431,0.9468484,-0.0282378,2.54008,-35.18491,9.455633,1007.748
32.001481056,-13.98179,-0.3139583,-5.367178,-0.05259597,0.9473266,-0.03113884,2.54008,-35.18491,9.455633,1007.748
32.033762932,-5.119554,-1.664122,-2.442024,-0.03695151,0.8855295,-0.001550728,2.505447,-35.93084,8.157684,1007.748
32.068528175,1.759523,1.094908,0.3003071,-0.03856079,0.9532819,0.0007717307,3.593116,-35.57829,8.136522,1007.748
32.100810528,4.672285,1.623233,0.6050107,-0.05423496,1.02815,-0.02729168,3.593116,-35.57829,8.136522,1007.748
32.135575771,5.415969,0.5078807,1.092536,-0.04694564,1.002421,-0.05742689,3.231662,-36.30333,8.15127,1007.75
32.167857647,10.49781,-0.1378499,-0.8575662,-0.04641967,0.9854947,-0.05462363,3.593778,-35.94281,8.141138,1007.75
32.200139522,8.018862,-1.253203,-1.22321,-0.04208351,0.9908173,-0.05847021,3.593778,-35.94281,8.141138,1007.75
32.234905243,3.680707,-0.4900666,-0.3700406,-0.03972075,1.013564,-0.05979629,2.492138,-35.20744,7.712726,1007.752
32.267187118,-2.888501,-0.6074721,-0.7356848,-0.04112578,0.9922473,-0.06571574,3.980525,-35.93552,9.007076,1007.752
32.301952362,-6.173106,-0.372661,-0.2481592,-0.04592159,0.9796922,-0.05369081,3.980525,-35.93552,9.007076,1007.752
32.334234238,-7.660474,0.3317723,0.4221885,-0.04547581,0.9956633,-0.05360096,3.96854,-35.94116,8.57135,1007.752
32.366516590,-7.846395,0.4491779,0.9706549,-0.04207503,0.992807,-0.04250544,3.231662,-36.30333,8.15127,1007.752
32.401281834,-3.88008,0.155664,-0.004396385,-0.04686888,0.9802601,-0.02806329,3.231662,-36.30333,8.15127,1007.753
32.433563709,-0.5954761,-0.4313638,-1.040388,-0.04253457,0.9870411,-0.02996783,3.582454,-36.31296,7.710027,1007.753
32.468328953,1.88347,-0.372661,-0.3090999,-0.04107115,0.9792794,-0.03678326,2.868886,-36.29935,8.156785,1007.755
32.500611305,2.37926,-0.02044435,-0.3700406,-0.04640595,0.9840855,-0.04206226,2.868886,-36.29935,8.156785,1007.753
32.535376549,0.2721551,0.0969612,-0.3700406,-0.04596117,0.9976091,-0.05020478,2.4928,-35.57196,7.717341,1007.753
32.567658424,-1.153239,0.3904751,-0.3090999,-0.04353685,0.9961773,-0.04635064,3.231662,-36.30333,8.15127,1007.755
32.599940300,-1.525081,0.155664,-0.06533709,-0.04740028,0.9937433,-0.04732303,3.231662,-36.30333,8.15127,1007.757
32.634705543,0.08623414,-0.02044435,-0.1262778,-0.047373,0.9845716,-0.0406071,3.581792,-35.94844,7.705411,1007.757
32.666987896,0.2721551,0.0969612,-0.3700406,-0.03964656,0.988949,-0.04059886,3.231662,-36.30333,8.15127,1007.757
32.701753139,-0.3475815,0.3317723,-0.1262778,-0.04692035,0.9976391,-0.04053377,3.581131,-35.58393,7.700795,1007.757
32.734035015,-0.9053444,-0.1378499,-0.06533709,-0.04642268,0.991835,-0.04008441,3.581131,-35.58393,7.700795,1007.753
32.768800259,-0.9673181,0.0969612,-0.2481592,-0.04739581,0.9952279,-0.03764582,2.868224,-35.93483,8.152169,1007.753
32.801082611,-1.091265,-0.07914713,-0.3700406,-0.04399769,0.9889399,-0.03962266,2.868224,-35.93483,8.152169,1007.753
32.833364487,-1.277186,0.03825843,-0.2481592,-0.04593724,0.9908669,-0.0405744,2.868224,-35.93483,8.152169,1007.754
32.868129730,-1.896923,-0.02044435,0.1784257,-0.0493211,0.9928158,-0.03378788,2.8569,-36.30498,7.721058,1007.754
32.900411606,-1.649028,-0.02044435,0.05654432,-0.04593064,0.989428,-0.03671508,2.880209,-35.9292,8.587896,1007.754
32.935177326,-1.401134,-0.02044435,-0.004396385,-0.04737689,0.9899308,-0.02994097,2.880209,-35.9292,8.587896,1007.754
32.967459202,0.08623414,-0.02044435,-0.1872185,-0.05122682,0.9836435,-0.02561747,3.207692,-36.31461,7.279817,1007.754
33.002224445,0.3961024,0.03825843,-0.004396385,-0.04689888,0.9899092,-0.03671025,3.571792,-37.04762,7.283532,1007.754
33.034506321,0.2721551,0.2143668,-0.3090999,-0.04158895,0.9947737,-0.03379341,3.571792,-37.04762,7.283532,1007.756
33.066788673,-0.2236342,0.3904751,-0.004396385,-0.03916997,0.9908764,-0.04348956,3.582454,-36.31296,7.710027,1007.756
33.101553917,-0.5954761,0.0969612,-0.2481592,-0.0459173,0.9836193,-0.03723158,3.945231,-36.31695,7.704512,1007.756
33.133835792,-0.5335025,0.03825843,-0.1872185,-0.04495127,0.9850837,-0.0343247,3.945231,-36.31695,7.704512,1007.756
33.168600559,-0.4095552,0.03825843,-0.1262778,-0.04786237,0.9904101,-0.03090407,3.582454,-36.31296,7.710027,1007.758
33.200883388,-0.5954761,-0.1378499,-0.4309813,-0.05222114,0.9933012,-0.03087823,2.856239,-35.94047,7.716442,1007.758
33.233165264,-0.8433707,0.2730695,-0.1262778,-0.05316077,0.9816841,-0.03094226,2.856239,-35.94047,7.716442,1007.758
33.267930507,-1.029292,0.0969612,0.117485,-0.04641221,0.9894349,-0.03429681,3.932584,-35.95807,7.26417,1007.76
33.300212383,0.1482078,-0.07914713,0.4221885,-0.05074256,0.9826704,-0.0275578,3.231001,-35.93882,8.146654,1007.761
33.334978103,0.2101815,0.03825843,0.2393664,-0.0459193,0.9880091,-0.0270544,3.231001,-35.93882,8.146654,1007.761
33.367259979,0.1482078,-0.07914713,0.1784257,-0.04496488,0.9923574,-0.02993236,2.494123,-36.30099,7.726574,1007.76
33.402024746,-0.03771318,0.155664,0.05654432,-0.04253425,0.986065,-0.03239057,2.869547,-36.66386,8.161401,1007.76
33.434306621,0.02426048,-0.07914713,0.05654432,-0.04446346,0.9841254,-0.03191401,2.869547,-36.66386,8.161401,1007.76
33.466589451,-0.1616605,0.0969612,-0.1872185,-0.04495533,0.9884876,-0.02947095,3.582454,-36.31296,7.710027,1007.761
33.501354694,0.2721551,0.3904751,-0.4919221,-0.04593742,0.9933094,-0.03379236,3.933246,-36.32258,7.268785,1007.761
33.533636570,-0.2856078,-0.02044435,-0.2481592,-0.04931494,0.9908867,-0.03186511,3.219016,-35.94445,7.710927,1007.761
33.568401337,-0.5335025,-0.1965527,-0.004396385,-0.04350983,0.9884704,-0.03575886,3.219016,-35.94445,7.710927,1007.761
33.600683212,-0.4095552,-0.02044435,0.2393664,-0.0464115,0.9884605,-0.03623611,3.207692,-36.31461,7.279817,1007.761
33.635448933,-0.4715288,-0.07914713,0.1784257,-0.04400364,0.9933133,-0.03427995,3.243648,-36.2977,8.586997,1007.76
33.667730808,-0.9053444,-0.1378499,0.117485,-0.04640368,0.9875156,-0.02947336,3.243648,-36.2977,8.586997,1007.761
33.700012684,-0.2236342,0.2730695,0.2393664,-0.0488314,0.9908881,-0.03186614,3.195045,-35.95572,6.839474,1007.761
33.734777927,0.1482078,0.4491779,-0.1262778,-0.04592057,0.9870265,-0.03141093,3.231001,-35.93882,8.146654,1007.761
33.767060280,-0.2856078,-0.02044435,-0.3090999,-0.04834556,0.9899215,-0.03187268,3.231001,-35.93882,8.146654,1007.761
33.801825523,-0.7194234,-0.07914713,-0.2481592,-0.04302075,0.9884948,-0.02899164,2.493462,-35.93648,7.721957,1007.761
33.834107399,-0.5335025,-0.02044435,-0.4919221,-0.0483449,0.9884583,-0.03526508,3.232324,-36.66785,8.155886,1007.761
33.868872642,-0.4095552,0.03825843,-0.3700406,-0.04446259,0.9851063,-0.02804092,3.232324,-36.66785,8.155886,1007.763
33.901154995,-0.7813971,0.2143668,-0.3090999,-0.05269624,0.9904028,-0.02895994,3.23034,-35.5743,8.142037,1007.763
33.933436871,-0.7813971,-0.2552555,-0.06533709,-0.04351636,0.9952849,-0.02411758,3.933246,-36.32258,7.268785,1007.763
33.968202114,-0.1616605,0.03825843,0.117485,-0.04739322,0.9976819,-0.02747966,3.933246,-36.32258,7.268785,1007.763
34.000483990,0.1482078,-0.07914713,0.117485,-0.05171652,0.9855713,-0.02753921,3.570468,-36.31859,7.274301,1007.765
34.035249233,0.2101815,-0.07914713,0.1784257,-0.04495529,0.9889764,-0.02801785,3.582454,-36.31296,7.710027,1007.761
34.067531586,-0.2236342,-0.07914713,0.2393664,-0.04543663,0.9870295,-0.03092852,3.582454,-36.31296,7.710027,1007.761
34.099813461,-0.4095552,-0.1378499,0.117485,-0.04591969,0.9880075,-0.02753785,3.208353,-36.67912,7.284432,1007.761
34.134578705,-0.4715288,-0.07914713,-0.06533709,-0.04397205,0.9836707,-0.02369919,3.220338,-36.67348,7.720159,1007.761
34.166861057,-0.2856078,-0.1378499,-0.1262778,-0.04495581,0.9875082,-0.03286059,3.220338,-36.67348,7.720159,1007.761
34.201626301,-0.1616605,-0.2552555,-0.2481592,-0.05027623,0.9894418,-0.02897062,3.218354,-35.57994,7.70631,1007.759
34.233908176,-0.1616605,-0.07914713,-0.2481592,-0.04447056,0.9889827,-0.02656855,3.932584,-35.95807,7.26417,1007.759
34.268673420,0.1482078,-0.02044435,0.05654432,-0.04979528,0.9913872,-0.0265434,3.932584,-35.95807,7.26417,1007.759
34.300955295,0.3341288,-0.1378499,0.05654432,-0.04785388,0.9880019,-0.02753371,3.207692,-36.31461,7.279817,1007.759
34.333237648,0.1482078,-0.02044435,0.3003071,-0.04931482,0.9923533,-0.02750582,3.569807,-35.95408,7.269685,1007.759
34.368002891,-0.2856078,-0.07914713,-0.1872185,-0.0507732,0.9942717,-0.03135928,2.856239,-35.94047,7.716442,1007.761
34.400284767,0.02426048,-0.1378499,0.1784257,-0.0473603,0.9851128,-0.02368369,2.856239,-35.94047,7.716442,1007.761
34.435050011,-0.1616605,0.155664,0.117485,-0.04593347,0.9933258,-0.02895789,3.582454,-36.31296,7.710027,1007.761
34.467332363,-0.1616605,-0.2552555,-0.1262778,-0.04595084,0.9981405,-0.03618206,3.957216,-36.31131,8.140239,1007.761
34.502097607,-0.09968685,-0.3139583,-0.3090999,-0.04399933,0.9928425,-0.03041512,3.957216,-36.31131,8.140239,1007.762
34.534379482,-0.03771318,0.03825843,-0.2481592,-0.04397758,0.9836478,-0.03046745,2.856239,-35.94047,7.716442,1007.758
34.566661358,0.08623414,0.2143668,-0.1262778,-0.04640308,0.9899614,-0.02172443,3.558483,-36.32423,6.838573,1007.758
34.601426601,-0.1616605,0.0969612,-0.06533709,-0.04833694,0.9889798,-0.02414304,3.558483,-36.32423,6.838573,1007.758
34.633708954,-0.3475815,0.0969612,0.05654432,-0.04640998,0.9923763,-0.023161,3.220338,-36.67348,7.720159,1007.757
34.668474197,-0.1616605,-0.07914713,0.3003071,-0.0478636,0.9899163,-0.0338075,3.207692,-36.31461,7.279817,1007.758
34.700756073,0.1482078,0.03825843,0.05654432,-0.04689216,0.9899371,-0.02849166,3.207692,-36.31461,7.279817,1007.758
34.735521316,-0.09968685,0.155664,0.1784257,-0.04301476,0.9846102,-0.03288125,3.582454,-36.31296,7.710027,1007.758
34.767803669,-0.3475815,-0.02044435,0.05654432,-0.04449053,0.9957414,-0.03136446,3.594439,-36.30732,8.145754,1007.758
34.800085545,-0.7194234,0.03825843,0.117485,-0.04931178,0.9908998,-0.02799753,3.594439,-36.30732,8.145754,1007.758
34.834850788,-0.09968685,-0.02044435,-0.1262778,-0.04688319,0.9885082,-0.02173166,3.57113,-36.68311,7.278916,1007.758
34.867132664,0.02426048,-0.02044435,-0.1262778,-0.04301693,0.9870446,-0.02851645,3.219016,-35.94445,7.710927,1007.757
34.901897430,0.2721551,-0.1965527,-0.1872185,-0.04398468,0.9885051,-0.02512199,3.219016,-35.94445,7.710927,1007.758
34.934180260,0.2101815,-0.07914713,-0.004396385,-0.04784834,0.9880248,-0.02076545,3.220338,-36.67348,7.720159,1007.758
34.966462135,-0.2236342,0.0969612,0.1784257,-0.04979576,0.9904078,-0.02993304,3.582454,-36.31296,7.710027,1007.754
35.001226902,-0.7813971,0.155664,0.1784257,-0.04738561,0.9942928,-0.02798239,3.582454,-36.31296,7.710027,1007.754
35.033509731,-1.091265,-0.1378499,-0.1262778,-0.05027258,0.9904343,-0.0217134,3.582454,-36.31296,7.710027,1007.754
35.068274975,-0.4095552,0.5665835,-0.06533709,-0.04495485,0.9894668,-0.02608131,3.581792,-35.94844,7.705411,1007.754
35.100556850,-0.3475815,0.03825843,-0.06533709,-0.05075234,0.9884939,-0.02269028,3.581792,-35.94844,7.705411,1007.754
35.135321617,1.325707,0.03825843,0.5440699,-0.04639392,0.98609,-0.02174646,2.845576,-36.67513,7.289948,1007.756
35.167603493,1.077813,0.2143668,0.8487735,-0.03818292,0.9885184,-0.0261013,2.857562,-36.66949,7.725674,1007.756
35.199886322,0.2721551,0.2143668,-0.1872185,-0.04446871,0.9875244,-0.0285106,2.857562,-36.66949,7.725674,1007.756
35.234651089,0.3341288,-0.372661,-0.7356848,-0.04786899,0.9962468,-0.02216897,3.569807,-35.95408,7.269685,1007.754
35.266932964,0.7679445,-0.372661,-0.8575662,-0.04496792,0.9938108,-0.02944065,3.569146,-35.58956,7.265069,1007.753
35.301698208,-0.2856078,0.2730695,-0.7966256,-0.04497144,0.994285,-0.03233858,3.57113,-36.68311,7.278916,1007.753
35.333981037,-2.764554,-0.02044435,0.6050107,-0.04979031,0.989453,-0.02607097,3.57113,-36.68311,7.278916,1007.753
35.368745804,-4.933632,-0.1965527,0.05654432,-0.05220004,0.9904566,-0.01349066,3.932584,-35.95807,7.26417,1007.753
35.401027679,-1.277186,-0.02044435,0.5440699,-0.0517609,1.007378,-0.01871322,3.582454,-36.31296,7.710027,1007.751
35.433309555,-0.03771318,-0.6661749,0.9097142,-0.04929823,0.9875352,-0.02124855,3.582454,-36.31296,7.710027,1007.751
35.468074798,0.6439971,-0.07914713,0.4221885,-0.04733307,0.9754522,-0.01842085,3.196368,-36.68475,6.848705,1007.751
35.500357151,0.2101815,0.5665835,0.2393664,-0.0454325,0.9890012,-0.02028167,3.933246,-36.32258,7.268785,1007.749
35.535122394,0.4580761,0.155664,0.3612478,-0.03768851,0.9861214,-0.01983129,3.933246,-36.32258,7.268785,1007.753
35.567404270,1.077813,-0.07914713,-0.6138034,-0.0434772,0.9817643,-0.01549264,2.83293,-36.31625,6.849605,1007.753
35.602169514,2.193339,-0.1378499,-1.466973,-0.0468882,0.9899535,-0.02365718,3.559144,-36.68874,6.843189,1007.751
35.634451866,1.945444,-0.6074721,-1.345092,-0.04980307,0.9928209,-0.03185306,3.559144,-36.68874,6.843189,1007.751
35.666733742,0.8918918,-0.372661,-0.4919221,-0.04739516,0.9981626,-0.0284438,2.83293,-36.31625,6.849605,1007.753
35.701498985,-1.834949,0.03825843,-0.06533709,-0.04689607,0.9904096,-0.03187303,3.207692,-36.31461,7.279817,1007.753
35.733780861,-3.570212,0.8013946,0.3612478,-0.05123826,0.9884828,-0.02558993,3.207692,-36.31461,7.279817,1007.749
35.768546104,-2.578633,0.2143668,0.4831293,-0.05510717,0.9914015,-0.01782997,3.569807,-35.95408,7.269685,1007.749
35.800828457,-0.9673181,0.3317723,0.2393664,-0.04830998,0.9807842,-0.01500436,2.844254,-35.9461,7.280716,1007.749
35.835593700,2.255312,-0.02044435,-0.1262778,-0.04638649,0.9851435,-0.01546716,2.844254,-35.9461,7.280716,1007.749
35.867875576,3.370838,-0.02044435,-0.6138034,-0.04834826,0.9952857,-0.01975621,3.195045,-35.95572,6.839474,1007.75
35.900157452,2.503207,-0.07914713,-0.4919221,-0.05706062,0.9971801,-0.02456105,3.195045,-35.95572,6.839474,1007.75
35.934923172,0.6439971,0.0969612,-0.004396385,-0.04980294,0.9942876,-0.02749377,3.195045,-35.95572,6.839474,1007.75
35.967205048,-0.09968685,0.2143668,0.2393664,-0.04930443,0.9889754,-0.02462441,2.844254,-35.9461,7.280716,1007.75
36.001970291,-0.4095552,0.2730695,0.1784257,-0.04302521,0.991897,-0.02462134,3.231001,-35.93882,8.146654,1007.75
36.034252167,-0.2856078,0.2143668,-0.06533709,-0.04495516,0.9904429,-0.02365857,3.231001,-35.93882,8.146654,1007.75
36.066534042,-0.09968685,0.03825843,-0.1262778,-0.0517061,0.9826824,-0.02320471,2.844915,-36.31062,7.285332,1007.75
36.101299763,0.2721551,0.0969612,-0.3700406,-0.04881614,0.9889964,-0.01882408,3.570468,-36.31859,7.274301,1007.75
36.133581638,0.3961024,-0.02044435,-0.5528627,-0.04833154,0.9875363,-0.02173406,3.570468,-36.31859,7.274301,1007.75
