Time (s),Gyroscope X (deg/s),Gyroscope Y (deg/s),Gyroscope Z (deg/s),Accelerometer X (g),Accelerometer Y (g),Accelerometer Z (g),Magnetometer X (uT),Magnetometer Y (uT),Magnetometer Z (uT),Barometer (hPa)
0.033116817,-0.1188941,0.1145033,0.02738071,-0.8471154,-0.3149945,-0.435748,10.31352,-0.2486677,29.92764,1008.562
0.068184853,0.004160807,-0.1829014,0.02738071,-0.8500899,-0.3087531,-0.4274325,10.68567,-0.6098323,29.92906,1008.561
0.100748539,0.434853,0.05502238,-0.03381869,-0.8519523,-0.3151173,-0.4226941,10.68567,-0.6098323,29.92906,1008.561
0.133307457,-0.4880589,-0.2423823,-0.4010151,-0.8437636,-0.3105658,-0.4381006,9.591938,-0.9815826,29.93524,1008.561
0.168375492,-0.05736665,-0.4208252,-0.5846133,-0.8417063,-0.3169232,-0.4236982,9.951097,-0.6177087,29.48537,1008.557
0.200939179,0.7424903,0.2334652,-1.135408,-0.8647088,-0.3132047,-0.4521385,9.951097,-0.6177087,29.48537,1008.557
0.233502388,1.050128,0.05502238,-0.9518097,-0.8534086,-0.318474,-0.4367618,10.32488,-0.9762893,29.93286,1008.557
0.268570900,-3.810541,-0.6587489,-0.2174169,-0.8445992,-0.3141601,-0.3985177,9.952728,-0.6151257,29.93144,1008.557
0.301134110,-5.225673,-0.004458558,0.1497795,-0.8336068,-0.3003185,-0.4181356,9.952728,-0.6151257,29.93144,1008.557
0.333693028,-4.487344,-0.1829014,0.3945771,-0.8466814,-0.3058547,-0.413857,10.31734,-0.6154308,29.42045,1008.559
0.368761540,-2.39541,-0.2423823,0.2721783,-0.8564742,-0.3039809,-0.4263868,9.958408,-0.9789362,29.93405,1008.559
0.401324749,-0.7341687,0.1145033,0.1497795,-0.8496232,-0.3053806,-0.4196475,9.958408,-0.9789362,29.93405,1008.559
0.433887959,-0.05736665,0.1739843,-0.09501809,-0.8399716,-0.2984354,-0.4229345,10.67836,-0.2486043,29.48038,1008.561
0.466451168,0.434853,-0.004458558,-0.5234139,-0.8515961,-0.3067867,-0.4365852,9.952728,-0.6151257,29.93144,1008.557
0.501519680,0.434853,0.05502238,-0.6458127,-0.8471401,-0.3097176,-0.4206828,9.952728,-0.6151257,29.93144,1008.559
0.534078598,0.434853,-0.004458558,-0.1562175,-0.8437186,-0.3101722,-0.4177928,10.31734,-0.6154308,29.42045,1008.559
0.566642284,0.3733255,0.05502238,-0.09501809,-0.8461866,-0.3110945,-0.4356894,9.578712,-0.2569132,29.42022,1008.559
0.601710319,0.06568827,-0.0639395,0.02738071,-0.8486202,-0.3097015,-0.4284151,9.578712,-0.2569132,29.42022,1008.563
0.634273529,0.2502706,-0.004458558,0.08858011,-0.8496348,-0.3048837,-0.4220568,11.04809,-0.2407913,30.37133,1008.563
0.666837215,-0.05736665,0.05502238,0.2721783,-0.8495579,-0.312634,-0.4274923,10.32488,-0.9762893,29.93286,1008.563
0.701905250,-0.3650039,-0.1234204,0.1497795,-0.8452333,-0.3067635,-0.4235398,10.32488,-0.9762893,29.93286,1008.563
0.734464645,0.1887432,0.1145033,0.1497795,-0.8427625,-0.3082247,-0.4158305,9.956778,-0.9815192,29.48798,1008.561
0.767027855,0.5579079,0.1739843,0.08858011,-0.8417511,-0.311134,-0.4144257,10.31734,-0.6154308,29.42045,1008.563
0.802095890,2.465259,0.9472365,0.2721783,-0.8384166,-0.3042956,-0.4123911,10.31734,-0.6154308,29.42045,1008.563
0.834659576,9.233279,2.017893,0.1497795,-0.8391995,-0.3232061,-0.4242799,10.3192,-0.6124787,29.93025,1008.561
0.867222786,1.97304,0.8877555,-0.4622145,-0.8722036,-0.3001101,-0.4673996,10.31165,-0.2516198,29.41784,1008.561
0.899785995,2.403732,0.5308699,-0.4010151,-0.8491413,-0.3058403,-0.4240054,10.31165,-0.2516198,29.41784,1008.56
0.934850216,2.895952,0.5308699,0.08858011,-0.8378173,-0.3159094,-0.421753,10.32083,-0.6098957,30.37632,1008.561
0.967413425,0.434853,0.2929461,0.08858011,-0.8393832,-0.3071755,-0.4230684,10.32488,-0.9762893,29.93286,1008.561
0.999976635,0.434853,0.2929461,0.02738071,-0.8563347,-0.3180284,-0.4362688,10.32488,-0.9762893,29.93286,1008.563
1.035045147,0.6809628,-0.004458558,0.3333777,-0.8447186,-0.3096617,-0.4260014,10.31189,-0.2512507,29.48157,1008.563
1.067608356,0.3117981,0.1145033,0.08858011,-0.8490511,-0.3150418,-0.4309131,10.31189,-0.2512507,29.48157,1008.561
1.100171566,-0.3034765,0.05502238,0.02738071,-0.849514,-0.3150921,-0.4212459,10.31189,-0.2512507,29.48157,1008.561
1.135235786,0.06568827,0.1145033,-0.03381869,-0.8500062,-0.3155646,-0.425603,9.958408,-0.9789362,29.93405,1008.56
1.167798996,-0.241949,0.05502238,0.08858011,-0.8504154,-0.3223715,-0.4261898,10.3192,-0.6124787,29.93025,1008.56
1.200362206,-0.241949,-0.0639395,0.1497795,-0.8461179,-0.3140737,-0.421717,10.68949,-0.9765949,29.42188,1008.56
1.235430718,0.2502706,-0.0639395,-0.1562175,-0.8455861,-0.3198565,-0.4309899,10.68949,-0.9765949,29.42188,1008.56
1.267993927,0.1272157,-0.0639395,-0.1562175,-0.8455774,-0.31797,-0.4183933,9.948677,-0.2487316,30.3749,1008.56
1.300557613,0.4963804,0.1145033,-0.2786163,-0.8495414,-0.3131397,-0.4231496,9.958408,-0.9789362,29.93405,1008.564
1.333116531,0.06568827,0.1145033,-0.09501809,-0.8494967,-0.3175019,-0.425633,9.958408,-0.9789362,29.93405,1008.562
1.368184567,-0.3034765,-0.004458558,-0.2786163,-0.845181,-0.312091,-0.4274882,9.952728,-0.6151257,29.93144,1008.562
1.400748253,-0.05736665,0.1739843,-0.1562175,-0.8465859,-0.3160171,-0.4231963,9.947046,-0.2513146,29.92883,1008.556
1.433311463,0.004160807,0.1739843,-0.1562175,-0.8471147,-0.3126177,-0.4241107,9.947046,-0.2513146,29.92883,1008.556
1.468379497,0.06568827,0.1739843,-0.1562175,-0.8432506,-0.3096558,-0.4231025,10.31352,-0.2486677,29.92764,1008.56
1.500943184,-0.1188941,-0.0639395,-0.09501809,-0.8500234,-0.3145818,-0.4280049,10.3192,-0.6124787,29.93025,1008.558
1.533502102,0.06568827,-0.2423823,-0.09501809,-0.8451342,-0.3169325,-0.4314291,10.3192,-0.6124787,29.93025,1008.558
1.568570614,0.004160807,-0.2423823,0.02738071,-0.8422457,-0.3116021,-0.4197495,10.31002,-0.2542028,28.97177,1008.557
1.601133823,-0.05736665,-0.0639395,-0.03381869,-0.8465501,-0.3179849,-0.4179092,10.31189,-0.2512507,29.48157,1008.557
1.633697033,-0.05736665,0.1145033,0.1497795,-0.8461485,-0.3116398,-0.4226466,10.31189,-0.2512507,29.48157,1008.555
1.668765545,-0.05736665,0.1145033,-0.09501809,-0.8490829,-0.3111787,-0.425537,10.68404,-0.6124153,29.48299,1008.555
1.701328754,0.1272157,0.1145033,0.02738071,-0.8470805,-0.3164851,-0.4285201,10.6873,-0.6072493,30.37513,1008.555
1.733887672,-0.1188941,-0.0639395,-0.09501809,-0.8480527,-0.3160251,-0.4256119,10.6873,-0.6072493,30.37513,1008.555
1.766451359,-0.1188941,-0.0639395,-0.09501809,-0.8485259,-0.3170077,-0.4246597,10.68567,-0.6098323,29.92906,1008.555
1.801519394,-0.1188941,-0.1234204,0.1497795,-0.8460901,-0.3169782,-0.4241782,10.32488,-0.9762893,29.93286,1008.553
1.834082603,-0.1188941,0.1145033,0.08858011,-0.8407457,-0.3154594,-0.4222267,10.32488,-0.9762893,29.93286,1008.551
1.866646290,-0.05736665,-0.004458558,-0.2174169,-0.8441942,-0.3125774,-0.4245963,9.576525,0.1124325,30.37347,1008.551
1.901714325,-0.05736665,0.1739843,-0.2786163,-0.8460708,-0.3184403,-0.4232338,10.68567,-0.6098323,29.92906,1008.551
1.934273243,0.1887432,0.05502238,-0.09501809,-0.8475323,-0.3194092,-0.4280809,10.68567,-0.6098323,29.92906,1008.55
1.966836929,0.004160807,-0.0639395,-0.03381869,-0.8475384,-0.3179712,-0.4237086,10.31352,-0.2486677,29.92764,1008.551
2.001904964,0.004160807,0.1145033,0.08858011,-0.8456792,-0.3096986,-0.4206839,10.32083,-0.6098957,30.37632,1008.551
2.034468651,-0.241949,-0.004458558,0.08858011,-0.8461493,-0.3125896,-0.4274949,10.32083,-0.6098957,30.37632,1008.551
2.067031860,-0.1804216,-0.3018633,-0.09501809,-0.8509558,-0.3184752,-0.4295135,10.3062,0.1125598,29.47895,1008.551
2.102099419,0.06568827,0.1145033,-0.1562175,-0.8431929,-0.3159441,-0.4294824,10.3192,-0.6124787,29.93025,1008.556
2.134659290,0.2502706,-0.0639395,-0.2174169,-0.8451519,-0.3149977,-0.4294661,10.3192,-0.6124787,29.93025,1008.558
2.167222500,-0.05736665,0.05502238,-0.09501809,-0.8417289,-0.3149796,-0.4236686,9.945415,-0.2538977,29.48275,1008.558
2.199785709,0.004160807,0.05502238,-0.1562175,-0.846645,-0.3116285,-0.426513,9.947046,-0.2513146,29.92883,1008.558
2.234854221,0.2502706,-0.2423823,-0.3398157,-0.8456433,-0.3145203,-0.4289749,9.947046,-0.2513146,29.92883,1008.559
2.267417431,0.2502706,-0.2423823,-0.2174169,-0.8509241,-0.3194844,-0.4213115,9.945183,-0.2542667,29.41903,1008.561
2.299980640,0.4963804,-0.3018633,-0.03381869,-0.841722,-0.3168946,-0.4299817,10.68404,-0.6124153,29.48299,1008.561
2.335044861,-0.05736665,-0.1829014,0.1497795,-0.8416516,-0.322255,-0.4266799,10.68404,-0.6124153,29.48299,1008.559
2.367608070,-0.3034765,-0.4208252,-0.03381869,-0.845154,-0.3130914,-0.4212196,10.3192,-0.6124787,29.93025,1008.559
2.400171280,-0.1188941,-0.0639395,0.2721783,-0.8514581,-0.3165511,-0.4265834,9.941365,0.1124959,29.92622,1008.559
2.435239792,0.06568827,-0.004458558,0.1497795,-0.8470917,-0.3140864,-0.4217162,9.941365,0.1124959,29.92622,1008.559
2.467803001,-0.1188941,0.1739843,-0.09501809,-0.8436852,-0.3135626,-0.4202614,9.584625,-0.6203551,29.48655,1008.558
2.500366688,0.3733255,0.3524271,-0.4010151,-0.8535159,-0.3063878,-0.4230427,10.3192,-0.6124787,29.93025,1008.559
2.535430431,0.1887432,0.8877555,0.02738071,-0.8451359,-0.3159783,-0.4275475,10.3192,-0.6124787,29.93025,1008.558
2.567994118,0.5579079,1.066198,0.02738071,-0.8344398,-0.311052,-0.4115313,9.952728,-0.6151257,29.93144,1008.558
2.600557327,0.1272157,1.066198,-0.7682115,-0.8422734,-0.3101246,-0.4240774,9.958408,-0.9789362,29.93405,1008.558
2.633120537,0.1887432,1.244641,-0.1562175,-0.8517686,-0.3325748,-0.4306946,9.958408,-0.9789362,29.93405,1008.556
2.668189049,-0.3650039,0.7687936,0.5169758,-0.8368103,-0.3211889,-0.4334356,10.31515,-0.2460847,30.37371,1008.554
2.700752258,-0.3034765,-0.1234204,0.3945771,-0.8524041,-0.3208952,-0.4358329,10.3192,-0.6124787,29.93025,1008.556
2.733311176,0.06568827,-0.7182298,0.8229728,-0.8456884,-0.310633,-0.4289156,10.3192,-0.6124787,29.93025,1008.556
2.768379688,-0.3034765,-1.253558,0.700574,-0.839819,-0.3110801,-0.4207107,10.32488,-0.9762893,29.93286,1008.556
2.800942898,-0.3034765,-1.134596,0.5169758,-0.849008,-0.3184498,-0.429515,9.587888,-0.6151891,30.3787,1008.556
2.833506107,-0.1188941,-1.134596,0.4557765,-0.8485792,-0.3112032,-0.4187706,10.67999,-0.2460213,29.92645,1008.554
2.868574619,-0.1804216,-0.539787,0.02738071,-0.8480555,-0.3150687,-0.4222137,10.67999,-0.2460213,29.92645,1008.552
2.901137829,0.004160807,-0.4803061,-0.09501809,-0.8471779,-0.3072705,-0.4245124,9.951097,-0.6177087,29.48537,1008.552
2.933696747,0.7424903,0.05502238,-0.5846133,-0.8447211,-0.3068033,-0.41339,9.586257,-0.6177721,29.93262,1008.555
2.968765259,0.06568827,0.2334652,-0.6458127,-0.8504197,-0.3233147,-0.4324881,9.586257,-0.6177721,29.93262,1008.555
3.001328468,0.4963804,0.1739843,-0.5234139,-0.8470929,-0.3140842,-0.4221996,10.3062,0.1125598,29.47895,1008.553
3.033892155,0.8040177,0.8282746,-0.5846133,-0.8368496,-0.3116048,-0.4038033,10.31734,-0.6154308,29.42045,1008.553
3.066455364,-0.1188941,1.958412,-0.8294109,-0.8450602,-0.3208725,-0.4198882,10.31734,-0.6154308,29.42045,1008.553
3.101523399,0.3117981,1.720489,-0.4010151,-0.8489354,-0.3257165,-0.4344597,10.67999,-0.2460213,29.92645,1008.553
3.134083271,-0.7341687,0.7687936,0.5169758,-0.8425694,-0.3290287,-0.4359665,9.587888,-0.6151891,30.3787,1008.553
3.166646004,-1.65708,-0.1829014,1.006571,-0.8470208,-0.3218258,-0.4295684,9.587888,-0.6151891,30.3787,1008.551
3.201714516,-0.9187511,-0.3613442,1.06777,-0.8500717,-0.310213,-0.4269714,9.960039,-0.9763532,30.38012,1008.549
3.234277725,0.1272157,-0.4803061,0.02738071,-0.8432646,-0.3105815,-0.4332675,10.67431,0.1177893,29.92384,1008.549
3.266840935,1.173183,-0.7182298,-0.4010151,-0.8544264,-0.3131747,-0.4294293,10.67431,0.1177893,29.92384,1008.551
3.301909447,0.7424903,-0.6587489,0.08858011,-0.8421604,-0.3179409,-0.4150125,10.31352,-0.2486677,29.92764,1008.549
3.334468365,-0.3650039,-0.4208252,0.1497795,-0.8422264,-0.3116373,-0.4120161,10.32651,-0.9737062,30.37893,1008.551
3.367031574,-0.1804216,0.2334652,0.02738071,-0.8465646,-0.3165315,-0.4169203,10.32651,-0.9737062,30.37893,1008.551
3.402100086,-0.4265314,0.1145033,0.08858011,-0.8490929,-0.3116361,-0.4318278,10.32083,-0.6098957,30.37632,1008.551
3.434663296,0.1887432,-0.0639395,-0.03381869,-0.8500789,-0.3101998,-0.4298715,9.952728,-0.6151257,29.93144,1008.551
3.467226505,0.6194354,-0.0639395,-0.3398157,-0.8475296,-0.3175116,-0.4179011,9.952728,-0.6151257,29.93144,1008.549
3.499790192,0.06568827,-0.004458558,-0.4010151,-0.8460724,-0.317486,-0.4193522,9.952728,-0.6151257,29.93144,1008.551
3.534853935,0.1887432,0.1145033,-0.1562175,-0.8465403,-0.3208564,-0.4276206,10.31757,-0.6150618,29.48418,1008.551
3.567417145,-0.3650039,-0.4208252,0.3333777,-0.8479505,-0.3252486,-0.4276863,10.31757,-0.6150618,29.48418,1008.551
3.599980831,-0.8572236,-0.9561536,0.7617734,-0.8485158,-0.3194043,-0.4319469,9.954359,-0.6125426,30.37751,1008.551
3.635048866,-0.3034765,-1.015635,0.7617734,-0.8471284,-0.3116415,-0.4250626,9.950864,-0.6180778,29.42164,1008.551
3.667612553,-0.5495863,-0.4803061,0.7617734,-0.8388436,-0.3091677,-0.4110149,9.950864,-0.6180778,29.42164,1008.551
3.700175762,-0.6726412,0.2334652,0.2721783,-0.8451754,-0.309723,-0.4139175,10.32488,-0.9762893,29.93286,1008.549
3.735239506,-0.3034765,0.5308699,-0.1562175,-0.8490596,-0.3135995,-0.4275075,10.3192,-0.6124787,29.93025,1008.549
3.767803192,0.434853,0.5903508,-0.7070121,-0.8456936,-0.3096722,-0.426484,10.3192,-0.6124787,29.93025,1008.549
3.800366402,0.9886001,0.5308699,-0.8906103,-0.842731,-0.3125627,-0.4236307,10.3192,-0.6124787,29.93025,1008.549
3.835434914,0.4963804,0.3524271,-0.9518097,-0.8597077,-0.3171867,-0.417401,9.952728,-0.6151257,29.93144,1008.551
3.867998123,0.9270726,-0.004458558,-0.7682115,-0.8654168,-0.2866487,-0.4159628,9.952728,-0.6151257,29.93144,1008.553
3.900561333,1.357765,-0.2423823,-1.013009,-0.8363547,-0.3196985,-0.4392138,10.32083,-0.6098957,30.37632,1008.553
3.933120251,0.3733255,-0.599268,-0.6458127,-0.8499922,-0.3146389,-0.415438,9.951097,-0.6177087,29.48537,1008.555
3.968188763,0.2502706,-0.7777108,-0.4622145,-0.8431417,-0.3198423,-0.427125,9.951097,-0.6177087,29.48537,1008.555
4.000751972,-0.4265314,-0.8371917,0.2721783,-0.8513527,-0.3248291,-0.4228428,10.32083,-0.6098957,30.37632,1008.555
4.033315659,0.3117981,-0.8371917,0.02738071,-0.8480934,-0.3126216,-0.4260433,9.586257,-0.6177721,29.93262,1008.557
4.068383694,0.6194354,-0.1829014,-0.2174169,-0.8451412,-0.3121635,-0.4115379,9.586257,-0.6177721,29.93262,1008.557
4.100946903,-0.3650039,0.05502238,-0.1562175,-0.8382322,-0.3208034,-0.4155434,10.68949,-0.9765949,29.42188,1008.557
4.133506775,-0.5495863,0.1739843,-0.1562175,-0.8475332,-0.3175051,-0.4193511,9.941365,0.1124959,29.92622,1008.557
4.168574333,0.1887432,-0.0639395,-0.4622145,-0.8533413,-0.3233528,-0.4324859,9.941365,0.1124959,29.92622,1008.559
4.201138020,0.3733255,-0.0639395,-0.8294109,-0.8476403,-0.3096998,-0.4259992,10.31352,-0.2486677,29.92764,1008.555
4.233701229,0.8040177,-0.4803061,-1.257807,-0.8451101,-0.3184034,-0.4285513,9.955147,-0.9841022,29.0419,1008.555
4.268769264,-0.6726412,-0.7777108,-1.257807,-0.8466168,-0.3140581,-0.4265501,9.952728,-0.6151257,29.93144,1008.555
4.301332951,2.157622,-0.4208252,-1.625003,-0.8455612,-0.3203776,-0.4232638,9.952728,-0.6151257,29.93144,1008.555
4.333892346,1.603875,0.2334652,-1.441405,-0.8449472,-0.3286888,-0.4108235,9.580576,-0.2539611,29.93002,1008.555
4.366455078,1.173183,0.2334652,-0.9518097,-0.83821,-0.3232219,-0.4179972,9.580576,-0.2539611,29.93002,1008.553
4.401523590,1.111655,0.1739843,-0.6458127,-0.8444259,-0.3354039,-0.4288113,9.941365,0.1124959,29.92622,1008.553
4.434086800,0.1887432,-0.3613442,-0.2174169,-0.8434765,-0.3329682,-0.427325,10.69135,-0.9736428,29.93167,1008.553
4.466650009,1.357765,-0.0639395,-1.135408,-0.8398517,-0.3504407,-0.4222779,10.31189,-0.2512507,29.48157,1008.557
4.501718521,4.680247,0.1739843,-1.808601,-0.8476029,-0.3111948,-0.4178046,10.31189,-0.2512507,29.48157,1008.557
4.534277439,2.834424,-0.1234204,-1.931,-0.8509637,-0.3132291,-0.4076815,10.68162,-0.2434382,30.37252,1008.555
4.566841602,2.280677,-0.1234204,-1.808601,-0.8439969,-0.3281572,-0.4180669,10.68162,-0.2434382,30.37252,1008.555
4.601909161,0.9270726,-0.539787,-2.420595,-0.8405863,-0.3285921,-0.419527,10.68162,-0.2434382,30.37252,1008.555
4.634472370,2.096094,-0.1829014,-2.91019,-0.8464164,-0.3301194,-0.4209948,9.951097,-0.6177087,29.48537,1008.555
4.667036056,3.941918,-0.0639395,-3.093789,-0.8418939,-0.3403059,-0.4124538,10.30215,0.4789529,29.92242,1008.554
4.702104092,2.772897,0.1145033,-1.931,-0.8389331,-0.3427171,-0.408143,10.30215,0.4789529,29.92242,1008.548
4.734663963,1.173183,0.2334652,-0.7070121,-0.8409066,-0.3417444,-0.4139268,9.937315,0.4788899,30.36967,1008.548
4.767227173,0.4963804,0.05502238,0.02738071,-0.8408796,-0.3455987,-0.4212363,10.67244,0.1148372,29.41404,1008.552
4.799789906,-1.349443,-0.1234204,0.8229728,-0.8439032,-0.3345114,-0.4099465,10.67244,0.1148372,29.41404,1008.55
4.834858417,-1.472498,0.1145033,0.8841722,-0.8370714,-0.3373028,-0.4177297,10.31515,-0.2460847,30.37371,1008.552
4.867421627,-1.164861,-0.0639395,0.5169758,-0.845479,-0.3276618,-0.4243418,10.31515,-0.2460847,30.37371,1008.552
4.899984837,0.2502706,-0.2423823,-0.03381869,-0.8400527,-0.3320003,-0.4166792,10.31515,-0.2460847,30.37371,1008.552
4.935049534,0.4963804,-0.4208252,-0.3398157,-0.8409807,-0.3363774,-0.4186786,9.574894,0.1098495,29.9274,1008.548
4.967612267,0.3733255,-0.7182298,-0.5234139,-0.8443462,-0.3412567,-0.4240669,10.68567,-0.6098323,29.92906,1008.548
5.000175476,0.4963804,-0.8966727,-0.7070121,-0.8438907,-0.3369124,-0.4162671,10.68567,-0.6098323,29.92906,1008.552
5.035243988,0.6194354,-0.7182298,-0.4010151,-0.8330576,-0.3460291,-0.4110995,10.30784,0.1151428,29.92503,1008.552
5.067807198,0.1887432,-1.015635,0.08858011,-0.8428829,-0.3398151,-0.4163123,10.30947,0.1177258,30.3711,1008.552
5.100370884,-0.6111138,-1.075115,0.3945771,-0.8414536,-0.336885,-0.4153022,10.30947,0.1177258,30.3711,1008.552
5.132930279,0.004160807,-1.550963,0.3945771,-0.8424073,-0.3388369,-0.4162979,11.04646,-0.2433743,29.92526,1008.55
5.167997837,1.357765,-0.9561536,-0.4010151,-0.8370099,-0.3402688,-0.4066574,9.945415,-0.2538977,29.48275,1008.552
5.200562000,1.542347,-0.3018633,-0.5234139,-0.8409628,-0.3335564,-0.3978504,9.945415,-0.2538977,29.48275,1008.552
5.233124733,-0.241949,0.6498318,-0.4010151,-0.8483793,-0.3234586,-0.3952723,9.938103,0.1073298,29.03407,1008.552
5.268193245,-1.041806,0.6498318,-0.1562175,-0.8482067,-0.3427982,-0.4168361,10.30029,0.4760013,29.41262,1008.552
5.300756455,0.004160807,0.3524271,0.02738071,-0.8443184,-0.3427342,-0.4197391,10.30029,0.4760013,29.41262,1008.552
5.333315849,-1.103333,0.3524271,1.06777,-0.8422517,-0.3476822,-0.394681,9.947046,-0.2513146,29.92883,1008.552
5.368384361,-3.810541,1.363603,2.597755,-0.8500509,-0.3458666,-0.3888452,10.31189,-0.2512507,29.48157,1008.552
5.400947571,-5.964003,1.77997,3.944142,-0.843877,-0.3378886,-0.4153152,10.31189,-0.2512507,29.48157,1008.552
5.433510304,-5.656365,0.4713889,3.515746,-0.8416401,-0.3260807,-0.4402728,9.941365,0.1124959,29.92622,1008.552
5.468578815,-3.995124,-0.599268,2.414157,-0.8480487,-0.3155568,-0.4217378,10.31352,-0.2486677,29.92764,1008.552
5.501142025,-2.949157,-1.37252,1.924562,-0.8533308,-0.3190918,-0.4077687,10.31352,-0.2486677,29.92764,1008.55
5.533701420,-0.9187511,-1.610444,2.046961,-0.8362906,-0.3269497,-0.4475419,10.31352,-0.2486677,29.92764,1008.548
5.566265106,-0.7341687,-3.27591,1.496166,-0.838192,-0.3294376,-0.4403274,9.580576,-0.2539611,29.93002,1008.553
5.601332664,-1.472498,-2.443177,0.8841722,-0.8445361,-0.3195073,-0.398116,9.580576,-0.2539611,29.93002,1008.553
5.633896828,-1.718608,-1.313039,0.6393746,-0.8548142,-0.3157402,-0.4009489,10.30597,0.1121907,29.41523,1008.551
5.666460037,-0.1804216,-0.3018633,0.3333777,-0.8475651,-0.313642,-0.413975,9.945183,-0.2542667,29.41903,1008.551
5.701527595,-0.241949,0.2929461,0.1497795,-0.8547851,-0.3186469,-0.4029267,9.945183,-0.2542667,29.41903,1008.549
5.734087467,0.1272157,0.8877555,-0.03381869,-0.8485531,-0.3131534,-0.4173502,10.31734,-0.6154308,29.42045,1008.551
5.766650677,1.173183,0.9472365,-0.6458127,-0.8460152,-0.3228222,-0.4213672,10.31734,-0.6154308,29.42045,1008.551
5.801719189,-0.241949,0.7093127,-0.5846133,-0.8489018,-0.324351,-0.4141371,10.31165,-0.2516198,29.41784,1008.549
5.834282398,0.3117981,1.77997,-0.4010151,-0.8499479,-0.3166221,-0.4067675,10.31165,-0.2516198,29.41784,1008.551
5.866845131,1.050128,1.423084,-0.2174169,-0.8479733,-0.3252068,-0.4368698,9.947046,-0.2513146,29.92883,1008.551
5.901913643,-1.287916,0.3524271,0.7617734,-0.8511928,-0.3374869,-0.4177189,10.31757,-0.6150618,29.48418,1008.551
5.934473038,-2.826102,-0.3613442,1.496166,-0.841656,-0.3217713,-0.4261892,10.31757,-0.6150618,29.48418,1008.551
5.967036247,-2.026245,-0.1234204,1.802163,-0.8498964,-0.3214724,-0.4087751,10.3192,-0.6124787,29.93025,1008.553
5.999749184,-3.749014,0.2334652,2.291758,-0.8484882,-0.3194548,-0.4208301,10.31734,-0.6154308,29.42045,1008.551
6.034817219,-4.056652,0.411908,2.414157,-0.8456248,-0.3140783,-0.4193007,10.31734,-0.6154308,29.42045,1008.553
6.067380905,-1.472498,0.8282746,1.373767,-0.8462633,-0.3000153,-0.4142517,10.30784,0.1151428,29.92503,1008.553
6.099944115,-0.8572236,0.9472365,0.3945771,-0.8500991,-0.3068336,-0.4220861,10.68404,-0.6124153,29.48299,1008.553
6.135007858,-1.349443,0.8282746,-1.380205,-0.8452837,-0.3019155,-0.4210489,10.68404,-0.6124153,29.48299,1008.553
6.167571545,2.834424,0.7093127,-3.460985,-0.8419783,-0.2983532,-0.4466167,10.3192,-0.6124787,29.93025,1008.553
6.200134754,5.295522,-0.004458558,-6.398556,-0.8561575,-0.2908221,-0.433437,10.68381,-0.6127844,29.41927,1008.554
6.235203266,8.310367,-0.539787,-8.418137,-0.8431143,-0.3246486,-0.4387994,10.68381,-0.6127844,29.41927,1008.554
6.267766476,15.63213,1.244641,-8.785333,-0.8234912,-0.3716902,-0.4052163,9.951097,-0.6177087,29.48537,1008.554
6.300329685,21.96946,4.278169,-8.356936,-0.8252415,-0.3464486,-0.4033794,10.31189,-0.2512507,29.48157,1008.558
6.335393906,13.60173,2.077374,-6.704553,-0.8557157,-0.3292024,-0.4354731,10.31189,-0.2512507,29.48157,1008.553
6.367957115,8.371895,0.7687936,-3.093789,-0.8345231,-0.3835574,-0.3923355,10.66862,0.4815993,29.92123,1008.553
6.400520325,3.388171,1.482565,0.8841722,-0.8502694,-0.3644364,-0.3673764,10.30542,0.4841189,30.81456,1008.551
6.433084011,-5.410255,-0.539787,3.332148,-0.8454491,-0.3776003,-0.4507227,10.30542,0.4841189,30.81456,1008.551
6.468152046,-3.625959,-3.454353,3.944142,-0.8336888,-0.338162,-0.4327308,10.30379,0.4815364,30.36849,1008.551
6.500714779,0.1887432,-3.454353,3.026151,-0.8572008,-0.3248965,-0.4247717,9.948677,-0.2487316,30.3749,1008.551
6.533274650,2.157622,-4.049162,2.536556,-0.8379165,-0.355624,-0.4523282,9.948677,-0.2487316,30.3749,1008.555
6.568342686,4.557192,-4.941377,4.12774,-0.8462259,-0.3736926,-0.3510867,10.31352,-0.2486677,29.92764,1008.553
6.600906372,-2.39541,0.6498318,6.698115,-0.8336554,-0.3609971,-0.3281864,9.941365,0.1124959,29.92622,1008.553
6.633469582,2.834424,3.921283,7.065311,-0.8617848,-0.3041343,-0.4080157,9.941365,0.1124959,29.92622,1008.552
6.668537140,3.511226,5.408307,6.269719,-0.8822364,-0.2982182,-0.3784197,9.947046,-0.2513146,29.92883,1008.55
6.701101303,-5.594838,5.705711,4.800933,-0.851391,-0.320003,-0.4155185,10.31352,-0.2486677,29.92764,1008.55
6.733660221,-2.949157,5.467788,2.781353,-0.8499922,-0.3222487,-0.4518073,10.31352,-0.2486677,29.92764,1008.548
6.768728733,-12.30133,1.18516,4.556136,-0.8441876,-0.3524854,-0.4126374,10.32651,-0.9737062,30.37893,1008.548
6.801291943,-31.4979,-4.049162,12.26726,-0.9512761,-0.2537662,-0.5178542,10.68567,-0.6098323,29.92906,1008.548
6.833855152,-33.5283,-10.94895,13.85844,-0.928137,-0.2102285,-0.4074858,10.68567,-0.6098323,29.92906,1008.546
6.866418362,-39.92716,-17.72978,13.06285,-0.9248586,-0.276421,-0.3775626,10.68325,-0.2408552,30.81859,1008.548
6.901486874,-40.05021,-26.29503,11.10447,-0.9058102,-0.2810347,-0.3771681,10.69703,-1.337454,29.93428,1008.548
6.934045792,-16.85436,-24.33216,12.94045,-0.8617739,-0.279898,-0.2877685,10.69703,-1.337454,29.93428,1008.548
6.966609478,-1.595553,-21.77448,13.43005,-0.8612791,-0.2414369,-0.3007167,10.71244,-2.431469,29.49604,1008.546
7.001677513,-3.872069,-21.23915,13.79725,-0.9699649,-0.2213283,-0.4375841,11.43621,-2.0679,28.53518,1008.546
7.034241200,-22.33031,-30.87506,16.42882,-0.9969944,-0.1651029,-0.2689684,11.43621,-2.0679,28.53518,1008.546
7.066804409,-36.72773,-32.42157,16.85722,-0.9884567,-0.1716524,-0.1941532,11.0811,-2.798168,28.5416,1008.548
7.101872444,-26.32959,-35.51458,14.53164,-0.9517915,-0.2213235,-0.1746445,11.45162,-3.161915,28.09695,1008.548
7.134431839,-21.6535,-29.50701,10.92087,-0.9623644,-0.2032254,-0.2299466,11.45162,-3.161915,28.09695,1008.548
7.166995049,-13.59341,-32.65949,8.289299,-0.8842063,-0.2084235,-0.3581961,11.82782,-3.889472,27.65491,1008.548
7.202063561,-13.71646,-28.43635,4.372538,-0.8863782,-0.2009053,-0.4141511,12.55913,-3.886762,27.20646,1008.548
7.234626770,-12.11675,-21.95293,2.842553,-0.9362596,-0.1830906,-0.4133478,12.55913,-3.886762,27.20646,1008.548
7.267189980,-19.6231,-19.87109,6.575716,-0.9093138,-0.15123,-0.3954861,12.94102,-4.97813,26.76703,1008.548
7.299753189,-34.08205,-20.70383,5.351728,-0.9772067,-0.1645195,-0.340035,14.10151,-4.969749,26.76327,1008.546
7.334817410,-31.25179,-18.74096,7.18771,-0.9820473,-0.232537,-0.2530935,14.10151,-4.969749,26.76327,1008.546
7.367380619,-15.31618,-20.82279,7.922102,-0.9709423,-0.2060594,-0.1661758,14.84581,-5.692077,26.76611,1008.544
7.399944306,-10.45551,-22.25033,6.208519,-0.9753292,-0.2070597,-0.1724707,15.56818,-5.330722,25.42291,1008.544
7.435012341,-0.4880589,-24.92697,5.841323,-0.9724569,-0.2069315,-0.19229,15.96142,-7.149712,24.9887,1008.544
7.467575550,6.279961,-21.65552,8.350498,-0.9358705,-0.0987222,-0.05049513,15.96142,-7.149712,24.9887,1008.546
7.500139236,20.86197,-18.80044,9.635686,-1.016875,-0.108443,0.03740934,16.33289,-7.574094,24.54449,1008.546
7.535202980,14.27853,-28.43635,15.02123,-1.032328,-0.1340895,-0.03112315,16.33857,-7.937905,24.5471,1008.544
7.567766666,4.37261,-40.51098,13.91964,-1.095853,-0.1444415,0.03210259,16.33857,-7.937905,24.5471,1008.544
7.600329876,15.07839,-46.63751,17.46921,-1.030717,-0.1248336,0.07487603,16.72614,-9.393084,24.11029,1008.544
7.635398388,16.6781,-52.05028,19.42759,-1.006026,-0.1137846,0.06728674,17.85069,-11.20936,23.22763,1008.544
7.667961597,18.27782,-54.25108,16.49002,-1.029405,-0.1791814,-0.04631522,17.85069,-11.20936,23.22763,1008.549
7.700524807,25.53806,-50.44429,11.16567,-0.9656786,-0.1634908,-0.001183298,18.97417,-13.40015,20.49957,1008.547
7.733083725,37.2898,-48.06506,7.493707,-0.8871627,-0.1432392,-0.06088884,18.99769,-15.22696,19.17441,1008.545
7.768152237,32.73677,-38.42915,8.901293,-0.8512873,-0.09830344,-0.1134094,18.99769,-15.22696,19.17441,1008.545
7.800715446,21.47724,-24.45113,4.556136,-0.7468749,-0.06366394,-0.2695958,17.92016,-17.06428,17.40675,1008.545
7.833279133,10.03314,5.289345,-2.053399,-0.5934449,0.01704355,-0.4758812,18.29528,-18.16635,15.11931,1008.547
7.868347168,10.46383,58.94115,-5.052169,-0.8581731,-0.02963627,-1.012403,18.29528,-18.16635,15.11931,1008.547
7.900910377,-5.348728,29.73601,-21.27001,-2.139438,-0.6790135,-0.08332218,18.69111,-20.0434,15.13161,1008.547
7.933470249,3.572753,4.99194,0.2721783,-0.622648,0.09416257,-0.1000594,20.16133,-19.65313,17.8644,1008.547
7.968537807,-1.103333,3.742841,-5.113369,-1.04732,-0.1468409,-0.04870479,20.16133,-19.65313,17.8644,1008.549
8.001101494,-9.840233,1.898932,1.434967,-1.02442,-0.1802809,-0.004283019,20.89185,-19.27886,18.75155,1008.551
8.033664703,-12.36286,3.742841,3.270949,-0.990546,-0.0336027,0.0075896,20.16459,-19.64796,18.75654,1008.551
8.068733215,-24.42224,3.445436,1.312568,-0.9985753,-0.1054513,-0.0331357,20.16459,-19.64796,18.75654,1008.551
8.101296425,-23.06864,0.6498318,2.046961,-0.9961005,-0.1126269,-0.0511325,20.53106,-19.64532,18.75535,1008.551
8.133855820,-17.10047,0.1739843,3.515746,-0.9892884,-0.06454753,-0.02381984,20.15565,-19.28932,17.86179,1008.551
8.166418552,-8.855794,-1.907849,1.557366,-1.002769,-0.07832419,-0.02546714,20.15565,-19.28932,17.86179,1008.549
8.201487064,-8.855794,-6.725805,-0.4622145,-0.9903836,-0.110893,-0.09509886,20.52212,-19.28667,17.8606,1008.549
8.234050274,-10.70162,-10.35414,-0.7682115,-0.9771036,-0.1484814,-0.02124511,20.88104,-18.92317,17.347,1008.549
8.266613960,-6.27164,-6.487881,-0.4010151,-0.9945084,-0.0116533,0.08526859,20.88104,-18.92317,17.347,1008.549
8.301681995,-3.072212,-2.264734,-5.296967,-1.008248,-0.02780918,-0.03435871,19.40054,-18.2113,16.45439,1008.549
8.334240913,0.434853,0.4713889,-6.888151,-0.9881943,-0.06665648,0.01530046,20.13916,-18.56982,16.45462,1008.549
8.366805077,0.1887432,1.661008,-9.03013,-1.003127,-0.08332149,0.003459577,20.13916,-18.56982,16.45462,1008.551
8.401872635,5.726214,1.661008,-9.886922,-1.001125,-0.09243166,-0.01794993,20.13416,-18.14279,16.89765,1008.551
8.434436321,4.249555,3.385955,-7.867342,-0.9910637,-0.1171498,-0.004318816,20.12117,-17.41775,16.44636,1008.551
8.466999531,2.280677,6.360002,-7.377747,-0.9970254,-0.0618941,0.01151462,20.12117,-17.41775,16.44636,1008.551
8.502068043,-0.1804216,7.133254,-8.907731,-0.99692,-0.1276654,-0.05957855,19.75633,-17.41781,16.89362,1008.551
8.534627437,-2.764575,6.181559,-8.907731,-0.9964316,-0.1167227,-0.006724003,20.12466,-17.41221,17.40223,1008.552
8.567190647,-2.456937,3.445436,-7.255348,-0.9916454,-0.1649642,-0.07175373,20.12466,-17.41221,17.40223,1008.552
8.599753380,-2.518465,-0.6587489,-2.053399,-1.015643,-0.1631229,-0.1176233,19.74278,-16.32084,17.84165,1008.551
8.634821892,-3.749014,-7.558538,-0.09501809,-0.9868528,-0.1585773,-0.07311106,20.47572,-16.31555,17.83928,1008.551
8.667385101,-5.225673,-10.05674,0.4557765,-1.002802,-0.1167327,-0.02266944,20.47572,-16.31555,17.83928,1008.551
8.699949264,-9.532596,-13.14974,-0.4622145,-0.9875003,-0.139266,-0.04671345,20.46981,-15.95211,17.77294,1008.551
8.735013008,-12.85508,-11.84116,0.700574,-0.9925106,-0.1494803,0.04691065,20.09439,-15.59611,16.87937,1008.551
8.767575741,-7.748299,-7.796461,1.251369,-0.9836729,-0.1157858,0.03726526,20.09439,-15.59611,16.87937,1008.551
8.800139904,-5.041091,-8.569713,1.312568,-1.012713,-0.1113126,-0.06704785,20.0895,-15.60386,15.54116,1008.551
8.835207462,-1.780135,-11.30584,2.169359,-0.9949773,-0.1518317,0.02270832,20.07977,-14.87366,15.98201,1008.551
8.867771625,1.23471,-12.25753,4.862133,-0.9798499,-0.1597789,-0.003046497,20.07977,-14.87366,15.98201,1008.551
8.900334358,-1.103333,-13.38767,6.14732,-0.9742996,-0.1311066,0.01333702,19.33625,-14.52289,14.64356,1008.551
8.935399055,1.72693,-13.26871,6.636915,-1.007376,-0.08980533,0.0275336,19.70109,-14.52282,14.1963,1008.551
8.967962265,5.357049,-13.38767,5.963722,-0.96674,-0.1433678,0.05906345,19.34272,-15.25826,13.31056,1008.551
9.000525475,6.095379,-11.48428,4.066541,-0.9683653,-0.08369061,0.07689367,19.34272,-15.25826,13.31056,1008.552
9.033088684,5.295522,-8.688675,2.720154,-0.9822283,-0.1105053,0.05571276,19.3403,-14.88928,14.2001,1008.552
9.068156719,8.002729,-9.224003,5.16813,-0.9954374,-0.1423748,0.07892475,19.34109,-15.26084,12.86449,1008.551
9.100719929,7.879675,-7.855942,10.06408,-0.9944189,-0.1500532,0.06043831,19.34109,-15.26084,12.86449,1008.549
9.133279800,9.048697,-9.105042,13.79725,-1.000077,-0.1276943,0.0438667,19.34677,-15.62465,12.8671,1008.549
9.168347836,8.741059,-11.54376,14.83763,-1.028603,-0.06291802,0.03908196,19.35082,-15.99105,12.42364,1008.555
9.200911045,8.802587,-5.833591,11.90006,-1.006559,-0.01536505,0.1185766,19.35082,-15.99105,12.42364,1008.555
9.233474731,2.834424,-5.11982,10.30888,-1.001517,-0.1258488,0.0612978,18.99572,-16.72131,12.43005,1008.555
9.268542290,3.880391,-5.952553,15.51083,-1.085137,-0.1509661,0.001539968,19.36055,-16.72125,11.98279,1008.555
9.301106453,16.55505,-16.54016,20.03959,-1.194758,-0.1242829,-0.08785523,19.36055,-16.72125,11.98279,1008.555
9.333665371,27.62999,-34.206,20.22318,-1.280306,-0.1969675,-0.1667052,19.00382,-17.4541,11.54313,1008.553
9.368733883,59.00899,-55.32173,23.16075,-1.182334,-0.3274466,-0.156706,18.65184,-18.61435,10.59672,1008.551
9.401297093,75.3753,-54.31055,23.52795,-0.9994095,-0.2639315,-0.1331948,18.65184,-18.61435,10.59672,1008.551
9.433860302,70.51463,-38.66707,23.77275,-0.7906182,-0.0691963,-0.459605,18.66157,-19.34455,10.15587,1008.551
9.466423511,35.32092,-11.54376,5.780124,-0.7599024,-0.0375313,-0.4944381,16.85031,-20.81561,9.726189,1008.551
9.501491547,-0.4265314,10.88055,-13.25289,-0.8788788,-0.04253428,-0.3774224,16.85031,-20.81561,9.726189,1008.55
9.534050941,-27.74472,19.62425,-25.30917,-0.9974343,-0.08968391,-0.289086,16.12468,-21.18214,10.17725,1008.548
9.566614628,-36.85078,30.92563,-32.8979,-0.9951156,-0.1487807,-0.2194168,16.09386,-18.99411,11.05372,1008.548
9.601682663,-33.83594,54.59904,-44.77058,-0.8926917,-0.1572622,-0.1983765,16.09386,-18.99411,11.05372,1008.546
9.634245872,-17.77727,74.70361,-51.25771,-0.79334,-0.1008789,-0.1289726,16.04932,-16.02003,11.5422,1008.546
9.666809559,-9.90176,96.71155,-52.6041,-0.8812564,-0.04779098,0.0208022,16.73603,-12.73269,12.85454,1008.544
9.701877117,-6.394695,117.9462,-50.82932,-1.02896,-0.00947218,0.1476907,16.73603,-12.73269,12.85454,1008.544
9.734436989,20.61586,112.4145,-45.26017,-1.079379,-0.1050199,0.3855532,17.45198,-10.89027,15.96161,1008.543
9.767000198,94.2027,110.987,-19.80122,-1.084731,0.02938836,0.6302642,18.1698,-9.044886,19.57847,1008.543
9.802068710,146.7471,42.40545,17.59161,-1.754824,0.4710823,0.759944,18.1698,-9.044886,19.57847,1008.543
9.834631920,113.8915,-108.9735,52.04687,-0.714031,1.725012,2.766198,19.65222,-9.0081,24.09816,1008.544
9.867195129,-46.63365,-11.7222,-24.45238,-1.323904,-0.8235261,-1.864657,20.03658,-9.722742,25.88648,1008.546
9.899758339,37.90508,-31.82676,13.98084,-0.7796667,-0.2729753,0.6630601,20.03658,-9.722742,25.88648,1008.546
9.934822559,11.14063,4.33765,11.41047,-1.039141,-0.09101697,-0.2228434,19.29767,-10.1103,22.70524,1008.546
9.967385769,20.30822,8.977164,-0.09501809,-0.9657122,-0.07127183,0.02584263,19.30521,-10.47116,23.21765,1008.546
9.999949455,26.33791,13.49771,1.496166,-1.002587,-0.2387704,-0.1178232,19.30521,-10.47116,23.21765,1008.546
10.035017490,42.76574,17.78034,7.738504,-0.9575059,-0.2016596,-0.02739247,18.58121,-10.83509,24.11478,1008.546
10.067580700,25.10736,18.19671,11.34927,-0.9735823,-0.2622032,-0.1186921,19.32715,-11.55484,24.5637,1008.548
10.100144386,10.52536,17.8993,13.30765,-0.9813578,-0.1388406,-0.1221197,19.32715,-11.55484,24.5637,1008.546
10.135208130,19.26225,13.43823,8.166901,-0.9912295,-0.08503629,-0.1188724,19.34015,-12.27988,25.015,1008.546
10.167771816,9.233279,10.1073,3.393348,-0.9734214,-0.2088637,-0.1976357,19.3564,-12.99975,26.35843,1008.548
10.200335026,-2.272355,8.382355,5.290529,-0.9772737,-0.1818836,-0.05075715,19.3564,-12.99975,26.35843,1008.546
10.232898235,6.033852,8.739241,5.963722,-0.9825411,-0.1294342,-0.1630621,19.37913,-14.45499,26.36888,1008.548
10.267966747,2.526787,5.646231,3.087351,-1.000128,-0.1362172,-0.2177701,19.76427,-15.54119,26.82159,1008.548
10.300529957,-2.703047,-2.740582,2.230559,-0.9899415,-0.1640178,-0.1674496,19.76427,-15.54119,26.82159,1008.548
10.333088875,-12.42439,-8.272308,1.802163,-0.9925602,-0.1484938,-0.1686603,20.1218,-15.1799,25.92565,1008.548
10.368157387,-9.717178,-16.83756,4.739734,-1.00869,-0.1970501,-0.2244905,19.76995,-15.90501,26.8242,1008.55
10.400720596,1.665402,-29.38804,14.28684,-0.9656515,-0.2970762,-0.228475,19.76995,-15.90501,26.8242,1008.55
10.433284283,-2.39541,-36.28783,20.10078,-0.9831204,-0.1591797,-0.1432135,19.75696,-15.17997,26.37291,1008.551
10.468352318,3.695808,-28.9122,16.91842,-1.005625,0.05880424,0.05686826,19.75774,-15.55153,25.03731,1008.551
10.500916004,1.603875,-24.33216,11.22687,-0.98311,-0.05562632,-0.04399152,19.75774,-15.55153,25.03731,1008.551
10.533474922,-2.272355,-22.84514,8.411697,-0.9829489,-0.1058044,-0.01768811,19.38801,-15.55934,24.14635,1008.555
10.568542957,-2.518465,-19.39525,9.696885,-0.9868432,-0.09967462,0.01237853,19.38126,-15.57004,22.29834,1008.555
10.601106644,-0.5495863,-14.69625,10.98207,-1.000286,-0.03277545,0.01147864,19.75178,-15.93379,21.85369,1008.555
10.633669853,2.280677,-21.29864,16.12282,-1.105524,-0.1124621,-0.1863699,19.75178,-15.93379,21.85369,1008.555
10.668738365,-0.3650039,-40.33253,21.75317,-1.033686,-0.2008276,-0.1075468,19.38936,-16.30283,21.41142,1008.557
10.701301575,-9.65565,-55.44069,29.64789,-1.129601,-0.2519862,-0.140621,19.01799,-16.31322,20.07439,1008.557
10.733860493,-13.96257,-68.5265,28.05671,-1.263935,-0.09712315,-0.1661645,19.01799,-16.31322,20.07439,1008.557
10.766424656,2.649842,-83.93206,20.46798,-1.293607,-0.4172102,-0.08159453,19.00634,-16.33167,16.88816,1008.557
10.801492214,45.84212,-97.61268,38.1546,-1.382836,-0.2148722,-0.1572119,19.36303,-16.34452,14.21054,1008.557
10.834055424,48.67238,-103.2634,51.25127,-1.17303,-0.1421535,-0.05044545,19.36303,-16.34452,14.21054,1008.557
10.866619110,32.67524,-78.28137,44.45814,-0.7751015,0.002944096,-0.1428743,18.62193,-16.36273,11.98256,1008.557
10.901687145,-14.88548,-41.28423,17.16321,-0.68277,-0.01833577,-0.3274547,17.89765,-17.47274,9.698687,1008.555
10.934247017,-61.95399,-2.800063,-8.540535,-0.6837174,0.00865759,-0.3874641,17.89765,-17.47274,9.698687,1008.554
10.966810226,-84.28845,27.17833,-26.90035,-0.7201869,-0.1942457,-0.3339693,16.78603,-17.1272,7.915354,1008.554
11.001889229,-72.90588,62.03416,-33.32629,-0.7729186,-0.2093611,-0.2611592,17.12978,-15.66932,7.903719,1008.554
11.034452438,-47.37198,89.75228,-38.34464,-0.8364855,-0.2134534,-0.1852701,17.12978,-15.66932,7.903719,1008.552
11.067016125,-8.794266,113.2473,-39.20144,-0.865043,-0.2169962,-0.1297082,17.8392,-13.83722,9.226503,1008.552
11.102083683,28.42985,133.5897,-39.62983,-0.9440965,-0.2433446,-0.119883,19.68731,-13.42623,15.08061,1008.549
11.134643078,71.25296,113.8421,-52.9713,-0.9997511,-0.3306225,0.2075354,19.68731,-13.42623,15.08061,1008.549
11.167206764,177.3878,75.83374,-37.18185,-1.219083,0.1033437,1.609877,21.16597,-12.27697,23.22476,1008.549
11.199769974,234.9775,-40.09461,17.28561,-1.959702,1.564751,3.650502,20.38685,-8.25452,27.65914,1008.55
11.234838486,-50.26377,25.75079,25.54753,-0.5885759,1.447654,-0.8378612,20.38685,-8.25452,27.65914,1008.55
11.267401695,-56.04735,-8.450751,-30.63352,-1.140001,-0.8060077,0.1399961,19.69801,-10.42681,30.41734,1008.549
11.299964905,-27.62167,7.371178,10.49248,-0.9439673,-0.4977001,-0.08267661,20.06094,-11.1754,26.343,1008.549
11.335029125,18.40087,11.17796,5.10693,-1.115514,0.0546979,0.1100831,20.06094,-11.1754,26.343,1008.549
11.367592335,-6.456223,12.96239,-3.644583,-0.9839138,-0.1519123,-0.03434205,20.0309,-9.358932,25.88387,1008.549
11.400155544,4.987885,13.37875,10.61488,-0.9920062,-0.2046212,-0.009519417,19.30122,-9.359058,26.77839,1008.549
11.435224056,2.711369,4.456612,8.840094,-1.023567,-0.02474334,-0.1106707,19.30122,-9.359058,26.77839,1008.549
11.467787266,6.956763,-8.748156,6.820514,-1.046628,-0.04844869,-0.0940919,19.67095,-9.351246,27.66935,1008.549
11.500477791,10.34077,-18.80044,10.98207,-1.037007,-0.1245694,-0.1068636,20.41525,-10.07357,27.67219,1008.549
11.533036709,-1.90319,-23.08306,12.51206,-0.9373742,-0.05585772,0.1367437,20.41525,-10.07357,27.67219,1008.547
11.568105221,-6.02553,-14.45833,12.20606,-0.9945092,-0.1422786,0.06055701,20.43067,-11.16759,27.23396,1008.547
11.600668430,-0.3650039,-12.13857,20.03959,-1.038683,-0.05719015,-0.07296435,19.70015,-11.54186,26.3468,1008.547
11.633232117,17.90865,-7.499057,15.69443,-1.01293,-0.02821552,0.0410464,19.70015,-11.54186,26.3468,1008.547
11.668300152,1.357765,-19.51421,32.70786,-0.9673148,-0.2576698,0.07665525,19.68147,-10.45301,25.89289,1008.547
11.700863838,8.864114,-21.47708,39.31739,-1.029232,0.03139647,0.0313373,19.34746,-12.6411,25.46368,1008.547
11.768491268,29.47581,-37.35849,50.82288,-1.081399,-0.1392139,-0.006985127,20.08118,-13.00737,24.1257,1008.547
11.801054478,36.98216,-36.82316,59.81919,-1.03005,0.003568739,0.1623921,19.7285,-14.10662,23.24257,1008.547
11.833617687,44.18087,-41.28423,67.22432,-1.121229,0.007778386,-0.06125921,19.7285,-14.10662,23.24257,1008.547
11.868686199,51.6257,-56.39239,74.69064,-1.301017,-0.07511523,-0.08941943,19.39341,-16.66922,20.96796,1008.547
11.901249409,47.25725,-59.18799,70.16189,-1.209633,0.3329979,-0.01077479,19.40719,-17.76582,20.08364,1008.547
11.933808327,37.10522,-48.89779,49.90489,-1.145796,0.6249609,0.2000198,19.40719,-17.76582,20.08364,1008.547
11.966372013,44.05782,-0.7182298,35.21703,-1.007814,0.9147421,0.2492617,18.69708,-19.66113,18.31523,1008.551
12.001440048,14.83228,30.0929,19.97838,-1.220886,0.6654894,0.1572067,17.99091,-21.48806,17.88459,1008.551
12.034003735,-90.19509,9.453012,41.33697,-1.355636,0.5264217,0.9556871,17.99091,-21.48806,17.88459,1008.551
12.066566944,-19.19241,-30.57766,65.38834,-1.50415,-0.02508389,0.9304983,18.7612,-23.66047,18.79002,1008.551
12.101634979,114.2607,-98.38593,121.5082,-1.565877,0.2669083,0.7774318,17.65448,-23.30718,18.3449,1008.551
12.134194851,121.2748,-148.5878,172.7933,-1.626447,0.7319555,0.72658,17.65448,-23.30718,18.3449,1008.551
12.166757584,14.70922,-158.5212,174.3845,-2.064515,0.7595675,0.560659,16.20051,-24.41732,16.95555,1008.551
12.201826096,-20.54601,-208.3662,211.5937,-1.342429,0.2176145,0.5033562,12.83709,-24.82089,14.29263,1008.549
12.234389305,-28.85222,-205.3921,212.1445,-1.686879,-0.1812238,0.5444914,8.765806,-23.7951,7.98914,1008.549
12.266952515,8.248839,-224.4855,218.6316,-1.761075,-0.4227732,0.1208233,8.765806,-23.7951,7.98914,1008.547
12.302021027,81.83568,-264.5757,238.9498,-2.094965,-0.1818498,0.1562407,2.385117,-19.50876,2.115553,1008.546
12.334579945,68.73033,-299.5505,255.9021,-2.285002,-0.5574787,-0.07987737,-3.60519,-11.86078,0.2950172,1008.546
12.367143154,149.8235,-325.7221,272.7319,-2.469658,-0.8670824,-0.3908835,-3.60519,-11.86078,0.2950172,1008.542
12.399707317,147.4855,-388.6529,309.9412,-1.875456,-0.2122589,-0.6444237,-11.50508,-2.015193,3.371746,1008.54
12.434774876,-58.13929,-415.7168,322.6094,-0.237518,0.1751711,-2.153547,-17.16829,10.41958,10.94731,1008.54
12.467338562,-187.47,-415.8357,156.3918,4.324893,-0.4081236,-2.73385,-17.16829,10.41958,10.94731,1008.547
12.500091076,34.8287,-168.395,-48.62614,4.657539,-1.683447,-4.224544,-18.78056,22.16914,20.80911,1008.547
12.535155773,129.3349,23.13363,-82.16341,2.131361,-0.2362631,-3.312064,-9.972435,24.11703,32.04677,1008.547
12.567718983,11.63285,131.4484,-166.0066,1.261625,0.1176526,-1.98814,-9.972435,24.11703,32.04677,1008.537
12.600282669,-106.6229,177.6651,-168.2098,0.324236,-0.003533895,-1.117555,-8.882071,24.91839,32.92969,1008.53
12.635350227,-163.8434,206.3944,-141.588,-0.464059,0.04562484,-0.4054804,-9.530533,18.64702,29.40832,1008.526
12.667914390,-187.4085,236.1944,-134.3053,-0.7124449,-0.1636152,-0.2083149,-9.530533,18.64702,29.40832,1008.526
12.700477123,-164.2741,251.7189,-98.68725,-1.033238,-0.1908734,-0.4757285,-10.14059,8.708385,20.87881,1008.525
12.735541344,-103.485,239.1089,-92.01651,-0.9281431,-0.1831075,-0.2804272,-10.064,1.311387,10.54437,1008.523
12.768105030,-97.82449,212.8778,-99.48284,-0.9192314,-0.06113989,-0.0378534,-10.064,1.311387,10.54437,1008.521
12.800668240,-113.4525,176.297,-104.9296,-0.5712761,-0.1003375,0.06658889,-8.956825,-0.9052339,3.355592,1008.521
12.833231449,-104.2849,125.7977,-88.28335,-0.2897566,-0.1319273,0.1248072,-7.389594,-4.558513,-1.147694,1008.521
12.868299961,-109.7608,95.10556,-67.84275,-0.4211487,0.2097417,0.5999889,-7.389594,-4.558513,-1.147694,1008.524
12.900862694,-245.4904,269.8605,-160.0702,-0.8830692,2.682981,3.127558,-4.795949,-7.104742,-4.260241,1008.519
12.933422565,151.7924,-88.98795,-247.6466,-9.008618,-0.8689006,2.299108,-4.025841,-10.458,-8.317055,1008.522
12.968490601,126.6277,114.2584,68.01991,-1.688583,1.172024,0.7130519,-4.025841,-10.458,-8.317055,1008.524
13.001053810,28.30679,-88.8095,46.53892,-1.755557,1.192338,-0.09284607,-3.637434,-11.53903,-6.972195,1008.524
13.033617496,81.03582,-159.7108,61.34917,-0.3684218,0.1734996,0.279873,-1.036976,-13.32886,-5.119448,1008.527
13.068685055,63.86966,-160.7814,59.5132,-0.1894649,0.487885,0.273379,-1.036976,-13.32886,-5.119448,1008.529
13.101249218,-93.76369,-108.9735,50.02729,-0.1932505,0.2785861,0.1184092,-1.795062,-11.50993,-4.237982,1008.531
13.133808136,-94.56354,-53.00198,15.26603,0.2315096,0.03253746,-0.02496711,-4.386343,-10.07838,-5.132249,1008.531
13.168876648,-38.4505,10.04782,-15.51727,0.2400569,-0.0239132,0.01525043,-4.386343,-10.07838,-5.132249,1008.531
13.201439858,-7.686771,41.03739,-27.32875,0.201867,0.05581925,0.1131791,-6.279162,-6.769968,-7.444325,1008.529
13.234003067,18.89309,68.99343,-32.2859,0.1876955,0.1845065,0.3085068,-5.559215,-6.039636,-7.897997,1008.529
13.266566277,20.9235,109.0241,-44.46458,0.1270964,0.648402,1.039741,-5.559215,-6.039636,-7.897997,1008.529
13.301634789,6.833708,135.9095,-57.80605,-0.4573502,0.9555119,1.297797,-4.807598,-7.123191,-7.446469,1008.529
13.334193707,-19.50004,68.39862,-24.39118,-0.8043455,0.9458705,1.354056,-3.301555,-9.347986,-6.033181,1008.529
13.366757393,0.3117981,-0.8371917,-5.786562,-0.6956698,0.8212566,1.387337,-3.301555,-9.347986,-6.033181,1008.531
13.401825428,5.664687,-39.4998,16.55122,-0.5535842,0.7705044,1.093982,-1.790223,-12.24788,-6.017047,1008.534
13.434389114,0.004160807,-50.80118,24.38474,-0.3428132,0.504949,0.7803663,-1.797769,-11.88703,-6.529455,1008.534
13.466952324,-11.43995,-45.62634,18.5096,-0.2247081,0.3610516,0.5938904,-1.797769,-11.88703,-6.529455,1008.534
13.502019882,-10.70162,-26.11659,10.67608,-0.1497027,0.2674644,0.5484029,-2.164239,-11.88967,-6.528266,1008.532
13.534579754,5.049412,-1.96733,4.372538,-0.09676922,0.2907723,0.5975285,-2.924798,-10.44747,-7.874549,1008.532
13.567142963,7.51051,14.03304,-2.91019,-0.1114071,0.3999155,0.7079675,-2.924798,-10.44747,-7.874549,1008.532
13.602211475,7.2644,22.83622,-10.37652,-0.1927671,0.5533364,0.8297808,-2.93453,-9.717268,-7.4337,1008.532
13.634774685,-1.841663,19.26736,-12.94689,-0.2800664,0.6185032,0.890798,-3.299369,-9.717332,-6.986439,1008.532
13.667337894,-4.302762,8.679759,-8.11214,-0.2999704,0.6247907,0.9469849,-3.299369,-9.717332,-6.986439,1008.532
13.699901104,-3.625959,-2.145772,-1.196607,-0.3045457,0.5947019,0.9242948,-2.919906,-10.43972,-6.536334,1008.532
13.734965324,-3.502904,-7.796461,3.515746,-0.2625922,0.5323833,0.8551474,-2.543703,-11.16728,-6.978372,1008.532
13.767528534,-5.471783,-8.510232,3.638145,-0.2335284,0.4456417,0.7759724,-1.822124,-10.43437,-6.985972,1008.532
13.800092220,1.296237,-4.287086,2.903752,-0.2126406,0.4080141,0.773928,-1.822124,-10.43437,-6.985972,1008.532
13.835160255,8.618004,2.969588,1.496166,-0.2172515,0.4297767,0.7844154,-2.551015,-10.80605,-7.427055,1008.532
13.867723942,11.57132,6.538445,-0.7682115,-0.2505411,0.4923942,0.8129553,-2.184544,-10.80341,-7.428244,1008.532
13.900287151,8.002729,6.657406,-3.093789,-0.2664834,0.5679399,0.8271744,-2.184544,-10.80341,-7.428244,1008.532
13.935351372,1.419292,3.266993,-2.114598,-0.2967376,0.5738454,0.8311608,-2.547753,-10.80089,-6.534911,1008.532
13.967914581,-2.026245,-0.7182298,0.08858011,-0.2672737,0.5547505,0.8395418,-2.547753,-10.80089,-6.534911,1008.532
14.000477791,-2.39541,-3.632796,1.190169,-0.2532015,0.5146528,0.826832,-2.547753,-10.80089,-6.534911,1008.534
14.035546303,0.004160807,-3.930201,2.169359,-0.2296033,0.4931444,0.8148801,-2.177232,-11.16463,-6.979561,1008.534
14.068109512,3.388171,-1.848368,1.924562,-0.2169681,0.4947826,0.8115092,-2.16992,-11.52586,-6.530878,1008.534
14.100672722,3.818863,0.3524271,0.5169758,-0.2273882,0.5078456,0.7948004,-2.16992,-11.52586,-6.530878,1008.534
14.133232594,2.219149,1.839451,-0.7682115,-0.2406698,0.5193339,0.7954718,-2.547753,-10.80089,-6.534911,1008.534
14.168300152,-0.1188941,2.077374,-1.563804,-0.2577469,0.524881,0.8091075,-2.91236,-10.80058,-6.023926,1008.534
14.200863838,-0.7341687,1.244641,-1.257807,-0.2685065,0.5324367,0.8266347,-2.91236,-10.80058,-6.023926,1008.534
14.233427048,-0.1188941,-0.004458558,-0.03381869,-0.2674284,0.5241736,0.8298913,-2.181283,-10.79824,-6.5361,1008.536
14.268495083,0.8040177,-1.253558,0.3333777,-0.2659626,0.5227569,0.8250345,-1.810762,-11.16199,-6.98075,1008.536
14.301058769,1.542347,-1.96733,0.7617734,-0.2566832,0.5180712,0.813353,-1.810762,-11.16199,-6.98075,1008.538
14.333618164,2.465259,-1.432001,1.06777,-0.2353168,0.5227391,0.81002,-2.536391,-11.52851,-6.529689,1008.536
14.368686199,2.096094,-0.6587489,0.9453717,-0.2411214,0.5183117,0.8051242,-2.908543,-11.16735,-6.531111,1008.536
14.401249409,1.849985,0.1145033,0.5169758,-0.2329332,0.5266692,0.8076607,-2.908543,-11.16735,-6.531111,1008.536
14.433812618,1.173183,0.2334652,-0.09501809,-0.2441961,0.5318704,0.8072675,-2.536391,-11.52851,-6.529689,1008.536
14.468881130,-0.05736665,0.1739843,0.08858011,-0.2441712,0.5313492,0.8149936,-2.175601,-11.16205,-6.533489,1008.534
14.501444340,0.06568827,-0.3018633,0.3333777,-0.2509547,0.528345,0.8149543,-2.175601,-11.16205,-6.533489,1008.538
14.534003258,0.3733255,-0.539787,0.6393746,-0.2494383,0.523982,0.8168198,-2.53476,-11.52593,-6.083617,1008.538
14.566567421,1.111655,-0.4208252,0.4557765,-0.2440686,0.5226007,0.8153435,-2.16992,-11.52586,-6.530878,1008.538
14.601634979,1.050128,-0.004458558,0.08858011,-0.2465656,0.526012,0.8062137,-2.16992,-11.52586,-6.530878,1008.536
14.634199142,0.2502706,-0.004458558,-0.03381869,-0.2490652,0.5322818,0.8096955,-2.162374,-11.88672,-6.01847,1008.536
14.666761875,0.2502706,-0.004458558,0.1497795,-0.2461343,0.5318274,0.8111358,-2.532896,-11.52297,-5.573821,1008.538
14.701830387,0.8040177,-0.2423823,0.3333777,-0.2508568,0.5210321,0.8201599,-2.532896,-11.52297,-5.573821,1008.538
14.734389782,1.173183,-0.539787,0.5169758,-0.2504572,0.5264296,0.8100909,-2.534527,-11.52556,-6.019892,1008.539
14.766952991,0.8040177,-0.599268,0.8229728,-0.2505824,0.5371218,0.8097708,-2.532896,-11.52297,-5.573821,1008.541
14.802021503,0.6194354,-0.7182298,0.4557765,-0.2451001,0.5274493,0.814935,-2.532896,-11.52297,-5.573821,1008.541
14.834584236,-0.1188941,-0.7777108,0.3945771,-0.2451994,0.5342894,0.8068221,-2.177787,-10.79271,-5.580232,1008.541
14.867147446,-0.4265314,-0.4803061,0.6393746,-0.224793,0.5398703,0.8136548,-2.893685,-11.88943,-5.570021,1008.541
14.902215958,0.004160807,-0.8966727,-0.2786163,-0.2461798,0.5352398,0.8087711,-2.893685,-11.88943,-5.570021,1008.541
14.934775352,-0.1188941,-0.4803061,-0.4622145,-0.245711,0.5381329,0.8150986,-2.1851,-10.43148,-6.028914,1008.541
14.967339039,-1.349443,-1.253558,-0.2786163,-0.237441,0.5387311,0.814133,-2.542072,-11.1647,-6.5323,1008.543
14.999902248,-0.8572236,-1.729406,0.3333777,-0.2362702,0.5212622,0.8114485,-2.542072,-11.1647,-6.5323,1008.545
15.034969807,-0.3034765,-1.788887,0.2109789,-0.244982,0.5167702,0.8123552,-2.902862,-11.53116,-6.5285,1008.545
15.067533970,0.8040177,-1.075115,-0.6458127,-0.2272373,0.5398561,0.80979,-2.536391,-11.52851,-6.529689,1008.542
15.100096703,-1.287916,-1.194077,-0.4010151,-0.2320402,0.5325369,0.8024322,-2.536391,-11.52851,-6.529689,1008.54
15.135161400,-2.518465,-1.075115,-0.6458127,-0.24073,0.5270535,0.8076741,-2.179418,-10.79529,-6.026303,1008.542
15.167724609,-1.780135,0.4713889,-1.013009,-0.2368953,0.533874,0.8150251,-3.275013,-11.16999,-6.529922,1008.544
15.200287819,-2.518465,0.7093127,-0.8294109,-0.2427088,0.5304141,0.8111109,-3.275013,-11.16999,-6.529922,1008.544
15.235356331,-4.179707,-0.539787,-0.4010151,-0.2626156,0.5271943,0.8207486,-2.540208,-11.16175,-6.022503,1008.544
15.267919064,-3.933596,-1.015635,-0.8294109,-0.2704608,0.5333743,0.8285844,-2.532896,-11.52297,-5.573821,1008.544
15.300483227,-5.2872,-1.729406,-1.808601,-0.2815395,0.5624398,0.8179209,-2.532896,-11.52297,-5.573821,1008.544
15.335546970,-13.10119,-5.060338,-1.808601,-0.2686214,0.5815792,0.8143334,-2.544258,-10.79535,-5.579043,1008.544
15.368110180,-17.90033,-8.272308,-0.1562175,-0.2516965,0.5502067,0.8148052,-2.542072,-11.1647,-6.5323,1008.544
15.400673866,-19.86921,-9.105042,0.02738071,-0.244474,0.520543,0.8389979,-2.552646,-10.80864,-7.873127,1008.544
15.433237076,-19.13088,-8.153346,1.251369,-0.1919879,0.4862787,0.8292403,-2.552646,-10.80864,-7.873127,1008.544
15.468305588,-16.17756,-8.034385,2.046961,-0.1918041,0.4298761,0.8351469,-2.93048,-10.08366,-7.877161,1008.542
15.500868797,-10.2094,-5.1793,0.3945771,-0.181093,0.432397,0.8458093,-3.295319,-10.08372,-7.4299,1008.544
15.533427715,-9.040376,-2.919025,0.02738071,-0.1694085,0.4358827,0.8608359,-3.295319,-10.08372,-7.4299,1008.544
15.568496227,-7.194552,-2.383696,-0.2174169,-0.1870569,0.4021573,0.852121,-2.567271,-10.08618,-8.770493,1008.544
15.601059437,-1.472498,-0.8371917,0.6393746,-0.1944296,0.4097971,0.8609455,-2.217844,-8.992102,-8.779515,1008.544
15.633622646,6.956763,1.720489,2.536556,-0.1971326,0.3908107,0.860175,-2.217844,-8.992102,-8.779515,1008.544
15.668691158,16.43199,2.43426,3.638145,-0.2184331,0.4187842,0.8466044,-3.313205,-9.366436,-9.21941,1008.542
15.701253891,19.01615,1.720489,3.393348,-0.2544758,0.4629825,0.8564977,-3.309943,-9.36127,-8.327266,1008.542
15.733813763,16.98574,1.244641,2.475357,-0.2413215,0.5424578,0.8383625,-3.309943,-9.36127,-8.327266,1008.542
15.768881798,7.695093,-0.539787,3.209749,-0.2333386,0.5668853,0.8334103,-3.301,-9.719914,-7.432511,1008.542
15.801445484,2.588314,-0.4208252,4.800933,-0.2139943,0.5389019,0.843599,-2.558328,-10.44483,-7.875738,1008.54
15.834008694,0.4963804,-2.859544,5.535326,-0.2523857,0.4917049,0.8521001,-2.558328,-10.44483,-7.875738,1008.54
15.866571903,-1.472498,-6.4284,2.352958,-0.2416792,0.5322276,0.8425571,-2.93048,-10.08366,-7.877161,1008.54
15.901640415,-10.14787,-8.331789,0.3945771,-0.1942112,0.5547135,0.8433377,-2.928848,-10.08108,-7.431088,1008.54
15.934199333,-15.74687,-9.105042,-1.319006,-0.204744,0.494849,0.8318003,-2.928848,-10.08108,-7.431088,1008.539
15.966762543,-14.20868,-7.915423,-2.175798,-0.1897144,0.4581236,0.8283252,-2.578633,-9.35856,-8.775715,1008.539
16.001831055,-10.57856,-6.190476,-2.236997,-0.1907226,0.4634053,0.8395244,-3.311574,-9.363853,-8.773338,1008.539
16.034394264,-10.94773,-5.238781,-2.604193,-0.2037763,0.4554527,0.8408659,-3.311574,-9.363853,-8.773338,1008.539
16.066957951,-7.563716,-5.595667,-1.502604,-0.1870061,0.441485,0.8609384,-2.956467,-8.633585,-8.779749,1008.539
16.102025986,-3.625959,-4.881896,-0.8906103,-0.1927187,0.4330846,0.8748337,-3.691039,-8.641461,-9.223443,1008.539
16.134585381,-5.53331,-7.320614,-1.135408,-0.2062234,0.4625778,0.8699795,-3.691039,-8.641461,-9.223443,1008.539
16.167148590,-6.579277,-7.618019,0.1497795,-0.1338385,0.5194252,0.8673933,-2.958097,-8.636168,-9.225821,1008.539
16.202216625,-11.31689,-5.11982,2.169359,-0.1250362,0.4757705,0.873486,-3.33593,-7.911193,-9.229855,1008.537
16.234780312,-4.302762,-1.491482,3.576946,-0.1571362,0.3831237,0.8484182,-3.33593,-7.911193,-9.229855,1008.537
16.267343521,7.879675,0.9472365,4.617335,-0.1383286,0.3998769,0.8520392,-3.702401,-7.91384,-9.228665,1008.537
16.299906731,10.83299,3.742841,5.229329,-0.1499681,0.4376317,0.8526264,-3.333511,-8.280169,-10.11939,1008.535
16.334970951,10.21772,4.099726,5.16813,-0.1902874,0.4288421,0.8530146,-3.333511,-8.280169,-10.11939,1008.535
16.367534161,11.01758,2.969588,4.066541,-0.1933063,0.4413475,0.8730268,-4.073869,-7.489458,-8.784451,1008.535
16.400097847,10.95605,1.482565,2.720154,-0.1984062,0.4635831,0.884972,-3.322937,-8.636231,-8.778561,1008.535
16.435165882,6.833708,-1.432001,1.190169,-0.1950458,0.5074163,0.8745198,-3.322937,-8.636231,-8.778561,1008.535
16.467729092,1.72693,-4.287086,0.5169758,-0.1831531,0.5285394,0.8593625,-3.702401,-7.91384,-9.228665,1008.533
16.500292778,-3.687486,-6.190476,-0.4010151,-0.1999971,0.5089292,0.8484454,-3.695089,-8.275067,-8.779983,1008.533
16.535356521,-8.794266,-8.331789,-2.236997,-0.1648973,0.5064599,0.8507906,-3.695089,-8.275067,-8.779983,1008.535
16.567920685,-14.51632,-9.699851,-3.216187,-0.1627264,0.5307541,0.8584098,-3.693458,-8.272485,-8.333911,1008.535
16.600483417,-18.94629,-8.391271,-2.787791,-0.1406799,0.4785333,0.8624256,-4.068871,-7.916486,-9.227476,1008.535
16.635551929,-14.94701,-7.558538,-0.7682115,-0.1481861,0.4128079,0.8657805,-4.068871,-7.916486,-9.227476,1008.537
16.668115139,-5.964003,-5.238781,0.5781752,-0.1203896,0.4111932,0.8729798,-3.709029,-7.489394,-9.231712,1008.539
16.700678348,-0.8572236,-2.324215,1.924562,-0.1193522,0.4063337,0.8758048,-4.072134,-7.921652,-10.11962,1008.54
16.733238220,4.680247,-0.3613442,2.597755,-0.1470265,0.3963107,0.8631108,-4.072134,-7.921652,-10.11962,1008.54
16.768305778,8.864114,-0.0639395,3.14855,-0.1418321,0.4123715,0.8730184,-4.449283,-7.13346,-9.678017,1008.542
16.800868988,10.64841,-0.3613442,2.781353,-0.1671387,0.4542889,0.880933,-4.082812,-7.130813,-9.679206,1008.542
16.833433151,7.879675,-1.194077,2.046961,-0.1588008,0.4884761,0.8683953,-4.082812,-7.130813,-9.679206,1008.542
16.868500710,4.680247,-2.502658,2.10816,-0.1524432,0.4880332,0.8770832,-4.070503,-7.919069,-9.673549,1008.544
16.901064396,3.019006,-2.562139,2.046961,-0.1374047,0.4911873,0.8679327,-4.447652,-7.130877,-9.231945,1008.544
16.933623791,0.4963804,-2.62162,2.046961,-0.1368742,0.4868336,0.8649655,-4.077131,-7.494624,-9.676595,1008.544
16.968692303,-0.7341687,-1.848368,1.924562,-0.1454245,0.4658758,0.8535363,-4.077131,-7.494624,-9.676595,1008.546
17.001255512,0.06568827,-2.205253,1.740964,-0.127474,0.4719394,0.8540949,-4.0755,-7.492041,-9.230523,1008.546
17.033818245,-2.518465,-2.443177,1.190169,-0.1271723,0.4889306,0.8591876,-4.082812,-7.130813,-9.679206,1008.546
17.068886757,-4.610399,-0.8966727,1.12897,-0.1210798,0.4690516,0.866129,-4.082812,-7.130813,-9.679206,1008.546
17.101449966,-1.90319,0.6498318,1.434967,-0.1296736,0.4538807,0.8644558,-3.714711,-7.125583,-9.234323,1008.546
17.134009361,2.403732,2.017893,2.842553,-0.1298399,0.4675016,0.8612801,-3.714711,-7.125583,-9.234323,1008.547
17.166573048,5.787742,2.910107,5.229329,-0.1212812,0.4447432,0.8672085,-3.714711,-7.125583,-9.234323,1008.546
17.201640606,15.07839,5.289345,5.780124,-0.1280827,0.4417718,0.8599191,-4.810072,-7.499917,-9.674217,1008.546
17.234204769,15.3245,6.122078,5.963722,-0.137625,0.467389,0.8637028,-4.815753,-7.136106,-9.676828,1008.546
17.266767979,16.55505,6.300521,5.16813,-0.1285072,0.4805962,0.8711461,-4.815753,-7.136106,-9.676828,1008.546
17.301836014,14.70922,4.932459,4.739734,-0.1630412,0.477696,0.8754857,-3.709029,-7.489394,-9.231712,1008.546
17.334395409,21.53877,5.58675,4.494936,-0.1621354,0.4921014,0.9163082,-4.077919,-7.123064,-8.34099,1008.546
17.366958618,31.07553,5.705711,5.841323,-0.1654876,0.5294718,0.9183317,-4.077919,-7.123064,-8.34099,1008.546
17.402027130,32.79829,0.4713889,9.329689,-0.2253647,0.5695069,0.9204504,-4.070607,-7.484292,-7.892307,1008.546
17.434590340,31.75233,-5.536186,11.96126,-0.1957515,0.6256504,0.9497976,-4.415825,-8.63384,-6.990706,1008.544
17.467153072,22.46168,-9.997255,13.43005,-0.2111488,0.6079875,0.9422923,-4.415825,-8.63384,-6.990706,1008.544
17.502412319,16.43199,-16.77808,13.18525,-0.1814728,0.5965347,0.8744162,-4.032866,-9.350697,-5.584732,1008.544
17.534971714,6.095379,-22.9641,12.81805,-0.1186412,0.5868617,0.830704,-4.029603,-9.345531,-4.692588,1008.542
17.567535400,-3.010684,-27.6631,9.452087,-0.04393099,0.5536852,0.7527855,-4.029603,-9.345531,-4.692588,1008.542
17.600098610,-4.979563,-27.30621,4.556136,0.06248911,0.5654667,0.7117755,-5.136328,-8.992243,-5.137705,1008.542
17.635167122,-14.20868,-23.67787,0.3333777,0.06760684,0.5308326,0.6479198,-5.149322,-8.267204,-5.588999,1008.542
17.667730331,-18.14644,-21.59604,-3.093789,0.03487411,0.486427,0.5936192,-5.149322,-8.267204,-5.588999,1008.542
17.700293064,-14.76243,-14.69625,-6.398556,0.05091927,0.5289545,0.586035,-5.155003,-7.903394,-5.59161,1008.544
17.735357761,-23.19169,-4.584491,-9.825723,0.02766535,0.5664251,0.6156318,-5.891438,-7.914222,-6.545101,1008.544
17.767920971,-27.12945,3.802321,-10.37652,-0.03315296,0.5660161,0.6379196,-5.891438,-7.914222,-6.545101,1008.542
17.800484180,-24.91446,13.02187,-8.356936,-0.07386533,0.5646585,0.7123781,-5.172438,-7.123255,-6.999208,1008.546
17.835552692,-21.53045,17.6019,-2.481795,-0.08593974,0.5348861,0.8115112,-5.1757,-7.128421,-7.891352,1008.546
17.868115425,-16.11603,18.07775,1.190169,-0.1286486,0.4936959,0.8756965,-5.1757,-7.128421,-7.891352,1008.546
17.900679588,-3.133739,17.83982,3.760544,-0.1238049,0.5114041,0.9494353,-5.543801,-7.133651,-8.336235,1008.546
17.935743332,-6.702332,14.38993,6.14732,-0.1424046,0.5374966,1.035892,-4.457384,-6.400672,-8.791096,1008.546
17.968307018,-10.45551,-2.264734,5.718925,-0.2249514,0.4775454,1.050525,-4.457384,-6.400672,-8.791096,1008.548
18.000870228,-4.487344,-20.4659,12.32846,-0.1270394,0.5106216,1.217217,-4.818172,-6.76713,-8.787296,1008.546
18.033433437,-12.97813,-28.07946,11.53287,-0.08557859,0.4502096,1.154867,-4.823854,-6.403319,-8.789907,1008.546
18.068501949,-9.040376,-38.96447,9.390888,-0.1066689,0.3912932,1.012359,-4.823854,-6.403319,-8.789907,1008.546
18.101065159,3.818863,-45.38841,12.20606,-0.08657085,0.3893521,0.8566625,-5.566526,-5.678408,-8.34668,1008.548
18.133624554,0.004160807,-47.47025,17.83641,0.02661045,0.459294,0.8701881,-5.587621,-4.220582,-7.911052,1008.548
18.168692589,27.1993,-48.5409,19.42759,0.04838641,0.279794,0.7548017,-5.587621,-4.220582,-7.911052,1008.546
18.201255798,60.91634,-35.99043,15.32723,0.2448811,0.3901581,0.7751475,-5.950829,-4.218062,-7.01772,1008.546
18.233819485,70.4531,-25.93815,12.38966,0.1802239,0.404759,0.6927752,-6.331081,-3.124111,-6.13222,1008.546
18.268887520,64.97716,-11.4248,1.496166,0.1729535,0.3774922,0.5768392,-6.681852,-3.474702,-3.388265,1008.546
18.301451206,61.16245,5.824673,-15.45607,0.2050932,0.4021095,0.4930761,-6.681852,-3.474702,-3.388265,1008.545
18.334010124,54.39443,24.79909,-31.55151,0.1858506,0.4170658,0.4623868,-7.026386,-4.561031,-2.041027,1008.545
18.369078636,65.10021,43.89248,-42.8734,0.1419787,0.5567192,0.5133808,-7.000954,-5.63918,0.260891,1008.545
18.401641846,55.56345,61.61779,-54.62368,0.08388961,0.7980331,0.6118603,-7.000954,-5.63918,0.260891,1008.545
18.434205055,35.44398,72.62177,-58.05085,-0.08603286,0.9834235,0.7173286,-5.859983,-7.864407,2.057714,1008.546
18.466768265,24.0614,64.94873,-53.82809,-0.2518422,0.9722613,0.7724233,-5.433439,-11.4947,2.974781,1008.546
18.501836777,30.02956,58.76271,-51.99211,-0.2084498,0.9323555,0.8012586,-5.433439,-11.4947,2.974781,1008.549
18.534395695,25.415,55.19386,-54.99088,-0.09577604,0.7610509,0.8531579,-3.939938,-12.93161,4.318686,1008.549
18.566959858,57.53233,62.92637,-60.98842,0.08344634,0.4744992,0.6832983,-2.801313,-15.09842,5.732727,1008.549
18.602027416,144.1015,79.34312,-62.9468,0.01545155,0.4722795,0.5499181,-2.801313,-15.09842,5.732727,1008.549
18.634591103,192.2775,84.51796,-60.92722,-0.08208201,0.7419842,0.3859118,-2.399069,-16.53035,9.310558,1008.547
18.667154312,205.6289,84.04211,-58.84644,-0.1786713,0.8963487,0.2583317,-0.8694043,-19.09054,15.63325,1008.549
18.702222824,181.6332,81.96027,-57.01046,-0.361987,0.9399747,0.1861843,-0.8694043,-19.09054,15.63325,1008.55
18.734782219,139.5484,68.93395,-52.7877,-0.5519521,0.8031703,0.1209581,0.2996001,-21.58204,23.80471,1008.55
18.767344952,94.01811,45.61742,-44.58698,-0.6338249,0.8368887,0.06016273,0.3072546,-20.4515,30.55167,1008.55
18.834976673,-15.31618,15.16318,-32.7755,-0.6794979,0.8223169,0.03436553,1.774823,-19.69262,34.11027,1008.552
18.867539883,-98.68588,-12.37649,-33.81589,-0.708636,1.006108,0.1469242,2.142924,-19.68739,34.55516,1008.552
18.900103569,-113.9447,-31.05351,-58.47924,-0.2843208,-0.1506384,1.466854,2.142924,-19.68739,34.55516,1008.552
18.935167313,191.1084,-11.00843,13.36885,-1.093639,1.589535,-0.5698352,2.148551,-20.79691,31.44049,1008.552
18.967731476,93.71048,-71.26262,2.903752,-0.4629107,1.874515,-0.1919626,3.247963,-20.78897,31.43692,1008.552
19.000294685,-19.43851,-82.98037,-24.88077,-0.8779635,1.279493,-0.2823305,3.247963,-20.78897,31.43692,1008.552
19.035362720,-9.90176,-46.87544,-26.16596,-0.4174812,0.7119874,-0.4925178,3.659311,-19.3203,33.20937,1008.552
19.067925930,-15.13159,-31.29143,-2.726592,-0.403098,0.5982441,-0.1298009,5.133294,-20.04251,32.3177,1008.552
19.100489140,67.74589,-0.4803061,1.373767,0.01695307,-0.06043749,-0.179409,5.133294,-20.04251,32.3177,1008.554
19.135553837,229.1939,47.81822,6.636915,-0.2793628,0.1198942,-0.6027101,5.869497,-20.03205,33.20746,1008.556
19.168117046,262.5418,69.70721,-2.359396,-0.5205458,0.6941643,-0.5023578,6.622243,-19.99539,38.62167,1008.556
19.200679779,170.2506,80.59222,-32.8979,-1.092759,1.052103,-0.377434,6.622243,-19.99539,38.62167,1008.556
19.233243942,15.63213,67.14952,-67.84275,-1.305517,1.006092,-0.1691118,6.57782,-15.52991,45.34471,1008.556
19.268311501,-104.1618,43.00026,-78.30785,-1.442464,0.7066977,-0.2388031,6.153193,-11.15096,48.05472,1008.557
19.300875187,-151.3534,18.79152,-77.51225,-1.485496,0.351212,-0.2098653,6.153193,-11.15096,48.05472,1008.557
19.333434582,-127.9729,-10.65155,-90.18053,-1.175897,-0.1437175,-0.03548186,7.262336,-11.87322,47.61031,1008.559
19.368503094,26.39944,-12.91182,-62.57961,-0.8814298,-0.5599936,-0.09867202,7.312392,-15.52203,45.78841,1008.559
19.401066303,79.43611,-16.48068,-67.84275,-0.6556791,0.3742254,-0.3258422,7.312392,-15.52203,45.78841,1008.559
19.433629513,14.09395,6.89533,-104.9296,-0.4367665,0.06353492,-0.3119418,8.449386,-17.69142,46.75637,1008.561
19.501260757,-72.84435,30.62823,-43.48539,-0.6048647,1.981038,0.022002,9.547222,-16.94036,49.42402,1008.563
19.533820152,-66.13786,28.1895,-60.00923,-0.4364409,0.3636143,-0.1439826,10.26233,-15.47208,50.74941,1008.564
19.568888664,-7.809826,28.66535,-54.86848,-0.7045681,0.5451107,0.2138437,10.64421,-16.56344,50.30998,1008.56
19.601451874,10.34077,24.62065,-70.41312,-0.8553929,1.016428,0.1288549,10.64421,-16.56344,50.30998,1008.56
19.634015560,22.9539,-2.62162,-66.37396,-0.8313403,0.741817,0.09370606,11.01232,-16.55821,50.75487,1008.56
19.666578770,107.6772,-17.9677,-66.67996,-0.7035667,0.5583348,0.08836657,11.39286,-16.90609,53.05037,1008.56
19.701647282,111.615,-20.22798,-73.3507,-0.9010488,0.4127318,-0.3056828,11.39286,-16.90609,53.05037,1008.56
19.734206200,126.8123,-4.941377,-66.98596,-0.8508741,0.6892924,-0.3788522,11.38965,-16.16556,55.27551,1008.56
19.766769409,31.62927,-2.562139,-78.36905,-0.8713551,0.4937693,-0.7240462,12.0853,-13.23686,57.4826,1008.56
19.801837921,50.94889,-10.82999,-76.59427,-0.9956625,0.0703018,-0.1967388,12.0853,-13.23686,57.4826,1008.56
19.834401131,35.87467,-20.94175,-79.65424,-0.9628274,0.08402606,-0.4469503,12.39766,-9.219015,59.74678,1008.562
19.866964817,9.971608,-25.40282,-71.08632,-0.9122588,-0.01013522,-0.3304917,12.00115,-7.405191,59.28885,1008.564
19.902032852,13.47867,-27.6631,-59.33604,-1.010521,0.07817814,-0.2608934,11.95639,-4.431487,59.71359,1008.564
19.934591770,-15.68534,-28.31739,-51.56371,-1.049057,-0.201471,-0.2230688,11.95639,-4.431487,59.71359,1008.564
19.967155457,-23.86849,-25.64075,-35.03988,-0.938771,-0.05753147,-0.2446648,11.9223,-2.248623,59.69792,1008.566
20.002223492,-37.03537,-27.06829,-34.36668,-0.97323,0.06054584,-0.231229,11.9012,-0.7907968,60.13355,1008.568
20.034787178,-26.69876,-22.30981,-38.89544,-0.968359,0.07772846,-0.1487975,11.9012,-0.7907968,60.13355,1008.568
20.067350388,-22.33031,-19.75213,-41.09861,-1.022822,0.01510685,-0.2139895,13.37356,-1.51558,58.7958,1008.568
20.099913597,-17.40811,-16.4212,-42.2614,-0.9788814,-0.02347765,-0.153715,13.72703,-0.7878947,58.34331,1008.568
20.134977818,-20.60754,-19.87109,-36.75346,-0.9522822,-0.1144769,-0.265339,13.72703,-0.7878947,58.34331,1008.566
20.167541027,-8.978848,-23.38047,-32.4083,-0.9797498,-0.08593285,-0.2088053,14.87835,-0.4212375,57.38107,1008.564
20.200104713,-6.27164,-26.88984,-24.26878,-0.9664335,-0.1867883,-0.2224412,15.59261,0.6729045,56.92479,1008.564
20.235172749,-5.77942,-29.98285,-17.47565,-1.017597,-0.1532042,-0.272634,15.59261,0.6729045,56.92479,1008.564
20.267735958,-15.62381,-34.80081,-15.45607,-0.9736973,-0.1318417,-0.1428055,15.58367,1.031549,56.03003,1008.564
20.300299645,-11.19384,-31.46988,-10.98851,-0.9614266,-0.1760368,-0.1149724,15.93957,1.390258,54.68802,1008.564
20.335363388,-4.487344,-31.76728,-8.05094,-0.98246,-0.1229237,-0.09867369,15.93957,1.390258,54.68802,1008.563
20.367927075,3.941918,-25.58126,-10.31532,-0.9690273,-0.1308829,-0.02050104,17.03735,1.395615,54.23838,1008.561
20.400490284,8.310367,-23.67787,-9.336127,-0.9913211,-0.1166795,-0.107754,17.77108,1.029349,52.90039,1008.561
20.435558796,12.49423,-19.33576,-11.17211,-0.9448159,-0.1872798,0.05257183,17.77108,1.029349,52.90039,1008.561
20.468122005,17.7856,-6.844767,-3.95058,-1.019977,-0.163268,-0.09828623,17.77163,0.6574206,51.50107,1008.561
20.500685215,-9.040376,-17.01601,1.190169,-1.099313,-0.07416901,-0.2524977,18.1462,-0.07272005,50.61296,1008.557
20.533245087,-42.14215,-20.34694,17.10201,-1.072609,-0.1158951,-0.08591165,18.1462,-0.07272005,50.61296,1008.556
20.568312645,-55.61666,-21.00123,34.97224,-1.020781,-0.07053671,-0.1853287,19.59825,0.2887626,48.37523,1008.554
20.600876808,-113.9447,-35.57406,62.08357,-1.257644,0.8501269,-0.2551616,21.10064,-2.252492,47.49661,1008.554
20.633439541,-243.8907,-39.2024,73.89505,-0.861786,0.6330296,-0.3289455,21.10064,-2.252492,47.49661,1008.554
20.668507576,-299.2654,-31.94572,57.92201,-0.7219149,-0.3851153,-0.1560967,22.99278,-6.618271,45.22792,1008.554
20.701071262,-289.0518,-23.43995,-7.438946,-0.7016212,-1.868794,0.08565527,22.67725,-11.07606,40.29036,1008.554
20.733630657,-91.97939,-13.74455,-9.948121,-0.9252779,-2.192617,-0.3091543,22.67725,-11.07606,40.29036,1008.556
20.768699169,108.1694,-13.98248,79.70899,-1.413244,1.739833,0.2984942,21.97672,-14.01251,36.74505,1008.556
20.801261902,-106.1922,3.148031,33.80945,-0.8997809,0.4730304,-0.09691206,23.05667,-12.54416,37.62318,1008.556
20.833825111,-41.5884,-4.168124,17.40801,-1.063628,-0.1878815,0.05799448,23.05667,-12.54416,37.62318,1008.556
20.868893623,4.188028,-4.227605,-3.032589,-1.015546,0.2770382,0.02588753,22.34803,-14.74781,34.9648,1008.56
20.901456833,-9.963288,-9.878294,-24.39118,-1.008901,0.04377353,0.03972391,22.72018,-15.10898,34.96622,1008.558
20.934016705,1.111655,-4.465529,-24.88077,-0.9600086,-0.03336702,0.1491931,22.72018,-15.10898,34.96622,1008.558
20.966579914,-0.241949,8.560798,-23.71799,-0.9627845,-0.009470544,0.123458,22.71613,-14.74258,35.40968,1008.554
21.001648426,-6.640805,16.94761,-25.73756,-0.9949366,-0.01366922,0.09973954,22.70313,-14.01755,34.95839,1008.558
21.034211636,-0.9802784,20.57594,-27.81834,-1.001408,-0.01064072,0.05677146,22.70313,-14.01755,34.95839,1008.557
21.066774368,-2.272355,23.07414,-32.6531,-1.000458,-0.05095604,0.05422197,22.32693,-13.28999,35.40042,1008.557
21.101842880,2.957479,25.15598,-33.75469,-1.007946,-0.05594796,-0.04445584,22.68367,-12.55714,35.84008,1008.557
21.134402275,4.064973,29.61705,-36.38626,-0.9818333,-0.06567904,0.03222742,22.68367,-12.55714,35.84008,1008.557
21.166965485,9.479388,30.15238,-39.14024,-0.9477425,-0.0714261,0.004554354,22.31399,-11.81925,38.06641,1008.557
21.202033997,8.987169,31.46096,-39.75223,-0.9723796,-0.1794872,-0.02945673,23.02342,-9.98715,39.38919,1008.557
21.234596729,0.8040177,32.35317,-34.73388,-0.9404666,-0.2422776,-0.02416159,23.02342,-9.98715,39.38919,1008.555
21.267160893,-5.410255,35.80307,-31.9187,-0.9802102,-0.18998,-0.09534851,23.00964,-8.890553,40.2735,1008.555
21.302228451,-11.50147,35.02982,-38.71184,-0.9519681,-0.1421049,-0.06854302,22.98704,-7.000163,42.10802,1008.555
21.334788323,-14.94701,34.85137,-42.139,-0.9059681,-0.1647525,-0.0863345,22.98704,-7.000163,42.10802,1008.553
21.367351532,-10.94773,36.75476,-39.75223,-0.9457906,-0.2229621,-0.1181203,22.60842,-5.903628,43.43959,1008.553
21.399914742,-11.87064,41.27531,-44.15858,-0.928813,-0.1765414,-0.1241957,22.96679,-5.168194,44.32533,1008.553
21.434983254,-16.85436,45.14157,-53.52209,-0.9560739,-0.2272708,-0.16168,22.21197,-3.344102,46.09894,1008.553
21.467546463,-18.33102,48.1751,-61.41682,-0.9015838,-0.2725516,-0.2010935,22.21197,-3.344102,46.09894,1008.551
21.500110149,-3.687486,50.31642,-58.41805,-0.943513,-0.274905,-0.2310583,21.8149,-1.158349,47.04033,1008.553
21.535173893,-16.0545,42.8813,-47.76935,-0.905411,-0.4765429,-0.3477649,21.78408,1.029681,47.91681,1008.551
21.567737579,-10.2094,24.08532,-23.53439,-0.9386857,-0.5883356,-0.5466561,21.78408,1.029681,47.91681,1008.553
21.600300789,17.17032,9.393531,-0.4622145,-0.9818688,-0.4599837,-0.4668326,21.74337,3.636991,47.89809,1008.553
21.635368824,-37.52759,-9.699851,29.34189,-1.235973,0.3924973,-0.3428882,22.09847,4.36726,47.89168,1008.557
21.667932510,-141.7551,-34.56289,15.44963,-1.1517,0.3369953,-0.4003715,22.09847,4.36726,47.89168,1008.557
21.700495720,-236.0152,-59.12851,14.89883,-1.109341,0.4003383,-0.1026526,21.4022,2.121049,48.35623,1008.557
21.735559940,-286.4677,-76.3185,14.04204,-1.277449,0.09767928,-0.1849315,22.54543,-0.7840786,47.92748,1008.557
21.768123150,-250.1665,-72.51172,46.23293,-1.145641,-0.1923762,-0.0430207,22.54543,-0.7840786,47.92748,1008.557
21.800686359,-146.4927,-79.35203,47.76291,-1.200597,-0.3766397,-0.2918176,22.2298,-4.807094,44.77116,1008.557
21.833250046,-43.49575,-77.98397,63.36876,-0.8050821,-0.2576044,0.09970175,22.25084,-7.010622,41.21826,1008.557
21.868318081,31.81385,-63.70855,71.20228,-0.9230334,-0.2047744,0.1141561,22.25084,-7.010622,41.21826,1008.556
21.900881767,63.06981,-46.87544,75.54743,-0.9788954,-0.04379237,0.1432518,22.64638,-9.633736,38.04955,1008.556
21.933441162,47.50336,-49.31416,75.73103,-1.095119,0.04936004,0.06019419,21.96372,-13.28747,36.29375,1008.556
21.968509197,12.24812,-61.56723,63.91955,-1.061027,0.1352933,0.07113984,21.96372,-13.28747,36.29375,1008.556
22.001072407,-10.33245,-74.11771,55.59643,-1.056819,0.126688,0.1580123,22.01052,-16.94144,33.57971,1008.556
22.033635616,-21.53045,-75.48577,47.57931,-1.073255,0.05972241,0.08836703,21.66603,-19.20825,30.02843,1008.556
22.068704128,-25.40668,-82.38556,39.86819,-1.06595,0.0199206,0.09790366,21.66603,-19.20825,30.02843,1008.556
22.101267338,-12.60897,-77.21072,34.54384,-1.076784,0.001929513,-0.0372225,20.58821,-21.79165,25.07975,1008.556
22.133827210,1.111655,-70.78677,26.15952,-1.039016,-0.02090959,-0.03664063,19.48199,-22.55599,20.11803,1008.556
22.168894768,4.987885,-68.5265,16.49002,-1.092359,0.03685219,-0.06616065,19.48199,-22.55599,20.11803,1008.554
22.201458931,-1.287916,-67.87221,9.635686,-1.15065,0.0628853,-0.07972515,18.37661,-22.9462,16.93797,1008.554
22.234021664,-12.91661,-71.08418,4.066541,-1.21959,0.09817383,-0.02208177,16.88879,-21.8731,15.59668,1008.552
22.266584873,-31.4979,-77.74605,-2.726592,-1.200715,0.0653953,-0.02743383,16.88879,-21.8731,15.59668,1008.552
22.301653385,-36.6662,-78.22189,-13.49769,-1.031782,0.02158698,-0.062585,16.12823,-20.4309,14.2504,1008.554
22.334212780,-33.09761,-69.24027,-22.3104,-0.8546609,0.02983688,-0.08631556,15.74551,-19.71367,12.90815,1008.554
22.366775990,-32.35928,-47.88661,-34.06068,-0.6814913,-0.07251299,-0.06145846,15.74551,-19.71367,12.90815,1008.552
22.401844025,7.51051,-18.02718,-29.59313,-0.6202831,-0.1241823,-0.1725157,15.72576,-18.99934,10.60884,1008.554
22.434407234,21.78488,15.57955,-21.63721,-0.4148129,0.04281865,-0.3954199,15.70777,-17.84727,10.60057,1008.554
22.466971397,15.81672,58.88167,-34.36668,-0.2517299,0.08111603,-0.4404304,15.70777,-17.84727,10.60057,1008.554
22.502038956,-12.11675,65.24613,-53.70569,-1.295255,0.2399651,1.381947,15.69911,-16.74255,12.88682,1008.552
22.534598827,28.42985,86.36186,-32.5919,-0.7692682,0.011544,-0.3061302,16.82209,-17.81571,14.67538,1008.552
22.567162037,-20.60754,90.76346,-58.78524,-1.223248,0.1005418,0.08720105,16.82209,-17.81571,14.67538,1008.552
22.602230549,-65.338,77.02336,-48.25895,-1.580798,0.1916669,0.2905045,18.29799,-17.78926,17.41078,1008.552
22.634793758,-37.89675,19.32685,-22.86119,-1.932173,-0.4678083,-1.357382,19.7623,-17.03555,20.07724,1008.552
22.667356491,5.418577,9.334049,-39.50743,-0.675723,0.02721423,0.7835501,19.7623,-17.03555,20.07724,1008.556
22.699920654,2.157622,27.83262,-23.53439,-0.9900855,-0.3512887,0.0781492,21.19651,-15.21108,19.16728,1008.556
22.734984398,-12.48591,32.94798,-19.55643,-0.978772,0.02911549,0.1424305,21.19004,-14.47571,20.50027,1008.556
22.767548084,-9.594123,28.96276,-18.94443,-1.013214,-0.1221777,0.07538303,21.19004,-14.47571,20.50027,1008.56
22.800111294,-2.826102,30.68771,-17.84284,-0.971158,-0.04597089,0.1103415,21.19493,-14.46796,21.83849,1008.56
22.835178852,-6.948442,33.12643,-17.16965,-0.9825425,-0.1174858,0.09330995,21.9141,-13.36607,22.72042,1008.56
22.867743015,-4.918036,34.31604,-12.88569,-0.9755548,-0.1861408,0.03473394,21.9141,-13.36607,22.72042,1008.556
22.900306225,-2.64152,31.93681,-10.80491,-1.016428,-0.1040833,0.04182581,21.92653,-13.71918,24.57105,1008.56
22.935370445,2.157622,25.63182,-12.1513,-1.014266,-0.09309122,-0.01746393,21.54302,-12.63039,24.5644,1008.56
22.967933655,3.142061,24.32324,-12.0901,-1.064453,-0.1354848,-0.03014668,21.54302,-12.63039,24.5644,1008.56
23.000496864,4.495665,21.05179,-11.7841,-0.9826959,-0.1632843,0.01140408,21.55523,-12.98387,26.3513,1008.56
23.035565376,3.634281,18.61308,-11.41691,-0.9697675,-0.1551031,-0.04020491,21.55281,-12.61489,27.24083,1008.56
23.068128586,1.173183,17.36398,-9.03013,-0.9787718,-0.168042,0.0002100345,21.55607,-12.60973,28.13298,1008.561
23.100692272,3.080534,20.57594,-6.949351,-1.007493,-0.1328159,-0.02629392,21.55607,-12.60973,28.13298,1008.56
23.133251190,0.004160807,23.49051,-10.43772,-0.9198039,-0.1649826,0.03065253,20.82825,-12.6069,29.5373,1008.56
23.168319702,-6.640805,26.88092,-13.06929,-0.9493765,-0.1433109,-0.01007532,20.43259,-10.41893,30.86103,1008.558
23.200882912,-2.1493,35.14878,-18.39364,-0.9594377,-0.1561108,-0.003010238,20.43259,-10.41893,30.86103,1008.56
23.233446121,-0.6111138,44.54676,-19.61762,-0.9346011,-0.1301639,-0.07949527,21.16311,-10.04466,31.74819,1008.558
23.268514633,6.156907,51.03019,-22.0044,-0.9882,-0.1355545,-0.1162624,21.16395,-9.670522,33.52987,1008.558
23.301077843,0.4963804,46.50964,-28.98113,-0.9735634,-0.1981408,-0.2047226,21.16395,-9.670522,33.52987,1008.558
23.333637714,5.172467,42.28649,-23.16719,-0.9747149,-0.2633527,-0.1892816,20.80261,-9.665051,34.93299,1008.558
23.368705273,16.55505,36.51684,-16.86365,-1.017773,-0.2502159,-0.208858,21.15856,-8.560639,36.70826,1008.556
23.401268959,27.32235,24.68013,-11.47811,-1.011064,-0.2737104,-0.365837,21.15856,-8.560639,36.70826,1008.556
23.433832169,34.27496,8.679759,-1.931,-1.030955,-0.2465755,-0.4045574,20.78804,-8.196893,37.15291,1008.555
23.468900680,22.09252,-7.380095,-2.726592,-1.036855,-0.2484503,-0.4364832,21.14478,-7.464041,37.59257,1008.555
23.501463890,9.479388,-19.63317,19.91718,-1.036892,0.03379798,-0.3026321,21.14478,-7.464041,37.59257,1008.556
23.566586018,59.56274,-32.83794,72.48746,-0.9964162,0.1795315,-0.3840719,21.53723,-8.911471,38.49397,1008.556
23.601654529,11.7559,-34.86029,77.19982,-0.94877,0.1295101,-0.2567862,21.53723,-8.911471,38.49397,1008.556
23.634217739,24.36903,-34.56289,70.22309,-0.9543585,0.1963944,-0.232075,21.56969,-11.09692,38.06356,1008.556
23.666781425,-12.79355,-22.72618,71.50828,-0.9165111,0.2973778,-0.2068854,21.24783,-14.38419,36.30397,1008.556
23.701849461,-42.63437,-14.81521,77.19982,-0.9134696,0.160863,-0.2104212,21.24783,-14.38419,36.30397,1008.556
23.734409332,-53.34015,-12.49545,72.12027,-0.9145581,0.1140851,-0.08110541,20.93748,-18.08817,35.88563,1008.556
23.766972542,-82.56569,-6.963728,60.79838,-0.9062156,0.1858372,0.08771297,21.35587,-21.73138,34.57234,1008.556
23.802041054,-144.7699,-18.80044,47.51811,-0.9862369,0.1608921,0.1067447,21.35587,-21.73138,34.57234,1008.556
23.834603786,-180.7635,-6.904248,33.93185,-0.6549814,-0.009837265,0.1246055,21.4124,-26.11555,31.41744,1008.555
23.867166996,-151.5995,-3.27591,26.09832,-0.685772,-0.1681876,0.1231861,22.8942,-28.31662,26.45784,1008.553
23.902235508,-162.6744,7.192735,-38.95663,-1.092579,-1.550131,-0.1425767,22.8942,-28.31662,26.45784,1008.557
23.934794903,-34.14358,8.620278,-48.87094,-1.583597,-2.239725,-0.2807184,22.92405,-31.31393,21.95472,1008.557
23.967358589,40.98145,-7.618019,20.52918,-1.280969,1.106706,-0.2072374,24.78823,-29.85535,20.15384,1008.557
23.999921799,-30.82109,-14.2204,-21.7596,-0.993547,0.2362632,-0.1347535,24.78823,-29.85535,20.15384,1008.557
24.034990311,-42.94201,-21.35812,-8.418137,-1.027342,-0.04208179,0.05631682,25.13929,-28.75869,20.59089,1008.559
24.067553520,-12.2398,-8.450751,-1.808601,-0.9921255,0.1480567,0.02728078,25.12209,-27.97818,19.24702,1008.559
24.100116253,-14.82396,-7.558538,-6.765753,-1.031657,0.10876,0.005450826,25.12209,-27.97818,19.24702,1008.559
24.135180950,-11.93217,-7.142171,-2.175798,-0.9843224,-0.01620323,0.04651919,24.74504,-27.62477,17.90738,1008.559
24.167744160,-9.040376,-9.580889,1.434967,-0.9841849,0.1317144,0.0101056,24.29314,-26.17519,17.45225,1008.557
24.200307846,-9.224958,-11.96013,-2.97139,-1.023155,0.05001389,0.01614741,24.29314,-26.17519,17.45225,1008.557
24.235375881,-3.995124,-13.68507,0.02738071,-1.006859,0.07638756,0.03441899,24.28341,-25.44499,17.8931,1008.557
24.267939568,0.6194354,-22.90462,-0.9518097,-0.9589344,0.09037527,-0.01810194,23.90776,-25.08936,16.93581,1008.559
24.300502777,12.74034,-16.48068,-11.53931,-1.021659,0.1910604,0.1043389,23.90776,-25.08936,16.93581,1008.559
24.335566521,4.003446,-12.73338,-11.35571,-0.9842562,0.02737671,0.08198714,23.90776,-25.08936,16.93581,1008.559
24.368130207,18.52393,-14.45833,-18.51604,-1.01497,0.1871013,0.03273227,23.53398,-24.73078,16.48832,1008.56
24.400693417,44.05782,-19.81161,-34.06068,-1.059823,0.1947029,0.04932635,23.53398,-24.73078,16.48832,1008.559
24.433256626,32.18302,-16.00483,-38.16105,-0.9112406,-0.0960116,0.2767686,24.68311,-23.99478,16.47933,1008.559
24.468325138,25.66111,-6.963728,-26.16596,-0.9636849,-0.06378176,0.09411108,24.62715,-23.9871,17.88147,1008.559
24.500888348,17.90865,-3.989681,-19.80122,-1.044329,-0.04002832,0.09020092,24.62715,-23.9871,17.88147,1008.559
24.533448219,9.233279,-2.383696,-20.71921,-0.9427179,-0.04596302,0.1895879,25.79495,-24.33994,18.32639,1008.559
24.568515777,6.772181,0.4713889,-16.55766,-1.017386,-0.01101728,0.09351777,26.90005,-24.69582,18.32543,1008.559
24.601079464,4.434138,-3.454353,-19.25043,-1.036219,-0.07237496,0.06601413,26.90005,-24.69582,18.32543,1008.559
24.633642673,5.172467,-5.357743,-20.71921,-1.093051,-0.07622893,0.1090307,27.62894,-24.32413,18.76651,1008.559
24.668711185,18.09323,-0.1829014,-23.71799,-1.013934,-0.1307387,0.1385755,27.98731,-23.58869,19.65225,1008.56
24.701274395,10.27925,1.958412,-28.61394,-1.179666,-0.3354509,-0.09930886,28.34731,-22.85068,20.98405,1008.56
24.733833313,42.95033,2.493741,-34.12188,-0.9988359,-0.3514293,0.08395603,28.34731,-22.85068,20.98405,1008.56
24.766397476,69.03797,10.1073,-49.48293,-1.008095,-0.3344711,-0.0371039,29.82214,-23.19873,21.87405,1008.562
24.801465034,97.15601,18.19671,-66.06797,-0.7794377,-0.440809,-0.04474745,29.83783,-23.54668,24.61682,1008.562
24.834028721,120.4749,39.49089,-81.00063,-0.8364145,-0.5298967,-0.06877032,29.83783,-23.54668,24.61682,1008.562
24.866591930,125.5202,70.3615,-89.62974,-0.7458169,-0.2205906,-0.3851011,28.36633,-22.44775,27.73624,1008.562
24.901660442,42.212,107.894,-91.52692,-0.7470015,0.2071666,-0.8266642,28.34147,-19.87746,31.79634,1008.562
24.934219837,-75.85919,128.5933,-95.62728,-0.8778261,0.287861,-0.5657336,28.34147,-19.87746,31.79634,1008.559
24.966783047,-170.4269,136.4448,-82.28581,-1.249234,-0.09816299,-0.5340443,28.29457,-15.78871,36.29163,1008.559
25.001851082,-178.3024,132.9949,-49.42173,-1.3794,-0.5422418,-0.5107243,28.94235,-9.580551,39.36736,1008.553
25.034414291,-128.4652,117.7083,-11.35571,-1.324152,-0.6858203,-0.3089831,28.94235,-9.580551,39.36736,1008.55
25.066978455,-56.66263,100.0425,3.638145,-1.20285,-0.6591277,-0.167547,30.00623,-6.21148,43.8643,1008.554
25.102046013,3.818863,87.13512,3.576946,-1.094719,-0.3931892,-0.09108756,29.25871,-4.748615,46.0866,1008.552
25.134605885,18.40087,73.63294,1.802163,-1.009346,-0.2384899,-0.09219345,29.25871,-4.748615,46.0866,1008.552
25.167169094,13.66326,58.40582,5.474127,-0.957243,-0.1005252,-0.0360007,29.60922,-3.280025,47.92298,1008.55
25.202237606,-24.29918,36.04099,14.47044,-0.9796407,-0.02340662,-0.06525527,28.52038,-3.644026,49.26737,1008.549
25.234800816,-55.06291,13.31927,26.09832,-0.8956661,-0.1704655,-0.08304797,28.52038,-3.644026,49.26737,1008.549
25.267363548,-44.91088,-7.380095,27.62831,-0.7041909,-0.2717365,-0.1355324,28.14986,-3.280279,49.71202,1008.547
25.299927712,-20.66906,-22.72618,29.0359,-0.5551504,-0.2466088,-0.2102163,27.80937,-4.733004,50.6158,1008.547
25.334991455,-3.872069,-33.13534,29.89269,-0.4987886,-0.2062259,-0.2715268,27.80937,-4.733004,50.6158,1008.547
25.367555142,6.464544,-36.76368,28.05671,-0.5239791,-0.1863989,-0.3214712,27.82479,-5.827019,50.17756,1008.549
25.400118351,14.52464,-41.87904,23.16075,-0.6735112,-0.1920795,-0.3557333,28.21977,-8.078203,48.40818,1008.545
25.435186863,18.15476,-48.71935,20.83518,-0.8623381,-0.1762462,-0.423949,28.21977,-8.078203,48.40818,1008.549
25.467750072,11.01758,-52.64509,22.30396,-0.9720684,-0.2096546,-0.4456213,28.59434,-8.808344,47.52007,1008.549
25.500313282,10.70994,-53.77523,23.16075,-1.016473,-0.2504351,-0.4756866,28.97133,-9.907461,45.74243,1008.549
25.535377502,10.70994,-51.75288,21.99796,-1.070373,-0.271867,-0.5126982,28.97133,-9.907461,45.74243,1008.549
25.600503921,15.38602,3.564398,-1.380205,-1.332843,-0.4175399,-1.394897,28.62083,-11.37605,43.90605,1008.55
25.633067608,-39.98869,-6.130995,-0.7070121,-0.9523329,-0.3044073,-0.3939146,28.62083,-11.37605,43.90605,1008.55
25.668135643,35.13634,5.170383,-11.6617,-0.7519262,-0.140278,-0.1102786,28.2584,-11.74509,43.46378,1008.549
25.700699329,-6.456223,4.872978,-6.276157,-0.7680888,-0.01920235,-0.168838,28.24704,-11.01747,43.45856,1008.549
25.733258247,-11.93217,-1.075115,-4.501375,-0.8465371,-0.1645524,-0.2792562,28.24704,-11.01747,43.45856,1008.55
25.768326759,6.156907,-1.550963,-5.358167,-0.916635,-0.243452,-0.4428068,27.50842,-10.65895,43.45832,1008.552
25.800889969,-10.02482,-2.026811,-3.338586,-1.031174,-0.2523583,-0.522106,27.50111,-10.29773,43.00964,1008.548
25.833453178,-10.39398,-0.599268,0.5781752,-0.9317677,-0.1518981,-0.4196435,27.50111,-10.29773,43.00964,1008.548
25.868521690,4.680247,-0.4803061,0.08858011,-0.8766376,-0.1337756,-0.2932589,27.50111,-10.29773,43.00964,1008.55
25.901084900,7.018291,1.125679,-1.686202,-0.9106318,-0.1971133,-0.3560646,27.49543,-9.933916,43.00703,1008.55
25.933644772,0.4963804,0.1145033,-1.931,-0.9389651,-0.1992187,-0.4015068,27.49543,-9.933916,43.00703,1008.55
25.968712330,1.23471,0.6498318,-0.7682115,-0.912877,-0.1728147,-0.3619756,26.75518,-9.577981,42.56072,1008.55
26.001276016,4.434138,0.9472365,-0.6458127,-0.8954979,-0.2060235,-0.3837676,27.48243,-9.208877,42.55573,1008.55
26.033839226,2.711369,0.7093127,-0.1562175,-0.8962858,-0.2220712,-0.3840117,27.48243,-9.208877,42.55573,1008.55
26.066402435,0.1887432,0.1739843,0.2109789,-0.8871071,-0.2156337,-0.3839223,27.49706,-9.931333,43.4531,1008.554
26.101470947,-2.026245,-0.6587489,-0.03381869,-0.8979857,-0.2031046,-0.3914547,27.12896,-9.936562,43.00822,1008.55
26.134030342,-1.287916,-0.6587489,-0.2174169,-0.8984913,-0.1992721,-0.3807615,27.12896,-9.936562,43.00822,1008.556
26.166594029,0.2502706,-0.4803061,-0.4010151,-0.9048474,-0.1969294,-0.3797528,27.13464,-10.30037,43.01083,1008.556
26.201661587,0.2502706,-0.3613442,-0.4622145,-0.9160496,-0.1956441,-0.3739219,27.49543,-9.933916,43.00703,1008.556
26.234225750,-0.3034765,0.1739843,-0.1562175,-0.9140797,-0.1966103,-0.3695881,26.75844,-9.572815,43.45287,1008.552
26.266788483,0.5579079,0.1739843,-0.2786163,-0.9048696,-0.1945109,-0.3772991,26.75844,-9.572815,43.45287,1008.556
26.301856995,0.06568827,0.5903508,-0.2786163,-0.911661,-0.1970249,-0.3782976,27.13059,-9.933979,43.45429,1008.556
26.334416390,-0.4880589,0.5903508,0.2109789,-0.9043689,-0.1954807,-0.3763476,27.12896,-9.936562,43.00822,1008.556
26.366979599,0.6809628,0.3524271,0.1497795,-0.8959631,-0.2074964,-0.3818561,27.12896,-9.936562,43.00822,1008.556
26.402048111,0.1272157,0.2929461,0.02738071,-0.8973866,-0.2104374,-0.3804495,27.12328,-9.572752,43.00561,1008.557
26.434610844,-0.6111138,-0.004458558,-0.2174169,-0.9048634,-0.1959488,-0.3816714,27.1176,-9.208941,43.00299,1008.557
26.467175007,-0.1188941,-0.1829014,-0.09501809,-0.9024346,-0.1973331,-0.390879,27.1176,-9.208941,43.00299,1008.559
26.499738216,0.6194354,-0.1829014,-0.2786163,-0.9032949,-0.2027853,-0.3701762,26.76249,-9.939209,43.00941,1008.559
26.534802437,-0.1188941,-0.1829014,-0.2174169,-0.9077046,-0.2023169,-0.3788655,27.48975,-9.570105,43.00442,1008.559
26.567365646,-0.241949,0.411908,-0.1562175,-0.910226,-0.1931538,-0.3705059,27.48975,-9.570105,43.00442,1008.559
26.599928856,-0.4880589,1.18516,-0.3398157,-0.9043123,-0.197011,-0.3604195,27.13059,-9.933979,43.45429,1008.559
26.634997368,-2.64152,1.601527,-0.09501809,-0.9175469,-0.1946452,-0.3840561,27.12328,-9.572752,43.00561,1008.559
26.667560577,-2.703047,1.958412,-0.1562175,-0.91135,-0.1833802,-0.3853404,27.12328,-9.572752,43.00561,1008.559
26.700124264,-1.90319,1.77997,-0.5846133,-0.8980533,-0.1972737,-0.3913657,27.12165,-9.575335,42.55954,1008.559
26.735188007,2.342204,1.125679,-1.808601,-0.8920804,-0.2083734,-0.3915408,26.75844,-9.572815,43.45287,1008.559
26.767751694,3.203589,1.125679,-1.808601,-0.9061906,-0.2081024,-0.3847558,26.75844,-9.572815,43.45287,1008.559
26.800314903,-0.3034765,1.066198,-2.053399,-0.9082406,-0.2003313,-0.389469,27.48569,-9.203711,43.44788,1008.559
26.835383415,-2.64152,-0.1829014,-2.665393,-0.8950453,-0.2021496,-0.3793586,26.75681,-9.575398,43.00679,1008.559
26.867946625,-3.133739,-0.3613442,-2.359396,-0.887246,-0.2053923,-0.3919834,26.75681,-9.575398,43.00679,1008.559
26.900509834,-3.072212,-0.9561536,-1.502604,-0.8968713,-0.2171415,-0.4008541,26.75844,-9.572815,43.45287,1008.557
26.933073521,-1.964718,-1.253558,-0.4010151,-0.8826255,-0.2243185,-0.3850259,27.13385,-9.928813,44.34643,1008.557
26.968137264,-1.65708,-2.145772,-0.2174169,-0.8753259,-0.2223126,-0.3777517,27.13385,-9.928813,44.34643,1008.559
27.000700951,-1.164861,-2.145772,-0.2786163,-0.862184,-0.2216552,-0.3777544,26.01981,-9.214298,43.45263,1008.559
27.033264160,-3.441377,-2.859544,2.169359,-0.9280398,-0.1776443,-0.4118225,27.12086,-9.203774,43.89514,1008.559
27.068332672,-8.609684,-3.454353,4.433737,-0.973745,-0.1826451,-0.4050874,27.12086,-9.203774,43.89514,1008.557
27.100895882,-11.00925,-4.52501,6.881713,-0.9288405,-0.1794004,-0.3490095,26.75681,-9.575398,43.00679,1008.556
27.168523312,-11.80911,-10.23518,7.860903,-0.9174843,-0.2822168,-0.5768094,26.01655,-9.219464,42.56049,1008.556
27.201086521,-13.22424,-18.9194,9.329689,-1.077685,-0.2605334,-0.4612803,26.75596,-9.949541,41.22512,1008.556
27.233650684,-24.54529,-20.94175,11.41047,-0.869642,-0.1140923,-0.3263183,26.00434,-8.865986,40.77359,1008.556
27.268718243,-6.27164,-24.51061,13.36885,-0.9401323,-0.1470921,-0.4316466,26.00434,-8.865986,40.77359,1008.556
27.301281452,2.957479,-26.7114,17.10201,-0.9221857,-0.2032153,-0.3300442,24.91117,-9.609665,39.38044,1008.556
27.333845139,-2.518465,-27.6631,21.81437,-0.9083378,-0.180178,-0.3330897,24.11063,-9.625731,37.59873,1008.556
27.366404533,-3.749014,-29.15012,27.13871,-0.9257828,-0.1525562,-0.3650377,24.11063,-9.625731,37.59873,1008.556
27.401473045,-11.31689,-29.80441,30.19868,-0.9321539,-0.1359176,-0.3019388,24.90707,-9.988974,36.70662,1008.556
27.434035778,-16.85436,-31.23195,31.54507,-0.958353,-0.0946374,-0.2635803,23.74955,-10.73826,34.42152,1008.556
27.466598987,-30.88262,-25.40282,32.95266,-1.012884,-0.09440972,-0.2562735,23.74955,-10.73826,34.42152,1008.556
27.501667499,-25.2221,-19.69265,31.05548,-0.9587958,-0.006371393,-0.2235631,22.65661,-11.48157,33.09209,1008.556
27.534230709,-31.31331,-12.6739,29.58669,-0.9542602,-0.04839228,-0.161853,22.29661,-12.21959,31.76029,1008.556
27.566790581,-25.65279,-7.380095,23.40555,-0.9329347,0.0408981,-0.1774295,22.29661,-12.21959,31.76029,1008.554
27.601858139,-17.40811,-5.655148,13.91964,-0.96359,0.1164445,-0.20525,21.57419,-13.32665,29.98621,1008.556
27.634422302,-8.855794,-1.96733,8.595296,-0.982047,0.07241664,-0.1952695,20.83393,-12.97071,29.53991,1008.557
27.666985512,-1.964718,2.43426,3.821743,-0.9534305,0.08488846,-0.1839892,20.83393,-12.97071,29.53991,1008.557
27.702053547,5.787742,4.575573,-0.3398157,-0.9789789,0.05791922,-0.2046778,21.94121,-13.69593,28.58569,1008.556
27.734616756,7.079818,6.24104,-1.931,-0.9746619,0.01677323,-0.2285118,20.84585,-14.07026,28.1458,1008.556
27.767176151,4.495665,9.155607,-3.154988,-1.003251,-0.0005049384,-0.2514665,20.84585,-14.07026,28.1458,1008.556
27.799739838,-1.595553,10.70211,-2.726592,-0.9921643,-0.02863368,-0.2330547,20.4737,-13.7091,28.14437,1008.556
27.834807873,-5.225673,14.74681,-1.013009,-0.9593993,-0.001408767,-0.2476557,19.72535,-12.62038,28.58499,1008.556
27.867371559,-5.041091,14.68733,1.006571,-0.9697223,-0.0008891813,-0.2843744,19.7402,-13.34246,29.54609,1008.554
27.899934769,-0.9187511,17.36398,-1.380205,-0.9602871,-0.07001156,-0.3400596,19.7402,-13.34246,29.54609,1008.554
27.935003281,10.4023,26.643,-5.052169,-0.8791077,-0.07107302,-0.407827,19.73452,-12.97865,29.54347,1008.554
27.967562199,7.325928,29.61705,-9.213729,-0.9308822,0.09621245,-0.4699973,19.37131,-12.97613,30.43681,1008.552
28.000125408,-4.179707,40.97791,-20.47442,-0.8559306,-0.07659277,-0.5162098,19.37131,-12.97613,30.43681,1008.552
28.035193920,15.3245,54.83697,-40.48662,-0.8374375,-0.3233728,-0.701259,19.36889,-12.60716,31.32634,1008.55
28.067757130,39.19715,62.45052,-63.43639,-0.8082526,-0.4834683,-0.6814944,19.36,-11.50281,33.54886,1008.549
28.100320816,52.85625,60.30922,-82.10221,-0.913023,-0.4005644,-0.5104632,19.36,-11.50281,33.54886,1008.547
28.135388374,47.31878,58.76271,-90.36413,-1.02944,-0.3886963,-0.461832,18.96457,-9.314473,34.93633,1008.547
28.167948246,36.1823,49.48368,-93.2405,-1.049967,-0.416831,-0.4259882,19.27739,-5.233775,37.58241,1008.547
28.200511456,42.51963,38.00386,-86.56977,-1.054327,-0.3660944,-0.373972,19.27739,-5.233775,37.58241,1008.547
28.233074665,47.50336,28.78432,-75.67628,-0.9367844,-0.2756055,-0.2711958,19.22952,-1.954313,38.45105,1008.547
28.268143177,39.01257,18.96996,-63.37519,-0.8188689,-0.1335911,-0.169084,19.18002,1.322567,38.87363,1008.547
28.300706387,13.23256,5.705711,-47.95295,-0.9103135,-0.04328696,-0.0902777,19.18002,1.322567,38.87363,1008.545
28.333270073,-16.66978,-8.391271,-33.08149,-0.8161629,-0.05806789,-0.09687798,18.78178,3.568586,39.75086,1008.545
28.368333817,-4.364289,-21.17967,-18.21004,-0.6735377,-0.05326338,-0.1032262,18.02043,5.382346,39.74018,1008.545
28.400897980,-8.302047,-29.80441,-8.479336,-0.6526231,-0.05580031,-0.1264872,18.02043,5.382346,39.74018,1008.545
28.433460713,-6.886915,-34.02755,0.2721783,-0.6013456,-0.02787457,-0.1352948,17.63202,6.463382,38.39532,1008.544
28.468529224,7.202873,12.12965,-19.43403,-0.5300907,-0.6411222,-0.8045289,17.24603,7.175443,36.16093,1008.544
28.501092434,-6.210113,54.1232,-72.12671,-2.435679,-2.04899,-3.284557,17.24603,7.175443,36.16093,1008.545
28.533655643,16.43199,-5.655148,5.351728,-0.7172932,0.2882014,0.5599014,16.50875,6.790471,33.42576,1008.545
28.568720341,65.34632,1.898932,13.18525,-0.8039085,-0.2205498,-0.2409981,15.01446,8.598936,33.41746,1008.55
28.601283073,3.572753,-12.91182,-5.541765,-0.7161688,-0.4419907,-0.6678993,15.01446,8.598936,33.41746,1008.55
28.633847237,-11.93217,-13.86352,-10.00932,-0.6612101,-0.5327235,-0.3324229,15.01852,8.232544,32.974,1008.551
28.666410446,21.35419,-5.595667,-8.356936,-0.8258986,-0.4325947,-0.4849336,14.65368,8.232479,33.42126,1008.551
28.701478481,20.00059,-5.595667,-4.072979,-0.8188829,-0.5112333,-0.3797972,14.65368,8.232479,33.42126,1008.551
28.734041691,11.50979,-5.536186,-3.154988,-0.7735895,-0.5025713,-0.3381383,15.38499,8.235189,32.97281,1008.551
28.766601086,7.079818,-2.62162,-4.562574,-0.7450775,-0.5302803,-0.3617907,15.01525,8.227377,32.08185,1008.551
28.801669598,14.217,4.040245,-2.420595,-0.7320945,-0.4842051,-0.4099214,15.01525,8.227377,32.08185,1008.551
28.834232807,11.63285,5.943635,-0.5846133,-0.791069,-0.4820206,-0.4180485,15.00552,8.957582,32.5227,1008.551
28.866796493,7.51051,5.110902,0.8229728,-0.7916654,-0.4666075,-0.3892936,15.3793,8.599001,32.9702,1008.551
28.901864052,2.957479,3.504917,1.006571,-0.7878446,-0.4621396,-0.3988966,15.3793,8.599001,32.9702,1008.55
28.934428215,4.987885,3.08855,0.5781752,-0.7909364,-0.494153,-0.4216173,15.01283,8.596354,32.97139,1008.55
28.966987133,10.09466,3.148031,0.08858011,-0.7662323,-0.5192192,-0.3964047,15.38662,8.237774,33.41888,1008.548
29.002055645,24.0614,5.646231,1.863363,-0.7995741,-0.5082926,-0.4363261,15.38662,8.237774,33.41888,1008.548
29.034618855,31.99844,7.371178,2.964952,-0.7829286,-0.5077645,-0.3981473,15.0161,8.601519,33.86353,1008.548
29.067182064,36.67453,7.311697,3.209749,-0.7602072,-0.4938474,-0.4008572,15.38093,8.601583,33.41627,1008.546
29.099745750,32.24455,6.89533,2.169359,-0.7581887,-0.4987075,-0.3951327,15.38093,8.601583,33.41627,1008.55
29.134813309,21.04655,2.969588,-0.2174169,-0.7394869,-0.5116692,-0.3769802,15.75067,8.609398,34.30723,1008.549
29.167373180,7.75662,-0.004458558,-0.5234139,-0.755354,-0.4899494,-0.3892013,15.38825,8.240356,33.86495,1008.549
29.199936390,-3.133739,-0.8371917,-1.196607,-0.7380537,-0.5177824,-0.4176785,15.38825,8.240356,33.86495,1008.549
29.235004902,-7.871354,-2.62162,3.332148,-0.7723746,-0.4275428,-0.4805578,15.74335,8.970625,33.85854,1008.549
29.267568111,-49.46391,-7.08269,-0.8294109,-0.9088455,-0.4969913,-0.4558666,16.13036,7.887374,34.82106,1008.549
29.300131321,-27.2525,-4.049162,8.717695,-0.815685,-0.6841249,-0.2930132,16.13036,7.887374,34.82106,1008.547
29.335199833,-34.51274,-5.298262,13.73604,-0.769416,-0.2802989,-0.3618204,15.74741,8.604231,33.41508,1008.545
29.367758751,-59.0622,-5.655148,16.73482,-0.7953497,-0.235754,-0.3988192,15.74741,8.604231,33.41508,1008.545
29.400322437,-64.41508,-4.52501,20.10078,-0.8421436,-0.298527,-0.5152587,16.13255,7.51803,33.86779,1008.545
29.435390473,-67.7991,-1.729406,23.83395,-0.8314623,-0.3814509,-0.5252349,16.13255,7.51803,33.86779,1008.547
29.467954159,-67.7991,-1.729406,23.34435,-0.7826716,-0.373382,-0.4502355,16.52175,6.065433,33.87705,1008.545
29.500517368,-44.84935,-3.335391,16.97961,-0.7665866,-0.4829013,-0.3682978,15.44669,4.604832,34.33714,1008.545
29.533080578,-9.040376,-3.335391,3.638145,-0.7211202,-0.7025714,-0.3470408,15.44669,4.604832,34.33714,1008.545
29.568144798,10.64841,0.1145033,-7.806142,-0.6602939,-0.7719811,-0.2998208,15.45074,4.238439,33.89367,1008.543
29.600708961,5.972324,1.066198,-9.886922,-0.7007576,-0.4926747,-0.3815616,16.17069,4.968771,33.44,1008.545
29.633272171,41.90436,3.802321,-5.419366,-1.04246,-0.4106142,-0.9131445,16.17069,4.968771,33.44,1008.547
29.668340683,40.55075,5.884154,-1.319006,-0.7048413,-0.4325104,-0.3709722,15.44343,4.599666,33.44499,1008.547
29.700903416,36.67453,9.393531,5.718925,-0.8430099,-0.2996873,-0.4766055,15.43719,5.335405,34.84171,1008.547
29.733466625,-4.179707,-0.2423823,4.18894,-0.8938048,-0.2335386,-0.4199589,15.43719,5.335405,34.84171,1008.549
29.768531322,-13.47035,-0.6587489,2.964952,-0.7963153,-0.4243778,-0.4969212,15.43938,4.96606,33.88845,1008.549
29.801094532,1.357765,1.77997,2.720154,-0.8337556,-0.4050461,-0.5797309,15.06723,5.327224,33.88703,1008.55
29.833658218,9.725498,1.244641,0.8229728,-0.8462298,-0.3575701,-0.4755519,15.06723,5.327224,33.88703,1008.549
29.868725777,1.542347,-0.599268,1.924562,-0.817953,-0.2950143,-0.3644149,15.44124,4.969012,34.39825,1008.549
29.901289940,-18.5156,-1.194077,3.638145,-0.8214015,-0.2394504,-0.5148609,15.80017,5.332517,33.88465,1008.549
29.933853149,-22.14572,-1.253558,6.636915,-0.8294281,-0.2884743,-0.4455114,15.80017,5.332517,33.88465,1008.549
29.966412067,-29.40596,-2.324215,6.759314,-0.8053016,-0.3561308,-0.4610682,15.44343,4.599666,33.44499,1008.55
30.001480579,-20.9767,-2.264734,5.596526,-0.7930608,-0.4406429,-0.4382005,15.45829,3.87758,34.40609,1008.552
30.034043789,-15.07007,-1.015635,6.269719,-0.8041553,-0.3802136,-0.505424,15.45829,3.87758,34.40609,1008.552
30.066607475,-18.88477,-2.086292,5.902523,-0.8033993,-0.2743281,-0.4888246,15.45642,3.874629,33.89629,1008.552
30.101675510,-21.22281,-3.632796,4.12774,-0.7570433,-0.3536926,-0.4315916,15.45642,3.874629,33.89629,1008.552
30.134239197,-1.595553,-2.086292,2.475357,-0.7455885,-0.5302427,-0.3714572,15.45642,3.874629,33.89629,1008.55
30.166798115,18.70851,-0.8966727,-1.441405,-0.7369674,-0.4780793,-0.3817873,15.83021,3.516046,34.34378,1008.552
30.201866627,0.1887432,-1.788887,-3.889381,-0.8018234,-0.3172688,-0.4469441,15.82694,3.51088,33.45163,1008.552
30.234429836,3.634281,-2.086292,-1.013009,-0.9155012,-0.3269079,-0.5760431,15.82694,3.51088,33.45163,1008.554
30.266993046,4.249555,-1.432001,2.414157,-0.8554542,-0.2827052,-0.5058203,15.45479,3.872045,33.45021,1008.554
30.302061558,-0.8572236,-1.253558,3.454547,-0.8163797,-0.3849802,-0.3483874,15.46047,3.508234,33.45282,1008.556
30.334624767,-25.40668,-6.547362,4.311338,-0.8401238,-0.3893639,-0.5200302,15.46047,3.508234,33.45282,1008.554
30.367184639,-27.6832,-8.569713,6.208519,-0.8110983,-0.3235305,-0.4857008,15.45884,3.505651,33.00675,1008.554
30.399747372,-24.29918,-7.796461,6.759314,-0.8060959,-0.319905,-0.4141106,15.46047,3.508234,33.45282,1008.554
30.434815884,-13.03966,-3.394872,5.045731,-0.754738,-0.2774376,-0.5203385,15.46047,3.508234,33.45282,1008.556
30.467379093,-6.76386,-0.8966727,0.9453717,-0.8297157,-0.2698756,-0.4747134,15.08669,3.866816,33.00533,1008.556
30.500258446,7.141346,2.910107,-1.686202,-0.843159,-0.2780126,-0.4342209,15.09237,3.503005,33.00794,1008.557
30.535326958,12.12507,3.08855,-4.134179,-0.8497857,-0.3112666,-0.5144789,15.09237,3.503005,33.00794,1008.557
30.567885876,16.55505,3.504917,-4.440176,-0.8139086,-0.321394,-0.4295938,15.10468,2.714748,33.0136,1008.553
30.600449562,17.3549,2.493741,-3.277387,-0.8339432,-0.317246,-0.4372452,15.09805,3.139194,33.01055,1008.559
30.635517597,9.540916,1.006717,-2.359396,-0.8446199,-0.3355249,-0.5090535,15.09805,3.139194,33.01055,1008.561
30.668081283,5.233994,-0.004458558,0.08858011,-0.81464,-0.3437277,-0.4367011,15.46452,3.14184,33.00937,1008.557
30.700644493,3.511226,1.006717,0.3333777,-0.8114104,-0.3324172,-0.4563501,15.09237,3.503005,33.00794,1008.557
30.735713005,-0.4265314,1.304122,1.006571,-0.8334748,-0.3252913,-0.4832892,15.09237,3.503005,33.00794,1008.558
30.768271923,-1.841663,0.6498318,0.700574,-0.8212357,-0.3290572,-0.475141,14.72916,3.505523,33.90127,1008.558
30.800835133,-1.595553,1.244641,-0.09501809,-0.8151052,-0.361847,-0.5143173,15.83357,3.086435,33.45468,1008.558
30.833399296,-1.595553,2.136855,0.08858011,-0.8566194,-0.3108498,-0.5188164,15.83357,3.086435,33.45468,1008.56
30.868466854,-5.964003,2.017893,0.3333777,-0.8216808,-0.3234326,-0.4310676,14.73158,3.136547,33.01174,1008.56
30.901030540,-3.010684,0.4713889,1.434967,-0.7958378,-0.2808859,-0.4149753,15.46547,3.081206,33.0098,1008.56
30.933593750,-0.7341687,0.2929461,0.5169758,-0.805338,-0.3080832,-0.4463172,15.46547,3.081206,33.0098,1008.562
30.968658447,-1.90319,-0.004458558,0.4557765,-0.7989919,-0.3018465,-0.4104583,15.46452,3.14184,33.00937,1008.564
31.001221657,3.326644,-1.015635,0.8841722,-0.7808951,-0.3027086,-0.3829364,14.73984,2.714683,33.46086,1008.564
31.033784390,8.064257,3.326474,0.1497795,-0.9138538,-0.3709859,-0.710129,15.094,3.505587,33.45401,1008.564
31.068852901,4.37261,-1.37252,0.4557765,-0.7973663,-0.3263846,-0.4601386,15.094,3.505587,33.45401,1008.565
31.101416111,0.6194354,-0.1234204,-1.563804,-0.8138674,-0.3347863,-0.4766857,15.094,3.505587,33.45401,1008.565
31.133979797,0.2502706,0.2334652,-0.9518097,-0.8334739,-0.3210126,-0.4624387,15.09805,3.139194,33.01055,1008.57
31.169044018,3.388171,0.6498318,-0.03381869,-0.8089706,-0.3366752,-0.4747857,15.09805,3.139194,33.01055,1008.57
31.201607704,0.9886001,0.5903508,-0.8294109,-0.824723,-0.3175431,-0.4522433,14.73416,3.078495,33.45825,1008.57
31.234170914,0.1272157,0.3524271,-0.2174169,-0.8275881,-0.3267212,-0.4726824,15.46873,3.086372,33.90194,1008.57
31.266734600,1.23471,0.5308699,-0.03381869,-0.8231165,-0.3372903,-0.4868659,15.46873,3.086372,33.90194,1008.565
31.301802635,0.3733255,-0.0639395,-0.03381869,-0.8032814,-0.3092077,-0.4071828,14.73158,3.136547,33.01174,1008.57
31.334365368,-0.6726412,0.4713889,0.8229728,-0.8077381,-0.3100806,-0.4415116,14.72753,3.50294,33.4552,1008.57
31.366925240,0.5579079,-0.1829014,0.9453717,-0.8105406,-0.317946,-0.4300278,14.72753,3.50294,33.4552,1008.57
31.401993275,4.557192,1.363603,0.8229728,-0.8262824,-0.3202358,-0.5054544,15.47278,2.719977,33.45848,1008.57
31.434556961,5.418577,0.7687936,0.4557765,-0.8205432,-0.3417921,-0.4516506,15.46547,3.081206,33.0098,1008.57
31.467120170,0.6194354,0.6498318,-0.09501809,-0.8183035,-0.3309408,-0.4800064,15.46547,3.081206,33.0098,1008.568
31.502188682,-0.4265314,0.1145033,-0.4010151,-0.8207353,-0.3319289,-0.4834028,14.73321,3.139129,33.45781,1008.568
31.534751892,-0.6726412,0.6498318,-0.4010151,-0.8222113,-0.3266887,-0.4644697,15.10063,3.081142,33.45706,1008.566
31.567311764,-1.287916,0.1739843,-1.013009,-0.8150102,-0.3696303,-0.5125027,15.10063,3.081142,33.45706,1008.566
31.602379322,0.7424903,1.661008,-1.563804,-0.8504161,-0.3413947,-0.5173549,15.46547,3.081206,33.0098,1008.566
31.634943008,-5.656365,0.1145033,-0.03381869,-0.8230441,-0.3250566,-0.3987047,15.10063,3.081142,33.45706,1008.566
31.667506218,-0.7956961,0.5308699,0.4557765,-0.7961971,-0.3006256,-0.4568465,15.10063,3.081142,33.45706,1008.566
31.700069427,0.6194354,-0.004458558,0.02738071,-0.8075104,-0.3252405,-0.4204745,14.7294,3.505892,33.965,1008.566
31.735137939,1.603875,0.2929461,0.3945771,-0.8144243,-0.3256285,-0.4615608,15.46615,3.144423,33.45544,1008.564
31.767696857,4.249555,-0.004458558,0.6393746,-0.8081984,-0.3129892,-0.4444558,15.46615,3.144423,33.45544,1008.564
31.800261021,4.1265,0.5308699,-1.196607,-0.8697623,-0.3941508,-0.5142741,14.74147,2.717267,33.90693,1008.563
31.835328579,3.142061,-0.3018633,0.02738071,-0.8043478,-0.313332,-0.4647666,14.72753,3.50294,33.4552,1008.563
31.867892265,2.157622,0.4713889,-0.2786163,-0.8171964,-0.3406836,-0.4719387,14.72753,3.50294,33.4552,1008.561
31.900455475,-0.241949,-0.3613442,0.2109789,-0.8192191,-0.332011,-0.4611701,15.46476,3.14221,33.07309,1008.561
31.935523987,0.4963804,0.1145033,0.2721783,-0.8148047,-0.3372439,-0.4733387,14.73158,3.136547,33.01174,1008.561
31.968083382,0.3733255,-0.004458558,0.08858011,-0.8211867,-0.3296222,-0.4577481,14.73158,3.136547,33.01174,1008.561
32.000646591,-1.164861,-0.3613442,-0.09501809,-0.8187593,-0.3343331,-0.4834414,15.09968,3.141777,33.45662,1008.563
32.035714626,-1.410971,0.05502238,-0.2786163,-0.8153333,-0.3381253,-0.4946202,15.08264,4.233209,33.44879,1008.561
32.068277836,0.8040177,0.7093127,-0.9518097,-0.8465059,-0.3442242,-0.5251359,15.08264,4.233209,33.44879,1008.561
32.100841999,-3.441377,0.05502238,-0.2174169,-0.8083729,-0.3321152,-0.4075274,15.45884,3.505651,33.00675,1008.559
32.133404732,-1.964718,0.5903508,0.7617734,-0.796611,-0.3088506,-0.4661558,15.09968,3.141777,33.45662,1008.557
32.168469429,-1.103333,0.5903508,0.5169758,-0.8099207,-0.331024,-0.437962,15.09968,3.141777,33.45662,1008.559
32.201032639,-0.8572236,0.2929461,0.5781752,-0.8222139,-0.3285862,-0.4746495,15.10226,3.083725,33.90313,1008.557
32.233595848,0.3117981,-0.2423823,0.08858011,-0.8295349,-0.3300776,-0.4881998,14.73984,2.714683,33.46086,1008.557
32.268664360,0.1272157,-0.1829014,-0.09501809,-0.8163405,-0.3299919,-0.4693595,14.73984,2.714683,33.46086,1008.557
32.301227093,0.1272157,-0.0639395,-0.09501809,-0.8134667,-0.327964,-0.4794823,15.10063,3.081142,33.45706,1008.557
32.333791256,-0.7956961,0.1145033,-0.1562175,-0.8163046,-0.3333866,-0.4708615,15.094,3.505587,33.45401,1008.559
32.368855000,-0.1188941,0.2334652,-0.03381869,-0.8138962,-0.3299777,-0.4654947,15.10063,3.081142,33.45706,1008.559
32.401418686,-0.241949,0.05502238,-0.09501809,-0.8158808,-0.3294601,-0.4780526,15.10063,3.081142,33.45706,1008.559
32.433981896,0.434853,0.1739843,-0.09501809,-0.8139868,-0.3212511,-0.461011,15.09563,3.508171,33.90009,1008.557
32.466545105,0.1272157,0.05502238,-0.2174169,-0.817345,-0.3289976,-0.4770774,15.09563,3.508171,33.90009,1008.557
32.501613617,0.2502706,-0.2423823,0.2109789,-0.8129665,-0.3265549,-0.4673769,15.83925,2.722623,33.45729,1008.559
32.534176826,1.111655,0.05502238,0.2109789,-0.8125538,-0.3183276,-0.4585509,15.10063,3.081142,33.45706,1008.559
32.566736221,2.403732,0.05502238,0.2109789,-0.8149563,-0.3203206,-0.454712,14.35943,3.497711,33.01032,1008.559
32.601804256,3.818863,-0.004458558,0.08858011,-0.8159218,-0.3203487,-0.4513279,14.35943,3.497711,33.01032,1008.561
32.634367943,3.142061,0.7687936,-0.6458127,-0.850459,-0.3845415,-0.5412152,15.094,3.505587,33.45401,1008.561
32.666931152,2.772897,-0.1829014,-0.1562175,-0.8049128,-0.3431038,-0.4391179,15.094,3.505587,33.45401,1008.561
32.701999664,1.665402,0.3524271,-0.2174169,-0.825644,-0.3266892,-0.4741339,15.094,3.505587,33.45401,1008.561
32.734562874,0.8040177,-0.004458558,0.1497795,-0.8152534,-0.3392224,-0.4670845,15.09563,3.508171,33.90009,1008.561
32.767121792,0.3733255,0.1145033,0.08858011,-0.8153105,-0.3367402,-0.4786477,15.09968,3.141777,33.45662,1008.561
32.802190304,-0.9802784,-0.3613442,0.02738071,-0.8158029,-0.3329318,-0.4626376,15.09968,3.141777,33.45662,1008.559
32.834753513,-1.287916,-0.3018633,0.1497795,-0.8191764,-0.3373208,-0.4689852,15.47278,2.719977,33.45848,1008.559
32.867317200,-1.164861,-0.1829014,0.08858011,-0.8148854,-0.326633,-0.4557751,15.10631,2.71733,33.45967,1008.559
32.899880409,0.1887432,0.05502238,0.08858011,-0.8173185,-0.3290459,-0.4664439,15.10631,2.71733,33.45967,1008.559
32.934948921,0.434853,-0.004458558,-0.2174169,-0.8148998,-0.3280336,-0.4683643,15.10063,3.081142,33.45706,1008.559
32.967508316,0.8655452,0.05502238,-0.09501809,-0.8177639,-0.332933,-0.4679529,15.09968,3.141777,33.45662,1008.559
33.000071526,0.5579079,-0.1234204,-0.1562175,-0.818698,-0.3344452,-0.4587909,15.09968,3.141777,33.45662,1008.559
33.035139561,0.434853,-0.0639395,0.08858011,-0.817279,-0.3324473,-0.4664958,14.36674,3.136483,33.459,1008.559
33.067703724,-0.1188941,0.1145033,0.1497795,-0.8191676,-0.3368613,-0.4631777,15.09237,3.503005,33.00794,1008.559
33.100266933,-0.4265314,0.1739843,0.02738071,-0.8143908,-0.3290188,-0.4640294,15.09237,3.503005,33.00794,1008.559
33.135334969,0.1887432,0.1145033,-0.09501809,-0.8148805,-0.3294957,-0.4674199,14.74389,2.34829,33.0174,1008.563
33.167894363,0.1887432,0.05502238,0.02738071,-0.816303,-0.3329139,-0.467954,15.08832,3.869399,33.4514,1008.565
33.200457573,0.3117981,0.2334652,-0.3398157,-0.8138374,-0.3334142,-0.4578131,15.08832,3.869399,33.4514,1008.567
33.235526085,-0.1804216,0.3524271,-0.2174169,-0.8503482,-0.336287,-0.4650724,14.73321,3.139129,33.45781,1008.567
33.268089294,1.357765,1.006717,0.5781752,-0.7988839,-0.3205926,-0.4556984,15.45074,4.238439,33.89367,1008.567
33.300652981,1.357765,1.18516,-1.135408,-0.8100154,-0.3318024,-0.480511,15.45074,4.238439,33.89367,1008.561
33.333216190,1.48082,0.8877555,-1.502604,-0.8207186,-0.3305327,-0.469847,15.46452,3.14184,33.00937,1008.565
33.368280411,1.357765,0.2929461,-0.2174169,-0.814657,-0.3498797,-0.4730482,14.73321,3.139129,33.45781,1008.559
33.400843620,-0.3650039,-0.4803061,0.3945771,-0.8055547,-0.3380709,-0.4786774,14.73321,3.139129,33.45781,1008.559
33.433406830,-0.4265314,-1.075115,0.9453717,-0.818604,-0.3450802,-0.4710377,14.7259,3.500357,33.00913,1008.565
33.468475342,-1.90319,-1.313039,1.679765,-0.8152965,-0.3358145,-0.4684826,14.73416,3.078495,33.45825,1008.561
33.501038551,-1.595553,-1.253558,1.312568,-0.8183362,-0.3266006,-0.4726895,14.73416,3.078495,33.45825,1008.561
33.533602238,-0.3034765,-1.015635,0.7617734,-0.8182609,-0.3319697,-0.4674543,15.4671,3.083788,33.45587,1008.561
33.568665981,-0.3034765,-0.4803061,-0.1562175,-0.8192602,-0.3276554,-0.4572366,15.094,3.505587,33.45401,1008.561
33.601229668,0.8655452,0.05502238,-0.5234139,-0.8188067,-0.3256856,-0.4615574,15.094,3.505587,33.45401,1008.561
33.633792877,1.603875,0.1739843,-1.013009,-0.8153046,-0.3338972,-0.4626528,15.47115,2.717394,33.01241,1008.561
33.668861389,1.111655,0.1145033,-1.013009,-0.8162507,-0.3368144,-0.4651133,14.72753,3.50294,33.4552,1008.563
33.701424599,0.9270726,1.066198,-0.8294109,-0.8211513,-0.3320649,-0.4548852,14.72753,3.50294,33.4552,1008.563
33.733987808,0.8040177,1.244641,-0.7682115,-0.8137516,-0.342132,-0.4642301,15.09968,3.141777,33.45662,1008.563
33.766547680,0.434853,1.363603,-0.8294109,-0.8187771,-0.3309713,-0.4746893,15.45479,3.872045,33.45021,1008.563
33.801615238,0.2502706,0.7093127,-0.3398157,-0.8196085,-0.344086,-0.4787556,15.45479,3.872045,33.45021,1008.563
33.834179401,-1.041806,-0.3018633,0.3333777,-0.8171405,-0.3445906,-0.467648,15.4621,3.510817,33.8989,1008.564
33.866742134,-0.9187511,-0.4208252,0.6393746,-0.8182685,-0.3310045,-0.4659895,14.73321,3.139129,33.45781,1008.563
33.901810646,-0.3034765,-0.3018633,0.6393746,-0.8163006,-0.3329183,-0.4669873,14.73321,3.139129,33.45781,1008.563
33.934373856,0.06568827,-0.3018633,0.1497795,-0.8211609,-0.3349013,-0.47233,15.09968,3.141777,33.45662,1008.567
33.966933250,0.3117981,-0.599268,0.2109789,-0.8182226,-0.3367958,-0.4747787,15.09237,3.503005,33.00794,1008.567
34.002001762,-0.05736665,-0.7182298,0.08858011,-0.8089647,-0.3352592,-0.46558,15.09805,3.139194,33.01055,1008.567
34.034564495,-0.241949,-0.539787,0.02738071,-0.8245341,-0.3359615,-0.4626754,15.09805,3.139194,33.01055,1008.569
34.067128658,-0.3650039,-0.1234204,0.2109789,-0.8196956,-0.333939,-0.4660329,15.08832,3.869399,33.4514,1008.569
34.102196217,-0.7956961,-0.1829014,-0.03381869,-0.8172286,-0.3372954,-0.4689867,15.10226,3.083725,33.90313,1008.567
34.134759903,-0.7341687,-0.1829014,0.08858011,-0.8216342,-0.33303,-0.4577997,15.10226,3.083725,33.90313,1008.567
34.167319298,0.434853,0.2334652,-0.3398157,-0.8217372,-0.3261833,-0.4673627,14.72022,3.864169,33.00652,1008.567
34.199882984,0.8655452,0.2929461,-0.8294109,-0.8191929,-0.3353882,-0.4665389,14.72753,3.50294,33.4552,1008.567
34.234951019,0.9270726,0.2334652,-0.7682115,-0.8176942,-0.3392432,-0.4694994,14.72753,3.50294,33.4552,1008.569
34.267514706,0.5579079,0.2334652,-0.7682115,-0.8186794,-0.3368571,-0.4626947,15.46547,3.081206,33.0098,1008.569
34.300077915,0.434853,0.411908,-0.5846133,-0.8210864,-0.3397933,-0.4651541,15.09968,3.141777,33.45662,1008.567
34.335146427,0.4963804,0.3524271,-0.2786163,-0.8215877,-0.3397733,-0.4709538,15.09968,3.141777,33.45662,1008.567
34.367705345,0.004160807,0.1145033,0.08858011,-0.8127346,-0.3455273,-0.4628327,14.73321,3.139129,33.45781,1008.569
34.400268555,-0.7956961,-0.004458558,0.5169758,-0.817664,-0.342152,-0.4709939,15.09019,3.872351,33.9612,1008.569
34.435337067,-0.9187511,0.1739843,0.4557765,-0.831013,-0.3215041,-0.4542312,15.09019,3.872351,33.9612,1008.569
34.467900276,0.5579079,1.482565,0.08858011,-0.7945223,-0.3209729,-0.4663427,15.83762,2.720041,33.01122,1008.57
34.500463962,-0.6111138,0.7687936,-0.09501809,-0.8393558,-0.3618654,-0.4732072,14.73821,2.712101,33.01479,1008.572
34.535531998,-1.164861,-1.075115,0.3945771,-0.8109772,-0.3332641,-0.4824658,14.73821,2.712101,33.01479,1008.572
34.568091392,0.4963804,-1.075115,0.2721783,-0.8162246,-0.3373377,-0.4569039,15.10468,2.714748,33.0136,1008.574
34.600654602,-0.9187511,-0.7182298,1.190169,-0.818126,-0.3426795,-0.4632675,15.45884,3.505651,33.00675,1008.574
34.633217811,-0.6111138,-0.4803061,1.434967,-0.82174,-0.3266538,-0.4707535,15.45884,3.505651,33.00675,1008.575
34.668286323,-1.349443,0.1145033,1.251369,-0.8241668,-0.3243219,-0.4562143,14.37011,2.706871,32.5699,1008.577
34.700849533,0.434853,0.6498318,0.3333777,-0.8154439,-0.3227037,-0.466349,15.46547,3.081206,33.0098,1008.577
34.733413219,1.173183,0.5308699,-0.7682115,-0.8193447,-0.3232206,-0.4707035,15.46547,3.081206,33.0098,1008.577
34.768476963,2.403732,0.3524271,-1.319006,-0.820226,-0.3310123,-0.4698547,15.10305,2.712164,32.56753,1008.577
34.801041126,0.7424903,0.05502238,-1.074208,-0.8142387,-0.3407114,-0.4574407,15.10155,3.144728,33.96642,1008.579
34.833603859,-0.241949,0.05502238,-0.7070121,-0.8176984,-0.3382846,-0.4665845,15.10155,3.144728,33.96642,1008.579
34.868672371,0.004160807,0.05502238,-0.7070121,-0.816229,-0.336854,-0.4564132,15.10131,3.14436,33.90269,1008.581
34.901235580,-0.4265314,-0.2423823,-0.2786163,-0.8162206,-0.3382963,-0.4598188,15.83099,3.144487,33.00817,1008.581
34.933798790,-0.9187511,-0.0639395,0.2721783,-0.8190963,-0.3426988,-0.4618167,15.83099,3.144487,33.00817,1008.581
34.968863487,-1.595553,-0.2423823,0.6393746,-0.8191844,-0.3368305,-0.4699445,14.72753,3.50294,33.4552,1008.579
35.001426220,-1.595553,-0.3613442,0.4557765,-0.8192187,-0.332963,-0.4655351,15.09805,3.139194,33.01055,1008.579
35.033990383,-0.9187511,-0.4803061,0.2721783,-0.8153916,-0.3266042,-0.4635082,15.09805,3.139194,33.01055,1008.577
35.066553593,0.6809628,0.1145033,-0.03381869,-0.8154154,-0.3232314,-0.4571729,14.72185,3.866751,33.45259,1008.577
35.101622105,1.173183,0.2929461,-0.5234139,-0.819739,-0.331006,-0.4698551,14.73158,3.136547,33.01174,1008.577
35.134184837,1.23471,-0.004458558,-0.5846133,-0.8240877,-0.3339786,-0.4698963,14.73158,3.136547,33.01174,1008.575
35.166744232,1.173183,0.1145033,-0.5846133,-0.8138286,-0.3343817,-0.4587946,14.72753,3.50294,33.4552,1008.577
35.201812744,0.9270726,-0.0639395,-0.7070121,-0.817691,-0.3397247,-0.4704735,14.73579,3.081078,33.90432,1008.579
35.234376431,0.6809628,-0.8966727,-0.4622145,-0.8177043,-0.3382736,-0.4690012,14.73579,3.081078,33.90432,1008.581
35.266939640,-0.3650039,-1.313039,0.2721783,-0.8171312,-0.3465101,-0.4729944,14.72753,3.50294,33.4552,1008.581
35.302008152,-0.3034765,-1.37252,0.5169758,-0.8176739,-0.3378536,-0.4544935,15.47278,2.719977,33.45848,1008.575
35.334571362,-0.9187511,-0.599268,0.9453717,-0.8283823,-0.3356231,-0.441398,15.47278,2.719977,33.45848,1008.575
35.367130280,-1.964718,0.3524271,1.434967,-0.8181071,-0.3446165,-0.4647472,14.73321,3.139129,33.45781,1008.575
35.402198792,-3.502904,0.7093127,2.10816,-0.8200616,-0.340825,-0.4492194,15.83426,3.149653,33.90032,1008.574
35.434762001,-3.133739,1.839451,3.026151,-0.8254431,-0.3408487,-0.4593655,15.83426,3.149653,33.90032,1008.574
35.467325687,-1.595553,0.7093127,3.882942,-0.8324165,-0.3297133,-0.4698232,15.08832,3.869399,33.4514,1008.578
35.499888897,-6.825387,-0.539787,2.903752,-0.8279344,-0.3317404,-0.4389223,15.099,3.078559,33.01099,1008.578
35.534957409,-4.918036,-1.669925,2.230559,-0.8582529,-0.3233394,-0.4493991,14.74147,2.717267,33.90693,1008.578
35.567516327,6.464544,-8.867118,2.536556,-0.9496869,-0.3508399,-0.3293696,14.74147,2.717267,33.90693,1008.575
35.600079536,3.941918,-16.06431,5.351728,-0.913503,-0.266572,-0.2672134,15.45884,3.505651,33.00675,1008.575
35.635148048,-6.148585,-19.03836,6.024921,-0.866927,-0.3378882,-0.4810322,15.47278,2.719977,33.45848,1008.575
35.667711258,-5.348728,-19.75213,7.799704,-0.8332418,-0.3261925,-0.3919449,15.47278,2.719977,33.45848,1008.575
35.700274944,-4.610399,-13.923,6.636915,-0.806236,-0.3263077,-0.5021827,15.46384,3.078622,32.56373,1008.575
35.735342979,0.004160807,-11.12739,5.657725,-0.791651,-0.3327332,-0.5433818,15.47278,2.719977,33.45848,1008.575
35.767902851,0.3733255,-6.012033,3.760544,-0.7937472,-0.269762,-0.5032656,15.47278,2.719977,33.45848,1008.575
35.800466061,-3.010684,-2.443177,1.618565,-0.7719036,-0.2726799,-0.5468351,15.47115,2.717394,33.01241,1008.575
35.835534096,-0.241949,2.493741,0.08858011,-0.8182338,-0.3025869,-0.5158271,14.74226,2.345706,32.57133,1008.575
35.868097305,4.37261,2.017893,0.2109789,-0.8555666,-0.2919568,-0.3962349,14.74226,2.345706,32.57133,1008.574
35.900660515,0.1887432,-0.004458558,-0.7682115,-0.8618215,-0.3078721,-0.4409423,15.4752,2.351,32.56895,1008.578
35.933224201,1.357765,-1.134596,-0.8906103,-0.8327024,-0.2968495,-0.4301679,15.4752,2.351,32.56895,1008.578
35.968288422,4.61872,-1.491482,-1.869801,-0.8561454,-0.292271,-0.4353926,15.4752,2.351,32.56895,1008.578
36.000852108,5.910797,-1.96733,-1.869801,-0.8646312,-0.3109685,-0.4095674,15.11036,2.350937,33.01621,1008.578
36.033415318,2.403732,-1.96733,-0.7682115,-0.8497616,-0.3293283,-0.3910101,15.11036,2.350937,33.01621,1008.578
36.068483830,-2.826102,-3.632796,0.08858011,-0.8529429,-0.3193801,-0.4498272,15.11036,2.350937,33.01621,1008.576
