Time (s),Gyroscope X (deg/s),Gyroscope Y (deg/s),Gyroscope Z (deg/s),Accelerometer X (g),Accelerometer Y (g),Accelerometer Z (g),Magnetometer X (uT),Magnetometer Y (uT),Magnetometer Z (uT),Barometer (hPa)
0.025730610,-3.41962,-1.542503,0.3741379,-0.04468381,-0.6197821,-0.8019657,0.455924,-1.804519,27.81122,1008.289
0.058012486,-4.411199,-2.423045,1.166367,-0.05435381,-0.6276246,-0.8232608,0.06785345,-1.082768,26.93605,1008.287
0.090290546,-5.402778,-1.659909,0.3741379,-0.065954,-0.6256828,-0.8116222,0.06785345,-1.082768,26.93605,1008.287
0.125054836,-6.642251,-0.9554754,-0.2962099,-0.06500284,-0.6179273,-0.8086796,0.4432771,-1.445638,27.37088,1008.287
0.157336712,-6.208435,-0.3097448,-0.7837355,-0.06550381,-0.6043181,-0.7907138,0.4319534,-1.815788,26.93977,1008.287
0.192101955,-5.030936,0.277283,-0.9056169,-0.06747402,-0.5912789,-0.7969202,0.4319534,-1.815788,26.93977,1008.285
0.224383831,-3.667515,0.5120941,-1.088439,-0.05535723,-0.6087198,-0.8129989,1.156846,-1.459249,26.92412,1008.284
0.256665707,-1.808305,0.6294996,-1.088439,-0.05633046,-0.6111914,-0.827514,0.4426155,-1.081122,27.36626,1008.284
0.291459560,0.794589,1.099122,-0.9665576,-0.05053462,-0.6063158,-0.8216975,0.4426155,-1.081122,27.36626,1008.284
0.323741436,2.653799,1.040419,-0.7227948,-0.04909389,-0.5975567,-0.808598,0.4552624,-1.440003,27.8066,1008.284
0.358506680,2.653799,-0.251042,0.2522565,-0.0442302,-0.6047559,-0.7951131,0.455924,-1.804519,27.81122,1008.278
0.390788555,1.290378,-0.779367,0.1913158,-0.0495455,-0.6076879,-0.7989859,0.455924,-1.804519,27.81122,1008.279
0.425553322,-1.250542,-0.3684476,-0.05244703,-0.05002204,-0.6135242,-0.8072365,0.8073771,-2.178658,27.37459,1008.285
0.457835198,-3.543567,-0.3097448,-0.2962099,-0.05245939,-0.6072598,-0.8129968,0.818701,-1.808507,27.8057,1008.285
0.490113258,-4.163304,-0.07493369,-0.6618541,-0.05487968,-0.6048338,-0.8091103,0.4312918,-1.451272,26.93515,1008.285
0.524878502,-3.977383,0.1011746,-0.3571506,-0.0544386,-0.5883937,-0.8133688,0.4312918,-1.451272,26.93515,1008.285
0.557160378,-1.250542,0.2185802,-0.2962099,-0.05055994,-0.592738,-0.8134019,0.4432771,-1.445638,27.37088,1008.284
0.591925621,-0.6308053,0.1598774,0.008493673,-0.04861061,-0.6004884,-0.8173175,0.1044707,-1.43038,28.24784,1008.284
0.624207020,0.050905,0.277283,-0.1743284,-0.05828029,-0.6000223,-0.8143935,0.1044707,-1.43038,28.24784,1008.282
0.658972263,-0.5068579,0.3359857,-0.4180913,-0.05053216,-0.6053283,-0.8158907,0.08050013,-1.441649,27.37639,1008.284
0.691250324,-1.126595,-0.1336365,-0.05244703,-0.04717603,-0.5941981,-0.8187353,0.4193065,-1.456907,26.49942,1008.284
0.723532200,-0.320937,-0.07493369,-0.05244703,-0.04524089,-0.5922339,-0.81196,0.4193065,-1.456907,26.49942,1008.282
0.758297444,0.6706417,-0.1923392,0.06943437,-0.04184779,-0.5970767,-0.8158625,0.08116174,-1.806165,27.38101,1008.284
0.790578842,0.7326153,-0.7206643,0.1303751,-0.04715601,-0.6004679,-0.8124862,0.8060541,-1.449626,27.36536,1008.284
0.825343609,0.422747,-0.8967726,0.3741379,-0.04909142,-0.6009671,-0.8153855,0.8060541,-1.449626,27.36536,1008.285
0.857625485,0.236826,-1.366395,0.55696,-0.05732283,-0.5971275,-0.8177632,0.455924,-1.804519,27.81122,1008.285
0.892386437,-0.2589633,-0.07493369,-0.1743284,-0.05826344,-0.6063052,-0.812012,0.8067157,-1.814142,27.36998,1008.285
0.924668312,-1.932252,0.2185802,-0.2962099,-0.05827598,-0.6004931,-0.8105286,0.8067157,-1.814142,27.36998,1008.285
0.956950188,-1.684358,0.6294996,-0.5399727,-0.0534547,-0.5951626,-0.8124425,0.4446001,-2.17467,27.38011,1008.285
0.991715431,-1.436463,-0.01623091,-0.1743284,-0.05103855,-0.5951622,-0.8143814,0.4426155,-1.081122,27.36626,1008.287
1.023997307,-1.498436,-0.01623091,-0.2962099,-0.04233745,-0.59466,-0.8163311,0.4426155,-1.081122,27.36626,1008.287
1.058762550,-1.312515,-0.251042,0.1913158,-0.04040433,-0.5931929,-0.8134263,0.09314704,-1.80053,27.81674,1008.287
1.091040134,-1.870278,-1.307692,0.6179007,-0.04815159,-0.5869058,-0.8080561,1.169492,-1.818131,27.36446,1008.287
1.123322010,-1.498436,-1.014178,0.2522565,-0.05201836,-0.5913084,-0.8187084,1.169492,-1.818131,27.36446,1008.289
1.158087254,-2.613962,-1.425098,0.4960193,-0.05054906,-0.5995343,-0.8197252,0.08050013,-1.441649,27.37639,1008.289
1.190369129,-2.985804,-1.014178,0.1913158,-0.06990844,-0.5923322,-0.8201259,0.09182405,-1.071499,27.8075,1008.289
1.225134373,-1.374489,0.4533913,-0.6618541,-0.0650651,-0.5971725,-0.8245149,0.09182405,-1.071499,27.8075,1008.289
1.257416248,-1.808305,0.6294996,-0.6618541,-0.05444147,-0.5942696,-0.8337066,0.4446001,-2.17467,27.38011,1008.289
1.292177200,-2.366068,0.3359857,-0.3571506,-0.05347871,-0.5893981,-0.8249791,0.818701,-1.808507,27.8057,1008.289
1.324459076,-2.613962,0.6882024,-0.6618541,-0.05300746,-0.5806516,-0.8147781,0.818701,-1.808507,27.8057,1008.289
1.356740952,-3.047778,1.510041,-1.088439,-0.0486625,-0.5787132,-0.8176771,1.182139,-2.177012,27.80481,1008.289
1.391505241,-3.357646,0.8643107,-0.9056169,-0.04817244,-0.5811282,-0.816725,0.818701,-1.808507,27.8057,1008.287
1.423787117,-3.233699,0.1598774,-0.7227948,-0.04043987,-0.5835667,-0.8288415,0.4672477,-1.434369,28.24233,1008.287
1.458552361,-2.923831,-0.4858531,-0.2352691,-0.03708745,-0.5695198,-0.827802,0.4672477,-1.434369,28.24233,1008.285
1.490830422,-3.543567,-1.601206,0.1303751,-0.04916465,-0.5743937,-0.8278037,0.0927577,-2.530367,27.76372,1008.289
1.525595665,-3.047778,-1.425098,-0.05244703,-0.06464285,-0.5744576,-0.833572,0.8313477,-2.167389,28.24605,1008.289
1.557877541,-3.171725,0.3359857,-1.271261,-0.05690606,-0.5783446,-0.8447298,0.8313477,-2.167389,28.24605,1008.289
1.590158939,-5.464751,-0.1923392,-1.697846,-0.05110133,-0.5758756,-0.8350595,1.194124,-2.171378,28.24053,1008.289
1.624924183,-3.853436,-0.6032587,-0.6009134,-0.07965651,-0.560916,-0.8233104,0.4552624,-1.440003,27.8066,1008.289
1.657206059,0.4847206,1.392636,-1.027498,-0.06174323,-0.5705467,-0.8243706,0.4552624,-1.440003,27.8066,1008.289
1.691967487,-0.5688316,2.507988,-1.941609,-0.03561176,-0.5816286,-0.832225,0.105794,-2.159412,28.25708,1008.291
1.724249363,-1.808305,2.097069,-1.697846,-0.03419977,-0.5666358,-0.8360103,0.8080387,-2.543174,27.37921,1008.291
1.759014130,-1.374489,1.333933,-1.14938,-0.03565618,-0.5603112,-0.8248521,0.8080387,-2.543174,27.37921,1008.291
1.791296005,-2.366068,-0.4271504,0.3131972,-0.04001222,-0.5622954,-0.8354896,0.457247,-2.533551,27.82045,1008.289
1.823577881,-4.349226,-1.953423,0.8007228,-0.04144916,-0.5685956,-0.8369727,0.8313477,-2.167389,28.24605,1008.288
1.858343125,-7.014093,-1.307692,-0.2352691,-0.05450477,-0.5671664,-0.8325855,0.8313477,-2.167389,28.24605,1008.288
1.890621186,-9.245145,0.3946885,-1.271261,-0.06612017,-0.5628442,-0.8325359,0.8326707,-2.89642,28.25528,1008.288
1.925385475,-10.2987,1.216527,-1.636905,-0.05697644,-0.550782,-0.8508577,0.8320093,-2.531905,28.25066,1008.288
1.957667351,-10.98041,1.392636,-1.880668,-0.03861121,-0.5463707,-0.8499053,0.8320093,-2.531905,28.25066,1008.288
1.989949226,-11.2283,0.8643107,-1.880668,-0.02895522,-0.5405409,-0.8513432,0.1197636,-3.247324,28.70665,1008.289
2.024714470,-10.17475,-0.01623091,-1.332202,-0.03188341,-0.5318647,-0.8590226,0.8326707,-2.89642,28.25528,1008.289
2.056996346,-8.501461,-0.9554754,-0.7227948,-0.04205073,-0.5251056,-0.8550947,0.8326707,-2.89642,28.25528,1008.289
2.091757298,-6.332383,-1.307692,-0.6618541,-0.04496226,-0.5202697,-0.8536107,0.1204252,-3.61184,28.71127,1008.289
2.124039173,-4.287252,-1.307692,-0.3571506,-0.05125165,-0.5217673,-0.8618241,0.1210866,-3.976356,28.71589,1008.288
2.158804417,-3.667515,-0.779367,-0.2352691,-0.05269022,-0.5285628,-0.866694,0.1210866,-3.976356,28.71589,1008.289
2.191086292,-3.977383,-0.01623091,-0.8446762,-0.05271015,-0.5213154,-0.8700368,0.8575749,-4.344019,29.08295,1008.288
2.223368168,-3.729488,0.805608,-0.7227948,-0.04836904,-0.5135289,-0.8608167,-0.5941941,-3.963549,29.1004,1008.288
2.258133411,-2.428041,0.3946885,-0.5399727,-0.04353213,-0.514975,-0.8632524,0.1210866,-3.976356,28.71589,1008.289
2.290410996,-1.374489,0.277283,-0.1743284,-0.04110911,-0.5178783,-0.865208,0.1210866,-3.976356,28.71589,1008.285
2.325176239,-1.622384,0.1011746,-0.1743284,-0.04643198,-0.5169322,-0.8671249,0.4941368,-3.975515,29.08385,1008.288
2.357458115,-2.180147,-0.01623091,-0.4180913,-0.04209372,-0.5101349,-0.8641949,0.1204252,-3.61184,28.71127,1008.288
2.392223358,-2.366068,-0.3684476,-0.05244703,-0.0483731,-0.510125,-0.8559628,0.1204252,-3.61184,28.71127,1008.288
2.424505234,-2.551989,-0.4271504,-0.1133877,-0.04499358,-0.512092,-0.8680673,0.1433451,-3.965892,29.52509,1008.284
2.456787109,-2.0562,-0.251042,-0.05244703,-0.04257404,-0.5140324,-0.8714676,0.483202,-3.615829,28.70575,1008.288
2.491547585,-1.746331,-0.01623091,-0.1133877,-0.04645337,-0.5082247,-0.8680422,0.483202,-3.615829,28.70575,1008.289
2.523829460,-1.56041,-0.01623091,-0.1133877,-0.0478975,-0.5106453,-0.8670859,0.1313596,-3.971526,29.08937,1008.289
2.558594227,-0.7547526,0.2185802,-0.05244703,-0.0488689,-0.5101772,-0.8709487,0.4941368,-3.975515,29.08385,1008.289
2.590876103,-0.1969896,0.277283,-0.1133877,-0.04741976,-0.5092019,-0.8699794,0.4941368,-3.975515,29.08385,1008.289
2.625641346,0.4847206,0.6882024,-0.4180913,-0.04548139,-0.5111338,-0.870478,0.8706112,-3.973064,29.57631,1008.288
2.657923222,0.608668,0.3946885,-0.2962099,-0.03340151,-0.5072261,-0.8699983,0.1210866,-3.976356,28.71589,1008.288
2.690201283,0.050905,-0.4858531,-0.05244703,-0.03967552,-0.5091487,-0.8608105,0.1210866,-3.976356,28.71589,1008.288
2.724966049,-0.6927789,-0.1923392,-0.1133877,-0.03871642,-0.5101563,-0.8733876,-0.2187703,-4.326419,29.53522,1008.288
2.757247925,-1.188568,-0.3097448,-0.1133877,-0.04016539,-0.5091763,-0.8685445,0.1217482,-4.340872,28.7205,1008.288
2.792034626,-1.064621,-0.3097448,-0.05244703,-0.04597595,-0.5058054,-0.8685128,0.1217482,-4.340872,28.7205,1008.288
2.824316502,-0.7547526,-0.3684476,0.06943437,-0.04694083,-0.5077538,-0.8714225,0.1440067,-4.330408,29.52971,1008.288
2.856598377,-0.135016,-0.4271504,-0.05244703,-0.04405866,-0.5000058,-0.8723515,0.5074451,-4.698912,29.52881,1008.288
2.891359329,0.4847206,-0.07493369,-0.1133877,-0.0459733,-0.5072604,-0.869488,0.5074451,-4.698912,29.52881,1008.289
2.923641205,0.4847206,0.1598774,-0.1743284,-0.04597599,-0.5062942,-0.8699659,0.1320214,-4.336042,29.09398,1008.289
2.958405972,0.6706417,0.04247187,0.008493673,-0.04016108,-0.5096471,-0.8646797,0.484525,-4.34486,28.71498,1008.288
2.990687370,0.7326153,0.1598774,-0.05244703,-0.04016992,-0.5067517,-0.8670805,0.484525,-4.34486,28.71498,1008.289
3.025452614,0.050905,0.1011746,-0.1133877,-0.04210596,-0.5052989,-0.8651343,0.1320214,-4.336042,29.09398,1008.291
3.057734489,-0.3829106,0.1011746,0.06943437,-0.04016953,-0.5067501,-0.866597,0.1343951,-4.699753,29.16084,1008.293
3.090012550,-0.6927789,-0.01623091,-0.1133877,-0.04065654,-0.5057885,-0.8680408,0.1343951,-4.699753,29.16084,1008.293
3.124777794,-0.5688316,-0.01623091,0.008493673,-0.04210675,-0.5053022,-0.8661012,0.1313596,-3.971526,29.08937,1008.293
3.157059670,-0.2589633,-0.251042,0.06943437,-0.04647058,-0.5014547,-0.8694539,0.4947982,-4.340031,29.08847,1008.293
3.191824436,0.1748523,-0.3097448,-0.05244703,-0.04500159,-0.5087045,-0.868048,0.5074451,-4.698912,29.52881,1008.293
3.224106312,0.6706417,-0.1336365,-0.05244703,-0.04355909,-0.5067794,-0.8723911,0.5074451,-4.698912,29.52881,1008.293
3.258871555,0.3607733,-0.07493369,-0.05244703,-0.04258482,-0.5106563,-0.8748325,0.484525,-4.34486,28.71498,1008.293
3.291149616,0.236826,0.277283,-0.1133877,-0.04596186,-0.5120997,-0.8695155,0.4947982,-4.340031,29.08847,1008.291
3.323431492,0.236826,0.04247187,-0.1133877,-0.04307361,-0.5072587,-0.8714281,0.4947982,-4.340031,29.08847,1008.291
3.358196259,0.236826,0.1011746,-0.1133877,-0.04016997,-0.5072406,-0.8685335,-0.2314172,-3.967538,29.09488,1008.291
3.390478134,0.2987996,0.1598774,-0.05244703,-0.04114124,-0.5053059,-0.868037,0.1433451,-3.965892,29.52509,1008.293
3.425243378,0.1128787,-0.1336365,0.06943437,-0.03823278,-0.5091773,-0.8704824,0.1433451,-3.965892,29.52509,1008.293
3.457525253,-0.01106866,-0.251042,0.06943437,-0.04162297,-0.5072546,-0.8714312,0.1446681,-4.694923,29.53432,1008.293
3.492285729,0.236826,-0.1923392,0.1303751,-0.04500436,-0.508716,-0.8714322,0.1313596,-3.971526,29.08937,1008.293
3.524567604,0.9185363,-0.1923392,0.06943437,-0.04452298,-0.5062802,-0.8670684,0.1313596,-3.971526,29.08937,1008.293
3.556849480,0.9805099,-0.07493369,0.06943437,-0.04500384,-0.5072479,-0.8665894,0.4954596,-4.704546,29.09308,1008.294
3.591614723,1.66222,0.3359857,0.008493673,-0.05178004,-0.5053397,-0.8689812,1.231676,-3.977857,29.50854,1008.294
3.623896599,2.15801,0.277283,0.008493673,-0.03436921,-0.5096748,-0.8777452,1.231676,-3.977857,29.50854,1008.294
3.658661842,2.715772,-0.251042,0.2522565,-0.03048977,-0.5096178,-0.864217,0.8575749,-4.344019,29.08295,1008.294
3.690939427,2.219983,-0.8380698,0.4960193,-0.03241201,-0.5085965,-0.8468032,-0.2314172,-3.967538,29.09488,1008.294
3.723221302,-0.07304233,-1.601206,0.6788414,-0.0372328,-0.5173457,-0.8540941,-0.2314172,-3.967538,29.09488,1008.294
3.757986546,-1.994226,-1.601206,0.4350786,-0.04886536,-0.5150492,-0.8806452,0.8592873,-4.343214,29.1452,1008.293
3.790268421,-3.233699,-0.8380698,0.2522565,-0.06095658,-0.5175379,-0.8907855,0.1320214,-4.336042,29.09398,1008.293
3.825033665,-1.870278,0.5120941,-0.1743284,-0.06388094,-0.505425,-0.8839421,0.1320214,-4.336042,29.09398,1008.294
3.857315541,1.414326,1.510041,-0.479032,-0.0532408,-0.4990331,-0.8631408,-0.2320786,-3.603022,29.09026,1008.296
3.892076493,3.397483,1.451339,-0.3571506,-0.04741574,-0.50381,-0.8496442,0.1440067,-4.330408,29.52971,1008.296
3.924358368,3.583404,1.333933,-0.2962099,-0.04015654,-0.5120716,-0.8661439,0.1440067,-4.330408,29.52971,1008.294
3.956640244,2.405904,1.040419,-0.5399727,-0.03821601,-0.5164378,-0.8710072,1.222726,-4.711719,29.14429,1008.294
3.991405487,1.290378,0.5120941,-0.2962099,-0.03676365,-0.5193586,-0.8773117,0.1224098,-4.705388,28.72512,1008.296
4.023687363,1.228405,0.3946885,-0.2962099,-0.03870938,-0.5111046,-0.8675918,0.1224098,-4.705388,28.72512,1008.298
4.058451653,1.290378,-0.251042,0.06943437,-0.02854046,-0.5129703,-0.8555384,0.4947982,-4.340031,29.08847,1008.298
4.090729713,0.2987996,-0.4858531,0.3131972,-0.03869835,-0.5115475,-0.8555084,0.1337335,-4.335238,29.15623,1008.3
4.125494480,-0.320937,-0.8380698,0.1303751,-0.04497933,-0.516431,-0.8632575,0.4941368,-3.975515,29.08385,1008.3
4.157776356,0.6706417,-0.5445559,0.1303751,-0.04981693,-0.5184085,-0.8714769,0.4941368,-3.975515,29.08385,1008.3
4.190058231,1.910115,-0.3684476,-0.05244703,-0.04932641,-0.5247309,-0.8811827,-0.2416902,-3.972368,28.7214,1008.3
4.224823475,0.794589,0.2185802,-0.1743284,-0.04013696,-0.5188319,-0.8618314,0.4825406,-3.251313,28.70114,1008.298
4.257105351,0.050905,0.3946885,0.06943437,-0.03967002,-0.5096146,-0.8554953,0.4825406,-3.251313,28.70114,1008.298
4.291866303,0.4847206,0.04247187,-0.1133877,-0.04110384,-0.5163904,-0.8545638,0.5078342,-3.969075,29.58182,1008.298
4.324148178,0.1128787,-0.1923392,0.06943437,-0.04206151,-0.5217296,-0.8584597,0.5078342,-3.969075,29.58182,1008.296
4.358913422,-0.320937,-0.1336365,0.1303751,-0.04158758,-0.523234,-0.8744227,0.5078342,-3.969075,29.58182,1008.296
4.391195297,-1.064621,-0.3684476,0.1303751,-0.04595618,-0.5150082,-0.8709824,0.1343951,-4.699753,29.16084,1008.296
4.423477173,-1.436463,-0.07493369,0.06943437,-0.04691734,-0.5149864,-0.8637286,0.1450572,-3.965087,29.58734,1008.294
4.458242416,-1.188568,-0.3097448,0.1303751,-0.04692483,-0.5101308,-0.8588666,0.1450572,-3.965087,29.58734,1008.294
4.490520001,-0.7547526,-0.1923392,0.06943437,-0.04208571,-0.5135224,-0.8642142,0.8699496,-3.608548,29.57169,1008.294
4.525285244,-0.5068579,-0.1336365,0.06943437,-0.04934056,-0.5145274,-0.8690386,0.493475,-3.610999,29.07924,1008.297
4.557567120,-0.3829106,0.04247187,-0.1133877,-0.04885737,-0.5140388,-0.8680701,0.493475,-3.610999,29.07924,1008.297
4.592331886,-0.1969896,-0.1336365,-0.1133877,-0.04596952,-0.5091994,-0.8704659,0.4958489,-3.97471,29.1461,1008.297
4.624613762,0.8565626,0.1011746,-0.1133877,-0.04740141,-0.5164559,-0.8685703,0.1330719,-3.970721,29.15161,1008.297
4.656895638,1.972089,0.3946885,-0.1743284,-0.03869521,-0.5164212,-0.8656883,0.1330719,-3.970721,29.15161,1008.297
4.691656590,2.591825,0.1598774,0.008493673,-0.04353283,-0.5140007,-0.8613131,0.1350565,-5.064269,29.16546,1008.297
4.723938465,2.591825,-0.1336365,0.008493673,-0.03916627,-0.5183256,-0.8560293,1.22008,-3.253655,29.12583,1008.297
4.758703709,1.972089,-0.1336365,0.1913158,-0.0464081,-0.5241632,-0.8589476,1.22008,-3.253655,29.12583,1008.297
4.790985584,0.8565626,-0.251042,-0.2962099,-0.02755681,-0.5226723,-0.8633306,0.1204252,-3.61184,28.71127,1008.299
4.823267460,-1.436463,-0.5445559,0.008493673,-0.03868963,-0.5159094,-0.8574669,0.1306982,-3.607011,29.08475,1008.299
4.858032227,-1.56041,-0.3097448,-0.1743284,-0.03095571,-0.5163876,-0.8623207,0.1306982,-3.607011,29.08475,1008.297
4.890310288,-3.295673,-2.188234,0.8616635,-0.03385751,-0.5178641,-0.8671572,-0.2327402,-3.238506,29.08565,1008.297
4.925075531,-0.3829106,-0.01623091,-0.1133877,-0.06046684,-0.5096921,-0.8607687,0.847302,-4.348849,28.70947,1008.297
4.957357407,1.724194,-0.4271504,0.3741379,-0.06625696,-0.5169873,-0.866599,0.847302,-4.348849,28.70947,1008.297
4.992122650,3.459456,0.04247187,0.6788414,-0.05366049,-0.5334654,-0.884607,0.4941368,-3.975515,29.08385,1008.297
5.024404049,2.591825,0.8643107,0.1303751,-0.04158059,-0.5246711,-0.8700799,0.1426835,-3.601376,29.52048,1008.295
5.056685925,1.476299,1.392636,-0.2962099,-0.03387167,-0.5032628,-0.8424188,0.8599489,-4.70773,29.14981,1008.297
5.091447353,2.591825,-0.4858531,0.55696,-0.02756066,-0.5168242,-0.8512114,0.8599489,-4.70773,29.14981,1008.295
5.123729229,3.087615,-2.070828,1.166367,-0.04108468,-0.5280392,-0.8647823,0.8575749,-4.344019,29.08295,1008.293
5.158493519,1.66222,-1.777314,0.9835449,-0.04398604,-0.5290252,-0.8676823,0.8575749,-4.344019,29.08295,1008.293
5.190775394,-0.1969896,-1.014178,0.55696,-0.04012754,-0.5241683,-0.8657292,0.8575749,-4.344019,29.08295,1008.292
5.225540638,0.5466943,-0.7206643,0.7397822,-0.05657192,-0.5227651,-0.8661693,0.8592873,-4.343214,29.1452,1008.288
5.257822514,2.405904,-1.366395,0.9835449,-0.05801161,-0.5241899,-0.8569889,0.4725397,-4.350495,28.27926,1008.286
5.290100098,3.52143,-0.779367,0.6179007,-0.05317492,-0.5236823,-0.8540958,0.4725397,-4.350495,28.27926,1008.286
5.324865341,4.327087,0.4533913,0.2522565,-0.05076569,-0.5212673,-0.8574713,1.210079,-4.352838,28.70395,1008.286
5.357147217,4.327087,-0.01623091,0.55696,-0.04590536,-0.5309238,-0.8551195,0.8353167,-4.354484,28.27374,1008.286
5.391912460,4.327087,-0.6032587,0.9226043,-0.04975436,-0.5401393,-0.8580643,0.8353167,-4.354484,28.27374,1008.286
5.424194336,3.52143,-0.5445559,0.8007228,-0.04587355,-0.54252,-0.8498677,0.4928136,-3.246483,29.07462,1008.286
5.458959580,1.786168,-0.3097448,0.1913158,-0.05701504,-0.5353044,-0.8531868,0.493475,-3.610999,29.07924,1008.286
5.491237164,1.290378,0.04247187,0.1303751,-0.05121213,-0.535775,-0.8541688,0.493475,-3.610999,29.07924,1008.286
5.523519039,2.529851,-0.3097448,0.3741379,-0.04348715,-0.5299375,-0.8517351,-0.2423518,-3.607852,28.71678,1008.286
5.558284283,4.698929,-0.1923392,0.8007228,-0.05508218,-0.5323724,-0.8464062,0.1197636,-3.247324,28.70665,1008.286
5.590566158,6.558139,0.6882024,0.4350786,-0.04829765,-0.543042,-0.8590508,0.1197636,-3.247324,28.70665,1008.288
5.625331402,8.10748,0.277283,0.7397822,-0.04586148,-0.5493115,-0.8547408,0.1204252,-3.61184,28.71127,1008.288
5.657613278,9.099059,-1.014178,1.714833,-0.05505243,-0.5449545,-0.8464777,0.493475,-3.610999,29.07924,1008.288
5.689890862,9.346953,0.3946885,0.9226043,-0.06081022,-0.5623778,-0.8422134,0.493475,-3.610999,29.07924,1008.288
5.724655628,6.868007,-0.07493369,0.8007228,-0.04096085,-0.5729724,-0.8437667,0.8326707,-2.89642,28.25528,1008.288
5.756937981,5.628534,-0.9554754,1.41013,-0.05742228,-0.5628439,-0.8398062,0.119102,-2.882809,28.70203,1008.288
5.791702271,5.008798,-0.1336365,0.4350786,-0.05982273,-0.5642452,-0.8228887,0.119102,-2.882809,28.70203,1008.288
5.823984146,0.236826,0.04247187,-0.1743284,-0.04625992,-0.5802351,-0.8404126,0.8206854,-2.902055,27.81955,1008.29
5.858749390,-1.374489,-0.251042,0.4350786,-0.08354449,-0.5590536,-0.841662,0.457247,-2.533551,27.82045,1008.29
5.891027451,2.529851,1.451339,0.55696,-0.0637073,-0.5687214,-0.8552961,0.4692323,-2.527916,28.25618,1008.29
5.923309326,5.38064,1.099122,1.836715,-0.05158887,-0.585667,-0.867988,0.4692323,-2.527916,28.25618,1008.29
5.958074570,7.797612,2.566691,2.507063,-0.05884926,-0.5774101,-0.8529388,0.457247,-2.533551,27.82045,1008.29
5.990355968,13.56116,2.273177,3.543055,-0.055414,-0.5977156,-0.850161,0.8320093,-2.531905,28.25066,1008.29
6.025121212,19.57261,0.5120941,5.432216,-0.03611495,-0.5709606,-0.8253951,0.8320093,-2.531905,28.25066,1008.29
6.057403088,23.6009,-2.833964,7.930785,-0.05300808,-0.5786995,-0.8099326,0.4452617,-2.539186,27.38472,1008.292
6.092164516,22.23748,-4.829859,8.540193,-0.05524651,-0.6405132,-0.7701539,-0.643069,-2.52722,27.40127,1008.296
6.124446392,21.67971,-3.362289,10.49029,-0.05817621,-0.6401507,-0.8035028,-0.643069,-2.52722,27.40127,1008.296
6.156727791,9.532875,-4.595048,8.905836,-0.04948533,-0.6250307,-0.7758795,-0.304652,-3.272314,26.47129,1008.294
6.191493034,-12.71567,-6.590942,5.858801,-0.06925375,-0.6385341,-0.7454571,-0.3155866,-2.912628,26.09319,1008.294
6.223774910,-30.37816,-8.821647,6.163505,-0.08478087,-0.6143672,-0.7409353,-0.3155866,-2.912628,26.09319,1008.294
6.258539677,-31.49369,-6.12132,5.493157,-0.1027935,-0.5836468,-0.7997013,0.05851412,-2.546466,26.51879,1008.294
6.290817261,-21.33001,-5.182076,6.651031,-0.08980466,-0.5702035,-0.8421954,0.07248378,-3.634378,26.96836,1008.296
6.325582504,-17.79751,-6.943159,9.271481,-0.0777706,-0.5430297,-0.8304644,0.07248378,-3.634378,26.96836,1008.296
6.357864380,-18.66514,-5.651698,7.260437,-0.1353122,-0.5529662,-0.8579528,-0.6517467,-4.355433,26.98862,1008.296
6.390146256,-12.09593,-4.184128,7.199497,-0.1110451,-0.6023691,-0.8911598,0.07512999,-5.092442,26.98682,1008.296
6.424911499,0.236826,-5.534292,8.418311,-0.09363421,-0.5925326,-0.8592345,0.07512999,-5.092442,26.98682,1008.292
6.457193375,9.656822,-3.5971,4.274343,-0.1449462,-0.5645688,-0.8463956,-0.2636762,-5.077184,27.86379,1008.292
6.491954327,9.718796,-5.769104,5.432216,-0.1111707,-0.5227476,-0.814807,0.1010852,-6.17472,27.87213,1008.296
6.524236202,2.281957,-3.714506,6.163505,-0.1266878,-0.4882774,-0.7686509,0.1010852,-6.17472,27.87213,1008.296
6.556518078,-2.242121,-3.949317,5.188454,-0.1971498,-0.5514439,-0.7848116,-0.2756617,-5.082819,27.42807,1008.29
6.591283322,3.583404,-9.349972,7.199497,-0.1236325,-0.5731482,-0.8257024,-0.6377771,-5.443346,27.4382,1008.288
6.623565197,3.769325,-4.888562,9.941829,-0.08648107,-0.5421048,-0.8357581,-0.6377771,-5.443346,27.4382,1008.288
6.658330441,4.20314,-4.301534,5.127513,-0.1604385,-0.5642028,-0.8681148,-0.6484394,-6.178012,27.0117,1008.288
6.690608025,4.141166,-7.236673,6.407268,-0.115898,-0.5706917,-0.8213542,-0.2743387,-5.81185,27.4373,1008.288
6.725373268,1.600247,-6.003914,9.454303,-0.1526945,-0.5568202,-0.8381163,-0.2743387,-5.81185,27.4373,1008.288
6.757655144,3.211562,-6.649645,8.662074,-0.1454067,-0.5678954,-0.8280427,-0.6497624,-5.44898,27.00247,1008.288
6.789937020,-2.304094,-6.943159,9.149599,-0.1052195,-0.5831991,-0.8083954,0.4645233,-6.543224,27.87123,1008.288
6.824702263,-6.45633,-8.234619,9.027718,-0.1536329,-0.5591475,-0.810088,-0.2736771,-6.176366,27.44191,1008.288
6.856983185,-5.030936,-5.240778,7.077615,-0.1517055,-0.5552608,-0.8071694,-0.2736771,-6.176366,27.44191,1008.288
6.891744614,-4.721067,-4.301534,8.601133,-0.1966754,-0.5568559,-0.8114325,-0.2856624,-6.182,27.00619,1008.288
6.924026489,-14.32698,-4.41894,10.30747,-0.2338774,-0.5734486,-0.8211156,-0.2616918,-6.170731,27.87764,1008.286
6.958791256,-20.89619,-3.479695,9.21054,-0.2111866,-0.5715774,-0.8593454,-0.2616918,-6.170731,27.87764,1008.286
6.991073132,-15.19462,-2.481748,4.639987,-0.2145395,-0.5822057,-0.8511801,-0.6357925,-6.536893,27.45205,1008.286
7.023355007,-8.687382,-4.242831,1.288248,-0.2772722,-0.6175271,-0.7966173,1.192613,-7.948511,27.87789,1008.29
7.058120251,-2.985804,-3.479695,-0.479032,-0.3164395,-0.6279014,-0.8260815,1.192613,-7.948511,27.87789,1008.29
7.090402126,-3.295673,-6.180023,-4.440178,-0.3473314,-0.6502408,-0.8232414,0.4677207,-8.30505,27.89354,1008.292
7.125163078,-16.06225,-12.22641,-6.512162,-0.3878634,-0.6778556,-0.7981722,-0.2584946,-7.932557,27.89995,1008.288
7.157444954,-14.20304,-17.62707,-12.42341,-0.3917072,-0.6860722,-0.791926,-0.2584946,-7.932557,27.89995,1008.29
7.192210197,-16.55803,-19.44685,-16.68926,-0.4377308,-0.6284113,-0.7310691,0.1042824,-7.936546,27.89444,1008.29
7.224492073,-34.71632,-27.43043,-19.06595,-0.487111,-0.6058273,-0.7366355,-0.6192869,-9.022116,27.91932,1008.29
7.256773949,-40.85171,-33.59422,-21.32075,-0.4291236,-0.5887158,-0.734246,-0.6192869,-9.022116,27.91932,1008.29
7.291682243,-35.21211,-39.81672,-24.06309,-0.438323,-0.580973,-0.7264472,-0.641273,-10.12693,27.06171,1008.294
7.323960304,-23.87093,-44.74775,-26.50071,-0.3925067,-0.5305195,-0.7281927,-0.263865,-11.58335,27.51038,1008.292
7.358725548,-23.56106,-49.38527,-27.04918,-0.3350411,-0.4984191,-0.7291009,-0.263865,-11.58335,27.51038,1008.292
7.391007423,-30.56408,-52.02689,-30.46186,-0.3331012,-0.4773769,-0.6617876,0.09221864,-14.5091,27.10607,1008.292
7.423289299,-38.80658,-53.43576,-32.29008,-0.3908308,-0.4123487,-0.7019022,0.070894,-15.97843,26.25308,1008.286
7.458054066,-38.9925,-53.55317,-33.14325,-0.3445596,-0.3595693,-0.731675,0.070894,-15.97843,26.25308,1008.286
7.490335941,-42.21513,-45.09996,-34.48394,-0.3171939,-0.2889582,-0.767107,0.4249933,-17.81063,25.83492,1008.286
7.525097370,-59.50578,-31.0113,-42.52812,-0.3556246,-0.262657,-0.9704022,0.7804151,-20.37187,25.42598,1008.286
7.557379246,-76.73446,-25.61064,-49.41442,-0.3527515,-0.2647204,-1.010546,0.7804151,-20.37187,25.42598,1008.286
7.592143536,-81.75433,-21.03183,-55.50849,-0.3603004,-0.327491,-0.9630258,0.04882956,-23.65017,25.04283,1008.283
7.624425411,-61.79881,-20.62091,-57.94612,-0.4105902,-0.290012,-0.8563479,-0.2827001,-27.64458,25.97058,1008.283
7.656707287,-33.16698,-29.89595,-61.84632,-0.4710087,-0.2602736,-0.7405066,-0.2827001,-27.64458,25.97058,1008.285
7.691472531,-10.98041,-50.67673,-62.63855,-0.5318406,-0.2400187,-0.5667059,0.09801555,-30.92358,26.44233,1008.285
7.723750115,-15.00869,-57.95587,-60.56657,-0.5828156,-0.1794313,-0.6378005,0.1246321,-32.37037,27.33224,1008.285
7.758515358,-27.03158,-68.69848,-55.08191,-0.572815,-0.1213996,-0.6577964,0.5386577,-34.1744,29.09272,1008.284
7.790797234,-39.05447,-68.17016,-46.2455,-0.6034518,-0.05574615,-0.6791119,0.5386577,-34.1744,29.09272,1008.284
7.825562477,-61.17907,-66.9961,-40.6999,-0.5787247,-0.07983439,-0.668183,1.313748,-35.98322,30.78542,1008.28
7.857844353,-74.93723,-63.23912,-37.16534,-0.5889297,-0.06052594,-0.6738526,2.079226,-38.16139,32.10927,1008.284
7.890126229,-89.99683,-60.83231,-32.41196,-0.5860654,-0.03574884,-0.6476121,2.079226,-38.16139,32.10927,1008.282
7.924887180,-101.2141,-61.53674,-29.48681,-0.5836689,-0.02117001,-0.6315809,2.141799,-39.59128,34.30637,1008.282
7.957169056,-104.8705,-65.00021,-29.79151,-0.498598,-0.001517146,-0.6161826,2.168416,-41.03807,35.19629,1008.282
7.991934299,-110.4481,-71.3401,-32.96043,-0.4603834,0.005493193,-0.5790003,2.168416,-41.03807,35.19629,1008.282
8.024216175,-95.63643,-73.86433,-37.04346,-0.5624806,0.007359059,-0.6561198,2.544501,-41.76546,35.63573,1008.282
8.058981419,-61.48894,-69.16811,-31.01032,-0.5642651,0.1169004,-0.7458962,2.530532,-40.67755,35.18615,1008.282
8.091263294,-48.04066,-65.52853,-22.66145,-0.5717682,0.1979405,-0.8160012,2.530532,-40.67755,35.18615,1008.282
8.123540878,-57.77052,-66.17426,-18.45654,-0.6164318,0.2718445,-0.8183854,2.840075,-37.78795,33.4008,1008.284
8.158305645,-67.12854,-67.87664,-15.28762,-0.7016446,0.299005,-0.8712255,3.44418,-36.02888,29.07167,1008.28
8.190587521,-58.88605,-71.45751,-12.17965,-0.745161,0.2940052,-0.8817959,3.44418,-36.02888,29.07167,1008.285
8.257634163,-9.183171,-73.45341,-7.730976,-1.009265,0.316343,-0.921225,4.256849,-36.17045,19.03341,1008.285
8.292399407,13.68511,-69.57903,-7.426272,-1.199301,0.2986853,-0.9731272,4.256849,-36.17045,19.03341,1008.285
8.324677467,21.30787,-68.63978,-1.21032,-1.141441,0.1980364,-0.8771365,4.563006,-38.02518,16.87234,1008.287
8.356959343,40.33379,-59.36474,7.138556,-1.070108,0.1269573,-0.7776225,5.241281,-38.42022,15.12302,1008.289
8.391724587,57.0047,-33.242,16.3406,-0.9918266,0.1469977,-0.7849289,5.241281,-38.42022,15.12302,1008.29
8.424005985,27.38129,-19.44685,19.75328,-0.866438,0.111817,-0.7051484,4.842548,-38.43314,13.82135,1008.29
8.458771229,3.52143,-13.10695,17.07189,-0.8705266,0.05181141,-0.5585154,5.570086,-39.53466,13.82417,1008.29
8.491053105,6.000376,-5.182076,17.31565,-0.9110351,0.0267374,-0.4976574,5.570086,-39.53466,13.82417,1008.288
8.523331165,1.104457,-1.131584,18.22976,-0.8563393,0.0144163,-0.4669052,5.559424,-40.26932,13.39767,1008.29
8.558096409,9.904716,0.2185802,14.0858,-0.8557073,-0.04311903,-0.4522472,5.583395,-40.25805,14.26913,1008.29
8.590378285,23.78682,0.5120941,8.540193,-0.8987149,-0.0485014,-0.433331,5.583395,-40.25805,14.26913,1008.29
8.625143051,30.47997,0.2185802,3.725877,-0.9728122,0.000167149,-0.4319277,5.211278,-41.71776,13.85738,1008.292
8.657424927,28.12497,-0.6619615,1.714833,-0.997943,0.005037745,-0.4013892,5.597364,-41.34597,14.7187,1008.293
8.692189694,27.56721,2.038366,-1.575965,-1.038992,-0.01245369,-0.3873804,5.247234,-41.70086,15.16456,1008.295
8.724467278,23.353,1.68615,-2.855719,-1.03845,-0.02931445,-0.3652393,5.247234,-41.70086,15.16456,1008.295
8.756749153,17.89932,0.7469052,-2.307253,-1.025309,-0.05189073,-0.3267209,5.283851,-42.04847,16.47635,1008.295
8.791514397,15.66827,0.4533913,-1.880668,-1.005003,-0.0459813,-0.3136782,5.293852,-40.94929,16.89824,1008.297
8.823796272,11.94985,-2.95137,-5.110526,-0.9711319,-0.05458541,-0.3108995,5.293852,-40.94929,16.89824,1008.299
8.858561516,3.769325,-4.829859,-5.415229,-0.9329238,-0.05444344,-0.3013123,5.670599,-42.04119,17.34229,1008.299
8.890843392,-5.340804,-5.299481,-5.902755,-0.9146717,-0.01873745,-0.3475587,5.306499,-41.30817,17.33858,1008.3
8.925604343,-12.15791,-7.764997,-6.207458,-0.9035381,-0.02598587,-0.3539086,5.306499,-41.30817,17.33858,1008.304
8.957886219,-11.29028,-8.88035,-4.501119,-0.9137301,-0.01639694,-0.3717193,5.305838,-40.94366,17.33396,1008.304
8.990168095,-6.766198,-10.34792,-5.049585,-0.9679514,0.005172596,-0.3869499,4.91909,-40.95094,16.46802,1008.304
9.057215214,-0.4448843,-14.80933,-5.171466,-0.9679446,-0.003106606,-0.402467,5.26922,-40.59604,16.02217,1008.305
9.091980457,-3.543567,-15.98339,-5.537111,-0.9539473,0.004158013,-0.4126081,5.257896,-40.96619,15.59105,1008.307
9.124258041,-0.4448843,-14.1636,-5.719933,-0.9209687,-0.03541538,-0.4085532,5.257896,-40.96619,15.59105,1008.307
9.159023285,1.786168,-10.28922,-1.880668,-0.8716406,-0.0372019,-0.4062525,5.98345,-40.97417,15.58002,1008.309
9.191305161,-14.38896,-4.712453,1.227308,-0.8500412,0.02621236,-0.4185079,4.88115,-39.87429,15.14699,1008.309
9.223587036,-38.80658,-8.058511,-2.429134,-0.8716928,-0.0007680231,-0.364953,4.88115,-39.87429,15.14699,1008.311
9.258351326,-29.69645,-7.882403,-1.941609,-0.870061,-0.06060885,-0.3174363,5.933524,-39.90316,13.82327,1008.312
9.290633202,-15.69041,-7.647592,0.008493673,-0.8764369,-0.02434856,-0.3220508,4.835193,-40.99038,13.41794,1008.312
9.325394631,-9.121198,-5.123373,4.944691,-0.8668541,0.01294158,-0.3218594,4.835193,-40.99038,13.41794,1008.316
9.357676506,-15.19462,-1.366395,9.515244,-0.8847852,0.02689652,-0.3299598,5.173337,-40.64112,12.53635,1008.316
9.389957905,-28.02316,0.04247187,10.30747,-0.8768031,0.1119391,-0.3744533,5.899553,-41.01361,12.52993,1008.318
9.424723148,-58.82407,2.097069,10.30747,-0.9031935,0.2064884,-0.4405733,5.899553,-41.01361,12.52993,1008.319
9.457005024,-71.83854,4.151666,13.53733,-0.938477,0.1922798,-0.4623328,5.852274,-41.40067,10.79164,1008.319
9.491770268,-61.48894,6.851994,17.74224,-0.9929461,0.1307728,-0.4306582,5.842273,-42.49985,10.36976,1008.319
9.524048329,-41.40947,1.862258,23.71443,-1.059584,0.1099484,-0.3789051,5.842273,-42.49985,10.36976,1008.319
9.558813095,-24.86251,0.3946885,28.77251,-1.050856,0.1266889,-0.3014785,5.431555,-42.5184,8.632374,1008.321
9.591094971,-32.36132,-5.592995,24.81136,-1.008242,0.1231586,-0.2368096,6.123137,-43.63683,7.32801,1008.323
9.623376846,-34.34447,-12.51992,26.09112,-1.011461,0.052,-0.2405914,5.398906,-44.35788,7.348272,1008.323
9.658142090,-30.68803,-12.46122,25.84735,-0.939511,0.09480152,-0.2376024,5.398906,-44.35788,7.348272,1008.324
9.690423966,-28.95277,-17.39225,19.81422,-0.9591697,0.03239669,-0.2147098,5.341626,-45.84412,5.188102,1008.324
9.725184918,-13.95514,-24.78881,13.41545,-0.9267955,0.04705304,-0.20116,5.318978,-46.58442,4.32588,1008.326
9.757466793,-9.864882,-34.00514,1.532011,-0.9307752,0.08958346,-0.2139624,5.318978,-46.58442,4.32588,1008.33
9.792231560,-3.171725,-36.94028,-3.038542,-0.9623222,0.1261493,-0.2499444,4.922891,-48.05539,3.042678,1008.33
9.824513436,0.236826,-36.11844,-3.282304,-0.9479722,0.1841836,-0.2728504,4.524158,-48.06831,1.741014,1008.33
9.856795311,-7.385935,-39.81672,-7.609095,-1.004066,0.1888985,-0.2620671,4.524158,-48.06831,1.741014,1008.331
9.891560555,-3.047778,-36.70547,-11.87494,-1.067937,0.2036867,-0.2710307,5.577856,-48.82621,0.4265184,1008.331
9.923838139,-2.675936,-34.41606,-11.5093,-1.106533,0.1682657,-0.2663145,5.904677,-48.84711,-0.8861778,1008.331
9.958603382,-0.01106866,-31.71573,-11.14366,-1.102597,0.1358208,-0.2761762,5.904677,-48.84711,-0.8861778,1008.331
9.990885258,9.161033,-29.48503,-13.21564,-1.057507,0.09930514,-0.2368391,5.503298,-47.40195,-2.206306,1008.331
10.025650501,10.27656,-21.20794,-23.9412,-1.058526,0.1205903,-0.2381662,5.855412,-48.14061,-2.638317,1008.335
10.057932377,-9.864882,-18.15539,-28.69458,-1.057473,0.09602738,-0.2044674,5.855412,-48.14061,-2.638317,1008.336
10.090214252,-19.90461,-15.39636,-30.27904,-1.024008,0.0730793,-0.1500414,5.491975,-47.77211,-2.637417,1008.338
10.124975204,-12.09593,-9.643486,-33.44795,-1.026915,0.09601712,-0.09044178,6.183012,-46.70183,-3.844983,1008.334
10.157257080,-6.642251,-4.653751,-37.22628,-1.02407,0.1172921,-0.09806196,6.183012,-46.70183,-3.844983,1008.334
10.192022324,-5.650672,-7.471484,-32.59478,-0.9621757,0.1257793,-0.07349172,5.828524,-45.59946,-3.479835,1008.336
10.224304199,5.008798,-7.060565,-24.91625,-0.9796063,0.1305214,-0.08744691,5.825877,-44.1414,-3.498298,1008.337
10.256586075,6.124323,-9.643486,-17.90807,-0.9283475,0.1370327,-0.06576563,5.825877,-44.1414,-3.498298,1008.343
10.291350365,-1.250542,-9.760892,-16.26267,-0.9568129,0.1152251,-0.05084167,5.823893,-43.04786,-3.512146,1008.345
10.323628426,-3.853436,-11.22846,-13.09376,-0.9358492,0.05197836,-0.02514078,6.186669,-43.05184,-3.517662,1008.345
10.358393192,-5.092909,-9.760892,-8.888849,-0.9611369,0.09969091,-0.06155632,6.186669,-43.05184,-3.517662,1008.341
10.390675068,-0.8167262,-12.81344,-4.623,-0.9889463,0.0150723,-0.0179846,6.175074,-42.32764,-3.900373,1008.347
10.425440312,40.45773,-9.115161,2.933648,-0.9970188,-0.05910529,-0.05174625,6.162427,-41.96876,-4.340716,1008.347
10.457722187,56.63286,-1.190286,4.03058,-1.029909,0.1068624,-0.1720748,6.537189,-41.96711,-3.910505,1008.348
10.490004063,-5.712646,-14.98544,-4.074534,-1.043003,0.134522,-0.138532,6.537189,-41.96711,-3.910505,1008.348
10.524765015,-19.09896,-14.2223,-6.085577,-1.009555,-0.07658396,-0.05810332,6.558396,-42.32197,-3.158929,1008.347
10.557046890,27.1334,-9.52608,-3.830771,-0.8787917,-0.1418169,0.002640666,6.175074,-42.32764,-3.900373,1008.348
10.591812134,65.18523,-0.3097448,-1.21032,-0.8287999,-0.04126012,-0.06892769,6.175074,-42.32764,-3.900373,1008.347
10.624094010,49.50589,4.151666,-3.282304,-0.8300936,0.07857449,-0.1204549,5.481391,-41.93985,-2.711271,1008.348
10.658859253,6.000376,4.973505,-6.512162,-0.854794,0.09642081,-0.1169161,6.606338,-42.29943,-1.416021,1008.35
10.691141129,-8.501461,6.030155,-4.623,-0.9078454,0.04406671,-0.0987288,6.606338,-42.29943,-1.416021,1008.35
10.723418713,-13.21146,0.1011746,8.052667,-1.961434,-0.06376994,-0.327188,6.605677,-41.93492,-1.420637,1008.344
10.758183956,-4.163304,-19.91647,5.858801,-1.247118,-0.1076122,0.2690368,6.96713,-41.20988,-1.435385,1008.352
10.790465832,-7.385935,8.378267,20.72833,-0.3718298,-0.03938461,-0.04476308,6.96713,-41.20988,-1.435385,1008.348
10.825230599,8.10748,-17.39225,-0.9665576,-1.253235,0.1260722,-0.02645264,6.931836,-41.59129,-2.737949,1008.349
10.857512474,-20.46238,-2.95137,12.13569,-1.130353,0.1203239,0.02981216,6.921835,-42.69048,-3.159828,1008.349
10.892277241,-3.233699,-2.775262,2.324241,-0.8674989,0.01476266,0.07360523,6.921835,-42.69048,-3.159828,1008.351
10.924555302,-6.518303,3.329827,4.944691,-1.118127,0.04469202,-0.02188872,6.537189,-41.96711,-3.910505,1008.357
10.956837177,-3.729488,2.566691,3.055529,-0.9682141,0.04078159,-0.01739967,6.548123,-42.3268,-3.532409,1008.353
10.991602421,-1.498436,2.214475,3.11647,-1.024735,0.01689916,-0.01983084,6.548123,-42.3268,-3.532409,1008.355
11.023884296,3.273535,0.4533913,2.994588,-1.014175,0.04494829,-0.03419727,6.547462,-41.96228,-3.537024,1008.355
11.058649063,5.194718,-1.307692,4.518106,-1.017062,0.03913449,-0.03374067,6.525865,-42.33727,-4.341616,1008.359
11.090930939,1.104457,-0.1336365,5.675979,-1.023814,0.04896079,0.0156405,6.525865,-42.33727,-4.341616,1008.353
11.123209000,0.236826,2.801502,6.59009,-1.008341,0.04607197,0.00688883,6.911562,-42.6953,-3.533309,1008.353
11.157974243,1.228405,2.390583,6.346327,-1.019521,0.04628986,-0.06221757,6.557735,-41.95745,-3.163544,1008.357
11.190256119,0.4847206,0.7469052,5.066572,-1.006519,0.08763966,-0.009315661,6.557735,-41.95745,-3.163544,1008.357
11.225020886,-2.242121,2.33188,3.421173,-1.013678,0.04891611,-0.006136342,6.557735,-41.95745,-3.163544,1008.357
11.257302761,-0.135016,1.920961,2.994588,-1.009356,0.06150741,-0.007040939,6.558396,-42.32197,-3.158929,1008.357
11.292068005,3.273535,2.097069,2.811766,-1.00698,0.06818449,-0.03794817,6.186008,-42.68732,-3.522277,1008.351
11.324346066,-0.8786999,1.627447,1.775774,-1.004533,0.06440189,-0.01380302,6.186008,-42.68732,-3.522277,1008.355
11.356627941,-6.890145,0.3946885,2.141418,-1.01412,0.02709535,-0.01882887,6.559058,-42.68649,-3.154313,1008.355
11.391392231,-4.845015,-1.248989,4.700928,-1.009877,0.05500038,-0.07040729,7.285274,-43.05898,-3.160728,1008.352
11.423674107,-2.242121,-4.41894,6.59009,-1.005999,0.05456354,-0.05978248,7.285274,-43.05898,-3.160728,1008.35
11.458439350,-0.07304233,-6.532239,8.418311,-1.009379,0.0575033,-0.04622219,6.559719,-43.051,-3.149697,1008.348
11.490721226,4.88485,-8.88035,9.759007,-1.012839,0.09530066,-0.02811259,6.187331,-43.41636,-3.513046,1008.348
11.525482178,-2.73791,-11.52197,12.62322,-0.9996871,0.05615288,-0.02449602,6.187331,-43.41636,-3.513046,1008.348
11.557764053,-2.366068,-14.1636,16.70625,-1.009902,0.07688528,-0.03837584,6.912885,-43.42434,-3.524077,1008.347
11.590045929,0.1748523,-16.2182,18.59541,-1.020697,0.151949,-0.01278696,6.527187,-43.0663,-4.332384,1008.347
11.624811173,-0.8167262,-17.50966,18.22976,-1.031219,0.1260125,0.05380279,6.527187,-43.0663,-4.332384,1008.345
11.657093048,7.487744,-22.91032,37.48703,-1.029206,-0.1340692,-0.01149427,6.165072,-43.42682,-4.322253,1008.347
11.691858292,9.28498,-30.71778,41.44817,-1.038684,0.159318,-0.1079437,5.452167,-43.77773,-3.870879,1008.347
11.724135876,-1.126595,-34.76828,37.73079,-0.9523128,0.2843954,0.02842759,5.452167,-43.77773,-3.870879,1008.347
11.758901119,-31.49369,-37.82082,39.86372,-1.089747,0.122343,0.02006736,4.716611,-44.86893,-4.281727,1008.345
11.791182995,-24.24277,-57.66236,51.19868,-1.026053,0.1366306,-0.1018152,4.705287,-45.23908,-4.712838,1008.339
11.823464871,-14.7608,-40.22763,48.76106,-0.8997132,0.4072479,0.2509111,4.705287,-45.23908,-4.712838,1008.343
11.858229161,-59.62973,-44.86515,54.55043,-1.327643,0.144668,0.09757376,3.206239,-45.24566,-6.433683,1008.343
11.890511036,-35.83184,-66.46777,76.73283,-1.362836,0.09369393,0.07947254,2.410096,-46.00053,-9.027781,1008.343
11.925272465,-20.27645,-79.96941,89.77415,-1.235083,0.3128477,0.2385277,2.410096,-46.00053,-9.027781,1008.339
11.957554340,-18.35527,-96.05398,100.9872,-1.093106,0.1840143,0.2287873,2.361494,-45.65855,-10.7753,1008.339
11.989836216,0.422747,-96.64101,103.6686,-0.7432612,0.3242598,0.3342204,0.839797,-46.40544,-13.35837,1008.339
12.024600983,-2.304094,-96.28879,102.3279,-0.795607,0.3529218,0.2682651,0.839797,-46.40544,-13.35837,1008.341
12.056882858,-0.6927789,-93.94067,100.6216,-0.5164241,0.4804823,0.2601702,0.4543726,-47.14175,-14.21508,1008.341
12.091648102,-12.77764,-83.37418,97.6355,-0.5099577,0.6048335,0.2497443,-0.3304462,-47.52646,-16.37807,1008.341
12.123926163,-37.62908,-80.90866,101.231,-0.7097028,0.6089807,0.2144239,-0.3304462,-47.52646,-16.37807,1008.339
12.158691406,-59.19592,-77.26909,106.6547,-0.7657731,0.6235676,0.2823091,-1.820156,-46.06935,-17.68165,1008.341
12.190972805,-81.07262,-85.19396,109.6408,-0.8621694,0.3710141,0.5228002,-2.266168,-46.46931,-20.7216,1008.339
12.223254681,-74.31749,-94.469,114.1504,-0.8331877,0.0578256,0.7573585,-2.266168,-46.46931,-20.7216,1008.339
12.258019924,-35.27408,-109.6143,126.948,-0.4321135,0.4927286,1.090122,-4.095471,-44.29675,-23.337,1008.341
12.290301800,9.223006,-122.0006,115.5521,-0.5646393,-0.0623378,0.6284687,-4.920215,-42.51127,-26.83486,1008.341
12.325063229,48.26641,-167.4366,126.3995,-0.01482741,0.2397562,0.343289,-6.0245,-40.31785,-27.28174,1008.345
12.357345104,107.9471,-180.586,127.3136,0.4784041,0.8992774,-0.09346975,-6.0245,-40.31785,-27.28174,1008.343
12.392109394,-20.02856,-150.9998,98.12302,0.6903087,0.6951512,0.03930886,-7.068196,-38.46076,-25.54536,1008.343
12.424391270,-82.06419,-87.89429,87.39746,1.1393,0.8255461,0.7245987,-8.088584,-36.2279,-22.94215,1008.343
12.456673145,-21.63988,59.56709,25.96923,2.542114,1.184528,1.797817,-8.088584,-36.2279,-22.94215,1008.343
12.491438389,-20.46238,6.969399,-49.17065,0.4541944,-0.4746876,0.6094251,-9.218824,-32.95219,-24.27433,1008.343
12.523715973,67.47825,20.94066,-60.07904,-0.5946268,0.3035109,1.083595,-9.257426,-31.51103,-25.59997,1008.343
12.558481217,51.24115,-11.16976,-22.11298,-0.2759158,1.649089,0.3228588,-9.257426,-31.51103,-25.59997,1008.343
12.590763092,-61.79881,-20.32739,-9.315434,0.03348833,1.105956,0.4389966,-9.2075,-32.58204,-23.84322,1008.345
12.625528336,-67.19051,-33.35941,14.32956,0.1143537,0.7231446,0.6479084,-9.206839,-32.94656,-23.8386,1008.343
12.657810211,-50.7675,-12.69603,29.19909,0.1762699,0.5470516,0.7545805,-9.206839,-32.94656,-23.8386,1008.343
12.690092087,-36.14171,-26.19767,21.2768,0.2442404,0.4613974,0.8399991,-8.493932,-32.59565,-24.28998,1008.343
12.724853039,-32.54724,-27.13692,5.858801,0.3102553,0.397639,0.9622878,-9.597555,-30.76674,-24.73223,1008.343
12.757134915,-26.10198,-29.71984,-0.2352691,0.3105272,0.4470968,0.8479934,-9.597555,-30.76674,-24.73223,1008.342
12.791900158,-34.40645,-40.22763,-17.66431,0.2977752,0.489319,0.7515732,-8.848692,-30.39894,-23.87643,1008.342
12.824182034,-37.25724,-31.59833,-17.42055,0.1878368,0.525425,0.6461424,-9.212792,-29.66591,-23.88015,1008.343
12.856463909,-5.092909,-21.26664,-10.47331,0.3572089,0.667142,0.6243449,-9.212792,-29.66591,-23.88015,1008.343
12.891228199,-25.04843,-13.57657,-1.332202,0.3604683,0.7023048,0.5732933,-9.950331,-29.66357,-24.30484,1008.342
12.923506737,-32.29935,-3.773209,4.822809,0.365641,0.555649,0.5608458,-9.575569,-29.66193,-23.87463,1008.342
12.958271027,-11.91001,9.845837,10.18559,0.3920784,0.4422363,0.6297591,-9.575569,-29.66193,-23.87463,1008.342
12.990552902,-15.9383,13.42671,0.4350786,0.3006267,0.4988944,0.7187477,-10.31311,-29.65958,-24.29933,1008.342
13.025318146,-21.88777,15.59871,-1.088439,0.3536302,0.4274639,0.8729277,-9.600201,-29.30868,-24.7507,1008.342
13.057600021,-9.740934,13.77892,-2.429134,0.1984224,0.4466099,0.9420193,-9.600201,-29.30868,-24.7507,1008.342
13.089881897,1.290378,2.625394,-1.271261,0.1084555,0.4628538,0.9563253,-9.274042,-28.96506,-26.06801,1008.342
13.124643326,6.991955,-8.46943,1.044486,0.3129531,0.4588654,0.8915645,-9.988272,-28.58693,-25.62587,1008.34
13.156924725,13.12735,-3.420992,0.1303751,0.323522,0.4278235,0.7187777,-9.988272,-28.58693,-25.62587,1008.34
13.191689968,15.17248,4.386477,-0.8446762,0.3318574,0.5572858,0.6440793,-9.625495,-28.59092,-25.63139,1008.34
13.223971844,-3.729488,9.200106,-1.515024,0.2989992,0.5709695,0.711426,-9.975625,-28.94581,-25.18553,1008.34
13.258737087,-2.613962,9.963242,-0.5399727,0.2586189,0.5195496,0.8519013,-9.612848,-28.9498,-25.19104,1008.34
13.291018963,-7.323961,5.149613,-1.575965,0.2572656,0.4832984,0.8657178,-9.612848,-28.9498,-25.19104,1008.336
13.323297024,0.9805099,6.147561,-2.307253,0.2973229,0.4943338,0.8038141,-9.998934,-29.32159,-26.05236,1008.34
13.358061791,-1.994226,6.088858,-3.343245,0.2664245,0.4700128,0.7931067,-9.999596,-28.95708,-26.05698,1008.34
13.425108433,-0.5068579,10.60897,-3.282304,0.2198054,0.5501762,0.7830274,-10.36303,-28.58858,-26.05608,1008.334
13.457390308,-6.580277,6.734588,-2.368194,0.2372589,0.5455292,0.8250225,-9.672775,-28.97797,-27.36968,1008.342
13.492155075,-3.915409,6.030155,-1.880668,0.235058,0.4687218,0.8671331,-9.672775,-28.97797,-27.36968,1008.337
13.524433136,-0.320937,4.269072,-2.794779,0.2298067,0.4382011,0.861653,-9.649466,-28.60219,-26.50284,1008.337
13.556715012,8.355375,2.390583,-4.623,0.2133332,0.4453475,0.8423917,-10.03423,-29.70301,-27.35493,1008.337
13.591480255,13.12735,1.451339,-2.551016,0.2304858,0.5327901,0.7843558,-10.03423,-29.70301,-27.35493,1008.337
13.623762131,6.558139,3.095016,-2.490075,0.2232157,0.5419837,0.790225,-10.01158,-28.96271,-26.49271,1008.337
13.658527374,1.848141,3.329827,-1.880668,0.2173773,0.5574561,0.7912924,-9.998273,-29.68611,-26.04775,1008.336
13.690808773,-3.605541,1.392636,-1.21032,0.2314639,0.5362591,0.8075784,-9.998273,-29.68611,-26.04775,1008.336
13.725570202,-2.0562,1.979663,-0.5399727,0.2465795,0.4845346,0.8111193,-10.01092,-29.32723,-26.48809,1008.336
13.757852078,4.017219,3.153719,-1.088439,0.2156518,0.4791507,0.8193738,-9.636157,-29.32558,-26.05788,1008.336
13.790133953,5.256692,2.390583,-1.697846,0.2208529,0.523635,0.8041455,-9.636157,-29.32558,-26.05788,1008.336
13.824899197,1.972089,1.68615,-1.454083,0.2130904,0.5367002,0.8105212,-9.284043,-30.06424,-26.48989,1008.334
13.857180596,3.52143,1.510041,-0.3571506,0.2174599,0.5255463,0.7998127,-10.02158,-30.0619,-26.91459,1008.334
13.891945839,0.422747,2.507988,-1.21032,0.2217459,0.5448323,0.7752578,-10.02158,-30.0619,-26.91459,1008.334
13.924223900,-3.171725,2.038366,-0.2352691,0.2285667,0.5333356,0.804184,-9.270735,-30.78763,-26.04493,1008.334
13.956505775,-2.675936,2.273177,-0.5399727,0.2079139,0.4835217,0.8305345,-10.37237,-30.05227,-26.47334,1008.334
13.991270065,4.017219,0.5120941,-0.5399727,0.2074408,0.4806315,0.8348699,-10.37237,-30.05227,-26.47334,1008.332
14.023551941,6.496165,0.3359857,-0.6009134,0.2087537,0.5299096,0.8095251,-10.01026,-29.69175,-26.48348,1008.332
14.058317184,1.972089,-0.251042,-0.1743284,0.1965578,0.5699903,0.7947927,-9.646158,-30.42476,-26.47976,1008.332
14.090599060,-0.320937,-0.1923392,0.9226043,0.2222869,0.5284571,0.7978851,-9.283381,-30.42875,-26.48528,1008.332
14.125360012,0.3607733,-0.1923392,0.55696,0.2257137,0.5105599,0.7972925,-9.283381,-30.42875,-26.48528,1008.332
14.157641888,0.2987996,0.6882024,-0.2352691,0.1947256,0.5278928,0.7974579,-9.658143,-30.4304,-26.91549,1008.334
14.189923763,-0.7547526,-0.4858531,0.55696,0.2237147,0.5474246,0.824579,-9.635496,-29.6901,-26.05326,1008.334
14.224689007,0.608668,-2.423045,1.044486,0.2063837,0.5149516,0.8244317,-9.635496,-29.6901,-26.05326,1008.334
14.256970882,1.228405,-1.953423,0.9835449,0.2222976,0.5192166,0.7842963,-10.3737,-29.32324,-26.48258,1008.338
14.291736126,0.4847206,-0.5445559,0.7397822,0.2281355,0.5076517,0.7938867,-9.647481,-29.69573,-26.48899,1008.338
14.324013710,0.7326153,-0.251042,0.2522565,0.2135915,0.5289555,0.8095092,-9.647481,-29.69573,-26.48899,1008.336
14.358778954,0.7326153,-0.1336365,0.1913158,0.219385,0.5299121,0.8012837,-9.658143,-30.4304,-26.91549,1008.336
14.391060829,1.910115,-0.4858531,0.6179007,0.225692,0.5202433,0.798798,-9.64682,-30.06025,-26.48438,1008.335
14.423342705,1.166431,0.4533913,0.55696,0.2116493,0.5284284,0.7983913,-9.64682,-30.06025,-26.48438,1008.335
14.458106995,0.6706417,-0.8380698,0.6179007,0.1952112,0.5293689,0.8042334,-10.0096,-30.05626,-26.47886,1008.335
14.490389824,1.786168,-1.777314,1.288248,0.2072667,0.5478353,0.8168818,-10.02092,-30.42641,-26.90997,1008.335
14.525150299,-1.684358,-2.423045,2.141418,0.2314351,0.5420039,0.7892405,-10.02092,-30.42641,-26.90997,1008.335
14.557432175,-1.870278,-1.777314,2.080478,0.2266731,0.5085761,0.7822925,-9.986287,-29.68048,-25.61202,1008.335
14.592197418,-0.4448843,-0.3684476,0.9835449,0.2330407,0.4771682,0.7908022,-10.00893,-30.42078,-26.47425,1008.335
14.624479294,7.921559,0.5120941,1.227308,0.2276619,0.5076913,0.8059739,-10.00893,-30.42078,-26.47425,1008.335
14.656760693,3.831298,-0.07493369,-0.5399727,0.2140668,0.5299001,0.8022619,-9.635496,-29.6901,-26.05326,1008.335
14.691525936,3.397483,0.6882024,0.008493673,0.2202334,0.5704715,0.7739565,-9.997611,-30.05063,-26.04313,1008.335
14.723803997,-1.932252,0.6882024,0.1303751,0.2343715,0.5270088,0.7886655,-9.997611,-30.05063,-26.04313,1008.336
14.758569241,0.1748523,1.451339,0.2522565,0.2146077,0.5027737,0.7938881,-9.997611,-30.05063,-26.04313,1008.335
14.790851116,3.769325,0.2185802,0.06943437,0.2228642,0.4965945,0.8199409,-10.0096,-30.05626,-26.47886,1008.335
14.823132515,2.591825,-0.6032587,-0.7227948,0.2139867,0.559866,0.7913135,-10.0096,-30.05626,-26.47886,1008.335
14.857897759,-0.1969896,-0.01623091,-0.1133877,0.212538,0.5540056,0.7767801,-10.36039,-30.04664,-26.03762,1008.335
14.890179634,-1.932252,-0.07493369,0.1913158,0.2223285,0.5110373,0.7982694,-9.996949,-30.41514,-26.03852,1008.336
14.924941063,5.56656,-0.9554754,0.4350786,0.2238788,0.4792021,0.8275748,-9.996949,-30.41514,-26.03852,1008.344
14.957222939,10.27656,0.7469052,-0.6009134,0.2411274,0.5235505,0.7620422,-9.997611,-30.05063,-26.04313,1008.344
14.991987228,4.946824,2.097069,-2.490075,0.2159219,0.5530344,0.7728997,-10.34774,-30.40552,-25.59727,1008.344
15.024269104,7.301823,2.155772,-0.7227948,0.2124872,0.5845816,0.8030598,-9.985626,-30.04499,-25.60741,1008.34
15.056550980,-0.320937,1.568744,-0.7837355,0.2265793,0.5487471,0.7839715,-9.985626,-30.04499,-25.60741,1008.342
15.091316223,4.389061,2.860205,-1.575965,0.2280891,0.5191873,0.7707473,-9.996949,-30.41514,-26.03852,1008.34
15.123593807,5.504587,3.447233,-2.06349,0.234831,0.5366837,0.7872692,-9.622188,-30.4135,-25.60831,1008.34
15.158359051,5.008798,4.797397,-2.246312,0.1946328,0.5563397,0.7666798,-9.622188,-30.4135,-25.60831,1008.34
15.190640926,5.752481,4.269072,-2.06349,0.1966061,0.5521095,0.8019425,-9.258088,-31.14652,-25.60459,1008.34
15.225406170,8.665243,3.858152,-0.7837355,0.2323762,0.5516722,0.7854259,-9.620203,-31.50704,-25.59446,1008.34
15.257688046,6.496165,3.623341,-2.185372,0.2043201,0.5456849,0.7559626,-9.620203,-31.50704,-25.59446,1008.344
15.289969921,7.673665,5.384424,-2.611957,0.208626,0.5714062,0.7739869,-9.996949,-30.41514,-26.03852,1008.342
15.324730873,6.372218,5.736641,-2.06349,0.1737604,0.5930883,0.7756355,-9.620203,-31.50704,-25.59446,1008.342
15.357012749,6.558139,0.9230135,-1.697846,0.1927506,0.5497083,0.810639,-9.620203,-31.50704,-25.59446,1008.342
15.391777992,13.80906,4.503883,0.6179007,0.2149093,0.5655482,0.7536355,-9.621526,-30.77801,-25.60369,1008.342
15.424059868,10.83432,4.03426,-2.185372,0.166103,0.5591879,0.7744924,-9.608217,-31.50141,-25.15873,1008.342
15.458825111,11.39208,2.390583,-1.088439,0.1818746,0.633232,0.76231,-9.608217,-31.50141,-25.15873,1008.338
15.491106987,6.558139,0.3359857,0.7397822,0.2041705,0.6164105,0.7776363,-9.607555,-31.86592,-25.15412,1008.338
15.523384571,4.079193,1.216527,0.1913158,0.1795815,0.5785215,0.7562026,-9.232132,-32.22879,-24.71929,1008.34
15.558149338,4.698929,0.805608,-1.515024,0.1877481,0.6027562,0.7606738,-9.232132,-32.22879,-24.71929,1008.34
15.590431214,3.149588,0.6882024,-1.454083,0.2108919,0.6304016,0.7593307,-9.244118,-32.23443,-25.15502,1008.34
15.625195980,0.3607733,0.6882024,-0.4180913,0.1761571,0.587144,0.733054,-9.232794,-31.86428,-24.7239,1008.342
15.657477856,0.7326153,2.273177,-1.636905,0.1717757,0.6070446,0.7544479,-9.232794,-31.86428,-24.7239,1008.342
15.689759731,0.1748523,1.040419,-0.7837355,0.1775454,0.6254948,0.7675932,-9.232132,-32.22879,-24.71929,1008.34
15.724521160,-3.357646,1.216527,0.1913158,0.1848984,0.5814599,0.7620091,-9.958347,-31.8563,-24.71287,1008.342
15.756803036,0.5466943,1.68615,-0.6009134,0.1863398,0.5887558,0.7717163,-9.958347,-31.8563,-24.71287,1008.342
15.791567803,4.079193,1.157825,-1.027498,0.1742218,0.6017938,0.7737503,-9.244118,-32.23443,-25.15502,1008.342
15.823849678,2.591825,0.8643107,-0.2962099,0.1804775,0.6065725,0.7505589,-8.868694,-32.5973,-24.72019,1008.342
15.858614922,1.414326,2.33188,-0.3571506,0.1896371,0.6147912,0.7404337,-9.232132,-32.22879,-24.71929,1008.342
15.890896797,-0.1969896,1.979663,-0.9665576,0.1819058,0.6187011,0.7583598,-9.232132,-32.22879,-24.71929,1008.34
15.923174858,-0.5068579,1.568744,-0.5399727,0.1756739,0.596429,0.7601804,-9.582262,-32.58369,-24.27343,1008.342
15.957939625,1.228405,2.097069,-0.8446762,0.188753,0.5872782,0.7620339,-9.59491,-32.22481,-24.71377,1008.34
15.990221500,0.794589,1.510041,-0.6009134,0.1693811,0.5963832,0.7519752,-9.59491,-32.22481,-24.71377,1008.34
16.024986744,1.166431,-0.01623091,-0.479032,0.1509757,0.6025562,0.7327124,-9.232132,-32.22879,-24.71929,1008.34
16.057268620,1.600247,0.5120941,-0.1133877,0.2036758,0.6207612,0.7766953,-9.969009,-32.59097,-25.13937,1008.34
16.092033386,1.538273,0.5707968,-0.4180913,0.1810225,0.5902137,0.7780208,-9.969009,-32.59097,-25.13937,1008.338
16.124310970,4.698929,1.451339,-1.14938,0.1766175,0.6026867,0.7495782,-9.594248,-32.58932,-24.70916,1008.336
16.156592846,3.955246,1.920961,-1.14938,0.1934768,0.6269004,0.7404943,-9.582924,-32.21917,-24.27805,1008.338
16.191358089,-0.5068579,2.507988,-1.088439,0.1625076,0.6291628,0.7202695,-9.582924,-32.21917,-24.27805,1008.338
16.223639965,-3.41962,1.920961,-0.3571506,0.172236,0.6177006,0.7569247,-9.231471,-32.59331,-24.71467,1008.338
16.258405209,-0.8167262,1.157825,0.008493673,0.1467042,0.5857733,0.781937,-8.856709,-32.59167,-24.28446,1008.338
16.290687084,3.211562,-0.251042,0.4960193,0.1660053,0.5998314,0.77279,-8.856709,-32.59167,-24.28446,1008.336
16.325448036,2.83972,-0.251042,0.1913158,0.194994,0.6003033,0.7446908,-9.957685,-32.22082,-24.70826,1008.336
16.357729912,1.724194,1.157825,-0.1133877,0.1809233,0.6181456,0.7380544,-10.30782,-32.57571,-24.2624,1008.336
16.390011788,0.2987996,1.568744,-0.479032,0.1601123,0.6287605,0.7463781,-10.30782,-32.57571,-24.2624,1008.336
16.424777031,-0.3829106,1.627447,-0.1743284,0.1650071,0.6104505,0.7656009,-9.219486,-32.58768,-24.27895,1008.336
16.457058907,1.848141,0.5707968,-0.1743284,0.1679618,0.5882013,0.7664349,-9.594248,-32.58932,-24.70916,1008.336
16.491823673,5.752481,0.805608,-0.9056169,0.1712973,0.6070645,0.7607338,-9.594248,-32.58932,-24.70916,1008.336
16.524101734,4.636955,1.392636,-0.8446762,0.1770453,0.6171175,0.7235537,-9.218824,-32.95219,-24.27433,1008.336
16.556383610,3.707351,2.860205,-1.088439,0.1727132,0.612789,0.7351409,-10.30848,-32.21119,-24.26702,1008.335
16.591148853,3.645377,3.79945,-1.575965,0.1697752,0.6365736,0.758971,-10.30848,-32.21119,-24.26702,1008.335
16.623430729,2.901693,3.036314,-1.575965,0.1655175,0.5910161,0.7422842,-9.218163,-33.3167,-24.26971,1008.335
16.658195019,7.42577,5.971452,-2.733838,0.1828965,0.599255,0.7311745,-9.2075,-32.58204,-23.84322,1008.336
16.690476895,6.991955,5.854047,-3.952652,0.1494495,0.6427983,0.756633,-9.2075,-32.58204,-23.84322,1008.336
16.725237847,7.487744,4.44518,-5.963696,0.1698216,0.6196622,0.7666098,-9.580278,-33.67723,-24.25958,1008.336
16.757519722,9.904716,8.084753,-5.841814,0.182345,0.6317129,0.7419959,-9.242133,-33.32798,-25.14117,1008.336
16.789801598,6.806034,11.37211,-8.523205,0.1885309,0.6660111,0.7189726,-9.242133,-33.32798,-25.14117,1008.336
16.824566841,0.5466943,14.30725,-15.65327,0.2164735,0.7326123,0.7850387,-9.218824,-32.95219,-24.27433,1008.332
16.856848717,-1.126595,17.35979,-24.06309,0.1804285,0.6620778,0.850463,-8.853401,-34.41425,-24.26138,1008.332
16.891613960,9.532875,19.12087,-32.22914,0.2002887,0.6446868,0.8425863,-9.579617,-34.04175,-24.25497,1008.335
16.923891544,13.68511,22.40823,-39.29826,0.1982947,0.6434563,0.7666838,-9.579617,-34.04175,-24.25497,1008.335
16.958656788,13.0034,27.45667,-44.84386,0.1304436,0.6919774,0.7192454,-8.852078,-35.14327,-24.25215,1008.336
16.990938663,5.814455,33.97268,-49.65818,0.06215464,0.7343338,0.7094812,-8.86208,-36.24246,-24.67403,1008.336
17.023220539,-1.56041,41.83885,-49.29254,0.1118879,0.734178,0.6213873,-8.86208,-36.24246,-24.67403,1008.335
17.057985783,-20.4004,47.70913,-52.33957,0.06382498,0.6365368,0.6949018,-8.147188,-36.9851,-25.11156,1008.335
17.090267658,-12.15791,48.41356,-50.26759,0.07272291,0.5860556,0.7849987,-7.407664,-38.08099,-24.67301,1008.331
17.125028610,-3.41962,45.88934,-53.49744,-0.04033319,0.5431168,0.7762963,-7.407664,-38.08099,-24.67301,1008.331
17.157310486,-1.188568,44.18696,-54.7772,-0.1043519,0.587102,0.6722616,-7.428988,-39.55032,-25.526,1008.331
17.192075253,6.991955,50.93778,-53.61933,-0.1524362,0.6359261,0.5546838,-6.702774,-39.92281,-25.53242,1008.331
17.224357128,-19.16093,58.92136,-55.69131,-0.2588878,0.6851695,0.6103052,-6.702774,-39.92281,-25.53242,1008.331
17.256639004,-32.85711,62.67834,-55.02096,-0.3764893,0.5491053,0.685685,-5.975897,-40.65982,-25.53422,1008.331
17.291403771,-10.54659,62.38483,-52.33957,-0.4924697,0.5422246,0.7526103,-5.260344,-41.76698,-25.96713,1008.333
17.323681831,6.124323,59.21487,-48.50031,-0.3735289,0.547404,0.7523834,-5.260344,-41.76698,-25.96713,1008.335
17.358447075,5.814455,60.03671,-51.30358,-0.3344543,0.5652133,0.6910038,-4.910213,-41.41209,-26.41298,1008.331
17.390728951,-0.2589633,64.0872,-55.81319,-0.3861564,0.529547,0.63435,-4.861611,-41.75406,-24.66546,1008.331
17.423010826,-1.870278,69.31175,-58.92117,-0.3054321,0.5194008,0.5707878,-4.861611,-41.75406,-24.66546,1008.335
17.457775593,-9.059223,82.10896,-66.17312,-0.3935954,0.5654064,0.51226,-3.785266,-41.77166,-25.11773,1008.335
17.490057469,-22.56948,89.56421,-67.75758,-0.7607475,0.4211293,0.5170653,-3.083557,-42.12659,-23.81605,1008.335
17.524818897,-14.88475,93.14508,-61.90726,-0.9824756,0.3334433,0.5334815,-3.083557,-42.12659,-23.81605,1008.335
17.557100773,-7.881724,89.21199,-52.15675,-0.9364862,0.3142454,0.5414917,-2.358004,-42.13457,-23.82708,1008.335
17.591866017,3.087615,88.09664,-45.33139,-0.8123122,0.342052,0.5022236,-1.571862,-42.47889,-21.65486,1008.335
17.624147415,7.363797,86.80518,-45.02669,-0.7320434,0.3310429,0.4700811,-1.571862,-42.47889,-21.65486,1008.336
17.656429291,15.97814,83.98744,-47.09867,-0.8385192,0.3342515,0.3644557,-1.549876,-41.37407,-20.79726,1008.338
17.691194534,17.65142,78.46938,-43.56411,-0.8624196,0.3953888,0.2899218,-0.4122806,-42.09253,-19.06166,1008.338
17.723472595,15.42037,71.71857,-36.25122,-1.380925,0.2022869,0.1521614,0.3731997,-42.07233,-16.89406,1008.338
17.758236885,-0.5688316,54.40125,-27.41482,-1.156618,0.2442228,0.1992933,0.3731997,-42.07233,-16.89406,1008.34
17.790518761,7.673665,46.82859,-20.40664,-0.8098683,0.2458993,0.2580185,0.4211409,-42.0498,-15.15115,1008.338
17.825284004,4.327087,39.54944,-25.09908,-0.690519,0.2893743,0.2768626,1.170004,-41.68199,-14.29535,1008.334
17.857565880,3.087615,37.96447,-27.71953,-0.9753618,0.2693593,0.180675,1.170004,-41.68199,-14.29535,1008.336
17.889847756,5.56656,32.56381,-24.48967,-1.195297,0.2099227,0.1063615,1.581383,-42.02795,-12.55334,1008.336
17.924608707,3.211562,24.58023,-16.4455,-1.06867,0.2442352,0.1285218,1.943499,-41.66742,-12.56347,1008.337
17.956890583,1.538273,23.28877,-15.53139,-0.8533998,0.2310638,0.2009822,1.943499,-41.66742,-12.56347,1008.339
17.991655827,1.290378,23.05396,-18.15184,-0.8654013,0.200604,0.2192056,1.966808,-41.29164,-11.69663,1008.339
18.023937702,5.814455,22.70174,-19.67535,-0.988792,0.2140642,0.1542838,3.0558,-41.66812,-11.70856,1008.341
18.058702946,3.893272,21.29288,-15.89703,-1.1517,0.1737229,0.09735977,3.0558,-41.66812,-11.70856,1008.341
18.090984821,4.513008,17.71201,-8.03568,-1.12848,0.1679658,0.0924426,2.716332,-41.28835,-10.83621,1008.341
18.123262405,6.000376,16.47925,-6.085577,-0.8858029,0.207492,0.1269519,2.01541,-41.63362,-9.94911,1008.341
18.158027649,6.868007,13.54411,-7.913798,-0.9180776,0.1644165,0.1523988,2.01541,-41.63362,-9.94911,1008.341
18.190309525,11.33011,10.72638,-6.024636,-1.019189,0.1609882,0.08298205,2.752288,-41.27145,-9.52903,1008.345
18.225074768,5.442613,10.19805,-1.819728,-1.058524,0.2105144,0.02243515,2.412159,-40.52716,-8.661293,1008.345
18.257356644,-3.605541,9.611025,1.592952,-0.9574194,0.1987657,0.04003768,2.412159,-40.52716,-8.661293,1008.345
18.292358875,-6.518303,10.37416,1.349189,-0.9182068,0.1975996,0.09119104,3.149698,-40.5295,-8.236597,1008.347
18.324636936,-1.002647,7.086805,2.507063,-1.099451,0.1617626,0.09379509,3.151021,-41.25853,-8.227365,1008.345
18.356918812,3.149588,4.562585,2.324241,-1.01393,0.1895846,0.09183521,3.151021,-41.25853,-8.227365,1008.345
18.391684055,2.529851,5.736641,-1.819728,-0.8926958,0.2406802,0.07301034,2.425467,-41.25056,-8.216333,1008.347
18.423965931,-3.729488,7.262913,-4.805822,-1.057065,0.2149509,0.04517885,2.788244,-41.25454,-8.221849,1008.347
18.458730698,0.9805099,4.679991,-1.14938,-1.042814,0.1431215,0.1143549,2.788244,-41.25454,-8.221849,1008.348
18.491012573,10.09064,7.497725,-2.91666,-0.9279835,0.2362272,0.07402796,2.437453,-41.24492,-7.780607,1008.347
18.523290634,-1.994226,10.25676,-5.049585,-0.9947002,0.2170306,0.03490406,3.17433,-40.88275,-7.360528,1008.348
18.558054924,1.66222,7.849942,-5.902755,-1.001799,0.1673175,0.07959648,3.17433,-40.88275,-7.360528,1008.354
18.590336800,5.56656,7.673833,-7.121569,-0.9767795,0.203033,0.0304349,2.461424,-41.23365,-6.909154,1008.354
18.625102043,0.608668,8.319564,-8.340384,-0.9936585,0.1938867,0.05894215,3.538431,-41.61577,-7.356811,1008.352
18.657383919,2.901693,7.380319,-9.254494,-0.998982,0.1821245,0.01972821,3.538431,-41.61577,-7.356811,1008.352
18.692149162,3.335509,7.086805,-11.75306,-0.9878576,0.1836343,0.02744784,3.538431,-41.61577,-7.356811,1008.352
18.724426747,0.3607733,7.791239,-11.69212,-1.016713,0.1275155,0.05668071,3.198301,-40.87148,-6.489074,1008.354
18.756708622,7.487744,7.439022,-11.02177,-0.9863327,0.1512054,0.02435953,3.573725,-41.23435,-6.054247,1008.354
18.791473866,3.025641,7.967347,-11.87494,-1.003323,0.1753158,0.01341415,3.573725,-41.23435,-6.054247,1008.354
18.823755741,0.9805099,7.20421,-13.33752,-1.001801,0.1394535,-0.003229956,3.572402,-40.50531,-6.063478,1008.35
18.858520985,1.042484,6.675886,-13.88599,-1.009492,0.1293606,0.0238018,3.208963,-40.13681,-6.062579,1008.354
18.890802860,4.760903,6.147561,-14.25163,-0.9925612,0.1206393,0.006311928,3.208963,-40.13681,-6.062579,1008.354
18.925563812,1.538273,8.319564,-13.4594,-1.021051,0.1070372,0.01499789,3.572402,-40.50531,-6.063478,1008.352
18.957845688,1.104457,8.026051,-12.48435,-1.008458,0.0949422,0.0052332,3.607035,-39.75938,-4.76553,1008.352
18.990127563,4.141166,5.912749,-12.97188,-1.006099,0.1005728,-0.048885,3.607035,-39.75938,-4.76553,1008.352
19.024892807,1.786168,3.682044,-13.39846,-1.010896,0.1041365,0.007224487,3.607035,-39.75938,-4.76553,1008.347
19.057174683,1.414326,3.916855,-12.48435,-1.015178,0.06971762,-0.006981709,4.671394,-39.78261,-5.65353,1008.348
19.091939926,3.273535,2.7428,-10.77801,-1.00697,0.07360107,-0.01036139,4.671394,-39.78261,-5.65353,1008.35
19.124217510,-0.8786999,2.33188,-8.94979,-1.009369,0.07024925,0.00219413,4.31928,-39.04396,-5.221519,1008.35
19.158982277,-1.064621,1.392636,-7.060628,-1.030151,0.04824594,-0.04719694,4.318619,-38.67944,-5.226135,1008.348
19.191264153,-1.498436,-2.892667,-6.268399,-1.003638,0.08609625,-0.0388204,4.318619,-38.67944,-5.226135,1008.35
19.223545551,-4.411199,-3.5971,-4.927703,-1.007878,0.05185428,-0.0008143103,3.955842,-38.67546,-5.22062,1008.35
19.258310795,-1.064621,-0.4271504,-5.232407,-1.020431,0.04945439,0.01563601,4.318619,-38.67944,-5.226135,1008.35
19.290592671,1.104457,-3.773209,-5.963696,-1.022457,0.06372593,-0.05534396,4.318619,-38.67944,-5.226135,1008.35
19.325354099,-3.41962,-7.471484,-8.279443,-1.001675,0.08279946,-0.01370457,3.941872,-37.58754,-5.670194,1008.35
19.357635975,-7.261988,-3.655803,-11.93588,-1.004909,0.03992489,0.04648846,5.04285,-37.95839,-5.246398,1008.348
19.389917851,-7.13804,-1.131584,-13.09376,-1.029609,0.04164596,0.004008869,5.04285,-37.95839,-5.246398,1008.348
19.424682617,-8.377513,-5.710401,-15.28762,-0.9973491,0.07195581,-0.07565571,5.030864,-37.96403,-5.682125,1008.347
19.456964493,-11.29028,-8.704242,-23.57556,-1.019006,0.06254426,0.02150864,5.031526,-38.32854,-5.677509,1008.347
19.491729736,-7.943698,-2.246937,-27.35388,-1.073963,-0.001424739,0.04108435,5.006232,-37.61078,-6.558194,1008.345
19.524007797,-12.59172,0.3359857,-24.24591,-1.058265,0.1060317,0.0353768,5.006232,-37.61078,-6.558194,1008.345
19.558772564,27.75313,-1.718611,-26.9273,-1.119754,0.1426724,0.04683675,5.367686,-36.88573,-6.572942,1008.345
19.591054440,79.25324,2.918908,-23.20992,-1.070207,0.02011249,-0.03276741,5.366363,-36.1567,-6.582173,1008.345
19.623336315,119.4742,-2.070828,12.07475,-1.019215,-0.1259225,-0.1864743,5.366363,-36.1567,-6.582173,1008.345
19.658101559,102.5553,4.44518,44.19051,-1.031095,0.3780959,-0.2440127,5.402318,-36.1398,-5.274993,1008.345
19.690383434,18.8909,-15.27895,50.83304,-1.079494,0.223891,-0.1538987,4.737236,-38.29235,-3.182126,1008.345
19.725143910,26.45168,-1.601206,50.89398,-0.972736,0.1197183,0.003363331,4.737236,-38.29235,-3.182126,1008.349
19.757425785,53.90602,2.214475,63.26495,-0.9798149,0.06324501,0.05236823,5.114644,-39.74877,-2.733451,1008.349
19.792191029,79.37719,9.611025,56.56147,-0.9339336,0.09295494,0.06984206,4.394382,-42.65692,-2.685493,1008.347
19.824472904,72.43614,7.967347,48.94388,-0.8813577,0.1433867,0.05599578,4.394382,-42.65692,-2.685493,1008.347
19.856754780,49.87773,15.59871,43.21545,-0.8125439,0.09240615,0.09084862,4.107486,-44.80622,-0.03792143,1008.349
19.891520024,29.92221,4.151666,47.72507,-0.7752843,-0.09351298,0.1747964,3.760003,-46.61917,0.4264002,1008.347
19.923797607,12.94143,-4.536345,-22.96615,-0.9205031,-0.5997131,0.2926074,3.760003,-46.61917,0.4264002,1008.347
19.958562851,-27.4654,1.157825,-5.293348,-1.212578,0.2235942,0.2998519,3.109668,-48.39997,3.074872,1008.346
19.990844727,70.51496,-1.190286,1.592952,-1.258099,0.1831121,0.1019934,3.835884,-48.77246,3.068457,1008.346
20.025609970,16.16406,0.1598774,17.07189,-1.016576,0.2843664,-0.4974154,3.835884,-48.77246,3.068457,1008.346
20.057891846,-36.94737,-2.95137,13.41545,-1.245487,0.2888193,-0.1319005,3.158932,-49.10646,4.827011,1008.346
20.090173721,-29.13869,-0.6619615,18.90011,-0.8699605,0.08836295,0.23163,3.870517,-48.02653,4.366405,1008.346
20.124934673,17.21761,-4.301534,13.47639,-0.9193978,0.2557983,-0.01289824,3.870517,-48.02653,4.366405,1008.346
20.157216549,-9.740934,-1.601206,8.844895,-1.019207,0.3147976,-0.08292972,3.473768,-49.13299,3.078588,1008.346
20.191981792,-23.99487,-7.119267,17.01095,-1.09329,0.1573522,-0.07061242,3.847869,-48.76683,3.504183,1008.344
20.224263668,1.414326,-10.17181,16.21872,-0.9526616,0.2189817,0.003884471,3.847869,-48.76683,3.504183,1008.344
20.256545544,-6.518303,-9.702188,14.3905,-1.04758,0.2801779,0.006854192,3.825883,-49.87165,2.646577,1008.348
20.291310310,-3.915409,-12.109,16.70625,-1.013179,0.2453775,-0.009854738,2.736891,-49.49516,2.658508,1008.35
20.323588371,-6.208435,-10.46532,15.48743,-1.072251,0.2966789,0.04180878,2.736891,-49.49516,2.658508,1008.35
20.358352661,-9.059223,-12.34381,16.21872,-1.032471,0.2582369,0.08839801,3.076358,-49.87494,1.786155,1008.35
20.390634537,2.034062,-9.819594,14.0858,-0.8864879,0.2789793,0.08820133,1.964718,-50.23875,0.9358635,1008.35
20.425399780,1.042484,-6.708348,8.35737,-0.8991443,0.3103578,0.07632105,1.964057,-49.87424,0.9312477,1008.35
20.457681656,1.600247,-5.945212,2.872707,-0.9590708,0.2912656,0.06232193,1.964057,-49.87424,0.9312477,1008.35
20.489963532,7.921559,-5.651698,-0.9665576,-0.9663633,0.2979233,0.03385262,2.678287,-50.25237,0.4891057,1008.35
20.524724484,8.727217,-3.714506,-5.598052,-0.9344932,0.3159133,0.03195247,2.689611,-49.88222,0.9202166,1008.344
20.557006359,4.079193,-1.014178,-8.645086,-0.8987033,0.3072509,0.0158726,2.689611,-49.88222,0.9202166,1008.344
20.591771603,0.422747,2.097069,-10.59519,-0.9010648,0.2815777,0.01041389,2.702258,-50.2411,1.360559,1008.346
20.624053478,-4.225278,5.795344,-11.14366,-0.950965,0.311339,-0.01879911,3.053049,-50.25072,0.9193172,1008.346
20.658818722,-14.07909,5.384424,-7.791917,-1.01663,0.2734373,-0.009204316,3.053049,-50.25072,0.9193172,1008.346
20.691100598,-16.68198,7.439022,-3.830771,-1.038857,0.2661099,-0.01064839,2.338158,-49.50808,1.356843,1008.344
20.723378182,-19.4708,5.50183,1.592952,-1.040212,0.2322946,0.008016368,2.677625,-49.88785,0.4844899,1008.343
20.758143425,-12.6537,9.963242,6.711971,-0.9864805,0.2116768,0.01890242,2.677625,-49.88785,0.4844899,1008.344
20.790425301,-11.84804,12.37006,7.016675,-0.95074,0.2335952,0.03055255,3.027093,-49.16844,0.03401566,1008.343
20.825190544,-9.988829,14.36595,3.11647,-0.9522777,0.2752564,0.04481247,2.290216,-49.53062,-0.3860641,1008.343
20.857472420,-8.811329,17.24238,5.005631,-0.9122458,0.307199,0.01203398,2.290216,-49.53062,-0.3860641,1008.343
20.892237663,-12.21988,24.69764,3.055529,-0.8945199,0.3666718,-0.01763926,2.278892,-49.90077,-0.8171751,1008.341
20.924515247,-20.15251,25.46077,11.95287,-0.952558,0.3620556,-0.04557987,2.653655,-49.89912,-0.3869638,1008.341
20.956797123,-13.70725,25.22596,20.42363,-0.9854197,0.365951,-0.01067931,2.653655,-49.89912,-0.3869638,1008.341
20.991561890,-9.431066,19.29698,25.72547,-0.9689059,0.3399133,0.003156774,2.290877,-49.89513,-0.3814483,1008.341
21.023843765,3.52143,15.71611,26.03017,-0.9675096,0.3611939,-0.001559623,2.678287,-50.25237,0.4891057,1008.341
21.058608532,1.724194,8.730484,26.57864,-0.9810575,0.3625857,-0.007807213,2.678287,-50.25237,0.4891057,1008.341
21.090890408,-12.77764,6.969399,25.42077,-0.8881953,0.3541437,-0.007088476,2.302863,-49.8895,0.05427837,1008.339
21.125651836,-32.23737,10.72638,19.99705,-0.8265312,0.2341805,-0.04464482,2.293523,-51.3532,-0.3629847,1008.339
21.157933712,-43.02079,12.95708,5.371275,-0.871666,0.09463327,-0.05887728,2.293523,-51.3532,-0.3629847,1008.339
21.190215588,-22.13567,13.13319,1.653893,-1.077666,0.3011557,-0.06064311,2.645638,-52.09185,-0.7949953,1008.339
21.224980831,-1.746331,10.02194,7.44326,-1.16192,0.5588881,-0.04787698,1.895452,-51.73063,-1.660034,1008.337
21.257262230,-27.4654,7.967347,8.479252,-0.9835355,0.3637947,-0.07741018,1.895452,-51.73063,-1.660034,1008.337
21.292027474,-23.37514,7.556427,6.772912,-0.8552533,0.3080663,-0.06591754,2.246905,-52.10476,-2.09666,1008.337
21.324305534,-14.82277,13.01579,3.96964,-0.8561096,0.4736455,-0.04225261,2.222273,-51.75152,-2.97273,1008.337
21.356587410,-22.07369,8.671781,-0.2962099,-0.9281582,0.4709953,-0.04936398,2.58505,-51.75551,-2.978245,1008.337
21.391352654,-19.2229,5.971452,-0.6009134,-0.9463547,0.4057107,-0.02068965,2.58505,-51.75551,-2.978245,1008.339
21.423634529,-20.21448,7.321616,2.994588,-0.9378243,0.471965,-0.04063574,1.474851,-51.02417,-3.717891,1008.341
21.458399296,-16.80593,7.791239,11.40441,-0.9176925,0.5353046,-0.07367627,2.539211,-51.0474,-4.605891,1008.341
21.490681172,-7.881724,7.497725,26.5177,-0.9931705,0.5647119,-0.04288974,2.539211,-51.0474,-4.605891,1008.339
21.525442600,25.64603,15.3639,42.5451,-1.072225,0.6358311,-0.1240161,2.177095,-51.40793,-4.595759,1008.339
21.557724476,18.33314,12.01784,48.76106,-1.047193,0.6706197,-0.161097,1.816303,-52.49749,-4.576396,1008.339
21.590006352,9.718796,15.3639,49.91893,-1.000492,0.5448622,-0.1822172,1.816303,-52.49749,-4.576396,1008.339
21.624770641,26.51366,25.69559,56.37865,-0.8747146,0.4995161,-0.24656,1.092733,-53.58306,-4.551518,1008.341
21.657052517,28.00103,34.14879,59.06004,-0.8390912,0.5541795,-0.2825839,0.7559116,-54.66135,-3.660701,1008.343
21.691817761,23.97274,42.7781,58.75533,-0.8402247,0.6228782,-0.2870252,0.7559116,-54.66135,-3.660701,1008.343
21.724095345,13.56116,50.99648,51.80809,-0.9106284,0.5340536,-0.3062326,0.05222726,-55.37275,-2.893478,1008.341
21.758860588,39.838,61.09336,50.52834,-0.8942518,0.3476999,-0.3329498,0.1141381,-56.43812,-0.7009964,1008.341
21.791142464,113.0909,83.75263,56.74429,-0.7575585,0.3489352,-0.5125931,0.1141381,-56.43812,-0.7009964,1008.339
21.823424339,98.96087,103.7703,35.29316,-0.7777638,0.6419251,-0.7173119,-0.9122815,-57.49153,1.508032,1008.339
21.858189583,8.60327,110.5211,13.41545,-0.8035057,0.5129069,-0.639673,-1.49335,-57.78045,6.7524,1008.339
21.890471459,55.20746,117.5654,12.86698,-0.7868382,0.2559234,-0.5169263,-1.49335,-57.78045,6.7524,1008.337
21.925232410,158.8894,146.0363,12.80604,-0.7139564,0.6180772,-0.8113722,-2.123021,-57.7274,10.24925,1008.337
21.957514286,66.1768,129.1299,-13.88599,-0.8685915,0.9702839,-0.8496451,-2.644289,-57.65247,15.48808,1008.343
21.989796162,-10.36067,124.8446,-12.78905,-0.821623,0.5993905,-0.6652479,-2.644289,-57.65247,15.48808,1008.342
22.024561405,94.12692,129.7756,2.568003,-0.7782751,0.6359445,-0.7681059,-1.882653,-57.97923,18.9684,1008.342
22.056843281,93.25929,125.3142,0.7397822,-0.7131937,0.8971936,-0.8436275,-2.14835,-58.32351,20.28479,1008.342
22.091608524,24.5305,100.072,-4.988644,-0.6781149,0.7996738,-0.8046156,-2.14835,-58.32351,20.28479,1008.338
22.123886108,52.97641,89.91643,-2.611957,-0.6034406,0.5325169,-0.7342632,-2.081069,-55.73809,22.86684,1008.336
22.158651352,112.9049,79.76084,2.872707,-0.4467656,0.5271266,-0.7438169,-2.433183,-54.99944,23.29885,1008.331
22.190933228,128.9561,74.5363,8.601133,-0.3290373,0.6016547,-0.8422683,-2.433183,-54.99944,23.29885,1008.333
22.223215103,88.48732,57.92341,6.285386,-0.2364426,0.7108516,-0.8278272,-3.078147,-53.12944,26.33689,1008.333
22.257979393,36.98721,36.90782,11.40441,-0.1308864,0.4874939,-0.7108823,-2.627154,-49.80852,29.7134,1008.333
22.290261269,72.43614,24.22802,18.65635,-0.05559045,0.3508498,-0.6842655,-2.583181,-47.59888,31.42861,1008.33
22.325022698,118.0488,16.47925,22.73938,-0.005837598,0.3581053,-0.7273576,-2.583181,-47.59888,31.42861,1008.326
22.357304573,110.5499,7.61513,23.40973,0.01391937,0.3671634,-0.7843944,-2.92728,-44.6675,32.26865,1008.324
22.392069340,78.50956,-4.771156,24.8723,0.051976,0.2347845,-0.7528387,-3.211452,-41.70794,35.28733,1008.324
22.424351215,83.71535,-12.51992,29.5038,0.05466495,0.1201004,-0.7534965,-3.211452,-41.70794,35.28733,1008.323
22.456633091,105.778,-18.68372,34.68375,0.07177433,0.03588787,-0.7709326,-3.181449,-38.4104,36.55297,1008.318
22.491398335,115.5698,-20.91442,40.77782,0.04041944,-0.004937168,-0.796236,-3.174094,-35.85315,36.95639,1008.314
22.523676396,111.4176,-20.97312,41.20441,0.01586242,-0.05295591,-0.8080586,-3.174094,-35.85315,36.95639,1008.311
22.558441162,87.86758,-19.50555,41.57005,-0.02413827,-0.1038275,-0.7918247,-3.167401,-32.93139,37.35518,1008.311
22.590723038,73.11785,-18.3902,37.12138,-0.06161329,-0.1913838,-0.7501827,-3.174016,-29.28624,37.30902,1008.305
22.625488281,79.19127,-14.86803,38.09644,-0.0885126,-0.2723265,-0.7650881,-3.174016,-29.28624,37.30902,1008.304
22.657770157,84.70692,-6.767051,40.59501,-0.1430825,-0.3093284,-0.7850018,-2.827193,-27.10876,36.84009,1008.304
22.690052033,77.33206,-0.1336365,42.2404,-0.1691038,-0.3500776,-0.7924291,-2.529635,-24.2248,34.61901,1008.304
22.724813461,60.5372,8.730484,36.93856,-0.1932209,-0.3679784,-0.7707241,-2.529635,-24.2248,34.61901,1008.304
22.757094860,38.35063,15.71611,36.20727,-0.2845173,-0.4186731,-0.8017557,-3.271143,-22.03536,34.16662,1008.3
22.791860104,37.17313,23.69969,33.34306,-0.3143688,-0.4885952,-0.8465652,-2.573529,-19.86751,33.25644,1008.302
22.824141979,41.07747,31.38975,29.38191,-0.3419169,-0.4871501,-0.8252263,-2.573529,-19.86751,33.25644,1008.297
22.856423855,24.96432,35.61636,17.86412,-0.364995,-0.5370022,-0.8080562,-1.910548,-18.4456,31.04831,1008.296
22.891188622,23.91076,36.08598,5.554098,-0.3840464,-0.6453166,-0.7670553,-2.300603,-16.6303,30.15929,1008.296
22.923466206,51.17918,38.84501,-0.7837355,-0.3699581,-0.6792121,-0.7851657,-2.300603,-16.6303,30.15929,1008.294
22.958231449,65.68102,44.8914,-5.47617,-0.2990091,-0.6248253,-0.7898437,-2.664313,-15.16744,30.20859,1008.288
22.990513325,37.2351,42.24977,-15.04386,-0.3715186,-0.6185876,-0.7442088,-2.306556,-13.34966,30.11775,1008.29
23.025278568,16.59787,39.90166,-15.95797,-0.352057,-0.6600617,-0.7183808,-2.306556,-13.34966,30.11775,1008.289
23.057560444,23.04313,36.43819,-16.07985,-0.3068839,-0.7133331,-0.6254774,-1.97238,-10.81331,29.20847,1008.283
23.089842320,25.52208,27.86759,-14.06881,-0.387104,-0.729488,-0.6123435,-2.3494,-8.627053,28.81281,1008.283
23.124603272,28.93063,15.3639,-8.401323,-0.2633565,-0.7131742,-0.6154181,-2.714161,-7.529518,28.80448,1008.283
23.156885147,34.81813,15.65741,-11.38742,-0.1453769,-0.7319182,-0.6771757,-2.714161,-7.529518,28.80448,1008.287
23.191650391,36.36747,11.31341,-13.09376,-0.09359829,-0.7394263,-0.6517076,-2.353258,-6.500711,28.78588,1008.285
23.223932266,22.98116,12.95708,-15.34856,-0.02789231,-0.7081964,-0.6308839,-2.378552,-5.782949,27.9052,1008.284
23.258697510,18.20919,13.42671,-18.7003,-0.111596,-0.690563,-0.640272,-2.378552,-5.782949,27.9052,1008.284
23.290978909,33.33076,11.2547,-12.11871,-0.1102773,-0.6441934,-0.6670837,-2.029745,-4.699025,27.45011,1008.284
23.323256970,26.82353,6.617183,-7.18251,-0.03585441,-0.6211916,-0.6540606,-2.0557,-3.616747,26.56481,1008.282
23.358022213,1.724194,4.503883,-8.157561,-0.07014886,-0.6519215,-0.696704,-2.0557,-3.616747,26.56481,1008.284
23.390304089,-2.861857,2.801502,-6.877806,-0.0691677,-0.6630998,-0.7117562,-2.432446,-2.524846,26.12075,1008.284
23.425069332,-4.101331,5.267019,-9.498257,0.03440814,-0.67413,-0.6269569,-2.092979,-2.904619,25.2484,1008.284
23.457350731,1.848141,5.971452,-14.8001,-0.05355321,-0.6917916,-0.6234837,-2.092979,-2.904619,25.2484,1008.284
23.492115498,30.60392,-2.129531,-1.636905,-0.09042218,-0.6425474,-0.6265084,-2.081655,-2.534469,25.67951,1008.285
23.524393082,48.32839,-28.66319,28.58968,-0.1889532,-1.047424,-1.065627,-2.118272,-2.186857,24.36771,1008.283
23.556674957,93.56916,-23.43864,21.21586,0.01649778,-1.026055,-1.074167,-2.118272,-2.186857,24.36771,1008.283
23.591440201,-19.09896,-2.246937,3.543055,-0.0954577,-1.294645,-0.9831155,-1.841252,-1.472418,23.48243,1008.283
23.623722077,-24.05685,1.510041,-7.730976,-0.06065685,-0.7825739,-0.7027851,-0.0353055,2.881829,23.39946,1008.285
23.658487320,-18.10738,-4.184128,5.310335,-0.03927182,-0.5631847,-0.5270624,-0.0353055,2.881829,23.39946,1008.285
23.690769196,10.33853,-11.75679,13.35451,-0.02528729,-0.5442451,-0.5192499,-0.0472908,2.876195,22.96373,1008.285
23.725530148,4.636955,-12.40252,16.09684,-0.05309193,-0.6840636,-0.6282752,-0.7482126,2.530924,23.85084,1008.285
23.757812023,6.000376,-10.23051,13.59827,-0.09022449,-0.7619411,-0.7296766,-0.7482126,2.530924,23.85084,1008.285
23.790093899,3.459456,-6.238726,8.844895,-0.07787497,-0.8913005,-0.7850674,-0.3741119,2.897086,24.27643,1008.281
23.824859142,-6.766198,-1.718611,1.105426,-0.0894374,-0.9102151,-0.7875671,-0.3867588,3.255967,23.83609,1008.281
23.857141018,-11.97199,0.1011746,-2.794779,-0.08824931,-0.7725164,-0.7104034,-0.3867588,3.255967,23.83609,1008.285
23.891906262,-9.67896,-0.9554754,-0.6618541,-0.05125504,-0.6385263,-0.6154509,0.3274713,2.877841,23.39394,1008.285
23.924183846,-3.915409,-2.95137,2.750825,-0.04982914,-0.6273853,-0.6134568,0.7022338,2.879486,23.82416,1008.285
23.956465721,2.034062,-3.5971,3.847758,-0.06853253,-0.7157353,-0.6791831,0.7022338,2.879486,23.82416,1008.282
23.991230965,1.290378,-3.420992,2.933648,-0.1007585,-0.8025887,-0.7202163,-0.01199651,3.257613,24.2663,1008.282
24.023512840,-4.287252,-3.068775,1.471071,-0.08915303,-0.7986448,-0.7086164,0.3407798,2.154444,23.83891,1008.282
24.058278084,-9.307118,-2.246937,0.2522565,-0.08879413,-0.7356328,-0.6787691,0.3387952,3.247991,23.82506,1008.28
24.090559959,-9.740934,-1.366395,-0.1743284,-0.0671265,-0.6919711,-0.6650313,0.3387952,3.247991,23.82506,1008.28
24.125320435,-10.98041,-5.005967,2.872707,-0.07193722,-0.7124065,-0.69366,0.3401179,2.518959,23.83429,1008.28
24.157602310,-7.695803,-4.301534,2.689885,-0.1014378,-0.7252139,-0.7352449,-0.0113349,2.893098,24.27091,1008.282
24.189884663,-5.836593,-2.305639,1.044486,-0.09560023,-0.7367805,-0.7261379,-0.0113349,2.893098,24.27091,1008.282
24.224648953,-5.278831,-2.599153,1.105426,-0.1028866,-0.7183694,-0.7134482,0.3521032,2.524593,24.27001,1008.282
24.256930828,-0.5688316,-2.657856,1.349189,-0.1076743,-0.7333342,-0.6985363,0.3401179,2.518959,23.83429,1008.282
24.291696072,-2.428041,-1.4838,0.7397822,-0.09222648,-0.727532,-0.7130398,0.3401179,2.518959,23.83429,1008.282
24.323974133,-7.447908,1.333933,-5.902755,-0.02832714,-0.767125,-0.7409586,0.7155418,2.156089,24.26912,1008.282
24.358739376,-13.5833,3.271125,-0.7227948,-0.09967032,-0.6413594,-0.6965803,0.7142191,2.88512,24.25988,1008.284
24.391021252,2.405904,2.918908,-2.611957,-0.08834445,-0.6971668,-0.6094196,0.7142191,2.88512,24.25988,1008.284
24.423302651,-2.242121,1.157825,-0.6009134,-0.1125255,-0.7084907,-0.6461732,0.7035565,2.150455,23.83339,1008.285
24.458067894,-5.650672,1.157825,-2.002549,-0.09409909,-0.7932528,-0.8270175,0.7035565,2.150455,23.83339,1008.285
24.490349770,-21.76382,4.856099,-4.623,-0.1018479,-0.7815967,-0.8080804,0.7035565,2.150455,23.83339,1008.287
24.525111199,-23.80895,2.155772,-3.708889,-0.06397581,-0.6010615,-0.6877261,1.453081,2.153748,24.69381,1008.289
24.557393074,-16.55803,0.7469052,-0.2962099,-0.04369356,-0.5801012,-0.6600947,0.3893824,1.812466,25.58643,1008.289
24.592157841,-8.501461,1.510041,-2.977601,-0.1792519,-0.7487404,-0.7574492,0.3893824,1.812466,25.58643,1008.292
24.624439716,-0.6927789,0.5707968,-0.5399727,-0.1101247,-0.7452043,-0.7720812,0.4013677,1.8181,26.02215,1008.292
24.656721592,-20.89619,4.562585,-13.33752,-0.3559693,-0.8942801,-0.8579676,0.741497,1.073811,25.15442,1008.292
24.691486836,-11.53817,-1.131584,-0.5399727,-0.07066195,-0.6554659,-0.7426496,0.741497,1.073811,25.15442,1008.292
24.723764897,-12.21988,0.9230135,-1.941609,-0.07362706,-0.6347259,-0.7604126,1.102951,1.798854,25.13967,1008.292
24.758529663,-12.03396,1.216527,-1.697846,-0.06972267,-0.6570444,-0.7808524,0.7408357,1.438327,25.1498,1008.29
24.790811539,-8.067645,0.5707968,-0.9665576,-0.07453043,-0.6706262,-0.786237,0.7408357,1.438327,25.1498,1008.29
24.823093414,-12.03396,-0.01623091,-13.09376,-0.01521658,-0.5851226,-0.7380183,0.752821,1.443961,25.58553,1008.292
24.857858181,2.34393,-0.4858531,0.3131972,-0.06926422,-0.6361341,-0.7512447,0.03991389,1.093057,26.0369,1008.29
24.890140057,3.955246,-1.014178,0.4960193,-0.08516183,-0.6628105,-0.755713,0.03991389,1.093057,26.0369,1008.289
24.924901009,-0.2589633,-1.307692,1.166367,-0.0962671,-0.680367,-0.7862455,0.7648063,1.449595,26.02125,1008.289
24.957182884,-12.83962,0.9817163,-10.59519,-0.07609037,-0.8332744,-0.7997279,-0.3235245,1.461561,26.0378,1008.289
24.991948128,-4.659094,1.803555,-1.758787,-0.08426881,-0.6367264,-0.7705532,0.02792859,1.087422,25.60117,1008.287
25.024230003,-1.126595,2.33188,-2.124431,-0.07117222,-0.6536233,-0.7697107,0.02792859,1.087422,25.60117,1008.287
25.056511879,-0.07304233,2.097069,-1.941609,-0.05569873,-0.6486923,-0.7556963,0.7654676,1.08508,26.02587,1008.289
25.091277123,1.476299,0.9817163,-0.5399727,-0.04796737,-0.6467378,-0.7566687,0.03925228,1.457573,26.03228,1008.289
25.123554707,1.538273,-0.7206643,0.3131972,-0.04795886,-0.6535439,-0.7658927,0.03925228,1.457573,26.03228,1008.293
25.158319950,0.1748523,-0.8967726,0.7397822,-0.06294312,-0.661382,-0.7813751,0.7661293,0.7205648,26.03049,1008.293
25.190601826,-1.436463,-0.779367,0.6179007,-0.07793824,-0.657537,-0.7764865,0.4020293,1.453585,26.02677,1008.293
25.225367069,-3.791462,-0.6619615,0.4960193,-0.07746593,-0.6502522,-0.7691945,0.4020293,1.453585,26.02677,1008.293
25.257648945,-4.163304,-0.3684476,0.1303751,-0.08180865,-0.6536472,-0.7677541,0.7661293,0.7205648,26.03049,1008.291
25.289930821,-4.225278,-0.07493369,-0.2352691,-0.08038072,-0.6464071,-0.7744842,0.7654676,1.08508,26.02587,1008.291
25.324691773,-2.861857,0.1598774,-0.6618541,-0.07458661,-0.6434935,-0.7764139,0.7654676,1.08508,26.02587,1008.291
25.356973648,-1.684358,0.4533913,-0.6009134,-0.07845932,-0.6435225,-0.7817236,1.116259,1.075457,25.58463,1008.293
25.391738892,0.5466943,0.5120941,-0.7227948,-0.06732598,-0.6488172,-0.7827445,0.02858996,0.7229071,25.60579,1008.293
25.424020767,0.9185363,0.1598774,-0.1133877,-0.06154474,-0.6391156,-0.780768,0.02858996,0.7229071,25.60579,1008.293
25.458786011,1.166431,0.1011746,0.1303751,-0.06491056,-0.6434445,-0.7701498,0.7534823,1.079446,25.59014,1008.293
25.491067410,-0.1969896,0.04247187,0.1303751,-0.06538711,-0.6448829,-0.765806,0.7654676,1.08508,26.02587,1008.293
25.523345471,-1.188568,-0.4858531,0.1303751,-0.07022427,-0.6463699,-0.7720886,0.7654676,1.08508,26.02587,1008.293
25.558109760,-1.684358,-0.5445559,0.3741379,-0.07749522,-0.6415775,-0.7797807,0.754144,0.7149305,25.59476,1008.297
25.590392590,-0.6308053,-0.3097448,-0.1133877,-0.07458638,-0.6454471,-0.7817428,0.4153376,0.7301874,26.47173,1008.295
25.625156880,-0.01106866,0.2185802,-0.05244703,-0.07458564,-0.6459328,-0.782229,0.4153376,0.7301874,26.47173,1008.295
25.657438755,1.228405,0.277283,-0.1133877,-0.07264433,-0.6458977,-0.7735311,0.7654676,1.08508,26.02587,1008.295
25.689720631,0.608668,0.1011746,-0.2352691,-0.07362331,-0.6415517,-0.775438,0.4040136,0.3600373,26.04062,1008.295
25.724481583,0.6706417,0.04247187,-0.1133877,-0.07072598,-0.6415598,-0.7802787,0.4040136,0.3600373,26.04062,1008.295
25.756763458,0.422747,-0.251042,-0.05244703,-0.06538732,-0.6473272,-0.7730714,1.129567,0.3520603,26.02958,1008.295
25.791528702,-0.5688316,-0.1336365,0.1303751,-0.06975419,-0.6420262,-0.7759324,1.129567,0.3520603,26.02958,1008.295
25.823810578,-1.808305,-0.1336365,-0.05244703,-0.06780379,-0.6463515,-0.7687097,1.129567,0.3520603,26.02958,1008.295
25.858575821,-5.278831,-1.307692,0.3741379,-0.06685352,-0.6444637,-0.7836877,0.4033523,0.7245531,26.036,1008.299
25.890857697,-4.349226,-1.131584,0.1913158,-0.07364804,-0.6304148,-0.7734409,0.7667906,0.3560491,26.0351,1008.299
25.923135281,-0.07304233,-1.542503,0.2522565,-0.09008234,-0.6358112,-0.7811711,0.02858996,0.7229071,25.60579,1008.298
25.957900524,4.822876,-1.014178,0.6788414,-0.09294376,-0.6595992,-0.8011212,0.02858996,0.7229071,25.60579,1008.298
25.990182400,4.451035,1.099122,-0.1133877,-0.08908784,-0.6527984,-0.7967399,1.141553,0.3576946,26.46531,1008.298
26.024947643,2.467878,2.273177,-1.21032,-0.05912752,-0.631292,-0.758974,0.04057527,0.7285414,26.04152,1008.298
26.057229519,0.7326153,1.099122,-0.2962099,-0.05283835,-0.6322386,-0.7580261,0.04057527,0.7285414,26.04152,1008.296
26.091994762,0.6706417,-0.3684476,0.1303751,-0.06633104,-0.6560292,-0.7697348,1.140891,0.7222109,26.4607,1008.296
26.124272347,-2.366068,-0.5445559,0.1913158,-0.063435,-0.6570199,-0.7789319,0.05189919,1.098692,26.47263,1008.296
26.156554222,-2.304094,-0.4271504,-0.1133877,-0.07074549,-0.6338218,-0.781685,0.05189919,1.098692,26.47263,1008.296
26.191319466,-2.428041,-0.6619615,0.3131972,-0.0702451,-0.6449901,-0.793352,0.7654676,1.08508,26.02587,1008.296
26.223601341,-1.746331,-0.5445559,0.55696,-0.08573084,-0.6406871,-0.7957114,0.7534823,1.079446,25.59014,1008.294
26.258366585,1.166431,-0.07493369,0.06943437,-0.08910242,-0.6430854,-0.7865325,0.7534823,1.079446,25.59014,1008.292
26.290648460,3.459456,0.277283,0.3131972,-0.0798917,-0.6517584,-0.7832175,0.4159989,0.3656716,26.47635,1008.291
26.325408936,4.513008,0.4533913,0.1913158,-0.07650754,-0.6502855,-0.7798324,0.414676,1.094703,26.46711,1008.291
26.357691288,7.363797,1.392636,-0.1133877,-0.07749073,-0.6444908,-0.782698,0.414676,1.094703,26.46711,1008.291
26.389973164,6.868007,1.803555,-0.2352691,-0.06778524,-0.6560481,-0.7740827,0.4033523,0.7245531,26.036,1008.291
26.424737930,4.451035,1.392636,-0.2962099,-0.06343221,-0.6521215,-0.7615003,0.3907053,1.083434,25.59566,1008.289
26.457019329,1.66222,1.744852,-0.1133877,-0.07163835,-0.6579506,-0.7610324,0.3907053,1.083434,25.59566,1008.293
26.491784573,-0.3829106,1.68615,-0.6009134,-0.06437195,-0.6652052,-0.7659237,1.129567,0.3520603,26.02958,1008.293
26.524062634,-4.473173,0.9230135,1.044486,-0.08471026,-0.6531683,-0.7667782,0.7774529,1.090714,26.4616,1008.293
26.558827877,-3.41962,0.5120941,2.507063,-0.08177956,-0.6740509,-0.7910752,0.7774529,1.090714,26.4616,1008.295
26.591109753,-1.188568,1.157825,3.360233,-0.08323435,-0.6809134,-0.8157665,0.3793817,0.7132835,25.16455,1008.295
26.623391628,3.397483,0.6294996,3.055529,-0.07986221,-0.6721604,-0.8060552,0.391367,0.7189188,25.60028,1008.295
26.658156395,8.045506,-3.010073,8.662074,-0.07068514,-0.6584939,-0.7794082,0.391367,0.7189188,25.60028,1008.293
26.690438271,3.273535,-5.005967,8.479252,-0.06437301,-0.6358894,-0.683089,-0.3335254,0.3623796,25.61592,1008.293
26.725199700,-2.242121,-5.299481,8.174548,-0.05471155,-0.6632664,-0.773185,-0.3202171,-0.3610172,26.06088,1008.295
26.757481575,-1.932252,-6.532239,10.61218,-0.06778989,-0.659488,-0.7895722,-0.3555117,-0.7424369,24.75831,1008.295
26.789763451,-2.0562,-5.827806,8.723015,-0.08374777,-0.6468319,-0.7541749,-0.3555117,-0.7424369,24.75831,1008.297
26.824528218,-8.377513,-7.412781,8.479252,-0.0798832,-0.6448818,-0.7532052,-0.6936562,-1.091695,25.6399,1008.301
26.856810093,-19.16093,-8.528133,11.0997,-0.1012264,-0.612969,-0.7428256,-0.7043186,-1.826361,25.21341,1008.301
26.891575337,-18.97501,-5.358184,6.955734,-0.1316519,-0.6456398,-0.7903228,-0.7043186,-1.826361,25.21341,1008.302
26.923853397,-10.60857,-4.947265,8.844895,-0.1147414,-0.6476025,-0.8126086,-1.065773,-2.551404,25.22815,1008.304
26.958618641,6.620112,-3.420992,9.454303,-0.1346758,-0.6055967,-0.8239294,-0.3036013,-2.906993,26.52892,1008.304
26.990900040,12.44564,-4.125426,8.540193,-0.1742604,-0.6225395,-0.7920334,-0.3036013,-2.906993,26.52892,1008.304
27.023181915,12.81748,-2.305639,8.723015,-0.1495498,-0.6369229,-0.7733143,-0.6770406,-3.637671,26.10794,1008.304
27.057947159,15.1105,-3.244884,8.479252,-0.1703597,-0.6326565,-0.7819471,-1.053126,-2.910285,25.6685,1008.304
27.090229034,10.15261,-8.117213,8.601133,-0.1950116,-0.620962,-0.7373511,-1.053126,-2.910285,25.6685,1008.304
27.124990463,-2.675936,-10.05441,8.905836,-0.09921395,-0.6356065,-0.7129855,-0.7016727,-3.284424,25.23187,1008.302
27.157272339,-13.21146,-5.299481,6.224445,-0.07408102,-0.6306953,-0.7130117,-1.451859,-2.9232,24.36683,1008.302
27.192036629,-21.63988,-3.244884,4.700928,-0.1263734,-0.6242908,-0.7781268,-1.451859,-2.9232,24.36683,1008.302
27.224318504,-23.99487,-5.47559,5.980683,-0.1486632,-0.606467,-0.7832953,-0.7016727,-3.284424,25.23187,1008.302
27.256600380,-20.71027,-5.710401,6.894793,-0.2013941,-0.6106284,-0.8242975,-0.676379,-4.002186,26.11255,1008.302
27.291365624,-10.98041,-3.479695,8.540193,-0.1888153,-0.6159403,-0.8316064,-0.676379,-4.002186,26.11255,1008.302
27.323643208,-12.77764,-2.188234,10.18559,-0.1994286,-0.632972,-0.8505346,-1.05048,-4.368348,25.68696,1008.3
27.358408451,-19.84264,-7.17797,11.83099,-0.2593431,-0.6456617,-0.8316234,-1.411272,-5.457907,25.70632,1008.3
27.390690327,-28.58093,-10.40662,12.92792,-0.2597373,-0.6643512,-0.7771003,-1.411272,-5.457907,25.70632,1008.3
27.425455570,-29.75842,-12.109,10.12465,-0.3094957,-0.6941082,-0.8052016,-0.6617477,-5.454615,26.56675,1008.298
27.457737446,-24.86251,-14.63322,4.03058,-0.3398621,-0.73924,-0.8169954,-1.035187,-6.185292,26.14576,1008.298
27.490019322,-22.01172,-11.22846,-1.636905,-0.3272601,-0.7376147,-0.7764045,-1.035187,-6.185292,26.14576,1008.297
27.524780274,-25.3583,-11.40457,-8.401323,-0.3954818,-0.7130604,-0.7558134,-0.6465652,-7.210806,27.02478,1008.301
27.557062149,-20.6483,-10.58273,-15.95797,-0.427502,-0.6837828,-0.8000543,-0.9973567,-7.201183,27.46602,1008.301
27.591827393,-32.11343,-18.50761,-20.16288,-0.4435746,-0.5934147,-0.6805798,-1.368811,-9.025408,27.05889,1008.301
27.624109268,-44.6321,-31.30481,-23.3318,-0.5087142,-0.6404261,-0.6463826,-1.368811,-9.025408,27.05889,1008.299
27.656391144,-26.2879,-36.88158,-25.09908,-0.4704874,-0.6617081,-0.6755923,-0.6406116,-10.49145,27.06632,1008.299
27.691155911,-3.977383,-38.76006,-28.26799,-0.4747066,-0.5248787,-0.7076791,-1.013389,-11.58664,26.64996,1008.301
27.723433972,-23.0033,-46.03921,-31.61973,-0.4995024,-0.4805506,-0.7436315,-1.013389,-11.58664,26.64996,1008.301
27.758199215,-50.45763,-51.96819,-37.34816,-0.4492702,-0.4483889,-0.7203519,-1.010082,-13.40922,26.67304,1008.301
27.790481091,-49.65197,-50.32451,-39.11544,-0.4372353,-0.4251209,-0.7187952,-1.357566,-15.22218,27.13736,1008.299
27.825246334,-43.08276,-52.67262,-41.97965,-0.4145977,-0.3706937,-0.670674,-1.357566,-15.22218,27.13736,1008.297
27.857528210,-40.54184,-56.19479,-45.87986,-0.4274173,-0.2784189,-0.7054127,-1.340289,-18.13267,27.61001,1008.297
27.889809609,-45.68566,-60.7149,-46.61115,-0.4107741,-0.1480824,-0.6718338,-0.9602344,-21.04715,28.07715,1008.297
27.924571037,-56.71697,-69.81384,-46.2455,-0.4635174,-0.1298159,-0.6633977,-0.9602344,-21.04715,28.07715,1008.297
27.956852913,-53.37039,-75.80151,-40.21237,-0.4693372,-0.1186645,-0.6522027,-0.5795188,-24.32614,28.54891,1008.294
27.991618156,-50.27171,-79.26498,-39.48108,-0.4504756,-0.1215289,-0.6566106,-0.1868176,-27.5995,29.45639,1008.294
28.023900032,-55.66342,-81.55439,-40.27331,-0.4955829,-0.08020175,-0.7041388,-0.1868176,-27.5995,29.45639,1008.294
28.058664322,-66.57078,-81.90661,-39.54202,-0.4883747,-0.07450329,-0.7423136,-0.5120432,-29.40199,30.72992,1008.294
28.090946198,-72.76814,-84.01991,-40.88272,-0.5375106,-0.1496188,-0.7324826,-0.8342338,-31.93271,32.07492,1008.294
28.123224258,-60.00157,-75.15578,-38.20133,-0.5414655,-0.1294638,-0.779253,-0.8342338,-31.93271,32.07492,1008.294
28.157989025,-68.05815,-68.22886,-36.55593,-0.5958405,-0.0347424,-0.7708623,-0.7696767,-34.45615,34.28587,1008.295
28.190270901,-88.07564,-66.70258,-37.77474,-0.6606274,-0.03538208,-0.7620243,0.06639099,-35.87148,38.21484,1008.297
28.225036144,-89.00525,-63.65004,-35.82464,-0.6359222,-0.04245748,-0.7287605,0.06639099,-35.87148,38.21484,1008.297
28.257318020,-81.25854,-60.89101,-30.64468,-0.6804904,-0.004319915,-0.7182955,0.1136706,-35.48443,39.95314,1008.297
28.292083263,-78.34578,-63.00431,-24.67249,-0.6288902,0.0646425,-0.6894916,1.586102,-34.03105,40.78406,1008.299
28.324360848,-81.38248,-64.06096,-21.38169,-0.6479058,0.1157359,-0.733153,1.586102,-34.03105,40.78406,1008.301
28.356642723,-91.36024,-63.53263,-15.28762,-0.5685396,0.08691058,-0.7383224,1.920279,-31.4947,39.87478,1008.301
28.391407967,-83.17972,-64.00226,-9.498257,-0.5059527,0.02296393,-0.6687223,2.206513,-28.98088,37.2226,1008.301
28.423689842,-58.08039,-60.59749,-6.268399,-0.5496185,0.07305341,-0.7021841,2.206513,-28.98088,37.2226,1008.301
28.458455086,-51.82105,-60.7149,-6.816865,-0.6616507,0.1891233,-0.7713813,1.671311,-26.50417,31.09562,1008.302
28.490736961,-68.12012,-68.28756,-7.304391,-0.7094272,0.1615238,-0.7356607,1.843374,-26.23299,24.17611,1008.306
28.523014546,-53.74223,-71.69232,-8.340384,-0.7983431,0.1610148,-0.6677906,1.843374,-26.23299,24.17611,1008.309
28.557779789,-31.67961,-79.7933,-11.14366,-1.020263,0.1585395,-0.6392869,1.69418,-29.95139,18.55782,1008.309
28.590061665,-0.135016,-80.67385,-6.938747,-1.137282,0.156248,-0.6453325,3.068666,-34.01646,15.53645,1008.309
28.624826908,30.35603,-80.02811,-3.891711,-1.24842,0.1313283,-0.6220296,3.726277,-36.24534,12.93875,1008.311
28.657108784,59.97943,-72.80768,-1.332202,-1.401139,0.08724943,-0.6480567,3.726277,-36.24534,12.93875,1008.314
28.691874027,70.8868,-58.89511,9.880888,-1.298141,0.0880442,-0.6434398,4.429845,-37.35814,12.07011,1008.316
28.724151611,41.6972,-50.1484,12.62322,-1.179767,0.1544478,-0.5693513,4.079715,-37.71303,12.51597,1008.32
28.756433487,12.50761,-40.16893,16.40154,-1.086754,0.1148666,-0.4755063,4.079715,-37.71303,12.51597,1008.32
28.791198731,1.228405,-28.07616,19.38764,-0.9371001,0.0341854,-0.4197252,4.078393,-36.984,12.50674,1008.32
28.823480606,1.414326,-14.1049,20.72833,-0.8489873,-0.003234078,-0.3978897,3.693629,-38.08482,11.65465,1008.32
28.858245850,2.83972,-5.886509,15.60931,-0.8764223,-0.04774421,-0.3714945,3.693629,-38.08482,11.65465,1008.321
28.890527725,10.15261,0.6294996,12.62322,-0.9179434,-0.06323579,-0.3381359,3.693629,-38.08482,11.65465,1008.323
28.925288677,8.355375,2.684097,6.955734,-0.9523275,-0.03862902,-0.3306703,4.047729,-39.91703,11.23649,1008.323
28.957570553,8.169455,-0.01623091,1.958596,-0.9987455,-0.02897832,-0.2995753,4.047729,-39.91703,11.23649,1008.325
28.989852428,15.60629,-0.251042,-3.76983,-1.034973,-0.03820621,-0.2787618,3.709583,-40.26628,12.11807,1008.326
29.024616718,20.19234,-1.307692,-4.257356,-1.061596,-0.02276213,-0.2684644,4.797253,-39.91374,12.09691,1008.328
29.056899548,20.56419,0.1598774,-6.694984,-1.059222,0.001008056,-0.2533478,4.797253,-39.91374,12.09691,1008.33
29.091663837,17.96129,4.621288,-8.827909,-1.032573,-0.01482003,-0.2341577,4.434476,-39.90975,12.10242,1008.33
29.123941898,11.76393,7.439022,-9.863901,-1.028214,-0.01184341,-0.2162629,4.084346,-40.26464,12.54828,1008.33
29.158707142,11.14419,9.845837,-9.863901,-0.9943194,-0.02621535,-0.2019145,4.084346,-40.26464,12.54828,1008.332
29.190988541,8.851165,10.13935,-10.10766,-0.9764643,-0.01214174,-0.205257,4.833209,-39.89683,13.40409,1008.333
29.223270416,0.7326153,7.849942,-9.437316,-0.9880985,-0.002522561,-0.2129123,4.457123,-39.16945,12.96465,1008.331
29.258035660,-6.394356,5.208316,-9.010731,-0.9759285,-0.03098245,-0.19618,4.457123,-39.16945,12.96465,1008.331
29.290317535,-11.29028,0.4533913,-6.755925,-0.9580364,-0.03043918,-0.1937982,5.194662,-39.17179,13.38934,1008.331
29.325078964,-9.493039,-3.714506,-5.293348,-0.9555971,-0.0406046,-0.1967619,4.469109,-39.16381,13.40037,1008.333
29.357360840,-1.188568,-9.408675,-6.085577,-0.9831601,-0.04655115,-0.2146236,4.469109,-39.16381,13.40037,1008.334
29.389642239,7.177876,-10.87624,-3.587008,-0.9900038,-0.02146683,-0.2323534,4.819239,-38.80892,12.95451,1008.334
29.424407482,-0.3829106,-13.04825,-2.977601,-1.009374,-0.01528511,-0.24823,4.455801,-38.44041,12.95541,1008.338
29.456689358,-3.915409,-14.33971,-6.085577,-0.9778821,-0.03595504,-0.2339123,4.455801,-38.44041,12.95541,1008.338
29.491454601,-1.188568,-16.3356,-6.999688,-0.9729802,-0.06400906,-0.2340823,4.443153,-38.08153,12.51507,1008.34
29.523732662,6.372218,-15.57247,-4.379237,-0.9580386,-0.04706311,-0.2441704,4.431168,-38.08717,12.07934,1008.341
29.558497429,6.868007,-12.93084,-1.515024,-0.9735746,-0.02439874,-0.2546437,5.894261,-38.09749,12.49301,1008.345
29.590779305,2.219983,-11.46327,-0.05244703,-0.9822688,-0.02975831,-0.2580395,5.894261,-38.09749,12.49301,1008.345
29.623061180,-3.667515,-11.69808,1.958596,-0.9628884,-0.04224912,-0.2475166,4.781298,-37.73227,11.63348,1008.345
29.657826424,2.15801,-11.11106,0.3741379,-0.9527091,-0.05286815,-0.2480824,4.41786,-37.36377,11.63439,1008.347
29.690108299,8.417349,-8.528133,2.080478,-0.9513226,-0.02967311,-0.2590726,4.41786,-37.36377,11.63439,1008.347
29.724869251,6.310245,-4.477643,1.592952,-0.9451138,-0.0001666175,-0.2681035,4.780637,-37.36776,11.62887,1008.347
29.757151127,-2.366068,0.3946885,1.775774,-0.964928,-0.00310885,-0.2627597,4.405213,-37.00489,11.19404,1008.347
29.791942597,-10.23672,4.03426,5.615038,-0.9871301,-0.01912898,-0.2589355,4.405213,-37.00489,11.19404,1008.347
29.824224472,-12.83962,7.673833,6.59009,-0.9885967,-0.008449025,-0.2477525,5.133413,-38.47093,11.20148,1008.345
29.856506348,-17.48764,11.54822,6.468208,-1.007059,0.0277849,-0.2499239,4.781298,-37.73227,11.63348,1008.345
29.891271115,-27.52737,10.25676,11.58723,-1.010893,0.01569855,-0.2432162,4.781298,-37.73227,11.63348,1008.347
29.923549175,-30.9979,9.669728,14.93897,-0.9721862,0.01102064,-0.2283396,4.782621,-38.4613,11.64272,1008.347
29.958314419,-39.92211,11.01989,18.71729,-0.9432331,0.03480135,-0.2326177,4.771297,-38.83146,11.21161,1008.347
29.990596294,-51.6971,7.849942,18.41259,-0.9576957,0.02516812,-0.2070191,4.771297,-38.83146,11.21161,1008.345
30.025361538,-48.47447,2.566691,18.65635,-0.9624549,0.0005476465,-0.1853941,5.111426,-39.57574,10.34387,1008.344
30.057643414,-38.86855,-3.420992,16.82813,-0.9822523,-0.004279521,-0.1650744,4.714017,-40.31769,9.051435,1008.344
30.089924812,-26.59777,-10.70014,12.7451,-0.9919243,0.003994965,-0.1427684,4.714017,-40.31769,9.051435,1008.344
30.124686241,-13.27343,-16.10079,9.21054,-1.011301,0.01698936,-0.1474871,4.679384,-41.06363,7.753487,1008.344
30.156968117,-7.385935,-21.03183,6.346327,-1.02153,0.04206236,-0.1656932,4.283298,-42.5346,6.470285,1008.344
30.191733360,-10.73251,-26.19767,2.811766,-1.016279,0.06818514,-0.1728075,4.283298,-42.5346,6.470285,1008.344
30.224015236,-9.183171,-26.54989,-0.6618541,-1.025479,0.07103787,-0.1800231,4.294621,-42.16446,6.901397,1008.348
30.256296635,-10.36067,-26.96081,0.4960193,-1.021638,0.08070786,-0.1857776,4.271974,-42.90476,6.039175,1008.349
30.291061401,-6.952119,-25.31713,2.080478,-1.03131,0.0806753,-0.1872073,4.271974,-42.90476,6.039175,1008.349
30.323339939,-9.245145,-23.96696,1.653893,-1.031331,0.09085253,-0.1827984,4.598133,-42.56113,4.721864,1008.349
30.358104229,-13.8312,-23.43864,0.1913158,-1.011421,0.06242786,-0.1622151,4.1994,-42.57405,3.420198,1008.349
30.390386105,-12.09593,-21.26664,0.6788414,-0.9852613,0.0470643,-0.1483391,4.188738,-43.30871,2.993703,1008.349
30.425151348,-7.13804,-17.45096,-3.587008,-0.9833118,0.04664487,-0.1309419,4.188738,-43.30871,2.993703,1008.351
30.457433224,-7.695803,-15.68987,-5.293348,-1.008935,0.04903384,-0.1183037,4.878997,-43.69811,1.680108,1008.351
30.489715099,-0.3829106,-10.11311,-2.672897,-1.033125,0.05038047,-0.1288795,4.865689,-42.97471,1.235148,1008.351
30.524476051,-1.684358,-5.358184,-3.160423,-1.028425,0.09820984,-0.1561737,4.865689,-42.97471,1.235148,1008.351
30.556757927,-9.616986,-3.949317,-4.805822,-1.022097,0.09009276,-0.1291609,4.854365,-43.34486,0.804038,1008.351
30.591523171,-6.208435,-2.657856,-5.415229,-1.021567,0.08246759,-0.09488129,3.766035,-43.3329,0.8205843,1008.353
30.623805046,-2.242121,-1.248989,-4.135474,-1.020615,0.08827259,-0.09630065,3.766035,-43.3329,0.8205843,1008.353
30.658570290,-0.8167262,-0.251042,-2.733838,-1.007504,0.07192349,-0.07660088,4.477618,-42.25296,0.3599787,1008.353
30.690852165,2.405904,0.04247187,-1.880668,-0.9716428,0.0405901,-0.07105508,5.56661,-42.62944,0.3480482,1008.353
30.723129749,9.96669,2.7428,-2.429134,-0.9600394,0.03817251,-0.08027916,5.56661,-42.62944,0.3480482,1008.354
30.757894993,8.851165,4.856099,-3.587008,-0.9779753,0.05210778,-0.09418099,4.828409,-42.26258,-0.08126354,1008.354
30.790176869,4.265113,4.797397,-5.780873,-0.9885517,0.02936549,-0.08461873,3.751403,-41.88047,0.366394,1008.356
30.824942112,4.141166,2.860205,-7.18251,-0.997696,0.01339088,-0.07840515,3.751403,-41.88047,0.366394,1008.356
30.857223988,7.983533,2.684097,-8.096621,-0.9817606,0.02116625,-0.08226279,4.138151,-41.87319,1.232332,1008.356
30.891989231,3.397483,4.738694,-7.304391,-0.965891,0.05310201,-0.09661858,5.213835,-41.52627,0.7754431,1008.356
30.924266815,-4.039357,3.975558,-7.487213,-0.938805,0.05223287,-0.09039719,5.213835,-41.52627,0.7754431,1008.356
30.956548691,-8.439487,2.977611,-8.94979,-0.960078,0.05902566,-0.06710766,4.874367,-41.1465,1.647797,1008.354
30.991313934,-7.509882,0.6882024,-1.332202,-1.110139,0.1234091,-0.07657038,5.212512,-40.79724,0.7662115,1008.354
31.023595810,-3.791462,-2.305639,8.783956,-1.502553,0.2047777,-0.1526122,5.212512,-40.79724,0.7662115,1008.354
31.058361053,-4.59712,-1.131584,10.73406,-0.8655044,-0.03726934,-0.002594785,4.47431,-40.43038,0.3368998,1008.353
31.090642929,-1.064621,-0.3097448,3.421173,-0.769251,-0.08721235,-0.1133102,5.563964,-41.17138,0.3295846,1008.354
31.125403881,-5.898567,-2.892667,5.249394,-1.24511,0.1095724,-0.1899663,5.563964,-41.17138,0.3295846,1008.353
31.157685757,-12.09593,-6.708348,4.822809,-0.9534797,0.1497166,-0.01439484,5.225159,-41.15612,1.206554,1008.354
31.189967632,-12.52975,-7.412781,1.41013,-0.9951941,0.01032643,0.01487571,5.914756,-41.181,-0.1116576,1008.354
31.224732876,-5.340804,-1.425098,5.066572,-1.030678,0.05686191,-0.07470283,5.539332,-40.81813,-0.5464845,1008.354
31.257014751,-12.03396,-1.659909,1.775774,-1.010013,0.1213854,-0.04440728,5.539332,-40.81813,-0.5464845,1008.353
31.291974545,-13.21146,-1.836017,-0.2352691,-1.024338,0.04341997,-0.04820379,4.812455,-40.08113,-0.5446854,1008.353
31.324252129,-5.402778,-1.307692,0.8007228,-1.001192,0.05983343,-0.07958387,4.789146,-40.45691,-1.411523,1008.353
31.356534958,-1.064621,-1.953423,2.568003,-1.007498,0.0646187,-0.09017872,4.789146,-40.45691,-1.411523,1008.353
31.391299248,-1.932252,-3.5971,3.847758,-1.028232,0.04867807,-0.06411898,5.526686,-40.45925,-0.9868274,1008.353
31.423581123,1.352352,-1.777314,5.249394,-0.9987784,0.07155126,-0.05099955,5.866815,-41.20354,-1.854565,1008.353
31.458346367,-0.6308053,-0.7206643,5.432216,-0.9890667,0.0458488,-0.07533856,5.866815,-41.20354,-1.854565,1008.351
31.490628243,0.2987996,-3.773209,7.260437,-0.9895821,0.04815895,-0.1072313,5.503377,-40.83504,-1.853665,1008.351
31.525389195,3.211562,-5.299481,4.518106,-1.032685,0.1093303,-0.01252001,5.139938,-40.46653,-1.852766,1008.351
31.557671070,-1.126595,-4.360237,6.468208,-1.026329,0.06370013,-0.05968672,5.139938,-40.46653,-1.852766,1008.349
31.589952946,-1.312515,-2.716559,7.991726,-0.9939967,0.08551385,-0.07606929,5.127953,-40.47217,-2.288492,1008.349
31.624718189,0.6706417,-5.47559,6.772912,-1.006595,0.09954131,-0.06726047,5.128614,-40.83669,-2.283876,1008.349
31.657000065,-4.101331,-4.771156,5.554098,-1.029328,0.1214415,-0.0114915,5.128614,-40.83669,-2.283876,1008.349
31.691765309,3.211562,-3.714506,6.833853,-0.9944449,0.06415736,-0.09456042,5.492052,-41.20519,-2.284776,1008.349
31.724042893,1.476299,-8.058511,7.382319,-1.014386,0.1183515,-0.0792227,5.492714,-41.5697,-2.28016,1008.348
31.758808136,-0.4448843,-9.349972,9.819947,-1.004657,0.1015186,-0.05661776,5.492714,-41.5697,-2.28016,1008.349
31.791090012,-0.5688316,-10.34792,10.91688,-1.022051,0.107389,-0.02318962,5.11729,-41.20684,-2.714987,1008.351
31.823371887,0.9805099,-10.81754,11.46535,-1.002796,0.1461782,-0.0172093,4.754513,-41.20285,-2.709472,1008.351
31.858137131,-2.73791,-10.70014,12.19663,-1.012956,0.1466135,-0.02298619,4.754513,-41.20285,-2.709472,1008.351
31.890419007,-1.374489,-13.10695,15.18273,-1.008001,0.07919742,-0.07172406,4.732255,-41.21331,-3.518679,1008.349
31.925179958,3.645377,-18.2728,16.64531,-0.9970531,0.181131,0.01053307,4.37014,-41.57384,-3.508548,1008.349
31.957461834,22.98116,-19.50555,23.71443,-1.025256,0.08271135,0.1231589,4.37014,-41.57384,-3.508548,1008.349
31.992227077,42.56484,-30.71778,47.42036,-1.089966,-0.05199478,-0.1597958,4.360528,-41.94318,-3.877412,1008.349
32.024508953,22.23748,-54.375,54.48948,-1.044819,0.274229,-0.1802764,4.042268,-41.91827,-2.253482,1008.349
32.056790829,-25.23435,-61.06712,64.36188,-1.186153,0.1985303,0.02119177,4.042268,-41.91827,-2.253482,1008.349
32.091556072,-42.89684,-76.62335,96.96515,-1.608131,-0.1015305,-0.05888885,3.681476,-43.00783,-2.234119,1008.349
32.123833656,-29.26264,-94.11678,125.1198,-1.264243,0.2789255,-0.0366789,2.17585,-44.11198,-4.25235,1008.348
32.158598900,-48.28855,-98.34338,137.7345,-0.8368022,0.4794227,-0.06740019,2.130555,-45.59258,-5.976794,1008.346
32.190880775,-62.0467,-89.59667,130.2388,-0.7647563,0.5299517,0.07389594,2.130555,-45.59258,-5.976794,1008.344
32.223162651,-76.85841,-92.76662,127.2527,-0.9321151,0.4115352,0.2582569,0.9236944,-46.36599,-10.30828,1008.344
32.257927895,-63.78197,-97.87376,121.8899,-0.7861531,0.2753763,0.3683591,-0.6359427,-46.03624,-14.21238,1008.344
32.290209770,-37.31921,-96.64101,110.9206,-0.4777371,0.3633729,0.5132263,-0.6359427,-46.03624,-14.21238,1008.344
32.324970722,-22.94132,-93.23624,104.1562,-0.6330338,0.3933904,0.5059967,-1.08394,-45.34266,-17.26618,1008.35
32.357252598,-18.16935,-95.46695,108.7877,-1.012019,0.3341402,0.4784371,-3.284697,-44.99432,-20.28871,1008.348
32.392017841,-37.00934,-119.4177,124.2666,-0.8848627,0.3271072,0.4375142,-3.284697,-44.99432,-20.28871,1008.348
32.424299717,-6.580277,-123.8204,121.0367,-0.5006056,0.4374866,0.5543059,-4.411629,-43.54119,-21.59781,1008.348
32.456581593,5.132745,-132.0975,120.732,-0.06795347,0.3712741,0.2131395,-4.460894,-42.8347,-23.34995,1008.344
32.491346359,-3.543567,-135.4435,132.9202,0.2987059,0.557049,0.316378,-4.460894,-42.8347,-23.34995,1008.346
32.523624420,-13.5833,-139.905,137.4298,0.4141837,0.6273764,0.4083823,-6.652186,-41.35834,-23.77105,1008.346
32.558388710,18.33314,-137.6155,120.732,0.6095933,0.7185755,0.7372181,-7.743824,-39.5238,-23.77758,1008.346
32.590671539,7.177876,-78.61925,139.0142,0.1211156,0.7065171,0.5907535,-7.743824,-39.5238,-23.77758,1008.345
32.657717705,-135.9193,-4.301534,23.71443,2.507908,0.04898444,1.034853,-9.931069,-33.66761,-23.81834,1008.346
32.689999581,13.49919,5.912749,-83.72404,1.094079,-0.2240726,0.3368115,-9.931069,-33.66761,-23.81834,1008.346
32.724760533,80.74062,73.83186,-92.19479,-0.4421119,0.7473599,0.8387533,-9.996949,-30.41514,-26.03852,1008.346
32.757042408,40.95352,23.52358,-5.598052,-0.2084013,1.865498,0.7227808,-8.887295,-28.95778,-25.20207,1008.346
32.791807652,-94.95472,-6.943159,0.06943437,-0.3035565,0.3623476,0.6346716,-8.887295,-28.95778,-25.20207,1008.348
32.824089527,-16.49606,-21.38404,14.87803,-0.5359672,0.361429,0.8459466,-8.507902,-31.50774,-24.73955,1008.346
32.858854771,12.44564,-15.63117,33.22118,0.006204864,1.013207,0.5105604,-9.609541,-30.77238,-25.16796,1008.346
32.891136646,-44.01237,-16.45301,32.00236,0.611136,0.7174947,0.8454989,-9.609541,-30.77238,-25.16796,1008.346
32.923414230,-13.89317,-12.22641,35.90257,0.5455041,0.6196244,0.7232573,-9.622849,-30.04898,-25.61292,1008.343
32.958179474,-40.23198,-5.47559,0.8007228,0.3857336,0.4717838,0.643477,-9.286028,-28.97069,-26.50374,1008.343
32.990461349,-32.29935,3.858152,-15.04386,0.3948745,0.5116888,0.7016969,-9.286028,-28.97069,-26.50374,1008.343
33.025226593,-11.4762,17.82941,-22.11298,0.2146274,0.4793994,0.7507291,-10.03886,-27.1514,-27.38724,1008.347
33.057508469,-5.588698,17.12498,-17.90807,0.1198651,0.5021482,0.8322804,-9.686745,-27.89006,-27.81925,1008.347
33.089790344,14.86261,10.84378,-16.50644,0.08637843,0.5680063,0.8738194,-9.686745,-27.89006,-27.81925,1008.347
33.124551296,13.25129,3.38853,-8.279443,0.03822051,0.6517094,0.7670757,-9.323306,-28.25856,-27.82015,1008.349
33.156833172,1.972089,-1.248989,0.8007228,0.09146123,0.6115119,0.7125872,-8.959868,-28.62707,-27.82105,1008.349
33.191598415,2.591825,-3.479695,4.274343,0.1534267,0.589018,0.7340805,-9.321983,-28.98759,-27.81092,1008.349
33.223880291,3.955246,-5.592995,5.73692,0.1964508,0.607663,0.7732523,-9.321983,-28.98759,-27.81092,1008.349
33.258645535,-0.6927789,-5.123373,8.905836,0.2158133,0.5911893,0.7508788,-9.685422,-28.61909,-27.81002,1008.347
33.290927410,3.025641,-3.479695,8.35737,0.1980005,0.5553012,0.742978,-9.298013,-28.97632,-26.93946,1008.345
33.323204994,5.132745,-2.246937,4.457165,0.2394552,0.6086342,0.7378742,-9.298013,-28.97632,-26.93946,1008.347
33.357970238,0.9805099,-1.248989,1.105426,0.2104875,0.6033624,0.7775486,-9.674098,-28.24894,-27.37891,1008.345
33.390252113,4.822876,-1.659909,2.385181,0.1824259,0.6022391,0.7553645,-9.662774,-27.87879,-26.9478,1008.345
33.425017357,4.636955,0.1598774,2.2633,0.2409488,0.5892698,0.7343768,-9.662774,-27.87879,-26.9478,1008.345
33.457299233,4.513008,1.099122,2.080478,0.1920995,0.5925046,0.7306329,-8.935236,-28.98031,-26.94498,1008.347
33.492064476,5.876429,1.216527,2.385181,0.1611348,0.6060251,0.7481803,-8.935898,-28.6158,-26.9496,1008.347
33.524342060,4.946824,-0.3684476,1.532011,0.2147543,0.6342971,0.7632121,-8.935898,-28.6158,-26.9496,1008.353
33.556623936,2.467878,-0.251042,1.714833,0.2094368,0.6289129,0.7496566,-9.661451,-28.60782,-26.93857,1008.353
33.591389179,0.7326153,1.392636,2.324241,0.2311921,0.6162521,0.707962,-9.662112,-28.24331,-26.94318,1008.353
33.623671055,-1.994226,5.208316,1.044486,0.187707,0.6025859,0.7103953,-9.662112,-28.24331,-26.94318,1008.353
33.658436299,-1.312515,4.914802,-1.271261,0.219661,0.6082181,0.7746558,-9.660789,-28.97234,-26.93395,1008.351
33.690718174,1.290378,3.271125,-3.404186,0.1926141,0.6038738,0.8007951,-9.286689,-28.60617,-26.50835,1008.351
33.725479126,6.496165,1.862258,-3.526067,0.187749,0.6032484,0.7630937,-9.286689,-28.60617,-26.50835,1008.351
33.757761002,6.496165,2.507988,-2.733838,0.2050552,0.6282888,0.7119544,-9.661451,-28.60782,-26.93857,1008.351
33.790042877,3.087615,3.447233,-2.794779,0.1919925,0.6350641,0.7231401,-9.672113,-29.34249,-27.36506,1008.351
33.824808121,-0.9406735,2.801502,-2.855719,0.1702617,0.633655,0.754119,-9.672113,-29.34249,-27.36506,1008.349
33.857089997,-0.6927789,1.510041,-0.9056169,0.1746197,0.6263625,0.7405319,-9.662112,-28.24331,-26.94318,1008.348
33.891854763,-2.0562,1.392636,-1.088439,0.2065377,0.6220723,0.7327037,-8.947222,-28.98595,-27.38071,1008.348
33.924132824,-3.41962,3.740747,-1.758787,0.203622,0.6244476,0.7220878,-8.947222,-28.98595,-27.38071,1008.348
33.956414700,-4.349226,4.151666,-2.002549,0.1679048,0.6055573,0.7471962,-9.311321,-28.25293,-27.38442,1008.348
33.991179943,-2.428041,2.7428,-2.124431,0.1611777,0.5993615,0.7810162,-9.661451,-28.60782,-26.93857,1008.348
34.023461819,0.9805099,1.451339,-1.636905,0.1631,0.6086026,0.7931505,-9.297351,-29.34084,-26.93485,1008.346
34.058226109,4.451035,-0.9554754,-0.9056169,0.161126,0.614785,0.7627333,-9.297351,-29.34084,-26.93485,1008.344
34.090508461,4.760903,-1.131584,-0.9056169,0.1765832,0.6132954,0.7385196,-9.298013,-28.97632,-26.93946,1008.344
34.125269413,4.451035,-0.4858531,-0.9665576,0.1712532,0.6186101,0.740495,-9.321321,-29.35211,-27.8063,1008.344
34.157550812,3.831298,-0.8380698,-0.6618541,0.1813864,0.6283242,0.7424622,-9.321321,-29.35211,-27.8063,1008.346
34.189832687,3.583404,-0.5445559,-0.6009134,0.1915354,0.6253989,0.7274371,-8.935236,-28.98031,-26.94498,1008.344
34.224597931,1.972089,0.5707968,-1.027498,0.1886352,0.6234401,0.7230812,-9.297351,-29.34084,-26.93485,1008.344
34.256879807,1.414326,1.333933,-1.454083,0.1852576,0.6249265,0.7361498,-9.297351,-29.34084,-26.93485,1008.344
34.291645050,1.910115,1.333933,-1.088439,0.1717377,0.6205701,0.7472733,-9.297351,-29.34084,-26.93485,1008.344
34.323922634,2.777746,1.27523,-0.5399727,0.1548109,0.6219767,0.7482846,-9.648805,-28.9667,-26.49822,1008.342
34.358687878,4.88485,-1.366395,0.1303751,0.1538598,0.6186193,0.7579364,-9.648805,-28.9667,-26.49822,1008.342
34.390969753,7.487744,-2.305639,0.4960193,0.1683519,0.6186018,0.7405012,-8.933251,-30.07386,-26.93113,1008.342
34.423251629,8.417349,-1.89472,0.7397822,0.1900489,0.6364859,0.7159008,-9.296028,-30.06987,-26.92562,1008.341
34.458016873,5.628534,-0.8967726,-0.3571506,0.1900053,0.6529197,0.7101931,-9.296028,-30.06987,-26.92562,1008.341
34.490298748,2.715772,-0.3684476,-0.2352691,0.1764574,0.6533338,0.7010393,-10.3737,-29.32324,-26.48258,1008.342
34.525059700,-0.320937,0.277283,0.3741379,0.1823158,0.6369672,0.7217215,-10.0096,-30.05626,-26.47886,1008.341
34.557341576,1.972089,0.5120941,0.9835449,0.1471007,0.6122907,0.7525972,-10.0096,-30.05626,-26.47886,1008.341
34.592106819,7.42577,-2.657856,1.105426,0.1494684,0.6418992,0.7769324,-8.909281,-30.06259,-26.05968,1008.339
34.624388695,9.718796,-3.773209,1.775774,0.1759943,0.6480419,0.710679,-9.284704,-29.69972,-26.49451,1008.339
34.656670571,5.194718,-2.246937,1.775774,0.2053987,0.6692472,0.6599751,-9.284704,-29.69972,-26.49451,1008.339
34.691435814,-1.808305,-1.072881,1.227308,0.1720528,0.6755821,0.7011753,-9.260734,-29.68845,-25.62305,1008.341
34.723713398,-2.490015,-2.070828,2.446122,0.1673628,0.6292586,0.7444314,-9.610864,-30.04335,-25.1772,1008.34
34.758478642,2.591825,-2.188234,1.714833,0.1896566,0.6124288,0.7573406,-9.610864,-30.04335,-25.1772,1008.338
34.790760517,7.797612,-3.420992,0.9835449,0.165401,0.634514,0.7260949,-8.908619,-30.42711,-26.05506,1008.338
34.823042393,6.868007,-4.536345,0.8616635,0.1928643,0.6718111,0.713195,-9.261395,-29.32394,-25.62767,1008.336
34.857807636,5.256692,-3.186181,0.7397822,0.1914428,0.6567789,0.7053775,-8.523194,-29.6908,-25.19836,1008.334
34.890089512,4.079193,-3.068775,0.8007228,0.1730564,0.6635194,0.7107733,-8.523194,-29.6908,-25.19836,1008.334
34.924850464,3.459456,-3.538398,1.653893,0.1923793,0.6727808,0.7141684,-9.610864,-30.04335,-25.1772,1008.334
34.957132339,2.653799,-3.244884,1.288248,0.2025663,0.6612169,0.7203654,-9.622188,-30.4135,-25.60831,1008.334
34.991897583,4.079193,-3.479695,0.7397822,0.2199704,0.6568539,0.7033827,-9.622188,-30.4135,-25.60831,1008.334
35.024179459,1.724194,-0.5445559,0.8007228,0.2368251,0.6722521,0.6633086,-8.499224,-29.67953,-24.3269,1008.336
35.056461334,-2.861857,1.920961,-0.479032,0.1991017,0.6794457,0.6760002,-9.247425,-30.41185,-25.17809,1008.336
35.091226578,-3.171725,0.6882024,-0.7837355,0.1736435,0.635118,0.7546035,-9.247425,-30.41185,-25.17809,1008.334
35.123504162,3.025641,-1.072881,-0.1743284,0.1813831,0.6322202,0.7497359,-9.236101,-30.0417,-24.74698,1008.334
35.158269405,5.56656,-1.248989,0.6179007,0.2024833,0.6789535,0.6706723,-9.224777,-29.67155,-24.31587,1008.333
35.190551281,0.1128787,0.2185802,-0.1133877,0.2174308,0.6920149,0.6566945,-9.224777,-29.67155,-24.31587,1008.331
35.225316525,-3.729488,1.040419,-0.4180913,0.1904558,0.6640236,0.7020367,-9.236101,-30.0417,-24.74698,1008.331
35.257598400,-2.923831,0.7469052,-0.6618541,0.2030987,0.6404076,0.7197625,-9.610864,-30.04335,-25.1772,1008.329
35.289880276,0.236826,0.4533913,-0.4180913,0.190025,0.6437169,0.7077236,-9.610864,-30.04335,-25.1772,1008.329
35.324641228,1.104457,-0.6032587,0.3131972,0.167249,0.6713014,0.727267,-9.961655,-30.03372,-24.73595,1008.329
35.356923103,2.34393,-2.305639,0.6179007,0.1977263,0.6582519,0.7063392,-8.886633,-29.32229,-25.19746,1008.329
35.391688347,1.848141,-1.190286,0.1303751,0.2155768,0.667908,0.6846009,-8.886633,-29.32229,-25.19746,1008.331
35.423970223,-0.2589633,-0.1336365,-0.1743284,0.2029987,0.6722454,0.6899705,-9.235439,-30.40622,-24.74237,1008.333
35.458735466,0.422747,-0.07493369,-0.7837355,0.1842187,0.6451504,0.7072607,-8.873986,-29.68118,-24.75711,1008.331
35.491017342,1.104457,-0.5445559,-0.05244703,0.2034985,0.6640069,0.6860551,-8.873986,-29.68118,-24.75711,1008.331
35.523294926,-0.8786999,0.805608,-0.6009134,0.197663,0.6765593,0.6822715,-9.598879,-30.03771,-24.74147,1008.333
35.558060169,-1.746331,0.3946885,-0.2962099,0.1871054,0.6548716,0.717462,-8.895972,-30.78599,-25.61472,1008.331
35.590342045,0.3607733,-0.4858531,-0.1133877,0.1958494,0.6394256,0.7217063,-8.895972,-30.78599,-25.61472,1008.331
35.625107289,1.910115,-0.1336365,-0.05244703,0.216067,0.6669595,0.6899123,-8.872663,-30.41021,-24.74788,1008.333
35.657389164,-0.6927789,1.040419,-0.6618541,0.1812043,0.6818126,0.6755687,-9.236763,-29.67719,-24.7516,1008.333
35.692153931,-3.791462,1.27523,-0.1743284,0.2025293,0.6713253,0.7044694,-8.883987,-30.78036,-25.179,1008.333
35.724431992,-2.985804,1.216527,-0.479032,0.202593,0.6491104,0.7178793,-8.883987,-30.78036,-25.179,1008.333
35.756713867,-0.2589633,0.6882024,-0.4180913,0.1817934,0.6490214,0.7092217,-8.874647,-29.31666,-24.76173,1008.333
35.791620255,-0.4448843,0.2185802,0.06943437,0.1832088,0.6625625,0.7054282,-8.522533,-30.05531,-25.19374,1008.333
35.823902130,-0.9406735,0.5707968,-0.05244703,0.2011154,0.6582795,0.71165,-8.522533,-30.05531,-25.19374,1008.333
35.858667374,-0.2589633,0.1011746,0.06943437,0.1900185,0.6505312,0.7193648,-9.97364,-30.03936,-25.17168,1008.334
35.890949249,1.166431,0.277283,0.06943437,0.187085,0.6621174,0.7136357,-8.509886,-30.41419,-24.7534,1008.336
