Time (s),Gyroscope X (deg/s),Gyroscope Y (deg/s),Gyroscope Z (deg/s),Accelerometer X (g),Accelerometer Y (g),Accelerometer Z (g),Magnetometer X (uT),Magnetometer Y (uT),Magnetometer Z (uT),Barometer (hPa)
0.023377895,-0.1046317,0.1535767,-0.06078933,0.06351318,-0.0886661,-0.9934078,-0.3080013,-3.574701,34.3828,1008.483
0.055935383,-0.165694,0.034362,-0.06071419,0.0639699,-0.08575089,-0.9919136,-0.30232,-3.938511,34.38542,1008.483
0.090998173,0.01907527,-0.144045,0.06160542,0.06832986,-0.08375011,-0.9918873,-0.30232,-3.938511,34.38542,1008.483
0.123551369,0.01901685,-0.08412601,0.0002509318,0.06542954,-0.08572964,-0.992398,-0.2966387,-4.302322,34.38803,1008.483
0.156108856,0.08048598,-0.1434322,-0.06106466,0.06200605,-0.08479567,-0.9938306,-0.6744719,-3.577347,34.384,1008.481
0.191171646,0.0188949,-0.08365731,0.06125675,0.06196621,-0.08186923,-0.9962028,-0.6744719,-3.577347,34.384,1008.479
0.223729134,0.01874077,0.09492116,-0.06108475,0.06153886,-0.08721618,-0.9972507,0.05278802,-3.208243,34.37901,1008.479
0.256287098,0.08005663,0.2138878,-0.06095082,0.05861353,-0.08582073,-0.9919094,-0.30232,-3.938511,34.38542,1008.479
0.291349411,0.2028949,-0.02439655,-0.1219402,0.0640247,-0.09108269,-0.9948952,-0.30232,-3.938511,34.38542,1008.478
0.323903084,0.07881983,-0.02465148,-0.06081953,0.06498884,-0.0881985,-0.9851846,-0.3120515,-3.208307,34.82627,1008.476
0.356461048,-0.0444403,-0.2033109,-0.1832197,0.06001,-0.08187924,-0.9995847,0.05278802,-3.208243,34.37901,1008.48
0.391522884,0.01710867,0.03474049,0.06153763,0.06352048,-0.09010624,-0.9972968,0.05278802,-3.208243,34.37901,1008.479
0.424080849,0.078933,-0.2626754,0.1839926,0.06297835,-0.0852557,-0.9967387,-0.30232,-3.938511,34.38542,1008.479
0.456638336,-0.1669388,-0.2026274,0.0615347,0.06155089,-0.08723816,-0.9924173,-1.044993,-3.213601,34.82864,1008.477
0.491701126,-0.0436142,-0.1427423,0.1226754,0.05570441,-0.0882598,-0.9982277,-1.044993,-3.213601,34.82864,1008.477
0.524254799,0.2637376,-0.08336956,0.0612254,0.05718539,-0.09018,-0.9992253,0.06415057,-3.935864,34.38423,1008.475
0.556812763,0.20127,-0.1428278,6.7316E-06,0.06299849,-0.08719494,-0.9977352,-0.3063703,-3.572118,34.82888,1008.475
0.589370251,-0.1067243,-0.08347365,-7.007644E-05,0.06784494,-0.08423577,-0.9933444,-0.3063703,-3.572118,34.82888,1008.475
0.624432087,-0.1679571,0.03484749,0.06137908,0.07027441,-0.08324319,-0.9909146,0.4363024,-4.297029,34.38565,1008.477
0.656990051,-0.04473861,0.03448182,-0.06111647,0.0634862,-0.08623875,-0.9928872,0.06251955,-3.938447,33.93815,1008.475
0.689548016,-0.04472967,-0.0842661,-3.264658E-05,0.05859142,-0.08482913,-0.9962447,0.06251955,-3.938447,33.93815,1008.477
0.724606514,-0.04459127,-0.3217453,-0.06132779,0.06537601,-0.08182698,-0.9957221,0.05683827,-3.574637,33.93554,1008.477
0.757164002,0.07843311,-0.1426064,0.1221366,0.06440701,-0.08327543,-1.000577,0.0584693,-3.572054,34.38162,1008.477
0.789721966,-0.1063724,-0.08261885,0.1220226,0.06346327,-0.08477002,-0.9952818,0.0584693,-3.572054,34.38162,1008.477
0.824783802,0.2010562,0.03618319,0.06097851,0.06098345,-0.08091451,-0.9952205,0.4249401,-3.569407,34.38043,1008.477
0.857341766,0.2614552,0.1549789,-0.06163042,0.05959952,-0.08725697,-0.9938658,-0.3063703,-3.572118,34.82888,1008.475
0.889899254,0.01453071,0.1544405,-0.1840275,0.0654557,-0.08767987,-0.9909776,-0.3063703,-3.572118,34.82888,1008.473
0.924957752,0.1374449,0.09415109,-0.183968,0.06642718,-0.08766278,-0.9919451,-0.3080013,-3.574701,34.3828,1008.473
0.957515717,0.2605375,-0.08428364,0.06086928,0.06639095,-0.08474292,-0.9928672,0.05683827,-3.574637,33.93554,1008.472
0.990073681,-0.04733217,-0.08379077,0.1831737,0.06392962,-0.0818724,-0.9899209,0.05683827,-3.574637,33.93554,1008.472
1.022631168,-0.1085896,-0.0239122,-0.06187142,0.06393773,-0.08378967,-0.9957506,-0.303951,-3.941094,33.93934,1008.472
1.057693005,-0.1087304,-0.2613023,0.0603765,0.06442671,-0.08426263,-0.9972085,0.05278802,-3.208243,34.37901,1008.472
1.090250969,-0.1084609,-0.08250315,-0.06226826,0.05959635,-0.08820241,-0.9996808,0.05278802,-3.208243,34.37901,1008.472
1.122804642,-0.04674228,0.03645927,-0.06220644,0.06396186,-0.08526058,-0.9928728,0.05278802,-3.208243,34.37901,1008.472
1.157866955,0.1378134,-0.0234615,0.1216071,0.06348823,-0.08671806,-0.9943447,-0.3080013,-3.574701,34.3828,1008.472
1.190424919,0.32166,0.0356673,0.1215913,0.05621428,-0.08972217,-0.9958337,-0.3080013,-3.574701,34.3828,1008.47
1.222982884,0.1363841,-0.08349594,0.06014603,0.05864051,-0.08824808,-0.9924299,-0.3112631,-3.579867,33.49066,1008.47
1.258045197,0.01290444,-0.0240027,0.1214268,0.0678466,-0.08519001,-0.9972259,0.07146263,-4.297092,34.83291,1008.47
1.290603161,-0.04861771,-0.142792,0.1825341,0.06686744,-0.08424187,-0.9947935,0.07146263,-4.297092,34.83291,1008.47
1.323156357,0.01308853,0.1551387,-0.06235521,0.06343951,-0.08282419,-0.9957354,0.06010032,-3.569471,34.82769,1008.47
1.358218670,0.01297326,-0.1421077,-0.06229263,0.06348138,-0.08622996,-0.9948206,-0.30232,-3.938511,34.38542,1008.47
1.390776634,-0.1714303,-0.08215958,-0.06251851,0.05955328,-0.08479445,-1.001079,-0.30232,-3.938511,34.38542,1008.47
1.423334122,0.1362304,-0.2009172,0.1212388,0.06006473,-0.0857841,-0.9957773,-0.3136826,-3.21089,34.3802,1008.47
1.455892086,0.1976077,0.03687423,0.05992898,0.05904454,-0.08190733,-0.9962006,-0.3136826,-3.21089,34.3802,1008.47
1.490954399,0.2581328,-0.02276848,0.1210572,0.05957861,-0.08626757,-0.9977177,-0.3136826,-3.21089,34.3802,1008.47
1.523508549,-0.0498618,0.03676799,0.05982509,0.06199358,-0.08382166,-0.9942991,-0.3096323,-3.577284,33.93673,1008.47
1.556066036,-0.110974,0.2150236,-0.00119614,0.06347416,-0.08621677,-0.9977207,-0.303951,-3.941094,33.93934,1008.468
1.591127873,-0.0495385,-0.1421528,-0.1237049,0.0659394,-0.08719201,-0.9900039,-0.6744719,-3.577347,34.384,1008.466
1.623685837,0.07348686,-0.2013714,0.05997532,0.06491606,-0.08426068,-0.9962421,-0.6744719,-3.577347,34.384,1008.466
1.656243801,0.1353323,-0.08211116,0.05990344,0.0644782,-0.08768598,-0.9924269,-0.3080013,-3.574701,34.3828,1008.466
1.691306114,0.1967866,-0.2007499,-0.001232782,0.06198876,-0.08381287,-0.9962325,0.05278802,-3.208243,34.37901,1008.471
1.723859787,0.01200056,-0.140749,-0.06244623,0.06154367,-0.08722498,-0.9953173,0.05278802,-3.208243,34.37901,1008.471
1.756417751,0.07345966,0.03776389,0.05995772,0.06153804,-0.08673906,-0.9953099,0.4249401,-3.569407,34.38043,1008.469
1.791479588,0.2571794,0.1563921,-0.06249328,0.05909445,-0.0858034,-0.9943265,0.06578159,-3.933282,34.8303,1008.469
1.824037552,0.07172224,0.03720299,-0.001288619,0.06296505,-0.08380457,-0.9952666,0.06578159,-3.933282,34.8303,1008.469
1.856595039,-0.1129979,0.1560319,-0.001302447,0.06296258,-0.08237321,-0.9894442,0.05683827,-3.574637,33.93554,1008.471
1.891657829,0.07206117,-0.0816813,-0.123734,0.06246518,-0.08188486,-0.9913698,-1.027949,-4.305033,34.83648,1008.471
1.924211502,0.0723077,-0.08155347,0.2434484,0.06203583,-0.0867525,-0.9909602,-1.027949,-4.305033,34.83648,1008.471
1.956769466,0.01087154,-0.02140417,-0.1241453,0.06493095,-0.0852391,-0.9948069,0.0584693,-3.572054,34.38162,1008.472
1.989326954,0.01125178,0.03848103,-0.06336104,0.0605734,-0.08724427,-0.9938666,-0.3153136,-3.213473,33.93412,1008.472
2.024389744,0.01112519,-0.02081464,0.1202851,0.06100682,-0.08333527,-0.997191,-0.3153136,-3.213473,33.93412,1008.472
2.056946754,-0.05015797,-0.1397289,0.1204282,0.06832061,-0.0832576,-0.9933299,0.06251955,-3.938447,33.93815,1008.472
2.089504719,-0.1109792,-0.08033118,-0.002116045,0.06298481,-0.08621873,-0.998687,-0.3080013,-3.574701,34.3828,1008.472
2.124562740,-0.4176081,-0.1990526,-0.002087308,0.06201973,-0.08577189,-0.9928787,-0.3080013,-3.574701,34.3828,1008.472
2.157120705,-0.1083842,-0.1984462,0.05931243,0.06595835,-0.08912905,-0.9914837,-0.300689,-3.935928,34.83149,1008.472
2.189678669,0.07607999,0.03996935,-0.06279057,0.06006954,-0.08579289,-0.993844,-0.30232,-3.938511,34.38542,1008.477
2.224740982,-0.1088553,-0.198111,-0.001027672,0.06292513,-0.07945117,-0.9908497,-0.30232,-3.938511,34.38542,1008.477
2.257298946,0.1380261,-0.2565418,-0.1228467,0.07513181,-0.08315771,-0.9957518,0.05683827,-3.574637,33.93554,1008.479
2.289856911,0.07663056,-0.4333977,0.1832863,0.0668582,-0.08374938,-0.9962362,-0.6687906,-3.941158,34.3866,1008.477
2.324914455,-0.2931015,-0.9066151,0.2435275,0.06103862,-0.0857714,-0.9957781,-0.6687906,-3.941158,34.3866,1008.477
2.357472420,-1.64358,-0.962139,0.3039069,0.04981192,-0.0834901,-0.995249,0.05683827,-3.574637,33.93554,1008.477
2.390029907,-1.268179,-0.4829482,0.1806725,0.0518072,-0.08735637,-0.9943432,-0.6687906,-3.941158,34.3866,1008.471
2.422587872,0.8870334,0.05306132,-0.06432404,0.05182133,-0.08928461,-0.9977563,-0.6687906,-3.941158,34.3866,1008.477
2.457650185,1.864704,0.5268663,0.05799251,0.05911662,-0.08822195,-0.9967803,0.06251955,-3.938447,33.93815,1008.475
2.490272999,0.4442298,0.6435496,-0.1251318,0.05900228,-0.0789765,-0.9995394,0.0584693,-3.572054,34.38162,1008.475
2.522826672,-0.5396267,0.4629872,-0.1244682,0.06975528,-0.08128832,-0.9947513,0.0584693,-3.572054,34.38162,1008.475
2.557888508,0.01575554,0.164166,0.05931112,0.06438349,-0.07800075,-0.9850284,0.05278802,-3.208243,34.37901,1008.475
2.590446472,0.07777832,-0.2516942,0.1813912,0.06252681,-0.08770479,-0.9938755,0.0584693,-3.572054,34.38162,1008.475
2.623003960,0.2005546,-0.2505934,0.1196059,0.06302985,-0.08867905,-0.9919574,0.0584693,-3.572054,34.38162,1008.475
2.658066750,0.3839288,-0.3684555,0.1189274,0.06254132,-0.08915811,-0.9948644,0.4208899,-3.203013,34.82389,1008.475
2.690624237,-0.6002414,0.04885295,-0.1874581,0.05127402,-0.0849002,-1.001556,-0.30232,-3.938511,34.38542,1008.475
2.723178387,-0.4740838,0.2268537,-0.1868474,0.05320045,-0.08293337,-1.001044,-0.30232,-3.938511,34.38542,1008.475
2.758239746,0.01954041,0.04762069,-0.2473227,0.07072075,-0.08126024,-0.9981354,-0.3136826,-3.21089,34.3802,1008.472
2.790797711,0.264837,-0.07129244,0.1199797,0.07022689,-0.07935152,-0.991822,-0.30232,-3.938511,34.38542,1008.472
2.823355675,-0.1664326,-0.01153978,-0.06391586,0.06050492,-0.08093625,-0.9918368,-0.30232,-3.938511,34.38542,1008.472
2.858417988,-0.1040199,-0.07100736,0.05780406,0.05714592,-0.08677863,-0.9991734,-0.6744719,-3.577347,34.384,1008.472
2.890975952,-0.2877729,-0.1300499,-0.06488778,0.06054294,-0.08766425,-1.008374,-0.3063703,-3.572118,34.82888,1008.47
2.923529625,-0.1026931,0.107639,-0.1258034,0.06051462,-0.08238078,-0.994759,-0.3063703,-3.572118,34.82888,1008.47
2.956087589,-0.04068922,0.04729035,-0.002738371,0.06398314,-0.08577505,-0.9865968,-0.3080013,-3.574701,34.3828,1008.47
2.991149902,-0.1017681,-0.19043,-0.06384917,0.05998821,-0.07898577,-0.9947067,-0.30232,-3.938511,34.38542,1008.468
3.023707867,-0.2858968,0.04785948,-0.002773546,0.05952351,-0.08283763,-1.003949,-0.30232,-3.938511,34.38542,1008.468
3.056265831,-0.2232618,0.1658048,-0.002838952,0.05951787,-0.08235172,-1.003942,-0.3063703,-3.572118,34.82888,1008.468
3.091327190,-0.7136906,0.5208063,-0.1250523,0.06154767,-0.08675665,-0.9914432,-0.2966387,-4.302322,34.38803,1008.468
3.123881340,-0.7720188,0.3409683,-0.1246578,0.06543669,-0.08431586,-0.9827089,-0.2966387,-4.302322,34.38803,1008.468
3.156438828,-0.2763246,-0.3132939,-0.001962045,0.06450189,-0.08820485,-0.9851842,-0.6671596,-3.938575,34.83268,1008.468
3.191501617,-0.7043375,-0.3119563,-0.001934307,0.06438889,-0.0818155,-1.001038,-0.3080013,-3.574701,34.3828,1008.468
3.224059105,-1.684033,0.1647522,-0.1239988,0.05949525,-0.07898113,-0.9971231,-0.3080013,-3.574701,34.3828,1008.466
3.256617069,-2.168364,-0.4291804,-0.1842705,0.06433282,-0.07505454,-0.9917507,0.06415057,-3.935864,34.38423,1008.466
3.291678906,-1.421057,-0.6051234,-0.1224734,0.05950089,-0.07946704,-0.9971306,-0.30232,-3.938511,34.38542,1008.468
3.324232578,0.1817265,-0.2461071,0.3058839,0.06537209,-0.08372227,-1.006385,-0.30232,-3.938511,34.38542,1008.468
3.356790543,-5.541143,-2.267402,-0.1236438,0.04482553,-0.07002286,-0.978604,0.06415057,-3.935864,34.38423,1008.468
3.389348507,-17.539,-1.851035,-2.020825,0.05491033,-0.07296123,-1.051165,0.06415057,-3.935864,34.38423,1008.468
3.424410820,-12.86291,4.394464,-1.164033,0.05944204,-0.07317659,-0.991234,0.06415057,-3.935864,34.38423,1008.47
3.456968784,-5.479616,6.297853,-0.6744384,0.05091682,-0.05380861,-0.999631,0.4233091,-3.57199,33.93435,1008.47
3.489526272,-2.034078,5.940968,-0.5520396,0.06311011,-0.05463707,-0.9962717,0.08119416,-5.027297,34.39206,1008.472
3.524584770,-4.126012,4.989273,-0.9804354,0.08911788,-0.07131175,-0.9955845,0.08119416,-5.027297,34.39206,1008.472
3.557142735,-2.649353,7.249548,-0.8580366,0.0872873,-0.03783823,-0.9873381,-0.2866743,-5.032158,34.0109,1008.472
3.589700699,0.4270199,6.892663,-0.3684414,0.06549915,-0.04691209,-0.9782713,-0.653378,-5.035173,33.94836,1008.471
3.624762535,4.364778,5.227197,0.5495495,0.09285507,-0.0552765,-0.9842258,-1.023899,-4.671426,34.39302,1008.471
3.657320023,0.980767,2.728997,-0.001245009,0.08745771,-0.05384466,-0.9938663,-1.023899,-4.671426,34.39302,1008.469
3.689877987,1.349932,2.728997,-0.1848432,0.08669014,-0.03098471,-0.9998007,-1.014167,-5.401631,33.95216,1008.469
3.724936485,2.888118,-0.5424546,0.304752,0.1039594,-0.04782203,-0.9884732,-0.651747,-5.03259,34.39444,1008.469
3.757494450,5.226162,-1.613111,0.7331477,0.07605224,-0.0369685,-0.9969816,-0.651747,-5.03259,34.39444,1008.471
3.790051937,8.548644,-1.137264,1.52874,0.08016767,-0.05586816,-0.9972739,-0.6631095,-4.304969,34.38922,1008.471
3.822609901,10.94821,0.1713167,1.712338,0.06282994,-0.07642362,-1.015456,-1.019849,-5.03782,33.94955,1008.476
3.857671738,1.780624,2.193669,0.304752,0.0682171,-0.07403192,-0.9917389,-1.019849,-5.03782,33.94955,1008.476
3.890229702,-8.679044,5.940968,-2.57162,0.05111091,-0.07033392,-0.9989167,-0.6704216,-3.943741,33.94053,1008.476
3.922783375,-14.83179,7.30903,-3.734408,0.05376,-0.04791982,-1.003894,-0.6614785,-4.302386,34.83529,1008.476
3.957845688,-10.5864,4.394464,-4.713599,-0.02015755,-0.02438759,-1.046485,-0.6614785,-4.302386,34.83529,1008.475
3.990403652,-4.864341,8.915014,-4.5912,0.09725507,-0.01678222,-0.9933103,-0.6647406,-4.307552,33.94314,1008.476
4.022961140,-6.279473,3.204845,-3.367212,0.06085498,0.001014429,-1.056326,-1.392,-4.676656,33.94813,1008.475
4.058023930,-10.21723,2.90744,-8.69156,0.0763135,-0.02228159,-1.019476,-1.392,-4.676656,33.94813,1008.475
4.090581417,-14.09346,2.610035,-11.87393,0.1625257,-0.01644363,-0.9875677,-1.382268,-5.40686,33.50728,1008.475
4.123135567,-9.725011,4.334982,-8.140765,0.1533619,-0.01482283,-0.9430635,-1.374957,-5.768088,33.95596,1008.473
4.158197403,-51.56368,-7.85861,-7.65117,0.09811836,0.006261828,-0.9286705,-1.374957,-5.768088,33.95596,1008.473
4.190754890,-36.85862,-9.10771,-4.897197,0.2180973,-0.06571321,-1.001907,-1.743058,-5.773318,33.51108,1008.475
4.223312855,-1.849496,-12.08176,0.6107489,0.1101805,0.04033704,-1.01227,-1.365225,-6.498293,33.51511,1008.475
4.255870819,-27.81408,-11.24902,-2.57162,0.1083235,0.1265964,-0.9626144,-1.365225,-6.498293,33.51511,1008.473
4.290933132,-40.79638,-9.999924,-7.528771,0.1000794,0.1297558,-0.9330723,-0.9807639,-7.647714,33.52219,1008.473
4.323486805,-60.36211,-1.969997,-10.16035,0.05813207,0.1183986,-1.013445,-0.9710324,-8.377918,33.08134,1008.473
4.391106606,-31.01351,-0.06660705,-5.753989,0.02899088,0.1957692,-1.010787,-0.5832348,-9.832728,32.70825,1008.475
4.423665047,-27.38339,2.31263,-1.102834,0.1173643,0.1746084,-1.020379,-0.566191,-10.92416,32.71609,1008.475
4.456222057,-69.52969,4.334982,-8.507961,0.1271091,0.2725897,-0.9502542,-0.566191,-10.92416,32.71609,1008.473
4.491284847,-43.99581,-9.702519,-12.24112,0.07167897,0.2337234,-0.8990724,-0.5491471,-12.01559,32.72392,1008.475
4.523838520,-0.9881116,-36.34998,-5.876387,0.06674455,0.146377,-0.9429374,-0.1559014,-13.83458,32.28971,1008.475
4.556396485,-38.88903,-37.06375,-9.915547,0.04575304,0.09346312,-1.016231,-0.1559014,-13.83458,32.28971,1008.477
4.591458798,-44.48803,-28.73642,-15.42349,-0.006360131,0.1388811,-1.00002,0.2146194,-14.19833,31.84507,1008.477
4.624016762,-43.87275,-34.92244,-7.589971,-0.01229572,0.1997963,-0.9463965,1.322132,-14.92318,30.95458,1008.477
4.656574249,-62.39252,-30.63981,-2.020825,-0.05150571,0.1765035,-0.9597653,1.322132,-14.92318,30.95458,1008.477
4.691636086,-225.0711,-35.0414,-14.8115,-0.1443999,0.4176796,-1.354782,2.076167,-16.37571,30.51657,1008.475
4.724190235,-59.07003,-33.07853,-16.21908,-0.4424735,0.02821244,-1.423758,3.18307,-17.47433,27.90813,1008.477
4.756747723,-9.909594,-45.56952,-12.05753,-0.4349611,0.3247965,-1.321115,3.18307,-17.47433,27.90813,1008.477
4.789305687,27.74521,-30.93721,-12.73072,-0.3073528,0.09886666,-1.397192,4.768653,-21.84416,25.32181,1008.477
4.824368000,52.17161,-27.5468,-8.018366,-0.28334,-0.2477983,-1.193202,5.502382,-22.21043,23.98383,1008.477
4.856925964,20.5465,-31.11566,-33.96691,-0.5251029,-0.2385108,-0.8317443,5.502382,-22.21043,23.98383,1008.475
4.889483929,-144.7778,-21.83663,-77.41848,-0.276641,-0.8036027,-0.8990939,5.868853,-22.20778,23.98264,1008.474
4.924542427,65.64613,19.50262,-127.3572,-0.6281009,-1.347129,-1.228009,5.831915,-20.77505,20.08499,1008.474
4.957099915,137.5102,-25.88133,-157.2837,-0.4862815,0.344677,-0.5019222,5.831915,-20.77505,20.08499,1008.474
4.989657879,31.12922,-14.99632,-167.6264,-0.1399467,1.009499,-1.097302,6.196933,-21.52032,16.58417,1008.471
5.024719715,-167.7275,40.38043,-149.083,-0.01347467,1.27841,-0.8748347,7.980752,-19.3471,12.61164,1008.469
5.057277203,-131.2417,73.57079,-117.2593,-0.3514253,0.1901758,-0.6600569,7.980752,-19.3471,12.61164,1008.469
5.089835167,-136.9638,118.9548,-148.5934,-0.5608473,-0.7551913,-0.1807499,9.465667,-21.91602,6.953678,1008.469
5.124893665,36.48211,9.985672,-142.7794,-0.8741964,0.8974663,-0.1615178,12.08143,-26.29127,2.133623,1008.467
5.157451630,-16.12387,-12.2602,-122.3388,-0.5312991,0.5274363,-0.3154074,12.08143,-26.29127,2.133623,1008.466
5.190009117,-15.50859,-36.40946,-100.7355,-0.5733347,0.7086413,-0.3116355,16.9113,-30.25361,3.039037,1008.466
5.222567082,-69.77581,-35.16036,-109.5482,-0.686016,0.6263717,-0.1788865,22.08655,-32.75549,4.378887,1008.464
5.257629395,-90.8182,-43.01184,-108.0794,-0.6161235,0.6866217,-0.1886691,22.08655,-32.75549,4.378887,1008.469
5.290187359,-86.38822,-47.11603,-95.9007,-0.7026117,0.6865199,-0.3065311,26.49798,-33.82032,3.480311,1008.469
5.322740555,-60.36211,-64.00862,-84.21161,-0.7180922,0.69749,-0.4112416,31.25153,-33.42986,2.124031,1008.47
5.357802868,-52.30201,-62.99744,-85.1908,-0.6806985,0.607908,-0.4832174,31.25153,-33.42986,2.124031,1008.47
5.390360832,-27.69103,-62.40263,-82.62043,-0.6335655,0.5370012,-0.4664597,34.17295,-33.05225,0.8374186,1008.472
5.422918797,-9.540428,-54.49166,-75.2153,-0.615046,0.5747319,-0.4808866,35.97606,-31.5941,-0.9632568,1008.474
5.457981110,-14.89332,-45.68848,-70.56415,-0.7458569,0.5593832,-0.4732605,35.97606,-31.5941,-0.9632568,1008.474
5.490539074,-18.09274,-35.63621,-65.72939,-0.758514,0.4233533,-0.5212443,39.23554,-29.3948,-2.264113,1008.475
5.523092747,13.10168,-28.43901,-59.48706,-0.9660217,0.3851596,-0.5192099,41.02813,-26.83489,-2.288336,1008.481
5.558154583,15.80888,-26.77355,-56.30469,-1.102082,0.3899422,-0.5712103,42.08451,-24.28544,-3.202324,1008.483
5.590712547,22.14621,-30.46137,-53.06112,-1.189868,0.4298944,-0.6304548,42.08451,-24.28544,-3.202324,1008.481
5.623270035,19.31595,-32.90009,-53.48952,-1.182538,0.4261376,-0.6382532,43.89009,-22.45057,-2.77525,1008.481
5.655827999,10.76363,-28.08213,-56.79428,-1.166612,0.3472917,-0.674758,43.89009,-22.45057,-2.77525,1008.487
5.690890312,2.518954,-32.24579,-55.0807,-1.172032,0.3863389,-0.5141593,44.9481,-19.89854,-3.243167,1008.487
5.723444462,-5.971836,-42.59548,-58.07948,-1.229266,0.2531799,-0.2546287,46.01016,-17.7129,-4.154543,1008.488
5.791064739,-73.15982,-55.26492,-59.18106,-1.197304,0.118483,-0.572843,46.69946,-15.53987,-6.785295,1008.486
5.823622227,28.85271,-64.90083,-39.78085,-1.021251,0.147819,-0.5343786,47.39281,-13.73323,-9.859508,1008.489
5.856180191,28.11438,-66.38786,-33.04892,-0.951243,0.2154677,-0.461391,47.71424,-11.56507,-12.87142,1008.489
5.891242027,12.05571,-59.66651,-28.45896,-0.847179,0.1102396,-0.4292604,47.71424,-11.56507,-12.87142,1008.491
5.923795700,10.82516,-48.06772,-24.05261,-0.8061132,0.0154649,-0.4181782,47.69007,-10.85774,-16.38149,1008.493
5.956353664,11.00974,-37.59908,-16.83108,-0.7700405,-0.03639811,-0.4523573,47.31404,-10.87552,-18.99301,1008.493
5.991415977,26.51466,-31.17514,-9.548351,-0.7561318,-0.09421469,-0.4169995,47.31404,-10.87552,-18.99301,1008.495
6.023973942,31.19075,-28.85538,-6.916777,-0.7238079,-0.135933,-0.3422604,47.30752,-10.88585,-20.7773,1008.496
6.056531906,30.08325,-29.33123,-5.998786,-0.6849505,-0.1147946,-0.2839701,48.04553,-11.61814,-22.49501,1008.498
6.091594219,23.93051,-28.37953,-3.122414,-0.6651322,-0.09571788,-0.2542123,48.04553,-11.61814,-22.49501,1008.5
6.124147892,-188.5238,-44.37991,-35.0685,-0.9130902,0.2646937,0.04155175,47.6758,-11.62595,-23.38597,1008.503
6.156705856,-146.439,21.04913,-43.20802,-1.174615,-0.8655266,-0.7585093,47.3014,-11.64114,-25.55142,1008.503
6.189263821,5.349217,-7.620687,-32.80412,-1.083131,-0.2637673,-0.5135291,47.3014,-11.64114,-25.55142,1008.505
6.224325180,-1.234221,-6.074182,-22.52262,-1.059218,-0.0488547,-0.4658027,48.30003,-5.392953,-26.49195,1008.507
6.256883144,14.82444,-6.60951,-6.121185,-1.049252,-0.1213231,-0.3199714,47.533,-3.215382,-26.50524,1008.507
6.289441109,31.55991,-11.60591,0.3659514,-1.04157,-0.07203431,-0.1297431,47.533,-3.215382,-26.50524,1008.508
6.324499607,8.671699,-11.78435,0.4883502,-0.9514291,0.03308514,-0.009799061,47.88406,-2.11872,-26.06819,1008.508
6.357057095,-17.72358,-12.49812,2.446731,-0.9610813,0.02376323,-0.01814937,47.17221,-3.581839,-26.50144,1008.51
6.389615059,-24.98382,-16.60231,5.506701,-0.9501747,-0.003560943,-0.06981471,47.17221,-3.581839,-26.50144,1008.51
6.424677372,-26.09131,-13.21189,5.139504,-0.9977989,-0.1716082,-0.2303968,46.42627,-2.862094,-26.95036,1008.514
6.457235336,-3.018518,-1.375188,-1.225233,-1.321716,-0.2726195,-0.5332523,47.15027,-2.498156,-27.84749,1008.514
6.489793301,18.57762,-21.36078,-0.3684414,-0.9318828,-0.02570639,-0.06388632,47.15027,-2.498156,-27.84749,1008.514
6.524850845,19.439,-12.08176,-0.2460426,-0.9083839,-0.07789274,-0.06325505,46.0265,-1.053436,-28.30044,1008.514
6.557408810,0.4885474,-11.48695,-4.285203,-1.043974,-0.08781756,-0.1923372,46.4143,-2.508246,-28.67353,1008.516
6.589966774,-5.233506,-10.41629,-3.061215,-0.942126,-0.1350877,-0.1931567,46.4143,-2.508246,-28.67353,1008.516
6.622524262,-4.064484,-15.29373,6.60829,-0.9927464,-0.1490496,-0.04782441,44.9541,-2.882644,-28.66616,1008.518
6.657587052,2.826591,-16.0075,12.91183,-0.9503885,-0.2648997,-0.2067302,45.30921,-2.152376,-28.67257,1008.518
6.690144539,8.917809,-19.04103,14.80901,-0.9913212,-0.02642392,-0.0764077,45.30921,-2.152376,-28.67257,1008.52
6.722698689,2.088261,-16.06698,13.27902,-1.001023,-0.05938129,-0.01792917,44.58842,-3.256851,-30.00058,1008.52
6.757761002,5.410744,-13.09293,9.239863,-1.00112,-0.01692943,-0.05498481,44.22195,-3.259498,-29.99939,1008.521
6.790318966,6.702821,-9.524076,4.037915,-0.974759,-0.0186093,-0.03763432,44.22195,-3.259498,-29.99939,1008.523
6.822876453,8.548644,-7.620687,2.875127,-0.9931481,-0.07417586,-0.05489913,43.49874,-3.994995,-30.43786,1008.523
6.857938290,7.133513,-6.014701,4.466311,-0.9826486,-0.1040304,-0.08581747,43.13227,-3.997642,-30.43668,1008.521
6.890496254,1.780624,-5.717296,6.118694,-0.9914232,-0.1027002,-0.08288845,43.13227,-3.997642,-30.43668,1008.523
6.923049927,1.596042,-6.133663,8.689069,-0.9867883,-0.08080593,-0.07482486,42.77716,-4.72791,-30.43027,1008.523
6.958112717,-6.156418,-3.278578,10.89225,-0.9673568,-0.07523551,-0.06847474,43.13632,-4.364036,-30.88014,1008.525
6.990670204,-5.910308,-1.137264,12.85063,-0.9854024,-0.1504538,-0.03866876,43.13632,-4.364036,-30.88014,1008.529
7.023228168,-15.44706,1.420416,17.93018,-1.012495,-0.05897284,0.0724796,42.76822,-4.369266,-31.32502,1008.529
7.055786133,-27.99866,6.357334,17.31819,-0.9998348,0.00909356,-0.002867712,42.40906,-4.73314,-30.87515,1008.525
7.090848446,-31.69032,12.12699,15.6658,-0.9771431,-0.02158727,-0.03091018,42.40906,-4.73314,-30.87515,1008.525
7.123402119,-18.58496,16.64754,16.64499,-1.002915,-0.06378867,-0.01606108,42.42042,-5.460762,-30.86993,1008.525
7.155960083,9.533083,15.99325,18.72577,-0.9511845,-0.0001788705,-0.06831201,42.05558,-5.460825,-30.42266,1008.525
7.191021919,4.487833,21.34653,19.70496,-0.9688552,0.01792303,-0.03853279,42.05558,-5.460825,-30.42266,1008.525
7.223579407,-1.726441,29.8523,19.46016,-0.9380935,0.03618696,-0.1185244,42.79583,-5.816759,-29.97636,1008.525
7.256137371,-1.172694,28.0084,22.03054,-1.01981,0.04351712,-0.04147678,43.17856,-6.533985,-28.63411,1008.525
7.291199684,-25.10687,30.98244,20.99015,-1.011026,0.05115035,-0.1974995,43.17856,-6.533985,-28.63411,1008.523
7.323753834,-34.45905,24.5585,14.56421,-0.9863383,0.08212556,-0.3111277,43.55942,-7.254163,-27.80166,1008.523
7.356311321,-24.61465,16.05273,14.13582,-0.99515,-0.07130408,-0.2631888,43.92752,-7.248933,-27.35677,1008.523
7.391374111,9.84072,5.584082,10.64745,-0.9537903,0.08417424,-0.1351787,43.92752,-7.248933,-27.35677,1008.525
7.423931599,-2.403243,3.383287,4.833507,-1.028044,0.167717,-0.2290577,45.02856,-7.23841,-26.91427,1008.529
7.456489563,13.65542,-3.575983,4.221513,-1.035864,0.006182451,-0.2126629,45.40166,-7.660209,-26.91241,1008.529
7.491551399,22.82301,-8.631863,3.487121,-1.007115,0.0929715,-0.1915481,45.40166,-7.660209,-26.91241,1008.531
7.524105072,30.26784,-13.8067,2.324332,-1.018601,0.1090429,-0.2314121,44.67036,-7.66292,-26.46396,1008.531
7.556663036,36.72822,-16.78075,-3.122414,-1.052137,0.08899014,-0.2993584,44.3193,-8.759582,-26.90101,1008.531
7.589221001,46.44955,-24.03743,-7.467572,-1.047636,0.08787987,-0.2563592,44.3193,-8.759582,-26.90101,1008.531
7.624283314,47.0033,-32.90009,-12.24112,-1.135653,-0.007548506,-0.2577301,43.59772,-9.492496,-26.89341,1008.531
7.656841278,60.90851,-47.53239,-12.24112,-1.124305,0.01319668,-0.2980282,43.2353,-9.861537,-27.33568,1008.531
7.689398766,65.21543,-50.38748,-9.73195,-1.007214,0.09077492,-0.2428195,43.2353,-9.861537,-27.33568,1008.531
7.724457264,52.66383,-37.36115,-9.854348,-0.868456,0.1073665,-0.180828,42.52345,-11.32466,-27.76893,1008.529
7.757015228,53.7098,-11.60591,-1.653629,-0.6166276,0.2310896,-0.3730177,40.70511,-12.43412,-28.58358,1008.529
7.789573193,59.5549,25.03435,11.68784,-0.591695,0.2625685,-0.3836791,39.26196,-13.89995,-28.56838,1008.529
7.824635029,46.26497,56.32132,24.41731,-0.7195547,0.3113562,-0.2576168,39.26196,-13.89995,-28.56838,1008.531
7.857192516,21.9001,77.31809,29.12967,-0.8108159,0.3295634,-0.2480668,39.64935,-14.60979,-25.95164,1008.531
7.889750481,-6.217945,93.08054,28.33408,-0.9486008,0.2446083,-0.2371455,41.15808,-16.39538,-21.99241,1008.531
7.924808979,-22.64578,99.80189,24.35612,-1.038583,0.1525163,-0.2297628,41.15808,-16.39538,-21.99241,1008.531
7.957366943,-29.47532,94.86497,23.00973,-1.067025,0.05137216,-0.1930917,43.00893,-16.72567,-18.49089,1008.531
8.022482395,-0.06519973,72.08377,28.33408,-1.091523,-0.09160803,-0.1367608,44.47766,-15.96495,-14.61367,1008.535
8.057544708,31.80602,45.91216,24.96811,-1.069252,-0.120512,-0.1294892,45.58802,-15.93966,-11.62218,1008.535
8.090102673,55.12493,33.18324,20.13336,-0.9946185,0.109607,-0.1801887,46.33783,-16.28047,-8.563171,1008.536
8.122656345,24.54578,34.25389,13.15662,-0.8926306,0.2582317,-0.1872038,46.33783,-16.28047,-8.563171,1008.536
8.157719135,-18.15427,41.80798,2.56913,-0.935914,0.1088668,-0.2759653,45.62114,-17.00564,-7.217356,1008.536
8.190276623,-15.7547,21.82238,-3.673209,-1.059744,-0.08767791,-0.2677266,46.37337,-17.71542,-5.047876,1008.536
8.222834587,17.28554,-19.87376,-15.91309,-1.095526,-0.2971247,-0.1630945,46.37337,-17.71542,-5.047876,1008.536
8.257896423,125.7585,27.53255,-2.082025,-0.8856089,0.3168437,-1.822547,46.37095,-17.34644,-4.158343,1008.536
8.290454388,87.18073,-21.24182,5.690299,-0.9036011,0.1886478,-0.6247441,46.36285,-16.61365,-3.271422,1008.535
8.323008061,0.7346572,-22.5504,-36.90448,-0.8567806,0.5933136,-0.6630862,46.36285,-16.61365,-3.271422,1008.535
8.358070374,-105.8924,-15.65061,-58.07948,-1.031774,-0.2474023,-0.5447485,46.36853,-16.97746,-3.268811,1008.533
8.390628338,-4.310594,-37.30167,-28.70376,-0.9072,-0.2812391,-0.5487686,47.08117,-15.8859,-4.171165,1008.535
8.423186302,-20.86148,-34.62503,-17.01468,-0.8969454,-0.008489911,-0.433924,47.08117,-15.8859,-4.171165,1008.535
8.458248615,11.56349,-41.10845,-6.916777,-0.902919,-0.05250449,-0.4974288,47.77209,-13.71029,-6.355845,1008.535
8.490806580,10.94821,-41.16793,-8.079566,-0.9147707,0.1087106,-0.393932,47.74689,-12.63178,-8.594038,1008.535
8.523360253,8.979336,-39.0861,-8.997557,-0.9444633,-0.01186039,-0.36384,47.74689,-12.63178,-8.594038,1008.533
8.555917740,16.17805,-39.79987,-5.57039,-0.8998148,-0.001964826,-0.3811336,47.02066,-13.37207,-9.860929,1008.535
8.590979576,13.10168,-36.46894,-6.916777,-0.9175539,-0.02553659,-0.3785759,46.63062,-12.29362,-11.65186,1008.535
8.623537541,8.302534,-34.86295,-12.48592,-0.9066247,0.04781667,-0.3397639,46.63062,-12.29362,-11.65186,1008.535
8.656095505,-8.309879,-27.5468,-21.97183,-0.9364422,0.07236916,-0.2673374,46.63756,-13.02825,-12.85741,1008.536
8.691157818,1.411459,-36.82582,-17.25947,-1.06023,-0.02305837,-0.1584639,46.25078,-11.94463,-13.7562,1008.535
8.723711491,6.702821,-38.61025,-15.36229,-0.959639,0.02899253,-0.2007874,46.25078,-11.94463,-13.7562,1008.535
8.756269455,3.872557,-40.45416,-16.95348,-0.9462416,-0.0516156,-0.2842042,45.87373,-11.59122,-15.09583,1008.535
8.791331768,6.210601,-41.10845,-19.70745,-0.9884451,-0.05483932,-0.2310412,45.48393,-10.51239,-16.82304,1008.535
8.856447697,23.86898,-58.95274,-28.88736,-1.012334,-0.05795163,-0.2562012,45.46767,-9.792521,-18.16648,1008.535
8.891509533,29.46798,-60.73716,-29.31576,-0.9935983,-0.1835291,-0.1624265,44.34656,-8.716409,-19.44524,1008.537
8.924067020,31.9906,-59.0717,-27.47977,-1.039988,-0.1520291,-0.06232557,44.34656,-8.716409,-19.44524,1008.537
8.956621170,36.60516,-51.27969,-26.37819,-1.083399,-0.2916495,-0.1567388,43.96626,-8.368159,-21.67702,1008.539
8.989205360,33.34421,-54.78907,-17.07588,-1.113454,-0.008682218,0.05304247,42.84256,-7.233995,-23.40228,1008.539
9.024267197,13.77848,-57.10883,-16.34148,-1.153399,-0.01345521,0.02642248,42.84256,-7.233995,-23.40228,1008.541
9.056825161,7.564205,-62.16471,-19.03426,-1.200467,-0.0448133,-0.05231755,41.75485,-8.403966,-25.11101,1008.539
9.089383125,-12.55527,-72.51439,-25.0318,-1.241804,-0.2592537,-0.252767,39.89798,-7.275465,-26.89762,1008.539
9.124445438,19.56206,-86.90878,-30.05015,-1.262904,-0.01123907,-0.132469,39.89798,-7.275465,-26.89762,1008.539
9.156999111,30.32936,-99.22134,-36.65968,-1.339255,-0.0623576,-0.3308763,38.40714,-6.207165,-29.06734,1008.539
9.189557076,94.87167,-112.4856,-35.7417,-1.393014,-0.2066986,-0.6974927,36.55791,-5.8743,-32.12279,1008.539
9.224619389,178.3644,-115.6976,-21.97183,-0.7439927,-0.004799969,-0.804282,36.55791,-5.8743,-32.12279,1008.537
9.257177353,149.3235,-90.29919,-4.101605,-0.7605842,-0.0545019,0.3439625,33.62227,-6.274414,-34.72337,1008.534
9.289735317,175.3496,-32.95956,22.33654,-0.6275664,0.1141088,-0.2244616,30.00396,-9.272002,-34.69016,1008.534
9.324797630,51.37175,3.740173,18.23618,-0.5162795,0.3653895,-0.1221265,30.00396,-9.272002,-34.69016,1008.534
9.357351303,-36.12029,79.81629,9.913057,-0.4822958,0.2558457,-0.08999416,27.49688,-12.92642,-34.27338,1008.534
9.389909268,-92.35638,141.0817,13.03423,-0.5197245,0.05617646,-0.2148152,26.43077,-14.74567,-32.91854,1008.53
9.422466755,-96.66331,180.2201,28.02808,-0.6685548,0.04345113,-0.1945639,26.43077,-14.74567,-32.91854,1008.529
9.457528591,-87.00349,210.9123,44.67431,-0.9495216,-0.1288332,-0.2003048,28.61237,-12.89302,-29.87995,1008.529
9.490086556,-38.1507,226.0204,58.38298,-1.27648,-0.2029742,-0.223839,32.62391,-10.65816,-25.95777,1008.527
9.522644520,-2.526298,229.7677,57.28139,-1.310813,-0.01674923,-0.2330492,32.62391,-10.65816,-25.95777,1008.525
9.557703018,4.487833,247.0172,57.03659,-1.439415,-0.03070319,-0.311445,36.29557,-9.502258,-19.41386,1008.525
9.590260506,-2.341716,228.9945,58.13818,-1.754803,-0.2686514,0.2328951,40.36047,-10.16534,-13.30416,1008.523
9.622818470,18.57762,192.7111,78.39519,-1.500444,0.2937843,-0.02317677,40.36047,-10.16534,-13.30416,1008.523
9.657880783,-63.13084,152.7399,53.18103,-1.776926,-0.4808182,0.3336056,43.36696,-12.63549,-3.736707,1008.522
9.690438748,17.83929,76.78276,12.78943,-1.626664,-0.005693484,0.911094,44.16856,-15.13112,4.18104,1008.522
9.722996712,-64.54597,-22.78833,-21.23743,-1.485553,0.0362318,0.8603594,43.13044,-18.02445,8.538767,1008.526
9.758054257,-129.8266,-78.93833,-66.95338,-1.497733,-0.03906332,0.4991067,43.13044,-18.02445,8.538767,1008.526
9.790612698,121.6976,-0.6019356,-36.84328,0.2860169,-0.4845428,-7.308213,43.10952,-17.31196,5.920837,1008.526
9.823170185,-68.4222,0.1713167,-17.01468,-0.7928922,-0.07338193,-0.6133805,44.54313,-15.86126,3.292929,1008.524
9.858232498,140.0944,-63.59225,-40.51525,-1.138104,0.3992722,-1.119183,44.54313,-15.86126,3.292929,1008.526
9.890790462,-147.1158,-57.16831,-67.99377,-0.9509192,-0.01065108,-0.009500056,44.88362,-14.40854,2.389153,1008.526
9.923347950,-10.34029,-78.04612,-37.94487,-0.8672325,-0.4032738,-0.3191315,45.57129,-12.23809,-0.6876717,1008.526
9.955902100,-3.141573,-65.01979,-30.96814,-0.7716579,0.1672088,-0.3433899,45.57129,-12.23809,-0.6876717,1008.526
9.990964413,-29.90602,-50.03059,-32.92652,-0.8867915,-0.03195027,-0.3762866,45.52523,-9.701378,-2.426512,1008.524
10.023522377,-24.4916,-37.12323,-24.787,-1.009343,-0.03241355,-0.3056023,45.50408,-8.989254,-5.108166,1008.524
10.056079865,-34.76669,-26.95199,-22.21663,-0.9551799,-0.04998647,-0.3470097,45.50408,-8.989254,-5.108166,1008.53
10.091142654,-7.694604,-30.63981,-19.70745,-0.9113653,0.03562741,-0.3447791,45.84721,-7.905138,-6.837751,1008.529
10.123700142,-6.648637,-31.5915,-20.01345,-0.94937,-0.0465199,-0.3445456,46.19243,-6.75559,-7.739353,1008.529
10.156254292,2.518954,-34.03022,-17.99387,-0.9696363,-0.04855198,-0.2768843,46.19243,-6.75559,-7.739353,1008.529
10.191316128,8.733227,-38.43181,-16.76988,-0.9744205,-0.008399548,-0.2496813,46.17641,-6.035348,-9.019066,1008.53
10.223873615,6.395184,-41.70326,-18.91186,-0.9886583,0.001141085,-0.2509722,45.05343,-4.962189,-10.80762,1008.529
10.256431580,9.410028,-43.30925,-21.11504,-0.9590809,-0.07042301,-0.2467754,45.05343,-4.962189,-10.80762,1008.529
10.291493893,17.47013,-42.17911,-20.99264,-0.9803424,-0.07195332,-0.1853893,45.40085,-4.244097,-12.91694,1008.529
10.324051857,14.20917,-41.70326,-22.21663,-0.9960427,-0.05862358,-0.1692194,45.0238,-3.890682,-14.25658,1008.529
10.356605530,17.77776,-44.91523,-23.19582,-1.006452,-0.08975597,-0.1928864,45.0238,-3.890682,-14.25658,1008.527
10.389163494,19.99275,-50.98229,-25.2766,-1.023601,-0.1158894,-0.1599155,44.26916,-2.811924,-15.53653,1008.527
10.424225807,7.994897,-55.50284,-29.37696,-1.087092,-0.09639458,-0.1402217,43.52565,-2.461155,-16.87498,1008.527
10.456783772,4.918525,-62.46211,-30.35615,-1.134061,-0.1416697,-0.04515853,43.52565,-2.461155,-16.87498,1008.527
10.489398003,12.67098,-69.65931,-26.62298,-1.16799,-0.01272663,0.03804873,43.50068,-1.382269,-19.04945,1008.527
10.524460793,-0.8650567,-74.77467,-26.80658,-1.153795,-0.02314018,0.01757432,42.38175,-0.6755028,-21.28146,1008.527
10.557014465,-27.38339,-82.09082,-26.01099,-1.349912,-0.1195611,-0.1809252,42.38175,-0.6755028,-21.28146,1008.529
10.589572430,9.102391,-97.31795,-30.29495,-1.328199,-0.002497023,-0.1047201,40.88601,0.3850474,-24.78939,1008.529
10.624634743,3.257283,-109.2736,-32.98772,-1.355572,0.02153908,-0.2309717,39.02706,1.448117,-27.40399,1008.529
10.657192707,30.08325,-112.7235,-30.47854,-1.448675,-0.2859342,-0.5342996,39.02706,1.448117,-27.40399,1008.529
10.689750195,143.4168,-141.9881,-11.50673,-1.07606,0.1974302,-0.8047432,36.07275,2.136853,-30.45848,1008.527
10.724812031,299.7581,-118.5526,29.25207,-0.5538998,-0.006465761,-0.7484192,33.48001,2.820486,-34.85237,1008.525
10.757366181,43.80387,-67.22059,-9.181155,-1.163519,-0.1148092,0.5856032,33.48001,2.820486,-34.85237,1008.523
10.789923668,11.62502,18.96729,6.853087,-0.4015285,-0.1763507,-0.7874114,29.52045,-2.314525,-36.96938,1008.523
10.822481632,13.53237,43.71136,26.1921,-0.4626035,0.1430986,-0.1420045,27.7376,-5.604639,-37.38601,1008.523
10.857543945,-29.90602,119.5496,36.29,-0.4108871,0.1245639,-0.1926084,27.7376,-5.604639,-37.38601,1008.522
10.890101910,-78.20507,170.7626,45.10271,-0.6067731,0.02016694,-0.1345567,28.84595,-5.955343,-36.49482,1008.52
10.922659874,-73.71356,200.86,55.935,-0.8578206,-0.04480218,-0.1406227,33.24831,-5.1705,-32.11731,1008.518
10.957718372,-53.96325,215.4923,66.21651,-1.097151,-0.2075391,-0.2023298,33.24831,-5.1705,-32.11731,1008.515
10.990275860,-47.81051,230.0057,68.35848,-1.214301,-0.16574,-0.1116709,38.38181,-3.637612,-25.1347,1008.515
11.022833824,3.872557,237.6192,85.73911,-1.503282,-0.3439021,-0.2364045,42.813,-3.552715,-15.97262,1008.515
11.057896137,16.91638,228.5186,71.66325,-1.633018,-0.3445669,0.282374,42.813,-3.552715,-15.97262,1008.513
11.090454102,22.69996,201.0979,46.0819,-1.733915,-0.09955425,0.6187727,45.0492,-3.850461,-7.310603,1008.513
11.123012066,-53.96325,138.6429,32.67923,-1.808508,0.2901481,0.8490769,46.56163,-4.511777,2.312273,1008.513
11.158069611,-116.5982,94.1512,-8.875157,-1.678548,-0.9545095,0.4693634,46.56163,-4.511777,2.312273,1008.515
11.190627575,-47.37982,-4.587158,-38.43447,-1.595405,-0.04059977,0.9811042,45.84374,-4.120419,7.983524,1008.515
11.223185539,-47.99509,-69.3619,-63.28142,-1.40636,-0.0518227,0.3615448,45.48217,-4.115316,9.322929,1008.515
11.258247852,-313.6707,-83.75629,-31.33533,-0.9030046,1.918604,2.087773,45.48217,-4.115316,9.322929,1008.516
11.290805817,50.20273,-30.045,-37.51648,-1.542944,-0.3433168,0.4780737,45.07103,-1.579037,7.967625,1008.516
11.323363304,55.98631,-54.0753,-17.87147,-0.8192079,0.01032969,-0.81993,46.51419,-0.1132069,7.952425,1008.516
11.355916977,17.22402,-61.09405,-17.99387,-1.068238,-0.2342449,-0.6561726,46.51419,-0.1132069,7.952425,1008.516
11.390979767,-30.58282,-43.7851,-31.02934,-0.805308,0.1302969,-0.3386034,46.48191,1.326907,5.329273,1008.516
11.423537254,-29.16769,-55.14595,-33.66092,-1.037921,0.1740255,-0.2550543,46.82747,2.042046,2.710156,1008.515
11.456095219,-70.45261,-44.97471,-35.1909,-0.9164828,0.02370675,-0.3033856,46.82747,2.042046,2.710156,1008.515
11.491157532,-23.75327,-30.16396,-22.76742,-0.8901891,-0.1146603,-0.3669108,47.1706,3.126162,0.9805708,1008.515
11.523715496,-21.66134,-16.54283,-17.87147,-0.9279309,-0.0443628,-0.330032,46.7822,4.207199,-0.3642893,1008.515
11.556269169,5.472271,-20.0522,-9.73195,-0.9463764,-0.01385141,-0.3590347,46.7822,4.207199,-0.3642893,1008.516
11.591331005,6.702821,-23.14521,-11.20074,-0.926493,0.02788019,-0.3941871,47.50051,4.934947,-1.264033,1008.516
11.623888970,0.980767,-26.83303,-17.19827,-0.9074163,0.02083699,-0.3938296,47.49725,4.929781,-2.156178,1008.519
11.656446934,1.165349,-29.92604,-18.78946,-0.9403985,-0.07151465,-0.3797387,47.49725,4.929781,-2.156178,1008.517
11.691509247,-5.356561,-33.37593,-17.62667,-0.9249029,-0.001769323,-0.282981,46.38345,5.644665,-2.986253,1008.517
11.724067211,-10.5864,-27.90369,-19.70745,-0.8963743,-0.03283789,-0.3158687,46.73771,6.000791,-4.77434,1008.517
11.756620884,-25.90673,-21.95559,-23.68541,-0.9761591,-0.04204451,-0.124515,46.70465,7.812465,-6.061887,1008.515
11.789178848,-9.048209,-35.21984,-17.38187,-1.090452,0.07875124,-0.08292484,46.70465,7.812465,-6.061887,1008.515
11.824241161,-28.06019,-30.46137,-20.74784,-0.9647364,-0.07512293,-0.1917366,46.3276,8.16588,-7.401525,1008.514
11.856799126,-17.41594,-33.7923,-18.66706,-0.9608331,-0.1211651,-0.2088777,45.58408,8.516647,-8.739975,1008.512
11.889356613,-3.879902,-35.81465,-16.03549,-0.9950612,-0.09424024,-0.1364107,45.58408,8.516647,-8.739975,1008.512
11.924419403,-0.4343645,-42.95236,-17.01468,-1.013196,-0.01589486,-0.2091546,45.19754,9.600637,-9.575039,1008.512
11.956973076,-3.756847,-46.81862,-17.32067,-0.9753984,-0.1684644,-0.2163525,44.82455,9.587658,-11.35814,1008.512
11.989531040,9.779193,-54.3727,-15.23989,-0.9983221,-0.1054936,-0.1293286,44.82455,9.587658,-11.35814,1008.512
12.024592876,11.8096,-60.79664,-14.3831,-1.070186,-0.1547864,-0.0768398,44.4244,11.02291,-14.36245,1008.512
12.057150364,14.14764,-62.75952,-11.87393,-1.015842,-0.1175747,0.01793395,44.05732,10.64649,-16.07921,1008.512
12.089708328,27.4991,-62.16471,-6.059986,-1.057403,-0.1415279,0.03597695,44.05732,10.64649,-16.07921,1008.514
12.124770641,-8.248352,-64.48447,4.52751,-1.472827,0.08165838,0.104072,42.20242,11.34317,-19.13727,1008.514
12.157324791,-0.9881116,-58.89325,-3.000015,-1.339747,-0.1145043,0.01732667,40.73104,10.95106,-22.18868,1008.514
12.189882278,4.426305,-67.10162,-4.468801,-1.248349,-0.03229845,-0.05594742,40.73104,10.95106,-22.18868,1008.512
12.222440243,-7.017802,-73.58505,-10.16035,-1.208797,-0.1759292,-0.09974729,39.62752,10.56381,-24.85894,1008.512
12.257502556,15.68583,-77.45131,-10.64994,-1.059464,-0.1959861,-0.07071143,38.89639,9.815763,-27.46404,1008.512
12.290060520,47.86469,-78.70041,-9.058756,-0.9445644,-0.1773311,0.003418938,38.89639,9.815763,-27.46404,1008.512
12.322618485,58.01672,-73.64453,-9.487152,-0.840499,-0.190404,0.07659233,36.32396,9.413132,-30.95796,1008.51
12.357676983,87.61143,-73.46609,-8.079566,-0.9463992,-0.03462566,-0.06787541,34.50883,7.563131,-33.99774,1008.508
12.390234470,117.9445,-70.611,-3.428411,-0.8887684,-0.01094001,-0.0878715,34.50883,7.563131,-33.99774,1008.508
12.422792435,130.9268,-62.75952,11.19824,-0.6840763,-0.0147211,0.1530783,31.97375,4.9828,-36.58385,1008.511
12.457854271,-13.17055,-27.84421,-5.815188,-0.7689205,-0.05492365,0.5184632,29.47844,-0.1442065,-39.15168,1008.511
12.490412235,-43.38053,20.75172,18.66457,-0.4285155,0.1355097,0.02026146,29.47844,-0.1442065,-39.15168,1008.511
12.522969723,-43.68817,57.51094,24.84571,-0.3333963,0.141147,-0.09092101,28.42527,-3.434193,-40.46283,1008.509
12.558028221,-34.27447,111.9955,31.88364,-0.5649456,0.02508401,-0.1340386,28.78848,-3.436712,-41.35616,1008.507
12.590586186,-25.47604,149.7064,37.75878,-0.7268301,0.09561367,-0.07673465,28.78848,-3.436712,-41.35616,1008.507
12.623144150,-33.29003,181.4097,30.90445,-0.8864751,0.3441883,-0.04861937,31.73244,-3.769017,-39.57877,1008.507
12.658206463,-113.9525,217.3362,21.05135,-1.158076,0.3081512,0.04293459,37.99859,-4.785196,-34.36573,1008.507
12.690764427,-192.3385,230.0651,21.47974,-1.425956,0.2074362,0.1533166,37.99859,-4.785196,-34.36573,1008.507
12.723321915,-208.3972,178.971,53.79302,-1.959362,-0.09352854,0.4653683,45.00421,-5.78575,-27.37078,1008.507
12.755875588,-196.8915,91.653,21.84694,-2.16193,-2.348836,1.097733,51.61011,-4.231943,-18.60864,1008.507
12.790938378,133.2033,-69.54034,-6.916777,-1.617918,-0.404925,1.194537,51.61011,-4.231943,-18.60864,1008.507
12.823495865,47.61858,-15.0558,7.709879,-0.2560077,0.6904991,-1.283806,53.81179,-3.465932,-14.73379,1008.507
12.856053829,-77.1591,44.12773,-12.60832,-1.353609,-0.1702218,0.2581784,53.50983,-4.208305,-16.89422,1008.509
12.891115665,12.11724,3.978097,1.345142,-0.7977033,0.1834767,-0.3614849,53.50983,-4.208305,-16.89422,1008.511
12.923673630,8.794754,16.7665,4.405111,-1.0952,-0.02082645,-0.1086083,54.19469,-4.928492,-16.4451,1008.511
12.956227303,22.26927,14.62519,8.56667,-0.9838859,0.1073325,-0.1836174,53.82152,-4.196137,-15.17464,1008.511
12.991300583,1.842152,13.55453,0.5495495,-0.9572751,0.1920666,-0.2505065,53.82152,-4.196137,-15.17464,1008.517
13.023858070,-6.58711,8.379686,-3.673209,-0.9728897,0.01426557,-0.3126594,53.83451,-4.921176,-14.72335,1008.514
13.056416035,8.17948,-1.018302,-1.837227,-0.9741887,-0.001744532,-0.3225699,53.83372,-4.549616,-13.38774,1008.514
13.091478348,2.272844,-4.170792,-3.856807,-0.9553085,0.1027533,-0.2697559,53.83372,-4.549616,-13.38774,1008.514
13.124036312,-12.55527,-2.14844,-10.03795,-0.962698,0.1194605,-0.2245398,53.83778,-4.91601,-13.83121,1008.517
13.156589985,-16.92372,-1.969997,-10.40514,-0.976239,0.025052,-0.2366014,53.83209,-4.552199,-13.83382,1008.517
13.189147949,-11.57083,-1.315707,-7.467572,-0.964972,0.02507497,-0.2095428,53.83209,-4.552199,-13.83382,1008.517
13.224209786,-12.49375,1.479897,-5.447991,-0.955695,0.06552144,-0.2065178,53.83046,-4.554782,-14.27989,1008.517
13.256767750,-10.34029,2.074707,-5.57039,-0.9695636,0.0391927,-0.2276913,54.18557,-3.824513,-14.2863,1008.517
13.289325237,-7.386967,2.134188,-3.856807,-0.9764403,0.04777325,-0.2106356,54.18557,-3.824513,-14.2863,1008.517
13.324388027,-11.01709,1.479897,-4.530001,-0.9765167,0.0455349,-0.2527234,53.80043,-2.738311,-14.73902,1008.517
13.356941700,-8.802099,0.4092405,-3.795608,-0.9695123,0.03101356,-0.2457011,53.4299,-2.374564,-14.29437,1008.517
13.389499664,-6.156418,-0.5424546,-3.061215,-0.9715625,0.0416386,-0.2368363,53.4299,-2.374564,-14.29437,1008.517
13.424561977,-4.064484,-0.8398593,-1.776027,-0.9709215,0.03090001,-0.2249163,54.23124,-2.730057,-13.84826,1008.515
13.457119942,0.7961847,-0.3045308,-0.6744384,-0.9700444,0.0425042,-0.209272,54.15553,-2.008043,-14.74543,1008.515
13.489677429,-0.06519973,-0.6019356,-0.613239,-0.963461,0.05919093,-0.225942,54.15553,-2.008043,-14.74543,1008.513
13.524740219,-2.034078,0.9445689,-1.286432,-0.9682399,0.05325476,-0.2168438,54.53663,-2.727851,-13.84925,1008.514
13.557293892,0.4885474,0.825607,-1.347632,-0.9705618,0.04207788,-0.2237793,53.79964,-2.366751,-13.40341,1008.513
13.589851856,0.5500748,0.5876832,-1.592429,-0.9661711,0.03879079,-0.2364015,53.79964,-2.366751,-13.40341,1008.513
13.622409344,1.288404,-0.2450499,-1.53123,-0.9680922,0.04204589,-0.2097643,53.79069,-2.008107,-14.29817,1008.513
13.657471180,4.856997,-0.4829736,-0.4908402,-0.9708784,0.02749205,-0.2235182,53.78664,-1.641713,-13.85471,1008.513
13.690029144,7.810315,0.2902786,0.4271508,-0.9632617,0.04313175,-0.22087,54.52363,-2.002813,-14.30054,1008.514
13.722587586,6.825876,1.598859,0.5495495,-0.9690123,0.03384966,-0.2268066,54.52363,-2.002813,-14.30054,1008.516
13.757645607,3.81103,2.431592,0.9167459,-0.9656,0.03103359,-0.2389373,54.16122,-2.371854,-14.74282,1008.516
13.790203095,4.856997,2.31263,1.52874,-0.9661006,0.03343041,-0.2330997,54.52689,-1.997647,-13.4084,1008.516
13.822761059,3.872557,2.074707,0.9779454,-0.9678172,0.05290267,-0.2448854,54.52689,-1.997647,-13.4084,1008.516
13.857823372,-0.9881116,2.074707,-0.4908402,-0.9715182,0.03822844,-0.2349548,54.53095,-2.364041,-13.85186,1008.516
13.890381336,1.596042,1.301455,-0.4296408,-0.9587736,0.03062999,-0.2374999,54.22556,-2.366247,-13.85087,1008.516
13.922939301,1.596042,1.836783,-0.8580366,-0.9672778,0.05043552,-0.235256,54.22556,-2.366247,-13.85087,1008.518
13.957997799,1.411459,1.598859,-0.7968372,-0.9694414,0.02470113,-0.2467642,54.95444,-1.994559,-13.40979,1008.518
13.990555286,0.5500748,1.241974,-0.7968372,-0.9612412,0.03160961,-0.2461834,54.53258,-2.361458,-13.40579,1008.516
14.023113251,1.349932,1.65834,-0.3684414,-0.964655,0.03252599,-0.2437492,54.53258,-2.361458,-13.40579,1008.516
14.058175087,2.026734,1.955745,-0.001245009,-0.964206,0.03640643,-0.2407902,54.17016,-2.730498,-13.84806,1008.516
14.090733051,2.703536,1.955745,0.1211538,-0.9715484,0.03971035,-0.2402493,54.2215,-1.999853,-13.40741,1008.522
14.123290539,4.118668,2.074707,0.4883502,-0.9621372,0.02194246,-0.2603479,54.2215,-1.999853,-13.40741,1008.522
14.155844212,7.625732,1.420416,1.52874,-0.9680704,0.03154269,-0.2510116,54.89905,-2.358811,-13.40698,1008.522
14.190907002,8.364061,1.182493,0.6719483,-0.9638944,0.0476722,-0.2589869,54.16611,-2.364105,-13.4046,1008.52
14.223464489,7.010458,0.8850879,-0.1236438,-0.9671379,0.03400911,-0.256292,54.16611,-2.364105,-13.4046,1008.518
14.256022453,0.7961847,-1.196745,-1.041635,-0.9558801,0.02548791,-0.2738344,54.53989,-2.722685,-12.95711,1008.518
14.291084766,4.364778,-1.55363,0.4271508,-0.9646147,0.02864751,-0.2457419,54.16774,-2.361522,-12.95853,1008.518
14.323642731,5.103107,-0.7208974,0.2435526,-0.9603801,0.04276745,-0.2392467,54.16774,-2.361522,-12.95853,1008.518
14.356196404,6.333656,1.123012,2.691528,-0.9839803,0.02866405,-0.1983521,54.54394,-3.089079,-13.40057,1008.518
14.391259194,14.57833,0.2307976,2.813927,-0.9536732,0.05257014,-0.2381369,54.9585,-2.360953,-13.85325,1008.518
14.423816681,9.533083,2.25315,1.651139,-0.9663096,0.04950717,-0.2420384,54.9585,-2.360953,-13.85325,1008.518
14.456374645,20.5465,0.6471642,5.017105,-0.9685788,-0.008796073,-0.2525933,54.61069,-3.452449,-13.39815,1008.518
14.491629124,24.79189,-4.646639,9.362263,-0.986058,0.028876,-0.2505515,54.53989,-2.722685,-12.95711,1008.518
14.524187088,10.94821,-3.278578,6.057495,-0.9540516,0.08893201,-0.2196968,54.53989,-2.722685,-12.95711,1008.52
14.556740761,7.133513,-6.193144,6.485891,-0.9906811,-0.0429238,-0.2922461,54.9788,-3.447219,-12.95327,1008.521
14.589298725,21.71552,-13.62826,8.383072,-0.9483569,0.0432009,-0.2996738,54.19614,-4.180575,-12.94547,1008.521
14.624361038,6.641294,-13.44982,1.406341,-0.9676721,0.1195882,-0.2665869,54.19614,-4.180575,-12.94547,1008.521
14.656919003,-1.418804,-19.15999,-2.143224,-1.015195,0.06967179,-0.2208984,54.27831,-5.63796,-13.3813,1008.521
14.689476490,-3.141573,-24.09691,-6.488381,-1.009836,0.06117548,-0.2606701,53.83451,-4.921176,-14.72335,1008.521
14.724538326,-7.510022,-31.71046,-12.48592,-0.9913236,0.05331674,-0.2960944,53.83451,-4.921176,-14.72335,1008.523
14.757092476,-1.726441,-44.32042,-18.85066,-1.02385,0.04843022,-0.2768025,53.83149,-4.925973,-15.55177,1008.521
14.789649964,4.918525,-58.95274,-26.31698,-1.0895,0.101577,-0.1826365,53.07903,-4.216559,-17.78497,1008.521
14.824712753,4.79547,-69.77827,-24.05261,-1.207534,0.1294061,-0.1216759,53.07903,-4.216559,-17.78497,1008.521
14.857270241,-29.96754,-76.5591,-16.70868,-1.076034,0.6066083,0.1610023,52.32516,-3.50936,-20.40052,1008.521
14.889828205,-117.1519,-63.47329,0.1211538,-0.7746848,0.9820943,0.1084348,51.19184,-2.07977,-23.46618,1008.521
14.924890518,-344.0037,-7.85861,-7.834768,-0.6826263,0.8905025,-0.3242235,51.19184,-2.07977,-23.46618,1008.521
14.957444668,-356.6783,15.63636,-0.001245009,-0.7818188,0.1170176,-0.5558648,50.43231,-1.00876,-26.08434,1008.521
14.990002155,-277.3694,11.53218,20.92895,-0.9127254,-0.408242,-0.4250229,49.98793,4.084527,-25.67364,1008.521
15.022560120,-178.9255,7.606434,12.60583,-1.08417,-0.543717,0.1212251,49.98793,4.084527,-25.67364,1008.521
15.057622433,-200.3371,17.36131,-7.773569,-0.8966393,-0.5087268,-0.2994433,50.27468,9.925856,-22.65783,1008.517
15.090180397,-123.4277,38.23912,10.95345,-0.5858678,-1.020289,-0.5226505,49.87148,12.47468,-21.8465,1008.519
15.122738361,102.0704,33.95649,8.505471,-1.486789,-0.7494094,-1.001508,49.87148,12.47468,-21.8465,1008.521
15.157795906,-12.49375,22.17926,7.036685,-0.9982547,0.6691631,0.2010351,50.23069,13.58426,-19.17909,1008.52
15.190353870,-117.6442,41.15369,-23.99141,-0.947122,0.4631541,0.01464301,50.96098,13.95816,-18.35566,1008.52
15.222911835,-107.6767,35.32455,-13.70991,-0.9894332,-0.6619369,-0.5385458,50.96098,13.95816,-18.35566,1008.52
15.257974148,-1.972551,21.7629,2.263133,-0.9958468,-0.08942068,-0.235912,51.34128,13.60991,-16.12387,1008.52
15.290532112,-37.4739,27.88943,-11.20074,-0.9883423,0.3782317,0.08105996,52.4048,16.54347,-13.53562,1008.515
15.323089600,-72.42149,27.3541,-24.5422,-1.007121,0.02317932,-0.1278404,52.4048,16.54347,-13.53562,1008.514
15.358148098,-47.62593,15.57688,-28.88736,-0.9683748,0.02026373,-0.2299148,52.04867,16.18439,-12.25733,1008.514
15.390706062,-50.33313,-1.910516,-26.43938,-1.055038,-0.04736505,-0.1424049,52.39302,18.01605,-10.55101,1008.514
15.423264027,-56.60894,-12.85501,-27.60217,-0.9797505,0.08792056,-0.178117,52.39302,18.01605,-10.55101,1008.514
15.458326340,-81.03533,-7.144839,-27.72457,-0.9238871,-0.20702,-0.2469598,52.00709,19.47381,-9.668125,1008.514
15.490884304,-39.07361,-11.3085,-11.75153,-1.00563,-0.1407213,-0.09892286,51.61524,21.29502,-8.851573,1008.518
15.523441792,-32.85934,-14.22307,-6.059986,-1.043256,0.04001536,-0.08646162,51.61524,21.29502,-8.851573,1008.518
15.555995941,-41.84235,-17.61348,-4.713599,-1.005543,-0.1295217,-0.2094454,51.22931,22.75278,-7.968685,1008.514
15.591057301,-41.10402,-18.98155,0.7943471,-0.9601077,-0.1230209,-0.1199653,51.21958,23.48299,-7.527835,1008.512
15.623615265,-24.98382,-18.5057,8.077075,-1.007716,-0.02740922,-0.01405129,51.21958,23.48299,-7.527835,1008.512
15.656173229,-24.86077,-26.0003,9.301064,-0.9531761,0.02169853,-0.1815699,50.11285,23.83627,-7.972952,1008.512
15.691235542,-11.63236,-28.37953,19.70496,-0.9607034,-0.2016693,-0.1404997,50.83848,24.2028,-8.424013,1008.512
15.723793507,-16.49303,-23.5021,21.05135,-1.049156,0.06001769,-0.01364424,50.11388,23.46508,-9.244832,1008.51
15.756347180,-28.92158,-33.85178,20.86775,-0.9941177,0.1799229,-0.03845377,50.11388,23.46508,-9.244832,1008.51
15.791409493,-35.93571,-39.97831,23.49932,-1.048896,0.2524196,0.212611,50.8525,23.10656,-9.244598,1008.51
15.823967457,-88.04946,-52.35035,23.13213,-1.073238,0.593613,0.2473258,50.85897,22.37119,-10.57759,1008.51
15.856525421,-141.5783,-42.77392,15.727,-1.02708,-0.03078155,-0.1818158,50.85897,22.37119,-10.57759,1008.51
15.891587734,-83.43491,-41.22741,23.25453,-1.029827,-0.325684,-0.3197243,50.87033,21.64357,-10.57237,1008.51
15.924145699,-44.79566,-46.87811,36.71839,-1.355386,-0.1465257,-0.3577638,49.75793,22.36067,-11.0201,1008.51
15.956699371,-31.81337,-75.01259,46.0207,-1.490634,0.2785066,-0.2675246,49.75793,22.36067,-11.0201,1008.513
15.989257336,-75.92855,-99.34029,46.3879,-1.508356,0.513303,-0.2228383,50.49896,21.63318,-11.9094,1008.511
16.024319172,-136.1024,-103.266,49.01947,-1.277932,0.5028621,-0.04630412,49.43163,19.06639,-13.99046,1008.511
16.056876659,-314.2244,-89.52594,23.37692,-1.126121,0.397258,-0.008424887,49.43163,19.06639,-13.99046,1008.511
16.089434624,-538.0613,-83.99422,-22.58382,-0.7017776,0.2748206,-0.9315352,49.06679,19.06632,-13.5432,1008.511
16.124496937,-527.9093,15.10103,-35.92529,-0.4251856,-0.753451,-1.660471,48.31296,21.63759,-8.397413,1008.511
16.157051086,-252.6969,11.05633,22.15294,-0.5460334,-1.104309,-1.165412,48.31296,21.63759,-8.397413,1008.509
16.189608574,-81.03533,26.81878,79.92517,-0.6115003,-0.6567066,-0.7109129,47.55355,26.06408,2.980327,1008.509
16.224671364,-9.663484,71.78637,98.77458,-0.6649184,-0.5655136,-0.611828,49.05963,24.6471,7.765358,1008.509
16.257228851,-1.172694,127.4011,85.61671,-0.789241,-0.353052,-0.4508858,49.05963,24.6471,7.765358,1008.506
16.289786816,-84.41934,183.0752,49.93746,-0.9752414,-0.2044219,-0.3237275,50.25932,19.59453,13.46983,1008.501
16.324848652,-86.75739,197.4696,34.57641,-1.116143,-0.1546278,-0.3484508,50.38237,13.82448,22.3056,1008.501
16.357402325,-67.86845,205.0237,34.20922,-1.203304,-0.3434125,-0.4445386,50.38237,13.82448,22.3056,1008.5
16.389960289,-23.63022,210.6149,40.02316,-1.299632,-0.2825789,-0.312039,45.01381,7.650548,31.09809,1008.5
16.422518730,5.349217,209.4253,43.51152,-1.417852,-0.08668503,-0.1242863,37.46062,-0.3808265,36.02356,1008.5
16.457580567,-8.740571,179.7443,47.61189,-1.516421,0.1922671,0.1304538,37.46062,-0.3808265,36.02356,1008.498
16.490138531,-29.35227,149.29,36.59599,-1.576347,-0.176556,0.1582378,29.10868,-5.166444,36.91327,1008.5
16.522696018,28.1759,81.24384,17.99138,-1.629371,-0.3553656,0.5282446,24.78179,-9.621986,37.40537,1008.5
16.557754517,37.83571,-19.15999,-3.856807,-1.578656,-0.1562548,0.7066991,24.78179,-9.621986,37.40537,1008.5
16.590312481,-15.93928,-81.25809,-40.94364,-1.59009,-0.05620519,0.6893848,22.59596,-10.36291,37.8638,1008.501
16.622870445,-71.19094,-136.4564,-69.58495,-1.353711,-0.09494543,0.3763041,24.04317,-9.263469,37.40514,1008.503
16.657932758,-101.2163,-247.2694,30.90445,-1.532952,4.167536,6.739424,24.04317,-9.263469,37.40514,1008.505
16.690490723,-117.275,-93.21376,-58.50787,-1.984708,-1.385758,0.4799978,28.42884,-8.87786,35.6677,1008.507
16.723048210,-140.7785,-93.63013,-54.77471,-1.044877,0.3298261,0.8325104,30.56744,-5.539963,33.40627,1008.507
16.758106232,80.22813,-84.58902,-34.70131,-0.9104673,-0.1465788,-0.2470174,30.56744,-5.539963,33.40627,1008.505
16.790664196,-52.60965,-81.79342,-29.19336,-0.8474457,0.04044714,-0.4723787,31.67923,-6.630835,32.13605,1008.507
16.823221683,-59.31614,-63.53277,-32.43693,-1.038393,-0.03785361,-0.26167,33.85877,-5.899879,29.95706,1008.508
16.858284473,-20.0001,-62.93796,-28.82616,-0.9152254,-0.01674969,-0.3803776,33.85877,-5.899879,29.95706,1008.508
16.890841961,-24.12244,-67.04214,-32.19213,-0.9365145,-0.02108337,-0.3436865,35.31082,-5.538396,27.71933,1008.508
16.923399925,-10.34029,-69.59982,-33.04892,-0.9466444,-0.1016594,-0.2888343,37.13525,-5.537708,25.54676,1008.508
16.955953598,3.31881,-70.49204,-33.90571,-0.9896917,-0.1170237,-0.2402061,37.13525,-5.537708,25.54676,1008.507
16.991015911,14.76292,-69.00502,-35.49689,-1.003592,-0.1295028,-0.2079968,37.84788,-4.446149,24.6444,1008.505
17.023573875,31.55991,-63.71121,-35.49689,-1.078624,-0.1944991,-0.1315757,40.0128,-2.992738,21.56804,1008.508
17.056131840,53.58674,-63.17588,-31.82493,-1.136546,-0.1957736,-0.1242886,40.0128,-2.992738,21.56804,1008.508
17.091194153,43.68082,-75.96429,-34.7625,-1.151007,0.193744,-0.00087146,41.80477,-0.806602,19.82587,1008.508
17.123752117,12.17876,-91.60777,-45.7784,-1.392373,0.06866018,-0.1185573,42.49547,1.368641,17.57747,1008.507
17.156305790,9.286974,-115.1027,-55.9375,-1.343905,0.01887271,-0.2522923,42.49547,1.368641,17.57747,1008.507
17.191367626,32.17519,-137.5865,-73.74651,-1.53494,-0.3007121,-0.6306338,43.17178,4.266708,14.49542,1008.508
17.223925591,90.011,-154.8955,-70.13575,-2.035445,-0.4752647,-1.402833,43.83611,7.518623,9.690201,1008.507
17.256483078,260.8112,-213.0084,-42.22883,-1.573391,0.6137598,-1.649138,43.83611,7.518623,9.690201,1008.507
17.291545868,439.0563,-190.9409,41.12475,-0.4882649,0.2292538,-0.6680294,44.48014,11.8568,3.985004,1008.507
17.324103355,-108.9073,-46.81862,-41.49444,-1.135912,-0.4265413,-0.5667161,43.65437,15.05976,-7.442815,1008.505
17.356657505,24.05356,53.52572,-22.27782,0.01330332,0.05186993,-0.940944,43.65437,15.05976,-7.442815,1008.503
17.389214993,-7.694604,111.1628,4.466311,-0.1217438,0.1988562,-0.09749552,43.61883,16.4947,-10.95811,1008.5
17.424277783,-43.87275,201.0385,12.72823,-0.2639763,0.3443017,-0.2116331,43.60565,17.96508,-8.355848,1008.5
17.456835270,-64.42292,262.6012,34.63761,-0.5704172,0.07362612,-0.3488788,43.60565,17.96508,-8.355848,1008.498
17.489393234,-8.063769,283.4196,65.17612,-0.8612857,0.007938524,-0.3114135,44.36911,18.01871,-0.01030827,1008.496
17.524455071,43.68082,311.8514,89.53348,-1.285769,0.06340341,-0.3652625,44.78764,17.73098,12.6723,1008.496
17.557008743,74.13692,332.4913,94.06223,-1.773348,0.475356,-0.2260618,44.78764,17.73098,12.6723,1008.495
17.589566708,4.487833,321.7848,89.77827,-2.354825,0.3673985,0.4669816,40.83872,14.84968,22.77475,1008.499
17.624629021,-94.94054,222.1542,66.33891,-2.622794,0.1681958,1.069872,34.66235,13.77118,32.80754,1008.499
17.657186985,-184.9552,168.3834,34.82121,-2.169076,-1.109173,0.6888639,26.66702,11.20945,40.30775,1008.499
17.689744950,16.05499,0.9445689,-12.54712,-1.966548,-0.382401,1.33298,26.66702,11.20945,40.30775,1008.499
17.724807263,-15.57012,-120.2776,-48.77716,-1.701728,-0.5029406,0.7087794,19.8145,4.623486,42.6077,1008.5
17.757360935,367.0076,69.10973,-65.7906,-1.200954,0.3935126,-3.755064,19.4632,3.526456,42.10692,1008.5
17.789918900,-184.3399,-81.73394,-47.61438,-1.631101,-0.1027875,0.02552067,19.4632,3.526456,42.10692,1008.5
17.822476864,-22.95341,-49.13838,-65.91299,-1.187176,0.07324734,-0.42998,21.92097,9.712423,39.05915,1008.5
17.857539177,-92.41791,-63.88966,-73.99131,-0.9498695,-0.3743427,-0.7164295,24.86893,8.268023,37.2758,1008.5
17.890097141,15.56277,-122.3594,-47.67558,-0.7497309,0.08630493,-0.1256756,24.86893,8.268023,37.2758,1008.502
17.922654629,-81.09686,-70.01619,-45.7784,-0.8689228,-0.02710851,-0.2152654,27.08419,6.818697,35.55856,1008.504
17.957712650,-34.5821,-53.65893,-34.21171,-0.9019753,-0.2437752,-0.2243396,30.34447,8.646442,32.92209,1008.504
17.990270615,3.626448,-49.19786,-23.74661,-0.9366339,0.0362082,-0.1190089,30.34447,8.646442,32.92209,1008.504
18.022828102,2.211316,-34.26815,-19.21786,-0.9642262,-0.2119686,-0.2363621,31.45035,7.919011,31.58553,1008.504
18.057890892,16.79332,-29.86656,-13.28151,-0.9635205,-0.1914906,-0.2486181,32.90161,8.652054,30.68341,1008.504
18.090448380,31.9906,-31.5915,-12.42472,-0.9965637,-0.1569086,-0.2528924,32.90161,8.652054,30.68341,1008.502
18.123006344,38.08182,-39.97831,-20.13585,-1.020585,-0.06191389,-0.2635044,32.89695,8.644672,29.40892,1008.502
18.158064842,44.17304,-50.92281,-26.43938,-1.047342,-0.14543,-0.2507348,34.32222,10.82779,27.60421,1008.502
18.190622807,56.04784,-64.48447,-30.90694,-1.107056,0.03825128,-0.09512773,34.32222,10.82779,27.60421,1008.502
18.223180294,28.05285,-80.42535,-42.90202,-1.2529,0.1926389,-0.04961103,34.65399,12.63953,25.8694,1008.502
18.258243084,25.65328,-96.72314,-51.65354,-1.368805,-0.07343205,-0.1192977,36.45244,14.0903,22.79424,1008.502
18.290800572,39.86612,-112.3071,-52.08193,-1.373898,-0.05929429,-0.1432459,36.45244,14.0903,22.79424,1008.502
18.323358536,64.66169,-127.1179,-43.45282,-1.444722,-0.08544689,-0.1527607,37.14415,15.89435,19.27395,1008.502
18.355912209,107.7309,-151.5051,-21.66583,-1.694984,0.2583573,-0.4822541,37.45152,18.41304,13.96535,1008.504
18.390974045,78.19773,-173.6915,-5.57039,-1.531459,0.9355524,-0.6915334,37.45152,18.41304,13.96535,1008.506
18.423532009,177.1339,-179.6991,45.9595,-0.1702721,1.021186,-1.294795,38.84656,21.2939,6.993725,1008.504
18.456089497,-309.0561,-22.01507,27.53848,-1.000532,0.3594099,1.184817,38.80467,21.97318,-1.359415,1008.506
18.491152287,-267.9557,6.654739,73.80523,-0.1492028,-0.8403167,-1.540251,38.80467,21.97318,-1.359415,1008.506
18.523709774,-110.7531,29.73334,113.7072,-0.6961756,-0.3790569,-0.5567485,39.18474,21.62456,0.8086424,1008.504
18.556263924,-45.41094,16.29065,160.28,-0.4748662,-0.05732816,-0.1358663,39.95486,20.19749,4.767632,1008.5
18.591326237,-83.25032,73.74924,178.3338,-0.8132651,-0.3682281,-0.3892219,39.95486,20.19749,4.767632,1008.499
18.623884201,-150.0691,131.7431,167.3179,-0.9112135,-0.2025982,-0.2212856,41.49543,15.85268,6.578499,1008.495
18.656441689,-225.5633,154.8218,148.1013,-1.155069,-0.1295054,-0.2141346,43.08106,9.342346,11.40009,1008.495
18.691503525,-339.8198,153.4537,132.3119,-1.325425,0.08283403,-0.1575592,43.08106,9.342346,11.40009,1008.494
18.724061489,-464.2283,147.3272,111.9937,-1.409725,-0.08873482,-0.3964666,43.21301,2.467949,18.01333,1008.494
18.756615162,-566.6716,135.312,76.7428,-1.523558,-0.3944845,-0.6045229,40.43771,-6.625615,22.03904,1008.494
18.789173126,-585.1298,89.63065,30.35366,-1.506253,-1.263636,-1.052356,40.43771,-6.625615,22.03904,1008.495
18.824235439,-365.7229,56.73769,-8.630361,-1.181512,-2.271981,-1.11349,36.20432,-18.01644,18.62983,1008.495
18.856793404,-225.4403,21.52497,-57.16148,-1.200221,-2.010737,0.05158475,34.50214,-28.26213,10.80704,1008.497
18.889351368,-16.55456,-18.5057,-44.49321,-0.5017421,0.09578381,-0.6405666,34.50214,-28.26213,10.80704,1008.493
18.924413681,-98.07844,57.86783,-37.70007,-1.077702,-1.202895,-0.5728161,34.17096,-31.56417,6.498461,1008.499
18.956967354,131.0498,-63.23537,-22.52262,-1.517776,0.7792205,-1.219362,34.51083,-30.48522,3.876732,1008.495
18.989525318,-61.16197,24.97487,-45.5948,-0.9073891,-0.03237033,-0.2370605,34.51083,-30.48522,3.876732,1008.495
19.024587154,-42.14998,7.784877,-37.57767,-1.147911,-0.2934282,-0.05809474,35.59786,-29.37846,5.139822,1008.495
19.057145119,-10.27876,11.94854,-29.31576,-1.093171,0.01329435,0.08767793,37.42556,-29.37261,3.859388,1008.496
19.089702606,-16.06234,2.31263,-29.74415,-0.9707006,0.1487576,-0.1709137,37.42556,-29.37261,3.859388,1008.498
19.124765396,-36.55098,4.751349,-26.37819,-1.10501,-0.2179257,-0.07921959,37.7707,-27.91251,4.230103,1008.5
19.157319069,-22.64578,-1.851035,-21.91063,-1.134141,-0.0004335234,-0.002883429,38.85978,-27.54813,2.949433,1008.5
19.189877033,-76.35925,-0.007126116,-25.82739,-0.987686,-0.07001853,0.00799802,38.85978,-27.54813,2.949433,1008.5
19.222434521,-28.92158,-10.11889,-15.91309,-0.9440585,-0.1973352,-0.08437794,38.84515,-26.82568,2.052067,1008.501
19.257497311,-30.58282,-16.48335,-17.62667,-0.9899597,0.08448324,0.01277423,39.55639,-25.73633,0.7673645,1008.503
19.290054798,-65.2843,-5.657815,-20.44184,-0.9537639,-0.2098892,-0.1299975,39.55639,-25.73633,0.7673645,1008.503
19.322612763,-29.59838,19.02678,-15.85189,-1.051619,-0.4847678,-0.02920396,39.55312,-25.7415,-0.1247787,1008.505
19.357671261,-27.38339,4.632387,-17.81027,-1.177869,0.2339674,0.1602492,40.26413,-24.65252,-1.473205,1008.505
19.390228272,-86.20364,6.833182,-22.95102,-0.7945628,-0.2011002,-0.1101987,40.26413,-24.65252,-1.473205,1008.505
19.422786713,-25.41451,-4.884563,-5.57039,-1.012159,0.08810503,0.1138767,40.98571,-23.91961,-1.480804,1008.503
19.457848549,-72.23691,-3.992349,-1.225233,-1.215488,0.51071,0.4342319,41.35483,-24.28557,-2.307802,1008.504
19.490406513,-169.2042,-34.56555,5.323102,-1.136568,0.7344041,0.3128573,41.35483,-24.28557,-2.307802,1008.504
19.522964478,-243.6524,-21.95559,8.015876,-0.7849072,-0.1999808,-0.5394295,41.34099,-23.93467,-4.540773,1008.504
19.558022499,-158.4984,0.1713167,12.78943,-0.8669422,-0.9326053,-0.7298603,40.96678,-24.6952,-9.759776,1008.506
19.590580464,-46.45691,4.453944,17.13459,-1.094554,-0.5940878,-0.58333,40.96678,-24.6952,-9.759776,1008.504
19.623138428,-28.3063,10.58048,16.76739,-1.013761,-0.1843789,-0.2465276,40.56984,-24.00048,-14.98922,1008.506
19.658200741,-47.81051,16.23117,15.6658,-0.9014726,0.02316322,-0.1419605,40.94301,-24.73284,-16.25968,1008.506
19.690758705,-51.3791,24.91539,13.34022,-1.320225,-0.02276035,-0.3269069,40.21007,-24.73813,-16.2573,1008.506
19.723316193,-20.49232,24.67746,19.76616,-1.428026,0.04740714,-0.4610779,40.21007,-24.73813,-16.2573,1008.506
19.755870342,0.5500748,44.30618,24.53971,-1.262515,0.04341996,-0.7112043,40.19708,-24.01309,-16.7086,1008.506
19.790932179,96.59444,70.89415,54.28262,-0.9060037,0.1291616,-0.695739,39.11797,-25.1073,-15.80505,1008.504
19.823489666,48.97218,86.12127,63.34013,-1.108615,0.3446818,-0.4703854,39.11797,-25.1073,-15.80505,1008.504
19.856047630,-85.40378,170.5842,-8.201964,-1.445061,-0.1100909,-0.609444,39.54635,-27.61627,-9.734132,1008.504
19.891109943,113.7606,204.6073,11.74904,-1.696478,-0.2296666,-1.427933,39.24117,-30.50431,-5.378784,1008.504
19.923667908,165.9974,170.2868,28.45647,-1.733252,0.7965316,-0.6248202,39.24117,-30.50431,-5.378784,1008.504
19.956221580,93.76418,179.6253,14.74781,-1.615844,0.540039,-0.6360973,39.29098,-31.17105,5.140991,1008.504
19.991284370,83.11993,183.1942,15.9106,-1.297628,0.7513092,-0.5471401,37.51187,-32.59119,13.5053,1008.501
20.023841858,-38.51986,214.838,23.00973,-1.096286,0.9943058,-0.5020568,37.51187,-32.59119,13.5053,1008.494
20.056399822,-86.20364,206.5702,66.8285,-1.082477,0.4346717,-0.3066231,35.00624,-35.49769,17.42171,1008.494
20.091461658,-16.55456,175.2237,108.6277,-0.817266,0.4931438,-0.1150531,29.17231,-38.47562,13.12834,1008.49
20.124019623,-32.49017,156.1898,133.4747,-0.7800245,0.2675612,-0.09967898,29.17231,-38.47562,13.12834,1008.485
20.156573296,-65.96111,137.037,140.635,-0.7221436,0.07799349,-0.03640433,21.42772,-35.62588,12.24028,1008.478
20.189131260,-85.83447,103.0139,143.3278,-0.5797865,-0.09859435,-0.01990075,14.03503,-31.30534,13.57093,1008.473
20.224193573,-83.18879,54.65586,136.045,-0.4436889,-0.207968,-0.05263687,14.03503,-31.30534,13.57093,1008.473
20.256751537,-65.16125,6.05993,123.1319,-0.3086028,-0.2213785,-0.2419722,8.493914,-28.43234,13.95022,1008.471
20.289309025,-37.84306,-26.65459,108.2605,-0.1563895,-0.2167028,-0.5112886,4.443274,-27.00104,14.845,1008.47
20.324371815,-15.0779,-41.5843,87.39149,-0.04277666,-0.1001544,-0.6976538,4.443274,-27.00104,14.845,1008.468
20.356925488,7.19504,-38.37233,72.09164,-0.0234938,0.005874986,-0.8720039,1.061236,-25.57006,14.84545,1008.466
20.389483452,12.11724,-29.21227,58.07698,0.09821124,0.01982946,-1.025622,0.6769331,-24.10972,16.17441,1008.466
20.424545288,41.21972,-16.24542,53.73182,0.1213283,0.1683512,-1.022412,0.6769331,-24.10972,16.17441,1008.464
20.457102776,38.75863,5.227197,48.89707,0.1261111,0.0811713,-1.074985,0.3037596,-23.37736,17.44487,1008.464
20.489674091,47.74163,27.94892,39.53357,0.09280806,-0.02670942,-1.066931,-0.09190536,-21.18939,18.76861,1008.464
20.524736405,58.81657,37.22794,33.04643,0.09951232,0.03107936,-1.037536,-0.09190536,-21.18939,18.76861,1008.463
20.557290077,61.46225,46.32853,34.82121,0.1318258,0.1209582,-0.9380708,0.2540808,-19.35515,20.921,1008.463
20.589848042,60.47782,46.44749,33.78082,-0.1040136,0.1006322,-0.8854652,-0.131243,-17.52361,23.52184,1008.464
20.624909878,33.40574,39.13133,31.14925,-0.3488715,0.03183315,-0.5682166,-0.131243,-17.52361,23.52184,1008.464
20.657467842,2.703536,-4.05183,17.93018,-0.4556748,-0.09127089,-0.4167612,-0.8933787,-15.33829,24.84676,1008.463
20.690025330,-8.125297,-49.79267,0.304752,-0.4723569,-0.04702466,-0.2560723,-0.9098129,-13.87309,26.55688,1008.464
20.722583294,525.8099,77.49654,-15.23989,0.1060403,0.2280765,-3.813471,-0.9098129,-13.87309,26.55688,1008.464
20.757641792,101.2705,-57.28727,-5.57039,-0.0624292,0.4659285,-3.060929,0.5376282,-12.77328,26.16195,1008.463
20.790199757,85.64255,-43.30925,9.790658,-0.1067925,0.0367678,-0.5321217,4.2066,-9.108265,26.12375,1008.457
20.822757244,-130.2573,-39.68091,-14.07711,-0.2851637,-0.09898549,-1.430685,4.2066,-9.108265,26.12375,1008.457
20.857820034,-70.82178,-46.75914,-20.25825,-0.08340403,0.2120462,-1.488973,5.272376,-6.854611,26.48643,1008.458
20.890377045,-40.42722,-52.11243,-24.5422,-0.1563055,0.08983418,-1.011257,6.747539,-7.637078,25.65891,1008.458
20.922935009,-74.4519,-63.35433,-22.09423,-0.2418328,0.1838842,-0.8845455,6.747539,-7.637078,25.65891,1008.458
20.957993507,-135.4256,-179.937,5.629099,-0.3034046,0.2418694,-1.09242,7.868044,-9.086964,25.21972,1008.458
20.990655899,-23.19952,-62.93796,0.7943471,-0.01986125,0.3536346,-0.9179398,8.622868,-10.91106,23.44611,1008.458
21.023213387,-33.59767,-51.5771,2.018335,-0.2103923,0.2355172,-0.9263253,8.622868,-10.91106,23.44611,1008.458
21.058276176,-30.89046,-23.7995,4.405111,-0.3312272,0.1039795,-0.7774019,10.86979,-14.17427,22.63406,1008.46
21.090833664,-2.095606,-6.312106,17.07339,-0.2685342,0.0974687,-0.6630014,11.98462,-15.26034,22.19225,1008.46
21.123391628,33.83643,13.37609,24.05012,-0.3351598,0.1857463,-0.6016515,11.98462,-15.26034,22.19225,1008.456
21.155945301,31.80602,24.85591,17.74658,-0.2714314,0.3482315,-0.4542211,11.98867,-15.62674,21.74879,1008.462
21.191008091,9.963776,49.48102,15.4822,-0.2781344,0.5179257,-0.595672,11.62788,-15.99319,21.75259,1008.462
21.223565579,-19.07718,57.98679,1.834737,-0.4460301,0.6042699,-0.9311063,11.62788,-15.99319,21.75259,1008.456
21.256123543,-32.30559,51.74129,-11.56793,-0.3646526,0.5267486,-1.282816,10.8996,-15.99111,23.02946,1008.456
21.291185379,-9.786538,25.68864,-5.692789,-0.3969304,0.3142631,-1.353699,10.16098,-15.63259,23.02922,1008.458
21.323743343,19.25442,10.16411,-9.548351,-0.4069399,0.1960049,-1.029698,10.16098,-15.63259,23.02922,1008.456
21.356297016,19.13137,8.320206,-5.937587,-0.329786,0.2104051,-0.8768053,10.16587,-15.62484,24.36744,1008.456
21.391359329,26.88383,8.61761,-5.019596,-0.2371618,0.2508403,-0.8463085,10.16992,-15.99124,23.92398,1008.454
21.423917294,27.31452,10.63996,-7.895967,-0.2118975,0.3006824,-0.8330047,10.16992,-15.99124,23.92398,1008.454
21.456475258,20.36192,16.17169,-8.752759,-0.1234851,0.286109,-0.7951255,8.711349,-16.36305,24.37742,1008.454
21.491537571,12.85557,26.28345,-10.46634,-0.0885183,0.2454136,-0.8300999,8.701618,-15.63285,24.81827,1008.456
21.524095535,21.9001,41.39161,-1.102834,-0.1275222,0.2159816,-0.9880921,8.701618,-15.63285,24.81827,1008.457
21.556649208,43.06554,39.48822,10.28025,-0.1563435,0.2880118,-0.8796558,9.061619,-14.89483,26.15007,1008.457
21.589207173,29.22187,56.61873,13.40142,-0.02074006,0.1966627,-1.029094,8.331706,-14.89532,26.98087,1008.457
21.624269009,41.95805,78.32927,21.84694,-0.09309328,0.3857916,-1.037739,7.945772,-13.43756,27.86376,1008.457
21.656826496,-29.59838,71.90533,14.31941,-0.01670324,0.2905157,-0.9227729,7.945772,-13.43756,27.86376,1008.459
21.689384461,-13.23208,73.51131,20.37815,0.03903748,0.06232925,-0.9229243,5.378059,-13.08711,28.76161,1008.457
21.724446774,6.333656,51.14648,29.12967,-0.2471845,0.5182484,-0.6841549,3.136832,-14.19228,29.22285,1008.457
21.757000923,-102.8776,49.30257,17.99138,-0.1511937,0.1745342,-0.7073763,3.136832,-14.19228,29.22285,1008.457
21.789558411,-71.92927,27.59203,12.66703,-0.255003,-0.2318514,-0.8802411,1.666666,-13.83685,29.60734,1008.457
21.824620247,-119.7361,18.90781,3.364722,-0.2888273,-0.1812099,-1.528128,0.216429,-14.94108,29.23758,1008.457
21.857178211,-134.8103,-31.88891,-30.84574,-0.01860006,0.3012253,-1.250337,0.216429,-14.94108,29.23758,1008.457
21.889736176,11.44043,-18.68414,-13.28151,-0.04138472,0.7172425,-1.418467,0.2439923,-17.13428,27.46896,1008.458
21.924798489,-50.57924,32.40999,9.913057,0.0106625,0.6135556,-1.340342,2.112064,-19.30132,27.92476,1008.458
21.957352161,-61.4696,36.27625,0.5495495,0.08790036,0.4830183,-0.8459803,2.112064,-19.30132,27.92476,1008.458
21.989910126,-47.31829,15.45792,-10.34394,0.08926988,0.4082239,-0.6412041,1.37423,-19.31437,26.58892,1008.46
22.024972439,38.75863,-13.21189,-2.204423,0.1044949,0.4228722,-0.7188191,1.388245,-20.4106,25.76833,1008.462
22.057530403,40.0507,-14.87736,-3.55081,0.09449389,0.4189435,-0.8445473,1.388245,-20.4106,25.76833,1008.462
22.090088367,73.46011,-18.02985,-2.143224,0.09508447,0.4339246,-0.9303605,1.023405,-20.41066,26.21559,1008.462
22.122645855,109.6998,-21.89611,-0.3684414,0.05214199,0.3884051,-0.9827347,1.753694,-20.03676,27.03902,1008.462
22.157703877,85.88866,-18.74362,2.079535,0.03919285,0.3664688,-1.005292,1.753694,-20.03676,27.03902,1008.46
22.190261364,53.52522,-14.04463,9.851857,0.1074548,0.2460793,-0.9482229,2.094232,-17.83833,29.25253,1008.458
22.222819328,30.51395,-1.256226,12.78943,-0.04163017,0.2661606,-0.8757495,3.151223,-14.91511,30.05649,1008.458
22.257881641,29.77562,-4.111311,6.914287,-0.04525482,0.255096,-1.017061,3.151223,-14.91511,30.05649,1008.458
22.290439606,29.16034,-0.9588212,6.241093,-0.04269976,0.2292249,-1.091415,2.775021,-14.18755,30.49853,1008.458
22.322997570,22.20774,7.487472,8.689069,-0.02436281,0.24832,-1.069872,2.036398,-13.82903,30.49829,1008.458
22.358056069,18.45457,7.96332,7.648679,0.03182245,0.2097646,-0.9810902,2.036398,-13.82903,30.49829,1008.458
22.390613556,11.99418,7.30903,5.017105,0.02368865,0.2122468,-0.9095047,2.394768,-13.0936,31.38403,1008.458
22.423171043,7.93337,3.383287,1.161544,0.02203101,0.1831548,-0.9292819,2.018566,-12.36604,31.82607,1008.461
22.458233357,9.163918,5.167716,0.9779454,0.04559687,0.1574249,-0.9746513,2.018566,-12.36604,31.82607,1008.463
22.490848541,11.99418,4.097059,0.9167459,0.05695386,0.1477714,-0.9569246,1.648834,-12.37385,30.93511,1008.463
22.523406506,11.62502,1.301455,0.8555465,0.05943833,0.1828521,-0.9689596,1.285625,-12.37134,31.82844,1008.459
22.555960179,10.94821,-2.14844,1.039145,0.05874615,0.197489,-0.983237,1.285625,-12.37134,31.82844,1008.459
22.591022015,9.717666,-4.587158,1.161544,0.03940932,0.1850872,-0.9834075,0.9118423,-12.01275,31.38095,1008.459
22.623579979,9.656138,-5.419891,1.283942,0.02425025,0.1503427,-0.9747387,1.640733,-11.64107,31.82203,1008.459
22.656137467,9.163918,-4.349235,0.6719483,0.0258654,0.135336,-0.9831867,1.640733,-11.64107,31.82203,1008.459
22.691200257,8.241007,-0.7803784,0.7331477,0.00780281,0.1337576,-1.008329,1.635052,-11.27726,31.81942,1008.459
22.723757744,6.579766,1.65834,0.7331477,0.01598976,0.1435442,-0.9994867,1.999892,-11.27719,31.37216,1008.461
22.756311417,4.180195,3.383287,0.7331477,0.03160536,0.1417839,-0.9951782,1.999892,-11.27719,31.37216,1008.461
22.791373253,1.472987,3.085883,0.8555465,0.04776211,0.1385042,-0.9759088,1.635052,-11.27726,31.81942,1008.461
22.823931217,1.965207,3.323807,0.9779454,0.04915257,0.1424567,-0.9860008,1.623689,-10.54963,31.8142,1008.461
22.856489181,5.287689,2.372112,1.039145,0.05174357,0.1284103,-0.9891178,1.623689,-10.54963,31.8142,1008.456
22.891551495,4.79547,0.766126,0.6107489,0.05082434,0.1259197,-0.9785206,1.62774,-10.91603,31.37074,1008.456
22.924109459,0.1193826,-0.6019356,-0.1236438,0.04826882,0.1360964,-0.9793296,1.253169,-10.18589,32.25885,1008.458
22.956663132,-5.295033,-1.55363,-0.7968372,0.04925367,0.1332354,-0.9885584,1.253169,-10.18589,32.25885,1008.458
22.989221096,-6.710165,-1.732073,-0.8580366,0.03513786,0.1339923,-0.9817659,0.8923793,-10.55235,32.26265,1008.458
23.024283409,-2.218661,-1.434669,-0.5520396,0.02977628,0.1334563,-0.9861194,1.997472,-10.90822,32.26169,1008.458
23.056840420,2.395899,-0.8398593,-0.1848432,0.03561487,0.1321144,-0.9948462,1.997472,-10.90822,32.26169,1008.458
23.089398384,6.887403,-0.3640117,0.3659514,0.02132075,0.1465141,-0.9960629,1.264531,-10.91351,32.26407,1008.46
23.124460697,12.97862,-0.1855689,1.039145,0.0347194,0.1276779,-0.9837954,1.62774,-10.91603,31.37074,1008.458
23.157014847,14.39375,0.825607,1.651139,0.03150267,0.1068317,-1.004412,1.62774,-10.91603,31.37074,1008.458
23.189572334,12.24029,1.301455,1.406341,0.03788108,0.1068263,-0.9850833,1.623689,-10.54963,31.8142,1008.455
23.224635124,6.887403,1.123012,0.7331477,0.04588794,0.09036306,-0.9756747,1.613958,-9.81943,32.25505,1008.457
23.257192612,3.626448,0.1713167,0.2435526,0.04920875,0.09817766,-0.974592,1.613958,-9.81943,32.25505,1008.457
23.289750576,0.1193826,-0.7208974,-0.307242,0.04260889,0.1166608,-0.9965389,0.886698,-10.18853,32.26004,1008.453
23.324812412,-2.587826,-0.6019356,-0.1848432,0.0484877,0.1128673,-1.000469,1.606646,-9.458202,31.80637,1008.455
23.357366085,-2.280188,-0.6614165,0.2435526,0.04027792,0.1107322,-0.9821258,1.606646,-9.458202,31.80637,1008.455
23.389924049,1.780624,-0.8993403,0.304752,0.03057984,0.1043477,-0.995265,1.245856,-9.82466,31.81017,1008.456
23.457544327,10.57905,0.3497595,1.52874,0.03887082,0.1025296,-0.9991677,1.615356,-9.817217,32.63739,1008.458
23.490102291,11.93265,1.717821,3.364722,0.01757019,0.08965611,-1.008044,1.612327,-9.822014,31.80898,1008.458
23.522659779,10.39447,10.28308,9.117465,0.01492811,0.09856413,-1.050443,0.8753355,-9.460914,32.25481,1008.458
23.557717800,12.42487,6.476296,6.669489,0.01573087,0.07754232,-1.021279,0.8753355,-9.460914,32.25481,1008.458
23.590275288,12.24029,8.320206,7.954676,0.03871949,0.07004423,-1.016581,0.5072339,-9.466143,31.80993,1008.458
23.622833252,12.67098,8.379686,8.56667,0.06259096,0.07081051,-1.009825,0.8696544,-9.097103,32.2522,1008.456
23.657895565,9.656138,8.320206,7.771078,0.08118553,0.06993494,-0.977954,1.22211,-7.998227,33.0716,1008.456
23.690453530,10.33294,12.60283,7.220284,0.09930604,0.05951725,-0.9863478,1.22211,-7.998227,33.0716,1008.456
23.723011494,11.74807,13.91141,6.363492,0.04929744,0.04480262,-0.9932913,0.1283796,-8.369978,33.07778,1008.457
23.758069039,13.04015,9.2719,5.017105,0.09331007,0.03742154,-0.9542928,0.1226983,-8.006167,33.07516,1008.459
23.790627003,13.10168,4.156539,3.54832,0.06079524,0.02585536,-0.962172,0.1226983,-8.006167,33.07516,1008.459
23.823184967,14.20917,-1.196745,2.263133,0.09407513,0.008383224,-0.9789054,-0.2421412,-8.00623,33.52243,1008.457
23.858247280,8.548644,-3.040654,1.406341,0.08397041,-5.672732E-05,-0.9688736,-1.355494,-7.228498,33.07426,1008.457
23.890805244,1.657569,-3.100135,0.1211538,0.09056304,0.008527775,-1.02047,-1.355494,-7.228498,33.07426,1008.459
23.923362732,0.7346572,-1.969997,0.05995439,0.08864672,0.01320104,-0.9851106,-0.6339147,-6.495583,33.06667,1008.455
23.955916882,-0.8035293,-3.278578,-0.001245009,0.08274137,0.01846984,-0.9850245,-0.2601318,-6.854163,33.51416,1008.459
23.990978718,-4.802814,-5.360411,-0.1236438,0.08040274,0.01350648,-0.9691465,-0.2601318,-6.854163,33.51416,1008.455
24.023536205,-8.617517,-6.431067,-0.5520396,0.07352124,0.01591306,-0.9836044,-0.2585011,-6.851581,33.96023,1008.455
24.056094170,-6.341,-6.431067,-0.4296408,0.08209444,0.0263655,-1.012939,-0.2617629,-6.856747,33.06809,1008.457
24.091156483,0.303965,-3.932868,-0.1236438,0.0723911,0.02094186,-1.023647,-0.2617629,-6.856747,33.06809,1008.457
24.123714447,1.657569,-2.683768,0.2435526,0.06600874,0.02808861,-1.010481,0.110389,-7.21791,33.06951,1008.457
24.156268120,1.165349,-2.743249,-0.001245009,0.06277178,0.01964525,-0.9801536,-0.2478228,-7.64242,33.51982,1008.457
24.191330910,-0.06519973,-2.505326,-0.1236438,0.06372522,0.01969531,-0.9883711,-0.2478228,-7.64242,33.51982,1008.458
24.223888397,2.272844,-2.267402,-0.001245009,0.0651407,0.02027279,-1.004315,0.110389,-7.21791,33.06951,1008.458
24.256445885,5.964491,-1.137264,0.4883502,0.06703344,0.02230117,-1.017337,0.4784908,-7.212681,33.51439,1008.46
24.291508198,6.272129,-0.3045308,0.3659514,0.06519138,0.01732657,-0.9975929,0.4784908,-7.212681,33.51439,1008.46
24.324066162,3.872557,-0.3045308,0.2435526,0.06191034,0.008012488,-0.9895143,0.117017,-7.642356,33.07256,1008.46
24.356619835,2.518954,-0.7208974,0.4271508,0.0638421,0.007591536,-0.9982234,0.4711785,-6.851453,33.06571,1008.46
24.389177799,2.580481,-0.4234927,0.2435526,0.06438903,0.002732201,-0.9968479,0.4711785,-6.851453,33.06571,1008.46
24.424240112,0.5500748,-1.196745,-0.0624444,0.05612662,0.002595685,-0.9905581,0.1063385,-6.851517,33.51297,1008.46
24.456798077,-1.111166,-0.9588212,-0.2460426,0.0574913,0.00897331,-0.9996464,0.8335986,-6.482412,33.50798,1008.456
24.489355087,-0.2497821,-0.9588212,-0.2460426,0.05846918,0.009454338,-0.995773,0.8335986,-6.482412,33.50798,1008.458
24.524417400,-0.06519973,-0.6614165,-0.1236438,0.06237322,0.008062791,-0.9991815,0.1047077,-6.8541,33.0669,1008.458
24.556971073,0.5500748,-0.5424546,0.304752,0.05702457,0.005600759,-1.007431,0.1186481,-7.639773,33.51863,1008.458
24.589529038,1.719097,-0.007126116,0.1211538,0.05990385,0.01142362,-0.9971943,0.1186481,-7.639773,33.51863,1008.458
24.624591351,2.949646,0.05235482,0.304752,0.05843542,0.01094283,-1.002517,0.4671283,-6.485059,33.50917,1008.458
24.657149315,2.888118,-0.2450499,0.2435526,0.05759436,0.0006996675,-0.9968724,0.1006575,-6.487706,33.51036,1008.458
24.689706326,1.534514,-0.06660705,0.1211538,0.05858681,-0.001699597,-1.000777,0.1006575,-6.487706,33.51036,1008.46
24.724769116,1.226877,0.2307976,0.1823532,0.05569725,-0.002271954,-0.9901487,0.4711785,-6.851453,33.06571,1008.46
24.757322788,1.349932,-0.126088,0.05995439,0.0600275,0.0002586944,-0.9997818,0.8392801,-6.846223,33.51059,1008.453
24.789880753,1.472987,-0.3640117,0.2435526,0.06096832,0.004136689,-0.9948897,0.8392801,-6.846223,33.51059,1008.453
24.824943066,1.103822,-0.4234927,-0.0624444,0.05516769,0.0001776149,-0.9959113,0.4711785,-6.851453,33.06571,1008.453
24.857501030,0.9192396,-0.3640117,-0.0624444,0.05722017,-0.009024864,-0.9970204,0.4671283,-6.485059,33.50917,1008.453
24.890058041,0.980767,-0.3045308,0.1823532,0.06003998,-0.0007153228,-0.9993132,0.4671283,-6.485059,33.50917,1008.453
24.922616005,0.5500748,-0.126088,-0.0624444,0.059083,-0.00218575,-0.9993347,0.8433304,-7.212617,33.06713,1008.453
24.957674503,0.303965,-0.06660705,-0.1236438,0.05904069,0.00217205,-0.9958846,0.4671283,-6.485059,33.50917,1008.453
24.990231991,0.1193826,-0.5424546,-0.0624444,0.05859403,-0.001712782,-0.997877,0.4671283,-6.485059,33.50917,1008.455
25.022789955,-0.1882546,0.2902786,-0.001245009,0.05563664,-0.001210031,-1.009951,0.1006575,-6.487706,33.51036,1008.455
25.057851791,0.2424375,0.9445689,-0.1236438,0.05375038,-0.004201431,-0.9988769,0.459816,-6.123831,33.06049,1008.452
25.090409756,-2.218661,1.182493,-0.1848432,0.05759031,0.0016583,-0.9939575,0.459816,-6.123831,33.06049,1008.452
25.122967243,-3.2031,1.182493,-0.1848432,0.06437097,0.002765166,-1.004098,0.4573965,-5.754855,33.95002,1008.452
25.158025742,-0.9265841,0.6471642,-0.0624444,0.05855773,0.002634028,-0.9920101,0.4728093,-6.84887,33.51178,1008.454
25.190583706,1.103822,0.6471642,0.2435526,0.05656688,0.006016585,-0.9934066,0.4728093,-6.84887,33.51178,1008.454
25.223141670,3.687975,0.5282023,0.5495495,0.05518302,-0.001752836,-0.998841,0.110389,-7.21791,33.06951,1008.454
25.258203983,2.149789,0.5282023,0.4271508,0.06195837,0.00174182,-0.999761,0.8295484,-6.116019,33.95144,1008.454
25.290760994,1.226877,1.063531,0.304752,0.06295689,-0.002095393,-1.008038,0.8295484,-6.116019,33.95144,1008.456
25.323318958,0.3654925,1.836783,0.05995439,0.06110414,-0.009904129,-1.006222,0.4614468,-6.121248,33.50656,1008.458
25.355872631,-5.479616,20.03795,5.751498,0.08710029,0.008582222,-1.042218,0.8319678,-6.484995,33.06191,1008.454
25.390934944,5.226162,12.36491,4.221513,0.09151641,0.0100048,-1.021899,0.8319678,-6.484995,33.06191,1008.455
25.423492909,19.93122,10.81841,6.241093,0.133506,0.009394453,-0.9813449,0.459816,-6.123831,33.06049,1008.455
25.456050873,32.11366,13.67349,10.15786,0.06671532,0.00581566,-1.026772,0.08766389,-5.762668,33.05906,1008.455
25.491112709,21.03872,17.30183,7.097885,0.08439592,-0.04221215,-0.9956194,0.08766389,-5.762668,33.05906,1008.457
25.523670197,14.20917,9.628786,3.670719,0.0816053,-0.09237337,-0.9813973,-0.6476967,-5.398984,33.95097,1008.453
25.556224346,10.57905,-0.7803784,2.56913,0.04325847,-0.1501154,-1.00496,-1.392,-4.676656,33.94813,1008.455
25.591286659,-3.818375,-4.944044,0.4883502,0.0937467,-0.08121673,-0.9420854,-1.392,-4.676656,33.94813,1008.455
25.623844624,-18.2158,-4.230273,-0.001245009,0.09747504,-0.07325073,-0.9729035,-1.392,-4.676656,33.94813,1008.455
25.656402111,-21.84592,-2.505326,-0.7968372,0.1009663,-0.04677843,-1.012623,-1.02553,-4.674009,33.94694,1008.456
25.691463947,-18.70802,-1.969997,-1.592429,0.08955227,-0.02703297,-1.005544,-1.748739,-5.409508,33.50847,1008.458
25.724021912,-16.61609,-2.80273,-0.9804354,0.09769006,-0.01240049,-0.9937273,-1.748739,-5.409508,33.50847,1008.458
25.756575585,-13.7243,-4.111311,-0.5520396,0.09524,-0.01050179,-0.9907957,-0.6420155,-5.762794,33.95359,1008.46
25.789133549,-3.756847,-3.694944,0.5495495,0.09223051,-0.01037946,-1.026078,-0.6420155,-5.762794,33.95359,1008.46
25.824195862,0.9192396,-2.14844,0.3659514,0.0899457,-0.0173436,-0.9976622,-0.9987545,-6.495646,33.51392,1008.458
25.856753826,-2.034078,-2.921692,0.2435526,0.08896116,-0.01258072,-0.9792203,-0.6322837,-6.492999,33.51274,1008.458
25.889311790,-5.479616,-4.349235,0.2435526,0.08646825,-0.01155494,-0.998054,0.09660697,-6.121312,33.95382,1008.456
25.924373627,-0.6804743,-2.921692,0.2435526,0.08193252,-0.002771222,-1.018701,0.09660697,-6.121312,33.95382,1008.456
25.956927299,3.995612,-0.6019356,0.5495495,0.08583883,-0.001313242,-1.007565,-0.2658134,-6.490353,33.51155,1008.456
25.989485264,3.072701,0.05235482,0.4883502,0.07768424,-0.008305231,-0.9897785,-0.2714944,-6.126542,33.50894,1008.456
26.024547577,0.3654925,-0.7208974,0.1823532,0.07480255,-0.01412369,-1.000982,-0.2714944,-6.126542,33.50894,1008.456
26.057105541,0.4885474,-0.5424546,-0.001245009,0.08016013,-0.01405604,-1.000503,-1.008486,-5.765442,33.95477,1008.456
26.089662552,1.780624,-0.7208974,0.05995439,0.07818658,-0.01165629,-0.9994977,0.09334517,-6.126478,33.06168,1008.456
26.124724865,3.011173,-0.6019356,0.4883502,0.07867834,-0.01165873,-0.9975646,0.09334517,-6.126478,33.06168,1008.456
26.157278538,3.257283,-0.3640117,0.3659514,0.07817853,-0.01116598,-1.000457,-0.6266026,-6.85681,33.51535,1008.457
26.189836502,2.580481,-0.126088,0.3659514,0.07824815,-0.01604925,-0.9952143,-0.2755449,-5.760148,33.9524,1008.457
26.224898338,1.842152,-0.3045308,0.304752,0.07978107,-0.02234482,-0.9957952,-0.2755449,-5.760148,33.9524,1008.459
26.257456303,1.596042,-0.3045308,0.1211538,0.07922167,-0.01651147,-0.9976392,-0.6322837,-6.492999,33.51274,1008.457
26.290013790,1.103822,-0.3640117,0.1211538,0.07484967,-0.01849028,-1.002499,-0.6436462,-5.765378,33.50751,1008.457
26.322571755,0.7346572,-0.126088,0.1823532,0.07772099,-0.01360408,-1.00001,-0.6436462,-5.765378,33.50751,1008.458
26.357630253,0.3654925,0.05235482,0.05995439,0.0762988,-0.01654737,-0.9981204,-0.2771759,-5.762731,33.50632,1008.458
26.390188217,0.6731297,-0.3640117,0.3659514,0.07777052,-0.01797506,-1.00056,-0.2731254,-6.129125,33.06287,1008.46
26.422745705,0.3654925,0.1118358,0.1211538,0.07444363,-0.02435172,-0.9972708,-0.2731254,-6.129125,33.06287,1008.458
26.457807541,-0.003672279,0.05235482,-0.001245009,0.07588033,-0.02286175,-1.00015,-0.9987545,-6.495646,33.51392,1008.456
26.490365505,0.2424375,0.2307976,-0.001245009,0.08120243,-0.01892441,-0.9957443,0.08929491,-5.760084,33.50513,1008.456
26.522923470,-0.003672279,-0.3045308,-0.001245009,0.07977265,-0.02232944,-0.9991786,0.08929491,-5.760084,33.50513,1008.456
26.557981968,0.05785517,-0.007126116,0.05995439,0.07876088,-0.01846805,-0.9962186,-0.2885385,-5.03511,33.5011,1008.457
26.590539456,0.2424375,0.05235482,0.1823532,0.0744001,-0.01999172,-0.9943041,-0.6379652,-6.129189,33.51012,1008.459
26.623097420,0.303965,0.1118358,0.1211538,0.07577568,-0.01506083,-1.005831,-0.6379652,-6.129189,33.51012,1008.461
26.658159256,0.6116022,0.1118358,0.1211538,0.07533941,-0.0180134,-0.9991085,-0.6436462,-5.765378,33.50751,1008.461
26.690717220,0.7346572,0.2307976,0.05995439,0.07778858,-0.01800803,-0.9933103,0.09497595,-6.123895,33.50775,1008.458
26.723274708,0.303965,0.2307976,0.05995439,0.07832227,-0.02284319,-0.9972515,0.09497595,-6.123895,33.50775,1008.458
26.755828858,0.05785517,-0.3640117,-0.001245009,0.08169141,-0.01939738,-0.9972022,-0.6322837,-6.492999,33.51274,1008.46
26.790890217,0.1809101,0.2307976,-0.0624444,0.07784292,-0.0223878,-0.991927,-0.2771759,-5.762731,33.50632,1008.464
26.823448181,0.1809101,-0.2450499,-0.0624444,0.08068737,-0.01792817,-1.002496,-0.2771759,-5.762731,33.50632,1008.464
26.856006145,-0.2497821,-0.06660705,0.2435526,0.07884018,-0.02479586,-0.9938982,-0.2828569,-5.39892,33.50372,1008.464
26.891068459,0.2424375,0.2307976,-0.001245009,0.07392888,-0.0214536,-0.9948093,-0.2869074,-5.032526,33.94717,1008.464
26.923626423,0.7961847,0.1713167,-0.1236438,0.07635878,-0.02141306,-0.9967445,-0.2869074,-5.032526,33.94717,1008.465
26.956180096,0.2424375,0.1713167,0.1211538,0.0788056,-0.02283025,-0.998702,-0.2812262,-5.396338,33.94979,1008.465
26.991241932,-0.1882546,0.05235482,-0.1236438,0.07445851,-0.02533013,-0.9958356,-0.6493278,-5.401567,33.5049,1008.465
27.023799896,0.05785517,0.1118358,-0.0624444,0.0792812,-0.02042512,-0.9918984,-0.6493278,-5.401567,33.5049,1008.461
27.056357384,0.1193826,0.1118358,0.05995439,0.08270356,-0.02278384,-0.9977382,-0.6363342,-6.126606,33.9562,1008.459
27.091420174,-0.2497821,-0.2450499,0.05995439,0.07688677,-0.02433535,-0.9938893,-1.004436,-6.131835,33.51131,1008.461
27.123977661,-1.541859,0.2307976,-0.307242,0.08022778,-0.01988695,-1.000592,-1.004436,-6.131835,33.51131,1008.461
27.156530857,-0.5574194,0.2307976,-0.2460426,0.08410877,-0.01695586,-0.992817,-1.004436,-6.131835,33.51131,1008.461
27.189088821,1.349932,-0.3045308,-0.001245009,0.09052355,-0.02273499,-0.986144,-0.6420155,-5.762794,33.95359,1008.461
27.224151135,1.657569,-1.256226,0.3659514,0.08610526,-0.02082433,-0.9914278,-0.6420155,-5.762794,33.95359,1008.457
27.256709099,-0.7420018,-1.434669,0.2435526,0.07628999,-0.01700691,-1.003928,-0.6363342,-6.126606,33.9562,1008.457
27.289267063,-2.280188,-1.196745,0.1823532,0.07189305,-0.01703769,-1.009725,-1.008486,-5.765442,33.95477,1008.459
27.324328899,-1.418804,-0.8398593,0.05995439,0.06803284,-0.01810426,-1.00007,-1.008486,-5.765442,33.95477,1008.459
27.356882572,0.980767,-0.4234927,0.05995439,0.06566811,-0.02254435,-0.9924011,-0.2714944,-6.126542,33.50894,1008.459
27.389440537,2.149789,0.5876832,0.1211538,0.06569111,-0.02544003,-0.9967957,-0.2771759,-5.762731,33.50632,1008.46
27.424502850,1.719097,0.7066451,-0.001245009,0.07693879,-0.03013769,-1.000262,-0.2771759,-5.762731,33.50632,1008.46
27.457060814,-0.1267272,0.5876832,-0.2460426,0.08317764,-0.0222784,-1.000631,-0.2771759,-5.762731,33.50632,1008.462
27.489617825,-1.172694,0.4092405,-0.2460426,0.08453896,-0.01256534,-0.9951673,-0.639596,-6.131772,33.06405,1008.462
27.524680138,-1.234221,0.05235482,-0.001245009,0.07772934,-0.0121925,-0.9898378,-0.639596,-6.131772,33.06405,1008.462
27.557233811,0.4885474,-0.126088,0.1823532,0.07530672,-0.01367319,-0.9917915,-0.2755449,-5.760148,33.9524,1008.464
27.589791775,1.842152,-0.007126116,0.2435526,0.06617197,-0.02399573,-0.9924237,-0.6436462,-5.765378,33.50751,1008.46
27.624853611,0.5500748,0.2307976,-0.0624444,0.06962702,-0.03069468,-1.00558,0.09092569,-5.757502,33.95121,1008.461
27.657411575,-0.9265841,0.4092405,-0.2460426,0.07690413,-0.02674512,-0.9982765,0.09092569,-5.757502,33.95121,1008.461
27.689969063,-0.06519973,-0.126088,-0.2460426,0.0866268,-0.02278359,-0.9866244,-0.6379652,-6.129189,33.51012,1008.461
27.722527027,-0.6189469,-0.7803784,0.1211538,0.07870322,-0.0121798,-0.9898385,-0.6379652,-6.129189,33.51012,1008.463
27.757585526,-1.664914,-0.6019356,0.1823532,0.07094766,-0.01757805,-1.000548,0.0836134,-5.396274,33.50253,1008.463
27.790143490,-0.4343645,-0.126088,0.304752,0.06608798,-0.02051305,-1.010255,-0.2828569,-5.39892,33.50372,1008.463
27.822700977,0.6731297,0.1713167,0.05995439,0.07002135,-0.02290938,-1.006429,-0.2771759,-5.762731,33.50632,1008.463
27.857762814,0.7346572,0.4687214,0.05995439,0.07488231,-0.02140354,-1.003027,-0.2771759,-5.762731,33.50632,1008.463
27.890320778,1.042295,0.6471642,-0.0624444,0.0773338,-0.0199756,-0.9894728,-0.2714944,-6.126542,33.50894,1008.46
27.922878742,1.226877,0.1713167,-0.001245009,0.07443628,-0.02148461,-0.9865928,-1.002805,-6.129252,33.95739,1008.46
27.957936287,-0.06519973,0.05235482,-0.1236438,0.0807091,-0.01939469,-1.000585,-1.002805,-6.129252,33.95739,1008.46
27.990494251,-0.8035293,-0.4829736,-0.0624444,0.07874252,-0.02033697,-1.012682,-0.6420155,-5.762794,33.95359,1008.462
28.023052216,-0.4343645,-0.3045308,-0.1848432,0.07576193,-0.01265766,-0.999994,-0.6379652,-6.129189,33.51012,1008.462
28.058114529,0.3654925,-0.007126116,0.05995439,0.07107396,-0.02541853,-0.9861662,-0.6379652,-6.129189,33.51012,1008.462
28.090672493,0.8577121,-0.3640117,-0.0624444,0.07537957,-0.01903797,-0.9875231,-0.6363342,-6.126606,33.9562,1008.464
28.123229980,0.4270199,-0.3045308,0.1211538,0.0724415,-0.01999734,-0.9986526,-0.6476967,-5.398984,33.95097,1008.464
28.155783176,-0.372837,0.2307976,-0.001245009,0.07490688,-0.02382649,-1.004514,-0.6476967,-5.398984,33.95097,1008.466
28.190845966,-0.1267272,0.05235482,-0.001245009,0.07101811,-0.02293844,-0.997246,-0.2812262,-5.396338,33.94979,1008.461
28.223403454,-0.1882546,-0.06660705,-0.001245009,0.07095609,-0.01759344,-0.9971643,-0.2698636,-6.123959,33.95501,1008.461
28.255961418,0.303965,0.1713167,0.1823532,0.07730974,-0.01993164,-0.9991397,-0.2698636,-6.123959,33.95501,1008.461
28.291023254,0.4885474,0.1118358,0.1823532,0.08415635,-0.02227449,-0.9986987,-0.2698636,-6.123959,33.95501,1008.463
28.323580742,-0.6804743,-0.126088,0.05995439,0.08606496,-0.01694585,-0.989435,-0.2714944,-6.126542,33.50894,1008.463
28.356134892,-0.9265841,-0.3640117,0.05995439,0.08127288,-0.02428479,-0.9924427,-0.2714944,-6.126542,33.50894,1008.465
28.391197205,-0.9265841,-0.6614165,-0.2460426,0.06998175,-0.0166541,-0.9927987,-0.2755449,-5.760148,33.9524,1008.465
28.423755169,-0.6189469,-0.7208974,0.1823532,0.06708556,-0.02101923,-1.003013,-0.6379652,-6.129189,33.51012,1008.465
28.456312180,-0.6189469,-0.4234927,-0.1236438,0.06706668,-0.02050914,-1.008323,-0.6379652,-6.129189,33.51012,1008.461
28.491374493,-1.418804,-0.2450499,-0.307242,0.0588787,-0.02553772,-0.994857,-0.284488,-5.401504,33.05764,1008.461
28.523932457,-1.480331,-0.2450499,-0.8580366,0.07586777,-0.02046078,-0.9938292,0.08929491,-5.760084,33.50513,1008.461
28.556486130,-4.556704,0.2307976,-0.7968372,0.08196103,-0.003298886,-1.009525,0.08929491,-5.760084,33.50513,1008.461
28.591547966,-2.403243,-0.126088,-0.2460426,0.08289878,0.005816424,-0.9808673,0.0836134,-5.396274,33.50253,1008.459
28.624105930,-0.6804743,-1.969997,0.1211538,0.06317323,-0.02246622,-1.016566,-0.2714944,-6.126542,33.50894,1008.459
28.656663895,-1.172694,-0.8993403,-0.307242,0.06425885,-0.0274137,-0.9944075,-0.2714944,-6.126542,33.50894,1008.459
28.689221382,5.287689,-0.3640117,0.1823532,0.07004295,-0.02152198,-0.9909396,-0.2698636,-6.123959,33.95501,1008.459
28.724284172,8.917809,-0.4234927,0.2435526,0.07289479,-0.01231973,-0.9758171,-0.6363342,-6.126606,33.9562,1008.459
28.756837368,4.118668,-0.6614165,0.3659514,0.07420082,-0.003932544,-0.9993759,-0.6363342,-6.126606,33.9562,1008.461
28.789394856,0.5500748,0.2902786,0.304752,0.07181522,-0.01641992,-1.038718,-0.2755449,-5.760148,33.9524,1008.461
28.824457645,2.518954,2.847959,-0.1236438,0.06428318,-0.0331655,-1.011897,-0.6493278,-5.401567,33.5049,1008.457
28.857015133,1.780624,4.037578,-0.4296408,0.06336501,-0.03280437,-0.9872382,-0.6493278,-5.401567,33.5049,1008.458
28.889573097,2.703536,5.940968,-0.4296408,0.07489901,-0.01858038,-0.9826819,0.09092569,-5.757502,33.95121,1008.458
28.924634933,2.518954,7.190067,-0.0624444,0.0826247,-0.01740808,-1.004423,0.07793236,-5.032463,33.49991,1008.458
28.957188606,-1.726441,11.53218,-0.613239,0.07845967,-0.03641129,-1.005676,0.07793236,-5.032463,33.49991,1008.46
28.989746571,-8.186824,9.390862,-2.632819,0.1096932,-0.03850916,-0.9893034,-0.6363342,-6.126606,33.9562,1008.462
29.024808407,-31.50573,15.87428,-11.07834,0.01803235,-0.03473615,-1.012843,-1.008486,-5.765442,33.95477,1008.458
29.057365894,-65.715,17.89664,-23.56301,0.1202764,-0.04526692,-1.075458,-1.008486,-5.765442,33.95477,1008.458
29.089923859,-79.43562,24.5585,-24.23621,0.1169364,0.04053802,-1.036926,-1.004436,-6.131835,33.51131,1008.458
29.122481823,-113.7064,21.70342,-28.39776,0.1109674,-0.01864916,-0.9711168,-1.705605,-8.385795,32.63765,1008.459
29.157540321,-31.4442,14.62519,-22.95102,0.1801238,-0.2158746,-1.113888,-1.705605,-8.385795,32.63765,1008.463
29.190097332,95.05625,7.130587,-13.03672,0.09001735,0.1083963,-0.9672248,-1.680227,-10.20965,31.82229,1008.463
29.222655296,42.20416,5.822006,-12.42472,0.1671315,0.06252173,-0.9186946,-2.021554,-12.03651,30.94439,1008.463
29.257717609,94.99472,-7.91809,-10.46634,0.1865055,0.02639871,-0.9352159,-2.021554,-12.03651,30.94439,1008.463
29.290275574,76.84412,-16.42386,-8.875157,0.1061116,0.3209366,-0.7421278,-2.41643,-10.2201,30.93252,1008.459
29.322833061,35.25156,-28.67694,-6.916777,0.1284645,0.329399,-0.7222018,-2.068635,-9.128609,30.47743,1008.459
29.357891083,-5.295033,-71.91959,-4.6524,0.2438132,0.1342712,-1.085406,-2.068635,-9.128609,30.47743,1008.46
29.390449047,82.38159,-40.51365,12.42223,0.0493316,0.03475236,-1.027281,-1.367466,-6.87465,31.35109,1008.46
29.423006535,76.16732,-33.7923,6.669489,0.0664895,-0.02035067,-1.044573,0.4648874,-6.861416,31.34515,1008.46
29.458068371,99.05553,-23.08573,9.362263,0.03980919,-0.1016841,-1.189834,0.4648874,-6.861416,31.34515,1008.46
29.490671635,71.12207,-11.0111,2.936326,0.009737832,-0.12174,-1.034948,1.17082,-5.034855,31.71206,1008.46
29.523229599,15.50125,-8.691343,-3.856807,0.01181202,-0.1670732,-0.9998711,2.600196,-2.472427,32.58117,1008.46
29.555782318,-19.69246,-8.393939,-10.58874,-0.02217887,-0.2850012,-0.9223637,2.600196,-2.472427,32.58117,1008.458
29.590845108,-43.01137,-5.776777,-4.958396,-0.008638122,-0.1654402,-0.9901589,2.57584,-1.019766,32.12466,1008.458
29.623402596,-6.279473,-9.821481,-1.102834,0.04599324,-0.3430325,-1.004039,1.84858,-1.388871,32.12964,1008.458
29.655960560,23.62287,-15.0558,15.2374,0.01627293,0.003363511,-0.9532879,1.84858,-1.388871,32.12964,1008.459
29.691022396,-4.679759,-24.15639,10.09665,-0.02340812,-0.01663529,-0.9443706,2.583152,-1.380994,32.57334,1008.459
29.723580361,-39.87347,-13.33086,1.834737,-0.02168356,-0.3092664,-1.034878,3.375541,-1.377842,32.12469,1008.459
29.756134033,-41.71929,-10.83266,6.914287,-0.05841196,-0.1834373,-0.9164289,3.375541,-1.377842,32.12469,1008.459
29.791196346,-44.11886,-24.92964,12.91183,-0.05610654,-0.03024423,-1.037355,2.960985,-2.105969,32.57737,1008.459
29.823753834,-63.37696,-23.74002,14.25821,-0.10616,-0.03013302,-0.9918675,4.493628,-2.458751,32.57503,1008.459
29.856311321,-100.6626,-23.97795,26.80409,-0.1205779,0.243844,-1.003142,4.153932,-4.283035,32.1432,1008.459
29.891374111,-161.5132,-27.48732,38.86037,-0.08063334,0.2467151,-0.985735,4.153932,-4.283035,32.1432,1008.455
29.923931599,-245.0675,-22.43144,18.60337,-0.2613361,-0.366947,-1.326519,5.290084,-6.826567,31.32949,1008.455
29.956484795,-464.659,-40.0378,-3.489611,-0.7202989,-0.3883129,-2.106573,5.352682,-11.26326,29.57698,1008.455
29.989042759,-105.0926,-54.84855,-21.97183,-0.2946364,0.4856894,-0.9262943,5.352682,-11.26326,29.57698,1008.457
30.024105072,-249.7436,-29.09331,-19.40145,-0.0230474,0.5169371,-1.245592,6.556344,-19.292,23.95937,1008.459
30.056663036,-215.4113,49.77842,-39.71965,-0.1220882,0.1093725,-1.46585,7.322941,-22.58868,19.20115,1008.457
30.089221001,-158.5599,117.0514,-66.03539,-0.118684,-0.6419942,-1.459432,7.322941,-22.58868,19.20115,1008.457
30.124282837,-26.39895,99.56396,-74.11371,-0.4384206,-0.1965446,-0.834088,6.249031,-25.9115,12.21851,1008.457
30.156836510,22.88454,70.95364,-75.3377,-0.5297493,0.04177235,-0.6002766,6.609999,-26.29038,9.161158,1008.457
30.189394474,35.37461,62.56682,-87.27158,-0.4699573,0.255592,-0.4240233,6.609999,-26.29038,9.161158,1008.455
30.224455833,56.04784,30.804,-75.82729,-0.409347,1.005478,-0.349319,6.593133,-25.94428,6.099768,1008.453
30.257013798,-25.04535,47.3397,-69.03416,-0.2633646,1.238437,-0.2864504,6.920802,-24.51185,1.691139,1008.455
30.289571762,-127.0579,64.70814,-79.43806,-0.2748965,0.3996565,-0.2315632,6.920802,-24.51185,1.691139,1008.455
30.324634075,-92.54097,116.3971,-159.5481,-0.4686286,-1.017179,-0.7619878,8.388672,-25.98935,-3.974658,1008.455
30.357187748,61.09309,43.41396,-146.3902,-0.7987912,0.3665606,-0.3330716,11.6889,-27.45362,-9.646399,1008.456
30.389745236,77.82856,-5.360411,-119.5237,-0.5409822,0.8411986,-0.1921838,11.6889,-27.45362,-9.646399,1008.455
30.457365513,54.20201,-29.03382,-126.1944,-0.9372234,0.4458118,-0.2031507,25.35789,-34.2655,-9.194698,1008.456
30.489923000,16.17805,-53.48049,-130.2948,-0.8513243,0.9358397,0.01451136,25.35789,-34.2655,-9.194698,1008.455
30.522480965,-77.71285,-38.90766,-143.5138,-0.9617456,0.6819155,-0.1449033,30.90753,-36.75218,-5.689401,1008.455
30.557539463,-65.22278,-51.04177,-136.7819,-1.002661,0.7027507,-0.2475052,34.19338,-35.62955,-4.433442,1008.454
30.590097428,-52.30201,-66.26889,-121.9104,-0.9629858,0.8414973,-0.2913476,34.19338,-35.62955,-4.433442,1008.455
30.622654915,-66.3918,-67.10162,-119.0953,-0.9963162,0.7085147,-0.2145538,37.82339,-33.79399,-6.178948,1008.457
30.657716751,-43.62664,-59.84495,-116.1577,-1.061192,0.542108,-0.2518331,39.9532,-29.78653,-7.999091,1008.457
30.690274716,-28.79852,-53.00464,-117.8713,-0.9565233,0.7491807,-0.2787443,39.9532,-29.78653,-7.999091,1008.461
30.722832680,-36.30487,-28.20109,-127.908,-0.9241061,0.5723292,-0.4115021,41.71271,-25.41495,-9.31086,1008.46
30.757890225,5.964491,-9.702519,-131.7023,-1.152972,0.5460986,-0.3232234,43.09985,-20.68257,-10.68777,1008.462
30.790448189,27.4991,-24.7512,-111.7513,-1.257332,0.7469344,-0.2199997,43.09985,-20.68257,-10.68777,1008.465
30.823006153,54.75576,-25.16756,-88.18958,-1.295292,0.6375956,-0.3313577,44.8413,-14.84836,-10.7355,1008.465
30.858068466,50.818,-57.46571,-60.71105,-1.396346,0.8139873,-0.187423,45.14933,-11.21019,-11.20887,1008.467
30.890625477,10.0253,-71.02737,-47.36958,-1.240364,0.590088,-0.2016237,45.14933,-11.21019,-11.20887,1008.47
30.923183441,-98.38608,-82.98304,-32.80412,-0.9245794,0.9327881,-0.4828592,45.47076,-9.042021,-14.22078,1008.472
30.955737114,-85.83447,-50.92281,-28.33657,-0.9347878,0.5611382,-0.6514174,45.79506,-7.17998,-17.74031,1008.476
30.990952969,-87.55724,-15.7101,-22.58382,-0.9519467,0.04385196,-0.7704694,45.79506,-7.17998,-17.74031,1008.476
31.023509979,-69.46817,-2.445845,-25.39899,-1.047336,-0.5041955,-0.7627871,45.36954,-3.920877,-19.92926,1008.473
31.056067944,24.85342,-11.42747,-22.21663,-0.9125133,-0.4428737,-0.5033751,45.69703,-1.743114,-21.28433,1008.474
31.091130257,52.17161,-10.77318,-16.58628,-0.7777008,-0.1502433,-0.3424267,45.69703,-1.743114,-21.28433,1008.478
31.123688221,28.79118,0.1713167,-15.0563,-0.9416845,-0.0263053,-0.4916745,46.39448,0.4428287,-21.68472,1008.478
31.156241417,-0.4343645,-11.24902,-15.23989,-1.1067,-0.1201368,-0.1057619,46.03206,0.07378912,-22.12699,1008.478
31.191303730,-8.494462,-15.82906,-7.957167,-1.152312,-0.3661095,-0.01279517,46.03206,0.07378912,-22.12699,1008.481
31.223861694,81.58173,-65.55512,-1.592429,-1.202772,-0.4967216,0.2404838,45.67128,-0.2926679,-22.12319,1008.483
31.256419659,48.23385,-91.01296,-15.54589,-0.9210731,0.1786032,0.3515407,45.28287,0.7883677,-23.46805,1008.483
31.291481018,-22.15356,-62.64056,-31.27414,-0.8011835,0.0908739,-0.6331019,45.28287,0.7883677,-23.46805,1008.487
31.324038982,11.00974,-31.65098,-17.99387,-0.7250682,0.4472099,-1.071962,43.83257,-1.061567,-26.95509,1008.488
31.356592655,-18.8926,-15.0558,-8.69156,-1.055457,-0.1733106,0.08334448,42.35146,-0.7234731,-29.56565,1008.488
31.391654492,57.89366,-26.41666,2.936326,-1.05532,-0.1592915,0.2063359,42.35146,-0.7234731,-29.56565,1008.488
31.424212456,14.2707,-21.47975,1.52874,-0.9723299,-0.0195186,-0.04441781,41.59579,0.7264762,-29.57372,1008.489
31.456770420,-5.110451,-17.01867,1.039145,-0.9856402,-0.1642327,-0.002142103,41.23174,0.3548532,-30.46207,1008.489
31.489327908,-3.141573,-15.29373,4.711108,-0.9582275,-0.1769812,-0.005746697,41.23174,0.3548532,-30.46207,1008.491
31.524389744,4.672415,-10.89214,8.077075,-0.9837845,-0.1136795,0.001527624,40.51016,-0.3780618,-30.45447,1008.491
31.556943894,-8.740571,-2.267402,5.200704,-0.9728115,-0.09409492,0.001332446,39.77014,-0.02175903,-30.83705,1008.493
31.589502335,-8.494462,4.394464,4.405111,-0.9810128,-0.1038551,-0.01330985,39.77014,-0.02175903,-30.83705,1008.493
31.624564171,-6.464055,9.569305,4.037915,-0.9727319,-0.1075575,-0.03029252,39.04693,-0.757257,-31.27552,1008.49
31.657121182,-3.633792,15.04155,2.875127,-0.975625,-0.07203221,-0.04859943,39.40936,-0.388216,-30.83325,1008.492
31.689679146,-16.18539,22.53615,1.834737,-0.9611616,-0.1052901,-0.06797248,39.40936,-0.388216,-30.83325,1008.492
31.724741459,-9.232791,17.59923,7.832278,-1.016821,-0.1109209,0.04800577,39.77583,-0.3855696,-30.83444,1008.494
31.757295132,-5.479616,21.88186,9.66826,-0.9929776,-0.1443468,-0.120259,40.51016,-0.3780618,-30.45447,1008.496
31.789852143,6.026019,24.02317,11.87144,-0.993747,-0.05733142,-0.02032181,40.87421,-0.006438732,-29.56612,1008.499
31.824914932,-7.386967,27.17566,11.44304,-0.9460164,-0.07147125,-0.08680622,40.87421,-0.006438732,-29.56612,1008.497
31.857472420,-0.1267272,32.29103,13.58502,-1.006884,-0.06560729,-0.05475514,41.62178,-0.7236004,-28.67113,1008.497
31.890030384,9.902248,31.7557,14.31941,-0.9311669,-0.05750852,-0.1218941,42.36771,-1.443346,-28.22222,1008.497
31.922587395,7.44115,32.0531,11.56544,-0.9661962,-0.02573551,-0.1552119,42.36771,-1.443346,-28.22222,1008.498
31.957645893,-13.78582,28.48424,9.790658,-1.016558,-0.09581693,-0.1717005,42.74047,-1.430736,-26.50284,1008.5
31.990203857,-6.341,17.12338,8.077075,-0.972383,-0.05889747,-0.2543207,43.48804,-2.147898,-25.60785,1008.502
32.022761822,-6.033363,17.24235,6.853087,-1.001363,-0.06351516,-0.1775063,43.48804,-2.147898,-25.60785,1008.502
32.057823658,-5.171978,15.87428,1.222743,-0.9244418,0.04578995,-0.2663044,44.59211,-2.132577,-24.33693,1008.504
32.090381145,-6.525582,15.27947,-3.367212,-1.026152,0.01729636,-0.1709323,44.95858,-2.129931,-24.33812,1008.501
32.122939110,-3.018518,10.63996,-8.201964,-0.9331468,-0.03755498,-0.2395317,44.95858,-2.129931,-24.33812,1008.503
32.157997131,7.810315,8.974496,-6.61078,-0.9588422,-0.09606631,-0.2713357,45.69721,-2.488448,-24.33788,1008.506
32.190554619,13.53237,7.130587,-4.835998,-0.9317694,-0.03785921,-0.2753075,45.68911,-1.75566,-23.45096,1008.508
32.223112583,21.96163,-0.06660705,-0.4296408,-0.9825294,-0.03069449,-0.2862669,45.68911,-1.75566,-23.45096,1008.508
32.258174896,23.37676,-0.007126116,2.079535,-0.9449415,-0.1153996,-0.2552092,45.68911,-1.75566,-23.45096,1008.51
32.290732384,18.0854,-0.3640117,3.487121,-0.9668471,-0.03162574,-0.2505263,46.42368,-1.747784,-23.00727,1008.507
32.323289871,12.4864,2.074707,2.936326,-0.9628813,-0.1172022,-0.2310506,46.42368,-1.747784,-23.00727,1008.509
32.355844021,18.20845,-1.613111,4.711108,-0.9847618,-0.04298605,-0.2618,46.06126,-2.116825,-23.44954,1008.511
32.390906334,11.50196,-2.981173,1.283942,-0.9546105,-0.04489884,-0.2889274,46.07588,-2.83928,-22.55217,1008.511
32.423463345,9.471556,-9.702519,0.05995439,-0.9696869,-0.05464244,-0.3267649,46.07588,-2.83928,-22.55217,1008.512
32.456021309,6.395184,-15.17477,-2.449221,-0.9840816,-0.06045485,-0.2659342,46.07993,-3.205674,-22.99563,1008.514
32.491083622,0.3654925,-21.71767,-5.509191,-0.9716892,-0.03078775,-0.2350408,45.71588,-3.577297,-23.88398,1008.516
32.523641586,-9.601955,-25.10808,-5.815188,-0.998483,-0.05959638,-0.1759991,45.71588,-3.577297,-23.88398,1008.517
32.556194782,2.457426,-27.90369,-5.509191,-0.9856461,-0.06783898,-0.143751,44.98396,-3.953781,-25.15348,1008.517
32.591257095,-5.418088,-28.02265,-8.385563,-0.9678747,-0.0643018,-0.2287885,45.34149,-3.59249,-26.04942,1008.513
32.623815060,-6.09489,-28.02265,-11.20074,-0.9512661,-0.06465752,-0.2099583,45.34149,-3.59249,-26.04942,1008.515
32.656372547,-8.617517,-29.03382,-12.91432,-1.034313,-0.1107984,-0.1346919,43.87234,-3.608243,-26.93681,1008.515
32.691434384,-12.37069,-36.52842,-11.87393,-1.039601,-0.1186032,-0.1435067,43.49148,-2.888065,-27.76927,1008.517
32.723992348,-7.694604,-46.34278,-14.8115,-0.9578794,-0.08414323,-0.21895,43.49148,-2.888065,-27.76927,1008.517
32.756546021,-25.29146,-45.62901,-16.03549,-1.017044,-0.2549322,-0.1320738,42.73823,-1.807092,-28.66687,1008.517
32.791607857,9.963776,-47.65136,-9.854348,-1.106531,-0.1954806,0.003298373,41.6309,-1.827579,-30.82994,1008.516
32.824165821,27.00688,-50.09008,-7.222774,-1.087732,-0.04047478,0.06413364,41.6309,-1.827579,-30.82994,1008.516
32.856723785,21.77705,-53.77789,-7.345173,-1.154685,0.04364474,-0.02877685,39.7896,-1.482168,-31.71875,1008.518
32.889281273,-12.06305,-58.47689,-8.875157,-1.323702,-0.05491123,-0.1084244,37.95236,-1.50315,-33.05102,1008.518
32.924343109,1.103822,-72.39543,-12.05753,-1.239386,0.02822193,-0.08596886,37.95236,-1.50315,-33.05102,1008.518
32.956896782,-9.109736,-86.43293,-21.23743,-1.331563,0.02347959,-0.1618424,35.74561,-1.531577,-35.21052,1008.518
32.989454746,-2.895463,-104.1582,-31.39653,-1.468364,-0.02544493,-0.3746592,34.27647,-1.54733,-36.09791,1008.52
33.024516582,-2.341716,-136.04,-43.39162,-1.566876,0.09222621,-0.6671453,34.27647,-1.54733,-36.09791,1008.515
33.057074547,52.54078,-154.5386,-46.02319,-1.202504,0.03869925,-0.8892168,30.59248,-0.8587217,-38.25788,1008.515
33.089632034,166.6127,-135.3857,-22.46142,-0.531522,-0.1809374,-0.792673,26.54909,-0.5343571,-40.0317,1008.515
33.124693871,44.48068,-55.85973,-25.94979,-0.6520298,-0.472434,0.3253971,26.54909,-0.5343571,-40.0317,1008.514
33.157248020,115.6679,33.12376,16.52259,-0.4865077,0.03912882,-0.8550982,22.14679,-0.5734982,-41.29193,1008.514
33.189805508,47.43399,58.40316,23.62172,-0.2619753,0.09301971,0.008818184,20.34019,-2.037178,-40.44712,1008.512
33.224868298,-11.63236,153.989,11.99384,-0.5187895,0.1085221,-0.1806645,20.34019,-2.037178,-40.44712,1008.51
33.257425308,-29.59838,197.1127,14.68661,-0.7704978,-0.02023229,-0.1630508,21.48021,-4.20177,-38.65073,1008.51
33.289983273,-31.07504,219.2991,23.25453,-0.9746034,-0.159984,-0.04945887,26.9907,-3.768,-33.44576,1008.508
33.322540760,-4.126012,234.7641,26.3145,-1.168929,-0.04466891,-0.1002001,26.9907,-3.768,-33.44576,1008.504
33.357598782,-6.525582,252.7274,30.10886,-1.337496,0.07583078,-0.1484702,31.7634,-2.601571,-26.45935,1008.503
33.390156269,1.103822,259.0323,40.20676,-1.472509,0.05581441,-0.08870652,35.46105,-2.895741,-19.01285,1008.503
33.457776547,0.3654925,192.1163,46.4491,-1.751619,0.03919015,0.4120876,37.7066,-4.297096,-12.44591,1008.503
33.490334034,-7.817659,144.3531,42.83833,-1.820084,-0.5121519,0.2606627,40.3208,-6.06515,-6.833411,1008.503
33.522891522,11.93265,58.16523,4.772308,-1.491075,-0.3206976,0.8868222,40.3208,-6.06515,-6.833411,1008.504
33.557950020,-8.863626,-35.69569,-26.56178,-1.542356,-0.08218658,0.7677328,44.02818,-7.089525,0.1722374,1008.508
33.590507984,-36.3664,-111.2365,-57.34508,-1.388254,0.01906047,0.5356577,44.41652,-7.860006,2.789412,1008.508
33.623064995,590.6599,146.8513,-66.15779,-0.602933,0.5920275,-7.619627,44.41652,-7.860006,2.789412,1008.508
33.658127785,-481.0869,23.36888,-103.061,-2.8344,-0.7858583,1.211169,45.48512,-6.720294,-0.727273,1008.504
33.690685272,-111.4299,-19.39791,-92.28993,-1.104932,0.7794961,0.320282,45.83128,-5.631381,-1.628439,1008.505
33.723242760,-86.01906,-43.01184,-47.55318,-0.9694571,-1.672801,-1.766296,45.83128,-5.631381,-1.628439,1008.505
33.755796433,70.81443,-83.87525,-16.21908,-0.8797362,0.5235042,-0.0241382,45.75682,-1.275615,-3.380336,1008.505
33.790858746,-63.43848,-41.16793,-34.51771,-0.9252469,0.2568389,-0.1881604,45.33106,1.98312,-5.633007,1008.505
33.823416710,-17.1083,-50.44696,-25.2766,-0.9193518,-0.2766815,-0.5172679,45.67662,2.698259,-8.252125,1008.507
33.855973721,-24.24549,-43.07132,-25.21539,-0.9338934,-0.01574006,-0.441733,45.67662,2.698259,-8.252125,1008.509
33.891036510,-31.38268,-45.62901,-31.94733,-1.013775,-0.07037357,-0.3071439,44.54414,4.501993,-9.536105,1008.509
33.923593998,-7.756132,-49.97111,-31.51893,-0.962892,-0.08537216,-0.283253,44.52951,5.224449,-10.43347,1008.51
33.956147194,1.103822,-53.83738,-31.82493,-0.9747326,-0.07002381,-0.2723731,44.52951,5.224449,-10.43347,1008.51
33.991209507,23.19218,-57.46571,-30.11135,-0.9954844,-0.1666009,-0.2559415,44.13263,6.664868,-12.54564,1008.506
34.023767471,30.32936,-48.18668,-26.74538,-1.012457,-0.159818,-0.1934661,43.36881,8.101902,-14.78407,1008.504
34.056325436,41.65041,-42.77392,-24.481,-0.9976339,-0.1372451,-0.1984532,43.36881,8.101902,-14.78407,1008.504
34.091387272,37.28196,-38.90766,-24.3586,-1.022938,-0.1884417,-0.2344963,41.88932,8.442579,-16.94855,1008.504
34.123944759,41.1582,-34.80347,-23.62421,-1.031477,-0.2877843,-0.2161852,41.14013,9.15716,-18.28962,1008.504
34.156498909,54.3866,-38.43181,-21.78823,-0.9910488,-0.149994,-0.1551501,41.14013,9.15716,-18.28962,1008.506
34.191560745,36.11294,-41.46534,-27.66337,-1.058378,-0.1781623,-0.1390801,40.39684,9.508295,-19.56434,1008.508
34.224118233,37.95877,-51.93398,-30.78454,-1.062061,-0.1524975,-0.1290174,40.03684,8.770281,-20.89614,1008.505
34.256676197,39.12779,-57.52519,-32.68172,-1.071739,-0.1745581,-0.008983805,40.03684,8.770281,-20.89614,1008.505
34.289234161,36.05141,-63.53277,-30.96814,-1.127977,-0.02852907,-0.005734899,38.55167,9.474768,-23.06325,1008.505
34.324295998,17.53165,-69.12398,-36.84328,-1.13613,-0.147181,-0.1211308,37.07787,9.451633,-25.22513,1008.505
34.356849670,-2.218661,-78.99782,-36.65968,-1.320837,-0.1588179,-0.2284397,37.07787,9.451633,-25.22513,1008.507
34.389407635,27.56063,-84.41058,-43.14682,-1.421148,-0.276118,-0.5829975,35.23168,9.789295,-27.45216,1008.507
34.424468994,116.5293,-93.45168,-45.044,-1.193437,0.06584691,-0.6360054,33.36868,11.21876,-29.62329,1008.507
34.457026959,185.5631,-106.8349,-31.70253,-1.104568,-0.2296708,0.0457954,33.36868,11.21876,-29.62329,1008.507
34.489584923,229.6783,-91.13193,-29.13216,-0.8961149,-0.1259449,-0.2544505,31.15867,11.18517,-32.67494,1008.503
34.524646759,204.1444,-117.1846,-19.34025,-1.067989,0.05626459,0.4339236,27.55664,6.411448,-35.68789,1008.501
34.557200432,127.6043,-36.17154,-26.92898,-0.5298396,-0.2744322,-0.7486636,27.55664,6.411448,-35.68789,1008.501
34.589758396,148.5851,-28.32005,22.15294,-0.4245007,0.3010539,-0.1396314,24.70948,0.559339,-37.35716,1008.501
34.624820233,73.214,28.24632,24.84571,-0.3500198,0.5087341,0.03941429,23.64984,-1.995276,-37.33532,1008.499
34.657377720,-63.37696,73.51131,22.39774,-0.439189,0.4227662,0.4099056,23.64984,-1.995276,-37.33532,1008.499
34.689935684,-146.9312,105.8689,35.37201,-0.382393,0.04621922,0.3340164,22.98405,-5.995108,-36.02972,1008.495
34.722493649,-90.20292,119.728,56.4246,-0.712136,-0.3721091,0.3216686,25.17477,-5.24644,-35.14994,1008.498
34.757551193,-24.43007,95.04341,81.27155,-1.019856,-0.1709328,0.5145185,25.17477,-5.24644,-35.14994,1008.498
34.790109158,-90.20292,75.7121,74.11123,-1.174163,-0.4280034,0.9172654,27.70012,-1.935904,-32.12298,1008.491
34.822667122,-327.0221,-8.929267,-13.09792,-2.737251,-2.365527,3.953824,29.54873,-2.642543,-30.78548,1008.491
34.857728958,99.30164,-167.327,-65.1786,-0.8350657,-1.231518,0.5310292,29.54873,-2.642543,-30.78548,1008.493
34.890286446,-17.41594,-139.3115,-68.66697,0.09980118,0.0687118,-0.3394498,29.87054,-0.1009698,-32.14317,1008.495
34.922844410,-17.96969,-96.66365,-63.95462,0.1675788,0.2715054,0.463084,26.17434,0.9411168,-36.09003,1008.497
34.957901955,159.9062,-119.8017,-43.88121,-1.715056,0.09392082,1.088165,26.17434,0.9411168,-36.09003,1008.497
34.990461826,-5.910308,-118.2552,-34.4565,-0.8661754,0.6356964,0.8805083,22.11657,1.988306,-38.6975,1008.497
35.023017883,-84.05018,-144.1889,-39.65845,-0.9360177,0.4741599,0.8268733,19.55635,1.232194,-40.40452,1008.498
35.058079720,-115.6138,-146.9845,-56.67189,-0.4130432,-0.3597373,0.8063956,19.55635,1.232194,-40.40452,1008.5
35.090637207,-119.4285,-135.3263,-67.32058,0.2345827,-0.5731074,0.7416098,14.76866,2.278886,-42.18119,1008.496
35.123195171,-85.58836,-102.6117,-68.78937,0.1074998,-0.811304,0.8149554,9.927425,6.968853,-43.09182,1008.496
35.155748844,-75.92855,-80.84172,-70.93134,-0.4665358,-0.7006047,1.009582,9.927425,6.968853,-43.09182,1008.496
35.190810680,-96.97094,-83.33992,-75.7661,-0.3991285,-0.663179,0.6702743,4.368106,10.93144,-43.03899,1008.498
35.223368645,-86.44975,-88.93113,-99.14426,-0.6920432,-1.382266,0.7441773,0.5925877,14.18104,-42.66805,1008.498
35.255926609,49.40287,-122.2999,-109.6094,-0.7861475,-1.17226,1.102754,0.5925877,14.18104,-42.66805,1008.498
35.290988445,60.29323,-149.3638,-117.4429,-0.8024741,-0.8598551,1.291219,-3.855348,17.79772,-40.89561,1008.493
35.323545933,-6.402528,-161.141,-113.4649,-1.342412,-0.3586435,1.954846,-9.340435,17.40417,-39.15461,1008.493
35.356100082,103.7932,-111.7123,-112.7917,-0.7350296,1.033808,1.239804,-9.340435,17.40417,-39.15461,1008.495
35.391161442,-331.4521,-83.81577,-167.7488,-1.357892,-1.94944,1.394043,-15.14552,13.7263,-38.66341,1008.497
35.423719406,-21.04606,-126.8205,-201.7144,-1.025188,-2.972013,0.5355951,-21.33267,11.88513,-34.67921,1008.497
35.456277371,161.8136,-190.5246,-151.2249,-0.5247932,-2.172463,0.250517,-21.33267,11.88513,-34.67921,1008.491
35.491339207,260.319,-221.4547,-125.3376,1.056235,-0.8125835,-0.980758,-26.88774,16.60006,-30.36206,1008.489
35.523896694,374.0833,-116.6492,-108.3854,1.558219,-0.01456323,-0.8211544,-34.09476,9.657597,-26.33775,1008.489
35.556450844,363.6852,-90.65608,-81.21284,1.370994,0.6771057,-0.2013665,-34.09476,9.657597,-26.33775,1008.484
35.591512680,189.624,-8.572381,-74.54211,0.837516,0.5158257,-0.2511664,-38.6807,-0.5332541,-21.02377,1008.478
35.624070168,86.31935,19.68106,-58.69147,0.4756348,0.411965,-0.3582612,-39.96317,-11.12694,-16.09979,1008.478
35.656628132,38.94321,39.30978,-44.9216,0.6089988,0.3040011,-0.7066182,-39.96317,-11.12694,-16.09979,1008.472
35.689186096,80.65883,47.0423,-12.54712,0.5904322,0.3143933,-0.4816716,-39.51553,-16.21507,-15.61835,1008.472
35.724247933,27.31452,70.47778,14.80901,0.4789619,0.291995,-0.3654119,-38.74445,-18.75903,-16.04852,1008.472
35.756801605,-39.31972,94.68652,21.84694,0.5168549,0.2042993,-0.4233415,-38.74445,-18.75903,-16.04852,1008.469
35.789359570,-40.30416,132.7543,26.68169,0.4031046,0.03616033,-0.5398737,-38.36178,-20.22196,-17.82356,1008.465
35.824421406,-13.60124,146.6134,17.31819,0.1518505,0.05046471,-0.4519219,-36.93851,-18.41483,-21.72857,1008.461
35.856978893,-25.47604,146.197,12.72823,0.2863695,0.2429678,-0.2900838,-34.4104,-16.96393,-25.69825,1008.461
35.889536858,-68.54526,159.2233,15.5434,0.3225901,0.282517,-0.2266764,-34.4104,-16.96393,-25.69825,1008.458
35.924598694,4.918525,181.9451,19.27657,0.1158066,-0.3180311,-0.2153372,-31.49611,-16.97043,-30.48711,1008.458
