Time (s),Gyroscope X (deg/s),Gyroscope Y (deg/s),Gyroscope Z (deg/s),Accelerometer X (g),Accelerometer Y (g),Accelerometer Z (g),Magnetometer X (uT),Magnetometer Y (uT),Magnetometer Z (uT),Barometer (hPa)
0.016672134,-0.44212,-0.02155168,-0.1144916,0.01113698,0.7834111,-0.617169,-0.5543599,-24.60259,3.078212,1008.314
0.048949242,-0.06835972,-0.07972492,0.06866337,0.006296816,0.7838664,-0.6215069,-0.9280714,-24.23891,2.705632,1008.314
0.081226826,0.4887092,0.09611928,0.2507274,0.005351199,0.7761338,-0.6176813,-0.5550213,-24.23807,3.073596,1008.316
0.115986347,0.3620923,-0.02167128,0.2491684,0.008228837,0.7863063,-0.6171463,-0.5550213,-24.23807,3.073596,1008.314
0.148263454,-0.5670635,-0.1386935,-0.2993577,0.008235037,0.784866,-0.6137704,-0.9280714,-24.23891,2.705632,1008.316
0.183023453,-0.3780319,-0.1965481,-0.05479703,0.005337945,0.7829203,-0.6142586,-0.9280714,-24.23891,2.705632,1008.316
0.215296745,-0.2535547,-0.01974905,-0.1152657,0.006792285,0.7800078,-0.6181459,-0.9280714,-24.23891,2.705632,1008.316
0.250057220,-0.005499445,-0.3124033,-0.1756238,0.005817183,0.7833926,-0.6181246,-0.5652945,-24.2429,2.700116,1008.314
0.282333851,-0.005263321,-0.01809447,-0.1749461,0.007256646,0.7867711,-0.621976,-0.9400567,-24.24454,2.269905,1008.313
0.314611435,0.2419526,-0.01783693,0.2515873,0.005803324,0.7877332,-0.6224508,-0.9400567,-24.24454,2.269905,1008.313
0.349371433,0.5495149,0.2165001,0.4940356,0.003883,0.7833871,-0.6181204,-0.9400567,-24.24454,2.269905,1008.313
0.381648540,-0.5662873,0.09843313,0.1270847,0.007737902,0.7877403,-0.6219715,-1.290848,-24.23492,2.711147,1008.313
0.416404247,-0.934691,-0.07819904,0.1265077,0.01064846,0.7853437,-0.6176404,-1.290848,-24.23492,2.711147,1008.311
0.448681354,-0.3742067,0.27406,0.2477779,0.01162849,0.7795361,-0.6186424,-1.653625,-24.23093,2.716663,1008.309
0.483441353,-0.4962006,-0.2544187,-0.1792828,0.009687129,0.7834102,-0.616199,-0.9280714,-24.23891,2.705632,1008.309
0.515718460,0.0007751733,-0.07760477,0.003620322,0.004359679,0.786292,-0.6181049,-0.9280714,-24.23891,2.705632,1008.309
0.547995567,0.3102121,-0.3119338,-0.1787007,0.003395979,0.7843486,-0.6195642,-0.9171368,-24.5986,3.083728,1008.309
0.582756042,0.6179414,-0.1352478,0.004007513,0.006290303,0.7862827,-0.6224601,-0.5766184,-24.61305,2.269005,1008.308
0.615029335,-0.06531546,-0.01760411,0.06477904,0.006790434,0.7814661,-0.6162038,-0.5766184,-24.61305,2.269005,1008.306
0.649789333,-0.6829184,-0.1349325,0.003592496,0.007759855,0.7809899,-0.6147583,-1.279252,-24.95913,3.093859,1008.31
0.682066441,-0.1227999,-0.1935455,0.247264,0.005814331,0.7824033,-0.6244149,-0.5543599,-24.60259,3.078212,1008.308
0.716825962,0.3108936,0.1583243,0.4896355,0.007273063,0.7799977,-0.621531,-0.5543599,-24.60259,3.078212,1008.304
0.749103546,0.1855627,0.392288,0.3050657,0.01016293,0.7853342,-0.6200566,-0.5646331,-24.60742,2.704732,1008.304
0.781380653,-0.6195679,-0.07725769,-0.0609617,0.007745997,0.7853305,-0.6190845,-0.5646331,-24.60742,2.704732,1008.307
0.816136360,-0.1838107,-0.2527323,0.06113007,0.006790476,0.781955,-0.6147507,-0.5646331,-24.60742,2.704732,1008.304
0.848413467,0.002587274,-0.07599854,0.0004563578,0.009687754,0.7814581,-0.6210445,-0.5639715,-24.97193,2.709348,1008.308
0.883173943,-0.1210411,-0.07544413,-0.303867,0.005822239,0.7824361,-0.6147459,-0.9387337,-24.97358,2.279137,1008.308
0.915451050,0.002583273,0.04237956,0.001119443,0.01162088,0.7829252,-0.6181397,-0.5646331,-24.60742,2.704732,1008.308
0.950211048,0.2500388,0.04263515,0.0009612126,0.00389022,0.7799963,-0.6191066,-0.5646331,-24.60742,2.704732,1008.304
0.982488155,0.06337076,-0.01631523,0.1221697,0.006787354,0.7824307,-0.6171653,-1.290187,-24.59944,2.715763,1008.304
1.014761448,-0.370178,0.04243548,0.2435724,0.004374868,0.7790248,-0.6205634,-0.5652945,-24.2429,2.700116,1008.304
1.049520969,-0.4304295,0.2186704,-0.1223573,0.009693247,0.7809922,-0.6157293,-0.5652945,-24.2429,2.700116,1008.304
1.081798553,-0.4906099,-0.01594557,0.06029466,0.01257415,0.7877575,-0.621015,-1.290187,-24.59944,2.715763,1008.304
1.116558075,-0.3030993,-0.3680922,-0.06177498,0.005822239,0.7824361,-0.6147459,-1.289525,-24.96395,2.720379,1008.31
1.148835182,0.007654421,-0.01531385,-0.0007353632,0.007277413,0.7800157,-0.6162131,-1.289525,-24.96395,2.720379,1008.308
1.183595657,0.2550678,-0.1909686,0.0603997,0.01016352,0.7828932,-0.6263552,-0.5652945,-24.2429,2.700116,1008.308
1.215868950,0.3154188,-0.07307918,-0.06144091,0.007753259,0.7824285,-0.6186176,-0.9267484,-24.96794,2.714863,1008.301
1.248146057,-0.1190019,-0.01411546,-0.06136267,0.006299314,0.7853428,-0.614247,-0.9267484,-24.96794,2.714863,1008.302
1.282906055,-0.4277058,-0.0729222,0.06031027,0.01063913,0.7872598,-0.6234307,-0.5550213,-24.23807,3.073596,1008.302
1.315183163,-0.3634445,-0.07280881,-0.0005129527,0.01306698,0.7853539,-0.6166787,-0.5543599,-24.60259,3.078212,1008.301
1.349943161,0.3803568,-0.2490211,0.1211414,0.009681012,0.7858282,-0.6166687,-0.5543599,-24.60259,3.078212,1008.301
1.382220268,0.1311642,0.04440311,0.2422805,0.006781986,0.7843632,-0.6181211,-0.5530367,-25.33162,3.087444,1008.301
1.416975975,-0.05484578,-0.1316421,-0.06306586,0.01018093,0.7785674,-0.6176779,-1.290848,-24.23492,2.711147,1008.301
1.449253082,-0.3641405,-0.07255004,-0.06290409,0.01160939,0.7872757,-0.6195652,-1.290848,-24.23492,2.711147,1008.301
1.481530189,-0.05344852,-0.2480498,-0.1235694,0.007748909,0.7824105,-0.6239355,-0.9164753,-24.96311,3.088344,1008.305
1.516290665,0.008817695,-0.129905,-0.06214331,0.006787354,0.7824307,-0.6171653,-0.9171368,-24.5986,3.083728,1008.303
1.548568249,-0.1767504,-0.1296701,0.120913,0.002911643,0.7843439,-0.62053,-0.9171368,-24.5986,3.083728,1008.303
1.583327770,0.00940188,-0.3640592,-0.0618667,0.009688274,0.7829262,-0.6162018,-0.9158137,-25.32763,3.092959,1008.301
1.615601063,0.1331941,0.1057399,0.05992266,0.008690201,0.7950119,-0.6190315,-0.9267484,-24.96794,2.714863,1008.301
1.650361061,0.07075268,-0.01157756,-0.001586576,0.004373287,0.7790183,-0.6224972,-0.9267484,-24.96794,2.714863,1008.301
1.682638168,0.008607328,-0.01154863,-0.001885823,0.007742085,0.785803,-0.6224659,-0.9177983,-24.23408,3.079112,1008.301
1.714915276,-0.2383699,0.1645883,-0.002107462,0.006779697,0.7853311,-0.6181156,-0.9171368,-24.5986,3.083728,1008.301
1.749675274,-0.2995306,0.1058993,0.1195156,0.01162127,0.7829269,-0.6176562,-0.9171368,-24.5986,3.083728,1008.301
1.781952381,-0.4225485,-0.3048443,0.05841289,0.01211424,0.7775919,-0.6215551,-0.5536985,-24.9671,3.082828,1008.301
1.816708565,0.0118389,-0.06933932,-0.06343822,0.006790267,0.7795108,-0.6220163,-0.5543599,-24.60259,3.078212,1008.303
1.848986149,0.197381,-0.1275754,-0.06298857,0.005822468,0.7804825,-0.6200749,-0.5543599,-24.60259,3.078212,1008.307
1.881263256,0.1347001,-0.1270923,-0.001752725,0.008728487,0.7805104,-0.6142797,-0.9267484,-24.96794,2.714863,1008.307
1.916022778,-0.2370721,-0.008944947,-0.1842996,0.008717542,0.781931,-0.6234569,-0.1789362,-24.96546,3.51304,1008.305
1.948299885,-0.2358336,0.0500153,-0.06233599,0.006784898,0.7814432,-0.6229721,-0.9164753,-24.96311,3.088344,1008.304
1.983059883,-0.1105014,-0.06689174,-0.06192839,0.01162162,0.7824396,-0.6186259,-0.9164753,-24.96311,3.088344,1008.304
2.015333176,0.3232977,-0.1251929,-0.0007735677,0.006776264,0.7867828,-0.6181074,-1.289525,-24.96395,2.720379,1008.304
2.050093174,0.5074108,-0.007514401,0.3034551,0.00726368,0.7858229,-0.6161801,-0.9177983,-24.23408,3.079112,1008.302
2.082370281,-0.1133054,-0.06659174,0.1198739,0.01112888,0.7858209,-0.6200559,-0.9177983,-24.23408,3.079112,1008.302
2.114647388,-0.422031,-0.1834863,-0.1847829,0.003876175,0.7867794,-0.6166508,-0.9260868,-25.33246,2.719479,1008.302
2.149407864,-0.2340832,0.05214847,-0.30614,0.007273147,0.7809754,-0.6186249,-0.5543599,-24.60259,3.078212,1008.302
2.181684971,0.1380323,-0.1821757,-0.1836986,0.008728799,0.7795343,-0.6167024,-0.5543599,-24.60259,3.078212,1008.3
2.216440677,-0.1100986,-0.06400739,-0.06135496,0.003402138,0.7824194,-0.6176414,-0.5759568,-24.97757,2.273621,1008.3
2.248717785,-0.0478511,-0.0635254,-0.060761,0.004841331,0.7872629,-0.617617,-0.9267484,-24.96794,2.714863,1008.299
2.283477783,0.1996508,-0.1220418,0.0003123274,0.002907814,0.7857941,-0.6210052,-0.9267484,-24.96794,2.714863,1008.297
2.315754890,0.3223566,0.05419608,0.06094565,0.007273938,0.7809787,-0.617658,-0.5543599,-24.60259,3.078212,1008.297
2.348031998,-0.1121118,-0.06302518,0.1217527,0.006789955,0.7804868,-0.6195934,-0.9274099,-24.60343,2.710248,1008.297
2.382791996,-0.4210405,0.1720071,0.1217724,0.009193034,0.7848311,-0.6248918,-0.9274099,-24.60343,2.710248,1008.297
2.415065288,-0.2339671,0.05480233,0.06069815,0.007285153,0.7780931,-0.6123565,-0.5646331,-24.60742,2.704732,1008.299
2.449825764,-0.2324153,-0.1798813,-0.0001648159,0.008236932,0.7838965,-0.6142594,-0.9171368,-24.5986,3.083728,1008.299
2.482102871,-0.2928391,-0.003352834,-0.1219502,0.008227566,0.7853237,-0.6215028,-0.9171368,-24.5986,3.083728,1008.299
2.516862869,0.3270163,-0.3551497,-0.06056974,0.004852338,0.7819331,-0.619581,-0.5652945,-24.2429,2.700116,1008.299
2.549139976,0.3872095,-0.1786247,0.0006561601,0.004350835,0.7891874,-0.6205056,-0.1922445,-24.24206,3.068081,1008.297
2.581417084,0.07628793,-0.06063824,0.06180435,0.0009787715,0.7858099,-0.6147163,-0.1922445,-24.24206,3.068081,1008.297
2.616172790,-0.1711835,-0.0603171,0.06151369,0.005827171,0.7800133,-0.6157266,-0.5536985,-24.9671,3.082828,1008.295
2.648449898,-0.2326536,-0.2360134,-0.1823085,0.007756339,0.781464,-0.6176562,-0.2025177,-24.24689,2.694601,1008.295
2.683209896,-0.1703587,0.1753892,0.2443692,0.007263242,0.7853324,-0.6181167,-0.2025177,-24.24689,2.694601,1008.295
2.715487003,0.510277,0.4092458,0.547694,0.00872651,0.7805022,-0.616697,-0.5646331,-24.60742,2.704732,1008.294
2.750247478,-0.3586406,0.05604268,0.1191069,0.01403359,0.7843774,-0.6200704,-0.9164753,-24.96311,3.088344,1008.297
2.782524586,-0.8519179,-0.3542027,-0.4287358,0.01016377,0.7858263,-0.6176366,-0.9164753,-24.96311,3.088344,1008.292
2.814797878,-0.6012695,-0.2943138,-0.3053932,0.01163659,0.7771263,-0.6157555,-0.9267484,-24.96794,2.714863,1008.292
2.849557877,-0.1052714,-0.4693508,-0.364802,0.006785857,0.7834018,-0.6161928,-0.5536985,-24.9671,3.082828,1008.292
2.881834984,-0.8478642,-0.2917709,-0.4238926,0.002419253,0.7872379,-0.6229297,-0.5536985,-24.9671,3.082828,1008.29
2.916594505,0.8879696,-0.05556909,0.0646139,0.01016861,0.7824256,-0.6215234,0.1609209,-24.61539,2.693701,1008.292
2.948872089,-0.6630071,0.3550611,0.6117651,0.004359637,0.7858031,-0.619558,-0.9274099,-24.60343,2.710248,1008.294
2.983632565,-1.772765,0.4123158,0.6090031,0.006784275,0.7833953,-0.6181266,-0.5639715,-24.97193,2.709348,1008.295
3.015905380,-1.579306,0.3519875,0.6673088,0.003876259,0.7877572,-0.6137446,-0.5639715,-24.97193,2.709348,1008.295
3.048182487,-1.448766,0.5852718,0.6043361,0.008230148,0.7877778,-0.6113366,-0.9260868,-25.33246,2.719479,1008.295
3.082942486,-2.122543,0.2892811,0.3582074,0.01015241,0.7916433,-0.6147029,-0.9267484,-24.96794,2.714863,1008.297
3.115219593,-1.989787,0.5221214,0.4174396,0.008225529,0.7892247,-0.6127788,-0.9267484,-24.96794,2.714863,1008.297
3.149979591,0.616745,0.2272732,0.2941655,0.008707367,0.787753,-0.6190729,-1.302834,-24.24056,2.275421,1008.299
3.182256698,3.213737,0.2853943,0.4758768,0.01065418,0.7829241,-0.6176541,-0.9387337,-24.97358,2.279137,1008.299
3.214529991,4.577157,0.4615027,0.6586989,0.01016058,0.7902111,-0.6089098,-0.9387337,-24.97358,2.279137,1008.299
3.249289512,4.26729,0.3440971,0.841521,0.01740767,0.7882519,-0.6219894,-0.9387337,-24.97358,2.279137,1008.299
3.281567097,2.532027,0.05058321,0.3539954,0.009688502,0.7809725,-0.6215307,-0.5659561,-23.87839,2.6955,1008.299
3.316327572,0.6728173,0.1679888,0.04929184,0.00968846,0.7804837,-0.6229838,-0.5659561,-23.87839,2.6955,1008.297
3.348604679,-1.434287,0.1679888,0.2930546,0.01065705,0.7795153,-0.6239583,-0.5550213,-24.23807,3.073596,1008.297
3.383364200,-2.239945,0.1679888,0.2321139,0.006788727,0.7799931,-0.6224969,-0.5530367,-25.33162,3.087444,1008.297
3.415637493,-2.67376,0.3440971,0.2321139,0.0116163,0.784861,-0.6181287,-0.5530367,-25.33162,3.087444,1008.297
3.447914600,-2.487839,0.4615027,0.3539954,0.01935413,0.7839103,-0.6196011,-0.5652945,-24.2429,2.700116,1008.297
3.482674599,-1.620208,-0.8299584,-0.9867001,0.01210613,0.7843997,-0.6118477,-1.652964,-24.59545,2.721279,1008.299
3.514951706,-0.07086667,-1.06477,-0.9867001,0.007760418,0.7829469,-0.6084625,-1.652964,-24.59545,2.721279,1008.299
3.549711704,0.1150543,-0.5364445,-0.4991745,0.001926594,0.7915968,-0.6214535,-0.9260868,-25.33246,2.719479,1008.299
3.581988811,-2.611787,0.1679888,0.1102325,0.003870016,0.7887086,-0.6185735,-0.9260868,-25.33246,2.719479,1008.301
3.616745472,-2.363892,0.2853943,0.3539954,0.006789206,0.7809724,-0.6191072,-0.9260868,-25.33246,2.719479,1008.301
3.649022579,-2.054024,0.2853943,-0.07258957,0.01501589,0.7819998,-0.6084835,-0.5633099,-25.33645,2.713964,1008.303
3.681299686,-0.5046823,0.1679888,0.04929184,0.02033596,0.7805533,-0.6114038,-0.5759568,-24.97757,2.273621,1008.308
3.716059208,0.7967646,-0.3016334,-0.4382338,0.01305984,0.7897223,-0.6127864,-0.5759568,-24.97757,2.273621,1008.31
3.748336792,1.478475,-0.6538501,-0.8648187,0.009668382,0.7906625,-0.6180915,-0.9267484,-24.96794,2.714863,1008.31
3.783096313,2.717948,-0.7712557,-0.8648187,0.00386548,0.7911332,-0.6171095,-0.9393952,-24.60906,2.274521,1008.312
3.815369606,3.027817,-0.6538501,-0.194471,0.002449738,0.7785682,-0.6108931,-0.9393952,-24.60906,2.274521,1008.312
3.850130081,2.036238,0.05058321,0.2930546,0.005343895,0.778547,-0.6196014,-0.9164753,-24.96311,3.088344,1008.31
3.882407188,0.4249226,0.109286,0.2930546,0.005803552,0.7857795,-0.6277797,-0.9267484,-24.96794,2.714863,1008.31
3.914684296,-1.806129,0.3440971,0.2321139,0.009198966,0.7848557,-0.61764,-0.9267484,-24.96794,2.714863,1008.31
3.949444294,-4.099155,-0.008119571,-0.194471,0.01112333,0.7901958,-0.6142298,-1.289525,-24.96395,2.720379,1008.308
3.981721401,-5.71047,-0.2429307,-0.07258957,0.01597277,0.7873356,-0.6055546,-0.2011948,-24.97592,2.703833,1008.308
4.016477108,-3.293497,-0.3603362,-0.3772931,0.01356652,0.7829783,-0.6041238,-0.9393952,-24.60906,2.274521,1008.308
4.048754215,-0.4427086,-0.4777418,-0.5601152,0.003404864,0.7819421,-0.6157104,-0.9393952,-24.60906,2.274521,1008.307
4.083514214,1.292554,-0.3603362,-0.7429373,-3.760273E-06,0.7901411,-0.6209742,-1.290187,-24.59944,2.715763,1008.307
4.115791321,1.416501,-0.008119571,-0.2554117,0.00435993,0.789225,-0.6093863,-0.9267484,-24.96794,2.714863,1008.307
4.148068428,0.54887,0.1679888,0.1711733,0.006296569,0.7902181,-0.6035836,-0.9267484,-24.96794,2.714863,1008.307
4.182828903,-0.1328403,-0.008119571,0.3539954,0.003868997,0.790659,-0.6142115,-0.5766184,-24.61305,2.269005,1008.308
4.215102196,0.362949,0.4615027,0.5368175,0.00531462,0.7921084,-0.6161401,-0.5652945,-24.2429,2.700116,1008.31
4.249862194,0.177028,0.7550166,0.9024618,0.009677663,0.7882577,-0.6137542,-0.5652945,-24.2429,2.700116,1008.312
4.282139301,1.106633,0.3440971,0.5368175,0.01551748,0.7757232,-0.6046528,-0.5752952,-25.34208,2.278237,1008.312
4.316899299,1.540449,-0.1255251,0.2930546,0.01355113,0.7878012,-0.6089308,-1.290187,-24.59944,2.715763,1008.31
4.349176407,0.7967646,-0.3016334,-0.1335303,0.01065928,0.7824565,-0.6128225,-1.290187,-24.59944,2.715763,1008.314
4.381453514,-0.4427086,-0.4777418,-0.5601152,0.01014801,0.7911363,-0.6214738,-0.5646331,-24.60742,2.704732,1008.308
4.416210174,-0.8145506,-0.4777418,-0.7429373,0.006297546,0.7877788,-0.6093987,-1.301511,-24.96959,2.284652,1008.31
4.448487282,-1.496261,-0.6538501,-0.5601152,0.002903757,0.7891979,-0.6161515,-1.301511,-24.96959,2.284652,1008.31
4.483246803,-0.5666559,0.3440971,0.7196397,0.002431344,0.7853333,-0.6137552,-0.9274099,-24.60343,2.710248,1008.31
4.515524387,0.1150543,0.9311249,1.207165,0.005327334,0.7882518,-0.6118112,-0.2018561,-24.61141,2.699216,1008.308
4.550283909,-0.7525769,1.400747,1.572809,0.003388717,0.7872506,-0.6200311,-0.2018561,-24.61141,2.699216,1008.308
4.582561016,-2.797708,1.752964,1.877513,0.006768193,0.7940794,-0.6069467,-0.5639715,-24.97193,2.709348,1008.31
4.614834309,-9.92468,4.21848,-0.6819966,0.01500952,0.7814847,-0.6176717,-0.5646331,-24.60742,2.704732,1008.31
4.649594307,-12.65152,4.394588,-1.413285,0.01789584,0.7868063,-0.6205483,-0.5646331,-24.60742,2.704732,1008.308
4.681871414,-13.51915,2.281289,-1.108582,0.01352728,0.8048058,-0.5890131,-0.5759568,-24.97757,2.273621,1008.308
4.716631889,-14.13889,3.514047,-1.717989,0.01694772,0.7775975,-0.6239827,-0.5999274,-24.98884,1.402167,1008.308
4.748908997,-17.1756,3.220533,-1.900811,0.01160883,0.7946033,-0.5992191,-0.5999274,-24.98884,1.402167,1008.308
4.781186104,-14.13889,3.455344,-1.535167,0.00773458,0.8043413,-0.5783676,-0.5992658,-25.35335,1.406784,1008.308
4.815941811,-13.76705,4.277183,-1.352344,0.01350706,0.8179161,-0.5758857,-0.9633658,-24.62033,1.403067,1008.308
4.848219395,-13.14731,4.21848,-0.5601152,0.01592072,0.8257248,-0.5584427,-0.9633658,-24.62033,1.403067,1008.308
4.882978916,-9.057048,3.279236,0.2321139,0.01542785,0.8369243,-0.53759,-0.600589,-24.62432,1.397552,1008.311
4.915256023,-1.99205,1.224639,0.841521,0.02801186,0.8272357,-0.5512085,-0.2497973,-24.63395,0.9563093,1008.311
4.950016499,4.26729,-0.06682235,0.5977582,0.01834596,0.8257629,-0.5492623,-0.6221859,-24.9993,0.5929604,1008.307
4.982294083,4.515184,-0.06682235,0.2930546,0.02510875,0.8242878,-0.5618547,-0.6221859,-24.9993,0.5929604,1008.307
5.014566898,5.196894,-0.5951474,-0.6210559,0.01786903,0.8199248,-0.5579964,-1.337467,-24.98649,0.9774718,1008.307
5.049326897,8.17163,-1.593095,-1.291404,0.02656168,0.8233241,-0.5618633,-0.9627044,-24.98485,1.407683,1008.305
5.081604004,12.07597,-2.708447,-2.69304,0.02028576,0.8174843,-0.5662339,-0.9627044,-24.98485,1.407683,1008.305
5.116364002,7.923736,-2.943259,-2.632099,0.01545163,0.814544,-0.5730084,-1.700905,-24.61799,0.9783716,1008.303
5.148641110,7.799788,-3.588989,-3.058684,0.0048146,0.8120742,-0.5788007,-0.5999274,-24.98884,1.402167,1008.303
5.183400631,11.02242,-3.765098,-2.936803,0.004793395,0.8183391,-0.5865001,-0.5999274,-24.98884,1.402167,1008.303
5.215673923,7.365973,-4.23472,-2.936803,0.009636864,0.8149654,-0.5865297,-0.950719,-24.97921,1.84341,1008.307
5.247951984,6.31242,-4.586936,-3.850913,-0.002923048,0.8105823,-0.5841104,-0.2018561,-24.61141,2.699216,1008.307
5.282711506,15.91834,-5.467478,-4.825965,-0.001464693,0.8037771,-0.5943044,-0.2018561,-24.61141,2.699216,1008.307
5.314989090,23.35518,-7.463373,-5.374431,0.002909149,0.7921523,-0.6011481,-0.9393952,-24.60906,2.274521,1008.307
5.349748611,25.15241,-8.167806,-5.983838,-0.00824393,0.7978539,-0.6228464,-0.9387337,-24.97358,2.279137,1008.307
5.382025719,26.94965,-7.522075,-6.227601,-0.01743621,0.7958526,-0.6344405,-0.9387337,-24.97358,2.279137,1008.307
5.416781902,21.61992,-9.752781,-5.861957,-0.008745836,0.7865371,-0.6775382,-0.2131801,-24.98156,2.268106,1008.307
5.449059009,20.31847,-15.68176,-7.507356,-0.02852489,0.7734782,-0.6587157,-0.1789362,-24.96546,3.51304,1008.307
5.481336117,10.96044,-17.91247,-9.335577,-0.0449401,0.7554554,-0.6795707,-0.1789362,-24.96546,3.51304,1008.307
5.516096592,15.17465,-18.32339,-10.18875,-0.06284516,0.7597449,-0.6838586,0.5326478,-23.88552,3.052434,1008.309
5.548373699,-9.490864,-16.32749,-12.74826,-0.08019143,0.7423573,-0.6592647,0.20715,-24.59366,4.374361,1008.309
5.583133697,5.506763,-11.33776,-7.933941,-0.08706584,0.7883275,-0.6541542,0.20715,-24.59366,4.374361,1008.311
5.615406513,94.62489,-30.82708,-22.25501,-0.1672665,0.6950435,-0.8387018,0.1845024,-25.33396,3.51214,1008.311
5.650166511,88.42752,-37.81271,-18.53762,-0.05170094,0.7613366,-0.6519667,0.5705881,-24.96217,4.373462,1008.313
5.682443619,34.57241,-7.40467,-12.50449,-0.08211488,0.7384869,-0.6573489,0.5705881,-24.96217,4.373462,1008.313
5.714720726,2.965843,-0.3016334,-7.873,-0.1370664,0.6413109,-0.7264313,0.9902565,-24.20975,6.475101,1008.313
5.749480724,14.24505,-2.532339,-8.604288,-0.1499898,0.5841585,-0.7301124,1.365019,-24.20811,6.905313,1008.311
5.781758785,10.34071,-5.995803,-7.01983,-0.1496079,0.6296738,-0.7226029,1.365019,-24.20811,6.905313,1008.313
5.816514492,6.436368,-6.465425,-6.593245,-0.1283289,0.6185077,-0.7512351,1.366342,-24.93714,6.914545,1008.313
5.848791599,4.391237,-6.054506,-6.288542,-0.1114351,0.6301588,-0.7545894,2.103881,-24.93948,7.339241,1008.313
5.883551598,2.594001,-3.119367,-8.055822,-0.1443748,0.6464365,-0.7785978,1.366342,-24.93714,6.914545,1008.311
5.915828705,-0.6906033,-4.939153,-7.385474,-0.1695036,0.6439859,-0.7664716,1.366342,-24.93714,6.914545,1008.313
5.948105812,1.23058,-5.29137,-7.385474,-0.1530731,0.6415477,-0.7858583,2.805464,-24.95873,6.456756,1008.314
5.982865810,-8.127443,-0.5364445,-12.07791,-0.1877502,0.5755619,-0.8074301,1.72978,-25.30564,6.913646,1008.313
6.015138626,4.639132,-9.517969,-10.55439,-0.1978438,0.5704095,-0.7484582,1.72978,-25.30564,6.913646,1008.313
6.049899101,17.6536,-20.20188,-7.446415,-0.2449928,0.7046217,-0.6596076,3.168902,-25.32723,6.455856,1008.311
6.082176685,-2.735734,-16.91452,-10.61533,-0.2019916,0.6909195,-0.7409959,2.443348,-25.31926,6.466887,1008.311
6.114453793,-19.46862,-14.03808,-9.762162,-0.1757648,0.6391844,-0.7500485,2.443348,-25.31926,6.466887,1008.313
6.149213314,-25.97586,-12.57051,-8.299585,-0.1660334,0.6350647,-0.6886961,3.180888,-25.3216,6.891583,1008.311
6.181490421,-27.71112,-8.637427,-9.518399,-0.1665142,0.6253012,-0.713406,3.157578,-25.69738,6.024746,1008.311
6.216246605,-13.70507,-9.870186,-5.740075,-0.1867771,0.6176149,-0.6795653,3.157578,-25.69738,6.024746,1008.311
6.248523712,2.965843,-9.870186,-3.485269,-0.1655639,0.6418492,-0.6862413,4.221277,-25.3561,5.13213,1008.313
6.283284187,1.912291,-2.884556,-2.022692,-0.1912187,0.6460626,-0.7064666,3.860485,-26.44566,5.151493,1008.313
6.315561294,-1.434287,-2.297528,-2.510218,-0.2497272,0.6283051,-0.7562356,3.860485,-26.44566,5.151493,1008.311
6.347838402,5.63071,-8.167806,-2.388336,-0.2516925,0.6486951,-0.7353276,3.8585,-25.35211,5.137645,1008.311
6.382598400,4.45321,-4.939153,-3.729032,-0.2352553,0.6550806,-0.721307,4.583393,-24.99557,5.121998,1008.311
6.414871693,-3.975207,-4.704342,-4.338439,-0.2647849,0.6680525,-0.7240703,4.583393,-24.99557,5.121998,1008.311
6.449631214,-2.054024,-8.285211,-2.327396,-0.24106,0.6584761,-0.7140236,4.211666,-25.72544,4.763266,1008.311
6.481908321,-9.057048,-2.062717,-3.668091,-0.2216764,0.634271,-0.7330571,4.583393,-24.99557,5.121998,1008.31
6.516668796,-9.862706,-1.416986,-2.449277,-0.2438357,0.6154965,-0.6852556,4.583393,-24.99557,5.121998,1008.31
6.548946381,-10.29652,-4.410828,-0.1335303,-0.258415,0.6542463,-0.6622823,4.57312,-25.0004,4.748518,1008.31
6.581223488,-18.53902,0.05058321,1.63375,-0.2324302,0.6894691,-0.7148328,4.186372,-25.00768,3.88258,1008.311
6.615979195,-47.48071,5.568644,4.437023,-0.2581028,0.7024046,-0.7316243,4.186372,-25.00768,3.88258,1008.311
6.648256302,-59.99939,2.163883,9.982627,-0.2818778,0.7469583,-0.70183,4.57312,-25.0004,4.748518,1008.315
6.683016300,-35.70572,-0.3016334,9.312279,-0.2851484,0.7273859,-0.6197497,4.501596,-24.30437,2.187172,1008.315
6.715293407,-11.41205,4.394588,7.179354,-0.2567325,0.7572958,-0.6713688,4.501596,-24.30437,2.187172,1008.315
6.750053883,14.67886,10.38227,0.3539954,-0.2682537,0.7668946,-0.5422112,4.128158,-25.03505,1.766192,1008.315
6.782330990,43.12478,11.84984,-2.388336,-0.2552752,0.7710104,-0.6239169,4.139481,-24.6649,2.197304,1008.315
6.814604282,36.92741,26.64294,-11.71226,-0.2717016,0.7558733,-0.6500732,4.139481,-24.6649,2.197304,1008.315
6.849363804,46.8432,32.74803,-24.26605,-0.4593467,0.7073255,-0.823016,3.777366,-25.02543,2.207435,1008.315
6.881641388,43.55859,-22.02166,-29.38507,-0.5148926,0.6873876,-0.8046389,4.174387,-25.01332,3.446854,1008.32
6.916400909,-49.83571,-30.76838,-32.1274,-0.287693,0.5309443,-0.7513896,4.561796,-25.37055,4.317407,1008.32
6.948678017,41.32754,49.88924,-12.38261,-0.2996757,0.4462731,-1.451381,4.561796,-25.37055,4.317407,1008.318
6.983438492,-13.27126,20.53785,-37.79488,-0.5036234,0.07289015,-1.218113,5.261395,-24.29625,3.421075,1008.318
7.015711784,72.62424,38.3835,-60.95235,-0.4872369,-0.08605723,-1.154272,6.339724,-25.4074,2.98265,1008.316
7.047988892,76.46661,35.68317,-84.29265,-0.5947977,0.07254554,-0.9568619,6.339724,-25.4074,2.98265,1008.315
7.082748890,68.16213,12.67168,-93.31187,-0.5417256,0.1880242,-0.7687454,5.978271,-26.13244,2.997397,1008.315
7.115025997,32.77518,11.73244,-111.3503,-0.5228385,0.2101874,-0.670522,7.432686,-27.97098,2.998414,1008.315
7.149785996,2.903869,-3.647692,-129.0841,-0.6186078,0.0774184,-0.4979994,7.432686,-27.97098,2.998414,1008.313
7.182063103,-11.10218,-22.43258,-127.2558,-0.6954098,0.2827313,-0.3946609,11.06508,-30.56247,2.97557,1008.313
7.216818809,-51.26111,-34.11443,-132.9843,-0.7202182,0.359748,-0.3521104,14.96357,-32.07984,1.689349,1008.315
7.249095917,-81.81413,-45.38537,-138.408,-0.7781061,0.3000457,-0.3561926,14.96357,-32.07984,1.689349,1008.315
7.281373024,-65.82492,-69.57091,-132.8015,-0.8725255,0.4018664,-0.2181136,18.90987,-33.239,-0.03813481,1008.313
7.316133499,-78.65347,-89.88206,-125.2448,-0.8716584,0.4713347,-0.1398869,22.10334,-32.57887,-2.64912,1008.315
7.348411083,-85.96636,-102.5619,-115.9818,-0.9190173,0.4356447,-0.2071857,22.10334,-32.57887,-2.64912,1008.315
7.383170605,-61.05295,-119.9966,-99.6497,-0.944925,0.5482727,-0.222443,25.56858,-33.0309,-6.433541,1008.315
7.415443897,-58.69795,-136.6095,-87.15686,-0.8600084,0.6435184,-0.1771246,27.31226,-33.08384,-9.013233,1008.315
7.450203895,-51.13716,-127.2757,-75.76095,-0.8398563,0.6634509,-0.3100004,27.31226,-33.08384,-9.013233,1008.315
7.482481003,-45.62151,-132.4416,-69.545,-0.8968607,0.6566702,-0.2635059,27.99291,-33.84258,-10.69569,1008.315
7.514758587,-32.54506,-123.871,-66.8636,-0.8479766,0.6086223,-0.3460691,28.02715,-33.82648,-9.450759,1008.315
7.549518585,6.932157,-112.4239,-57.96626,-0.9575083,0.6698219,-0.4726294,28.02715,-33.82648,-9.450759,1008.315
7.581795692,15.67044,-116.7679,-61.25706,-0.9988002,0.645018,-0.1884195,28.42087,-31.99179,-8.234421,1008.315
7.616551399,-4.656918,-97.45473,-61.80552,-0.9971542,0.5568931,-0.2048776,27.77287,-29.39357,-5.267859,1008.315
7.648828506,3.7715,-105.0274,-62.47587,-0.9440438,0.634414,-0.07934064,27.77287,-29.39357,-5.267859,1008.317
7.681106090,-25.10823,-80.66573,-72.10451,-0.9799358,0.4907245,-0.03850456,27.42612,-25.00412,-4.44628,1008.317
7.715865612,-33.90848,-83.83568,-71.12946,-0.955564,0.4129237,-0.02643005,27.39498,-21.06647,-5.36774,1008.317
7.748142719,-19.84047,-70.27534,-76.55318,-0.8901892,0.4095992,0.07976667,27.39498,-21.06647,-5.36774,1008.319
7.782903194,-22.19547,-47.14645,-80.81903,-0.9029481,0.2876463,0.08925296,25.17813,-17.778,-6.621123,1008.319
7.815176487,-24.05467,-32.76427,-77.772,-0.9773553,0.2368559,0.01564185,21.53467,-14.49114,-9.160544,1008.319
7.849936485,-32.35914,-25.36772,-75.88283,-0.9654119,0.1679225,0.2274538,18.55027,-14.49787,-12.10426,1008.319
7.882213593,-65.70097,-5.115262,-74.23743,-1.071014,0.0437389,0.2284256,18.55027,-14.49787,-12.10426,1008.319
7.914490700,-61.73466,-0.4777418,-60.46483,-1.114395,-0.05207817,0.1221012,15.83553,-14.18754,-18.41943,1008.319
7.949251175,-72.88992,12.26076,-50.47055,-1.1364,-0.1317885,0.1811583,16.03631,-14.63251,-24.33377,1008.319
7.981528282,-82.61978,13.61093,-39.68405,-1.183653,-0.4025332,0.1526482,16.03631,-14.63251,-24.33377,1008.317
8.016284466,-17.98125,17.42661,-16.46564,-1.095881,-0.5576168,0.01089655,18.44336,-12.5337,-29.06857,1008.319
8.048561573,14.61689,11.61503,8.337228,-1.107456,-0.5399369,0.09707411,20.53188,-9.31563,-32.13105,1008.32
8.083321095,43.80649,-0.3603362,28.93518,-1.05231,-0.5504372,0.09351148,20.53188,-9.31563,-32.13105,1008.32
8.115598679,59.2999,-6.700236,43.13437,-1.018543,-0.5159814,0.09363461,23.02443,-9.000768,-33.85493,1008.324
8.147875786,58.06043,-15.09473,50.63008,-1.011904,-0.4348955,0.1680475,24.0423,-10.11125,-34.29244,1008.324
8.182636261,41.01767,-18.6756,49.59409,-1.017276,-0.3911507,0.2292211,24.0423,-10.11125,-34.29244,1008.324
8.214909077,31.34978,-19.38004,44.90165,-0.9734373,-0.305209,0.2769922,24.06024,-13.38626,-33.81517,1008.324
8.249669075,10.77452,-16.73841,36.67466,-0.980409,-0.2322764,0.2416475,22.99906,-14.84992,-35.08826,1008.325
8.281946182,-6.206259,-14.3903,25.40062,-0.9654427,-0.2220694,0.2421567,22.99906,-14.84992,-35.08826,1008.325
8.316706180,-8.561259,-14.80122,16.3814,-0.9568512,-0.2034514,0.159576,21.17953,-17.38642,-35.40185,1008.325
8.348983288,-6.949943,-13.04014,9.43416,-0.9386132,-0.1580308,0.1240205,21.16887,-18.12109,-35.82835,1008.327
8.381260395,-8.189417,-15.27084,5.290192,-0.9246754,-0.1075213,0.1658534,21.16887,-18.12109,-35.82835,1008.327
8.416017055,-13.82902,-13.15754,3.34009,-0.9101661,-0.1147977,0.148377,19.69445,-18.48092,-36.67312,1008.329
8.448294163,-15.44034,-15.68176,2.547861,-0.9254677,-0.1805891,0.1678568,18.95757,-18.84309,-37.0932,1008.327
8.483054161,-9.366917,-14.62511,1.938454,-0.9336306,-0.2033425,0.172096,18.95757,-18.84309,-37.0932,1008.327
8.515331268,-5.462575,-19.67355,0.1102325,-0.93168,-0.2052235,0.1865843,19.29611,-17.764,-37.92177,1008.329
8.550090790,-0.194814,-16.91452,-7.568296,-0.8633864,-0.2299684,0.2525275,18.57055,-17.75602,-37.91074,1008.329
8.582368374,-5.958364,-10.1637,-18.3548,-0.8207567,-0.2505378,0.2871262,18.57055,-17.75602,-37.91074,1008.329
8.614641189,-19.84047,-5.173964,-26.76462,-0.8618386,-0.2359147,0.3530456,17.46826,-16.65614,-38.34377,1008.327
8.649401665,-33.41269,-10.33981,-32.79775,-0.9565073,-0.2635992,0.4033698,17.81706,-15.57222,-38.79886,1008.327
8.681678772,-50.45545,-18.26468,-36.51513,-1.003316,-0.3107399,0.3838651,17.81706,-15.57222,-38.79886,1008.327
8.716438770,-56.90071,-29.30081,-37.3683,-1.019254,-0.3292764,0.3538209,18.55129,-13.75198,-38.39724,1008.333
8.748715877,-88.32136,-18.6169,-37.42924,-0.9777701,-0.5807052,0.09511248,17.77554,-11.57864,-40.09457,1008.335
8.783475876,5.878604,-40.10212,-16.7094,-1.069812,-0.1966402,0.4088292,17.0315,-7.991895,-40.56465,1008.335
8.815749168,-48.78216,-26.07215,-20.06114,-1.03205,-0.2593834,0.2831804,17.0315,-7.991895,-40.56465,1008.336
8.848026276,-41.03545,-30.41616,-16.1,-1.020717,-0.3420379,0.3020236,15.19232,-7.25419,-41.41776,1008.336
8.882786751,-55.47532,-22.49128,-13.66237,-0.9691171,-0.2701441,0.3390625,13.73724,-5.051142,-41.42339,1008.336
8.915063858,-82.55781,-13.56846,-15.85623,-0.9588938,-0.302571,0.3291873,13.73724,-5.051142,-41.42339,1008.336
8.949823856,-95.57228,-3.941206,-17.98916,-0.9732045,-0.3887845,0.3190591,11.95667,-3.556232,-40.1071,1008.336
8.982100964,-98.23714,0.9311249,-16.4047,-0.9262825,-0.3993264,0.3101962,11.23847,-0.9910107,-39.69265,1008.335
9.016856670,-92.34965,4.746805,-16.16094,-0.9024422,-0.4602238,0.3126991,11.23847,-0.9910107,-39.69265,1008.335
9.049133778,-87.94952,12.73038,-19.32985,-0.8766897,-0.5290256,0.2658423,10.89266,1.939569,-38.91486,1008.335
9.081410885,-62.29242,15.1372,-14.69836,-0.9288969,-0.5349739,0.2683382,10.97021,4.529816,-35.95933,1008.339
9.116171360,-45.18769,14.55017,-6.958889,-0.9309812,-0.4549707,0.3161746,10.97021,4.529816,-35.95933,1008.339
9.148448467,-42.52282,7.212322,3.401031,-0.8577899,-0.3499937,0.2440979,11.01391,5.948859,-34.29636,1008.337
9.183208465,-58.38808,4.21848,19.6722,-0.7895485,-0.2103205,0.1330707,10.69537,7.068129,-32.62403,1008.337
9.215481758,-104.9303,5.099022,34.90738,-0.7452275,-0.1683634,0.05296293,10.69537,7.068129,-32.62403,1008.337
9.247758865,-143.168,7.975459,43.6219,-0.7180277,-0.257699,-0.0568608,11.10609,7.086679,-30.88664,1008.339
9.282518864,-146.1428,0.5202054,66.5356,-0.8020201,-0.2632045,0.1033071,11.88589,9.293161,-28.80898,1008.337
9.314795971,-139.6975,-1.123472,70.55769,-0.8811949,-0.3445143,0.02421494,11.88589,9.293161,-28.80898,1008.337
9.349556446,-148.1259,-25.95475,85.5491,-0.9051805,-0.4381029,-0.01203997,13.74005,12.5756,-27.19744,1008.337
9.381833553,-105.4881,-26.42437,77.13928,-0.7548618,-0.3949349,0.03284132,15.99493,14.7774,-24.27039,1008.337
9.416589260,-45.80743,-17.79506,56.0538,-0.7567503,-0.4343335,-0.02490784,15.99493,14.7774,-24.27039,1008.337
9.448866367,-7.197838,-20.43669,40.69674,-0.9129915,-0.3309252,0.2056503,17.45366,16.22434,-23.93743,1008.337
9.481143951,34.57241,-7.815589,30.09306,-0.909885,-0.436108,0.1523507,18.90345,16.93741,-23.96873,1008.335
9.515904426,77.52016,14.43276,6.265244,-1.097328,-0.3045223,0.15592,18.90345,16.93741,-23.96873,1008.335
9.548181534,107.8253,16.83958,2.791624,-1.235986,-0.05432014,-0.1512758,19.60674,16.91897,-24.78896,1008.335
9.582941055,42.44307,12.02595,-15.49059,-1.001839,-0.09766234,-0.1442919,20.68507,15.80783,-25.22739,1008.337
9.615214348,99.64475,25.17537,-37.91677,-1.055006,-0.08696486,-0.08417008,20.68507,15.80783,-25.22739,1008.335
9.649974346,58.92806,29.04976,-29.87259,-0.728934,-0.08096521,0.1254571,20.64149,14.32803,-26.88959,1008.337
9.682251453,73.05805,22.24023,-17.68445,-0.5707321,0.07859917,0.09605023,21.00625,13.23049,-26.88125,1008.337
9.714528561,-40.53967,20.00953,-12.87014,-0.9049125,-0.0114558,0.3655338,21.00625,13.23049,-26.88125,1008.337
9.749289036,-32.9169,0.4027999,21.56136,-0.9767502,-0.2204285,0.02174236,21.72114,12.48785,-27.31878,1008.337
9.781566143,-122.2829,8.621189,21.19571,-1.415579,-0.8001484,0.3988913,22.46697,13.58388,-26.53445,1008.335
9.816321850,-3.479418,-60.8242,11.01862,-1.369546,-0.8543947,-0.2256358,24.60317,15.75898,-25.72287,1008.339
9.848599434,72.9341,-30.24005,26.37568,-0.9598172,-0.1549087,-0.365156,24.60317,15.75898,-25.72287,1008.339
9.883358955,18.8311,-15.97528,17.47833,-0.9761296,-0.3410491,-0.1583006,24.5543,17.19531,-27.42199,1008.341
9.915636063,53.59833,-8.343914,23.69428,-0.9165604,-0.3756777,-0.145573,24.15689,16.45337,-28.71442,1008.341
9.947913647,52.79267,-2.356231,19.55032,-0.9507535,-0.1558357,0.06798027,24.15689,16.45337,-28.71442,1008.339
9.982674122,26.39189,7.329728,13.63907,-1.005261,-0.1798739,0.1607813,24.52297,14.6268,-28.69686,1008.341
10.014946938,37.98096,8.856,9.677923,-1.067501,-0.238122,0.1610677,23.79045,12.80737,-29.03623,1008.339
10.049706936,62.89437,4.688103,10.16545,-1.09614,0.01344723,0.1644936,23.79045,12.80737,-29.03623,1008.339
10.081984043,28.74689,3.57275,7.057473,-1.157876,0.106723,0.03801261,24.88077,11.70185,-29.03893,1008.339
10.116744518,-14.01494,-1.7105,-1.047641,-1.035249,-0.2386322,-0.01691017,25.22354,9.4995,-29.8882,1008.345
10.149021626,-0.3187613,-0.4777418,-5.008787,-0.9511316,-0.1944941,0.08468163,25.22354,9.4995,-29.8882,1008.343
10.181298733,3.833474,-2.649745,-6.16666,-1.008462,-0.08974297,0.05639448,25.5983,9.501146,-29.45799,1008.345
10.216054916,-6.516128,-4.058611,-6.897949,-1.033175,-0.2874035,0.01229781,25.96042,9.861673,-29.46812,1008.345
10.248332023,4.143342,-8.872239,-6.044779,-1.016276,-0.2522764,0.08207629,25.96042,9.861673,-29.46812,1008.345
10.283092022,9.101234,-6.289317,-5.801016,-0.9946589,-0.1975843,0.06638721,25.23288,10.9632,-29.47094,1008.345
10.315369129,-2.67376,-5.643587,-4.704083,-0.9676026,-0.1673018,0.125964,25.58367,10.95358,-29.91218,1008.345
10.350129604,-7.693627,1.576855,-2.449277,-0.9770921,-0.2506291,0.1066566,25.58367,10.95358,-29.91218,1008.345
10.382406711,1.788343,6.801403,0.9024618,-0.9839401,-0.2201872,0.09910942,25.23288,10.9632,-29.47094,1008.345
10.414680004,2.594001,8.679892,3.705734,-0.9956059,-0.2038569,0.07263827,24.8701,10.96719,-29.46543,1008.345
10.449439525,0.7967646,10.44098,4.619844,-0.9893219,-0.2106892,0.05034771,24.8701,10.96719,-29.46543,1008.343
10.481716633,-6.640075,12.61298,4.619844,-0.9898756,-0.1787284,0.05729878,25.2209,10.95756,-29.90667,1008.343
10.516477108,-9.490864,13.25871,4.863607,-0.9816414,-0.1859769,0.0533723,25.22156,10.59305,-29.90205,1008.343
10.548754692,-9.304943,13.61093,5.412074,-0.9859885,-0.1962321,0.02963487,25.22156,10.59305,-29.90205,1008.345
10.581031799,-12.27968,12.67168,5.10737,-0.9956085,-0.2243915,0.01064138,25.98069,10.96569,-28.67276,1008.345
10.615787506,-3.727313,15.1372,4.741726,-0.9836326,-0.1696042,0.03123151,26.35546,10.96733,-28.24255,1008.345
10.648064613,-7.817575,17.07439,5.10737,-0.992284,-0.2041076,-0.004237054,26.35546,10.96733,-28.24255,1008.345
10.682824612,-13.02336,19.4812,6.630888,-1.003936,-0.182346,0.00122962,26.73022,10.96898,-27.81234,1008.343
10.715101719,-8.685206,17.2505,8.215346,-1.004407,-0.1945111,-0.01817608,27.45577,10.961,-27.82337,1008.343
10.749862194,-5.276654,16.72217,11.68897,-1.001497,-0.202285,-0.02982909,27.45577,10.961,-27.82337,1008.342
10.782139301,-3.603365,17.07439,14.37036,-1.000137,-0.1679596,-0.04075594,27.46643,11.69567,-27.39688,1008.342
10.814412594,-11.04021,17.19179,14.4313,-0.994422,-0.1277474,-0.03183771,28.56741,11.32482,-26.97308,1008.343
10.849172115,-11.10218,17.3679,14.12659,-0.9948882,-0.1374503,-0.03866002,28.95311,10.96678,-26.16477,1008.347
10.881449699,-1.868103,13.37611,12.90778,-0.9998329,-0.08562973,-0.02240124,28.95311,10.96678,-26.16477,1008.346
10.916209221,-6.454154,15.1959,12.90778,-1.012324,-0.1571652,-0.129621,29.67734,11.68783,-26.18504,1008.347
10.948487282,5.444789,10.67579,10.10451,-1.034656,-0.1307175,-0.1603626,30.42885,10.59758,-25.31077,1008.347
10.983246803,-5.276654,6.507889,9.068516,-0.9973124,-0.1497012,-0.0817505,30.42885,10.59758,-25.31077,1008.347
11.015520096,3.151764,1.752964,6.691829,-1.031371,-0.05244483,-0.05646873,30.41686,10.59195,-25.74649,1008.347
11.047797203,-14.51073,-1.006067,3.766675,-1.029414,-0.07287077,-0.0880126,31.52982,10.22673,-24.88697,1008.349
11.082557201,4.019395,-5.760992,1.755632,-1.017217,-0.1334731,-0.1314095,31.52982,10.22673,-24.88697,1008.347
11.114834309,-2.487839,-5.173964,0.2930546,-0.9960143,-0.07947175,-0.06491707,30.79228,10.22908,-25.31167,1008.347
11.149594784,-9.366917,-4.23472,2.913505,-1.015743,-0.119688,-0.06316946,31.1544,10.5896,-25.3218,1008.347
11.181871891,-7.507706,-3.471584,3.827616,-0.9867374,-0.1274527,-0.09421619,31.1544,10.5896,-25.3218,1008.347
11.216628074,-2.054024,-4.704342,3.279149,-1.007119,-0.08627363,-0.06348149,30.41752,10.22743,-25.74188,1008.346
11.248905182,-1.496261,-4.939153,0.7196397,-0.9887336,-0.1042591,-0.1027819,30.79228,10.22908,-25.31167,1008.346
11.281182289,-3.603365,-4.117314,-1.291404,-1.031322,-0.07814217,-0.07111811,30.79228,10.22908,-25.31167,1008.344
11.315941810,-3.16955,-5.115262,0.5368175,-1.041382,-0.1237162,-0.08779247,31.13109,10.21382,-26.18863,1008.344
11.348219871,1.540449,-5.584884,0.3539954,-0.975646,-0.1011577,-0.05541549,30.05474,10.23142,-25.73636,1008.344
11.382979870,-1.31034,-2.532339,0.04929184,-1.007567,-0.1042082,-0.07180096,30.05474,10.23142,-25.73636,1008.344
11.415252685,-2.363892,-2.12142,-0.194471,-0.9902369,-0.07369553,-0.07891639,30.41818,9.862915,-25.73726,1008.35
11.450012684,-9.92468,-0.2429307,0.2321139,-1.007088,-0.08810125,-0.03158499,30.41818,9.862915,-25.73726,1008.35
11.482289791,-5.524549,0.1679888,0.3539954,-0.9876702,-0.1297572,-0.05941969,30.41818,9.862915,-25.73726,1008.35
11.514566898,2.40808,-0.5951474,-0.1335303,-0.9916131,-0.09538145,-0.05099728,29.69197,10.23541,-25.73085,1008.35
11.549327373,4.019395,-1.06477,-2.022692,-0.9902095,-0.07651392,-0.05379366,30.40488,10.58631,-26.18222,1008.348
11.581604957,0.4249226,-0.2429307,-1.717989,-1.025476,-0.08234335,-0.03054574,30.40488,10.58631,-26.18222,1008.348
11.616360664,-4.470997,0.109286,-0.07258957,-1.020594,-0.1202561,-0.08395009,30.40422,10.95083,-26.18683,1008.346
11.648637772,-4.53297,-0.3016334,-1.717989,-1.003699,-0.1125059,-0.09602841,30.40488,10.58631,-26.18222,1008.346
11.683398247,-20.21231,2.868316,-5.740075,-1.051237,-0.04240781,-0.07667328,30.40488,10.58631,-26.18222,1008.346
11.715675354,-45.18769,5.803455,-4.947846,-1.031796,-0.08934435,-0.09196865,30.05409,10.59593,-25.74098,1008.349
11.747952461,-51.63295,5.862158,-4.765024,-1.030139,-0.202835,-0.1680339,30.05276,11.32497,-25.75021,1008.345
11.782712460,-26.16178,2.5161,-4.39938,-0.9818093,-0.1720127,-0.1099502,30.05276,11.32497,-25.75021,1008.345
11.814985752,-10.29652,0.8137193,-5.069727,-1.000836,-0.07698731,-0.04168748,30.08673,12.43542,-24.45688,1008.345
11.849745274,-17.85731,0.4027999,-4.582202,-0.963736,-0.00999389,-0.01044645,29.73357,12.80875,-24.0825,1008.345
11.914299965,2.160185,-3.882503,-7.385474,-0.988692,-0.1084851,-0.06461438,29.7329,13.17327,-24.08711,1008.349
11.949060440,16.78597,-5.702289,-7.873,-1.065533,-0.1344252,-0.08586757,29.38146,13.5474,-23.65049,1008.349
11.981337547,22.92136,-10.39851,-7.080771,-1.024983,-0.1096697,-0.09790016,30.09502,13.53379,-24.09724,1008.349
12.016093254,1.602422,-7.698183,-12.38261,-1.014337,-0.1076527,-0.08292504,30.09502,13.53379,-24.09724,1008.349
12.048370361,9.597024,-9.400564,-12.74826,-1.091054,-0.1839034,-0.09914673,28.99339,14.26916,-24.52566,1008.347
12.083130837,9.163208,-12.15959,-8.543347,-1.044258,-0.1294841,-0.07379935,28.25822,13.90779,-24.88349,1008.349
12.115407944,-10.91626,-10.80943,-5.740075,-0.9090912,-0.2497097,-0.1081315,28.25822,13.90779,-24.88349,1008.349
12.147685528,10.8365,-6.582831,-0.3163524,-0.8774925,-0.2792204,0.0105585,28.63364,13.54492,-24.44866,1008.347
12.182445049,23.2932,-4.763045,3.766675,-0.9393318,-0.08717152,0.04272383,27.8828,14.27066,-25.31832,1008.347
12.214718342,6.684262,-0.06682235,4.19326,-0.889643,-0.06112303,-0.02394969,27.8828,14.27066,-25.31832,1008.347
12.249478340,5.258868,-8.813536,-3.363388,-1.164673,-0.08150173,0.05000987,28.22292,13.52637,-26.18605,1008.349
12.281755447,25.52425,-6.817642,-7.01983,-1.173457,-0.1360977,-0.2026366,27.88478,13.17711,-25.30447,1008.349
12.316515922,5.692684,-9.576673,-16.83129,-1.027668,-0.2280153,-0.1749506,27.88478,13.17711,-25.30447,1008.349
12.348793030,28.74689,-30.94448,-18.96421,-1.068908,-0.08748304,0.06040512,27.88478,13.17711,-25.30447,1008.349
12.381070137,12.26189,-22.43258,-17.44069,-0.9281779,-0.1060637,0.02760577,27.13393,13.90285,-26.17412,1008.348
12.415825844,-9.490864,-17.79506,-18.23292,-1.146591,-0.2033131,-0.06771388,27.13393,13.90285,-26.17412,1008.348
12.448102951,-14.20086,-27.89194,-15.55153,-0.8837949,-0.2299505,0.1321953,26.02466,13.17532,-26.95755,1008.348
12.482863426,-4.842839,-13.74457,-9.944984,-0.7855929,-0.2632132,0.08683476,25.27514,13.17203,-27.81798,1008.344
12.515141010,8.667418,-12.2183,-10.98098,-1.011294,-0.1187821,0.05768578,25.27514,13.17203,-27.81798,1008.348
12.549900532,-13.82902,-12.10089,-12.26073,-1.245061,-0.2556546,-0.007369426,24.56157,13.18564,-27.37122,1008.348
12.582177639,7.737814,-17.61895,-13.35766,-0.9562439,-0.2962735,0.04302165,23.88317,13.91635,-27.80606,1008.349
12.614450931,13.74926,-6.113209,-16.28282,-0.9176966,-0.222939,0.08783191,23.88317,13.91635,-27.80606,1008.349
12.649211407,5.878604,-4.23472,-16.95317,-0.9003711,-0.1474855,0.2047323,23.1563,14.65336,-27.80427,1008.349
12.681488514,-10.73034,4.570697,-20.91431,-1.414923,-0.2181028,-0.06383558,23.15828,13.55981,-27.79042,1008.349
12.716248512,-3.107576,-5.643587,-23.71758,-1.000246,-0.3105676,0.003393239,23.15828,13.55981,-27.79042,1008.349
12.748525619,3.957421,5.862158,-23.77852,-0.8518052,-0.2637522,0.1266164,22.79352,14.65734,-27.79875,1008.348
12.783285618,-5.214681,3.455344,-17.44069,-0.7236906,-0.1921443,0.3003019,22.07995,14.67096,-27.35199,1008.348
12.815559387,-20.89402,5.509942,-12.62638,-0.7681015,-0.2496224,0.2270716,22.07995,14.67096,-27.35199,1008.348
12.847836494,-22.75323,10.55838,-8.238645,-0.9478054,-0.4023647,0.002758267,21.71717,14.67494,-27.34648,1008.348
12.882596493,-5.02876,7.740647,-3.729032,-1.040124,-0.4381422,-0.0523582,22.08995,15.77014,-26.93011,1008.348
12.914873600,9.473077,4.277183,-0.3772931,-1.01135,-0.3256748,-0.01842347,22.463,15.77098,-26.56215,1008.348
12.949633121,1.850317,0.2266915,-0.4991745,-0.8953668,-0.2850656,0.01443129,22.463,15.77098,-26.56215,1008.352
12.981910706,-12.40363,-3.765098,1.572809,-0.8996498,-0.3072716,0.03413525,22.08863,16.49917,-26.93934,1008.352
13.016666889,-16.12205,-8.872239,2.425979,-0.9266912,-0.3164798,0.05299528,22.09957,16.13948,-26.56125,1008.352
13.048943996,-9.862706,-14.15549,-0.194471,-0.9111991,-0.3383482,0.01271214,22.09957,16.13948,-26.56125,1008.352
13.081221581,-7.755601,-11.63127,-2.997743,-1.016716,-0.3185556,-0.05511276,22.11155,16.14512,-26.12552,1008.353
13.115981102,-4.285076,-9.694077,-4.46032,-0.9952646,-0.3685907,0.0132048,21.74679,17.24265,-26.13385,1008.355
13.148258209,26.20597,-8.696131,-5.25255,-0.8031698,-0.3826637,0.1248685,21.74679,17.24265,-26.13385,1008.355
13.183018684,6.932157,-1.945311,-3.485269,-0.697338,-0.324477,0.2124737,21.74811,16.51362,-26.12462,1008.357
13.215291977,-14.75863,10.79319,5.838659,-0.8894448,-0.3080106,0.09308857,21.72585,16.50316,-26.93383,1008.357
13.250051975,17.96347,17.89623,6.082421,-1.04906,-0.2915522,0.08675802,21.72585,16.50316,-26.93383,1008.357
13.282329082,26.02004,8.092864,10.34827,-1.088345,-0.2134749,0.1689878,21.35109,16.50151,-27.36404,1008.357
13.314606190,-3.541392,9.853948,15.16259,-1.128031,-0.2210617,0.1056997,21.72585,16.50316,-26.93383,1008.357
13.349366665,9.906892,-3.530286,17.7221,-1.142125,-0.1891478,0.1102625,21.72585,16.50316,-26.93383,1008.361
13.381643772,-18.1052,-10.80943,7.118413,-1.167811,-0.3140227,0.2681757,21.71453,16.13301,-27.36494,1008.361
13.416399956,-25.41809,-30.12264,-7.690178,-1.231281,-0.6943263,0.1965349,23.14233,15.74127,-28.25384,1008.361
13.448677063,11.82808,-51.60786,-20.91431,-1.149072,-0.6794048,0.2462368,23.14233,15.74127,-28.25384,1008.361
13.483436584,58.68017,-75.67599,-24.02229,-1.054478,-0.4282683,0.1604419,21.66764,16.47579,-29.05021,1008.361
13.515713692,56.51109,-79.31557,-22.62065,-0.9380366,-0.1791454,0.1761106,19.43171,16.10703,-31.19114,1008.361
13.547991753,44.4882,-65.69652,-18.65951,-0.8910989,-0.237023,0.05046973,19.43171,16.10703,-31.19114,1008.359
13.582751751,56.07727,-53.13414,-5.618194,-0.8076244,-0.1881692,-0.02678259,16.4377,15.73096,-34.50372,1008.359
13.615024567,55.02372,-35.17109,11.93273,-0.7981325,-0.1048321,-0.00457446,12.01749,13.92324,-36.96657,1008.358
13.649784565,81.73437,-30.65097,16.80799,-0.8415658,-0.06746212,0.2069943,12.01749,13.92324,-36.96657,1008.362
13.682061672,29.30465,-7.991697,26.74132,-0.7813105,-0.2063141,0.1659496,9.495588,12.10618,-38.58646,1008.36
13.714338779,21.1861,23.12078,23.2677,-0.8970199,-0.36356,0.1295304,8.037787,9.200373,-38.9632,1008.36
13.749099255,87.74581,-3.119367,37.52783,-0.9465966,-0.2176683,0.2397239,8.037787,9.200373,-38.9632,1008.358
13.781376362,75.04121,14.08055,30.21494,-0.867135,-0.2993631,0.1984793,8.027786,8.101192,-39.38508,1008.358
13.816132545,108.9408,1.752964,50.02067,-0.8137717,0.05569807,0.2554952,9.483415,5.59438,-39.3756,1008.357
13.848409653,95.30659,11.79114,60.44153,-0.729835,0.3003738,0.1285942,9.483415,5.59438,-39.3756,1008.355
13.883170128,100.0786,15.1959,2.304098,-1.065336,0.2905054,0.7852875,9.851483,2.674266,-39.34419,1008.353
13.915447235,-386.6626,90.74638,-22.49877,-1.044582,-1.4372,-0.1199093,10.9106,-1.335439,-38.43759,1008.353
13.947724342,294.8618,-90.17558,-0.194471,-1.141502,0.06407499,1.006063,12.37237,-0.6167269,-38.03315,1008.353
13.982484341,-80.88452,-19.38004,22.59735,-0.7899045,0.7067622,0.5767648,12.37237,-0.6167269,-38.03315,1008.353
14.014757633,-94.39478,-38.75195,2.669742,-0.878108,0.1360422,0.4567177,12.34906,-0.9925122,-38.89999,1008.353
14.049518108,-64.4615,-28.83118,0.2321139,-0.8685237,-0.07632466,0.3278617,10.15909,-0.2451839,-39.31186,1008.351
14.081795216,-81.38031,-20.43669,-3.789973,-0.88452,-0.3349919,0.1238646,10.15909,-0.2451839,-39.31186,1008.351
14.116554737,-40.84953,-20.14317,-3.424328,-0.9970804,-0.301158,0.3500655,9.12593,2.682242,-39.33316,1008.351
14.148832321,-22.93915,-15.62306,-4.765024,-0.9375382,-0.1351023,0.3204247,8.361501,5.225732,-40.59937,1008.354
14.181109428,-14.20086,-7.287264,-8.604288,-0.9354495,-0.1720841,0.4014276,8.361501,5.225732,-40.59937,1008.354
14.215865612,11.33229,-9.283158,-2.510218,-0.9498909,-0.1694127,0.4880095,7.994865,7.356062,-40.62078,1008.354
14.248143196,2.965843,-9.811483,1.207165,-0.8761206,-0.09482523,0.4442816,7.60878,6.984265,-41.48211,1008.352
14.282902717,-2.177971,-8.402617,-1.83987,-0.8668474,-0.1315825,0.4426023,7.60878,6.984265,-41.48211,1008.352
14.315179825,-0.6906033,-8.813536,-6.715127,-0.8392625,-0.1470467,0.4255346,7.232695,7.711652,-41.92155,1008.352
14.349939823,1.912291,-5.350072,-8.360526,-0.8763613,-0.2008397,0.4340106,6.497529,7.350283,-42.27938,1008.354
14.382216930,13.25347,-2.649745,-10.98098,-0.8932636,-0.2276745,0.3836168,6.497529,7.350283,-42.27938,1008.354
14.414490700,28.56096,-0.8886613,-14.27177,-0.9078172,-0.2010344,0.4031372,6.859644,7.710811,-42.28951,1008.354
14.449393272,20.75228,0.5202054,-15.00306,-0.9074088,-0.1744678,0.3883008,6.472897,7.703529,-43.15545,1008.354
14.481670380,18.27334,-2.532339,-14.21083,-0.9208868,-0.2069936,0.3692908,6.472897,7.703529,-43.15545,1008.354
14.516430378,19.94662,-7.815589,-9.762162,-0.914667,-0.1544738,0.4396746,5.748004,7.346991,-43.1398,1008.355
14.548707485,13.93518,-5.350072,-7.751119,-0.8743875,-0.1996927,0.4852574,5.761974,6.259078,-42.69023,1008.358
14.583467960,22.98334,3.631453,-10.06686,-0.8457935,-0.2452774,0.4327252,5.761974,6.259078,-42.69023,1008.358
14.615741253,42.3811,13.31741,-14.4546,-0.8723413,-0.2661705,0.4302464,6.476205,5.88095,-43.13237,1008.358
14.648018360,52.79267,22.06413,-17.19693,-0.8884275,-0.2154413,0.4194504,5.72668,5.877659,-43.99279,1008.358
14.682778358,41.69938,30.86954,-19.57362,-0.9093974,-0.1219223,0.4732056,5.72668,5.877659,-43.99279,1008.358
14.715055466,44.30228,31.92619,-18.23292,-0.9085736,-0.06485041,0.4633761,6.094367,4.112649,-43.91375,1008.356
14.749815941,36.80346,30.63473,-11.65132,-0.9468939,-0.001442129,0.5000771,7.546408,2.637827,-43.9796,1008.358
14.782093048,19.38886,29.9303,-7.507356,-0.9474486,0.02269558,0.4832952,7.546408,2.637827,-43.9796,1008.358
14.814366341,7.242025,35.33095,-6.837008,-0.9540322,-0.08112855,0.4106867,8.286592,1.177422,-43.53644,1008.358
14.849125862,13.06755,46.48448,-8.969933,-1.038469,-0.1866499,0.3314682,9.376246,0.4364243,-43.54375,1008.362
14.881402969,37.05136,52.17865,-13.35766,-1.128845,-0.2326484,0.2574353,9.376246,0.4364243,-43.54375,1008.36
14.916163444,81.36253,59.75131,-10.49345,-1.226357,-0.1140354,0.2123932,11.14231,0.05826473,-43.13007,1008.36
14.948441029,103.6111,75.01404,0.4758768,-1.343586,-0.02826346,0.2034648,12.26687,-1.031149,-41.88783,1008.359
14.983200550,99.33488,93.50541,10.34827,-1.315824,-0.1162924,0.1932357,14.14426,-3.93985,-39.7621,1008.359
15.015473843,157.4042,81.53004,29.23989,-1.471508,-0.1699297,0.06225434,14.14426,-3.93985,-39.7621,1008.359
15.047750950,253.5254,44.7234,72.44685,-1.189433,0.4021946,0.147084,16.79769,-8.231299,-35.88679,1008.357
15.082510948,233.3839,80.12118,73.05625,-1.086914,0.5471172,-0.01474829,16.25802,-14.33799,-29.44813,1008.357
15.114788532,257.6776,96.85147,82.98959,-1.131791,0.6416392,-0.2161915,16.25802,-14.33799,-29.44813,1008.355
15.149548531,281.9713,112.5838,77.32211,-1.167147,1.070259,-0.2262476,14.73634,-21.4164,-19.18279,1008.359
15.181825638,116.6255,146.8075,48.49715,-1.091648,1.199757,0.2244074,16.53506,-26.01168,-6.820002,1008.359
15.216581344,-0.2567877,271.9619,65.43867,-0.6808833,0.09965242,-0.3101646,16.53506,-26.01168,-6.820002,1008.357
15.248858929,-31.9873,157.9611,70.80145,-1.584805,0.7700798,-0.3450133,19.30226,-30.67528,1.168972,1008.354
15.281136513,-5.338628,187.3125,92.80104,-1.103389,0.6959257,-0.2144938,21.19616,-36.0692,3.761978,1008.351
15.315896511,69.33963,170.9931,99.44358,-1.16712,0.4176491,-0.3097258,21.19616,-36.0692,3.761978,1008.349
15.348173618,-133.2523,164.1248,64.8902,-0.789113,0.3830739,0.02090192,19.99132,-42.67889,-0.8068914,1008.349
15.382933616,9.473077,109.3552,108.7066,-0.9806362,0.1683748,-0.05483907,16.28308,-42.67683,-3.677331,1008.345
15.415206432,87.37397,69.9656,110.5957,-0.6685894,0.4313191,0.3042116,16.28308,-42.67683,-3.677331,1008.342
15.449966907,34.94426,56.40525,94.6902,-0.5968814,0.2850274,0.05715491,14.8696,-37.90044,-2.034615,1008.339
15.482244015,41.45149,44.8408,75.85953,-0.4690305,-0.02210346,-0.003846482,12.04323,-35.27909,0.9027929,1008.335
15.514521599,81.85831,29.69549,63.48857,-0.3664742,-0.09199405,-0.1514303,12.04323,-35.27909,0.9027929,1008.335
15.549281120,46.03754,35.80058,36.61372,-0.3457772,-0.08060206,-0.2345616,11.09302,-32.7383,3.874719,1008.33
15.581558227,9.968865,27.9931,16.80799,-0.3739146,-0.338544,-0.4999251,9.358017,-30.85714,6.867058,1008.327
15.616314888,47.64886,2.222586,7.240295,-0.3549248,-0.2163136,-0.5756543,9.358017,-30.85714,6.867058,1008.327
15.648591995,42.31912,-14.62511,-9.213696,-0.3206086,-0.3013085,-0.8387187,8.662077,-28.28145,8.090713,1008.326
15.683351993,95.18265,-32.52946,-15.79529,-0.3352666,-0.29025,-0.990424,8.329964,-25.34443,9.366481,1008.324
15.715629101,101.442,-39.04547,-30.66483,-0.4095087,-0.1781656,-0.9823751,8.329964,-25.34443,9.366481,1008.324
15.747906208,88.11765,11.67373,-54.79734,-0.2389149,-0.389235,-2.293579,8.324011,-22.06379,9.324938,1008.322
15.782666683,169.551,8.738595,-24.75358,-0.6492353,0.6154655,-1.494625,8.320152,-19.93745,9.298012,1008.32
15.814939976,41.82333,-0.06682235,-43.03579,-0.8208728,0.4089384,-0.8887142,8.320152,-19.93745,9.298012,1008.32
15.849699974,-31.49151,-12.277,-68.63088,-0.8510074,-0.06028115,-0.6655513,8.71188,-17.00921,10.5005,1008.317
15.881977081,-69.66729,-19.08652,-43.40143,-0.6628169,-0.1756686,-0.8880278,10.17233,-15.56147,10.8957,1008.317
15.916737556,1.540449,-43.80039,-13.17484,-0.492749,0.3216083,-0.8038658,10.53577,-15.92998,10.8948,1008.317
15.949014664,-23.93073,-26.07215,-23.10818,-0.3893895,0.1572638,-0.8354797,10.53577,-15.92998,10.8948,1008.315
15.981291771,35.3161,-25.30902,-18.11104,-0.4209745,-0.01591912,-0.9335675,10.8859,-15.57508,10.44895,1008.319
16.016047478,23.2932,-21.96296,-7.446415,-0.4757394,0.05133488,-0.8905244,12.27588,-15.22585,10.42319,1008.318
16.048324585,14.61689,-20.37799,-1.291404,-0.5284681,0.07845782,-0.8390121,12.27588,-15.22585,10.42319,1008.318
16.083085060,0.4249226,-11.63127,-5.801016,-0.5861152,0.1340549,-0.8061813,12.27389,-14.13231,10.40934,1008.316
16.115362644,-14.20086,-9.517969,-0.01164887,-0.5975804,0.08182454,-0.7866326,12.99945,-14.14029,10.39831,1008.314
16.150122166,7.737814,-8.285211,3.522912,-0.6262468,-0.05902591,-0.7709348,12.99945,-14.14029,10.39831,1008.313
16.182399273,15.48452,-3.999909,11.38426,-0.5926537,-0.179663,-0.8408248,13.37487,-14.50315,10.83314,1008.311
16.214673519,24.34676,0.7550166,21.68324,-0.5912724,0.02915726,-0.9111894,12.99945,-14.14029,10.39831,1008.311
16.249433040,11.70413,0.637611,24.36463,-0.661748,0.02750621,-0.7674656,12.99945,-14.14029,10.39831,1008.309
16.281710148,-8.313364,-4.469531,32.46975,-0.625376,-0.01202147,-0.7527822,13.37421,-14.13864,10.82852,1008.313
16.316470146,-29.8802,-4.939153,41.24521,-0.5373574,-0.03663696,-0.8082238,13.37355,-13.77412,10.8239,1008.311
16.348747253,-36.63532,3.514047,46.18141,-0.5685067,0.009348402,-0.9210199,13.37355,-13.77412,10.8239,1008.313
16.381024361,-28.76467,-2.356231,49.28938,-0.5845247,0.06866804,-0.8244438,12.26389,-15.23149,9.987461,1008.31
16.415781021,-10.79231,-9.341861,43.98754,-0.5707516,0.1947277,-0.7652606,11.5174,-15.96301,9.198518,1008.31
16.482818127,-38.30861,-8.872239,41.24521,-0.6542152,0.2988253,-0.8215346,10.48086,-17.77992,8.801497,1008.31
16.515095711,-51.63295,-11.39646,38.25911,-0.539941,0.2450727,-0.786312,10.48152,-18.14444,8.806112,1008.31
16.549855709,-38.37059,-5.878397,32.22599,-0.5095304,0.2605783,-0.8061104,10.48152,-18.14444,8.806112,1008.31
16.582132816,-35.2719,-8.872239,27.89919,-0.5279589,0.3033065,-0.7482985,10.08477,-19.2509,7.518295,1008.31
16.614406109,-34.90006,-11.74868,25.2178,-0.5116478,0.3467973,-0.7804768,8.974844,-19.61391,6.730251,1008.312
16.649165630,-23.80678,-11.10294,21.98795,-0.4832082,0.3846236,-0.7808065,8.974844,-19.61391,6.730251,1008.312
16.681443691,-10.91626,-9.400564,19.42843,-0.5176918,0.4576855,-0.7546945,8.576773,-19.99134,5.433202,1008.31
16.716203690,-13.89099,-4.821747,12.84684,-0.5441864,0.4306602,-0.7103147,7.468059,-21.02264,4.65362,1008.31
16.748480797,-16.30797,-5.056559,12.84684,-0.5755975,0.4267415,-0.6976999,7.468059,-21.02264,4.65362,1008.31
16.783240318,-25.66599,-1.769203,10.89674,-0.6008274,0.4522146,-0.7279572,7.105391,-21.0794,4.659904,1008.309
16.815514564,-12.40363,-3.471584,10.40921,-0.5562733,0.4091313,-0.769874,7.456073,-21.02827,4.217893,1008.309
16.847791672,-1.000472,-2.180123,10.28733,-0.5900911,0.4228433,-0.6933399,7.456073,-21.02827,4.217893,1008.309
16.882551193,-0.008893002,-2.943259,10.77486,-0.5673123,0.3952703,-0.7094992,7.79554,-21.40805,3.34554,1008.307
16.914828300,-6.330207,-2.825853,10.71391,-0.546073,0.4191239,-0.6857208,7.070647,-21.76459,3.361187,1008.307
16.949588776,-12.03178,0.109286,8.885694,-0.5679961,0.4745808,-0.7245168,7.049051,-22.13956,2.556595,1008.307
16.981866360,-19.77849,1.752964,5.655837,-0.5548782,0.4392029,-0.7508519,7.049051,-22.13956,2.556595,1008.305
17.016622067,-26.71954,0.05058321,3.827616,-0.5582254,0.4364174,-0.7131523,7.048389,-21.77505,2.55198,1008.304
17.048899174,-22.38139,0.8137193,1.938454,-0.5548163,0.4096505,-0.7606888,6.323498,-22.13159,2.567626,1008.304
17.081176281,-8.685206,-3.412881,5.351133,-0.5688977,0.450416,-0.7145,6.323498,-22.13159,2.567626,1008.302
17.115936756,-3.417444,-6.113209,6.691829,-0.5447022,0.4598452,-0.6656712,6.672965,-21.41218,2.117153,1008.302
17.148213863,0.9826856,-4.645639,7.179354,-0.5239964,0.4825133,-0.7057124,7.025081,-22.15083,1.685142,1008.3
17.182973862,6.622289,-2.004014,5.8996,-0.5230234,0.4717894,-0.729464,7.025081,-22.15083,1.685142,1008.302
17.215247154,21.31005,-1.945311,5.04643,-0.5579205,0.5182633,-0.6948004,5.93675,-22.13887,1.701688,1008.3
17.250007629,25.46228,0.2853943,5.412074,-0.5343123,0.5551161,-0.692708,6.311512,-22.13722,2.1319,1008.298
17.282284736,16.41413,6.801403,1.877513,-0.5168825,0.5401084,-0.7092678,6.311512,-22.13722,2.1319,1008.298
17.314561844,20.81426,12.73038,0.6586989,-0.5473027,0.5235858,-0.7039783,5.948735,-22.13323,2.137415,1008.302
17.349321842,4.639132,26.46683,2.547861,-0.5561672,0.5307142,-0.8779566,6.322836,-21.76707,2.563011,1008.302
17.381598949,1.478475,17.66142,12.35931,-0.4664251,0.6019875,-0.9135193,6.322836,-21.76707,2.563011,1008.302
17.416355610,-4.34705,18.30715,28.63048,-0.2166486,0.6765713,-0.9643946,6.709193,-22.48963,3.375934,1008.304
17.448632717,-83.92123,32.57192,34.41985,0.1743181,0.6059614,-0.8539643,6.370387,-22.47437,4.252903,1008.304
17.483392238,-0.3187613,88.75049,64.40267,0.08201364,0.7075118,-1.083305,6.370387,-22.47437,4.252903,1008.302
17.515669346,-11.35007,89.51363,87.74297,0.02610879,0.7012824,-0.8748577,6.02092,-23.19378,4.703377,1008.304
17.547946930,-54.54571,121.8589,88.29143,-0.2615454,0.4998935,-0.7970657,5.705694,-23.89709,6.398785,1008.304
17.582707405,-51.38506,121.4479,91.0947,-0.4567583,0.4544673,-0.7562944,5.705694,-23.89709,6.398785,1008.31
17.614980221,-57.58242,120.5087,83.78181,-0.4686126,0.4026271,-0.6212008,4.994111,-24.97702,6.85939,1008.312
17.649740219,-41.34532,109.5313,71.53274,-0.4682822,0.2959999,-0.5270538,2.832081,-26.40552,7.346674,1008.312
17.682017326,10.5886,77.47955,65.74337,-0.4644706,0.3485521,-0.4450621,2.832081,-26.40552,7.346674,1008.312
17.716777801,21.80584,36.56371,46.30329,-0.4130345,0.5087044,-0.3533759,-0.4206538,-27.45835,7.783641,1008.312
17.749054909,3.461632,16.07644,29.66647,-0.2045693,0.4592033,-0.4285561,-1.8711,-27.80691,7.810319,1008.312
17.781332493,-17.05165,5.157725,8.093465,-0.1624077,0.3932505,-0.5054054,-1.8711,-27.80691,7.810319,1008.31
17.816088200,0.1150543,-17.44284,-13.96707,-0.07159944,0.4546754,-0.4491729,-2.900291,-27.06657,7.816714,1008.31
17.848365307,28.68491,-46.55942,-30.29918,-0.2314552,0.5052765,-1.233645,-3.28731,-25.9795,6.999175,1008.31
17.883125782,125.9836,-69.74702,-25.2411,0.2183028,0.1507139,-0.4259037,-1.478982,-24.14883,9.065825,1008.31
17.915402889,-54.97953,21.77061,13.15154,-0.08587514,0.9767644,-1.599175,-1.478982,-24.14883,9.065825,1008.313
17.947852135,-56.4669,3.220533,11.93273,0.04710621,0.5018836,-0.6135295,0.4105828,-20.54573,11.9807,1008.311
17.982612610,80.37094,-23.19572,26.43662,0.0373267,0.5307262,-0.6621717,-0.3610382,-21.59309,10.2619,1008.311
18.014885902,147.6743,-6.34802,-5.861957,0.008781061,0.3307578,-0.6700153,-0.3610382,-21.59309,10.2619,1008.309
18.049645424,70.20727,-8.578725,-3.485269,0.02783773,0.3750781,-0.8883187,-0.3034852,-21.2012,12.37367,1008.309
18.081923008,92.26989,-3.119367,4.2542,0.02805486,0.412092,-1.104689,-0.2478065,-19.77653,14.47237,1008.307
18.116683483,64.19582,4.805508,11.07956,0.05930657,0.3108225,-1.026532,-0.2478065,-19.77653,14.47237,1008.307
18.148960590,21.43399,3.103127,2.060335,0.044914,0.278023,-0.9826944,-0.2264819,-18.30719,15.32536,1008.307
18.181237697,-21.82362,-3.17807,-3.424328,0.01676531,0.3302923,-0.9571977,-0.5785966,-17.56854,15.75737,1008.307
18.215993404,-20.4602,-7.522075,-4.947846,0.01629747,0.3474593,-0.8889343,-0.5785966,-17.56854,15.75737,1008.309
18.248270511,-10.1106,-3.647692,-2.449277,0.03948023,0.3410593,-0.9407486,-1.326798,-18.30086,14.90618,1008.313
18.283030987,-8.933101,0.1679888,-0.4991745,0.03812262,0.296483,-0.9559857,-0.6019057,-17.94432,14.89053,1008.313
18.315308094,-4.223102,2.809614,0.1711733,0.0009056207,0.2896015,-0.9559446,-0.6019057,-17.94432,14.89053,1008.311
18.350068092,-14.32481,2.457397,-0.7429373,0.02117012,0.310977,-0.9486152,-0.5892589,-18.30321,15.33087,1008.311
18.382346153,-28.64073,0.6963138,-2.388336,0.03840063,0.3889688,-0.9395069,-0.5999212,-19.03787,14.90438,1008.311
18.414618969,-32.85493,0.4615027,-1.83987,0.04655551,0.4146208,-0.94518,-0.5999212,-19.03787,14.90438,1008.31
18.449378967,-38.37059,-0.947364,-1.657048,0.04373466,0.398331,-0.8945054,-0.2504525,-18.31846,14.4539,1008.308
18.481656074,-28.02099,-2.356231,-1.778929,0.0158005,0.352289,-0.891323,0.466151,-19.0603,14.07862,1008.308
18.516416550,-25.60402,-3.060664,-2.75398,0.02194564,0.3957033,-0.9374995,0.466151,-19.0603,14.07862,1008.308
18.548693657,-35.14796,-2.473636,-3.424328,0.02184399,0.4412172,-0.9299889,-0.6328419,-19.783,13.66867,1008.306
18.583453655,-45.74545,-1.769203,-3.972795,0.01694739,0.479555,-0.8939859,-0.2927127,-20.52729,12.80094,1008.305
18.615726948,-49.58782,-0.6538501,-4.643143,0.01599535,0.4845012,-0.8615653,-0.2927127,-20.52729,12.80094,1008.305
18.648004055,-50.02163,1.694261,-5.801016,0.02025573,0.5281147,-0.8473068,-0.306021,-19.80389,12.35598,1008.305
18.682764530,-39.91993,1.342044,-5.069727,0.01977682,0.5222685,-0.8584581,0.3871632,-20.86077,11.11309,1008.305
18.715041637,-39.36216,3.396641,-4.825965,-0.001992437,0.5197228,-0.8772797,0.3871632,-20.86077,11.11309,1008.307
18.749801636,-34.21835,3.044425,-2.510218,0.02213611,0.5645476,-0.8079451,-0.3370676,-21.58182,11.13335,1008.304
18.782078743,-32.66901,3.396641,-2.814921,0.02499198,0.5883126,-0.7947633,0.7272925,-21.60505,10.24535,1008.304
18.816835403,-31.9873,2.692208,-2.814921,0.02397077,0.6164285,-0.7796146,0.7272925,-21.60505,10.24535,1008.304
18.849112511,-24.48849,0.9898276,-1.900811,0.01767692,0.6134463,-0.7975053,-0.3590536,-22.68663,10.27575,1008.302
18.881389618,-19.46862,2.927019,-2.875862,0.02248959,0.6290032,-0.7805068,-0.04382873,-21.98333,8.58034,1008.302
18.916149139,-4.904812,0.9311249,-0.4382338,0.01963482,0.6135501,-0.7685026,0.3429189,-21.97605,9.44628,1008.302
18.948426723,4.825052,1.224639,-0.6210559,0.01239115,0.6091708,-0.7694788,0.3429189,-21.97605,9.44628,1008.302
18.983187199,41.26557,2.692208,2.182217,0.01677107,0.6039239,-0.7506639,-0.03118181,-22.34221,9.020683,1008.302
19.015460014,72.9341,1.987775,3.401031,0.02498255,0.5843641,-0.8175074,0.3309336,-21.98168,9.010552,1008.306
19.050220013,45.4178,-1.299581,2.425979,0.02506724,0.5485534,-0.8177112,0.3309336,-21.98168,9.010552,1008.306
19.082498074,29.24267,-5.995803,0.5368175,0.02070245,0.5504423,-0.8278432,-0.3483913,-21.95197,10.70224,1008.306
19.114775181,36.55557,-9.752781,-0.07258957,0.0120613,0.5252663,-0.8241003,0.3765011,-21.59543,10.6866,1008.304
19.149534702,24.09886,-6.758939,1.207165,0.01055557,0.5235679,-0.8956556,0.3765011,-21.59543,10.6866,1008.304
19.181811809,4.763079,-2.062717,0.1711733,0.009564419,0.5195561,-0.9362851,0.03637171,-20.85114,11.55433,1008.304
19.216568470,-33.53664,3.983669,0.7805803,0.01103202,0.5191419,-0.9169531,0.4105828,-20.54573,11.9807,1008.304
19.248845577,-53.49216,5.099022,2.791624,-0.01318416,0.5633805,-0.8368819,0.4105828,-20.54573,11.9807,1008.304
19.281122684,-49.52584,5.568644,-1.961751,0.03291548,0.5075006,-0.8005577,0.03515911,-20.18286,11.54587,1008.302
19.315882683,-48.72019,3.57275,-5.618194,0.02742967,0.5859588,-0.7773781,0.3645158,-21.60107,10.25087,1008.301
19.348159790,-36.63532,1.224639,-5.679134,0.03164443,0.6323154,-0.8104809,0.3645158,-21.60107,10.25087,1008.299
19.382920265,-31.73941,0.637611,-4.033736,0.02295598,0.6225808,-0.8197029,-0.01024675,-21.60271,9.820659,1008.299
19.415193558,-14.8206,-0.4777418,0.04929184,0.01720652,0.6193635,-0.7645968,-0.03184342,-21.97769,9.016068,1008.299
19.449979305,2.160185,-0.06682235,1.450928,0.01044581,0.6174264,-0.7592754,-0.03184342,-21.97769,9.016068,1008.297
19.482256412,9.844918,0.6963138,2.304098,0.01141964,0.6130592,-0.7636532,0.6937103,-21.98567,9.005036,1008.296
19.514533520,16.97189,1.400747,2.48692,0.01138735,0.6236761,-0.7722948,-0.04382873,-21.98333,8.58034,1008.296
19.549293995,23.47912,1.929072,3.035387,0.01816362,0.6134608,-0.7936387,-0.04382873,-21.98333,8.58034,1008.296
19.581571579,19.20294,1.870369,2.669742,0.02059579,0.6066861,-0.7956163,0.3076246,-22.35747,8.143715,1008.296
19.616327286,9.782945,1.870369,1.755632,0.02592249,0.5950052,-0.8198661,-0.3826351,-21.96807,9.45731,1008.294
19.648604393,-3.293497,0.3440971,0.2321139,0.02208122,0.5882649,-0.8063598,-0.3826351,-21.96807,9.45731,1008.294
19.683364868,-6.825996,-0.5364445,-0.9257594,0.0322395,0.5868439,-0.8059064,-0.01024675,-21.60271,9.820659,1008.298
19.715641975,4.639132,-0.1842279,-0.07258957,0.02108287,0.6018155,-0.8053137,0.3415959,-21.24701,9.437047,1008.298
19.747919083,25.40031,0.109286,2.121276,0.02543499,0.6042721,-0.7980576,0.3415959,-21.24701,9.437047,1008.298
19.782679558,30.54412,-0.419039,2.060335,0.02694067,0.5776275,-0.8078811,0.3525302,-21.6067,9.815144,1008.298
19.814952850,21.68189,-0.5364445,1.572809,0.02793491,0.5577073,-0.8321685,0.003061771,-22.32611,10.26562,1008.298
19.849712849,8.791367,-0.419039,0.5977582,0.02748575,0.5392789,-0.8433914,0.003061771,-22.32611,10.26562,1008.296
19.881989956,-4.594944,-0.4777418,-0.4382338,0.02361676,0.5412199,-0.8385376,0.3645158,-21.60107,10.25087,1008.296
19.916750431,-17.91928,-0.947364,-1.291404,0.02599896,0.5601377,-0.827316,0.3758397,-21.23092,10.68198,1008.296
19.949027538,-32.11125,-0.947364,-1.961751,0.02111595,0.5819171,-0.8223473,0.001738548,-21.59708,10.25639,1008.294
19.981304646,-41.4073,-0.7712557,-2.144573,0.02303532,0.5935893,-0.8068151,0.001738548,-21.59708,10.25639,1008.299
20.016060829,-49.03006,-0.7125529,-2.814921,0.0259037,0.6110534,-0.7965698,-0.02051973,-21.60754,9.447179,1008.297
20.048337936,-52.87242,-0.6538501,-3.668091,0.02395043,0.6280722,-0.7708465,-0.04316711,-22.34784,8.584956,1008.295
20.083098412,-62.66426,3.983669,-7.01983,0.03259129,0.6683958,-0.7314773,-0.04316711,-22.34784,8.584956,1008.295
20.115375519,-69.79124,5.216427,-7.994882,0.01998398,0.6828744,-0.7323347,0.3076246,-22.35747,8.143715,1008.295
20.150135040,-69.60532,6.273077,-7.629237,0.0213651,0.7251049,-0.6953562,-0.8136271,-23.09063,6.924559,1008.293
20.182413101,-65.76295,6.273077,-6.776067,0.01312789,0.7396713,-0.6739843,-0.8136271,-23.09063,6.924559,1008.292
20.214686394,-54.35979,4.277183,-5.31349,0.02665403,0.7616457,-0.626995,0.5919127,-23.49283,5.226453,1008.292
20.249445915,-38.8044,3.983669,-3.485269,0.007788755,0.7630289,-0.6312974,0.2051654,-23.50011,4.360514,1008.296
20.281723499,-16.18402,0.4027999,-1.596107,0.01549744,0.7863908,-0.5983074,0.2051654,-23.50011,4.360514,1008.296
20.316483974,-2.859681,-0.06682235,-0.07258957,0.01693316,0.7921973,-0.5997277,0.9067485,-23.51936,3.478029,1008.294
20.348761082,8.605445,0.4027999,1.085284,0.01595598,0.7989941,-0.5924354,-0.1815822,-23.50739,3.494576,1008.294
20.383520603,23.35518,0.7550166,2.121276,0.01548548,0.789762,-0.6031225,-0.1815822,-23.50739,3.494576,1008.294
20.415793896,36.05978,0.9311249,3.34009,0.02133646,0.7645684,-0.6168147,0.5319862,-23.52101,3.047818,1008.294
20.448071003,45.35583,1.165936,4.132319,0.02132889,0.7591617,-0.6415008,0.5559568,-23.50974,3.919271,1008.294
20.482831478,53.22649,0.9311249,5.290192,0.01846664,0.7348817,-0.6638709,0.5559568,-23.50974,3.919271,1008.294
20.515108585,60.91122,0.4027999,6.021481,0.03054564,0.7285235,-0.6939062,0.5799274,-23.49847,4.790726,1008.294
20.549868584,66.79871,-0.06682235,6.326184,0.02721101,0.6959809,-0.7264745,0.6015246,-23.12349,5.595316,1008.294
20.582145691,68.59595,-1.593095,6.752769,0.02678793,0.6634892,-0.7464793,0.6015246,-23.12349,5.595316,1008.294
20.616902351,63.39017,-2.943259,7.179354,0.03605398,0.6223046,-0.7694551,0.2969623,-23.09213,7.717219,1008.294
20.649179459,54.89977,-3.060664,6.265244,0.03270242,0.6043519,-0.780669,-0.04250574,-22.71236,8.589572,1008.294
20.681456566,39.53031,-1.886609,3.583853,0.03562239,0.5873342,-0.8068778,-0.04250574,-22.71236,8.589572,1008.294
20.716217041,22.54952,-1.475689,2.852564,0.03467617,0.5771558,-0.8108011,-0.3826351,-21.96807,9.45731,1008.294
20.748494148,10.03084,-0.419039,0.5977582,0.03613365,0.5693697,-0.8248683,-0.3603766,-21.9576,10.26652,1008.294
20.783254147,-5.276654,-0.1842279,-0.3772931,0.0356494,0.5703426,-0.8229279,-0.3603766,-21.9576,10.26652,1008.294
20.815527439,-11.90784,-0.5951474,-0.9867001,0.0366211,0.5688986,-0.8214878,0.01372385,-21.59144,10.69211,1008.294
20.847804546,-17.67139,-1.006067,-1.352344,0.03031453,0.5790578,-0.8170656,-0.362361,-20.86406,10.25267,1008.294
20.882565021,-21.45178,-0.419039,-1.352344,0.030796,0.5824713,-0.8097956,-1.0999,-20.86172,9.827973,1008.298
20.914842129,-21.32783,-0.5364445,-1.291404,0.03173086,0.5984666,-0.8029386,-1.097916,-21.95526,9.841821,1008.296
20.949602127,-23.31099,-0.8299584,-1.291404,0.03124422,0.6038278,-0.7913045,-0.02051973,-21.60754,9.447179,1008.296
20.981879711,-23.80678,-0.5364445,-1.474226,0.03220016,0.6120917,-0.7811074,-0.03118181,-22.34221,9.020683,1008.296
21.016635895,-15.56428,-0.7712557,-1.047641,0.02927862,0.6247048,-0.7694269,-0.03118181,-22.34221,9.020683,1008.296
21.048913002,-10.04863,-0.7712557,-0.9257594,0.02732873,0.6304982,-0.7718068,-0.03118181,-22.34221,9.020683,1008.296
21.081190109,-5.834417,-0.4777418,-0.7429373,0.02539392,0.6324448,-0.7669572,0.3309336,-21.98168,9.010552,1008.295
21.115950584,-0.7525769,-0.4777418,-0.6210559,0.03215137,0.6377891,-0.766458,0.3309336,-21.98168,9.010552,1008.296
21.148227692,2.903869,-0.2429307,0.1711733,0.02635225,0.6363207,-0.7664539,-0.06647635,-22.72363,7.718119,1008.296
21.182987690,4.763079,-0.06682235,0.3539954,0.03024307,0.6261627,-0.7684538,-0.03118181,-22.34221,9.020683,1008.299
21.215260505,5.692684,-0.2429307,-0.01164887,0.03072701,0.6261657,-0.7679713,-0.03118181,-22.34221,9.020683,1008.297
21.250020981,5.196894,-0.3016334,-0.01164887,0.02828914,0.6309621,-0.7785744,0.3209329,-23.08086,8.588673,1008.297
21.282298565,3.027817,-0.3016334,-0.4382338,0.02684171,0.6314598,-0.7732506,0.6823866,-22.35582,8.573925,1008.297
21.314575672,2.40808,-0.1255251,-0.07258957,0.02635658,0.6314519,-0.7751834,0.6823866,-22.35582,8.573925,1008.297
21.349335193,0.3009753,0.109286,0.1102325,0.02492434,0.6246825,-0.7723182,-0.04316711,-22.34784,8.584956,1008.297
21.381613254,-0.3187613,-0.06682235,0.2930546,0.02250979,0.6202908,-0.7810398,0.6943719,-22.35019,9.009652,1008.297
21.416368961,-1.99205,0.5789082,0.4758768,0.03022786,0.628543,-0.7800427,0.6943719,-22.35019,9.009652,1008.295
21.448646068,-4.904812,0.6963138,0.414936,0.02878792,0.6241851,-0.7795809,0.3189483,-21.98731,8.574825,1008.297
21.483406544,-6.082312,0.5202054,0.1102325,0.02925813,0.6299953,-0.7790654,0.3202713,-22.71635,8.584057,1008.295
21.515684128,-6.887969,0.4615027,0.1102325,0.03021575,0.6348455,-0.7766228,0.3202713,-22.71635,8.584057,1008.295
21.547961235,-6.887969,0.4027999,-0.1335303,0.02924706,0.6392341,-0.76596,-0.4052827,-22.70837,8.595088,1008.295
21.582720756,-3.789286,-0.2429307,-0.3772931,0.03070592,0.638295,-0.758717,-0.05515242,-22.35348,8.14923,1008.295
21.614994049,-1.186393,-0.419039,-0.5601152,0.02877152,0.6358453,-0.7659783,-0.05515242,-22.35348,8.14923,1008.295
21.649754524,2.779922,-0.6538501,-0.5601152,0.02779796,0.6387477,-0.7654763,-0.3926358,-23.06725,9.035431,1008.294
21.682031631,6.374394,-0.2429307,0.04929184,0.03118384,0.6372958,-0.7683925,-0.05581403,-21.98896,8.144614,1008.294
21.716791630,8.419524,0.1679888,0.7196397,0.02684104,0.6329231,-0.7698582,-0.05581403,-21.98896,8.144614,1008.294
21.749069214,8.109656,0.5202054,0.9024618,0.02587691,0.6304892,-0.7732541,-0.4179294,-22.34949,8.154746,1008.292
21.781346798,6.31242,0.5789082,0.7196397,0.02733882,0.6236987,-0.7790971,-0.04184413,-23.07687,8.594188,1008.292
21.816102505,3.027817,-0.3016334,0.1102325,0.03750516,0.6193789,-0.7772098,-0.04184413,-23.07687,8.594188,1008.292
21.848379612,0.6728173,-0.8299584,-0.5601152,0.03363917,0.6193777,-0.7743009,0.3076246,-22.35747,8.143715,1008.292
21.883140087,-4.904812,-0.6538501,-0.5601152,0.0302414,0.6251784,-0.7732937,-0.04250574,-22.71236,8.589572,1008.292
21.915417194,-10.97823,-0.3016334,-0.4382338,0.02441123,0.6348207,-0.7790276,-0.01919651,-22.33657,9.45641,1008.29
21.950177193,-14.8206,0.1679888,-0.6819966,0.02633642,0.6406531,-0.7731973,-0.01919651,-22.33657,9.45641,1008.29
21.982454300,-14.38678,-0.008119571,-0.5601152,0.02972859,0.6387385,-0.7698314,-0.04250574,-22.71236,8.589572,1008.294
22.014728069,-12.03178,-0.2429307,-0.5601152,0.03168092,0.6383306,-0.7490501,-0.04250574,-22.71236,8.589572,1008.294
22.049488068,-6.702049,-0.1255251,-0.2554117,0.03117602,0.6475255,-0.7485133,-0.04250574,-22.71236,8.589572,1008.291
22.081765175,0.177028,-0.3603362,-0.2554117,0.03307914,0.6586417,-0.7542554,0.308286,-22.72198,8.148331,1008.289
22.116525650,6.064526,-0.419039,-0.07258957,0.02874162,0.6513588,-0.7576716,0.2963006,-22.72762,7.712604,1008.289
22.148802757,10.21676,-0.5364445,0.04929184,0.02681995,0.6450524,-0.7606039,0.2963006,-22.72762,7.712604,1008.289
22.183562755,12.32386,-0.4777418,0.2930546,0.02442346,0.6392695,-0.7514463,-0.05515242,-22.35348,8.14923,1008.289
22.215835571,13.56334,-0.06682235,0.5368175,0.02056071,0.6309744,-0.7684056,0.658416,-22.36709,7.702472,1008.289
22.248113155,12.63373,0.109286,0.4758768,0.02589572,0.6193277,-0.7825029,0.658416,-22.36709,7.702472,1008.291
22.282873630,4.887026,0.2853943,0.414936,0.03455126,0.6372334,-0.7896714,0.308286,-22.72198,8.148331,1008.289
22.315150738,-4.656918,0.5202054,0.3539954,0.03602475,0.6363549,-0.7645407,0.683048,-22.72033,8.578541,1008.289
22.349910259,-10.04863,0.1679888,-0.194471,0.0249172,0.629051,-0.7684259,0.683048,-22.72033,8.578541,1008.289
22.382187843,-11.65994,-1.06477,-1.352344,0.0181532,0.6256343,-0.7713313,0.3189483,-21.98731,8.574825,1008.289
22.414461613,-12.40363,-1.534392,-1.535167,0.0200605,0.6348132,-0.777568,0.306963,-21.99295,8.139099,1008.289
22.449221134,-9.614811,-0.5364445,-0.7429373,0.01717371,0.637797,-0.751439,0.306963,-21.99295,8.139099,1008.291
22.481498718,-10.48244,1.224639,0.04929184,0.02480141,0.6754836,-0.7754132,-0.05449104,-22.71799,8.153846,1008.293
22.516259193,-6.702049,0.5789082,0.3539954,0.02392136,0.6533626,-0.7334779,0.2963006,-22.72762,7.712604,1008.293
22.548536301,-1.248366,0.4615027,0.7805803,0.02242896,0.6595382,-0.7663134,0.2963006,-22.72762,7.712604,1008.293
22.583295822,5.072947,-0.1255251,0.04929184,0.04184908,0.6276656,-0.7631524,0.2956393,-22.3631,7.707988,1008.293
22.615569115,6.808209,0.637611,1.024343,0.05483751,0.658699,-0.7557523,-0.4305763,-21.99061,7.714402,1008.293
22.647846222,9.53505,0.5202054,0.5368175,0.02874381,0.6538113,-0.7479889,-0.4305763,-21.99061,7.714402,1008.293
22.682606697,6.932157,0.1679888,0.414936,0.02875706,0.6470248,-0.7514116,-0.04250574,-22.71236,8.589572,1008.291
22.714883804,4.329263,-0.4777418,0.04929184,0.02872079,0.6527385,-0.778935,-0.04382873,-21.98333,8.58034,1008.291
22.749643803,-3.16955,-0.7712557,-0.4382338,0.02924618,0.6382532,-0.7698331,-0.04382873,-21.98333,8.58034,1008.291
22.781921864,-8.74718,-0.8886613,-0.803878,0.02250303,0.6290588,-0.7640697,-0.05382943,-23.08251,8.158462,1008.291
22.816677570,-10.35849,-1.240878,-1.596107,0.02007218,0.637305,-0.7562825,0.3076246,-22.35747,8.143715,1008.291
22.848954678,-10.17257,-0.4777418,-1.047641,0.01907102,0.6503552,-0.7600737,0.3076246,-22.35747,8.143715,1008.296
22.881231785,-10.54442,0.05058321,-0.4382338,0.03065802,0.6605753,-0.7527889,0.2956393,-22.3631,7.707988,1008.294
22.915992260,-7.631653,0.2853943,0.1711733,0.02921173,0.6605892,-0.7474679,0.3076246,-22.35747,8.143715,1008.294
22.948269367,-2.115998,0.05058321,0.2321139,0.03018506,0.6596406,-0.742641,-0.07674956,-22.72845,7.344639,1008.294
22.983029366,2.098212,-0.008119571,0.04929184,0.02631133,0.6615619,-0.7435886,-0.07674956,-22.72845,7.344639,1008.292
23.015302658,3.027817,-0.2429307,0.04929184,0.02824279,0.6620448,-0.7455238,-0.05382943,-23.08251,8.158462,1008.292
23.050063133,2.470053,0.05058321,0.04929184,0.02582071,0.6620199,-0.7508365,0.2969623,-23.09213,7.717219,1008.292
23.082340240,1.912291,-0.1842279,0.04929184,0.02389625,0.6600999,-0.7445586,0.2969623,-23.09213,7.717219,1008.292
23.114617348,0.4868963,-0.1842279,-0.1335303,0.01810312,0.6547471,-0.7484441,0.2853661,-22.36793,7.334508,1008.292
23.149377823,-0.194814,-0.3016334,-0.07258957,0.02583742,0.6586685,-0.74022,0.2956393,-22.3631,7.707988,1008.292
23.181654930,-0.7525769,-0.1842279,-0.194471,0.0214816,0.6591285,-0.743592,0.2956393,-22.3631,7.707988,1008.292
23.216410637,-0.008893002,-0.008119571,0.1711733,0.02340123,0.660051,-0.7585775,-0.07741094,-22.36394,7.340023,1008.291
23.248688221,-0.5666559,0.1679888,-0.01164887,0.02437975,0.6596125,-0.7460127,0.2963006,-22.72762,7.712604,1008.291
23.283448696,-0.2567877,0.05058321,-0.1335303,0.02680952,0.657226,-0.7382965,0.2963006,-22.72762,7.712604,1008.291
23.315725803,-0.1328403,-0.06682235,0.04929184,0.02631855,0.6581712,-0.7445748,0.286689,-23.09696,7.34374,1008.292
23.348002910,-0.9384979,-0.5364445,-0.01164887,0.02921292,0.6605942,-0.7460175,-0.05382943,-23.08251,8.158462,1008.291
23.382762909,-0.5046823,-0.1255251,-0.07258957,0.02147275,0.6620239,-0.7459927,-0.05382943,-23.08251,8.158462,1008.289
23.415036678,-0.3187613,0.4027999,0.2321139,0.01952713,0.6668577,-0.7459611,0.2860274,-22.73244,7.339124,1008.289
23.449796200,0.9826856,0.4027999,0.5368175,0.02147461,0.6605655,-0.7479348,-0.05515242,-22.35348,8.14923,1008.289
23.482073784,2.40808,0.7550166,1.024343,0.01954856,0.658639,-0.7435906,-0.05515242,-22.35348,8.14923,1008.287
23.516834259,3.399658,1.04853,0.841521,0.02774988,0.6634706,-0.7527662,-0.4388649,-23.08898,7.354771,1008.287
23.549111366,-0.6286296,0.9311249,0.7196397,0.02729775,0.6518714,-0.7479968,0.286689,-23.09696,7.34374,1008.287
23.581388473,-1.744156,0.7550166,0.4758768,0.03065908,0.6591138,-0.7556978,0.286689,-23.09696,7.34374,1008.287
23.616144180,-4.037181,0.2266915,0.1102325,0.02535608,0.6567215,-0.7431306,0.2976236,-23.45665,7.721835,1008.287
23.648421287,-5.958364,0.5202054,0.414936,0.02776998,0.6581786,-0.7436109,-0.06647635,-22.72363,7.718119,1008.291
23.683181763,-9.304943,0.9311249,-0.07258957,0.02919816,0.6683518,-0.7416224,-0.06647635,-22.72363,7.718119,1008.287
23.715458870,-9.057048,0.8137193,-0.01164887,0.02871857,0.6683668,-0.736787,0.2873504,-23.46148,7.348355,1008.291
23.747736454,-10.17257,1.04853,-0.1335303,0.02967166,0.6756416,-0.7328801,-0.07674956,-22.72845,7.344639,1008.287
23.782496929,-10.23455,0.7550166,-0.3772931,0.03112184,0.6795532,-0.7222254,-0.07674956,-22.72845,7.344639,1008.287
23.814769745,-7.135864,1.45945,-0.6210559,0.0291764,0.6819444,-0.7289757,1.011581,-22.74042,7.328093,1008.287
23.849529743,-2.67376,1.107233,0.414936,0.02964894,0.6872755,-0.7270126,0.2860274,-22.73244,7.339124,1008.289
23.881806850,-1.372313,1.929072,0.2321139,0.03207622,0.6834126,-0.7265565,0.2860274,-22.73244,7.339124,1008.289
23.916567326,-0.5666559,2.046478,-0.01164887,0.03497502,0.6868314,-0.7197751,-0.06581473,-23.08814,7.722734,1008.293
23.948844433,3.523606,1.752964,0.6586989,0.03062381,0.6858445,-0.7217051,-0.4508502,-23.09462,6.919044,1008.293
23.981121540,3.585579,0.9898276,-0.1335303,0.03886219,0.675681,-0.7290322,-0.4508502,-23.09462,6.919044,1008.293
24.015877724,5.816631,-0.1842279,-0.07258957,0.03497579,0.6819478,-0.7328557,-0.8136271,-23.09063,6.924559,1008.291
24.048155308,7.180051,0.05058321,0.1102325,0.03449642,0.6800091,-0.7333491,-0.8016418,-23.085,7.360286,1008.291
24.082915306,9.906892,0.2266915,0.4758768,0.02869608,0.678047,-0.7362484,0.6374805,-23.10658,6.902496,1008.29
24.115192413,10.8365,0.5789082,1.024343,0.05287109,0.674686,-0.748889,0.6374805,-23.10658,6.902496,1008.29
24.149952889,16.35215,0.1679888,1.63375,0.04368333,0.6746581,-0.7493529,-0.07741094,-22.36394,7.340023,1008.29
24.182229996,16.66202,-0.7712557,1.511869,0.03837354,0.6668624,-0.7605048,0.2963006,-22.72762,7.712604,1008.291
24.214503288,15.67044,-7.40467,1.146224,0.03406814,0.6514052,-0.7484975,0.2963006,-22.72762,7.712604,1008.293
24.249263286,5.444789,-9.341861,-4.643143,0.02293456,0.6493688,-0.7687895,0.2853661,-22.36793,7.334508,1008.291
24.281540394,2.284132,-14.03808,-7.080771,0.0428063,0.6369122,-0.7485987,-0.04250574,-22.71236,8.589572,1008.291
24.316300869,26.76373,-21.25853,-5.861957,0.01904137,0.6502323,-0.7963322,-0.04250574,-22.71236,8.589572,1008.291
24.348577976,26.76373,-23.48923,-6.044779,0.01621866,0.6168312,-0.7969994,0.308286,-22.72198,8.148331,1008.293
24.383337974,38.10491,-14.09679,-6.227601,-0.01615243,0.6119617,-0.7785867,-0.04250574,-22.71236,8.589572,1008.293
24.415611744,51.67714,-8.989644,-5.557253,-0.03837801,0.604152,-0.7795501,-0.04250574,-22.71236,8.589572,1008.291
24.447888851,45.16991,-8.226508,-5.618194,0.01341242,0.5771458,-0.7957687,0.7063572,-22.34455,9.445379,1008.291
24.482648849,13.00558,-4.763045,-9.030873,-0.05866193,0.5636379,-0.8653054,0.3665004,-22.69461,10.26472,1008.291
24.514925957,2.779922,-4.352125,-8.78711,-0.02380042,0.5634402,-0.8102697,0.3665004,-22.69461,10.26472,1008.291
24.549686432,-11.47402,-2.414934,-8.665229,-0.06434219,0.528455,-0.8181162,1.114702,-21.96229,11.11591,1008.291
24.581963539,0.9826856,-4.586936,-6.471364,-0.05854971,0.5308732,-0.8234327,1.453508,-21.97755,10.23894,1008.291
24.616719246,-16.30797,-3.882503,-7.324533,-0.06296217,0.5530887,-0.8329657,1.453508,-21.97755,10.23894,1008.29
24.648996353,-11.53599,-8.285211,-6.715127,-0.03591079,0.5682024,-0.8227859,1.091393,-22.33807,10.24907,1008.29
24.681274414,-5.958364,-8.285211,-8.116763,-0.09205647,0.5839428,-0.8428798,1.454831,-22.70658,10.24817,1008.29
24.716033935,-0.07086667,-12.39441,-8.177704,-0.08049244,0.6028639,-0.8384462,1.454831,-22.70658,10.24817,1008.288
24.748311520,0.734791,-14.15549,-8.969933,-0.06796911,0.6139368,-0.8659662,1.804961,-22.35169,9.802313,1008.288
24.783071995,-2.67376,-8.872239,-7.933941,-0.06978053,0.5890291,-0.7887537,1.817608,-22.71057,10.24266,1008.286
24.815344810,0.362949,-6.524128,-8.421466,-0.05907208,0.5575878,-0.7937899,1.817608,-22.71057,10.24266,1008.286
24.850104809,-5.772444,-3.412881,-9.335577,-0.09764677,0.5144371,-0.7852502,1.454831,-22.70658,10.24817,1008.286
24.882381916,-3.355471,-9.165752,-9.396518,-0.1199167,0.5235468,-0.7914352,2.531176,-22.72418,9.795897,1008.286
24.914659023,6.250447,-8.754833,-8.238645,-0.1128087,0.5923575,-0.7697879,2.531176,-22.72418,9.795897,1008.286
24.949419498,0.2390016,-4.645639,-8.665229,-0.1326795,0.5789186,-0.8631252,2.168399,-22.72019,9.801414,1008.286
24.981697083,4.701105,-7.932994,-8.543347,-0.09486517,0.5662372,-0.7815777,2.893292,-22.36365,9.785767,1008.286
25.016452789,-4.037181,-1.7105,-7.933941,-0.09786559,0.5902517,-0.8326792,3.257391,-23.09667,9.789483,1008.286
25.048730373,-13.33323,-5.173964,-7.994882,-0.126294,0.5627336,-0.7892649,3.257391,-23.09667,9.789483,1008.286
25.081007481,-5.524549,-5.878397,-7.994882,-0.1321904,0.5882276,-0.8297161,3.256069,-22.36764,9.780251,1008.288
25.115767479,-3.85126,-9.165752,-9.030873,-0.1219928,0.5610698,-0.8555147,3.255407,-22.00312,9.775635,1008.286
25.148044586,0.9826856,-12.45311,-8.543347,-0.1002674,0.5873789,-0.8215712,3.255407,-22.00312,9.775635,1008.288
25.182805061,-1.248366,-12.57051,-8.116763,-0.1393547,0.5734262,-0.7645205,3.60791,-22.01194,9.39664,1008.288
25.215078354,-4.470997,-8.285211,-9.944984,-0.1640833,0.5764959,-0.8374491,3.609233,-22.74097,9.405871,1008.288
25.249838352,-6.578101,-11.51386,-6.958889,-0.1654339,0.5676215,-0.7417758,3.609233,-22.74097,9.405871,1008.286
25.282115459,-15.00652,-5.584884,-9.152755,-0.1630372,0.5523923,-0.8109993,4.333464,-22.01992,9.385609,1008.286
25.314392567,-10.73034,-8.813536,-4.704083,-0.1727598,0.580982,-0.7914782,4.333464,-22.01992,9.385609,1008.288
25.349153042,-3.16955,-5.467478,-2.814921,-0.1756071,0.5787539,-0.7325051,4.333464,-22.01992,9.385609,1008.286
25.381430149,-21.82362,-0.5364445,-0.6210559,-0.1809418,0.5615703,-0.8007562,4.673594,-22.76421,8.517871,1008.286
25.416186809,-19.03481,0.5789082,3.827616,-0.145693,0.5917615,-0.7750383,5.048356,-22.76256,8.948082,1008.286
25.448463917,-21.82362,5.216427,5.351133,-0.1549286,0.6237875,-0.741479,5.048356,-22.76256,8.948082,1008.284
25.483223915,-15.87415,6.977511,6.143362,-0.1486738,0.6363811,-0.7433546,5.386501,-22.4133,8.066498,1008.284
25.515501022,-49.83571,11.26281,1.085284,-0.1535028,0.629553,-0.7549856,4.661608,-22.76984,8.082145,1008.286
25.547778129,-110.26,6.801403,-0.2554117,-0.237426,0.7146907,-0.8365052,4.661608,-22.76984,8.082145,1008.286
25.582538605,-113.0489,-5.819695,-3.54621,-0.25583,0.7736457,-0.7027013,4.265249,-23.14647,6.847342,1008.284
25.614811897,-191.2596,19.89212,-5.861957,-0.2679442,0.816508,-0.6105781,4.569812,-23.17783,4.725439,1008.284
25.649571419,-15.9981,-25.25031,-20.12208,-0.4824817,0.671409,-0.8347728,4.569812,-23.17783,4.725439,1008.284
25.681848526,27.56939,-29.1834,-29.68977,-0.3444985,0.8268909,-0.7665048,4.839741,-23.95511,1.305587,1008.284
25.716609478,-36.94519,22.18153,-48.82515,-0.4370071,0.6383976,-0.9041903,4.091268,-23.59309,0.5027957,1008.284
25.748886585,-7.321785,26.76035,-60.89141,-0.5711582,0.4852204,-1.009678,4.091268,-23.59309,0.5027957,1008.284
25.781163692,55.51951,23.5904,-67.22925,-0.5058932,0.5151592,-0.9410004,5.168275,-23.9752,0.05513811,1008.284
25.815919876,65.68319,33.74598,-79.84398,-0.488744,0.4296456,-0.9139676,5.848261,-24.36943,-1.631938,1008.286
25.848197460,70.827,39.38144,-95.07915,-0.5536349,0.2668721,-0.9108858,5.848261,-24.36943,-1.631938,1008.284
25.882956982,65.68319,30.69343,-103.7937,-0.5825238,0.2956449,-0.6781259,7.640821,-25.8587,-2.512505,1008.283
25.915234089,43.99241,31.57397,-121.2227,-0.6470962,0.2240594,-0.6131296,9.081927,-26.97384,-2.956446,1008.283
25.949994564,24.53268,21.5945,-154.3745,-0.7792966,-0.03943612,-0.4296693,11.55024,-27.73576,-3.420631,1008.281
25.982272148,28.87083,-12.68792,-149.3164,-0.8430398,0.2011108,-0.2217358,11.55024,-27.73576,-3.420631,1008.279
26.014544964,-22.93915,-35.22979,-164.1859,-0.837361,0.280757,-0.1429781,15.52288,-29.24736,-4.209798,1008.278
26.049304962,-30.56191,-42.97855,-173.0223,-0.9220392,0.2436258,-0.318495,19.11668,-30.39769,-5.558286,1008.276
26.081582546,-28.88862,-64.69858,-175.5818,-0.9337386,0.309172,-0.2446144,19.11668,-30.39769,-5.558286,1008.276
26.116342545,-28.57875,-77.37837,-165.2219,-0.9538412,0.3959276,-0.3310968,22.36074,-31.17309,-6.4079,1008.278
26.148619652,-35.14796,-86.12509,-150.6571,-0.9564949,0.500984,-0.3155071,25.9756,-31.9196,-4.772244,1008.272
26.183380127,-44.6919,-92.99332,-136.9454,-0.8719108,0.5206223,-0.3039753,25.9756,-31.9196,-4.772244,1008.272
26.215653419,-38.18467,-85.36195,-120.8571,-0.8569887,0.5501931,-0.3014221,28.61843,-32.26374,-1.071435,1008.271
26.247930527,-47.23282,-88.82542,-102.5139,-0.8146926,0.6362377,-0.3648379,32.73209,-29.33112,3.499469,1008.271
26.282690525,-44.38203,-90.52779,-86.73028,-0.7623898,0.5893165,-0.4034091,32.73209,-29.33112,3.499469,1008.271
26.314967632,9.906892,-100.9182,-89.89919,-1.1502,0.8294884,-0.8894807,36.43213,-23.86463,6.362917,1008.275
26.349728107,-69.72926,-97.33732,-96.35891,-0.982686,0.8162128,-0.09272681,36.02292,-18.10605,4.988167,1008.277
26.382005215,-108.029,-148.7023,-93.73846,-1.041537,0.6617231,-0.3637206,36.02292,-18.10605,4.988167,1008.277
26.414278507,-234.2693,12.08465,-26.27709,-0.7241976,0.07154461,-0.1424778,36.23312,-10.5204,-0.1562636,1008.277
26.449038982,31.10188,-41.56969,18.75809,-0.9432552,0.1680696,-0.4624602,33.60565,-7.311233,-3.14627,1008.278
26.481316090,22.98334,-54.24949,24.54745,-1.033848,0.3787002,-0.06319726,33.60565,-7.311233,-3.14627,1008.28
26.516076088,100.0166,-54.66041,47.76587,-0.9042573,0.3927567,-0.02327123,30.60899,-6.229244,-6.477314,1008.282
26.548353195,78.20187,-20.7302,44.2313,-0.9179234,0.5783757,0.3558627,28.69199,-6.987434,-10.23755,1008.282
26.583113670,54.96175,-42.33282,6.265244,-1.255691,0.4478908,0.2644788,28.69199,-6.987434,-10.23755,1008.283
26.615386963,56.13925,-39.92601,5.351133,-1.038585,0.5813582,0.05254022,26.46163,-9.48173,-12.2893,1008.283
26.647664070,-39.30019,-35.05368,-26.5818,-1.213385,0.3844897,0.3694168,25.29377,-10.96646,-15.24214,1008.285
26.682423592,-173.4732,6.918808,-47.42352,-1.243316,-0.2192482,0.4530675,25.29377,-10.96646,-15.24214,1008.285
26.714701652,-29.07454,-35.4646,-34.19938,-1.435319,-0.08902539,0.2008998,23.46053,-11.34953,-18.13646,1008.287
26.749461651,-100.7161,-34.29054,-28.89754,-1.217615,-0.3679148,0.11521,22.26208,-9.200379,-22.0069,1008.289
26.781738758,36.4936,-27.95064,-21.70654,-1.258453,-0.3137687,-0.5805458,22.26208,-9.200379,-22.0069,1008.289
26.816494942,146.6828,-55.95187,8.337228,-1.175939,-0.648891,-0.5806954,19.61621,-8.128014,-25.77919,1008.289
26.848772526,307.7523,-51.37305,34.23703,-1.009085,-0.08303978,-0.6788763,17.37946,-7.098656,-27.87556,1008.29
26.881049633,227.0006,-3.647692,0.6586989,-0.9051225,0.644305,0.2363172,17.37946,-7.098656,-27.87556,1008.288
26.915809154,6.870183,35.15484,6.630888,-1.119959,-0.125877,0.1980769,14.16024,-12.45284,-26.45027,1008.288
26.948086739,54.40398,-27.0701,20.40349,-1.05842,-0.112948,0.3913932,14.23997,-18.61741,-23.88193,1008.288
26.982847214,-9.366917,-16.73841,29.23989,-0.8910313,0.04712654,0.3619694,13.88918,-18.60779,-23.44069,1008.29
27.015120029,-53.80203,3.748858,9.616982,-0.8946018,-0.2125997,-0.0223831,13.88918,-18.60779,-23.44069,1008.291
27.049880028,-32.42112,2.281289,6.204303,-0.9491463,-0.2441211,0.004144357,12.42807,-19.69102,-23.84051,1008.291
27.082157135,-45.31164,7.094916,-11.10286,-0.9216301,-0.1660454,0.1722822,11.31748,-19.68951,-24.63317,1008.293
27.114435196,-32.66901,6.273077,-29.14131,-0.9578538,-0.1708606,0.2100411,11.31748,-19.68951,-24.63317,1008.295
27.149194717,-29.44638,-1.593095,-40.04969,-0.9987401,-0.05627419,0.2141648,12.74263,-18.62319,-25.54053,1008.295
27.181471824,-47.54269,-7.463373,-46.63129,-1.011439,-0.02653589,0.1466799,14.5336,-18.28908,-26.38193,1008.296
27.216228485,-57.83031,-8.167806,-53.51759,-0.9688413,-0.06580901,0.08835212,14.5336,-18.28908,-26.38193,1008.298
27.248505592,-47.79058,0.4027999,-57.96626,-1.033502,-0.1294511,0.06975895,15.21989,-16.49138,-27.72322,1008.3
27.283265591,-39.61006,2.985722,-55.22393,-1.029164,-0.1309642,0.04798626,16.26935,-13.96784,-29.01702,1008.302
27.315542698,-32.66901,11.96725,-50.8362,-1.049568,-0.0820603,0.0734471,16.26935,-13.96784,-29.01702,1008.302
27.347819805,-44.38203,13.96314,-39.62311,-1.099872,-0.07053737,0.08909108,17.00291,-11.78308,-28.62001,1008.303
27.382580280,-61.48676,14.84368,-25.72863,-1.110516,-0.0544671,0.1278805,18.8231,-9.611102,-28.30181,1008.303
27.414853573,-71.89834,9.26692,-11.1638,-1.119673,-0.07684909,0.09973352,18.8231,-9.611102,-28.30181,1008.305
27.449733257,-63.53189,5.216427,0.5977582,-1.067833,-0.1222199,0.09066192,20.27156,-8.168993,-28.34233,1008.305
27.482010364,-50.39347,2.692208,7.240295,-0.9819872,-0.2323208,0.08695025,19.90559,-6.403179,-28.35913,1008.305
27.516770840,-28.39283,3.220533,15.46729,-0.907492,-0.2461582,0.08187662,19.90559,-6.403179,-28.35913,1008.303
27.549048424,-12.2177,2.692208,17.84398,-0.8965053,-0.2002613,0.05020696,20.2644,-4.220073,-28.39234,1008.307
27.581325531,-6.020339,-0.5951474,17.90492,-0.8936521,-0.1662453,0.08955276,20.62651,-3.859546,-28.40247,1008.307
27.616081238,-14.5727,-1.475689,16.92987,-0.9327776,-0.192573,0.06483201,20.62651,-3.859546,-28.40247,1008.308
27.648359299,-24.30257,-5.526181,13.82189,-0.9918349,-0.1778611,0.02926848,19.88069,-4.95558,-29.1868,1008.308
27.683118820,-41.53124,-10.33981,7.484058,-1.020717,-0.2252937,0.05129921,20.25413,-4.224902,-28.76582,1008.31
27.715395927,-67.00242,-2.708447,-4.094676,-1.084904,-0.3095018,-0.03896085,20.25413,-4.224902,-28.76582,1008.312
27.750156403,-48.72019,-13.74457,-10.61533,-1.114327,-0.3131889,0.04036555,19.49262,-4.233829,-30.06197,1008.312
27.782433987,-62.91216,-7.991697,-23.53476,-1.037897,-0.3387465,0.002347284,19.86407,-2.409604,-29.65483,1008.314
27.814706802,-69.35742,-6.935048,-31.51799,-0.9832855,-0.3357801,-0.02530955,19.86407,-2.409604,-29.65483,1008.312
27.849466801,-63.40794,6.096969,-39.25746,-0.9707994,-0.3028714,-0.03530156,20.21156,-0.5966487,-30.11916,1008.312
27.881743908,-64.33755,12.20206,-39.62311,-0.9520076,-0.3030927,-0.116561,19.48269,1.233908,-30.1312,1008.314
27.916504383,-83.23952,21.88802,-42.36544,-0.9900397,-0.3631009,-0.0849133,19.52429,3.807251,-28.48285,1008.31
27.948781490,-79.769,19.65731,-36.94172,-1.057972,-0.4961658,-0.1662578,19.52429,3.807251,-28.48285,1008.31
27.981058598,-47.91453,14.55017,-26.33803,-1.058087,-0.4121038,-0.06474085,20.3042,5.952984,-26.40443,1008.31
28.015815258,-68.92361,6.860106,-25.11922,-1.008496,-0.3014292,-0.006205794,20.71161,7.794113,-24.69011,1008.31
28.048092365,-82.49583,0.2853943,-16.52658,-0.940046,-0.4276592,-0.04236208,20.71161,7.794113,-24.69011,1008.31
28.082852364,-35.08598,-8.930942,-3.54621,-0.8227385,-0.3577587,-0.07799193,21.11863,8.905403,-23.02882,1008.311
28.115129471,-52.00479,-7.639481,1.389987,-0.8163004,-0.1958976,-0.01520531,21.54963,10.02797,-20.49606,1008.311
28.149889946,-80.38873,-10.98554,2.852564,-0.6882701,-0.1568907,-0.03701419,21.54963,10.02797,-20.49606,1008.311
28.182167053,-73.38571,-1.475689,-0.1335303,-0.6053123,-0.3417125,-0.2393544,21.57189,10.03843,-19.68686,1008.311
28.214440346,-7.631653,-8.285211,8.398169,-0.6006323,-0.3554897,0.1183018,21.9793,11.87956,-17.97255,1008.31
28.249200344,7.861762,3.631453,15.0407,-0.6544226,-0.2427558,0.3008317,21.9793,11.87956,-17.97255,1008.31
28.281477451,-9.800733,9.736542,36.43089,-0.8130451,-0.1211696,0.04225834,23.05432,12.59099,-18.43405,1008.31
28.316237926,70.51714,-11.92478,40.20922,-0.9090973,-0.06897453,-0.1825203,23.04299,12.22084,-18.86516,1008.31
28.348515034,82.29213,1.04853,33.56668,-0.8835887,-0.1548657,0.01176215,23.04299,12.22084,-18.86516,1008.31
28.383275032,127.223,11.028,44.47507,-1.177987,0.01365892,0.01045423,24.10868,11.46857,-19.74393,1008.31
28.415548801,4.45321,-16.15138,15.16259,-1.360949,0.05445842,0.4954861,24.33515,8.875807,-22.64181,1008.315
28.447825909,-102.0795,-8.520022,-13.66237,-1.18764,-0.7914315,0.06487686,24.33515,8.875807,-22.64181,1008.315
28.482585430,74.48344,-47.55737,-2.75398,-1.073485,-0.2413363,-0.06857108,25.77625,7.760672,-23.08575,1008.315
28.514863014,-7.321785,-38.86936,1.024343,-0.7572843,0.1326606,-0.2155417,24.98719,10.65741,-25.22803,1008.317
28.549623489,-1.186393,-22.96091,17.41739,-0.6265072,-0.03513604,-0.4323913,24.98719,10.65741,-25.22803,1008.317
28.581900597,52.97859,-5.878397,54.95687,-0.4598239,-0.02106744,-0.563199,24.58912,10.27998,-26.52508,1008.319
28.616656303,21.1861,74.77923,30.27588,-1.127211,0.286498,0.797484,24.90501,10.61877,-28.21588,1008.319
28.648933411,-347.7431,57.22709,-64.06033,-4.142492,-2.246008,1.307829,24.90501,10.61877,-28.21588,1008.32
28.681210518,765.9236,-333.7921,-12.62638,0.2940317,0.4829368,0.2990463,26.05618,8.082561,-26.08372,1008.32
28.715970993,-350.9657,146.3379,-19.02515,-1.302205,0.501078,-0.2809208,28.53683,14.95871,-27.89069,1008.32
28.748248100,-27.2773,-11.33776,-11.83415,-0.6585425,-1.179911,-0.3503621,28.53683,14.95871,-27.89069,1008.324
28.783008099,97.10384,-6.230614,0.9024618,-1.089454,0.04195121,0.1448202,26.00062,6.59713,-28.18165,1008.324
28.815281868,-57.08663,10.49968,7.66688,-1.127612,-0.2408745,-0.02929326,26.37877,11.34312,-27.37572,1008.325
28.850041866,-17.67139,-0.1255251,10.34827,-0.9698679,-0.2844466,-0.02553003,27.08233,10.23032,-28.24435,1008.325
28.882318974,16.90992,-3.119367,12.60308,-0.9013488,-0.1929785,0.0613779,27.08233,10.23032,-28.24435,1008.325
28.914596081,-23.24902,10.14746,12.35931,-1.014172,-0.1299355,0.05327762,26.73022,10.96898,-27.81234,1008.325
28.949356556,-40.97348,13.25871,16.99081,-1.0333,-0.2361218,0.008238719,27.10697,9.877077,-27.36828,1008.329
28.981633663,4.887026,7.564539,14.61412,-0.9946657,-0.2215573,-0.01061584,27.10697,9.877077,-27.36828,1008.329
29.016389847,7.799788,6.7427,13.0906,-0.9944288,-0.1101835,0.01032134,27.86544,10.61423,-26.14361,1008.329
29.048666954,-15.56428,12.55428,12.35931,-0.9958167,-0.1353388,0.01404881,27.11829,10.24723,-26.93717,1008.331
29.083427429,-16.61783,12.61298,12.60308,-1.000169,-0.1612534,-0.06102217,27.11829,10.24723,-26.93717,1008.331
29.115704536,-2.363892,8.386378,10.10451,-1.025776,-0.1534216,-0.01306201,27.8445,9.874733,-26.94359,1008.332
29.147981644,3.585579,6.273077,9.495101,-1.027805,-0.1318289,-0.06562968,28.2302,9.516693,-26.13528,1008.334
29.182742119,-1.99205,4.042372,7.605939,-0.9765971,-0.1142888,-0.07385878,28.2302,9.516693,-26.13528,1008.336
29.215015411,-1.496261,3.279236,3.705734,-1.001681,-0.1111786,0.008397554,28.59165,10.24174,-26.15003,1008.337
29.249775410,0.4868963,0.05058321,4.010437,-1.030212,-0.1464503,-0.09423051,28.60496,9.518341,-25.70507,1008.337
29.282052517,6.188473,-3.412881,3.401031,-0.9828362,-0.1321925,-0.06814586,28.60496,9.518341,-25.70507,1008.337
29.314329624,1.23058,-3.236773,4.132319,-1.003033,-0.1615933,-0.01605812,28.23086,9.152176,-26.13066,1008.336
29.349090099,2.284132,-5.878397,7.240295,-1.023883,-0.1408798,-0.02653106,28.95708,8.779684,-26.13708,1008.337
29.381367206,8.047682,-6.406723,10.10451,-1.011277,-0.1592725,-0.03826534,28.95708,8.779684,-26.13708,1008.337
29.416122913,10.09281,-7.111156,12.72496,-1.010799,-0.1583163,-0.04212844,28.94509,8.77405,-26.57281,1008.337
29.448400020,15.85636,-10.86813,12.60308,-1.028346,-0.1081227,-0.06694404,28.93548,8.404705,-26.94167,1008.337
29.483160496,17.71557,-13.92068,10.77486,-1.010498,-0.05987271,0.01886049,28.93548,8.404705,-26.94167,1008.337
29.515438080,2.594001,-14.21419,9.312279,-1.035147,-0.07944286,-0.02325683,28.22219,7.323965,-26.54331,1008.339
29.547715187,3.151764,-17.20803,5.655837,-1.0072,-0.03236756,-0.007095915,28.57601,6.586115,-26.91307,1008.339
29.582475662,14.55492,-17.91247,-3.60715,-1.017368,-0.03391881,-0.02787068,28.57601,6.586115,-26.91307,1008.339
29.614748955,12.38584,-21.96296,-9.57934,-0.9988551,-0.07434264,0.02310407,27.47702,5.863414,-27.32302,1008.339
29.649508476,28.56096,-26.71788,-14.57648,-1.027376,-0.08758365,-0.004465754,27.81516,6.212672,-28.20461,1008.339
29.681785583,40.08807,-36.57995,-30.60388,-1.06591,0.04432955,-0.03022178,27.81516,6.212672,-28.20461,1008.337
29.716546059,59.17596,-56.42149,-56.44274,-1.086405,0.131951,-0.003573713,26.70523,5.849658,-28.99265,1008.337
29.748823643,20.07057,-75.8521,-75.3953,-1.124707,-0.01562184,0.03579516,25.95571,5.846365,-29.85308,1008.336
29.781100750,2.965843,-110.3106,-87.2178,-1.164979,-0.1618827,0.03553376,25.95571,5.846365,-29.85308,1008.336
29.815856457,1.664396,-115.7113,-85.93805,-1.153623,-0.1735862,0.2853805,23.79383,5.544136,-31.49771,1008.334
29.848133564,-22.93915,-133.2047,-98.0043,-1.763273,-0.03964462,-0.3729212,20.11493,7.323308,-33.20778,1008.334
29.882894039,-85.28465,-149.1132,-77.16258,-0.09328786,-0.2993154,0.9867505,16.07484,9.168028,-34.85085,1008.334
29.915171146,-78.03373,-112.4826,-88.55849,-1.507143,-0.6961135,-0.09777828,16.07484,9.168028,-34.85085,1008.334
29.949931145,6.560315,-165.1977,-115.1286,-1.314456,-0.6203557,-0.1823646,10.61591,12.13835,-35.24077,1008.334
29.982208729,-2.859681,-150.933,-100.3201,-0.2294555,-0.2583965,0.752809,6.668283,16.1864,-35.60527,1008.332
30.014482021,17.28176,-140.4252,-120.7961,-0.4563794,-0.886986,-0.04794994,6.668283,16.1864,-35.60527,1008.334
30.049242020,140.0516,-146.4128,-116.9569,-0.6004904,-0.3187404,0.3955209,0.5120094,15.89452,-35.13342,1008.332
30.081519127,71.81858,-155.7466,-127.073,-0.4297401,-0.02680949,0.7168492,-5.267525,16.6706,-36.30025,1008.334
30.116279602,-12.58955,-147.176,-123.3556,-0.1975646,-0.2686626,0.6951526,-5.267525,16.6706,-36.30025,1008.332
30.148556709,7.48992,-137.3726,-124.026,0.3825566,-0.81326,0.7212625,-11.41613,13.09888,-35.7246,1008.332
30.183316707,76.77647,-134.8484,-111.8378,0.6262489,-0.5287544,0.931684,-17.13784,13.1725,-34.82806,1008.332
30.215590000,-49.03006,-136.0224,-72.95768,0.6621503,-0.39089,0.8854969,-17.13784,13.1725,-34.82806,1008.332
30.247867107,-6.330207,-99.21581,-29.01943,0.2876009,-0.5211254,0.756002,-22.86744,10.71771,-32.15539,1008.332
30.282627582,-49.71177,-83.24865,3.34009,0.3427643,-0.7024965,1.453421,-27.87612,10.80655,-29.52606,1008.332
30.314904690,-140.1933,-42.45023,-16.28282,0.7418513,-0.9484407,0.9396841,-27.87612,10.80655,-29.52606,1008.332
30.349664688,-100.7161,15.84163,-24.08323,0.6471694,-0.8384696,0.1979516,-30.36734,9.762653,-27.79294,1008.332
30.381942272,-374.7017,68.32192,-8.238645,0.08005997,-0.6515821,0.8485278,-31.69242,12.36255,-25.252,1008.331
30.416697979,-60.86702,68.32192,-95.14009,-0.06630959,-1.556276,0.1862226,-31.69242,12.36255,-25.252,1008.331
30.448975086,-154.0134,8.151567,-91.118,-0.1533157,-0.9583545,0.7704197,-30.28508,16.36821,-24.45246,1008.331
30.481252670,-133.7481,-4.704342,-112.0207,0.08610075,-1.443059,0.6225995,-29.89203,18.56741,-23.24074,1008.331
30.516013145,-23.80678,-36.63865,-110.1315,-0.1624768,-0.7814204,0.724552,-29.89203,18.56741,-23.24074,1008.332
30.548290253,-82.55781,-28.00935,-120.8571,-0.01527498,-1.126575,0.5651546,-30.863,19.33512,-21.11795,1008.331
30.583049774,-53.864,-14.80122,-123.6603,0.07584823,-1.264688,0.4302603,-33.00106,17.91789,-19.75922,1008.331
30.615323067,-53.80203,-29.41821,-129.0841,0.08040739,-1.144629,0.4401185,-33.00106,17.91789,-19.75922,1008.329
30.650083542,-45.68348,-22.96091,-140.5409,0.2422954,-1.31068,0.4267395,-35.47964,16.51511,-17.58576,1008.329
30.682360649,-50.5794,-27.24621,-129.3888,0.1154407,-1.00929,0.5065602,-37.98153,14.73655,-16.27914,1008.327
30.714638233,-77.97176,-45.50277,-134.1422,0.1600007,-0.8598596,0.4386655,-37.98153,14.73655,-16.27914,1008.324
30.749397755,-83.36346,-30.70967,-146.0865,0.4210179,-1.082792,0.2637643,-40.10601,11.50157,-14.52384,1008.32
30.781675816,-97.74136,-12.86403,-165.4657,0.4104139,-1.472057,0.3592285,-42.21783,7.907714,-12.3282,1008.315
30.816431522,49.75596,-37.87141,-164.7953,-0.002574754,-1.09136,0.2356222,-42.21783,7.907714,-12.3282,1008.312
30.848708630,104.1688,-112.8936,-180.579,0.4231333,-0.5070128,0.3787079,-43.92879,4.359489,-10.94897,1008.312
30.880985737,158.5817,-170.3049,-176.2522,1.146574,0.01753428,0.1877227,-44.93635,-1.427795,-8.306459,1008.31
30.915746212,-12.52757,-119.0574,-167.7205,0.5153605,0.3139308,-0.3516498,-44.37487,-8.938929,-1.493168,1008.308
30.948023319,55.20964,-142.2449,-165.2828,0.2671055,0.637769,-0.8283612,-44.37487,-8.938929,-1.493168,1008.305
30.982783318,5.320842,-137.1965,-139.8096,0.2720877,0.9735238,-0.8583698,-42.80901,-15.80355,4.486826,1008.303
31.015056610,-49.77374,-101.3291,-101.7826,0.4276214,0.6561735,-1.388425,-39.39512,-20.45139,9.600652,1008.303
31.049817085,170.5426,-82.36811,-24.50981,0.7695751,1.384462,-1.539238,-39.39512,-20.45139,9.600652,1008.303
31.082094193,-31.67743,32.0436,20.46443,0.886876,1.359581,-1.26939,-36.39317,-24.44951,12.96862,1008.3
31.114371300,-0.5046823,116.9865,50.69102,0.3923998,0.9065444,-1.161643,-35.63166,-24.44058,14.26477,1008.3
31.149131298,13.68729,151.3864,64.82926,0.140197,0.7415611,-0.7951071,-35.63166,-24.44058,14.26477,1008.298
31.181408882,20.9382,186.7254,75.0673,-0.07986504,0.6533054,-0.5195746,-36.47563,-23.39379,10.02918,1008.298
31.216165066,19.20294,163.1856,95.48243,-0.1286218,0.7399974,-0.1718676,-39.89697,-21.24244,4.51117,1008.296
31.248442173,-7.817575,201.1663,90.54623,0.1687626,0.7579668,-0.1187447,-39.89697,-21.24244,4.51117,1008.295
31.283202648,-110.8178,143.5789,105.6595,0.8303333,0.7445524,-0.06706854,-41.15248,-18.81609,-1.41726,1008.291
31.315479755,-119.4941,248.833,171.1708,2.737362,-0.246909,0.490741,-42.42102,-14.87575,-7.738404,1008.29
31.347756862,163.1058,239.0296,240.887,0.787415,0.1053883,-0.001961987,-42.42102,-14.87575,-7.738404,1008.29
31.382516861,-107.967,358.0788,309.0796,0.2858012,1.04968,1.327176,-42.31235,-9.89162,-16.70982,1008.286
31.414789677,-513.5226,291.686,325.4117,-2.770289,0.2901052,0.2523428,-39.31598,-3.547726,-26.17878,1008.284
31.449550152,-249.0191,-19.14523,282.4485,-2.145678,-1.479746,-0.89128,-39.31598,-3.547726,-26.17878,1008.282
31.481827736,113.3409,74.1922,207.5524,-0.6769287,-3.373177,-0.8017555,-30.68495,11.58292,-28.24715,1008.282
31.516587257,692.2989,36.21149,120.8947,-0.495868,1.294033,0.5514309,-24.54794,27.88641,-26.36831,1008.282
31.548864365,-2026.238,-13.33365,-137.6158,1.271216,-8.817555,1.048017,-24.54794,27.88641,-26.36831,1008.282
31.581141949,613.2825,-174.7076,-77.34541,-0.8561031,-1.276364,-0.3712726,-19.64643,22.63961,-33.16579,1008.284
31.615898132,82.3541,-41.56969,-47.30164,1.271763,-0.2930568,-0.1783424,-20.3689,39.17997,-18.97721,1008.284
31.648175239,113.8987,67.20657,19.00185,-0.3684129,0.2582633,-0.322989,-20.3689,39.17997,-18.97721,1008.284
31.682935238,72.99608,-27.0114,-17.56257,-0.1308878,-0.4162678,0.2073469,-23.03826,33.37039,-23.96974,1008.286
31.715213299,96.4841,3.866264,5.10737,0.1066199,-0.2852906,0.1002563,-21.6414,31.13998,-26.0805,1008.286
31.749972820,104.1688,-11.10294,15.22353,0.2321822,0.4233258,0.1823319,-21.6414,31.13998,-26.0805,1008.287
31.782249927,-160.6446,17.89623,63.79327,0.2686759,0.4736815,0.01672014,-21.68498,29.66018,-27.74269,1008.289
31.814523220,-435.3739,38.20739,-20.85337,-0.359645,-0.961719,1.523559,-21.33983,27.09412,-28.5251,1008.292
31.849283695,26.88767,12.49557,28.44766,0.07864975,-5.056509,-2.372529,-21.33983,27.09412,-28.5251,1008.294
31.881560802,143.708,-35.34719,3.705734,-0.3403395,-1.180343,-0.31866,-19.92214,31.61491,-16.33444,1008.294
31.916320801,124.992,-46.73553,-8.543347,0.5425416,-0.0548602,0.4704576,-20.21784,39.98065,-13.44648,1008.296
31.948597908,-154.1374,37.91388,7.240295,0.04750351,-0.5620232,-0.257484,-20.30804,37.74928,-16.84235,1008.297
31.983358383,19.26492,-11.04424,2.304098,-0.02188113,-0.6305946,-0.1557188,-20.30804,37.74928,-16.84235,1008.299
32.015631676,-21.51375,8.327675,3.949497,-0.02275071,-0.4118052,0.004578397,-20.58995,38.52094,-13.85823,1008.301
32.047908783,-169.6308,-5.467478,3.949497,-0.09798151,-0.7390327,-0.1029931,-19.87572,38.14281,-14.30037,1008.301
32.082668781,-205.8854,-13.68587,7.057473,-0.01751861,-1.56322,-0.4767165,-19.87572,38.14281,-14.30037,1008.303
32.114946365,-44.25808,-10.63332,1.207165,0.01201228,-1.905502,-0.8316367,-19.70306,39.31846,-7.965058,1008.304
32.149706364,90.84449,-19.38004,-0.1335303,0.1405579,-0.9322144,-0.47637,-20.71252,41.19165,-4.98375,1008.308
32.181983471,28.74689,16.25255,2.669742,0.04485716,-0.6870521,-0.3075,-20.71252,41.19165,-4.98375,1008.31
32.214256763,27.69333,3.807561,-0.6819966,-0.02011587,-0.7925026,-0.2393113,-20.02226,40.80225,-6.297345,1008.311
32.249017238,16.10426,2.10518,-0.9257594,0.02326014,-0.9111819,-0.1680472,-20.05584,40.42163,-7.537663,1008.311
32.281294346,-2.983629,-0.2429307,-3.241506,0.02271416,-1.103442,-0.209748,-20.05584,40.42163,-7.537663,1008.313
32.316054344,6.622289,-1.182175,-0.3772931,0.02560475,-1.112763,-0.2494492,-19.71704,40.40637,-8.414633,1008.315
32.348331451,9.101234,-0.7125529,0.414936,0.03745139,-1.007689,-0.2411423,-20.07915,40.04585,-8.404501,1008.316
32.383091926,8.17163,3.983669,0.5368175,0.01593504,-0.8831577,-0.1746402,-20.07915,40.04585,-8.404501,1008.318
32.415364742,-9.92468,2.5161,-1.230463,-0.005256848,-0.9209863,-0.1810943,-20.07915,40.04585,-8.404501,1008.318
32.447642326,-20.77007,-1.534392,-0.9257594,0.005932841,-0.9607431,-0.212768,-19.71704,40.40637,-8.414633,1008.317
32.482401848,-18.84889,-2.943259,-0.4991745,0.02291035,-1.006408,-0.2792954,-19.71704,40.40637,-8.414633,1008.319
32.514678955,-7.073891,-1.06477,-1.047641,0.03159377,-1.013798,-0.3252828,-19.70306,39.31846,-7.965058,1008.317
32.549439430,6.498341,0.4615027,-0.6210559,0.03638722,-0.9919682,-0.3135664,-19.69373,40.78216,-7.547794,1008.317
32.581717014,12.44781,2.985722,-0.3772931,0.02425867,-0.9594271,-0.2683955,-19.69373,40.78216,-7.547794,1008.317
32.616472721,8.295577,2.10518,-1.047641,0.01077183,-0.9656013,-0.2224748,-20.40663,40.43126,-7.096421,1008.317
32.648750305,3.337685,0.4027999,-0.9867001,0.0074423,-0.9893268,-0.2235694,-20.07981,40.41036,-8.409117,1008.317
32.681027889,0.05308066,-0.947364,-0.01164887,0.0228744,-0.9738164,-0.2293158,-20.07981,40.41036,-8.409117,1008.319
32.715787411,-1.186393,-0.6538501,-0.4382338,0.02618423,-0.9447973,-0.2368929,-20.06716,40.05148,-7.968774,1008.32
32.748064518,-5.524549,0.3440971,-0.1335303,0.01801511,-0.9705083,-0.248624,-19.72665,40.03703,-8.783497,1008.32
32.782824993,-5.834417,-1.299581,0.04929184,0.009347929,-0.9904168,-0.261288,-19.72665,40.03703,-8.783497,1008.32
32.815098286,-0.9384979,-1.06477,-0.3772931,0.04081171,-1.002894,-0.2570758,-19.6924,40.05313,-7.538563,1008.322
32.849858284,6.064526,-0.2429307,-0.6210559,0.01901867,-1.001629,-0.2937629,-20.43126,40.7845,-7.97249,1008.322
32.882135391,6.374394,0.5789082,-0.8648187,0.02236729,-0.9719608,-0.2525092,-20.43126,40.7845,-7.97249,1008.322
32.914412498,7.737814,1.342044,-0.6819966,0.03159141,-0.9859537,-0.2482577,-20.05518,40.05711,-7.533048,1008.322
32.949172974,2.841895,1.04853,-0.1335303,0.02725161,-0.9829839,-0.2250264,-20.44325,40.77887,-8.408217,1008.322
32.981450081,0.8587383,0.5202054,-0.803878,0.02724393,-0.9756857,-0.2133823,-20.4306,40.41998,-7.967875,1008.324
33.016205788,1.168607,0.6963138,-0.6210559,0.01762094,-1.002392,-0.2318841,-20.4306,40.41998,-7.967875,1008.326
33.048483849,2.346106,0.637611,-0.7429373,0.03213201,-1.012104,-0.2542088,-20.44193,40.04984,-8.398985,1008.326
33.083243847,0.3009753,0.7550166,-1.778929,0.01230125,-1.00583,-0.2425278,-20.08942,40.04102,-8.777981,1008.326
33.115520954,5.568736,0.2266915,-2.388336,0.036459,-0.9985121,-0.2454389,-20.08942,40.04102,-8.777981,1008.326
33.147798061,7.923736,0.1679888,-3.058684,0.0586885,-0.9955727,-0.2536886,-19.71637,40.04186,-8.410017,1008.327
33.182558536,16.04228,2.692208,-3.668091,0.04367383,-0.9800808,-0.239065,-20.08942,40.04102,-8.777981,1008.326
33.214831829,15.17465,3.514047,-2.571158,0.04021115,-0.9383875,-0.2136816,-20.08942,40.04102,-8.777981,1008.326
33.249591350,8.915314,0.2853943,-0.2554117,0.03779233,-0.9281369,-0.1855787,-20.85027,39.66758,-10.06952,1008.326
33.281868934,5.940578,0.7550166,-0.3163524,0.01374078,-0.9877915,-0.2042367,-20.48816,40.0281,-10.07965,1008.326
33.316629410,9.597024,-0.3016334,-0.3163524,0.01663762,-0.9887789,-0.212467,-20.48816,40.0281,-10.07965,1008.326
33.348906517,4.205316,1.635558,-0.1335303,0.001196781,-1.004814,-0.2188096,-19.76194,39.65561,-10.08606,1008.326
33.381183624,8.977287,1.635558,-1.535167,0.008506504,-1.023128,-0.202976,-20.4875,39.66359,-10.07503,1008.326
33.415939331,15.17465,0.8137193,-2.266455,0.01382278,-1.022636,-0.2049185,-20.4875,39.66359,-10.07503,1008.324
33.448216438,9.782945,0.109286,-2.388336,0.05674227,-0.9516481,-0.1422437,-20.86159,39.29742,-10.50063,1008.324
33.482976913,-3.417444,1.45945,-2.266455,0.05038129,-0.9353615,-0.1861303,-20.50975,39.65312,-10.88424,1008.324
33.515254021,-1.186393,-2.825853,0.2930546,0.05443501,-1.004951,-0.161396,-20.50975,39.65312,-10.88424,1008.324
33.550014019,6.622289,1.400747,0.5368175,0.08620239,-0.9399855,-0.1528766,-20.50909,39.2886,-10.87962,1008.326
33.582292080,-7.879548,2.163883,-1.230463,0.06463843,-1.028664,-0.1702547,-21.23597,40.02562,-10.87782,1008.326
33.614564896,2.40808,1.165936,0.04929184,0.04723166,-1.027733,-0.1663443,-21.23597,40.02562,-10.87782,1008.324
33.649324894,0.9826856,2.163883,-0.9867001,0.06368114,-1.029603,-0.1610726,-20.14697,39.64913,-10.88975,1008.324
33.681602001,1.354528,2.046478,-1.047641,0.05061494,-1.027241,-0.1668323,-20.87253,39.65711,-10.87872,1008.324
33.716362476,12.07597,0.2853943,-2.510218,0.03460164,-1.015303,-0.2005706,-20.87253,39.65711,-10.87872,1008.322
33.748639584,13.99715,2.163883,-5.130668,0.04048621,-1.035959,-0.1605753,-20.14631,39.28461,-10.88514,1008.32
33.780916691,13.06755,1.342044,-5.25255,0.005648702,-1.027843,-0.1638382,-20.88385,39.28696,-11.30983,1008.32
33.815672874,13.1915,-3.001961,-7.080771,0.04389792,-1.054408,-0.180992,-20.88385,39.28696,-11.30983,1008.32
33.847949982,17.52965,0.9898276,-13.60143,0.03482936,-1.088637,-0.1352404,-20.53306,39.27734,-11.75107,1008.325
33.882710457,27.19754,-2.76715,-19.81738,0.04876312,-1.044008,-0.1151957,-20.9065,38.54666,-12.17205,1008.323
33.914987564,25.83412,-5.702289,-22.9863,0.05930312,-0.9974718,-0.1004506,-20.9065,38.54666,-12.17205,1008.319
33.949783325,21.49597,-6.406723,-21.82842,0.1424149,-0.9784166,-0.1169583,-21.2806,38.1805,-12.59765,1008.323
33.982060432,14.30702,-1.299581,-19.81738,0.1451688,-0.9130484,-0.1078907,-22.39053,37.81749,-13.38569,1008.321
34.014333725,6.498341,1.400747,-16.34376,0.1180526,-0.8864049,-0.07674068,-23.50084,36.72463,-14.22675,1008.321
34.049093723,1.540449,0.4615027,-10.73721,0.1351465,-0.9711702,-0.1144843,-23.50084,36.72463,-14.22675,1008.315
34.081371307,11.82808,2.339991,-9.091814,0.1182144,-0.9732066,-0.1299294,-23.50019,36.36011,-14.22214,1008.314
34.116131306,21.31005,2.398694,-9.152755,0.1201621,-0.967281,-0.09654263,-23.48886,36.73027,-13.79103,1008.312
34.148408413,14.30702,3.396641,-8.908992,0.1280743,-1.032014,-0.06985518,-23.48886,36.73027,-13.79103,1008.31
34.183168888,17.03386,3.044425,-9.944984,0.1425852,-1.020225,-0.03066089,-23.88627,35.98832,-15.08346,1008.31
34.215442180,9.163208,3.514047,-11.04192,0.1242879,-1.043902,-0.004650386,-23.5331,35.61498,-15.45784,1008.31
34.247719288,18.52123,-3.17807,-12.13885,0.1069127,-1.0575,-0.004206819,-23.5331,35.61498,-15.45784,1008.31
34.282479286,29.1807,-8.285211,-18.59856,0.1378524,-1.040338,0.03594949,-24.6321,34.89228,-15.86779,1008.31
34.314756393,25.21439,-10.92684,-23.10818,0.1474123,-1.003632,0.006647838,-25.00752,35.25516,-16.30262,1008.309
34.349516868,22.92136,-15.68176,-23.96135,0.1808275,-1.012611,0.04181579,-25.00752,35.25516,-16.30262,1008.309
34.381793976,12.13794,-15.15344,-25.2411,0.2197663,-0.9191323,0.03307804,-25.02951,34.15034,-17.16022,1008.309
34.416549682,-2.363892,-22.49128,-26.03333,0.1833493,-0.8367879,0.08680299,-25.7412,33.13116,-16.70039,1008.309
34.448826790,-21.6377,-29.59432,-27.31309,0.1756224,-0.8333488,0.1085939,-25.7412,33.13116,-16.70039,1008.309
34.481104851,-20.4602,-32.23595,-31.27423,0.2768251,-0.9839606,-0.153054,-26.45345,32.41574,-16.2444,1008.31
34.515864849,-15.31639,-30.00524,-34.80879,0.2390277,-0.8842259,0.0356522,-27.52979,32.43334,-15.79212,1008.31
34.548141956,-41.09743,-37.10828,-34.74785,0.2163248,-0.8837038,0.06616073,-27.52979,32.43334,-15.79212,1008.31
34.582901478,-35.45782,-47.96829,-38.28241,0.2389405,-1.070723,-0.01955315,-29.64626,31.39109,-13.62879,1008.31
34.615175724,-0.2567877,-52.4297,-40.6591,0.3123003,-1.019779,-0.04262665,-30.61392,30.33621,-11.48293,1008.31
34.649935245,-0.6286296,-53.66246,-41.87791,0.3360491,-1.014108,0.04002242,-30.61392,30.33621,-11.48293,1008.31
34.682212353,-1.558234,-51.19694,-40.35439,0.3998994,-1.039244,-0.005701347,-32.03145,30.73278,-10.22055,1008.31
34.714489460,12.75768,-43.15466,-36.81984,0.3895817,-0.988639,-0.05808619,-33.79408,28.95267,-8.426989,1008.31
34.749249935,9.349129,-46.32461,-32.67587,0.2795688,-0.8805185,-0.04708211,-33.79408,28.95267,-8.426989,1008.31
34.781527519,6.250447,-57.30203,-33.46809,0.2618313,-0.959586,-0.08761887,-35.2336,28.24443,-8.022215,1008.31
34.816283226,8.357551,-65.93134,-29.50695,0.3030318,-1.002061,-0.08988293,-36.63346,26.46035,-6.234166,1008.31
34.848560333,34.51044,-62.64398,-23.83947,0.3840242,-0.9490828,-0.2333376,-36.63346,26.46035,-6.234166,1008.312
34.883320808,42.07122,-60.00236,-28.95848,0.3599977,-0.9695399,-0.1091583,-37.67556,26.49405,-4.536959,1008.312
34.915597916,33.64281,-68.27944,-26.39898,0.3710419,-0.9361104,-0.1070583,-38.00249,24.69075,-3.325677,1008.312
34.947875023,18.76912,-69.04258,-23.5957,0.4379199,-0.9856365,-0.06977583,-38.00249,24.69075,-3.325677,1008.314
34.982635021,56.88293,-77.78929,-10.18875,0.4716927,-0.8055801,-0.2302934,-39.41632,23.99458,-1.987203,1008.312
35.014908791,136.0233,-80.66573,10.95768,0.4027785,-0.5136608,-0.2811798,-39.36877,23.28728,-0.2973104,1008.312
35.049668789,32.58926,-76.49783,-17.68445,0.5119499,-0.6637778,-0.2605139,-40.06969,22.94201,0.5897899,1008.312
35.081945896,2.655974,-75.55859,-22.68159,0.3984073,-0.7096623,-0.281318,-40.06969,22.94201,0.5897899,1008.312
35.114223003,-33.41269,-53.31024,-16.22188,0.4968678,-0.9089791,-0.4900587,-39.67268,22.95412,1.829208,1008.314
35.148983479,41.07965,-49.72937,-2.69304,0.4326371,-0.9151804,-0.4092212,-40.33869,22.26043,3.965858,1008.314
35.181260586,49.50806,-37.6366,6.448066,0.4976026,-0.8327285,-0.5524737,-40.33869,22.26043,3.965858,1008.314
35.216016769,64.07187,-15.21214,9.373219,0.5305212,-0.8051136,-0.4281439,-40.28047,22.2878,6.082246,1008.312
35.248293876,52.91662,3.044425,16.13764,0.5678903,-0.8049325,-0.2633708,-39.93034,22.64269,5.636388,1008.312
35.283054352,60.97319,23.29688,21.98795,0.4586403,-0.8271052,-0.2879168,-39.93034,22.64269,5.636388,1008.31
35.315331459,90.96844,15.84163,23.63334,0.4247897,-0.7392513,-0.0383734,-39.96591,23.35562,4.382221,1008.315
35.347608566,76.59055,17.48531,31.37281,0.4558001,-0.7237515,0.08250757,-39.67466,24.04766,1.815361,1008.315
35.382368564,53.9082,30.34122,38.86852,0.4642626,-0.8033551,0.1473009,-39.67466,24.04766,1.815361,1008.315
35.414641380,49.50806,38.5009,43.6219,0.3328653,-0.8696634,0.1123995,-39.7342,24.74933,-0.3102584,1008.315
35.449401855,27.87925,32.27841,38.19817,0.2634166,-0.9384999,0.1358463,-38.7054,25.43902,-2.452424,1008.317
35.481679439,16.04228,34.2156,26.74132,0.2896523,-1.207609,0.09945201,-38.7054,25.43902,-2.452424,1008.317
35.516438961,82.10621,28.40402,13.70001,0.2042729,-1.10002,0.07559241,-37.66556,27.59323,-4.11508,1008.317
35.548717022,92.39384,31.57397,11.20144,0.3112199,-0.9215403,0.101999,-37.37363,27.92075,-6.677325,1008.315
35.580994129,80.55687,47.13021,14.18754,0.2236221,-0.8346333,0.2602829,-37.37363,27.92075,-6.677325,1008.315
35.615749836,99.58278,47.01281,8.946634,0.231498,-1.036297,0.4355745,-36.73027,27.87414,-9.676197,1008.315
35.648026943,287.5489,45.48653,-8.72617,0.01993264,-1.151727,0.9676402,-36.82141,27.10164,-13.02829,1008.315
35.682787418,61.77885,-39.10417,-17.01411,0.2093609,-0.4755119,1.002017,-36.82141,27.10164,-13.02829,1008.315
35.715064526,-25.78994,1.518153,-16.1,0.3167348,-0.5386685,0.2665995,-35.88216,25.19545,-18.56171,1008.315
35.749824524,97.04186,7.271025,-9.57934,0.4106673,-1.105088,0.5479218,-35.86554,22.64948,-18.09367,1008.315
35.782101631,68.22411,10.73449,2.730683,0.2645959,-0.5946195,0.7938254,-35.86554,22.64948,-18.09367,1008.315
35.814374924,7.303999,3.631453,3.035387,0.2848891,-0.6200369,0.7017838,-36.27388,22.26722,-19.7642,1008.315
35.849135399,-12.27968,6.33178,2.913505,0.2482664,-0.6816779,0.6787906,-36.65798,20.80188,-20.61168,1008.315
