Time (s),Gyroscope X (deg/s),Gyroscope Y (deg/s),Gyroscope Z (deg/s),Accelerometer X (g),Accelerometer Y (g),Accelerometer Z (g),Magnetometer X (uT),Magnetometer Y (uT),Magnetometer Z (uT),Barometer (hPa)
0.000000000,0.2665833,0.1020339,0.07868555,-0.04149963,0.2216742,-0.9726763,2.996535,-13.81037,27.1772,1008.281
0.032329559,-0.9109162,-0.07407448,-0.04319586,-0.03908286,0.2197225,-0.9794608,2.996535,-13.81037,27.1772,1008.282
0.064610004,-0.1052586,0.2194394,-0.1650773,-0.04151784,0.2259968,-0.9823205,2.996535,-13.81037,27.1772,1008.284
0.099372864,0.08066235,0.336845,0.1396262,-0.03570253,0.2226455,-0.9765509,2.997858,-14.5394,27.18644,1008.28
0.131653309,-1.282758,-0.1327773,0.01774484,-0.03522175,0.2226355,-0.9799361,2.997858,-14.5394,27.18644,1008.28
0.166416645,-1.220785,-0.0153717,0.01774484,-0.03473077,0.2216903,-0.9736578,4.096851,-13.8167,27.59639,1008.282
0.198697090,-0.7249953,-0.1327773,-0.04319586,-0.04199624,0.2260167,-0.9760347,3.346665,-13.45547,26.73135,1008.284
0.233456135,0.08066235,-0.19148,0.07868555,-0.04005334,0.2216603,-0.9779974,3.346665,-13.45547,26.73135,1008.285
0.265736103,-0.229206,-0.19148,-0.1650773,-0.04199253,0.2231,-0.9799188,2.983888,-13.45148,26.73686,1008.287
0.298016548,-0.4151269,-0.3675884,0.1396262,-0.03813711,0.2289215,-0.9789271,3.358651,-13.44984,27.16707,1008.287
0.332779884,-1.158811,0.04333108,0.01774484,-0.03523971,0.2298911,-0.9808616,3.358651,-13.44984,27.16707,1008.285
0.365060329,-1.716574,-0.19148,0.01774484,-0.03763884,0.2255633,-0.9707289,2.995873,-13.44585,27.17259,1008.289
0.399823665,-0.6630216,0.04333108,0.01774484,-0.03813707,0.2294104,-0.977474,3.710104,-13.82398,26.73045,1008.289
0.432099819,-0.1052586,0.3955477,0.200567,-0.04443245,0.2317973,-0.9817978,3.710104,-13.82398,26.73045,1008.285
0.464379787,-0.4151269,0.6303589,0.3224484,-0.03910627,0.2279329,-0.9842485,2.996535,-13.81037,27.1772,1008.285
0.499143600,-0.2911796,0.5716561,0.2615077,-0.03667297,0.2250722,-0.9736344,3.358651,-13.44984,27.16707,1008.285
0.531423569,-0.3531533,0.3955477,0.1396262,-0.03571428,0.2284609,-0.9741005,3.358651,-13.44984,27.16707,1008.285
0.566187382,-0.9109162,-0.0153717,-0.04319586,-0.03669009,0.23282,-0.97214,2.997196,-14.17488,27.18182,1008.286
0.598467350,-1.158811,-0.19148,-0.04319586,-0.03475758,0.2318413,-0.976984,2.633758,-13.80638,27.18272,1008.286
0.633226395,-1.034863,-0.19148,-0.1041366,-0.03864038,0.2386118,-0.9750035,2.633758,-13.80638,27.18272,1008.288
0.665506840,-0.4151269,-0.4262911,-0.04319586,-0.04201112,0.2323078,-0.9759989,3.360635,-14.54339,27.18092,1008.288
0.697787285,0.5764517,0.04333108,0.1396262,-0.04393706,0.226961,-0.981343,3.69878,-14.19413,26.29934,1008.288
0.732550621,0.8243463,0.2194394,0.200567,-0.03860622,0.2221386,-0.9808984,3.69878,-14.19413,26.29934,1008.288
0.764830589,0.2046097,0.6303589,0.200567,-0.03958965,0.2298869,-0.9784351,3.359312,-13.81435,27.17169,1008.288
0.799594402,-1.034863,0.2194394,0.07868555,-0.03427202,0.2323397,-0.9731148,2.996535,-13.81037,27.1772,1008.288
0.831870079,-0.1052586,0.1607366,0.07868555,-0.03716524,0.2294328,-0.9716747,2.996535,-13.81037,27.1772,1008.288
0.866633892,0.2046097,-0.3088856,0.07868555,-0.03620699,0.2323309,-0.9740775,2.983888,-13.45148,26.73686,1008.288
0.898913860,-0.4151269,-0.2501828,-0.04319586,-0.03524116,0.2313511,-0.9784361,3.359973,-14.17887,27.17631,1008.286
0.931194305,-0.229206,-0.2501828,-0.04319586,-0.03910905,0.2323194,-0.9750382,3.359973,-14.17887,27.17631,1008.286
0.965957642,-0.04328496,-0.07407448,-0.1041366,-0.03766233,0.232796,-0.9784227,3.359973,-14.17887,27.17631,1008.286
0.998238087,0.2665833,-0.07407448,0.07868555,-0.03716985,0.2308796,-0.9731168,3.710765,-14.18849,26.73506,1008.286
1.032997131,0.08066235,0.1020339,0.1396262,-0.03767109,0.236669,-0.9779172,2.983888,-13.45148,26.73686,1008.288
1.065277100,-0.5390742,0.1607366,-0.1041366,-0.03717874,0.2332862,-0.9769706,2.983888,-13.45148,26.73686,1008.286
1.100040913,-0.229206,0.2194394,0.01774484,-0.03427478,0.2323283,-0.9764989,3.370636,-13.4442,27.6028,1008.288
1.132320404,0.2665833,-0.0153717,0.07868555,-0.03378015,0.2279776,-0.9755577,2.98455,-13.816,26.74148,1008.288
1.164601326,0.142636,-0.07407448,-0.04319586,-0.03814512,0.232309,-0.9789078,2.98455,-13.816,26.74148,1008.288
1.199364185,-0.2911796,0.04333108,-0.1041366,-0.03959331,0.2332924,-0.9730979,3.347988,-14.1845,26.74058,1008.284
1.231640816,0.142636,-0.07407448,0.3224484,-0.0400653,0.2250314,-0.9828126,2.271643,-14.1669,27.19285,1008.284
1.266404152,-0.1672323,0.1020339,0.01774484,-0.0386306,0.2327883,-0.979871,2.271643,-14.1669,27.19285,1008.284
1.298684597,0.142636,-0.0153717,-0.1650773,-0.0395911,0.2313468,-0.9760095,3.34865,-14.54902,26.7452,1008.284
1.333447456,-0.2911796,0.04333108,0.07868555,-0.03910042,0.2269798,-0.979903,2.997196,-14.17488,27.18182,1008.285
1.365727424,-0.1672323,0.2194394,-0.04319586,-0.03909871,0.2284528,-0.9736099,2.997196,-14.17488,27.18182,1008.285
1.398007870,-0.1052586,0.1020339,-0.04319586,-0.03572661,0.2323192,-0.9779462,3.347988,-14.1845,26.74058,1008.283
1.432766914,-0.1672323,-0.0153717,-0.04319586,-0.03474786,0.2299269,-0.9707103,2.997196,-14.17488,27.18182,1008.281
1.465047836,-0.04328496,-0.1327773,-0.1650773,-0.03426378,0.2269985,-0.978463,2.997196,-14.17488,27.18182,1008.283
1.499810696,0.08066235,-0.2501828,0.01774484,-0.03136471,0.2289523,-0.9755574,2.995873,-13.44585,27.17259,1008.283
1.532091141,0.01868869,-0.0153717,0.07868555,-0.04490142,0.2264809,-0.9794098,3.34865,-14.54902,26.7452,1008.283
1.566854477,-0.6010479,-0.07407448,-0.04319586,-0.04005673,0.223601,-0.976536,3.34865,-14.54902,26.7452,1008.283
1.599134922,-0.6010479,-0.07407448,-0.226018,-0.04152383,0.2298813,-0.978431,3.009181,-14.16925,27.61755,1008.285
1.631410599,0.5764517,0.1607366,0.01774484,-0.03958719,0.2308744,-0.9726282,3.323356,-13.83126,25.86451,1008.285
1.666173935,0.328557,0.04333108,0.07868555,-0.0362156,0.2332726,-0.9818071,3.323356,-13.83126,25.86451,1008.285
1.698454380,0.2046097,-0.3088856,0.07868555,-0.03958001,0.2269948,-0.9750675,3.70878,-13.09495,26.72122,1008.285
1.733217716,-0.04328496,0.1020339,-0.1041366,-0.03572014,0.229414,-0.9784461,3.723412,-14.54737,27.17541,1008.285
1.765498161,-0.7249953,0.1607366,0.01774484,-0.03426972,0.2313719,-0.9731203,3.723412,-14.54737,27.17541,1008.286
1.797778130,-0.1052586,-0.19148,-0.04319586,-0.04297865,0.2318145,-0.9779334,3.347327,-13.81999,26.73596,1008.286
1.832537651,-0.1052586,-0.2501828,0.01774484,-0.03766166,0.2313327,-0.981815,3.359312,-13.81435,27.17169,1008.282
1.864817619,-0.6630216,-0.3088856,-0.04319586,-0.03862998,0.2308362,-0.9847164,3.359312,-13.81435,27.17169,1008.282
1.899580955,0.3905306,-0.19148,0.07868555,-0.04104012,0.2318381,-0.9726195,3.371297,-13.80872,27.60742,1008.284
1.931861401,1.196188,-0.19148,0.07868555,-0.03958921,0.2303773,-0.9764985,3.346665,-13.45547,26.73135,1008.284
1.966624260,0.9482936,0.04333108,0.07868555,-0.03716915,0.2299052,-0.9750562,2.623096,-14.54104,26.75623,1008.286
1.998905182,0.2665833,0.1607366,0.01774484,-0.03522752,0.2245663,-0.9813754,2.623096,-14.54104,26.75623,1008.286
2.031180859,0.08066235,0.1607366,0.200567,-0.03811911,0.2221547,-0.9765484,2.983888,-13.45148,26.73686,1008.286
2.065944672,-0.5390742,0.2781422,-0.04319586,-0.03571957,0.231371,-0.9721503,2.635081,-14.53541,27.19195,1008.282
2.098224640,0.514478,0.4542505,0.2615077,-0.04491397,0.2322929,-0.9779265,2.635081,-14.53541,27.19195,1008.282
2.132987499,0.01868869,-0.07407448,-0.04319586,-0.02896219,0.2313396,-0.9871516,2.622434,-14.17653,26.75161,1008.282
2.165268421,-1.158811,-2.598294,-0.6526029,-0.02653339,0.2313924,-0.9736203,3.359312,-13.81435,27.17169,1008.282
2.200031280,1.010267,-2.7157,-1.079188,-0.0235942,0.2217843,-0.9553106,3.359312,-13.81435,27.17169,1008.284
2.232307911,0.4525043,-2.011266,-0.5916622,-0.04636149,0.231813,-0.9755088,2.996535,-13.81037,27.1772,1008.284
2.264587879,-2.894073,-0.9546161,-0.2869587,-0.06233823,0.2321744,-0.998194,3.358651,-13.44984,27.16707,1008.285
2.299351692,-5.496967,1.158684,0.2615077,-0.0695952,0.2340926,-0.9972007,3.358651,-13.44984,27.16707,1008.287
2.331631183,-3.51381,3.741606,1.053737,-0.05172907,0.2506547,-0.9802245,3.009181,-14.16925,27.61755,1008.285
2.366394520,0.2046097,5.385284,2.089729,-0.03478539,0.2532275,-0.9493064,2.985872,-14.54503,26.75071,1008.288
2.398674965,8.571054,4.03512,1.663144,-0.02074376,0.2421061,-0.9585853,2.985872,-14.54503,26.75071,1008.288
2.433434009,10.24434,0.8064672,0.6271519,-0.01493306,0.2265191,-0.993494,2.634419,-14.17089,27.18734,1008.29
2.465714931,5.038555,-1.189427,-0.4697808,-0.01975799,0.2201962,-0.9988374,2.98455,-13.816,26.74148,1008.291
2.497994423,1.444083,-2.422186,-0.8963658,-0.02455037,0.2061894,-0.9868206,2.98455,-13.816,26.74148,1008.293
2.532758236,-2.150389,-2.480888,-1.018247,-0.04389575,0.2154041,-0.9644884,2.608464,-13.08861,26.30204,1008.289
2.565038204,-1.158811,-2.011266,-0.7744843,-0.05213659,0.2245801,-0.9629682,2.621111,-13.4475,26.74238,1008.289
2.599801540,0.7623726,-0.2501828,-0.2869587,-0.04586833,0.2240355,-0.9861898,2.621111,-13.4475,26.74238,1008.291
2.632077694,0.2046097,1.158684,0.3224484,-0.0454089,0.2332217,-0.9890392,2.996535,-13.81037,27.1772,1008.291
2.664357662,0.142636,1.863117,0.5662112,-0.03472443,0.2173185,-0.9785171,2.996535,-13.81037,27.1772,1008.292
2.699121475,0.142636,0.86517,0.3833891,-0.02794678,0.2139504,-0.9785508,2.996535,-13.81037,27.1772,1008.288
2.731401443,-0.5390742,-0.07407448,0.07868555,-0.02599277,0.2101287,-0.9655238,3.359973,-14.17887,27.17631,1008.288
2.766164780,-0.8489426,-0.7785078,-0.2869587,-0.03425133,0.2246067,-0.9702581,2.983226,-13.08697,26.73225,1008.288
2.798445225,-2.150389,-0.719805,-0.3478994,-0.03620755,0.2303739,-0.9803733,2.983226,-13.08697,26.73225,1008.29
2.833204269,-2.708152,-0.5436967,-0.2869587,-0.03717618,0.2308534,-0.9808519,3.357989,-13.08532,27.16246,1008.293
2.865484714,-1.468679,-0.19148,-0.226018,-0.03765665,0.2298875,-0.9798896,3.357989,-13.08532,27.16246,1008.295
2.897764683,1.258162,0.2194394,0.01774484,-0.03909197,0.2240827,-0.9779857,2.258996,-13.80802,26.75251,1008.295
2.932528496,2.74553,0.5129533,0.200567,-0.03958049,0.2260154,-0.9784572,2.258996,-13.80802,26.75251,1008.291
2.964808464,2.311714,0.5716561,0.3224484,-0.03667266,0.2240962,-0.9760571,2.997196,-14.17488,27.18182,1008.291
2.999571323,2.311714,1.158684,0.3833891,-0.04006574,0.224541,-0.9847491,2.995873,-13.44585,27.17259,1008.293
3.031914711,-0.6010479,0.04333108,-0.04319586,-0.02796274,0.2168163,-0.9896536,2.995873,-13.44585,27.17259,1008.294
3.066677570,-0.6010479,-0.719805,-0.2869587,-0.0269981,0.2251163,-0.9688206,2.997196,-14.17488,27.18182,1008.296
3.098958492,-3.141968,-1.482941,-0.6526029,-0.02649812,0.2139464,-0.9809711,2.633097,-13.44186,27.1781,1008.296
3.131237984,-1.220785,-1.65905,-0.8963658,-0.04728767,0.2202517,-0.9591357,2.633097,-13.44186,27.1781,1008.292
3.166001797,2.373688,-1.24813,-0.5916622,-0.05506635,0.2288518,-0.9851757,2.632435,-13.07734,27.17349,1008.294
3.198281765,-0.4771006,-0.4849939,-0.04319586,-0.06189091,0.2383784,-1.024266,2.996535,-13.81037,27.1772,1008.294
3.233040809,-2.646179,2.626253,1.480322,-0.04052823,0.2212061,-0.9688137,2.996535,-13.81037,27.1772,1008.294
3.265321255,2.06382,3.976417,1.967847,-0.02599821,0.2203682,-0.942744,2.645743,-13.80074,27.61845,1008.294
3.300084591,9.066843,0.5716561,0.5052705,-0.02697838,0.2154246,-0.9727432,2.98455,-13.816,26.74148,1008.29
3.332365036,2.931451,-1.65905,-0.7135436,-0.02458142,0.2129021,-1.005153,2.98455,-13.816,26.74148,1008.292
3.364645004,-7.170256,-1.130724,-0.9573064,-0.03425073,0.2177678,-0.9891512,2.633758,-13.80638,27.18272,1008.292
3.399408340,-6.860388,-0.8959134,-0.5307215,-0.03136304,0.2299366,-0.9707175,3.346665,-13.45547,26.73135,1008.292
3.431684494,1.56803,-1.893861,-0.4088401,-0.0415315,0.2371796,-0.9667869,3.346665,-13.45547,26.73135,1008.292
3.466447830,6.340002,-1.600347,-0.2869587,-0.04633991,0.220663,-0.9813737,2.633758,-13.80638,27.18272,1008.289
3.498728275,5.906187,-0.1327773,0.200567,-0.04198042,0.2167975,-0.9833387,3.346004,-13.09096,26.72673,1008.291
3.533491611,4.10895,1.158684,0.3224484,-0.04194838,0.2032475,-0.9834158,3.346004,-13.09096,26.72673,1008.294
3.565771103,0.3905306,0.7477645,0.1396262,-0.03517356,0.203777,-0.9756923,3.346665,-13.45547,26.73135,1008.294
3.598052025,-2.522231,0.2781422,0.1396262,-0.03422482,0.2110338,-0.9771035,2.996535,-13.81037,27.1772,1008.294
3.632811069,-2.274337,-0.19148,-0.1041366,-0.02989359,0.2187792,-0.9799695,2.996535,-13.81037,27.1772,1008.296
3.665091515,-1.902495,-0.2501828,-0.1041366,-0.0405624,0.2283946,-0.9895607,3.00852,-13.80473,27.61293,1008.296
3.699854851,-0.1052586,-0.3088856,-0.1041366,-0.05263077,0.2250233,-0.9745671,2.983888,-13.45148,26.73686,1008.298
3.732134342,-0.2911796,0.4542505,0.200567,-0.04683108,0.2240508,-0.9808698,2.995212,-13.08133,27.16797,1008.297
3.764414787,1.506057,0.9825755,0.4443298,-0.03956574,0.2182578,-0.9828522,2.995212,-13.08133,27.16797,1008.299
3.799178123,5.596318,1.334792,0.4443298,-0.02889885,0.2047251,-0.9868196,2.996535,-13.81037,27.1772,1008.299
3.831454754,4.480792,0.1607366,0.07868555,-0.01871004,0.1951231,-0.9728764,2.997196,-14.17488,27.18182,1008.299
3.866217613,1.258162,-2.422186,-0.6526029,-0.03131541,0.2091211,-0.9727697,2.997196,-14.17488,27.18182,1008.299
3.898498535,0.3905306,-2.950511,-0.835425,-0.04584584,0.2143553,-0.9867283,2.645082,-13.43623,27.61383,1008.299
3.933261394,-7.789993,-0.3088856,0.01774484,-0.05262649,0.2196658,-0.9847497,2.99455,-12.71682,27.16336,1008.297
3.965541363,-9.091439,1.687009,0.6271519,-0.04588556,0.2352036,-0.9750072,2.99455,-12.71682,27.16336,1008.297
3.997821808,-3.265915,2.097928,0.5662112,-0.05118057,0.224537,-0.9765068,2.632435,-13.07734,27.17349,1008.298
4.032580853,-0.229206,2.508848,0.5052705,-0.03908602,0.2197094,-0.9833284,3.370636,-13.4442,27.6028,1008.298
4.064861298,4.356845,2.508848,0.7490333,-0.03132729,0.2134699,-0.9746787,3.370636,-13.4442,27.6028,1008.3
4.099624634,10.92605,2.039225,0.809974,-0.02168418,0.2212011,-0.986258,2.621111,-13.4475,26.74238,1008.298
4.131904602,11.9796,1.099981,0.9927961,-0.02650339,0.2124585,-0.9916152,3.371297,-13.80872,27.60742,1008.298
4.166667461,9.066843,0.4542505,0.809974,-0.02937151,0.1979275,-0.9931421,3.371297,-13.80872,27.60742,1008.3
4.198948383,3.551188,0.4542505,0.3833891,-0.02935225,0.1921433,-0.9864067,2.995212,-13.08133,27.16797,1008.301
4.231224060,-0.04328496,1.041278,0.5052705,-0.03951903,0.1959726,-0.9902306,3.006536,-12.71118,27.59908,1008.301
4.265987873,3.551188,1.804414,1.35844,-0.02646031,0.1984656,-0.9796089,3.006536,-12.71118,27.59908,1008.299
4.298267841,8.261186,0.9238728,1.967847,-0.04245836,0.208512,-1.000305,2.633097,-13.44186,27.1781,1008.299
4.333030701,17.92908,4.328634,4.588297,-0.03275767,0.1915596,-1.012992,3.019844,-13.43458,28.04404,1008.299
4.365311146,11.05,4.446039,7.696273,-0.07380118,0.1564976,-1.043076,3.019844,-13.43458,28.04404,1008.301
4.400074482,10.80211,-4.065864,9.646377,-0.07670201,0.1662646,-1.014491,2.280982,-12.70321,27.61012,1008.302
4.432351112,16.25579,-6.766191,8.061918,-0.03218205,0.1543148,-1.008371,2.643097,-12.34268,27.59999,1008.302
4.464631081,8.756975,-4.829,5.62429,0.02344531,0.1618851,-0.9634876,2.643097,-12.34268,27.59999,1008.302
4.499393940,-7.418151,-6.824894,3.552306,-0.06747217,0.149852,-1.010254,2.279659,-11.97417,27.60089,1008.302
4.531674385,-35.86406,-5.416028,-4.979393,-0.1142792,0.1046732,-1.022012,3.005213,-11.98215,27.58985,1008.302
4.566437721,-35.43024,-7.529327,-4.430927,-0.05049635,0.1168851,-1.042385,3.005213,-11.98215,27.58985,1008.298
4.598718166,6.897765,-9.29041,-7.965488,-0.0558408,0.1196965,-1.065079,2.643097,-12.34268,27.59999,1008.298
4.630993843,61.80643,-15.74772,-8.879598,-0.136632,0.1153944,-1.123909,3.334018,-13.09659,26.29101,1008.3
4.665757179,86.22405,-24.31832,-14.36426,-0.05010684,0.1726939,-0.9961415,2.971241,-13.0926,26.29652,1008.3
4.698037624,46.43696,-22.43983,-9.306183,-0.1139424,0.1768783,-0.992596,2.971241,-13.0926,26.29652,1008.302
4.732800960,34.59999,-27.31216,-9.306183,-0.1026651,0.1125623,-0.9886349,3.35402,-10.89823,27.13476,1008.299
4.799844742,11.54579,-23.14427,-8.453012,-0.09184516,0.0537287,-0.9372649,3.364682,-10.16356,27.56126,1008.301
4.832120419,-1.034863,-22.49854,-5.893504,-0.1281158,0.0540942,-0.9415357,4.42772,-9.457765,26.66403,1008.301
4.864400864,-4.877231,-23.08556,-5.5888,-0.1333776,0.02988257,-0.941662,4.065604,-9.818292,26.67416,1008.303
4.899164200,-3.51381,-23.61389,-2.663646,-0.1984131,0.120571,-0.9719462,4.065604,-9.818292,26.67416,1008.303
4.931443691,-21.23828,-20.20913,-4.67469,-0.1174945,0.02033714,-1.058743,4.790496,-9.461753,26.65851,1008.303
4.966207981,-1.530653,-13.3409,-3.273053,-0.1620095,0.04452432,-1.023702,5.504065,-9.475365,26.21175,1008.303
4.998487473,-14.6071,-10.22965,-3.273053,-0.2174919,0.01263245,-0.96285,5.504065,-9.475365,26.21175,1008.303
5.033246517,2.931451,-16.21734,0.3224484,-0.2883224,0.1126202,-0.9572945,5.493402,-10.21003,25.78526,1008.303
5.065527439,-20.30867,-18.33064,-0.8963658,-0.2166737,0.06919261,-0.9809009,6.582395,-10.58651,25.77333,1008.299
5.097806931,-15.47473,-11.05149,-1.993298,-0.184198,0.04908473,-0.9443438,6.582395,-10.58651,25.77333,1008.3
5.132570267,-13.67749,-7.764138,-3.394935,-0.22667,0.01411039,-0.9473519,6.571071,-10.95666,25.34222,1008.3
5.164850712,-10.20697,-9.818735,-6.320089,-0.2055084,0.07722443,-0.9049793,6.197632,-11.68734,24.92124,1008.3
5.199614048,-3.51381,-11.34501,-3.455875,-0.1844564,0.1477029,-0.9742392,6.197632,-11.68734,24.92124,1008.3
5.231890678,-20.37065,-8.057652,0.200567,-0.1783273,0.2164617,-0.9670933,6.186308,-12.05749,24.49013,1008.3
5.266653538,-25.08064,-7.529327,3.125721,-0.2150917,0.2304659,-0.9446963,6.899215,-11.70659,24.03875,1008.296
5.298933506,-18.8213,-12.22555,3.735128,-0.235698,0.1617869,-0.916036,6.899215,-11.70659,24.03875,1008.298
5.331213951,-19.00723,-19.6808,8.854147,-0.2096908,0.1995457,-0.9342481,6.888553,-12.44125,23.61226,1008.298
5.365977287,-23.03551,-41.22472,13.91223,-0.2502258,0.1557925,-0.9590648,7.253041,-12.44444,23.66899,1008.301
5.398257732,-15.28881,-24.78794,15.86233,-0.4285787,0.2689192,-1.126757,7.253041,-12.44444,23.66899,1008.301
5.433016777,-87.48812,-16.98047,11.29178,-0.5541819,-0.02459181,-1.23838,7.592509,-12.82421,22.79663,1008.303
5.465296745,-58.60839,-25.02276,-15.88778,-0.6793379,-0.1931527,-1.035541,7.194437,-13.20164,21.49959,1008.299
5.500059605,5.844213,-4.770297,-15.58308,-0.5931112,-0.1170539,-1.215133,7.525889,-15.77414,20.2192,1008.299
5.532394886,-56.87313,11.37297,-31.36672,-0.6332885,-0.07043465,-1.13308,7.525889,-15.77414,20.2192,1008.299
5.564674854,-39.83037,14.42551,-44.77367,-0.7315244,-0.1745818,-0.9376678,7.876019,-15.41925,19.77334,1008.299
5.599438190,-42.86708,15.54086,-57.02275,-0.7513157,-0.1583707,-0.8495471,6.404248,-17.23714,18.94703,1008.297
5.631714344,-33.32314,13.42756,-61.59331,-0.6708413,0.01809621,-0.6804805,6.404248,-17.23714,18.94703,1008.296
5.666477680,-55.94353,19.18044,-70.36877,-0.6536816,-0.07470416,-0.6617076,5.271673,-18.34046,17.29676,1008.297
5.698757648,-42.18537,11.72518,-75.73155,-0.6134233,0.0998441,-0.5965046,4.1154,-20.5494,14.72664,1008.297
5.731038094,-61.6451,9.142262,-82.2522,-0.5754541,0.228983,-0.5059326,4.1154,-20.5494,14.72664,1008.292
5.765800953,-80.11326,9.964101,-89.80885,-0.5947853,0.2270165,-0.4986505,3.323616,-22.76152,12.21326,1008.292
5.798080921,-73.29616,9.846695,-91.08861,-0.5524749,0.3277806,-0.5025197,2.545412,-26.79139,10.09643,1008.293
5.832840919,-90.40089,11.54908,-93.03871,-0.5337414,0.3854695,-0.4882124,2.545412,-26.79139,10.09643,1008.293
5.865120888,-86.31062,4.856959,-93.83094,-0.4853935,0.4276056,-0.3759192,2.514748,-29.72441,8.826176,1008.293
5.899883747,-80.42313,-1.072022,-99.19373,-0.4667946,0.5502179,-0.3385208,2.872816,-33.74371,8.435707,1008.289
5.932164192,-74.47366,-2.011266,-98.34055,-0.4081197,0.6717265,-0.3751811,2.872816,-33.74371,8.435707,1008.289
5.964444160,-69.08195,-5.88565,-91.27143,-0.3914802,0.7971616,-0.3600006,4.717837,-37.7013,9.329589,1008.288
5.999207497,-85.31905,-12.98869,-80.36304,-0.4177409,0.8639051,-0.3489289,7.333156,-39.88251,11.93304,1008.288
6.031483650,-92.07417,-24.84665,-68.1749,-0.3705336,0.9160705,-0.4178658,7.333156,-39.88251,11.93304,1008.288
6.066246986,-93.87141,-28.0166,-59.82603,-0.3214424,0.7594181,-0.5614766,11.39522,-40.62241,14.43371,1008.282
6.098527432,-69.08195,-25.60978,-57.81498,-0.3730162,0.6851898,-0.57339,14.31943,-39.5495,15.24719,1008.284
6.133290768,-62.63668,-31.18655,-59.15568,-0.5209948,0.6969272,-0.5546337,14.31943,-39.5495,15.24719,1008.285
6.165570736,-62.45076,-37.40904,-61.10578,-0.6129378,0.7085941,-0.6041634,16.15331,-37.37109,16.06338,1008.289
6.197851181,-68.89603,-36.88072,-66.5295,-0.6774859,0.6156075,-0.5711957,17.5513,-34.5542,14.26225,1008.289
6.232610225,-36.79366,-38.28959,-68.29678,-0.6928973,0.6021377,-0.5344978,17.5513,-34.5542,14.26225,1008.286
6.264890194,0.700399,-35.70667,-62.01989,-0.7723914,0.697381,-0.4936595,17.8113,-29.86376,10.77316,1008.292
6.299654007,22.5771,-42.39878,-45.13932,-0.7095661,0.9456103,-0.4106824,19.47712,-26.66987,5.537562,1008.293
6.331933498,22.63907,-37.05683,-28.50251,-0.7727615,1.065724,-0.4702931,19.47712,-26.66987,5.537562,1008.295
6.366696834,3.923029,-38.52439,-11.68287,-0.8617206,1.06357,-0.4594779,20.46825,-25.99788,2.02597,1008.294
6.398977280,-10.76473,-40.6964,-4.552808,-0.952509,0.8092495,-0.4597614,21.1336,-24.93968,-0.1152961,1008.294
6.431253433,12.10355,-47.32981,-1.871417,-1.077875,0.6671858,-0.4346767,21.1336,-24.93968,-0.1152961,1008.296
6.466016292,20.84184,-47.27111,-1.26201,-0.9975616,0.641211,-0.4562688,21.43777,-25.70087,-2.290214,1008.3
6.498296738,-3.079994,-36.70461,-5.405978,-0.8833398,0.3659218,-0.5344636,20.29427,-26.4445,-4.318576,1008.303
6.533060074,3.737108,-28.95584,-4.67469,-0.8767047,0.2266486,-0.5115812,19.88355,-26.46305,-6.055968,1008.306
6.565340042,15.38816,-27.31216,-6.868555,-0.8514046,0.198534,-0.4039889,19.88355,-26.46305,-6.055968,1008.306
6.600102901,20.90381,-14.74977,-12.7798,-0.959994,0.117479,-0.3829444,19.47415,-27.21063,-7.784128,1008.306
6.632379532,26.48144,-24.14221,-14.36426,-1.038093,0.2677165,-0.2513934,18.73661,-27.20829,-8.208824,1008.308
6.664659500,14.70645,-27.54698,-18.87387,-1.036427,0.185538,-0.2267254,18.73661,-27.20829,-8.208824,1008.311
6.699423313,29.70407,-30.07119,-21.55527,-1.076483,0.1696191,-0.1779023,19.08608,-26.48888,-8.659298,1008.315
6.731703281,26.04763,-31.59747,-14.30332,-1.043079,0.3364681,-0.236972,19.10005,-27.57679,-8.209723,1008.315
6.766466141,-19.13117,-28.48622,-7.173259,-0.9110445,0.3169208,-0.2620231,19.10005,-27.57679,-8.209723,1008.314
6.798746586,-28.98499,-29.83638,-5.040334,-0.908953,0.253074,-0.2546556,19.79202,-27.96538,-9.461073,1008.316
6.831022739,-23.09749,-21.91151,-1.871417,-0.9182431,0.2760781,-0.3130009,19.40462,-27.60815,-10.33163,1008.319
6.865785599,-39.27261,-14.69107,-2.785527,-0.8685182,0.3120492,-0.3075857,19.40462,-27.60815,-10.33163,1008.322
6.898066044,-30.22446,-17.21529,-6.259148,-0.869921,0.2985606,-0.2883218,18.63046,-27.25819,-12.06812,1008.322
6.932829380,-15.66065,-15.10199,-10.28123,-0.864729,0.3708614,-0.2347436,18.24305,-26.90096,-12.93867,1008.324
6.965109348,-13.11973,-13.98663,-13.51109,-0.8569336,0.5699678,-0.1780329,18.24305,-26.90096,-12.93867,1008.324
6.999872208,-80.98089,-14.57366,-11.1344,-0.887428,0.5907651,-0.1556107,18.94463,-26.9202,-13.82116,1008.327
7.032265663,-74.47366,-21.14837,-5.345037,-0.9033513,0.1794937,-0.1235907,18.89642,-25.84839,-15.51567,1008.33
7.064546108,-12.99578,-15.98253,0.200567,-0.9316886,0.2769165,-0.1969418,18.89642,-25.84839,-15.51567,1008.334
7.099309444,-36.91761,-13.45831,4.953942,-0.9388834,0.4730471,-0.1489176,18.86112,-26.22981,-16.81823,1008.334
7.131588936,-53.77445,-8.879491,4.649238,-1.033186,0.278286,-0.1353186,18.81318,-26.25235,-18.56114,1008.333
7.166352272,-30.03854,-11.1102,-2.298002,-1.054917,0.2934926,-0.05638476,18.81318,-26.25235,-18.56114,1008.335
7.198632717,-22.66367,-11.2276,-12.71886,-1.09113,0.255979,-0.1000295,18.76458,-25.91037,-20.30866,1008.338
7.233391762,-1.530653,-15.57161,-26.18676,-0.9901043,0.2869093,-0.05462812,19.08047,-25.57158,-21.99945,1008.34
7.265671730,-2.646179,-9.70133,-30.20885,-1.018852,0.3636185,-0.09957325,19.08047,-25.57158,-21.99945,1008.34
7.297952175,-14.6071,-12.63647,-29.29473,-0.9978197,0.2820889,-0.04255294,18.70372,-24.47968,-22.44351,1008.342
7.332715511,-13.61552,-16.39345,-18.50823,-0.8863121,0.3725074,-0.01617345,18.69173,-24.48531,-22.87924,1008.339
7.364995479,-57.80273,-12.28425,-15.09555,-0.9331472,0.3404062,-0.0244735,18.69173,-24.48531,-22.87924,1008.341
7.399759292,-53.8984,-11.34501,-18.69105,-0.9453802,-0.0168605,-0.05306765,20.12887,-23.41335,-23.35088,1008.343
7.432034969,-29.04696,0.7477645,-21.55527,-0.9613198,0.1844505,-0.0398027,18.61652,-22.69654,-25.51668,1008.343
7.466798305,-37.10353,-8.057652,-27.10087,-1.05772,0.09505018,0.07882266,18.24109,-22.33367,-25.95151,1008.344
7.499078750,-0.9109162,-11.99074,-21.61621,-1.041463,0.1324538,-0.03605811,18.24109,-22.33367,-25.95151,1008.346
7.531358242,-22.16788,4.269931,-26.2477,-1.042185,0.2204029,-0.07229783,19.6673,-20.90202,-26.80124,1008.348
7.566121578,-26.07222,13.25146,-31.06202,-0.9534481,0.1122198,-0.08373985,19.67796,-20.16736,-26.37474,1008.344
7.598402023,5.224476,4.974364,-27.83216,-0.9863474,0.1545651,0.01616021,19.67796,-20.16736,-26.37474,1008.344
7.633161068,49.96946,-20.85486,-17.22848,-0.8626196,0.1512497,-0.06727676,20.40351,-20.17533,-26.38577,1008.345
7.665441036,36.58315,11.90129,-14.05956,-0.8660328,0.3592488,-0.09025867,21.51383,-19.08249,-25.54471,1008.347
7.700204372,8.137239,-0.19148,-15.27837,-0.8738362,0.2231473,0.0240427,21.51383,-19.08249,-25.54471,1008.349
7.732484817,35.65355,-17.5675,-11.1344,-0.9125425,0.04364851,0.06758186,21.55006,-20.15993,-24.28593,1008.347
7.764764786,56.16683,-14.63236,-9.123361,-0.9839965,0.2187994,0.1194928,21.93482,-19.0591,-23.43384,1008.347
7.799527645,14.3346,-28.36881,-12.29228,-1.000876,0.2135605,0.158658,21.93482,-19.0591,-23.43384,1008.348
7.831804275,0.2046097,-29.66027,-17.77694,-0.9450474,0.09246707,0.0780817,22.64971,-19.80175,-23.87137,1008.35
7.866567612,9.314737,-29.66027,-17.53318,-0.9102729,0.104614,0.06308922,22.98918,-20.18152,-24.74372,1008.354
7.898847103,6.278028,-51.61512,-7.356081,-0.8660789,0.07767844,0.2170578,22.98918,-20.18152,-24.74372,1008.351
7.965890884,-10.8267,-23.37908,3.186661,-0.8857839,0.1933991,0.1094679,22.56752,-19.84039,-26.85921,1008.353
8.032929897,33.67039,2.215334,16.95926,-1.39941,0.1147912,-0.2331135,21.80734,-20.57834,-28.14613,1008.352
8.065210342,19.91223,-6.237866,3.735128,-1.402495,0.303141,0.08606675,22.87038,-19.87255,-29.04336,1008.354
8.099973679,-7.046309,-10.22965,-0.1041366,-1.166261,0.2149923,0.1498372,22.87038,-19.87255,-29.04336,1008.356
8.132253647,-22.72565,-6.590083,0.5052705,-0.8259643,0.03666324,0.07509056,22.51024,-21.32662,-29.01938,1008.356
8.164534092,-3.761704,-0.8959134,2.577255,-0.7695083,0.1164743,0.159541,22.50958,-20.9621,-29.024,1008.361
8.199296951,-15.22683,-4.124566,2.638195,-1.484937,0.05327568,0.2511266,22.50958,-20.9621,-29.024,1008.359
8.231573105,-7.604072,-8.879491,-1.383891,-0.7972345,-0.08556883,-0.03298975,23.58394,-19.88616,-29.49012,1008.36
8.266335964,-0.1052586,-7.118408,4.649238,-0.9955382,0.2165858,0.1900872,23.22183,-20.24669,-29.47999,1008.362
8.298616886,1.134215,-7.177111,3.857009,-1.006759,0.06274683,0.213892,23.22183,-20.24669,-29.47999,1008.362
8.333379745,-0.04328496,-6.061758,3.003839,-1.011292,0.1157405,0.1474885,23.20918,-19.8878,-29.92033,1008.36
8.365659714,0.9482936,-6.53138,1.419381,-0.9822892,0.1284858,0.171187,22.85839,-19.87818,-29.47909,1008.361
8.397940159,7.021712,-6.472677,1.35844,-0.9891143,0.1448513,0.1509903,22.47164,-19.88546,-30.34502,1008.363
8.432699203,-2.460258,-5.88565,2.942899,-0.9739351,0.07091201,0.167941,22.47164,-19.88546,-30.34502,1008.361
8.464979172,-3.327889,-5.650838,4.222653,-0.9909173,0.1023861,0.1879776,22.83508,-20.25397,-30.34592,1008.361
8.499742985,-0.9728899,-4.41808,4.344535,-0.9982438,0.1416439,0.211905,22.47164,-19.88546,-30.34502,1008.363
8.532022953,-0.9109162,-2.422186,4.405476,-0.9770025,0.1415606,0.1693162,22.47164,-19.88546,-30.34502,1008.364
8.566785812,-1.282758,-4.124566,3.552306,-0.9890304,0.1090373,0.1498196,22.10887,-19.88147,-30.33951,1008.366
8.599065781,-1.840521,-2.891808,2.394432,-0.9711769,0.1397184,0.1920148,22.83376,-19.52493,-30.35516,1008.366
8.631342411,0.3905306,-2.422186,1.906907,-0.9851676,0.1173324,0.1667788,22.83376,-19.52493,-30.35516,1008.366
8.666105747,-0.2911796,-1.952564,2.333492,-0.9900107,0.1246168,0.1784332,22.10887,-19.88147,-30.33951,1008.364
8.698385239,1.134215,-0.1327773,3.06478,-0.9924117,0.1261453,0.2031025,21.74543,-19.51297,-30.33861,1008.365
8.733148575,2.993425,2.56755,2.760077,-0.9881356,0.155164,0.1945564,21.74543,-19.51297,-30.33861,1008.367
8.765429020,1.691978,4.504742,2.028788,-0.9900039,0.1158488,0.161463,22.08661,-19.89194,-31.14872,1008.365
8.800192356,6.401976,7.733396,0.9927961,-0.9866927,0.1570907,0.1906967,22.47098,-19.52095,-30.34964,1008.365
8.832468033,7.455528,10.96205,0.5662112,-0.9817564,0.116963,0.1977095,22.47098,-19.52095,-30.34964,1008.365
8.864748478,5.906187,15.71697,-1.079188,-0.989544,0.1504483,0.2322408,22.48363,-19.87983,-29.9093,1008.365
8.899511814,13.77684,19.12173,0.9318554,-0.993447,0.1390546,0.1577349,22.48495,-20.60886,-29.90006,1008.365
8.931791782,17.61921,20.94152,0.5662112,-0.9837678,0.1239674,0.1242709,22.48495,-20.60886,-29.90006,1008.361
8.966554642,28.03078,21.82206,0.5052705,-0.9924892,0.1346201,0.1335356,22.85971,-20.60721,-29.46985,1008.361
8.998835087,23.19684,20.70671,1.480322,-0.9929703,0.1185033,0.09041899,23.24778,-21.32896,-28.59468,1008.361
9.031111240,32.12105,14.30811,0.809974,-0.9907209,0.1744985,0.04722305,23.24778,-21.32896,-28.59468,1008.362
9.065874100,11.42184,13.66238,-1.444832,-0.9683942,0.1299506,0.02033251,23.99731,-21.32567,-27.73426,1008.358
9.098154545,10.1204,9.024857,1.236559,-1.011898,0.1538351,0.1080645,24.3867,-22.77645,-26.84986,1008.36
9.132917881,-17.45788,6.618042,2.394432,-0.9862909,0.1176603,-0.02127453,24.3867,-22.77645,-26.84986,1008.36
9.165197849,-7.23223,-0.8959134,1.175618,-1.000463,0.20496,0.04790069,24.38802,-23.50549,-26.84063,1008.36
9.199960708,-26.56801,-3.596241,2.760077,-0.9915602,0.1300677,0.07452822,24.40001,-23.49985,-26.4049,1008.36
9.232237339,-3.51381,-5.063811,2.516314,-1.000327,0.1522609,0.06210391,24.40001,-23.49985,-26.4049,1008.356
9.264517307,-9.587229,-3.478836,0.7490333,-0.9897429,0.1867633,0.09563454,24.7375,-22.78608,-27.2911,1008.356
9.299280643,-16.21841,-0.0153717,0.1396262,-0.9876716,0.1262532,0.08803445,24.37406,-22.41757,-27.2902,1008.358
9.331561088,-10.51683,1.628306,-0.7135436,-0.9979396,0.1604487,0.04860904,23.98731,-22.42485,-28.15614,1008.358
9.366323948,-3.327889,-1.482941,-2.054239,-0.9911596,0.1678417,0.08247717,23.98731,-22.42485,-28.15614,1008.354
9.398603916,-9.153413,-1.424238,-1.140128,-0.989657,0.1465595,0.08428667,23.99863,-22.0547,-27.72503,1008.354
9.433362961,-6.364599,-0.6023995,-0.8963658,-0.9978852,0.1494347,0.08287045,23.98664,-22.06034,-28.16076,1008.357
9.465643406,-10.20697,1.099981,-2.11518,-0.9911221,0.1567572,0.09595035,23.98664,-22.06034,-28.16076,1008.356
9.497923374,-3.451836,1.5109,-1.079188,-0.9905767,0.1272062,0.08611237,24.33611,-21.34093,-28.61123,1008.356
9.532686710,-5.187099,2.097928,-0.7744843,-0.9833554,0.1427323,0.09198635,23.97334,-21.33694,-28.60571,1008.356
9.564967155,-0.04328496,1.863117,-0.4088401,-0.9848175,0.1465897,0.08911081,23.97334,-21.33694,-28.60571,1008.356
9.599730492,0.328557,2.450145,-0.226018,-0.9964243,0.1455723,0.08429565,24.32479,-21.71108,-29.04234,1008.358
9.632006168,-0.3531533,0.9825755,0.200567,-0.9997975,0.1377919,0.07604022,24.32479,-21.71108,-29.04234,1008.354
9.666769504,1.877899,-0.6023995,0.7490333,-0.9916059,0.1499137,0.07609149,24.32479,-21.71108,-29.04234,1008.356
9.699049950,-3.141968,-1.717752,1.35844,-0.9911059,0.1436305,0.07798844,24.71154,-21.7038,-28.1764,1008.356
9.731329441,-4.133547,-0.6611022,1.35844,-0.9944817,0.1465899,0.09735009,24.69889,-21.34492,-28.61674,1008.357
9.766092777,1.010267,0.86517,0.9927961,-0.9920702,0.1475483,0.09251596,24.69889,-21.34492,-28.61674,1008.353
9.798372745,0.700399,1.217387,0.6880926,-0.9993507,0.1571882,0.08726864,24.3481,-21.33529,-28.1755,1008.355
9.833131790,1.877899,0.4542505,0.4443298,-1.001781,0.1590825,0.07713243,24.3481,-21.33529,-28.1755,1008.357
9.865412235,-1.034863,-0.1327773,0.3833891,-1.000771,0.1426481,0.0818712,24.3481,-21.33529,-28.1755,1008.357
9.900175571,-0.6630216,-0.7785078,0.809974,-0.9954755,0.1542956,0.08724384,24.68757,-21.71507,-29.04786,1008.355
9.932455540,0.142636,-1.365536,0.4443298,-0.9949729,0.1494889,0.09640076,24.32413,-21.34656,-29.04696,1008.355
9.964735985,1.382109,-0.19148,0.07868555,-0.9877298,0.1528889,0.09398729,24.32413,-21.34656,-29.04696,1008.357
9.999498844,2.497635,0.5716561,0.200567,-0.9910941,0.142702,0.08958566,23.97268,-20.97242,-28.61033,1008.355
10.031774998,1.815925,0.8064672,-0.1041366,-0.9978824,0.1509127,0.09061386,24.67558,-21.7207,-29.48358,1008.355
10.066537857,2.001846,0.8064672,0.3224484,-0.9993395,0.1543026,0.09257004,24.67558,-21.7207,-29.48358,1008.356
10.098818302,0.7623726,0.2194394,0.200567,-0.9944912,0.1470395,0.08720046,24.69955,-21.70943,-28.61213,1008.355
10.131098270,2.06382,-1.130724,0.3224484,-1.001778,0.158118,0.07809382,24.33744,-22.06996,-28.602,1008.358
10.165861606,3.055398,-1.482941,0.2615077,-0.9993392,0.1484398,0.07609978,24.33744,-22.06996,-28.602,1008.356
10.198142052,-0.7249953,-2.598294,-0.226018,-0.9949723,0.1470479,0.09010217,24.34876,-21.69981,-28.17089,1008.356
10.232901096,-9.959071,-5.239919,-0.226018,-1.018736,0.1799201,0.1000091,24.69955,-21.70943,-28.61213,1008.357
10.265181064,-6.302625,-7.705435,-0.3478994,-1.004693,0.1624519,0.07425722,25.05167,-22.44809,-29.04414,1008.359
10.299944401,-19.19315,-8.292463,-1.688595,-0.9945481,0.1751467,0.09896293,25.05167,-22.44809,-29.04414,1008.361
10.332223892,-15.97052,-9.760033,-1.566713,-0.9944967,0.1523922,0.0959328,23.97334,-21.33694,-28.60571,1008.357
10.364504337,-27.99341,-11.1102,-2.176121,-1.010448,0.1523678,0.1022517,23.59792,-20.97407,-29.04054,1008.359
10.399267673,-25.32854,-11.34501,-3.151172,-0.9867268,0.1525519,0.1365258,23.59792,-20.97407,-29.04054,1008.359
10.431543350,-24.15104,-12.16685,-1.749536,-1.000709,0.1253135,0.1073947,23.58461,-20.25067,-29.4855,1008.359
10.466306686,-17.45788,-15.04328,0.6880926,-1.006501,0.1263205,0.1238499,23.53705,-19.54338,-31.17539,1008.36
10.498587131,-30.10051,-13.63442,2.333492,-0.9977169,0.09833319,0.1401087,23.53705,-19.54338,-31.17539,1008.362
10.533350468,-18.01565,-11.87333,3.796069,-0.99668,0.08836347,0.1961287,23.16097,-18.81599,-31.61484,1008.36
10.565630436,1.072241,-8.996897,6.111815,-0.9508901,0.1680278,0.2462772,22.43475,-18.4435,-31.60842,1008.36
10.597910881,-31.09209,1.393495,8.610385,-0.9053511,0.1294189,0.2387079,22.43475,-18.4435,-31.60842,1008.361
10.632669926,-6.798414,1.804414,6.599341,-1.026674,0.06671955,0.1177532,22.43475,-18.4435,-31.60842,1008.361
10.664949894,-11.69433,5.796203,8.366622,-0.9429531,0.2851358,0.2391909,22.05867,-17.71611,-32.04787,1008.363
10.699712753,-38.15709,7.087664,11.96212,-0.9782711,0.2224057,0.03634953,22.05867,-17.71611,-32.04787,1008.361
10.731992721,-38.83879,2.274037,9.402614,-1.12947,0.1903482,0.1293133,21.68523,-18.44679,-32.46884,1008.361
10.766756058,-7.542098,-9.70133,-2.419883,-1.184786,-0.1178863,0.1832754,21.68324,-17.35324,-32.48269,1008.361
10.799036503,24.68421,-19.09377,-6.320089,-1.01466,0.0898975,0.09272029,21.68324,-17.35324,-32.48269,1008.362
10.831312180,7.145659,-13.10609,2.333492,-0.8210408,0.4806594,0.2845162,20.93174,-16.26299,-33.35696,1008.364
10.866075516,-36.73169,-9.29041,8.732266,-0.9352866,0.07087682,0.1248315,21.31915,-16.62022,-32.48641,1008.364
10.898355961,-18.32552,-14.28015,7.39157,-1.127705,0.06753115,0.1571341,21.31915,-16.62022,-32.48641,1008.364
10.933119297,-1.406705,-14.69107,6.355578,-1.032279,0.2262886,0.2284132,20.20684,-16.61953,-33.34132,1008.36
10.965398788,-11.32249,-10.11225,7.818155,-0.8295316,0.1585537,0.2039026,20.21817,-16.24937,-32.9102,1008.362
11.000162125,-17.27196,-4.535486,10.37766,-0.9624026,0.1498085,0.3061448,20.21817,-16.24937,-32.9102,1008.362
11.032437801,-4.815257,-5.944352,6.355578,-1.056135,0.09072446,0.2291441,18.75441,-15.87454,-33.32848,1008.362
11.064718246,8.571054,-9.349113,4.100772,-1.032597,0.1311965,0.1568077,19.12851,-15.50838,-32.90289,1008.362
11.099481583,10.61618,-8.762085,6.050875,-0.930252,0.230975,0.2398225,18.39097,-15.50604,-33.32758,1008.359
11.131761551,9.8725,-6.061758,5.197705,-0.8923353,0.1488379,0.2460418,18.39097,-15.50604,-33.32758,1008.361
11.166524410,13.03316,-1.600347,2.455373,-0.8614276,0.1883457,0.3114641,17.71402,-15.84004,-31.56903,1008.361
11.198805332,13.59092,0.86517,-2.846468,-0.9540969,0.1047398,0.2802484,17.32794,-16.21183,-32.43035,1008.363
11.231081009,36.4592,1.452198,-9.306183,-0.9300631,0.1643206,0.2771513,17.32794,-16.21183,-32.43035,1008.357
11.265843868,25.73776,3.859012,-11.37817,-0.949587,0.229481,0.2437231,17.35323,-16.9296,-31.54967,1008.357
11.298123836,41.04525,6.265825,-10.58594,-0.974439,0.2975216,0.2079057,17.74064,-17.28683,-30.67911,1008.359
11.332887173,19.23052,13.66238,-7.782666,-1.013156,0.3085119,0.1993497,17.74064,-17.28683,-30.67911,1008.362
11.365167618,11.48382,13.89719,-3.151172,-1.022249,0.297637,0.2824589,17.75157,-17.64651,-30.30102,1008.36
11.399930954,11.05,-4.476783,9.768258,-1.039166,0.3733608,0.5082084,18.12766,-18.3739,-29.86157,1008.36
11.432206631,41.85091,-23.67259,31.46315,-0.9115189,0.3463244,0.4188268,18.12766,-18.3739,-29.86157,1008.36
11.464487076,55.29919,-27.89919,43.10282,-0.9529222,0.4446449,0.3358402,17.75356,-18.74006,-30.28717,1008.362
11.499250412,25.86171,-48.26906,45.72327,-0.8315173,0.143186,0.09746296,17.04264,-20.18451,-29.82195,1008.363
11.531529903,49.34972,-28.54492,36.64311,-0.7113617,0.05850159,0.1392651,17.04264,-20.18451,-29.82195,1008.363
11.566293239,55.11327,-8.64468,32.4382,-0.7502789,0.1659083,0.1650985,14.12081,-21.62113,-30.56857,1008.359
11.598573208,12.2275,-64.17751,42.85906,-0.9582929,0.2709848,0.3604866,11.59732,-23.77468,-30.06654,1008.359
11.633332252,24.06447,-23.43778,32.92572,-0.8145075,0.3121334,0.1003207,11.59732,-23.77468,-30.06654,1008.361
11.665612698,-98.39548,-3.009213,22.20016,-0.9917989,0.08416773,0.2391204,10.81515,-25.61745,-32.21106,1008.361
11.697892666,58.76972,-4.241972,34.44924,-1.144415,0.2725849,0.4189095,8.241742,-26.69998,-33.46579,1008.364
11.732656002,-39.70642,1.980523,21.52981,-1.129346,0.4107116,0.3249084,8.241742,-26.69998,-33.46579,1008.366
11.764936447,7.641449,-0.19148,12.99812,-0.9914529,0.1085219,0.1425704,7.492218,-26.70327,-34.32621,1008.366
11.799699306,10.18237,4.093822,12.63247,-0.8303923,0.5996773,0.4273441,7.50288,-25.96861,-33.89971,1008.368
11.831975460,-27.86946,2.156631,12.32777,-0.7553246,0.2998961,0.2949493,7.50288,-25.96861,-33.89971,1008.364
11.866738319,33.36052,1.158684,22.87051,-0.7308982,0.6038784,0.297592,7.539498,-26.31622,-32.58792,1008.365
11.899018288,-6.798414,5.09177,29.57399,-0.780365,0.6485822,0.2505758,6.813283,-25.94373,-32.5815,1008.367
11.931298733,-10.26894,11.02075,34.20548,-0.8040443,0.6280503,0.2094178,6.813283,-25.94373,-32.5815,1008.367
11.966062069,-35.36827,12.95794,27.07542,-0.8394085,0.4850343,0.305852,6.451829,-26.66877,-32.56676,1008.367
11.998342037,-4.939204,10.90335,19.39689,-0.8098156,0.4351856,0.2793991,5.351512,-26.66244,-32.98594,1008.369
12.033101082,-8.037888,5.561392,8.000978,-0.8440894,0.4143145,0.2899899,5.702304,-26.67206,-33.42718,1008.367
12.065381050,-1.840521,-1.365536,-8.635835,-0.8853194,0.2900783,0.363822,5.702304,-26.67206,-33.42718,1008.368
12.097661495,33.36052,-4.711594,-16.19248,-0.8691136,0.3741814,0.3207557,6.051772,-25.95265,-33.87765,1008.368
12.132424355,32.30697,-3.596241,-14.30332,-0.831365,0.5434543,0.2592733,6.063758,-25.94702,-33.44193,1008.368
12.164704323,12.41342,2.684956,-6.990437,-0.8488715,0.5703604,0.2169214,6.063758,-25.94702,-33.44193,1008.37
12.199467659,19.35447,13.83848,9.707317,-0.8677085,0.7394273,0.1425069,7.166059,-27.0469,-33.0089,1008.368
12.231743812,-41.56564,24.17017,25.36908,-0.9160113,0.7380371,0.2015826,6.814606,-26.67276,-32.57227,1008.368
12.266507149,-62.94655,16.89103,38.59321,-0.9683123,0.6281503,0.3780091,6.814606,-26.67276,-32.57227,1008.368
12.298787117,-34.43866,-2.480888,50.53759,-0.8700761,0.4729085,0.6094487,6.42852,-27.04455,-33.43359,1008.368
12.331067085,37.82262,-0.3675884,63.03043,-1.04661,1.033581,0.4157741,6.75071,-24.51384,-34.7786,1008.368
12.365829944,-70.44537,7.263772,65.04147,-0.9708992,0.6362382,0.1962877,6.75071,-24.51384,-34.7786,1008.364
12.398110390,26.29552,11.43167,66.99158,-0.776176,0.7261068,0.2756629,4.948812,-24.48826,-34.31529,1008.365
12.432869911,9.500659,24.52239,74.91387,-0.8409139,0.8663595,0.1625084,2.780828,-22.63611,-33.86955,1008.364
12.465149402,44.14394,35.91072,86.61449,-0.7592446,0.8702959,0.1125606,2.780828,-22.63611,-33.86955,1008.364
12.499912739,44.26788,45.47928,96.60876,-0.7824717,0.8716256,0.09618128,0.6654158,-23.31304,-31.6486,1008.364
12.532192707,78.72523,56.6328,98.98545,-0.8433574,0.8413234,0.05939887,-2.106673,-23.21996,-26.87372,1008.358
12.564473152,112.4389,67.49282,95.99935,-0.8380526,1.072863,0.1211338,-2.106673,-23.21996,-26.87372,1008.358
12.599236011,98.30891,73.187,93.01326,-0.8408403,1.027879,0.1295859,-4.053482,-24.94119,-20.78054,1008.358
12.631512165,118.2644,76.59175,92.22103,-0.8009363,1.136501,0.1620245,-4.956469,-28.85519,-14.23956,1008.358
12.666275024,91.80168,67.49282,83.68933,-0.7721592,0.83908,0.1941121,-4.956469,-28.85519,-14.23956,1008.356
12.698554993,131.4648,58.27649,76.86398,-0.6238137,0.8815914,0.1896831,-4.839067,-35.00205,-10.3018,1008.352
12.733318329,110.7036,52.2301,67.90569,-0.4691712,0.8914258,0.104804,-4.418926,-41.12032,-8.548956,1008.352
12.765598774,115.6615,40.95916,55.41285,-0.2958411,0.7784865,0.04625903,-4.418926,-41.12032,-8.548956,1008.35
12.797878742,139.7693,26.51828,45.54045,-0.200055,0.7344737,-0.02768035,-4.379001,-43.29051,-7.214079,1008.35
12.832637787,154.7669,17.77157,36.70405,-0.116726,0.8516271,-0.08520646,-4.293781,-43.9801,-4.15476,1008.346
12.864918232,127.2506,7.263772,29.1474,-0.1377232,0.9074051,-0.1728299,-4.293781,-43.9801,-4.15476,1008.345
12.899680614,107.8529,-13.51701,17.14208,-0.1647421,0.668174,-0.2012045,-4.166028,-43.55521,0.5091257,1008.343
12.931961060,140.575,-30.59952,7.940036,-0.1640701,0.5419018,-0.335353,-4.811381,-42.41505,3.49415,1008.341
12.966724396,156.4402,-47.44722,6.660282,-0.1146121,0.6564208,-0.4276287,-5.057341,-41.62649,7.785456,1008.335
12.999004364,143.4877,-51.2042,4.77112,-0.1171177,0.640901,-0.5785443,-5.057341,-41.62649,7.785456,1008.335
13.031280994,111.8192,-45.74484,5.68523,-0.09281607,0.5603661,-0.6593055,-3.853787,-39.0305,12.09387,1008.334
13.066043854,103.5147,-39.40494,8.976028,-0.1099861,0.4410881,-0.7136084,-3.038032,-36.80711,15.47871,1008.334
13.098323822,100.7259,-32.41931,17.44678,-0.128803,0.4069986,-0.7611387,-3.038032,-36.80711,15.47871,1008.334
13.133087158,93.41299,-24.43573,24.08932,-0.1266745,0.2993246,-0.8347547,-2.973014,-33.91874,17.99466,1008.332
13.165366649,85.54234,-13.04739,29.39116,-0.1807387,0.2575291,-0.841644,-1.53972,-30.99536,19.6795,1008.332
13.197647095,66.76432,1.980523,32.80384,-0.2459468,0.2327128,-0.8266579,-1.53972,-30.99536,19.6795,1008.332
13.232406616,69.73905,14.66032,33.23043,-0.2906335,0.1164758,-0.8170704,-1.532366,-28.43812,20.08292,1008.326
13.264686107,87.33958,27.86845,34.99771,-0.2732385,0.09888139,-0.8829556,-0.7768095,-25.14855,21.33752,1008.324
13.299449444,68.37563,45.71409,38.16663,-0.3861323,0.2227153,-0.8022407,-0.7768095,-25.14855,21.33752,1008.323
13.331729412,45.81723,57.21983,34.99771,-0.4013003,0.08417737,-0.8295848,0.7285435,-22.95004,23.40415,1008.323
13.366492271,51.45683,64.7338,29.02552,-0.4378327,0.00580693,-0.7912766,0.3864295,-21.1122,24.25804,1008.323
13.398772240,48.72999,66.49488,28.59893,-0.4737666,0.04612531,-0.8586514,0.3864295,-21.1122,24.25804,1008.317
13.431048870,13.46697,65.90785,22.32204,-0.4410277,-0.09896882,-0.8619642,0.4304018,-18.90257,25.97326,1008.317
13.465811729,22.63907,65.37952,18.42184,-0.4728299,-0.1464867,-0.8626492,-0.2858124,-17.4309,26.40155,1008.315
13.498091698,44.20591,55.57616,10.62143,-0.385841,-0.1400893,-0.9048595,-0.2858124,-17.4309,26.40155,1008.315
13.532855034,50.46525,48.70793,7.208748,-0.1685763,-0.03333054,-1.001409,-0.9887185,-16.68262,27.2748,1008.313
13.565135002,49.72157,48.47312,-0.6526029,-0.1968606,-0.1789985,-1.122552,-1.693337,-15.93514,28.08581,1008.313
13.599897861,110.8276,40.48954,-3.151172,-0.1276674,-0.01495244,-1.182198,-1.693337,-15.93514,28.08581,1008.315
13.632174492,86.59589,43.30728,1.602203,0.0150435,0.2114425,-1.041021,-2.350412,-13.7351,28.50396,1008.311
13.664454460,9.996448,46.71204,1.419381,-0.1583379,-0.07351344,-1.015195,-3.033978,-10.42395,30.21635,1008.311
13.699217319,62.98393,19.35654,4.100772,-0.08546045,0.02825571,-0.8910134,-3.033978,-10.42395,30.21635,1008.311
13.731497288,-12.0042,10.49243,6.964985,0.05023589,-0.09177843,-0.8692668,-3.400062,-8.59738,30.19878,1008.311
13.766260624,34.1042,-0.0153717,10.43861,-0.06473061,-0.230892,-1.125066,-3.7535,-7.129693,30.62156,1008.311
13.798541069,0.9482936,-8.23376,6.599341,0.07639904,-0.1667448,-1.022033,-3.7535,-7.129693,30.62156,1008.311
13.833300114,8.199212,-0.0153717,3.552306,0.1335623,-0.1979109,-0.9851082,-3.391274,-6.829918,30.6122,1008.311
13.865580082,11.29789,-1.306833,8.427563,-0.08241559,-0.05372631,-0.9523994,-3.380611,-6.095253,31.0387,1008.311
13.897860050,-17.02407,-18.50675,0.8709147,0.01479373,-0.2409815,-0.8850253,-3.380611,-6.095253,31.0387,1008.309
13.932622910,10.67816,-17.39139,1.845966,0.03534473,-0.1388131,-0.8844886,-3.018496,-5.734725,31.02856,1008.309
13.964903355,-11.75631,-15.16069,3.003839,-0.04448643,-0.1235948,-0.8958326,-2.655058,-6.10323,31.02767,1008.309
13.999666691,-7.728019,-23.20297,-0.4697808,-0.04871638,-0.171969,-0.8869132,-1.279044,-4.66609,30.55233,1008.309
14.031942368,-7.108283,-30.71692,-0.9573064,-0.03059242,-0.2325259,-0.7790063,-1.279044,-4.66609,30.55233,1008.309
14.066705704,-44.10656,-63.29697,-3.516816,0.1837414,0.4046085,-1.731604,-0.201376,-5.412722,30.10929,1008.307
14.098985672,44.39183,-24.25962,6.172756,-0.2520252,0.01067466,-1.797685,1.598538,-4.344752,29.63214,1008.308
14.131266117,-67.5326,7.674693,-5.893504,-0.0931033,-0.08474874,-1.101452,1.598538,-4.344752,29.63214,1008.31
14.166028976,-83.33588,9.259667,-0.7135436,-0.0006865258,-0.01240369,-0.822779,3.049646,-4.360706,29.61008,1008.31
14.198308945,24.9321,-13.63442,3.674187,0.02445854,-0.008908272,-0.8121777,1.951976,-5.812438,29.20936,1008.31
14.233067989,49.4117,-19.21118,4.649238,-0.0002272351,-0.03253823,-0.9099134,1.951976,-5.812438,29.20936,1008.306
14.265347957,25.92368,-14.57366,1.114678,-0.07246108,-0.01592066,-1.086118,2.6915,-6.908328,29.6479,1008.309
14.297627926,7.083686,-8.996897,0.200567,-0.05345489,-0.07975841,-1.09039,3.075601,-5.442984,30.49538,1008.311
14.332391262,-8.719598,-6.472677,-1.749536,-0.07568219,-0.09832596,-1.124288,3.075601,-5.442984,30.49538,1008.313
14.364671707,-11.38447,0.336845,-2.054239,-0.1099336,-0.1020007,-1.037216,3.788508,-5.09208,30.044,1008.313
14.399434566,-9.215387,1.92182,-0.8963658,-0.04802864,-0.05975216,-0.9031969,3.413746,-5.093726,29.61379,1008.311
14.431710720,0.700399,-0.8959134,0.1396262,-0.04134036,-0.04052308,-0.9466116,3.413746,-5.093726,29.61379,1008.312
14.466473579,-0.1672323,-2.363483,-0.04319586,-0.05155485,-0.05839287,-1.070452,3.050969,-5.089737,29.61931,1008.312
14.498753548,-10.57881,-1.482941,-0.4088401,-0.06649793,-0.06996975,-1.046797,3.800494,-5.086445,30.47973,1008.314
14.531033993,-15.22683,-1.600347,-0.7135436,-0.05826328,-0.04985129,-0.9717669,3.800494,-5.086445,30.47973,1008.314
14.565797329,-10.95065,-2.891808,-0.7744843,-0.03988781,-0.04588637,-0.959698,3.052292,-5.818769,29.62854,1008.314
14.598076820,-6.178678,-3.126619,-0.6526029,-0.04773626,-0.01656248,-1.010759,4.139961,-5.466218,29.60738,1008.316
14.632836342,2.869477,-2.246077,-0.1650773,-0.0666245,-0.02016115,-1.057149,4.139961,-5.466218,29.60738,1008.316
14.665115833,2.683556,-1.130724,-0.4088401,-0.08159467,-0.02500889,-1.046992,3.790493,-6.185627,30.05785,1008.319
14.699879169,0.6384253,-0.3675884,-0.04319586,-0.07039188,-0.0363686,-0.981333,4.153269,-6.189615,30.05233,1008.321
14.732159138,2.373688,-0.4262911,0.07868555,-0.05392219,-0.04695165,-0.9765942,4.153269,-6.189615,30.05233,1008.321
14.764439583,-0.1672323,0.2194394,-0.1041366,-0.06359699,-0.05530273,-1.005144,3.778507,-6.191261,29.62212,1008.32
14.799202919,-2.088416,0.2781422,-0.4697808,-0.06367391,-0.03509731,-1.04032,4.504723,-6.563754,29.61571,1008.32
14.831478596,-9.773149,0.3955477,-0.7744843,-0.068049,-0.01956834,-1.023785,4.504723,-6.563754,29.61571,1008.322
14.866241932,-13.05775,0.4542505,-0.7135436,-0.05979602,-0.02087541,-0.9880357,4.141284,-6.19525,29.61661,1008.324
14.898521423,-15.04091,0.1607366,-0.5307215,-0.05599239,0.003300951,-0.997092,4.516047,-6.193604,30.04682,1008.324
14.933284760,-27.43564,2.391442,0.3833891,-0.0980941,0.01672577,-0.9983752,3.767184,-6.561412,29.19101,1008.325
14.965565205,-11.50841,2.039225,-1.018247,-0.08933491,-0.01527217,-1.023231,3.767184,-6.561412,29.19101,1008.325
14.997845173,-9.153413,10.0228,-1.140128,-0.07694878,0.02308656,-1.138582,3.77983,-6.920293,29.63136,1008.321
15.032604218,-41.81353,20.11968,-2.298002,-0.05336418,0.05495435,-1.179544,3.768396,-7.229691,29.19948,1008.323
15.064884186,-45.6559,28.22066,-4.67469,-0.00687405,0.07101341,-1.049507,3.768396,-7.229691,29.19948,1008.323
15.099647045,-56.0055,46.47723,-3.943401,0.03941621,-0.0808334,-1.057722,3.769058,-7.594206,29.20409,1008.325
15.131927013,291.047,-0.8959134,4.83206,-0.05961659,0.08830545,-1.043011,2.321258,-9.400831,29.24923,1008.327
15.166690349,-26.1342,10.37502,6.5384,-0.05172974,0.1842399,-0.5861163,2.321258,-9.400831,29.24923,1008.328
15.198970794,39.18604,-7.998949,-2.054239,0.01220631,-0.2641231,-0.5713996,1.617029,-7.923522,30.11325,1008.326
15.231246471,26.91526,-22.26373,-2.237061,-0.06089645,0.05289423,-0.3523755,0.5135155,-6.155365,29.67176,1008.326
15.266009807,46.93275,-33.18245,4.405476,0.03027718,0.08544116,-1.107518,0.5135155,-6.155365,29.67176,1008.328
15.298289776,6.711844,-15.57161,2.272551,-0.07431782,-0.1455914,-1.364345,0.8869548,-5.424687,30.09274,1008.329
15.333052635,-81.97247,11.07945,-6.563851,-0.05528357,-0.1032717,-1.03009,3.036999,-4.001824,29.16973,1008.329
15.365332603,-49.68419,6.852853,-3.273053,-0.02635776,-0.05663661,-1.001848,3.036999,-4.001824,29.16973,1008.331
15.397613048,-7.789993,-0.5436967,-1.140128,-0.02587705,-0.02048543,-0.9015712,2.325415,-5.08176,29.63034,1008.333
15.432372093,-9.649202,-1.835158,-0.226018,-0.02117968,0.000946444,-1.007333,2.316738,-6.909974,29.21769,1008.333
15.464652061,-16.15644,2.274037,-0.1041366,-0.02078795,0.02744432,-1.042474,2.316738,-6.909974,29.21769,1008.328
15.499415398,-8.161835,2.039225,0.1396262,-0.02751711,0.01537589,-1.028025,1.966497,-7.204113,29.66278,1008.328
15.533762932,0.3905306,-0.8959134,-0.1650773,-0.03326292,-0.009816445,-1.03154,2.341921,-7.566983,30.09761,1008.33
15.568526268,-2.460258,-0.2501828,-0.3478994,-0.03564474,-0.02433466,-1.029683,2.341921,-7.566983,30.09761,1008.33
15.600806236,-5.806836,0.9238728,-0.226018,-0.01582653,-0.001828896,-0.9740025,2.679514,-6.913962,29.21218,1008.33
15.633081913,1.134215,-0.6023995,-0.1041366,-0.01732492,0.01751591,-0.9763066,2.329936,-7.572618,29.66188,1008.33
15.667845249,1.506057,-2.656997,-0.04319586,-0.02316495,0.01832139,-1.019315,2.329936,-7.572618,29.66188,1008.33
15.700125694,-6.674467,-2.069969,-0.6526029,-0.03429247,0.01777618,-1.027996,2.329936,-7.572618,29.66188,1008.328
15.734889030,-10.14499,0.5129533,-1.688595,-0.03181053,0.001434358,-0.9971547,2.317289,-7.213737,29.22154,1008.328
15.767168522,-7.666045,0.1020339,-0.835425,-0.03035115,0.001963385,-0.9850687,2.317289,-7.213737,29.22154,1008.328
15.801931858,-2.026442,-0.719805,-0.2869587,-0.03426261,0.01105851,-1.011114,2.692051,-7.21209,29.65175,1008.328
15.834207535,-1.778548,0.2194394,-0.226018,-0.03237956,0.02795568,-1.024559,3.044166,-7.950745,29.21974,1008.326
15.866487503,0.700399,0.9825755,0.1396262,-0.03092093,0.02897027,-1.011987,3.055489,-7.580595,29.65085,1008.327
15.901250839,1.134215,0.9825755,0.3833891,-0.02604108,0.01646256,-0.994181,3.055489,-7.580595,29.65085,1008.327
15.933531284,0.700399,-0.8372106,0.01774484,-0.02700474,0.01500801,-0.9941872,2.329936,-7.572618,29.66188,1008.327
15.968294144,0.8243463,-2.011266,0.01774484,-0.02651999,0.01061636,-1.005332,2.681389,-7.946757,29.22525,1008.325
16.000574112,0.3905306,-2.011266,0.01774484,-0.0270287,0.01686346,-1.017865,2.681389,-7.946757,29.22525,1008.327
16.035333157,-4.009599,-1.24813,0.01774484,-0.03088501,0.01445897,-1.010135,3.406943,-7.954734,29.21422,1008.328
16.067613125,-5.868809,-1.24813,-0.2869587,-0.04927762,0.02263977,-1.008115,2.681389,-7.946757,29.22525,1008.328
16.099893093,-5.063152,0.2781422,0.1396262,-0.05459303,0.02312815,-1.0023,2.681389,-7.946757,29.22525,1008.328
16.134655952,-6.860388,3.037173,0.3833891,-0.03962286,0.02797589,-1.012457,3.044166,-7.950745,29.21974,1008.326
16.166936874,-7.91394,5.09177,0.4443298,-0.02611774,0.04448783,-1.006591,2.682712,-8.675788,29.23449,1008.326
16.201699734,-2.274337,3.271984,0.3833891,-0.02124939,0.03633055,-0.9902108,2.682712,-8.675788,29.23449,1008.326
16.233975887,-0.4151269,1.5109,0.1396262,-0.02079741,0.04157653,-1.013387,3.044166,-7.950745,29.21974,1008.326
16.268738746,3.241319,-0.7785078,-0.04319586,-0.01255089,0.02949199,-1.016374,2.330597,-7.937134,29.6665,1008.326
16.301018715,2.497635,-1.541644,0.1396262,-0.01204585,0.02665041,-0.9985042,2.330597,-7.937134,29.6665,1008.326
16.333298683,3.42724,-2.774402,0.01774484,-0.02461105,0.02517742,-0.9941345,2.30795,-8.677434,28.80428,1008.326
16.368061542,2.06382,-2.950511,-0.4088401,-0.03622413,0.0241338,-1.006685,2.692712,-7.576606,29.65636,1008.322
16.400341987,-1.468679,-1.835158,-0.226018,-0.04347143,0.02364879,-1.000871,2.692712,-7.576606,29.65636,1008.322
16.435101509,-4.319468,-0.0153717,-0.1650773,-0.03623302,0.02654034,-1.010539,2.331259,-8.301649,29.67111,1008.322
16.467381000,-5.249073,1.158684,-0.1041366,-0.03625085,0.03526251,-1.007105,2.318612,-7.942768,29.23077,1008.322
16.499660969,-5.434994,1.687009,0.07868555,-0.03528218,0.03527183,-1.005173,2.318612,-7.942768,29.23077,1008.32
16.534424305,-3.823678,0.8064672,0.07868555,-0.02561707,0.03674144,-1.008086,2.670065,-8.316907,28.79414,1008.318
16.566704273,-2.708152,0.336845,-0.1041366,-0.0261155,0.04303113,-1.008049,2.682712,-8.675788,29.23449,1008.32
16.601467132,1.196188,0.4542505,0.1396262,-0.02273962,0.04935645,-1.000769,2.682712,-8.675788,29.23449,1008.321
16.633742809,-4.071573,-3.77235,-0.7744843,-0.008183646,0.02859063,-1.000435,3.044166,-7.950745,29.21974,1008.321
16.668506145,-5.187099,-4.594189,-2.054239,-0.04445701,0.04311619,-0.9674005,3.044166,-7.950745,29.21974,1008.323
16.700786591,3.179346,-0.6023995,-0.226018,-0.06819821,0.04285189,-1.025364,2.670065,-8.316907,28.79414,1008.325
16.733066559,-2.460258,1.276089,0.200567,-0.05566011,0.04176927,-1.069873,2.670065,-8.316907,28.79414,1008.321
16.767829895,-7.975914,3.330687,0.809974,-0.02371865,0.05761159,-0.9915348,2.670726,-8.681423,28.79876,1008.323
16.800109386,-1.778548,4.269931,0.809974,-0.01207787,0.05437193,-0.9577376,3.045488,-8.679777,29.22897,1008.323
16.834868908,4.79066,-0.4262911,0.3224484,-0.01691728,0.04505699,-0.9892036,3.045488,-8.679777,29.22897,1008.324
16.867148399,1.196188,-3.36143,-0.6526029,-0.03432922,0.03179537,-1.032268,2.319935,-8.6718,29.24,1008.326
16.901911736,-5.249073,-1.65905,-0.7135436,-0.02615508,0.05166321,-1.031205,3.032842,-8.320895,28.78863,1008.328
16.934192181,-6.05473,0.7477645,-0.04319586,-0.03243294,0.0599867,-0.9973038,3.032842,-8.320895,28.78863,1008.326
16.966472149,-2.584205,0.8064672,0.07868555,-0.03776125,0.06677433,-0.9890352,3.045488,-8.679777,29.22897,1008.326
17.001235008,1.072241,-0.9546161,0.07868555,-0.03386791,0.05369475,-0.9963697,3.408266,-8.683765,29.22345,1008.322
17.033511162,2.249741,-0.1327773,-0.04319586,-0.03435298,0.04977771,-1.009444,3.408266,-8.683765,29.22345,1008.322
17.068274021,3.551188,2.039225,0.3224484,-0.03339881,0.05119295,-1.02104,2.308611,-9.04195,28.80889,1008.325
17.100553989,3.055398,3.976417,0.9318554,-0.04207837,0.04833657,-0.9997665,2.671388,-9.045938,28.80338,1008.325
17.135317326,-3.575783,4.328634,1.419381,-0.02903237,0.05468626,-0.9934738,2.671388,-9.045938,28.80338,1008.327
17.167597294,-7.23223,3.859012,1.236559,-0.01308344,0.05274375,-1.008989,3.034826,-9.414443,28.80247,1008.327
17.199877739,-7.480124,3.682903,1.602203,-0.01500666,0.04691961,-1.012402,3.04615,-9.044292,29.23359,1008.323
17.234636783,-15.47473,3.859012,0.9927961,-0.001444571,0.04558679,-0.9887505,3.04615,-9.044292,29.23359,1008.325
17.266916752,-18.63538,2.215334,0.5662112,-0.01841459,0.06782697,-0.980369,3.021518,-8.691046,28.35752,1008.327
17.301679611,-18.51144,-0.3675884,0.1396262,-0.02430974,0.0943036,-1.016464,1.947157,-9.766993,28.82364,1008.327
17.333959579,-19.87486,-1.013319,-0.04319586,-0.04176518,0.1038292,-1.046829,1.947157,-9.766993,28.82364,1008.327
17.368722916,-28.86104,3.095876,1.053737,-0.02628241,0.1156401,-1.001835,2.310596,-10.1355,28.82274,1008.327
17.401002407,-8.347755,-2.30478,1.724085,0.006100051,0.142547,-0.9432557,2.661387,-10.14512,28.3815,1008.322
17.433279037,-1.034863,-5.709541,3.308543,-0.006023313,0.1247765,-1.036151,2.661387,-10.14512,28.3815,1008.321
17.468041420,-1.902495,-5.239919,4.588297,-0.07127837,0.1095389,-1.0506,3.001516,-10.88941,27.51376,1008.321
17.500322342,-12.19012,-4.652891,4.83206,-0.01463808,0.09384568,-1.016971,2.300595,-11.23468,28.40086,1008.321
17.535085201,-30.28643,0.2194394,1.175618,-0.0214323,0.1206013,-0.9699103,2.300595,-11.23468,28.40086,1008.321
17.567365169,-6.860388,-5.063811,-2.176121,-0.0436489,0.1392169,-0.8841879,2.650725,-10.87979,27.955,1008.317
17.599645138,-38.71485,-2.480888,-4.979393,-0.005017303,0.1268951,-0.9829627,2.629789,-11.61928,27.15503,1008.318
17.634404182,-69.63971,1.745712,-6.320089,-0.05494728,0.1653294,-1.023245,1.903846,-12.34114,27.11304,1008.317
17.666684151,-87.42615,4.798256,-11.37817,-0.06753355,0.1715878,-1.022216,1.903846,-12.34114,27.11304,1008.317
17.701447010,-62.01694,1.041278,-6.563851,-0.08325653,0.2628685,-1.062272,2.983226,-13.08697,26.73225,1008.318
17.733726978,5.410397,-6.355272,-2.054239,-0.06195468,0.2830718,-0.9732501,2.575816,-14.9281,25.01793,1008.318
17.768490314,58.89367,-13.57571,-2.907409,-0.002851601,0.2211486,-1.017722,2.575816,-14.9281,25.01793,1008.316
17.800770760,101.7175,-9.642627,-6.868555,0.009762224,0.2042535,-1.015912,2.939254,-15.2966,25.01704,1008.316
17.833046436,101.1597,-22.32243,-6.076326,-0.0844152,0.3798414,-0.9586318,2.225025,-14.91847,25.45918,1008.316
17.867809772,26.72934,-21.7354,-6.38103,-0.07575395,0.1793825,-0.9999157,2.225025,-14.91847,25.45918,1008.316
17.900089264,29.95197,-19.03507,-6.076326,-0.02874637,0.1481825,-0.9644198,3.32071,-12.37319,25.84604,1008.316
17.934852600,7.82737,-17.80231,-3.943401,-0.1486632,0.1498048,-0.9554503,3.320049,-12.00868,25.84143,1008.316
17.967132568,21.33763,-22.61594,-4.67469,-0.076603,0.1314905,-0.9943848,3.320049,-12.00868,25.84143,1008.312
18.001895428,-6.178678,-24.55313,5.075823,-0.2021366,0.2657596,-0.9653113,3.704422,-11.63769,26.64051,1008.314
18.034171581,-67.90445,-27.66438,-2.176121,-0.2218951,0.004100018,-1.049425,4.405733,-10.56258,25.80642,1008.314
18.066452026,-7.170256,-31.65617,-3.760579,-0.2229842,0.06076603,-1.034597,4.405733,-10.56258,25.80642,1008.314
18.101215363,-21.54815,-31.71487,-0.5916622,-0.2156138,0.2058717,-1.061827,4.02097,-11.66341,24.95433,1008.314
18.133494854,-3.265915,-30.48211,-1.322951,-0.2024458,0.1364943,-1.125097,5.109962,-12.03989,24.9424,1008.31
18.168258190,9.68658,-21.14837,-6.502911,-0.1373982,0.06589096,-1.022666,5.109962,-12.03989,24.9424,1008.311
18.200538158,31.87315,-23.37908,-9.732768,-0.1940098,0.09782902,-0.9749856,5.461415,-12.41403,24.50577,1008.311
18.235297203,32.80276,-28.48622,-9.549946,-0.257425,0.1496429,-0.9112239,5.814192,-13.5172,24.07838,1008.311
18.267577171,6.835791,-29.30806,-12.65792,-0.2586764,0.08058436,-0.8681043,5.814192,-13.5172,24.07838,1008.31
18.299856663,-0.7249953,-25.66849,-15.82684,-0.2875204,0.0005696642,-0.8931525,6.186308,-12.05749,24.49013,1008.31
18.334619999,1.258162,-28.134,-18.99576,-0.354621,-0.03629623,-0.8622774,6.162337,-12.06876,23.61867,1008.305
18.366900444,14.02474,-32.41931,-12.59698,-0.3152257,0.05023067,-0.9237505,6.162337,-12.06876,23.61867,1008.305
18.401662826,-7.356177,-33.76947,-9.793709,-0.3135733,0.1619516,-0.9443902,6.513128,-12.07838,23.17743,1008.307
18.433939457,-37.35143,-23.43778,-9.610887,-0.3055525,0.0219251,-1.002249,7.226036,-11.72748,22.72606,1008.309
18.468702793,-40.9459,-22.49854,-4.126223,-0.3530529,0.1107482,-0.8836829,7.906022,-12.1217,21.03898,1008.307
18.500982761,-45.03616,-25.9033,0.6880926,-0.3966802,0.1492693,-0.9036742,7.906022,-12.1217,21.03898,1008.305
18.533262253,-63.13247,-24.49443,3.91795,-0.4508519,0.140258,-0.9466348,7.171789,-13.94194,20.63736,1008.305
18.568025589,-68.33826,-23.49648,3.857009,-0.4861406,0.1289595,-0.966444,7.487287,-14.33298,18.89356,1008.305
18.600305557,-71.00313,-20.26783,-1.140128,-0.5746893,0.1792808,-0.8934512,7.487287,-14.33298,18.89356,1008.303
18.635064602,-59.10418,-23.79,-8.940538,-0.5872961,-0.01631933,-0.9109731,6.717761,-16.53464,17.18938,1008.303
18.667344570,-50.86169,-7.118408,-22.71314,-0.6077127,0.00418911,-0.9823614,7.03497,-16.92488,15.50782,1008.303
18.699625015,-50.30392,6.207123,-34.41375,-0.6131024,0.04541758,-0.949725,7.03497,-16.92488,15.50782,1008.301
18.734387398,-49.1884,13.89719,-51.29433,-0.6728854,-0.01363915,-0.9044887,6.626237,-18.03697,13.78427,1008.301
18.766667843,-48.13485,16.53881,-66.04198,-0.6554734,0.0006001568,-0.8585186,4.406265,-20.58719,12.10677,1008.301
18.801431179,-38.03314,18.76952,-79.38799,-0.6769347,0.1581004,-0.6308441,4.406265,-20.58719,12.10677,1008.301
18.833706856,-59.35208,15.89308,-86.51806,-0.6890751,0.2130708,-0.5357513,4.374006,-21.69684,10.87568,1008.301
18.868470192,-55.63366,9.787992,-91.57613,-0.6787844,0.1701727,-0.4939583,3.229056,-23.53562,8.736674,1008.295
18.900749683,-52.65892,4.03512,-85.29924,-0.6416472,0.397555,-0.5435065,3.229056,-23.53562,8.736674,1008.295
18.933029652,-100.1308,6.031014,-85.42113,-0.6427873,0.4740457,-0.5334004,3.187729,-27.20332,7.039926,1008.295
18.967792988,-87.85996,1.980523,-90.78391,-0.5573284,0.1508408,-0.4464696,2.447194,-31.21548,6.292524,1008.295
19.000072956,-79.67944,12.1361,-84.14137,-0.5189648,0.4789416,-0.4785274,2.447194,-31.21548,6.292524,1008.299
19.034832001,-135.9515,14.54292,-88.04157,-0.5743499,0.4103138,-0.4053155,4.651405,-34.14507,7.105565,1008.299
19.067111969,-111.348,9.905398,-91.75896,-0.5838599,0.3791896,-0.299599,6.132989,-37.73416,8.000346,1008.299
19.101874828,-116.4918,-0.6023995,-92.06366,-0.5846355,0.5597633,-0.1351683,6.132989,-37.73416,8.000346,1008.3
19.134155273,-124.6103,-6.590083,-89.68697,-0.6374708,0.5927972,-0.1957799,9.463199,-40.65801,10.16627,1008.298
19.166435242,-119.0327,-13.98663,-85.54301,-0.5587664,0.6086778,-0.2886794,14.22685,-41.41716,11.78446,1008.298
19.201198578,-103.4773,-16.27604,-75.18308,-0.4417582,0.7931529,-0.3579813,14.22685,-41.41716,11.78446,1008.298
19.233474254,-107.3197,-15.74772,-66.34669,-0.4350063,0.7799047,-0.4175341,18.26269,-39.98043,13.44823,1008.298
19.268237591,-74.53563,-15.10199,-51.29433,-0.4781803,0.8148808,-0.4844402,21.21954,-37.06804,15.54582,1008.298
19.300517082,-90.33891,-5.768244,-43.67674,-0.5528777,0.9344112,-0.4207525,21.21954,-37.06804,15.54582,1008.3
19.335280418,-78.06812,-11.57982,-45.38308,-0.7326715,1.110613,-0.3956746,21.4753,-30.98109,11.97678,1008.303
19.367560387,-99.82088,-26.60773,-55.68206,-0.8845234,0.9361822,-0.3315584,20.18805,-25.22542,5.072342,1008.301
19.399839878,-43.92064,-29.89509,-54.64607,-0.8327059,0.8657969,-0.4393937,20.18805,-25.22542,5.072342,1008.301
19.434599399,27.72091,-25.43368,-34.7794,-1.013631,1.114614,-0.4051986,19.28178,-23.84309,-1.408747,1008.304
19.466879845,29.70407,-33.82817,-24.78512,-0.9220687,1.010037,-0.4973604,20.62646,-22.8146,-5.241704,1008.308
19.501642227,66.45445,-21.08967,-7.599844,-0.8501886,0.649491,-0.565313,21.30407,-22.84511,-6.995643,1008.309
19.533922672,97.93707,-9.407816,-2.907409,-0.7992724,0.5896373,-0.563346,21.30407,-22.84511,-6.995643,1008.313
19.568685055,95.64404,-1.189427,-2.176121,-0.7906643,0.6552364,-0.4909591,22.05426,-23.20634,-6.130604,1008.312
19.600965977,45.81723,11.60778,-7.173259,-0.7744597,0.5698134,-0.4363678,23.17986,-23.93043,-4.830738,1008.312
19.633241653,17.37131,24.93331,-11.31723,-0.8668496,0.40087,-0.3742822,23.17986,-23.93043,-4.830738,1008.316
19.668004990,18.98263,21.82206,-13.32827,-0.9649004,0.3697653,-0.3307382,23.5649,-23.92396,-4.027047,1008.317
19.700284481,30.32381,9.259667,-15.7659,-1.000522,0.3160862,-0.2898744,23.94994,-23.91748,-3.223355,1008.317
19.735047817,44.32986,-0.8372106,-8.574894,-1.013171,0.3460292,-0.2969285,23.94994,-23.91748,-3.223355,1008.32
19.767327785,25.05605,-12.69517,-0.7744843,-0.9610512,0.3819139,-0.319075,24.67549,-23.92546,-3.234386,1008.32
19.799607277,6.278028,-11.05149,0.5662112,-0.8974696,0.2579783,-0.3880815,25.35389,-24.65617,-2.79954,1008.318
19.834366798,0.8863199,-12.04944,1.906907,-0.8388333,0.2024758,-0.3938413,25.35389,-24.65617,-2.79954,1008.321
19.866646290,-6.736441,-10.93409,1.541263,-0.7860246,0.1497849,-0.4218107,25.35389,-24.65617,-2.79954,1008.323
19.901409626,-5.001178,-13.45831,-2.96835,-0.8280101,0.107494,-0.4422652,24.31404,-24.6505,-3.219639,1008.32
19.933689594,3.799082,-16.09993,-12.04851,-0.8846804,0.1421211,-0.4578996,24.31404,-24.6505,-3.219639,1008.32
19.968452454,-5.806836,-9.994843,-19.42234,-0.9016869,0.1813135,-0.4450707,24.28283,-25.39482,-4.393095,1008.322
20.000733376,-11.57039,-11.93204,-20.82398,-0.9250322,0.2427487,-0.4321017,24.64296,-23.94075,-4.417073,1008.324
20.033009052,-1.220785,-13.51701,-20.82398,-0.8606836,0.2132769,-0.4725333,24.64296,-23.94075,-4.417073,1008.322
20.067772388,-1.220785,-18.27194,-21.49433,-0.9121615,0.3431738,-0.3682279,24.57183,-24.67475,-4.842649,1008.327
20.100051880,-16.9621,-17.09788,-22.83502,-0.8938333,0.3816385,-0.314387,25.29606,-23.9537,-4.862912,1008.327
20.134815216,-26.56801,-17.62621,-16.98471,-0.8953435,0.393116,-0.353477,25.29606,-23.9537,-4.862912,1008.33
20.167095184,-36.11195,-11.99074,-9.549946,-0.8081085,0.2856951,-0.4243744,25.995,-22.51488,-5.76386,1008.328
20.201858043,-24.21301,-4.711594,-3.090231,-0.8572233,0.4143952,-0.3896961,25.60759,-22.15765,-6.634414,1008.33
20.234134197,-42.55722,-6.590083,-4.369986,-0.9727481,0.4000702,-0.377926,25.60759,-22.15765,-6.634414,1008.331
20.266413688,-24.39893,-8.057652,-10.34217,-0.9771526,0.2259207,-0.3557017,26.65931,-21.822,-7.962757,1008.331
20.301177025,2.435662,-10.58187,-8.270191,-0.9049041,0.3466328,-0.3532373,26.28454,-21.82365,-8.392968,1008.329
20.333456993,-6.984335,-11.52112,-6.198207,-0.9162262,0.4327534,-0.3488557,26.28454,-21.82365,-8.392968,1008.329
20.368219852,-4.071573,-16.80437,-7.782666,-0.8304988,0.3949725,-0.2888254,25.54766,-22.18582,-8.813048,1008.331
20.400499821,7.145659,-38.5831,1.845966,-0.8689287,0.3621949,-0.07524908,25.53673,-21.82613,-9.191145,1008.327
20.435258865,-13.61552,-20.85486,12.69341,-0.9179916,0.4046154,-0.2252516,25.51144,-21.10837,-10.07183,1008.328
20.467538833,-56.50129,-30.95174,1.236559,-1.008291,0.1576519,-0.1969714,25.51144,-21.10837,-10.07183,1008.328
20.499819279,-8.905519,-36.4698,-5.954444,-0.9273624,0.08824291,-0.1840042,25.11403,-21.85032,-11.36426,1008.33
20.534581661,2.001846,-43.10321,-10.70782,-0.9428419,0.2943454,-0.1852162,24.3159,-21.51163,-13.97221,1008.33
20.566862583,-17.02407,-42.98581,-15.15649,-0.9765911,0.2399275,-0.2212273,24.3159,-21.51163,-13.97221,1008.328
20.601624966,-3.141968,-40.16808,-18.63011,-0.9741492,0.2224425,-0.2421199,23.98,-21.88892,-15.20793,1008.33
20.633901596,-2.274337,-35.47185,-15.58308,-0.9914123,0.3661242,-0.2402988,22.85505,-21.52934,-16.50318,1008.33
20.666181087,-30.78222,-30.54082,-10.8297,-0.9936944,0.3080392,-0.2425579,22.85505,-21.52934,-16.50318,1008.331
20.700944424,-35.3063,-21.97021,-11.80475,-1.018613,0.2131223,-0.2415936,22.46897,-21.90114,-17.3645,1008.333
20.733224392,-24.33696,-12.69517,-13.26733,-1.004652,0.2378313,-0.2448672,21.70614,-21.18104,-18.66988,1008.333
20.767987251,-27.74551,-6.237866,-15.27837,-0.9886042,0.2260342,-0.1695525,21.70614,-21.18104,-18.66988,1008.335
20.800267219,-36.66972,-2.774402,-14.30332,-0.9608442,0.152167,-0.1419929,20.93435,-21.19479,-20.33951,1008.335
20.835026264,-18.38749,-0.4849939,-15.64402,-0.9397213,0.237599,-0.08257309,21.28382,-20.47538,-20.78999,1008.332
20.867306232,-25.20459,0.3955477,-18.63011,-0.9356647,0.1699764,-0.04864218,21.28382,-20.47538,-20.78999,1008.334
20.899586201,-7.23223,-6.061758,-19.11764,-0.9491403,0.1658035,0.01662736,21.63197,-19.02694,-21.24969,1008.334
20.934349060,2.869477,-8.057652,-19.6661,-0.9682477,0.2473025,-0.05103292,21.63131,-18.66243,-21.25431,1008.336
20.966629028,0.6384253,-6.061758,-20.64116,-0.9705296,0.1716259,-0.1036697,21.63131,-18.66243,-21.25431,1008.336
21.001392365,10.30632,-7.646732,-19.54422,-0.9884601,0.2193011,-0.01440723,21.27985,-18.28829,-20.81768,1008.337
21.033668041,2.931451,-13.3996,-10.89064,-0.9188446,0.2145511,-0.04697467,21.98144,-18.30754,-21.70017,1008.333
21.068431377,3.303293,-13.75182,-8.940538,-0.92693,0.1515596,-0.06423577,21.98144,-18.30754,-21.70017,1008.337
21.100710869,6.711844,-8.527274,-11.62193,-0.9029635,0.03596513,-0.06591156,21.618,-17.93903,-21.69927,1008.339
21.132990837,39.37196,-8.351166,-10.8297,-0.9883512,0.1669762,-0.03259221,22.33223,-18.31716,-22.14141,1008.339
21.167754173,4.294871,-24.37703,-0.2869587,-1.013798,0.3005259,-0.01485766,22.33223,-18.31716,-22.14141,1008.336
21.200034141,-4.753284,-17.91972,-9.428064,-1.0216,-0.1111363,-0.1051674,21.96813,-17.58414,-22.14513,1008.338
21.234793186,45.8792,-23.67259,-10.40312,-0.8821803,0.0613969,-0.004415029,22.30892,-18.69294,-23.00825,1008.338
21.267073631,35.5296,-17.91972,-9.428064,-0.8617262,0.2144744,0.02493416,22.30892,-18.69294,-23.00825,1008.338
21.301836014,8.261186,-21.32448,-7.782666,-0.8785378,0.1767762,0.05327893,21.95813,-18.68332,-22.56701,1008.341
21.334116459,-12.93381,-12.63647,-2.480824,-0.8817037,0.02716291,-0.1109672,21.94813,-19.7825,-22.98888,1008.341
21.366396427,6.340002,-9.114302,-5.649741,-0.9718493,0.1457762,-0.01921204,21.56072,-19.42527,-23.85944,1008.343
21.401159763,-14.85499,-7.529327,-2.358943,-0.9499649,0.09748816,-0.006964357,21.56072,-19.42527,-23.85944,1008.343
21.433435440,-0.9109162,-4.065864,-2.298002,-1.09947,0.149955,0.03668223,22.98957,-19.45169,-24.69071,1008.341
21.468198776,-11.01262,3.917714,-3.090231,-1.168677,0.1729662,0.03116096,23.33837,-18.36776,-25.1458,1008.342
21.500478268,-12.12815,-3.537539,-3.455875,-1.090356,0.2014775,0.09593505,23.33837,-18.36776,-25.1458,1008.342
21.535241604,-10.26894,-2.833105,3.247602,-0.971986,0.2155782,0.0155093,23.71181,-17.63708,-24.72482,1008.342
21.567521572,-2.212363,5.033067,6.964985,-0.7391807,0.2840542,-0.1098137,24.74034,-18.0129,-24.73583,1008.344
21.599801063,-23.90314,20.5893,12.99812,-0.4894614,0.1585825,-0.2183888,24.74034,-18.0129,-24.73583,1008.344
21.634560585,-2.460258,80.99446,25.12531,-2.528728,0.006491292,-0.8201237,25.43994,-16.9386,-25.63216,1008.345
21.666840076,-296.4633,-40.46159,3.978891,0.4000771,-0.7244819,-1.229429,26.16682,-17.67561,-25.63396,1008.345
21.701603413,175.5901,-23.20297,12.57153,-1.763583,0.8097035,-0.06787577,26.16682,-17.67561,-25.63396,1008.347
21.733883381,-108.4972,5.620095,9.768258,-1.230821,-0.1018097,0.1109502,25.78875,-15.85467,-26.08725,1008.343
21.768646240,39.30999,-6.296569,3.613246,-1.011184,0.2246232,0.004526115,26.87972,-17.3247,-26.08533,1008.344
21.800926208,-28.55117,-4.476783,5.380527,-1.021281,0.02305833,0.08123542,26.87972,-17.3247,-26.08533,1008.348
21.833202362,3.179346,-9.407816,6.599341,-1.014471,0.2396785,0.1660873,26.51497,-16.22717,-26.09367,1008.348
21.867965221,-4.505389,-12.69517,3.978891,-0.9504874,0.06849436,-0.1371731,26.50298,-16.2328,-26.52939,1008.348
21.900245190,17.99105,-16.51085,4.649238,-0.9736101,0.08784833,0.02445531,26.50298,-16.2328,-26.52939,1008.351
21.935008526,5.782239,-14.04534,7.086866,-1.030111,0.07479906,0.0771977,25.39068,-16.23211,-27.3843,1008.353
21.967288017,6.711844,-15.27809,7.147807,-1.015457,0.2703843,0.2315283,25.02922,-16.95715,-27.36955,1008.351
21.999567986,2.683556,-16.39345,5.136764,-1.028824,0.1518248,0.1003545,25.02922,-16.95715,-27.36955,1008.351
22.034327030,4.10895,-18.68286,5.014883,-1.003726,0.1468183,0.0296899,24.37546,-16.57969,-26.92833,1008.352
22.066606998,23.25881,-23.67259,1.480322,-1.0044,0.3063104,0.2563641,24.67777,-16.58301,-26.93293,1008.348
22.101370335,11.9796,-23.02686,0.9927961,-0.9759638,0.07393526,0.06208949,24.67777,-16.58301,-26.93293,1008.35
22.133649826,2.621583,-22.96816,3.491365,-0.976177,0.1654109,0.06647758,24.00268,-17.67488,-27.34469,1008.352
22.168413162,5.658292,-29.30806,-0.8963658,-0.9641332,0.2028864,0.1193595,23.62725,-17.31201,-27.77952,1008.354
22.200693130,-2.894073,-29.48417,1.35844,-0.9716881,0.112237,0.07970184,23.62725,-17.31201,-27.77952,1008.354
22.232968807,-13.86341,-32.88893,-0.226018,-0.9820781,0.2470825,0.1815296,23.25249,-17.31366,-28.20973,1008.351
22.267732143,-28.48919,-36.23499,0.01774484,-1.019986,0.125038,0.1852684,21.42596,-16.93483,-28.6225,1008.353
22.300011635,-2.708152,-41.51824,-7.477962,-1.005339,0.3117996,0.3061915,21.76714,-17.3138,-29.4326,1008.353
22.334774971,-83.45983,-45.09911,-10.58594,-1.070917,0.06808695,0.416138,21.76714,-17.3138,-29.4326,1008.355
22.367054939,-51.41945,-59.89221,-14.4252,-1.112253,0.1075573,0.2457977,20.64087,-16.22519,-30.73709,1008.355
22.401817798,-72.11865,-68.1106,-24.84606,-1.169984,-0.1825887,0.3559467,19.50261,-15.14222,-32.47729,1008.351
22.434093952,21.08973,-85.60402,-28.31968,-1.398998,-0.2064143,0.516323,19.50261,-15.14222,-32.47729,1008.352
22.466373920,2.993425,-114.8967,-39.59372,-1.488747,-0.06079789,0.5792245,17.28537,-12.58358,-33.78369,1008.354
22.501136780,-61.70708,-152.2317,-54.46325,-1.319562,0.206712,0.6925388,15.79803,-11.49018,-35.02041,1008.352
22.533416748,-117.4834,-155.4016,-66.95609,-0.8983318,-0.2076395,0.1594261,15.79803,-11.49018,-35.02041,1008.352
22.568180084,-30.22446,-111.5507,-74.4518,-0.5361499,0.07919879,-0.1848988,11.06796,-10.35041,-35.39828,1008.352
22.600459576,-58.29852,-71.22184,-61.34954,-0.3930927,0.7155088,0.9660944,7.433025,-6.361608,-35.39314,1008.348
22.635219097,-147.6646,-41.16602,-58.48533,-0.5539803,0.3510998,0.6689882,7.433025,-6.361608,-35.39314,1008.348
22.667498588,-181.1923,-38.05478,-63.90905,-0.7921433,0.3464169,0.3450874,6.716812,-4.889933,-34.96484,1008.35
22.699779034,-83.83168,-59.95091,-52.57409,-0.605099,0.547384,0.2278679,4.870357,-0.1425543,-35.86872,1008.35
22.734541893,-338.6054,-51.08679,-44.89556,-0.3861011,0.1017956,0.6449707,4.870357,-0.1425543,-35.86872,1008.352
22.766821384,-272.5415,-59.6574,-67.01703,-0.6049706,-1.161073,0.1654586,4.496335,6.058203,-35.94168,1008.352
22.801584721,-5.37302,-57.6615,-93.40436,-0.7140974,-1.268253,0.0461585,1.298975,14.15208,-33.00574,1008.352
22.833860397,-22.47775,-33.59336,-89.8698,-0.7558426,-0.6739776,-0.19886,1.298975,14.15208,-33.00574,1008.349
22.868623733,113.3065,-35.11964,-83.04443,-1.534909,-0.4170755,-0.1290057,-1.604375,21.41919,-32.61744,1008.349
22.900903702,84.42681,-101.5712,-138.6224,-1.463167,-0.9206985,1.56678,-4.820889,21.44878,-33.00445,1008.349
22.933184147,-232.5065,-185.5748,-131.3095,-1.540346,-3.661011,0.9591525,-4.820889,21.44878,-33.00445,1008.351
22.967946529,302.5121,-270.283,-193.4081,-0.783033,-0.3622114,1.145964,-8.805592,18.27277,-32.90301,1008.351
23.000226498,160.8403,-197.7263,-177.8072,0.1038811,-0.9216626,0.8131,-16.42975,21.57642,-32.82796,1008.349
23.034985542,-145.0617,-175.2431,-123.8138,0.4370679,-0.2824093,2.672421,-16.42975,21.57642,-32.82796,1008.349
23.067265511,-179.8909,-214.2805,-177.6244,-0.4452656,-1.938809,0.4377027,-26.17367,13.3779,-31.26646,1008.349
23.099545956,361.8209,-252.9656,-171.3475,1.083437,-0.9888862,-1.861843,-32.84525,9.880302,-25.51422,1008.347
23.134308338,244.8766,-76.38769,-74.87838,2.846348,1.710246,-0.6939095,-32.84525,9.880302,-25.51422,1008.341
23.166588306,-226.495,89.97599,-25.57735,1.00313,0.107601,-1.103204,-38.48161,8.92865,-19.3742,1008.34
23.201351642,10.05842,82.99036,21.46887,-0.1328705,1.393669,0.6575716,-41.70412,-1.230625,-18.32386,1008.336
23.233627319,-242.7321,55.92838,37.74004,-0.2277448,0.1935388,0.02248187,-40.69035,0.1816654,-20.97323,1008.336
23.268390655,-45.09813,-30.1886,55.41285,-0.4167104,0.7835869,0.08280643,-40.69035,0.1816654,-20.97323,1008.334
23.300670147,-268.1414,-41.92916,57.85048,-0.04074303,0.847279,0.5672473,-39.63259,3.803589,-21.90739,1008.334
23.332950115,-341.828,-49.03219,59.6787,-0.09174646,-0.3684203,-0.27252,-39.5673,7.482553,-19.33919,1008.332
23.367713451,153.9613,-49.26701,86.37072,0.5653655,0.03542889,-0.3238514,-39.5673,7.482553,-19.33919,1008.329
23.399992943,-60.77747,40.07862,107.0296,1.940684,0.4478268,0.3982702,-39.49901,15.17602,-16.44828,1008.329
23.434752464,-480.0913,109.8175,89.35682,1.563464,-1.372858,0.3819628,-39.85377,17.37274,-16.03473,1008.327
23.467031956,16.62763,72.95218,119.8272,0.6583241,-3.459936,-0.2573906,-39.85377,17.37274,-16.03473,1008.324
23.501795292,78.78721,75.4177,89.4787,-0.02868665,-1.378633,1.167565,-37.25593,23.87835,-13.60355,1008.326
23.534075260,17.99105,51.11475,54.86438,-0.3202933,-1.80468,0.4991092,-34.09106,27.07883,-17.1183,1008.325
23.566354751,2.931451,30.45137,37.25251,-0.0510045,-1.582293,0.4930252,-34.09106,27.07883,-17.1183,1008.325
23.601118088,57.65419,28.04456,12.51059,-0.08759574,-0.8015255,0.5831122,-31.95366,28.86057,-18.48165,1008.326
23.633393764,-16.52828,20.64801,-10.09841,-0.009722429,-0.8530089,0.4617919,-30.18667,29.18341,-20.1945,1008.324
23.668157101,-35.86406,12.95794,-15.21743,0.05454976,-0.8373507,0.4583583,-30.18667,29.18341,-20.1945,1008.323
23.700437069,4.79066,4.856959,-12.10946,0.06139567,-0.8976105,0.3777501,-29.1588,29.17211,-20.21013,1008.323
23.735199928,-26.32012,1.628306,-3.638697,0.0789066,-0.7080647,0.4609747,-29.52091,28.81158,-20.2,1008.326
23.767479896,-29.04696,1.276089,-6.44197,0.1871259,-1.144925,0.2624648,-29.52091,28.81158,-20.2,1008.326
23.799759865,-3.203942,3.271984,-3.455875,0.266026,-0.9289027,0.3955018,-29.81058,28.45603,-19.75506,1008.326
23.834518909,-13.86341,4.680851,-1.26201,0.1813926,-0.9184475,0.4107303,-29.87303,29.55024,-19.76799,1008.323
23.866798878,6.216055,-0.6611022,-6.015385,0.1641758,-1.003224,0.3986828,-29.87303,29.55024,-19.76799,1008.325
23.901562214,3.613161,-3.77235,-11.86569,0.1332047,-1.008299,0.3552112,-29.48628,29.55752,-18.90205,1008.323
23.933841705,1.010267,-8.468572,-8.818657,0.1768534,-0.8073307,0.5027418,-30.8756,28.84378,-18.87167,1008.323
23.968604088,-1.840521,-11.40371,-7.721725,0.1731191,-0.8893714,0.4297675,-30.8756,28.84378,-18.87167,1008.32
24.000885010,-10.95065,-13.3409,-13.63297,0.1607358,-1.001019,0.3382729,-30.52547,29.19867,-19.31753,1008.318
24.033160687,3.861056,-15.16069,-14.97367,0.1495563,-0.9573103,0.3936576,-31.23772,28.48325,-18.86154,1008.318
24.067923069,12.90921,-19.44599,-13.69391,0.1488762,-0.8804276,0.3762089,-30.86467,28.48409,-18.49358,1008.32
24.100203514,-8.843545,-23.32038,-11.56099,0.1467615,-0.8054373,0.3727724,-30.86467,28.48409,-18.49358,1008.32
24.134966373,8.818949,-26.31422,-13.69391,0.2171114,-0.9362007,0.2824411,-32.30379,28.50568,-18.03579,1008.315
24.167245865,7.951317,-25.43368,-8.818657,0.3239486,-0.6966037,0.3512546,-32.27982,28.51695,-17.16434,1008.315
24.199526310,-12.37604,-19.26988,-2.785527,0.3083512,-0.8681484,0.2947173,-32.27982,28.51695,-17.16434,1008.317
24.234284878,5.720265,-16.21734,-4.004342,0.2424027,-1.011264,0.244735,-32.62797,27.06851,-16.70463,1008.313
24.266564846,-1.592626,-14.39755,-6.320089,0.2268127,-0.9419113,0.3026921,-34.05576,27.46025,-15.81573,1008.313
24.301328182,1.56803,-16.09993,-10.8297,0.2226287,-0.9930269,0.3594563,-34.05576,27.46025,-15.81573,1008.315
24.333607673,17.18539,-17.80231,-11.43911,0.2576602,-0.8889698,0.3338667,-33.70497,27.45062,-16.25697,1008.315
24.400650978,7.703423,-17.03918,-17.716,0.2641243,-0.9698219,0.3174396,-34.41788,27.09972,-15.8056,1008.313
24.432926655,14.27263,-19.50469,-14.66896,0.2962227,-0.8219247,0.3791246,-34.40457,26.37632,-15.36064,1008.313
24.467689991,-5.063152,-17.33269,-16.74095,0.3255372,-0.9764771,0.3008325,-35.85567,26.39228,-15.33858,1008.313
24.499969482,12.2275,-15.74772,-16.0706,0.3030005,-0.8379979,0.3427607,-35.85567,26.39228,-15.33858,1008.314
24.534732818,6.216055,-17.62621,-16.25342,0.3174493,-0.8215799,0.3201014,-35.84303,26.03339,-14.89824,1008.314
24.567012787,14.95434,-14.80847,-20.94586,0.3501502,-0.976116,0.2437357,-36.1925,25.31398,-14.44776,1008.31
24.601775646,16.25579,-14.22144,-24.41948,0.3804646,-0.8842879,0.3263771,-36.1925,25.31398,-14.44776,1008.312
24.634051800,6.897765,-9.29041,-17.4113,0.434157,-0.8855224,0.3451085,-36.90475,24.59857,-13.99177,1008.312
24.666331768,11.73171,-7.881544,-11.37817,0.4597518,-0.8748354,0.3354453,-38.35387,23.52097,-13.95586,1008.312
24.701094627,12.35145,-5.416028,-13.32827,0.4745009,-0.7516683,0.3970271,-38.35387,23.52097,-13.95586,1008.314
24.733374596,5.906187,-6.413975,-14.1205,0.4091991,-0.7495074,0.3759089,-37.63963,23.14285,-14.39801,1008.315
24.768137932,0.9482936,-8.879491,-12.35322,0.4391929,-0.7664673,0.3438408,-37.98977,22.78795,-13.95215,1008.311
24.800417423,-13.4296,-7.470624,-2.11518,0.5175987,-0.570038,0.4076357,-37.98977,22.78795,-13.95215,1008.311
24.835175991,-25.08064,-6.53138,5.441467,0.4639031,-0.7720565,0.3872653,-38.35056,21.69839,-13.93278,1008.311
24.867455959,-6.302625,-7.705435,8.854147,0.3392366,-0.8394836,0.3020653,-38.69174,22.07736,-13.12268,1008.311
24.899736404,-30.34841,-9.70133,16.59362,0.3986847,-0.8154848,0.3363978,-38.69174,22.07736,-13.12268,1008.311
24.934498787,-27.3117,-8.64468,20.12818,0.410002,-0.9109098,0.2995729,-39.04385,22.81602,-12.69067,1008.31
24.966778755,7.703423,-6.53138,10.19484,0.3791806,-1.005769,0.1796907,-38.65843,23.55233,-11.83396,1008.31
25.001542091,-7.108283,-3.889755,5.68523,0.3783058,-0.8295155,0.2116348,-37.90891,23.55562,-10.97354,1008.311
25.033821583,-7.480124,-1.306833,11.41366,0.3966767,-0.8089544,0.2658572,-37.90891,23.55562,-10.97354,1008.307
25.066097736,-4.071573,-1.776455,11.04801,0.4078748,-0.8623595,0.2050996,-38.64777,24.287,-11.40746,1008.307
25.100860596,-1.964468,2.508848,7.269689,0.4250787,-0.9779438,0.2121404,-37.89758,23.92577,-10.54243,1008.309
25.133140564,14.83039,6.089717,7.452511,0.3924741,-0.8660115,0.2829457,-37.89758,23.92577,-10.54243,1008.309
25.167903900,1.444083,5.620095,5.441467,0.3524116,-0.8912398,0.2978752,-37.54877,25.0097,-10.99752,1008.309
25.200183391,6.092107,2.274037,5.075823,0.3158019,-0.9435419,0.3174777,-37.92287,24.64354,-11.42311,1008.309
25.234946728,26.60539,-3.889755,7.757214,0.3376918,-0.780749,0.3565478,-37.92287,24.64354,-11.42311,1008.309
25.267222404,27.22513,-4.300674,12.20589,0.3627328,-0.7596037,0.2918333,-37.21062,25.35896,-11.8791,1008.311
25.299502373,14.95434,-2.30478,13.66846,0.3797479,-0.7997378,0.286734,-37.22195,24.98881,-12.31021,1008.311
25.334265709,23.7546,0.8064672,17.44678,0.3788161,-0.807413,0.3074802,-37.22195,24.98881,-12.31021,1008.313
25.366545677,21.89539,4.680851,19.64065,0.3546739,-0.8141784,0.3306989,-37.23526,25.7122,-12.75517,1008.313
25.401308536,27.84486,6.735448,15.86233,0.2873066,-0.9552116,0.3252077,-36.88448,25.70258,-13.19641,1008.314
25.433588505,18.61079,6.55934,12.51059,0.2652262,-1.006888,0.3742723,-36.88448,25.70258,-13.19641,1008.316
25.468347072,44.20591,1.745712,11.23083,0.3250846,-0.9480076,0.4199213,-36.89474,25.69775,-13.56989,1008.314
25.500626564,38.50433,1.452198,10.1339,0.3336373,-0.8753083,0.445455,-35.46827,26.03504,-14.46803,1008.314
25.532907486,34.66197,2.097928,4.649238,0.3076553,-0.9373963,0.4243701,-35.46827,26.03504,-14.46803,1008.314
25.567669868,26.29552,2.97847,6.599341,0.2927584,-0.7577594,0.4669994,-35.85369,25.29873,-15.32473,1008.315
25.599949837,22.32921,2.56755,8.915088,0.2962131,-0.7726089,0.5089666,-35.5029,25.2891,-15.76597,1008.315
25.634712696,32.36894,-0.07407448,10.56049,0.310226,-0.7677231,0.510898,-35.5029,25.2891,-15.76597,1008.315
25.666988850,32.98868,2.332739,10.19484,0.3209929,-0.822867,0.5086275,-35.52753,25.64235,-16.64204,1008.315
25.701751709,13.96276,5.443986,11.71836,0.3093357,-0.7849998,0.5543112,-34.83727,25.25296,-17.95564,1008.315
25.734031677,19.91223,2.861064,15.25292,0.3144074,-0.879298,0.5697176,-34.83727,25.25296,-17.95564,1008.317
25.766311645,8.818949,2.56755,19.45783,0.3375296,-0.8170464,0.6415706,-34.82397,24.52956,-17.51068,1008.319
25.801074505,-5.620914,-1.952564,20.25006,0.4030887,-0.9070792,0.7221351,-34.47383,24.88445,-17.95654,1008.319
25.833354473,-16.59025,-9.29041,21.40793,0.3997326,-0.9177206,0.7264328,-34.47383,24.88445,-17.95654,1008.319
25.868113518,-9.649202,-24.72924,11.7793,0.4306903,-0.9312706,0.7001833,-34.48543,25.60865,-18.33925,1008.322
25.900393486,2.311714,-34.70872,4.405476,0.5185416,-0.8998928,0.6030012,-33.37484,25.60715,-17.54659,1008.318
25.935155869,-3.699731,-37.58515,2.272551,0.6143159,-0.7372946,0.5220182,-33.32756,25.99421,-15.8083,1008.32
25.967435837,-9.215387,-38.87661,-4.126223,0.6181638,-0.7818369,0.3694734,-33.32756,25.99421,-15.8083,1008.32
25.999716282,19.23052,-37.46775,-4.735631,0.6552407,-0.7359539,0.3116417,-34.40457,26.37632,-15.36064,1008.32
26.034478664,12.59934,-28.89714,4.893001,0.6765822,-0.5270072,0.4046371,-34.02981,26.37797,-14.93043,1008.318
26.066754818,-5.682888,-18.27194,14.39975,0.5804539,-0.5825878,0.3639194,-34.02981,26.37797,-14.93043,1008.318
26.101517677,9.19079,-8.996897,19.15313,0.5390443,-0.6440411,0.4004006,-35.0802,25.31329,-13.59285,1008.318
26.133797646,-0.3531533,5.561392,29.26928,0.4199407,-0.5521612,0.481914,-33.99424,25.66504,-13.67626,1008.318
26.166077614,-2.026442,10.31632,36.46029,0.4078653,-0.7192187,0.6042671,-33.99424,25.66504,-13.67626,1008.318
26.200840473,-11.69433,22.5852,49.8063,0.2277923,-0.6677603,0.5188956,-33.9949,26.02955,-13.68088,1008.314
26.233120441,-17.33394,29.98175,56.02225,0.09103927,-0.6555603,0.6647748,-32.55539,26.7378,-14.08565,1008.313
26.267879486,-19.93683,22.35039,52.7924,-0.06366836,-0.9441586,0.4565555,-32.55539,26.7378,-14.08565,1008.313
26.300159454,8.447106,19.23914,58.45988,-0.03998944,-0.7076834,0.5313317,-30.7668,27.43562,-14.99392,1008.313
26.334922790,-1.6546,19.94357,59.49587,-0.09524825,-0.7010686,0.3879071,-29.02801,28.86877,-15.47476,1008.311
26.367202759,-21.91999,22.17428,60.53186,-0.07687973,-0.7274299,0.3045662,-29.02801,28.86877,-15.47476,1008.311
26.399482250,-13.1817,26.9292,61.87256,-0.0956486,-0.8004138,0.2036364,-27.60154,29.20606,-16.3729,1008.309
26.434244633,4.418818,34.79537,66.38217,-0.1564186,-0.6465434,0.2500855,-25.43884,30.27005,-16.85556,1008.309
26.466521263,-32.51748,41.19398,71.07461,-0.2697743,-0.5465659,0.2886065,-25.43884,30.27005,-16.85556,1008.305
26.501283646,-42.43327,43.8356,80.45947,-0.3492611,-0.705842,0.1936017,-24.73858,30.97983,-17.74728,1008.307
26.533563614,-34.19077,42.83765,82.47052,-0.3867161,-0.8231244,0.1741614,-22.20113,32.04546,-17.79974,1008.307
26.568326950,-26.87788,41.89841,81.31264,-0.4216704,-0.7431693,0.2356046,-22.20113,32.04546,-17.79974,1008.305
26.600606918,-41.13182,37.4957,76.92491,-0.5012168,-0.8543137,0.2066212,-20.03778,32.74492,-18.27779,1008.307
26.632886410,-43.48682,35.20629,76.07175,-0.6150858,-0.9899526,0.118593,-18.21588,34.91771,-17.89734,1008.307
26.667645931,-11.38447,33.3278,72.65907,-0.6215429,-0.9139577,0.1296747,-18.21588,34.91771,-17.89734,1008.304
26.699925423,-19.9988,32.50597,69.24638,-0.6472139,-0.9142095,0.07703374,-17.11754,36.00493,-17.492,1008.304
26.734688759,-28.42722,34.44316,69.42921,-0.7075394,-0.971069,0.05701947,-14.55612,37.08183,-16.673,1008.306
26.766968727,-11.63236,32.97559,63.39608,-0.7931623,-0.9445831,0.09119532,-14.55612,37.08183,-16.673,1008.307
26.801731110,-17.95367,30.51007,57.72859,-0.8243799,-0.8246032,0.1078983,-11.27046,38.87978,-15.87427,1008.309
26.834011078,-39.83037,24.46369,51.39076,-0.8183358,-0.9242513,0.1145702,-9.084464,40.31954,-15.4901,1008.313
26.866287231,-17.08604,21.99817,52.67051,-0.7272625,-0.7982488,0.09140189,-9.084464,40.31954,-15.4901,1008.313
26.901050091,-30.96814,24.87461,49.62348,-0.6381751,-0.8537151,0.07059009,-6.510393,41.03755,-14.23076,1008.314
26.933329582,-17.58183,33.2104,48.03902,-0.6072775,-0.8523648,0.01445228,-3.936049,40.66122,-13.01982,1008.316
26.968092918,-9.525255,40.13733,42.79812,-0.6727382,-0.9461058,0.1112315,-1.42178,41.01538,-11.75494,1008.32
27.000372887,1.56803,42.42673,44.93105,-0.7278106,-0.7345018,0.1961883,-1.42178,41.01538,-11.75494,1008.317
27.035135746,-0.8489426,34.09094,52.24393,-0.7089109,-0.5212641,0.272293,0.3927662,40.63093,-11.7779,1008.317
27.067411900,-29.17091,28.39677,53.4018,-0.7494996,-0.5730582,0.1594448,2.581413,40.61263,-11.37527,1008.317
27.099691391,-39.83037,26.9292,53.34086,-0.7957259,-0.6745188,0.1038555,2.581413,40.61263,-11.37527,1008.319
27.134454727,-10.88868,24.7572,50.111,-0.8847718,-0.8841805,-0.0001171564,5.15813,39.87259,-10.09747,1008.321
27.166734695,71.16445,17.41935,63.03043,-0.7532435,-0.4230681,0.1549879,7.732473,39.49625,-8.886526,1008.322
27.201497078,-8.967492,12.0187,48.58749,-0.8266827,-0.3893122,0.3250251,7.732473,39.49625,-8.886526,1008.326
27.233777046,46.68486,-12.98869,57.66765,-0.8421901,-0.08950097,0.5588138,9.526085,38.37229,-9.709462,1008.326
27.266053200,-183.9191,-7.764138,20.311,-0.7502559,-1.264491,0.1874219,10.98945,37.26762,-9.344196,1008.327
27.300816059,-78.50195,-12.69517,-8.331132,-0.8929967,-1.346899,-0.1622652,10.98945,37.26762,-9.344196,1008.325
27.333095550,124.028,-25.55108,2.760077,-0.8059938,-0.7839906,-0.3473097,12.5471,38.03141,-5.453949,1008.327
27.367858887,-47.45313,-3.596241,18.3609,-0.8736642,-0.1474348,0.3400379,12.52379,37.65562,-6.320786,1008.329
27.400138855,-27.93143,-12.16685,17.26396,-0.9011052,-0.7470034,-0.06214901,12.52379,37.65562,-6.320786,1008.329
27.434901714,-77.75826,-10.52317,35.91182,-0.9728409,-0.571065,-0.3491235,12.52379,37.65562,-6.320786,1008.33
27.467177868,-22.22986,-11.1689,35.85088,-1.035016,-0.3661871,-0.1007874,13.2853,37.66455,-5.024637,1008.332
27.499457836,-64.00011,-1.835158,43.34658,-0.9223363,-0.3232964,0.03699366,13.2853,37.66455,-5.024637,1008.332
27.534220695,-68.09037,-2.891808,59.61775,-0.8003826,-0.5355454,0.133662,14.3955,36.93322,-4.284992,1008.33
27.566500664,118.6982,-17.5675,80.33759,-0.8013609,0.04871238,0.03981503,15.53243,36.57927,-2.554015,1008.33
27.601263046,-124.7963,5.737501,39.81202,-1.142381,-0.8443474,0.2626883,15.53243,36.57927,-2.554015,1008.337
27.633543014,305.7348,-44.9817,30.06151,-0.6017599,-0.6322087,-0.2845232,18.04989,35.44653,-3.45023,1008.335
27.668302059,-34.19077,-9.525222,-0.226018,-0.733839,-0.7598876,-0.1500852,19.83019,35.04598,-4.718125,1008.335
27.700582027,144.6652,-27.54698,-0.7744843,-0.9855765,-0.3606728,0.05673843,19.83019,35.04598,-4.718125,1008.337
27.732861996,15.01631,-18.74156,6.964985,-1.028386,-0.2235675,0.1388279,20.11277,33.90981,-7.697634,1008.337
27.767624855,5.906187,-18.27194,14.39975,-0.9483005,-0.3906862,0.02216328,19.6831,32.05821,-10.22115,1008.338
27.799904823,-3.575783,-21.14837,20.55476,-0.8947677,-0.5088379,0.09775942,19.6831,32.05821,-10.22115,1008.34
27.834668159,22.70105,-26.60773,30.42716,-0.9246247,-0.3721227,0.05364133,19.65846,32.41146,-11.09722,1008.342
27.866943836,42.96644,-35.35445,28.11141,-1.029492,-0.1239669,0.2568723,19.66045,31.31791,-11.08337,1008.343
27.901706219,2.807503,-27.42957,16.95926,-0.8789883,-0.4543081,0.03905595,20.33806,31.2874,-12.83731,1008.339
27.933986187,6.278028,-30.07119,14.88728,-0.9117742,-0.2385513,0.1882856,20.33806,31.2874,-12.83731,1008.339
27.966266155,24.43631,-32.3019,12.69341,-0.957458,-0.3505177,0.1737277,20.31409,31.27613,-13.70877,1008.339
28.001029015,72.83774,-38.81791,18.29996,-0.9505295,-0.1299858,0.413302,21.00805,29.79399,-14.94627,1008.339
28.033308983,-41.75156,-18.03712,13.66846,-0.8360974,-0.5397655,0.2038136,21.00805,29.79399,-14.94627,1008.339
28.068068028,19.47842,-14.22144,11.90118,-0.9225282,-0.09881464,0.4487099,20.61064,29.05204,-16.2387,1008.341
28.100347996,27.10118,-8.938193,20.92041,-0.9068882,-0.4234871,0.3042157,20.58799,28.31174,-17.10092,1008.341
28.135111332,32.43092,0.5716561,27.86765,-0.906285,-0.2099776,0.4760823,20.58799,28.31174,-17.10092,1008.343
28.167390823,19.91223,13.42756,28.8427,-0.9307684,-0.3676419,0.238837,20.93878,28.30212,-17.54217,1008.345
28.199670791,30.94355,15.54086,27.80671,-0.9519244,-0.1805806,0.3356671,21.655,26.83044,-17.97046,1008.343
28.234433174,40.85933,18.94563,27.56294,-0.9422459,-0.1888289,0.3210962,21.655,26.83044,-17.97046,1008.341
28.266709328,53.50196,22.23298,20.12818,-0.9657135,-0.1068878,0.244746,22.35724,26.44668,-18.84833,1008.341
28.301472187,62.42617,23.17223,16.83738,-0.9564708,-0.1481691,0.1932468,23.07517,24.97581,-19.21438,1008.341
28.333752155,71.0405,21.05893,16.10609,-0.9839541,-0.2085172,0.1156127,23.07517,24.97581,-19.21438,1008.341
28.366032123,71.66024,19.53265,10.01202,-0.9638327,-0.1027055,0.1920709,23.70629,23.85805,-20.51782,1008.341
28.400794983,91.49181,13.66238,4.161713,-0.9914683,-0.09380425,0.1288506,24.0484,22.02021,-21.37171,1008.337
28.433074951,95.02431,6.676745,4.161713,-0.9848419,-0.03964714,0.1107735,24.0484,22.02021,-21.37171,1008.337
28.467833996,83.12537,1.980523,8.366622,-0.9882135,-0.02787382,0.160642,24.75263,20.5429,-22.23573,1008.337
28.500113964,79.65484,-0.3675884,11.65742,-0.9837607,-0.07191197,0.1565144,25.08209,19.06395,-23.52996,1008.335
28.534876346,74.88287,-2.891808,10.49955,-0.9950101,-0.005525986,0.1922072,25.08209,19.06395,-23.52996,1008.335
28.567156315,59.07959,-4.594189,7.818155,-0.9491807,-0.005351356,0.06206439,25.03972,16.91587,-25.1837,1008.337
28.599436283,72.15603,-3.713647,10.62143,-0.9972307,0.00554526,0.4625171,25.01906,15.08202,-26.03207,1008.337
28.634199142,17.49526,1.92182,3.978891,-1.047084,-0.3998102,0.4124593,25.01906,15.08202,-26.03207,1008.334
28.666475296,54.92735,-14.51496,-14.1205,-0.8845646,-0.807626,-0.1152242,24.62364,13.24653,-27.31066,1008.336
28.701238155,190.8976,-15.04328,-8.879598,-1.095993,0.4136926,0.3195357,24.6143,11.78283,-27.72792,1008.336
28.733518124,14.70645,-12.16685,-19.54422,-1.3105,-0.08937941,0.2765287,24.6143,11.78283,-27.72792,1008.338
28.768280506,152.4739,-47.68203,-42.88451,-1.337221,-0.4070773,-0.2018907,24.20926,9.577991,-29.37537,1008.339
28.800560474,144.1694,-45.21651,-47.82071,-0.7241834,0.3759979,0.1628527,23.46305,7.752122,-30.21272,1008.339
28.832840919,131.031,-18.62415,-44.10332,-0.4841854,0.1467384,0.2809247,21.28155,4.096424,-32.74874,1008.341
28.867599487,74.3251,-4.829,-39.83748,-0.690924,0.04883124,0.2672773,21.28155,4.096424,-32.74874,1008.337
28.899879456,131.093,1.5109,-24.96795,-0.9763615,0.4651311,0.1174929,20.19851,1.192264,-32.69527,1008.337
28.934642792,48.17223,11.72518,-5.649741,-1.063096,0.3576548,0.1774986,20.19049,-1.000466,-33.1033,1008.339
28.966922283,18.85868,17.71287,15.25292,-0.9752668,0.4700609,0.2862387,20.19049,-1.000466,-33.1033,1008.339
29.001685619,-32.20761,23.87666,28.35517,-0.9335423,0.198127,0.2599472,19.10784,-3.17479,-32.99681,1008.339
29.033965588,-44.04458,27.28142,29.1474,-0.9470918,-0.168851,0.3656966,20.23174,-3.899689,-31.7592,1008.336
29.066241264,34.16618,19.00433,20.98135,-1.169677,-0.2043316,0.07977888,20.23174,-3.899689,-31.7592,1008.338
29.101003647,31.9971,11.02075,16.59362,-1.078894,0.5277889,0.2727706,21.68285,-3.915643,-31.78126,1008.338
29.133283615,-23.40736,10.37502,14.82634,-0.9543365,-0.03352194,0.1789075,21.34537,-4.629416,-30.89506,1008.338
29.168046951,32.05907,6.911556,10.98707,-0.9266915,0.1628097,0.256831,21.34537,-4.629416,-30.89506,1008.338
29.200326443,4.79066,7.439881,10.92613,-0.9997976,0.1822602,0.2034374,21.68616,-5.738221,-31.75818,1008.338
29.235089779,13.59092,5.385284,10.01202,-1.010159,0.05485507,0.1727622,21.33603,-6.093114,-31.31232,1008.336
29.267365455,15.38816,5.502689,8.854147,-0.9326023,0.2043701,0.2449941,21.33603,-6.093114,-31.31232,1008.336
29.299645424,13.28105,8.203017,7.635333,-0.9480075,0.1660037,0.2177366,22.43634,-6.099444,-30.89314,1008.336
29.334407806,11.54579,11.25556,6.843104,-0.9846219,0.1083063,0.2160371,21.71211,-6.820499,-30.87288,1008.336
29.366687775,17.49526,11.78389,6.721222,-0.9592014,0.1896173,0.198074,21.71211,-6.820499,-30.87288,1008.334
29.401451111,7.82737,10.60983,6.172756,-1.00372,0.1810487,0.1347907,22.09952,-7.177734,-30.00232,1008.335
29.433730602,7.331581,7.850801,5.928993,-0.9693394,0.1647343,0.1467098,22.81496,-8.22414,-30.436,1008.335
29.466006756,0.3905306,6.089717,6.782163,-0.9689272,0.1996244,0.1604436,22.81496,-8.22414,-30.436,1008.335
29.500769615,-0.7249953,5.326581,7.208748,-1.016115,0.1138204,0.1561899,22.46362,-7.910754,-29.9986,1008.335
29.533049583,5.100529,3.682903,5.868052,-0.9825262,0.2169301,0.1378497,22.09073,-8.945195,-30.41574,1008.331
29.567811966,3.303293,3.565498,4.039831,-0.9601596,0.1725476,0.1597873,22.09073,-8.945195,-30.41574,1008.333
29.600092411,-0.1052586,4.974364,4.588297,-0.9683666,0.1662265,0.1578353,23.13059,-8.950861,-29.99564,1008.333
29.634855270,-3.885652,5.913609,4.77112,-0.9877623,0.1835402,0.1425055,23.12992,-8.586346,-30.00025,1008.331
29.667130947,-1.902495,5.561392,2.881958,-0.9940696,0.1849003,0.1207721,23.12992,-8.586346,-30.00025,1008.331
29.699410915,4.666713,4.622148,0.809974,-0.9834429,0.2058969,0.1672787,22.8529,-9.300784,-29.11497,1008.329
29.734173775,4.542766,4.974364,0.7490333,-0.9863393,0.1946698,0.1411154,23.50403,-8.220183,-29.57466,1008.329
29.766453743,-0.229206,3.976417,1.724085,-0.9950563,0.1921466,0.1179148,23.51866,-9.672612,-29.12047,1008.33
29.801217079,-4.319468,2.743659,0.7490333,-0.9926394,0.1901949,0.1111303,23.51866,-9.672612,-29.12047,1008.33
29.833497047,2.683556,1.863117,0.4443298,-0.9598396,0.239797,0.1548512,22.84158,-9.670935,-29.54608,1008.33
29.868255138,-2.956047,1.393495,1.602203,-0.985347,0.1820707,0.1352404,22.84158,-9.670935,-29.54608,1008.328
29.900535107,0.8863199,-0.2501828,1.053737,-0.9727598,0.1743507,0.1313018,22.84158,-9.670935,-29.54608,1008.328
29.932815075,-4.009599,0.5716561,1.053737,-0.9572585,0.1622935,0.130233,23.21634,-9.669289,-29.11587,1008.33
29.967577934,-8.843545,0.6303589,3.430424,-0.9887651,0.1912082,0.12128,23.50535,-8.949215,-29.56543,1008.331
29.999857903,-6.860388,-1.189427,2.699136,-0.9877888,0.1883172,0.124162,23.50535,-8.949215,-29.56543,1008.331
30.034621239,-2.708152,-0.6611022,1.845966,-0.9457044,0.1938787,0.1589106,23.15456,-8.939592,-29.12419,1008.333
30.066896915,-1.840521,-0.7785078,1.724085,-0.9858426,0.1849516,0.1289731,23.15456,-8.939592,-29.12419,1008.331
30.101659298,0.700399,-2.539591,0.4443298,-0.9834859,0.219401,0.1538193,23.15456,-8.939592,-29.12419,1008.333
30.133939266,4.10895,-4.183269,-1.322951,-0.9854046,0.2023564,0.1237533,23.15522,-9.304108,-29.11957,1008.334
30.166219234,2.931451,-5.533433,-3.577757,-0.9896985,0.1742418,0.1134505,23.86813,-8.953203,-29.57094,1008.334
30.200982570,3.117372,-4.241972,-4.613749,-0.9858319,0.1903715,0.1575268,23.86813,-8.953203,-29.57094,1008.338
30.233262062,12.53737,-3.126619,-4.309045,-0.9955901,0.2241894,0.1490382,23.14323,-9.309742,-29.5553,1008.338
30.268021107,6.773818,-0.5436967,-2.785527,-0.930853,0.2617616,0.1858537,23.50667,-9.678246,-29.5562,1008.335
30.300301075,-7.480124,3.6242,-1.749536,-0.9976164,0.062588,0.1592428,23.50667,-9.678246,-29.5562,1008.335
30.335063457,12.47539,4.622148,-3.516816,-0.9657505,0.2862442,0.1570618,22.76847,-9.311388,-29.98551,1008.337
30.367343426,-14.91696,8.320423,-0.5916622,-0.9165614,0.1505211,0.1919585,23.88077,-9.312085,-29.1306,1008.337
30.399623394,-3.141968,9.670587,-1.688595,-1.026847,0.1471205,0.1385151,23.88077,-9.312085,-29.1306,1008.337
30.434386730,-3.389863,13.13405,-5.040334,-0.9777444,0.2411551,0.1423281,23.5313,-10.03149,-28.68013,1008.335
30.466662407,-5.744862,15.07124,-6.015385,-0.9755663,0.1263565,0.1083134,23.86813,-8.953203,-29.57094,1008.335
30.501424789,8.942896,14.132,-9.306183,-1.011395,0.1475651,0.113829,23.86813,-8.953203,-29.57094,1008.335
30.533704758,9.19079,12.37091,-12.71886,-1.024641,0.2205289,0.09300112,23.51799,-9.308096,-29.12509,1008.335
30.565985203,-6.736441,10.31632,-15.64402,-1.071897,0.1608293,0.08067755,24.25421,-8.581408,-28.70962,1008.335
30.600747585,0.328557,7.381178,-18.63011,-1.049106,0.1269554,0.06158172,24.25421,-8.581408,-28.70962,1008.335
30.633027553,-9.959071,7.028962,-20.33645,-1.049229,0.1684717,0.03184484,24.62897,-8.579762,-28.27941,1008.338
30.667786598,-4.877231,10.25762,-22.71314,-1.051564,0.1600112,0.1077016,24.99109,-8.219234,-28.28954,1008.334
30.700066566,-6.674467,14.36681,-23.93195,-1.072171,0.06494124,0.0598285,25.3653,-7.913825,-27.86318,1008.334
30.734828949,15.20224,19.88487,-24.23666,-1.065906,0.0692687,0.04630333,25.3653,-7.913825,-27.86318,1008.336
30.767108917,58.70775,32.32986,-22.10373,-1.056875,0.345188,0.06332275,26.0998,-7.187941,-27.50996,1008.334
30.799388885,-1.840521,38.84586,-34.65752,-1.228211,0.3401212,-0.1446989,25.74967,-7.542833,-27.0641,1008.334
30.834151745,-34.19077,1.863117,-8.757716,-1.302656,0.2618564,0.2427344,25.74967,-7.542833,-27.0641,1008.335
30.866427898,92.48339,-69.69557,22.44392,-1.177059,0.05655112,0.6720403,27.23674,-7.541883,-25.77898,1008.335
30.901190758,211.2249,-100.4558,70.03861,-0.9803659,1.377738,0.8144914,27.21144,-6.824121,-26.65967,1008.337
30.933470726,-284.5024,-112.6073,27.502,-0.4750231,0.002550244,0.4222161,27.21144,-6.824121,-26.65967,1008.337
30.968233109,69.80103,-76.27028,31.40221,-0.2541973,-0.7328115,-0.7059526,22.85886,-12.58143,-29.07343,1008.333
31.000513077,57.28235,-38.23088,27.62388,-0.1969149,0.285501,0.1442814,18.74422,-9.312451,-33.34932,1008.333
31.032793045,-154.5436,14.36681,3.369484,-1.296947,-0.6369896,-0.1075639,18.74422,-9.312451,-33.34932,1008.333
31.067552090,89.94247,-0.3088856,-14.60802,-1.118702,-0.3108538,0.01911695,16.50094,-12.23845,-35.89367,1008.333
31.099832058,75.56458,-6.237866,-25.57735,-1.611267,0.163277,-0.1690508,16.82114,-8.614188,-37.25252,1008.335
31.134594917,50.27933,-3.713647,-29.8432,-1.343309,0.270392,0.2254668,16.82114,-8.614188,-37.25252,1008.335
31.166874885,23.7546,-3.889755,-26.06488,-0.9214165,-0.04499472,0.192791,17.55,-10.44474,-37.24047,1008.336
31.201637268,32.36894,-3.009213,-7.965488,-0.6130531,0.0931168,0.4177107,17.2145,-12.25207,-36.34042,1008.336
31.233917236,27.34907,-7.177111,6.294637,-0.999245,0.3510918,0.1860255,17.2145,-12.25207,-36.34042,1008.336
31.266192913,-23.59328,-4.652891,11.29178,-1.278105,0.2634285,0.1145792,17.94138,-12.98907,-36.34222,1008.336
31.300956249,-5.868809,-9.936141,2.15067,-1.093054,-0.08937649,0.09332021,17.22847,-13.33998,-35.89085,1008.336
31.333236217,60.19511,-16.51085,-4.248105,-0.792411,0.02923292,0.2818878,17.22847,-13.33998,-35.89085,1008.336
31.367998600,54.05972,-18.68286,1.2975,-0.8753853,0.3703133,0.327032,16.87835,-13.69487,-35.44499,1008.336
31.400278568,12.16553,-13.81052,-5.710681,-1.102486,0.2496483,0.1837375,17.26708,-14.78114,-34.5652,1008.336
31.435041427,16.13184,-1.541644,-17.65506,-0.9932025,0.08142708,0.2884185,17.26708,-14.78114,-34.5652,1008.338
31.467317581,58.45985,4.680851,-22.9569,-0.792541,0.09026689,0.2996389,16.18073,-15.86272,-34.53481,1008.334
31.499597072,58.39788,12.31221,-16.49719,-0.8097138,0.2274815,0.3923094,15.85325,-15.47731,-33.22673,1008.334
31.534360409,45.63131,15.36476,-7.721725,-0.956587,0.328685,0.2496201,15.91543,-17.63704,-31.08265,1008.336
31.566640377,58.27393,19.70876,-1.018247,-1.043115,0.2889642,0.168363,15.91543,-17.63704,-31.08265,1008.336
31.601402759,50.96104,21.17633,12.69341,-0.9865051,0.3122408,0.2776306,17.01707,-18.3724,-30.65424,1008.338
31.633682728,57.03446,10.37502,22.99239,-1.028048,0.3098529,0.3221829,17.4058,-19.45867,-29.77445,1008.338
31.665958404,55.11327,1.158684,27.25824,-0.9712148,0.1957584,0.3069085,17.4058,-19.45867,-29.77445,1008.338
31.700721741,14.95434,-15.04328,34.57113,-0.8680691,0.4497126,0.04562293,17.7952,-20.90945,-28.89005,1008.336
31.733001709,-7.975914,-13.3409,29.87869,-0.8858326,0.2664978,0.2602331,16.3607,-23.43947,-28.39995,1008.336
31.767764091,-26.56801,-14.69107,26.64883,-0.8726211,-0.06409031,0.08573733,16.3607,-23.43947,-28.39995,1008.332
31.800043583,26.23355,-11.05149,20.79852,-0.9875506,-0.1038508,0.1597251,14.88695,-24.16382,-29.24011,1008.332
31.834806919,49.47367,-9.877438,26.77071,-0.9333897,0.2754332,0.08103067,13.41121,-23.79462,-30.09412,1008.332
31.867082596,-1.282758,-2.539591,28.23329,-0.9933814,0.5409179,0.2189992,13.41121,-23.79462,-30.09412,1008.332
31.899362564,-65.79734,2.450145,25.12531,-1.005316,0.2688928,0.2111935,13.06306,-25.24306,-29.63441,1008.332
31.934125900,-14.42117,1.745712,22.62675,-0.974676,0.1812611,0.172921,12.33883,-25.96411,-29.61415,1008.332
31.966405869,-11.38447,2.97847,23.54086,-0.9021986,0.4572936,0.3125978,12.33883,-25.96411,-29.61415,1008.327
32.001168251,-29.17091,0.2781422,25.00343,-0.8232396,0.3745411,0.2452425,12.31222,-24.51732,-30.50406,1008.329
32.033448219,-7.294203,-1.717752,29.39116,-0.8034856,0.4217027,0.293812,11.56401,-25.24964,-31.35526,1008.331
32.068207264,-28.55117,-3.126619,28.53799,-0.8918831,0.3705176,0.2584204,11.56401,-25.24964,-31.35526,1008.329
32.100487232,-20.49459,-4.594189,18.48278,-0.9251314,0.2770804,0.1317833,11.19991,-24.51662,-31.35897,1008.329
32.132766724,26.91526,-4.359377,9.768258,-0.9624956,0.3497304,0.1815877,10.08867,-24.15061,-32.15625,1008.327
32.167529106,21.46157,-3.302727,8.305681,-0.8873767,0.5089285,0.257264,10.08867,-24.15061,-32.15625,1008.327
32.199809074,-3.761704,-1.072022,6.5384,-0.8871627,0.422343,0.2678903,10.46171,-24.14977,-31.78828,1008.323
32.234572410,-8.409729,0.1607366,7.086866,-0.8752534,0.2916958,0.2613205,10.46475,-24.87799,-31.7168,1008.322
32.266848087,9.996448,-0.3675884,11.65742,-0.8324429,0.3861767,0.2593482,10.46475,-24.87799,-31.7168,1008.322
32.301611423,20.34605,-1.365536,17.81243,-0.8687961,0.4389769,0.3056535,9.351126,-24.14826,-32.58094,1008.322
32.333891392,6.525923,0.86517,19.70159,-0.9356608,0.4621693,0.2087583,9.386692,-24.86119,-31.32678,1008.323
32.366170406,13.59092,1.276089,25.06437,-0.8719324,0.4995667,0.1948138,9.386692,-24.86119,-31.32678,1008.321
32.400933742,-27.3117,4.328634,23.78462,-0.903443,0.3496592,0.2534923,9.35311,-25.24181,-32.56709,1008.321
32.433213234,14.3346,2.508848,23.35803,-0.8808067,0.4026148,0.2958038,8.652849,-25.9516,-31.67538,1008.321
32.467972755,1.382109,2.215334,26.03942,-0.8230438,0.4852557,0.2144481,8.616232,-25.60398,-32.98717,1008.325
32.500252247,-5.806836,-0.6023995,28.17235,-0.8778235,0.5045589,0.1020347,8.616232,-25.60398,-32.98717,1008.323
32.535014629,14.3346,1.393495,29.81775,-0.837931,0.6170434,0.1315946,8.266764,-26.32339,-32.5367,1008.323
32.567294598,-13.92539,4.446039,29.93963,-0.8520305,0.6728827,0.1991405,7.926246,-26.30894,-31.72198,1008.321
32.599574566,-6.364599,7.792098,27.80671,-0.8394458,0.6656401,0.1932709,7.926246,-26.30894,-31.72198,1008.321
32.634337902,-13.80144,6.911556,30.42716,-0.7963619,0.6952837,0.3364445,7.927958,-26.30813,-31.65973,1008.323
32.666613579,28.4646,2.097928,54.31591,-0.6474252,0.7304238,0.4412295,7.903987,-26.3194,-32.53119,1008.319
32.701375961,59.7613,4.03512,76.80303,-0.8476406,0.8611431,0.199718,7.903987,-26.3194,-32.53119,1008.319
32.733655930,60.50498,0.8064672,81.98299,-0.8373856,1.040883,0.251479,6.113022,-26.65351,-31.68979,1008.32
32.765935898,57.65419,0.2781422,81.49547,-0.9160945,0.9204082,0.038734,4.713825,-28.80211,-29.89712,1008.32
32.800698757,91.61576,8.144315,87.89424,-0.7654004,0.945537,-0.09922794,4.713825,-28.80211,-29.89712,1008.32
32.832978725,113.0586,25.52034,89.90528,-0.6923124,0.8707916,-0.2264714,0.7618814,-30.1994,-28.51081,1008.317
32.867737293,134.0677,63.50103,88.38177,-0.7089947,1.133577,-0.3506353,-2.394309,-31.57166,-24.58341,1008.317
32.900017261,74.26313,86.0429,78.32655,-0.8553343,1.294119,-0.2623881,-2.394309,-31.57166,-24.58341,1008.318
32.934780121,42.40868,93.20464,70.70896,-0.8425171,1.017164,-0.1750378,-5.440221,-33.95484,-18.90094,1008.313
32.967060089,91.30589,92.50021,66.13841,-0.7558547,1.00222,-0.08829056,-7.459478,-35.68105,-13.24257,1008.313
32.999340057,112.7488,89.79988,62.78667,-0.6874527,1.129365,-0.04082149,-7.459478,-35.68105,-13.24257,1008.313
33.034102917,103.2668,82.99036,60.5928,-0.5916343,1.30925,-0.01873389,-10.2376,-38.87424,-8.861882,1008.313
33.066379070,85.17049,68.02115,56.14413,-0.4656704,1.007195,-0.00815342,-10.5229,-42.84692,-6.253478,1008.311
33.101141453,121.673,54.75432,54.62062,-0.3089201,0.9669321,-0.02660741,-10.5229,-42.84692,-6.253478,1008.309
33.133421421,128.4281,46.77074,51.81734,-0.1726272,0.9792612,-0.07372461,-10.48363,-44.6526,-4.923218,1008.309
33.168184280,110.4557,32.56467,52.18299,-0.09416591,0.9423832,-0.0267264,-10.04105,-44.25423,-2.007755,1008.303
33.200464248,104.4443,13.42756,47.06397,-0.07237067,0.7002603,-0.09293086,-10.04105,-44.25423,-2.007755,1008.302
33.232744217,125.3294,-3.537539,39.08074,-0.07316994,0.6012642,-0.1737428,-9.597681,-42.3962,1.013738,1008.3
33.267502785,127.7464,-19.91561,34.87583,-0.07864045,0.6416697,-0.2411827,-9.506819,-40.52935,4.414226,1008.298
33.299782276,108.8444,-33.94558,29.57399,-0.0562533,0.5465506,-0.3399099,-9.506819,-40.52935,4.414226,1008.298
33.334545612,102.2752,-42.51619,24.82061,-0.04056786,0.4277491,-0.4242541,-8.678416,-38.66484,8.23941,1008.298
33.366825580,89.88049,-44.51208,26.52695,-0.05546062,0.3528536,-0.5213355,-8.578876,-34.96978,12.05255,1008.298
33.401587963,93.59892,-39.69845,25.91754,-0.06746853,0.2847398,-0.6188681,-7.409294,-33.48425,15.06763,1008.296
33.433867931,81.94787,-32.83023,24.82061,-0.05181362,0.1741191,-0.716702,-7.409294,-33.48425,15.06763,1008.295
33.466143608,98.74273,-25.37497,28.17235,-0.04661994,0.2200387,-0.7367565,-5.893829,-30.2473,17.5569,1008.295
33.500906944,65.27695,-15.57161,28.05047,-0.05069706,0.1146347,-0.706407,-5.114692,-27.6763,19.62995,1008.295
33.567949295,73.95326,0.5716561,24.69873,-0.2908116,0.00436846,-0.7688801,-3.632259,-25.12374,20.88276,1008.287
33.600228786,86.71984,12.31221,25.5519,-0.3007001,0.04448793,-0.9170464,-2.139164,-21.83652,22.56206,1008.286
33.634992123,39.55789,35.08889,20.55476,-0.3795586,0.02308184,-1.026739,-2.139164,-21.83652,22.56206,1008.286
33.667267799,17.43329,46.18371,10.68237,-0.4337046,-0.2286444,-1.149397,-0.7075821,-18.91395,24.18465,1008.286
33.699547768,75.31669,53.69767,7.086866,-0.4639602,-0.1169901,-1.162716,-0.7102281,-17.45588,24.16619,1008.286
33.734310150,61.55854,69.48872,-0.9573064,-0.4639306,-0.1036735,-1.088674,-0.7102281,-17.45588,24.16619,1008.282
33.766590118,100.1061,63.26622,-1.383891,-0.48162,-0.2079527,-1.143374,-0.2901707,-15.97364,26.32084,1008.283
33.801353455,114.9798,43.18987,3.796069,-0.3106649,0.1341352,-1.01562,-1.332545,-14.84559,28.06645,1008.283
33.833632946,40.92131,44.48133,2.577255,-0.1527005,0.001074009,-1.001247,-1.332545,-14.84559,28.06645,1008.283
33.865909100,57.09643,31.39061,2.21161,-0.2186934,-0.1529761,-1.136377,-1.667693,-11.18034,29.27074,1008.283
33.900671482,53.19209,25.16812,-2.298002,-0.01081894,-0.08270976,-0.9976784,-1.973314,-9.354439,29.25225,1008.283
33.967714310,34.47605,13.01665,3.247602,-0.09490546,-0.08029806,-0.9288351,-3.051644,-8.243292,29.69068,1008.285
33.999994278,12.28947,5.620095,2.638195,0.06484289,-0.1396983,-0.8850407,-3.404971,-6.836358,30.11423,1008.285
34.034756660,1.072241,12.48832,3.735128,0.03267645,-0.2429201,-0.9010284,-3.404971,-6.836358,30.11423,1008.285
34.067032814,20.16013,-1.130724,2.516314,-0.04091211,-0.1956119,-0.8730447,-3.394309,-6.101692,30.54072,1008.285
34.099312305,30.07591,-14.22144,0.5052705,0.06470966,-0.3141695,-0.9614489,-3.031532,-6.10568,30.53521,1008.287
34.134075642,25.05605,-12.92998,3.613246,0.03468966,-0.08772612,-0.9455934,-3.031532,-6.10568,30.53521,1008.283
34.166355610,8.261186,-12.16685,5.075823,-0.02100599,-0.08482848,-1.043112,-3.046164,-4.653252,30.08102,1008.283
34.201117992,-14.17328,-9.349113,1.35844,0.05754152,-0.1809669,-1.061715,-1.959156,-3.936186,30.05524,1008.283
34.233397960,-19.00723,-0.719805,-1.749536,0.06123702,-0.2734948,-0.951058,-1.959156,-3.936186,30.05524,1008.283
34.268157005,-9.649202,-3.889755,1.236559,-0.07971716,-0.1546885,-0.9022182,-1.294726,-3.578983,30.04051,1008.284
34.300436973,-16.77617,-24.61184,-1.993298,-0.02160151,-0.2279381,-1.003799,-0.5811582,-3.592594,29.59375,1008.284
34.332716465,-72.98629,-30.48211,-8.026428,0.2408181,0.2471013,-0.9910275,-0.5811582,-3.592594,29.59375,1008.284
34.367479324,-0.4771006,-24.14221,-0.3478994,-0.007693476,-0.09257053,-1.340016,-0.2177196,-3.961098,29.59285,1008.284
34.399758816,-6.178678,0.9238728,-0.835425,-0.04325419,-0.102994,-1.10118,0.8496757,-4.71256,28.77633,1008.28
34.434522152,-31.89775,2.508848,-0.1041366,-0.02910978,-0.07703941,-0.8796476,1.587876,-5.079418,29.20564,1008.28
34.466797829,4.852634,-13.75182,0.5052705,-0.02594986,-0.007592997,-0.9527422,1.587876,-5.079418,29.20564,1008.282
34.501560688,48.97788,-13.45831,-0.7135436,-0.01854945,-0.08857015,-1.00688,1.949602,-5.448727,29.14249,1008.282
34.533840179,20.40802,-8.938193,0.1396262,-0.04948279,-0.1101038,-1.051896,2.313041,-5.817231,29.1416,1008.282
34.566120148,2.74553,-2.069969,0.07868555,-0.04462253,-0.125136,-1.065045,2.313041,-5.817231,29.1416,1008.28
34.600883484,-3.51381,-2.480888,-0.04319586,-0.03197328,-0.1345542,-0.9988944,3.023963,-4.37278,28.67638,1008.283
34.633162975,-6.860388,-6.355272,-0.5916622,-0.04019776,-0.1189577,-0.959146,2.684495,-3.993006,29.54873,1008.285
34.667921543,-1.034863,-8.938193,-0.7135436,-0.03396372,-0.09911995,-0.9653313,2.684495,-3.993006,29.54873,1008.287
34.700201511,-0.04328496,-7.705435,-0.7135436,-0.03785652,-0.08897015,-0.9657486,2.671849,-3.634125,29.10839,1008.287
34.734964848,-7.666045,-7.177111,-0.5307215,-0.07990867,-0.1154109,-1.021404,3.047272,-3.996995,29.54321,1008.288
34.767244339,-7.728019,-6.296569,-0.2869587,-0.07941577,-0.1261215,-1.040803,3.047272,-3.996995,29.54321,1008.288
34.799524307,-15.90854,-2.833105,-1.018247,-0.07167929,-0.1153497,-1.010302,3.38674,-4.376768,28.67086,1008.292
34.834286690,-19.19315,-2.011266,-1.932358,-0.04709056,-0.07550701,-0.9835393,3.388063,-5.1058,28.68009,1008.287
34.866562843,-15.72262,-1.424238,-2.054239,-0.06068848,-0.05868521,-1.006136,3.388063,-5.1058,28.68009,1008.287
34.901325703,-17.14802,-0.6611022,-1.627654,-0.07140071,-0.03458963,-1.026764,3.752553,-5.108983,28.73682,1008.289
34.933605671,-21.11433,1.628306,0.4443298,-0.02355127,-0.0003353464,-0.9551233,3.753875,-5.838015,28.74606,1008.289
34.965885639,-14.79302,2.56755,1.663144,-0.1104482,-0.1001761,-1.069595,3.753875,-5.838015,28.74606,1008.289
35.000648022,-13.86341,-3.596241,-2.054239,-0.07476494,-0.04331002,-1.026806,4.126264,-5.472658,29.1094,1008.291
35.032927990,-25.32854,6.852853,-12.23134,-0.007656644,-0.01325353,-1.067872,3.743213,-6.572681,28.31956,1008.291
35.067687035,-27.80749,15.54086,-9.001479,-0.0724794,0.005504875,-1.046838,3.743213,-6.572681,28.31956,1008.291
35.099967003,-32.76538,12.66443,-5.832563,-0.03513983,0.003609376,-0.9236524,3.381098,-6.933208,28.32969,1008.289
35.134729385,-22.04393,3.330687,-3.455875,-0.08499649,0.01644788,-0.9486107,3.380436,-6.568692,28.32508,1008.29
35.167009353,0.142636,-4.007161,-0.835425,-0.06517664,0.002798947,-0.9946578,3.380436,-6.568692,28.32508,1008.292
35.199289322,3.613161,1.041278,0.07868555,-0.07539761,0.01080178,-1.052119,3.38231,-7.601487,28.33815,1008.292
35.234052181,-6.302625,4.504742,0.4443298,-0.06483757,0.04667075,-1.04372,3.394958,-7.960368,28.7785,1008.292
35.266328335,-10.26894,4.856959,0.5052705,-0.0387428,0.06866632,-1.001108,3.394958,-7.960368,28.7785,1008.29
35.301090717,-6.05473,3.154578,0.5662112,-0.008722557,0.06061207,-0.9755965,3.382972,-7.966002,28.34277,1008.29
35.333370209,-2.894073,1.334792,0.3833891,-0.01736381,0.02957153,-0.9888073,3.37231,-8.700668,27.91628,1008.29
35.368133545,1.939872,-1.65905,-0.1041366,-0.03279242,0.008700349,-0.9942106,3.008871,-8.332165,27.91718,1008.291
35.400413513,5.720265,-4.41808,-0.6526029,-0.04638231,0.01773671,-1.029421,3.008871,-8.332165,27.91718,1008.291
35.432693481,0.9482936,-3.067916,-0.5916622,-0.04060734,0.03718579,-1.007085,2.305576,-8.313724,28.73741,1008.287
35.467451572,-7.170256,-1.835158,-0.226018,-0.03924729,0.07346492,-1.012683,3.021518,-8.691046,28.35752,1008.287
35.499731541,-5.992756,-0.3675884,-0.226018,-0.04840367,0.06135027,-1.009831,3.021518,-8.691046,28.35752,1008.287
35.534494877,-4.629336,0.9825755,0.2615077,-0.05173695,0.04005265,-1.008495,2.646094,-8.328176,27.92269,1008.287
35.566774845,-0.4151269,2.156631,0.2615077,-0.04542278,0.03090219,-1.000825,2.635432,-9.062842,27.49619,1008.287
35.601537228,1.072241,1.980523,0.200567,-0.03721873,0.03525647,-1.00807,2.635432,-9.062842,27.49619,1008.289
35.633817196,0.8863199,1.158684,0.1396262,-0.04206969,0.04348581,-1.003178,2.295303,-8.318553,28.36393,1008.285
35.666092873,-2.894073,0.6303589,-0.04319586,-0.03630143,0.0585091,-1.001655,2.656367,-8.323346,28.29617,1008.285
35.700855255,-4.505389,-0.1327773,-0.04319586,-0.03628435,0.05027249,-1.004602,2.656367,-8.323346,28.29617,1008.285
35.733135223,-3.947625,-0.07407448,0.07868555,-0.04257665,0.05169484,-1.007965,3.020856,-8.32653,28.3529,1008.285
35.767898083,-5.37302,0.2194394,-0.04319586,-0.04547066,0.04878461,-1.007492,2.647417,-9.057207,27.93192,1008.287
35.800178051,-3.203942,0.9825755,-0.04319586,-0.0406368,0.05318983,-0.9968414,2.647417,-9.057207,27.93192,1008.287
35.834940433,-5.682888,-1.600347,-0.4088401,-0.02467289,0.05082072,-0.9954389,2.659402,-9.051573,28.36765,1008.283
35.867216587,-6.302625,-1.189427,-0.4697808,-0.05275455,0.06867211,-0.9875417,3.373633,-9.429701,27.92551,1008.283
35.899496555,-1.716574,0.1020339,-0.1041366,-0.05566988,0.06616226,-1.011722,3.373633,-9.429701,27.92551,1008.283
35.934259415,-4.319468,-0.3088856,-0.04319586,-0.05281143,0.07381186,-1.041658,3.009532,-8.69668,27.92179,1008.284
35.966539383,-3.823678,1.980523,0.3833891,-0.03968101,0.06438519,-0.978409,3.373633,-9.429701,27.92551,1008.284
36.001301765,5.720265,3.213281,0.8709147,-0.02710497,0.06785779,-0.9639133,3.373633,-9.429701,27.92551,1008.284
36.033581734,7.207633,-0.6023995,0.200567,-0.03971416,0.06962323,-1.003518,3.361648,-9.435335,27.48978,1008.286
36.065857410,-0.7869689,-1.952564,-0.5916622,-0.03777588,0.05742899,-1.033565,2.636094,-9.427358,27.50081,1008.286
36.100620747,-7.728019,0.336845,-0.4088401,-0.03971732,0.06961013,-1.007386,2.636094,-9.427358,27.50081,1008.284
36.132900715,-5.558941,0.9238728,-0.04319586,-0.03872501,0.06874003,-0.9793532,2.998209,-9.066831,27.49068,1008.286
36.167663097,1.56803,-1.072022,-0.226018,-0.04554166,0.07829934,-1.008774,3.010856,-9.425712,27.93102,1008.286
36.199943065,3.365267,-1.189427,-0.1041366,-0.04697476,0.06615111,-1.022376,3.010856,-9.425712,27.93102,1008.286
36.234705925,1.382109,0.336845,0.200567,-0.04649695,0.07297008,-1.009769,3.010194,-9.061196,27.92641,1008.286
