Time (s),Gyroscope X (deg/s),Gyroscope Y (deg/s),Gyroscope Z (deg/s),Accelerometer X (g),Accelerometer Y (g),Accelerometer Z (g),Magnetometer X (uT),Magnetometer Y (uT),Magnetometer Z (uT),Barometer (hPa)
0.006462097,0.7437812,0.1381166,-0.2672737,-0.05411366,-0.9961422,-0.03651833,0.004116535,38.92923,1.063542,1007.888
0.039022923,0.06697915,-0.09980719,0.09992268,-0.05798627,-0.9976617,-0.03412089,-0.3623538,38.92658,1.064731,1007.888
0.071583748,-0.2406581,0.07863563,-0.08367552,-0.05653507,-0.9976251,-0.03798875,-0.3623538,38.92658,1.064731,1007.886
0.106649399,-0.05607576,0.1381166,-0.4508719,-0.05598934,-1.002482,-0.03709662,-0.3583038,38.56018,0.6212692,1007.886
0.139210701,0.2515615,0.0191547,-0.2672737,-0.05510762,-0.9956427,-0.04231027,-0.7247746,38.55754,0.6224585,1007.886
0.171771050,0.313089,0.07863563,-0.08367552,-0.05508665,-0.998059,-0.04524742,-0.7247746,38.55754,0.6224585,1007.89
0.206836700,0.1900341,-0.04032624,-0.08367552,-0.05790367,-1.005898,-0.03956377,-0.3623538,38.92658,1.064731,1007.889
0.239398003,0.313089,-0.04032624,-0.1448749,-0.05461782,-0.9965927,-0.04570888,0.0008544922,38.92406,0.1713982,1007.887
0.271959305,0.4361439,0.07863563,0.03872328,-0.05692377,-1.005896,-0.03714781,0.0008544922,38.92406,0.1713982,1007.887
0.304519653,0.2515615,-0.2187691,0.03872328,-0.05846556,-0.9986333,-0.03558538,-0.3696661,39.28781,0.6160469,1007.889
0.339585304,0.005451698,0.1381166,-0.2060743,-0.05410359,-0.9971119,-0.03701651,-0.7320867,38.91877,0.1737757,1007.889
0.372146607,-0.05607576,0.07863563,-0.08367552,-0.05551646,-1.001975,-0.04047297,-0.7320867,38.91877,0.1737757,1007.887
0.404706955,-0.05607576,0.0191547,-0.02247611,-0.05700149,-0.9990958,-0.0365606,-0.7190931,38.19373,0.6250696,1007.885
0.439772606,0.06697915,0.0191547,-0.1448749,-0.0550368,-1.000528,-0.03658435,-0.7377679,39.28258,0.1711645,1007.885
0.472333908,0.2515615,0.07863563,0.09992268,-0.05356177,-1.003864,-0.04678759,-0.7377679,39.28258,0.1711645,1007.885
0.504894257,0.5591988,-0.04032624,0.03872328,-0.05361018,-0.9980685,-0.03896509,-0.7288246,38.92393,1.06592,1007.883
0.539960384,0.3746164,0.1975975,0.09992268,-0.05995692,-0.9976454,-0.0433029,-0.7361369,39.28516,0.6172361,1007.883
0.572521210,0.1285066,-0.2187691,-0.2672737,-0.05401338,-1.004886,-0.03713521,-0.7361369,39.28516,0.6172361,1007.882
0.605082035,0.1285066,0.07863563,-0.2672737,-0.05942975,-1.000091,-0.03850694,-0.3599348,38.5576,0.1751976,1007.882
0.640147686,0.313089,0.1381166,-0.5120713,-0.05463721,-0.9937037,-0.03986426,-0.3639848,38.924,0.6186581,1007.88
0.672708988,0.2515615,0.0191547,-0.1448749,-0.05940757,-1.002509,-0.04096075,-0.3639848,38.924,0.6186581,1007.88
0.705269337,-0.1791307,-0.09980719,0.03872328,-0.05406412,-1.000513,-0.03706844,-0.3583038,38.56018,0.6212692,1007.88
0.737830639,0.06697915,0.1975975,-0.08367552,-0.05504522,-1.000513,-0.03996775,-0.3583038,38.56018,0.6212692,1007.882
0.772896290,0.1900341,-0.04032624,-0.08367552,-0.05599941,-1.001513,-0.03659844,-0.3583038,38.56018,0.6212692,1007.882
0.805456638,0.1285066,-0.04032624,-0.1448749,-0.05554502,-1.00002,-0.04286001,-0.3623538,38.92658,1.064731,1007.882
0.838017940,-0.05607576,0.1381166,0.1611221,-0.05844661,-1.00057,-0.03706508,-0.3583038,38.56018,0.6212692,1007.884
0.873083591,-0.05607576,0.07863563,0.09992268,-0.05213731,-0.9980715,-0.03413279,-0.3583038,38.56018,0.6212692,1007.884
0.905643940,0.06697915,0.0191547,-0.08367552,-0.05599212,-1.002953,-0.04048743,0.3762684,38.56806,1.064964,1007.886
0.938205242,0.5591988,-0.1592881,0.03872328,-0.05309105,-1.000023,-0.0351284,-0.7304556,38.92135,0.6198473,1007.886
0.973270893,0.4361439,0.0191547,-0.08367552,-0.05210867,-1.001453,-0.0385348,-0.7304556,38.92135,0.6198473,1007.886
1.005831718,0.005451698,-0.09980719,-0.3284731,-0.05508754,-0.9961549,-0.03651758,-0.3639848,38.924,0.6186581,1007.886
1.038392544,-0.2406581,-0.2187691,-0.02247611,-0.05307128,-1.002437,-0.03854889,-0.3639848,38.924,0.6186581,1007.884
1.073458672,-0.1791307,-0.04032624,0.09992268,-0.05792457,-1.004909,-0.04341567,-0.3639848,38.924,0.6186581,1007.884
1.106019020,0.2515615,0.0191547,0.09992268,-0.05838219,-1.00592,-0.03618,-0.7320867,38.91877,0.1737757,1007.884
1.138580322,0.1285066,-0.09980719,-0.08367552,-0.05846954,-0.9991016,-0.03945954,-0.7264056,38.55495,0.1763868,1007.884
1.171141148,0.3746164,-0.09980719,0.03872328,-0.0589525,-0.9986396,-0.03558501,-0.7264056,38.55495,0.1763868,1007.884
1.206206322,0.1285066,-0.04032624,0.03872328,-0.05405968,-1.000997,-0.0375592,-0.3680351,39.29039,1.062119,1007.888
1.238767624,0.1900341,-0.04032624,-0.1448749,-0.05310549,-0.999997,-0.04092851,-0.7247746,38.55754,0.6224585,1007.888
1.271328926,0.06697915,-0.09980719,-0.2672737,-0.05751257,-0.9976311,-0.03943803,-0.7247746,38.55754,0.6224585,1007.888
1.306393623,0.3746164,0.07863563,-0.2060743,-0.05165955,-0.9989995,-0.04236481,0.01384807,38.19902,0.6226921,1007.888
1.338954926,0.005451698,0.07863563,0.1611221,-0.05166646,-0.9970845,-0.03605169,-0.3550417,38.56535,1.513413,1007.888
1.371516228,-0.05607576,0.1381166,0.2835208,-0.05507943,-0.9980722,-0.04234736,-0.3550417,38.56535,1.513413,1007.886
1.406581879,0.06697915,0.0191547,0.1611221,-0.05262381,-0.9990298,-0.03849733,-0.001564503,39.29304,1.060931,1007.886
1.439142227,0.1285066,-0.09980719,0.03872328,-0.0550171,-1.001515,-0.03321579,0.008167028,38.56283,0.6200809,1007.886
1.471703529,0.06697915,-0.09980719,0.3447202,-0.05700871,-0.9990826,-0.03946066,0.008167028,38.56283,0.6200809,1007.886
1.506769180,0.005451698,0.0191547,0.2223215,-0.05693295,-1.006831,-0.04537946,-0.3639848,38.924,0.6186581,1007.886
1.539330006,0.3746164,0.0191547,0.03872328,-0.05844458,-1.00105,-0.03852253,-0.7264056,38.55495,0.1763868,1007.888
1.571890831,0.6207263,-0.09980719,0.03872328,-0.05986678,-1.003993,-0.03663255,-0.7304556,38.92135,0.6198473,1007.886
1.604452133,0.4361439,-0.1592881,-0.1448749,-0.05803213,-0.9947243,-0.0389098,-0.7304556,38.92135,0.6198473,1007.888
1.639517307,-0.05607576,0.1381166,-0.08367552,-0.05598294,-1.002018,-0.03225578,-0.3639848,38.924,0.6186581,1007.888
1.672078609,-0.1791307,0.0191547,0.1611221,-0.05257833,-1.002442,-0.03613255,-0.3672469,38.91883,-0.2734852,1007.886
1.704639435,0.1900341,-0.04032624,0.2835208,-0.05265877,-0.9975391,-0.0457252,-0.3672469,38.91883,-0.2734852,1007.888
1.739704609,0.1285066,-0.04032624,0.2835208,-0.05596084,-1.00301,-0.02792054,-0.7377679,39.28258,0.1711645,1007.89
1.772265911,0.1285066,0.07863563,0.09992268,-0.05557689,-0.9961568,-0.0374839,-0.7320867,38.91877,0.1737757,1007.89
1.804827213,0.313089,-0.04032624,0.1611221,-0.05509754,-0.9966123,-0.04280845,-0.7320867,38.91877,0.1737757,1007.89
1.839891911,0.4361439,-0.09980719,-0.02247611,-0.05887838,-1.005434,-0.03762224,-0.3656158,38.92141,0.1725864,1007.894
1.872453213,0.1900341,-0.2187691,0.03872328,-0.05941012,-0.9996508,-0.02834934,-0.7264056,38.55495,0.1763868,1007.894
1.905014515,0.1285066,-0.04032624,0.09992268,-0.05601474,-0.9995822,-0.03366872,-0.7264056,38.55495,0.1763868,1007.896
1.940080166,0.2515615,0.07863563,-0.3284731,-0.0618456,-1.000632,-0.03319573,-0.7207241,38.19115,0.178998,1007.896
1.972640514,0.7437812,0.07863563,-0.4508719,-0.04869931,-1.000459,-0.03368915,-1.092876,38.55231,0.1775751,1007.896
2.005201817,0.5591988,0.0191547,0.09992268,-0.05308947,-0.9995507,-0.03222093,-1.092876,38.55231,0.1775751,1007.894
2.040267468,0.06697915,0.07863563,0.2223215,-0.05649162,-1.000558,-0.03416652,-0.7190931,38.19373,0.6250696,1007.894
2.072828293,0.2515615,0.0191547,-0.02247611,-0.05401262,-1.003937,-0.03228695,0.008167028,38.56283,0.6200809,1007.896
2.105389118,0.313089,-0.04032624,-0.02247611,-0.05844142,-1.000104,-0.03270759,0.008167028,38.56283,0.6200809,1007.896
2.137950420,0.3746164,0.1381166,0.1611221,-0.05549277,-1.002494,-0.03323026,-0.3656158,38.92141,0.1725864,1007.896
2.173015595,-0.05607576,-0.04032624,-0.02247611,-0.0589316,-0.999629,-0.03173311,-0.7361369,39.28516,0.6172361,1007.895
2.205576897,0.06697915,-0.09980719,-0.3896725,-0.05792869,-1.002523,-0.03371174,-0.7361369,39.28516,0.6172361,1007.895
2.238137722,0.5591988,0.0191547,-0.6344701,-0.05790659,-1.003515,-0.02937649,-0.3656158,38.92141,0.1725864,1007.895
2.273202896,0.1285066,0.07863563,-0.3896725,-0.0525357,-1.004898,-0.03036954,-0.7304556,38.92135,0.6198473,1007.891
2.305764198,-0.1791307,0.07863563,-0.3896725,-0.05358446,-0.9990667,-0.03317982,-0.7304556,38.92135,0.6198473,1007.891
2.338325024,-0.4252405,0.0191547,-0.1448749,-0.05555396,-0.9976255,-0.03508944,-0.003195524,39.29045,0.6148586,1007.891
2.373391152,-0.3021856,-0.04032624,0.1611221,-0.05598731,-1.002962,-0.03855407,-0.3526223,38.19638,0.6238804,1007.896
2.405951500,0.1285066,0.1381166,0.09992268,-0.06032921,-1.004995,-0.03133025,-0.3526223,38.19638,0.6238804,1007.896
2.438512802,0.2515615,0.07863563,0.03872328,-0.05700473,-0.9986142,-0.0355865,-0.3639848,38.924,0.6186581,1007.894
2.473578453,0.4361439,-0.04032624,0.09992268,-0.05796974,-0.9995944,-0.03656727,-0.7207241,38.19115,0.178998,1007.894
2.506138802,0.4361439,0.07863563,-0.3284731,-0.05940929,-1.000128,-0.03029013,-0.7207241,38.19115,0.178998,1007.896
2.538700104,0.313089,0.07863563,-0.2060743,-0.05745512,-0.9996386,-0.02545078,-0.3696661,39.28781,0.6160469,1007.894
2.571261406,-0.2406581,-0.04032624,-0.02247611,-0.06083871,-1.003058,-0.0313002,-0.3583038,38.56018,0.6212692,1007.894
2.606326580,-0.2406581,0.0191547,-0.4508719,-0.05937299,-1.004475,-0.036157,-0.3583038,38.56018,0.6212692,1007.9
2.638887405,0.005451698,-0.1592881,-0.7568689,-0.0554839,-1.003461,-0.03421178,-0.3639848,38.924,0.6186581,1007.9
2.671448708,0.1900341,0.0191547,-0.3284731,-0.05264801,-0.9961319,-0.03458608,-0.7361369,39.28516,0.6172361,1007.898
2.706514358,0.2515615,0.1975975,-0.08367552,-0.05602038,-0.9990963,-0.0336613,-0.7361369,39.28516,0.6172361,1007.898
2.739074707,0.2515615,0.1381166,0.03872328,-0.05352771,-1.003451,-0.03082988,-1.096926,38.9187,0.6210356,1007.898
2.771636009,0.313089,0.0191547,-0.02247611,-0.05695804,-1.002029,-0.03273838,-0.3623538,38.92658,1.064731,1007.898
2.806701660,0.06697915,0.07863563,0.03872328,-0.05795605,-1.000571,-0.03561543,-0.3623538,38.92658,1.064731,1007.898
2.839262485,-0.4252405,0.0191547,0.03872328,-0.05983942,-1.005945,-0.03472886,-0.7361369,39.28516,0.6172361,1007.898
2.871823311,-0.1176032,-0.04032624,0.09992268,-0.06080969,-1.005965,-0.03327809,-0.7304556,38.92135,0.6198473,1007.898
2.906889439,0.3746164,-0.27825,-0.02247611,-0.05695601,-1.002508,-0.03419583,-0.7304556,38.92135,0.6198473,1007.898
2.939449787,0.1900341,0.07863563,-0.1448749,-0.05455353,-0.9990882,-0.0312457,-0.7190931,38.19373,0.6250696,1007.898
2.972011089,-0.1791307,-0.1592881,-0.2672737,-0.05891468,-1.001087,-0.03175537,-0.3599348,38.5576,0.1751976,1007.9
3.004571915,-0.2406581,0.07863563,-0.08367552,-0.05353455,-1.002963,-0.0313058,-0.3599348,38.5576,0.1751976,1007.9
3.039638042,-0.2406581,-0.04032624,0.2835208,-0.05601918,-0.9990985,-0.03317795,-0.003195524,39.29045,0.6148586,1007.897
3.072198391,0.313089,0.2570785,0.2223215,-0.05691414,-1.005914,-0.03328107,-0.3656158,38.92141,0.1725864,1007.895
3.104759693,0.4361439,-0.1592881,0.1611221,-0.05893521,-0.9996225,-0.03318314,-0.3656158,38.92141,0.1725864,1007.894
3.139825344,0.4361439,0.0191547,0.03872328,-0.05939757,-1.002052,-0.03466988,-0.3583038,38.56018,0.6212692,1007.894
3.172385693,0.5591988,0.0191547,0.09992268,-0.05650169,-0.9995885,-0.03366834,-0.3623538,38.92658,1.064731,1007.894
3.204946995,0.1900341,-0.09980719,-0.1448749,-0.05840481,-1.002549,-0.02936128,-0.3623538,38.92658,1.064731,1007.894
3.240012646,-0.1176032,0.1381166,-0.08367552,-0.05551374,-1.000077,-0.03029311,-0.7304556,38.92135,0.6198473,1007.898
3.272572994,-0.5482954,-0.04032624,-0.02247611,-0.05600587,-1.00055,-0.03465024,-0.7377679,39.28258,0.1711645,1007.898
3.305134296,0.1292843,0.0786622,-0.3279364,-0.05159798,-1.003393,-0.0380815,-0.7304556,38.92135,0.6198473,1007.896
3.340199947,0.9881898,0.01920924,-0.1433021,-0.05358047,-0.9985983,-0.02930566,-0.7304556,38.92135,0.6198473,1007.896
3.372761250,0.6157114,-0.09977497,0.5288622,-0.05458856,-0.9961705,-0.03168454,-0.7304556,38.92135,0.6198473,1007.894
3.405321598,-0.2454417,0.01957517,0.6485294,-0.05846036,-0.9981672,-0.03122788,-0.7304556,38.92135,0.6198473,1007.894
3.437882900,0.8613343,-0.1588356,0.09589785,-0.05936653,-1.005438,-0.0381052,-0.7304556,38.92135,0.6198473,1007.892
3.472948551,2.822263,-0.3362454,0.1568489,-0.06234141,-0.9996713,-0.03221384,-0.7434492,39.64639,0.1685534,1007.891
3.505509377,3.064808,-0.157399,0.03419548,-0.05836212,-1.006432,-0.03038732,-0.3583038,38.56018,0.6212692,1007.891
3.538070202,2.941753,-0.5737656,-0.2106021,-0.05551013,-1.000084,-0.02884309,-0.3583038,38.56018,0.6212692,1007.891
3.573136330,3.064808,-0.09791802,-0.3330009,-0.05594032,-1.004474,-0.02649277,-0.3696661,39.28781,0.6160469,1007.889
3.605697155,3.680083,-0.157399,0.03419548,-0.05595489,-1.001594,-0.01871478,-1.098557,38.91612,0.174964,1007.889
3.638257980,3.864665,0.02104386,0.2177937,-0.05987908,-0.9982632,-0.01430979,-1.098557,38.91612,0.174964,1007.887
3.673323631,2.572588,-0.09791802,-0.3330009,-0.05940303,-0.9968101,-0.01187119,-0.3656158,38.92141,0.1725864,1007.887
3.705884933,0.3576,0.02104386,-0.7613967,-0.0569172,-1.000677,-0.009515699,-0.3656158,38.92141,0.1725864,1007.887
3.738445282,-1.242114,0.02104386,-0.7613967,-0.05491417,-1.006935,-0.01686377,-0.3656158,38.92141,0.1725864,1007.887
3.773510933,-1.365169,0.1400057,-0.7001973,-0.05252614,-1.003489,-0.01971375,-0.7377679,39.28258,0.1711645,1007.885
3.806072235,-0.3807295,-0.03843708,-0.3330009,-0.05355032,-1.00008,-0.02401116,-0.7377679,39.28258,0.1711645,1007.885
3.838633060,0.7267647,-0.03843708,0.09539488,-0.05209392,-0.9995775,-0.02352151,-0.7377679,39.28258,0.1711645,1007.885
3.871193886,1.157457,-0.03843708,0.4013919,-0.05060288,-1.002467,-0.02501717,-0.7264056,38.55495,0.1763868,1007.884
3.906259537,1.649677,-0.3358418,0.8297876,-0.05400313,-1.0011,-0.01484212,-0.3753474,39.65162,0.6134357,1007.888
3.938820839,0.9728746,-0.5142846,1.074585,-0.05635975,-1.007457,-0.01300333,-0.3753474,39.65162,0.6134357,1007.888
3.971381187,0.7267647,-0.5142846,1.074585,-0.06276527,-1.002171,-0.01823363,-0.7337177,38.91618,-0.272296,1007.888
4.006446838,1.957314,-0.3953227,0.6461895,-0.06078645,-1.005532,-0.02167045,-0.7320867,38.91877,0.1737757,1007.886
4.039008141,3.003281,-0.3358418,0.7685882,-0.0671422,-1.001287,-0.01144865,-0.7320867,38.91877,0.1737757,1007.886
4.071569443,3.680083,-0.2763608,-0.02700391,-0.06475746,-0.9959323,-0.00653549,-0.3672469,38.91883,-0.2734852,1007.886
4.106634617,3.003281,-0.09791802,-1.189793,-0.05497347,-0.9996926,-0.006602301,-0.7320867,38.91877,0.1737757,1007.884
4.139195442,1.588149,0.1994867,-0.5165991,-0.04861711,-1.000133,0.001602245,-0.7320867,38.91877,0.1737757,1007.884
4.171756744,0.5421823,0.0805248,-0.02700391,-0.03450655,-0.9999294,-0.002758655,-1.100188,38.91354,-0.2711077,1007.884
4.206821919,-0.7498943,0.3184485,1.319383,-0.05655397,-0.9880783,-0.0001396872,-0.002407551,38.91889,-0.720746,1007.889
4.239382744,-2.472663,0.3779295,1.686579,-0.07205839,-0.996509,-0.007503996,-0.002407551,38.91889,-0.720746,1007.889
4.271944046,-3.27252,0.5563723,0.2177937,-0.08499849,-1.014657,-0.008251753,-0.7337177,38.91618,-0.272296,1007.889
4.304505348,-5.241399,0.3779295,-2.352581,-0.0748716,-1.008635,-0.02073746,-0.001564503,39.29304,1.060931,1007.889
4.339570522,-4.564597,0.1994867,-2.964575,-0.04818386,-1.00098,-0.02451344,-0.001564503,39.29304,1.060931,1007.889
4.372131348,-1.488224,0.1400057,-1.312191,-0.04050837,-0.9902039,-0.0209728,-0.3769784,39.64904,0.1673641,1007.889
4.404692650,3.372445,-0.2763608,0.58499,-0.03413811,-0.9959016,-0.03218355,-0.01050782,39.65168,0.1661758,1007.893
4.439758301,7.494785,-0.5142846,3.094165,-0.0505071,-1.009301,-0.01835424,-0.01050782,39.65168,0.1661758,1007.891
4.472319126,7.12562,-0.9901322,3.58376,-0.04848693,-1.013688,-0.009722345,-0.7304556,38.92135,0.6198473,1007.89
4.504879952,4.602994,-0.9901322,3.094165,-0.05390584,-1.006034,0.001517326,-0.3729281,39.28264,-0.2760963,1007.89
4.539946079,4.849104,-0.8711703,1.502981,-0.08568656,-0.9933689,0.01092538,-0.3729281,39.28264,-0.2760963,1007.89
4.572506428,-19.5773,30.4158,3.889757,-0.3947226,-0.9569819,-0.3241681,-0.7377679,39.28258,0.1711645,1007.886
4.605067730,2.572588,-0.03843708,-1.740587,-0.04981355,-1.019184,0.01919769,-0.3729281,39.28264,-0.2760963,1007.886
4.640133381,-0.442257,-0.03843708,-2.41378,-0.05097817,-1.006007,0.003931798,-0.3729281,39.28264,-0.2760963,1007.886
4.672694683,-2.288081,0.5563723,-0.9449949,-0.06509985,-1.008093,-0.005270556,-0.739399,39.27999,-0.2749071,1007.888
4.705255032,-1.488224,0.4374104,-0.08820331,-0.05432513,-1.011871,0.001428676,-0.003195524,39.29045,0.6148586,1007.888
4.737816334,-0.01156478,0.1400057,1.196984,-0.06672508,-0.9921165,0.003675536,-0.003195524,39.29045,0.6148586,1007.886
4.772881985,-0.3807295,-0.157399,0.9521865,-0.06676333,-0.9887174,0.004210809,-1.098557,38.91612,0.174964,1007.89
4.805443287,0.6652372,-0.03843708,-0.3942003,-0.06659698,-1.003765,0.0005974341,-0.7434492,39.64639,0.1685534,1007.888
4.838003635,2.141896,-0.03843708,-0.5777985,-0.06068188,-1.011906,-0.009199999,-0.7434492,39.64639,0.1685534,1007.888
4.873069286,2.511061,-0.09791802,-0.5777985,-0.05548544,-0.9963238,-0.0007498916,-0.3769784,39.64904,0.1673641,1007.888
4.905630589,0.3576,0.1994867,-0.8225961,-0.05691118,-1.000687,-0.007098988,-0.01213884,39.6491,-0.2798958,1007.887
4.938190937,-3.02641,0.4374104,-1.250992,-0.06265144,-1.009037,-0.004320575,-0.01213884,39.6491,-0.2798958,1007.887
4.973256588,-2.103498,0.0805248,-0.1494027,-0.05405996,-0.9952891,-0.01040302,-0.3729281,39.28264,-0.2760963,1007.888
5.005817890,1.649677,-0.3953227,1.380582,-0.05548741,-0.9972715,-0.006081492,0.3559628,39.65433,0.1649866,1007.888
5.038379192,4.910632,-0.4548037,1.441782,-0.06271872,-1.002732,-0.001807422,-0.3712971,39.28522,0.1699753,1007.888
5.073444366,5.033687,-0.2763608,0.7073888,-0.06759387,-1.000882,0.004992773,-0.3712971,39.28522,0.1699753,1007.888
5.106005192,2.572588,0.0805248,-0.5777985,-0.06858587,-0.999435,0.004532434,-0.01782012,40.01291,-0.2825069,1007.888
5.138566494,0.8498197,-0.03843708,-0.6389979,-0.06021356,-1.00806,0.001492502,-0.7434492,39.64639,0.1685534,1007.885
5.171127796,0.6652372,0.0805248,-0.08820331,-0.06068689,-1.007616,0.009233767,-0.7434492,39.64639,0.1685534,1007.891
5.206192970,0.8498197,0.3184485,-0.7613967,-0.05736488,-0.9998034,0.01079988,-0.3769784,39.64904,0.1673641,1007.891
5.238753796,2.634116,0.2589676,-0.2106021,-0.06090233,-0.9891491,0.009032335,-0.3802404,39.64387,-0.7247801,1007.891
5.271315098,3.557028,0.0805248,-0.8225961,-0.06322511,-0.9984219,0.01082661,-0.3802404,39.64387,-0.7247801,1007.889
5.306380272,3.126336,0.1994867,-1.373391,-0.06207089,-1.012531,0.01737752,-0.3842907,40.01026,-0.2813187,1007.887
5.338941097,0.6037098,0.3184485,-1.618188,-0.0664985,-1.008701,0.01744023,-0.3729281,39.28264,-0.2760963,1007.887
5.371502400,-3.02641,0.3184485,-2.230182,-0.05546595,-0.9930302,0.0229858,-0.3729281,39.28264,-0.2760963,1007.887
5.406568050,-5.672091,0.3184485,-2.230182,-0.05593147,-0.9964049,0.01568411,-0.3786094,39.64645,-0.2787075,1007.887
5.439128876,-6.533475,0.1994867,-1.985385,-0.04857853,-1.001631,0.01028015,-0.3786094,39.64645,-0.2787075,1007.886
5.471689701,-6.287365,0.1994867,-1.006194,-0.05290864,-1.007015,0.006335163,-0.3786094,39.64645,-0.2787075,1007.886
5.506755829,-7.825552,0.3184485,-0.5165991,-0.06168612,-1.006155,0.005873375,-0.388341,40.37666,0.1621418,1007.888
5.539316654,-9.056101,0.3779295,-0.8837955,-0.05783559,-1.003644,-0.0008593071,-0.7450802,39.6438,-0.2775183,1007.888
5.571877480,-9.671375,0.4374104,-0.7001973,-0.05211179,-0.9947888,-0.00798038,-0.7450802,39.6438,-0.2775183,1007.888
5.604438305,-11.08651,0.02104386,-0.2718015,-0.05109034,-1.000095,-0.01386284,-0.3656158,38.92141,0.1725864,1007.888
5.639504433,-11.33262,0.4968913,0.6461895,-0.05595932,-1.00111,-0.01822402,-0.3672469,38.91883,-0.2734852,1007.89
5.672065258,-12.07095,0.4374104,1.870177,-0.04950774,-1.013615,-0.02857194,-0.3672469,38.91883,-0.2734852,1007.89
5.704626083,-13.05539,0.7348151,3.461362,-0.05985183,-1.006398,-0.04198641,0.004116535,38.92923,1.063542,1007.888
5.739691734,-13.11691,0.1400057,4.256954,-0.04795079,-1.027564,-0.05585536,-0.3712971,39.28522,0.1699753,1007.888
5.772253036,-14.47052,-0.03843708,6.092936,-0.04456467,-1.027003,-0.06261735,-0.3712971,39.28522,0.1699753,1007.89
5.804813862,-16.6855,-0.6927274,7.68412,-0.05861984,-0.9926442,-0.07029699,-0.7215126,38.5627,1.514603,1007.892
5.839879036,-17.1162,-2.001308,9.214106,-0.05062819,-1.010031,-0.07153672,-0.3493602,38.20154,1.516025,1007.892
5.872440338,-20.9309,-5.391721,10.0709,-0.07056095,-0.9718805,-0.07480246,-0.3493602,38.20154,1.516025,1007.89
5.905001640,-18.34675,-10.09072,5.174944,-0.06142165,-0.981542,-0.167767,0.02442241,37.84296,1.963519,1007.89
5.940067291,-7.210278,-11.16137,5.052546,-0.151765,-1.000262,-0.1578145,-0.3233733,36.75146,2.418613,1007.892
5.972627640,-1.488224,-6.046012,3.828558,-0.168337,-0.9885587,-0.1073488,-0.3233733,36.75146,2.418613,1007.89
6.005188942,2.757171,-2.417675,4.012156,-0.2389728,-1.0317,-0.12099,-0.316061,36.39024,2.867296,1007.89
6.037749767,2.141896,-3.904698,6.827328,-0.07025088,-0.9986054,-0.07521048,0.4201419,36.4007,3.757063,1007.889
6.072814941,-7.88708,-3.250408,5.052546,-0.1341325,-0.9892815,-0.06437229,0.4201419,36.4007,3.757063,1007.889
6.105376244,-15.82412,-2.060789,4.379352,-0.1182227,-0.9773662,-0.07387339,-0.3184805,36.75921,3.756829,1007.887
6.137937546,-24.0688,1.508067,0.09539488,-0.1183799,-0.9689937,-0.09839772,0.421773,36.40328,4.203135,1007.884
6.173003197,-23.88422,1.329625,-1.312191,-0.1183656,-0.9752029,-0.1221779,0.421773,36.40328,4.203135,1007.884
6.205563545,-20.43868,2.757167,-5.045355,-0.1071415,-0.9898453,-0.1828343,0.07965827,34.94797,4.660839,1007.882
6.238124847,-14.6551,7.158757,-9.023315,-0.06888309,-1.015539,-0.1943808,-0.2868121,34.94532,4.662027,1007.882
6.273190498,-6.287365,3.887305,0.2789931,-0.06563444,-0.9999823,-0.1859292,-0.2868121,34.94532,4.662027,1007.882
6.305751801,-6.964168,5.136405,1.992576,-0.09662035,-0.9746116,-0.1893793,-0.2795,34.5841,5.11071,1007.88
6.338312149,-6.964168,2.816648,2.910567,-0.09763892,-0.9626524,-0.1505257,-0.2648754,33.86164,6.008078,1007.885
6.373378277,-4.380014,1.03222,2.298573,-0.08044592,-0.9783992,-0.1652838,-0.2648754,33.86164,6.008078,1007.885
6.405939102,-3.395575,0.02104386,5.052546,-0.0775771,-0.9720817,-0.1569728,-0.2648754,33.86164,6.008078,1007.885
6.438500404,-2.53419,-1.109094,5.113745,-0.0913237,-0.9663473,-0.174757,0.1015952,33.86429,6.006889,1007.883
6.473565579,-2.103498,-0.2168799,5.786939,-0.097703,-0.9644379,-0.185356,0.1015952,33.86429,6.006889,1007.881
6.506126404,-1.365169,0.1994867,5.480941,-0.05539702,-0.9552181,-0.1678546,-0.9905045,33.49512,6.459139,1007.881
6.538687706,1.157457,-4.856393,5.542141,-0.1924537,-1.027822,-0.1987994,-0.2575631,33.50041,6.45676,1007.881
6.571249008,2.141896,-1.763384,3.889757,-0.1918745,-0.9937953,-0.1982808,-0.2575631,33.50041,6.45676,1007.881
6.606314182,3.187863,-1.882346,6.337733,-0.07455313,-0.9812671,-0.1590494,-0.6199837,33.13137,6.01449,1007.881
6.638875008,8.786861,-3.607294,7.806519,-0.1109673,-0.9976332,-0.1911668,-0.9864542,33.12873,6.015678,1007.879
6.671436310,12.54004,-2.358194,8.234915,-0.09220973,-0.9755571,-0.1826307,-0.9864542,33.12873,6.015678,1007.879
6.706501961,15.49335,-3.131446,8.479712,-0.1104564,-0.994817,-0.1679222,0.1072764,33.50048,6.009501,1007.879
6.739062786,16.60085,-4.202103,10.1933,-0.13584,-0.9888501,-0.1634563,-0.6329772,33.85641,5.563196,1007.879
6.771623611,18.63125,-4.975355,10.49929,-0.1286604,-0.9756859,-0.1521447,-0.2665064,33.85906,5.562006,1007.881
6.806689739,24.59942,-6.283936,12.64127,-0.1475722,-0.9841632,-0.1590231,-0.2665064,33.85906,5.562006,1007.881
6.839250565,30.75216,-6.224454,12.45767,-0.1443381,-1.009428,-0.1516776,0.09833312,33.85912,5.114744,1007.885
6.871811390,33.70548,-6.700302,14.47725,-0.1502665,-0.9922264,-0.1040385,0.07965827,34.94797,4.660839,1007.885
6.906877041,33.39784,-6.343417,15.02805,-0.1737627,-0.9713796,-0.05342662,0.07965827,34.94797,4.660839,1007.885
6.939438343,32.65951,-6.640821,15.39524,-0.1847484,-0.9857094,-0.03333282,0.4501791,34.58423,4.21619,1007.885
6.971999168,28.96787,-5.391721,16.12964,-0.2065145,-0.9957749,-0.01993082,0.4485481,34.58165,3.770119,1007.885
7.004559517,23.73803,-5.034836,13.13087,-0.2066209,-0.9841658,-0.008152557,0.4485481,34.58165,3.770119,1007.885
7.039625645,20.10791,-5.986531,12.45767,-0.2070345,-0.9904889,-0.008248626,1.176597,34.57919,2.429525,1007.888
7.072186470,23.55345,-5.272759,12.39647,-0.2253584,-0.9616265,0.004777194,0.06745338,35.30145,2.87394,1007.886
7.104747772,23.92262,-4.856393,9.642501,-0.2402591,-0.9731179,0.03071861,0.06745338,35.30145,2.87394,1007.886
7.139813423,20.84624,-4.440026,7.378123,-0.2460251,-0.9804696,0.02771175,0.7914512,35.66539,1.976808,1007.886
7.172374249,19.8618,-3.36937,5.052546,-0.2297961,-0.9838812,0.07598172,1.14819,36.39824,2.41647,1007.882
7.204935074,11.80171,-1.46598,5.480941,-0.2334473,-0.9601775,0.08988144,1.14819,36.39824,2.41647,1007.881
7.240001202,2.880226,-0.8711703,3.216564,-0.2389217,-0.9481415,0.0992545,1.150609,36.02927,1.526937,1007.879
7.272562027,-2.841828,-0.2168799,1.686579,-0.2448109,-0.9467072,0.08768102,1.156291,35.66545,1.529548,1007.879
7.305122852,-5.364454,0.3184485,-0.8225961,-0.2504748,-0.9666111,0.06659763,1.156291,35.66545,1.529548,1007.881
7.337683678,-4.626124,0.0805248,-2.168983,-0.2438801,-0.994597,0.0410287,1.160341,35.29906,1.086087,1007.88
7.372749806,0.7267647,-0.4548037,-1.556989,-0.2310692,-1.009926,0.02869805,1.522761,35.6681,1.528358,1007.881
7.405310631,5.525906,-0.7522084,0.8297876,-0.2331604,-0.9526716,0.04359148,1.522761,35.6681,1.528358,1007.88
7.437871456,8.725334,-1.644422,1.319383,-0.2242459,-0.9599646,0.06957397,1.157922,35.66804,1.975619,1007.88
7.472937107,8.971444,-1.763384,2.420972,-0.2375829,-0.9816125,0.08907503,0.7881892,35.66022,1.084664,1007.88
7.505498409,5.710489,-1.347018,4.073355,-0.2286333,-0.957159,0.08122205,0.7881892,35.66022,1.084664,1007.882
7.538059235,0.8498197,-1.763384,6.276534,-0.2076247,-0.9703311,0.0457143,0.7768266,36.38785,1.079442,1007.882
7.573124409,7.925477,-2.417675,15.39524,-0.1795782,-1.002842,0.007971226,0.7841389,36.02662,1.528125,1007.882
7.605685711,26.87593,-1.584942,25.86034,-0.2437593,-1.004805,0.04183959,0.7841389,36.02662,1.528125,1007.882
7.638246536,26.75288,0.7348151,29.34871,-0.291503,-0.9830318,0.1393766,1.15466,35.66287,1.083476,1007.886
7.673312664,5.525906,3.114053,23.35117,-0.2509526,-0.9039089,0.1700306,1.887601,35.66816,1.081099,1007.885
7.705873012,-14.77815,-0.157399,19.312,-0.2559246,-0.9417786,0.1472223,1.887601,35.66816,1.081099,1007.885
7.738434315,-16.25481,-1.703903,16.31323,-0.2919629,-0.9598381,0.06142385,1.522761,35.6681,1.528358,1007.885
7.773499966,0.9113471,-2.417675,10.25449,-0.3513508,-0.9606479,0.06920285,1.528443,35.30429,1.53097,1007.885
7.806061268,12.47851,-2.477156,5.297343,-0.3704749,-0.8984025,0.1131915,1.528443,35.30429,1.53097,1007.885
7.838621616,10.94032,-2.77456,-1.801786,-0.3548935,-0.8886855,0.1582787,2.252441,35.66823,0.6338367,1007.883
7.871182919,0.5421823,-1.287537,-5.53495,-0.3217138,-0.9349316,0.1628583,1.535755,34.94306,1.979652,1007.883
7.906248569,-13.54761,2.638205,-4.861757,-0.3055068,-0.9478151,0.1568456,1.535755,34.94306,1.979652,1007.883
7.938809872,-31.4521,6.207062,-4.555759,-0.3015428,-0.9103716,0.1636969,1.893282,35.30435,1.08371,1007.883
7.971370697,-56.12461,9.716437,-4.739358,-0.2821813,-0.9032468,0.1488023,1.907907,34.5819,1.981075,1007.883
8.006435871,-69.96828,8.824224,1.441782,-0.3106836,-0.9796034,0.07902532,1.907907,34.5819,1.981075,1007.883
8.038997173,-75.3827,11.73879,1.62538,-0.3362433,-0.9723637,0.01728821,1.905488,34.95087,2.870608,1007.883
8.071558476,-83.99654,12.92841,-0.3942003,-0.3037114,-0.930445,-0.02270732,1.929055,33.86977,4.662729,1007.887
8.106624126,-94.51774,12.86893,2.053776,-0.2845732,-0.9162537,-0.09549919,1.929055,33.86977,4.662729,1007.889
8.139184475,-93.71788,12.51204,4.807748,-0.3056329,-0.9248666,-0.185035,1.935579,33.8801,6.447018,1007.889
8.171745777,-89.41096,9.537994,5.358542,-0.307741,-0.9279285,-0.2653202,2.335349,32.07145,7.7971,1007.889
8.206811428,-82.15072,5.136405,7.194525,-0.3313071,-0.9221739,-0.3154809,2.335349,32.07145,7.7971,1007.887
8.239372730,-76.0595,3.054572,7.010926,-0.3215613,-0.9329985,-0.3649598,1.630026,30.61866,9.148138,1007.885
8.271933556,-72.36785,1.745991,6.031736,-0.3209083,-0.9575516,-0.4141561,2.384116,29.91183,11.82741,1007.882
8.304494381,-74.82895,-0.7522084,3.950957,-0.355095,-0.8547155,-0.3617996,2.384116,29.91183,11.82741,1007.882
8.339560032,-93.28719,2.459762,-4.188563,-0.3089195,-0.7950382,-0.3140462,2.837652,28.46484,12.72861,1007.88
8.372121334,-123.005,5.909657,-16.30604,-0.2943365,-0.8537218,-0.4058304,2.069619,27.00903,13.63378,1007.88
8.404682160,-131.6188,13.64218,-13.36847,-0.4472788,-0.8357191,-0.5272191,2.069619,27.00903,13.63378,1007.88
8.439747334,-136.7256,16.25934,-16.30604,-0.2727548,-0.7217849,-0.7122327,1.392861,24.04811,16.33391,1007.884
8.472308636,-102.8239,16.49726,-16.85684,-0.2783481,-0.6563188,-0.6962439,1.444602,21.14759,18.07537,1007.884
8.504869938,-63.01568,16.61623,-13.98047,-0.2760856,-0.609418,-0.7429014,1.444602,21.14759,18.07537,1007.883
8.539935589,-19.70035,18.46013,-6.636539,-0.2603821,-0.5857112,-0.7807417,2.591094,18.24763,18.53876,1007.883
8.572496891,1.342039,14.11803,-3.45417,-0.2305169,-0.6454907,-0.8019844,1.88414,16.79226,19.44373,1007.881
8.605057240,5.095214,7.575123,1.074585,-0.2507489,-0.7027009,-0.783986,2.24898,16.79232,18.99646,1007.881
8.640122890,1.649677,6.147581,3.64496,-0.2744618,-0.6980493,-0.6997846,2.24898,16.79232,18.99646,1007.881
8.672684193,-3.887794,11.20346,-0.2106021,-0.3092741,-0.6676239,-0.6504657,1.527401,16.0594,19.00406,1007.883
8.705245495,-2.964883,21.67211,-5.902146,-0.3126985,-0.6301218,-0.6774428,1.529032,16.06199,19.45014,1007.882
8.737805843,-10.53276,28.75034,3.828558,-0.8594047,-0.5714948,-0.7084069,1.529032,16.06199,19.45014,1007.88
8.772871494,-17.23925,27.38227,-25.60835,-0.5790961,-0.8468515,-0.9125131,1.15688,16.42315,19.44872,1007.88
8.805432796,-5.856673,-9.198501,-25.66955,-0.4967528,-0.9251856,-0.8717338,1.138205,17.512,18.99481,1007.88
8.837994099,8.294641,-18.41805,12.02928,-0.7756495,-0.991186,-0.5196065,1.138205,17.512,18.99481,1007.88
8.873059750,49.2104,-20.26196,42.32298,-0.5527735,-0.5510059,-0.4889373,2.243299,17.15613,18.99385,1007.88
8.905620098,29.58314,-51.60841,18.88361,-0.481074,-0.6367396,-0.4545445,3.034056,17.1567,18.09913,1007.878
8.938181400,7.064093,-61.36329,19.312,-0.4425682,-0.7631834,-0.6459945,3.034056,17.1567,18.09913,1007.882
8.973247051,-7.39486,-79.50497,9.7037,-0.4022551,-0.8389304,-0.6529895,2.612977,16.41824,16.76753,1007.882
9.005808353,-13.11691,-80.39719,4.930147,-0.4036247,-0.7987444,-0.6233725,2.265181,15.32674,17.22262,1007.879
9.038368702,-10.71734,-86.76165,0.58499,-0.4150741,-0.7675196,-0.5759975,2.265181,15.32674,17.22262,1007.879
9.073434353,-9.056101,-92.47182,-2.352581,-0.43949,-0.6969009,-0.4651701,2.286275,13.86892,16.78699,1007.879
9.105995655,-17.17772,-95.86224,-8.900916,-0.4531137,-0.6956716,-0.4540205,1.579554,12.41392,17.75568,1007.879
9.138556957,-27.63739,-103.3568,-11.22649,-0.4018624,-0.6643686,-0.4574594,1.579554,12.41392,17.75568,1007.879
9.171117783,-36.12819,-101.156,-18.69282,-0.3789119,-0.681785,-0.5157524,1.967728,11.33251,19.03682,1007.877
9.206182957,-37.78942,-98.06303,-30.13711,-0.3445518,-0.6975361,-0.4807394,2.362659,10.2618,22.16597,1007.877
9.238744259,-26.03768,-82.89539,-28.66832,-0.337116,-0.6834685,-0.5598058,2.362659,10.2618,22.16597,1007.875
9.271305561,-16.6855,-69.69062,-23.89477,-0.3260705,-0.6773334,-0.5945259,3.186771,9.196772,25.7398,1007.873
9.306371212,-15.82412,-49.64554,-17.34643,-0.3153668,-0.5137885,-0.6171768,5.418264,8.083834,29.75559,1007.873
9.338931561,-23.02283,-45.60084,-17.22404,-0.3331223,-0.5382816,-0.6257507,5.418264,8.083834,29.75559,1007.878
9.371492863,-25.23782,-35.90545,-11.96089,-0.3552453,-0.566664,-0.6464642,7.628505,8.117796,32.87096,1007.878
9.406558514,-35.08222,-35.4296,-6.024545,-0.395375,-0.5026668,-0.6203135,8.745015,7.780005,35.9925,1007.876
9.439119816,-43.14231,-39.89067,-21.69159,-0.3567658,-0.4995683,-0.5502139,8.745015,7.780005,35.9925,1007.876
9.471681118,-37.48179,-46.19564,-24.56796,-0.3511301,-0.4862159,-0.372133,10.58957,7.43976,37.77346,1007.876
9.506745815,-24.68407,-42.98368,-5.473751,-0.4563859,-0.3126457,-0.3669664,11.34771,6.366537,40.00928,1007.874
9.539307118,-1.980443,-50.24035,5.786939,-0.5898037,-0.1937556,-0.3882259,11.34771,6.366537,40.00928,1007.874
9.571868420,6.694928,-54.82038,37.42703,-0.6748533,-0.1685906,-0.3945272,12.82254,6.018478,40.89928,1007.874
9.604429245,3.187863,-54.58246,66.43554,-0.6849442,-0.1371599,-0.3882374,15.03194,5.678298,42.23297,1007.874
9.639495373,-9.302211,-51.25153,83.69377,-0.7126235,-0.2288678,-0.3934768,15.03194,5.678298,42.23297,1007.874
9.672055721,-29.85238,-41.55613,93.97527,-0.7490763,-0.2451637,-0.4410612,16.15142,4.599602,43.06565,1007.874
9.704617023,-42.2194,-56.06948,74.02427,-0.7735846,-0.2827048,-0.4851142,16.91868,2.422401,43.14267,1007.88
9.739682674,-48.37215,-47.50423,71.4539,-0.8014148,-0.305229,-0.4216252,16.91868,2.422401,43.14267,1007.882
9.772243977,-50.15644,-34.29946,79.89941,-0.8806083,-0.3664616,-0.4360175,16.95277,0.2395358,43.15834,1007.886
9.804804802,-32.74417,-23.94978,82.89818,-0.9504622,-0.3270704,-0.533958,17.71086,-1.57939,42.27687,1007.887
9.839869976,-6.41042,-15.86037,72.73908,-1.009218,-0.3305166,-0.4793323,17.71086,-1.57939,42.27687,1007.887
9.872431278,-7.702497,-13.60009,76.28864,-1.032528,-0.2126759,-0.4886296,17.01116,-4.141691,40.51324,1007.893
9.904992580,-21.48465,-17.22843,75.30946,-1.009133,-0.1687098,-0.4710633,16.33109,-7.853476,39.20395,1007.889
9.940058231,-35.69749,-9.912272,58.72442,-1.070024,0.05665201,-0.3994102,16.33109,-7.853476,39.20395,1007.895
9.972619534,-43.3269,-17.88272,50.8297,-1.068259,-0.1049514,-0.4468314,16.36759,-10.40532,38.33008,1007.892
10.005179882,-49.6027,-19.36974,53.09407,-1.094667,-0.00627036,-0.4201648,16.78193,-13.68213,37.46025,1007.892
10.037741184,-46.0341,-24.84199,48.13692,-1.179016,-0.04611829,-0.4492105,16.78193,-13.68213,37.46025,1007.897
10.072806835,-39.01997,-28.35136,45.75014,-1.130147,-0.05245966,-0.4111677,16.09523,-16.96947,36.14791,1007.898
10.105368137,-42.95773,-28.47033,41.58859,-1.13668,-0.02839179,-0.3788913,16.87604,-20.24364,35.27689,1007.902
10.137928963,-47.26465,-31.26593,33.14307,-1.109548,-0.006383467,-0.3316942,16.87604,-20.24364,35.27689,1007.904
10.172994137,-42.40398,-28.05396,19.6792,-1.112157,0.02006145,-0.2766666,16.55013,-23.16452,33.96075,1007.904
10.205555439,-47.57229,-27.75656,11.78448,-1.06598,0.03508372,-0.2416789,17.31321,-25.41048,32.63626,1007.907
10.238116264,-61.23139,-32.03918,8.173716,-1.048124,0.1035701,-0.1816793,17.31321,-25.41048,32.63626,1007.909
10.273182392,-89.2879,-26.21005,-8.839717,-1.029641,0.07489245,-0.1284798,17.70319,-27.23463,31.30991,1007.911
10.305743218,-104.7928,-31.50385,-7.615729,-1.039243,0.03176614,-0.07789057,18.09318,-29.05879,29.98356,1007.912
10.338304043,-89.2879,-29.65994,-13.91927,-1.021492,-0.01591421,-0.01627951,18.10853,-30.89851,26.42804,1007.912
10.373369694,-51.32547,-30.49268,-10.4921,-1.034569,-0.06086597,-0.001484631,18.10853,-30.89851,26.42804,1007.918
10.405930996,-10.53276,-32.51503,-0.3330009,-1.01909,-0.01439616,-0.02254257,19.22089,-32.36131,23.75849,1007.922
10.438491821,15.12419,-35.01323,3.950957,-1.060088,0.07359555,-0.03807875,20.02869,-33.45217,22.8716,1007.924
10.471052647,15.49335,-34.77531,6.337733,-1.049216,0.1337367,-0.08599277,20.02869,-33.45217,22.8716,1007.927
10.506118298,-9.056101,-40.7234,12.45767,-1.514489,0.2478012,-0.2104482,19.59546,-33.09145,22.87038,1007.927
10.538679600,-20.62326,-30.61164,9.275305,-1.085936,0.1056189,-0.09992086,19.59787,-33.46043,21.98085,1007.935
10.571240425,-27.8835,-24.4851,14.29366,-1.066168,0.08441593,-0.08334523,19.59787,-33.46043,21.98085,1007.938
10.606306553,-29.54474,-14.73023,13.00847,-1.033288,0.06820397,-0.05800533,20.40265,-34.55608,20.26554,1007.938
10.638866901,-29.29863,-8.425249,11.96808,-1.011551,0.08308017,-0.06069961,20.03534,-34.93288,18.48505,1007.936
10.671428204,-34.40541,-5.153798,6.949727,-1.00697,0.1084021,-0.05838421,20.03534,-34.93288,18.48505,1007.936
10.706493854,-40.31205,-5.92705,1.196984,-0.998525,0.09298518,-0.0639447,19.2421,-35.31017,17.15202,1007.936
10.739055157,-40.49664,-5.570164,-7.799328,-0.9945764,0.09151233,-0.04946968,19.23884,-35.31533,16.25988,1007.938
10.771615982,-39.20456,-4.440026,-20.4676,-0.9870887,0.07557696,-0.05068678,19.23884,-35.31533,16.25988,1007.944
10.806682110,-27.2067,-2.77456,-28.72952,-1.000272,0.04318412,-0.01926538,19.22827,-34.95927,14.91905,1007.946
10.839242458,-11.76331,1.389105,-25.42476,-1.0179,0.01465437,0.004968592,19.59311,-34.95921,14.47179,1007.946
10.871803284,6.571873,13.10685,-26.09795,-1.005123,0.1414278,0.0581283,19.59311,-34.95921,14.47179,1007.946
10.906869411,8.786861,23.21861,-30.13711,-1.009392,0.08985358,0.05831234,19.58337,-34.229,14.91264,1007.944
10.939430237,1.09593,21.43418,-18.99882,-0.9847226,0.102844,0.05123607,20.73576,-33.48783,15.7958,1007.944
10.971991539,-0.442257,18.5791,-12.57288,-0.9235739,0.132082,0.1023777,20.73576,-33.48783,15.7958,1007.942
11.004551888,-2.595718,20.66093,-15.81645,-0.8959244,0.09892521,0.0984615,21.08846,-32.38859,16.67892,1007.942
11.039618015,-14.53204,15.36713,-6.391742,-0.9174316,0.05985026,0.0795178,21.08362,-31.65064,18.45798,1007.944
11.072178841,-16.99314,12.69048,1.56418,-0.9011493,0.03874353,0.06516214,21.08362,-31.65064,18.45798,1007.942
11.104740143,-13.79372,14.35595,4.379352,-0.9051329,-0.0005667715,0.04136417,22.18871,-32.00651,18.45703,1007.942
11.139805794,-16.31634,12.27412,10.31569,-0.9740865,0.01762462,0.01173889,21.80761,-31.2867,17.56085,1007.942
11.172366619,-22.2845,8.169933,8.357313,-0.9789695,0.01568342,-0.002787314,21.80761,-31.2867,17.56085,1007.945
11.204927445,-19.26966,4.898481,4.440552,-0.993741,-0.0183974,-0.03181224,21.82061,-32.01174,18.01215,1007.945
11.239993572,-8.379299,4.541595,-0.7001973,-0.99154,-0.04213979,-0.04136075,21.81329,-31.65051,17.56347,1007.947
11.272554398,3.680083,5.612252,-4.188563,-0.9859571,-0.06341039,-0.05039143,21.81329,-31.65051,17.56347,1007.947
11.305115700,17.03154,8.467338,-6.51414,-0.9930952,-0.03960843,-0.06790636,21.4525,-32.01697,17.56726,1007.948
11.340181351,15.00113,8.764743,-8.900916,-0.9967007,0.02152968,-0.05633584,21.81087,-31.28153,18.453,1007.948
11.372742176,0.3576,5.195886,-9.818908,-1.015473,0.08926049,-0.04174984,21.81087,-31.28153,18.453,1007.948
11.405303001,-11.14804,1.864953,-9.451711,-0.9767788,0.07983735,0.003506472,22.55113,-31.63747,18.8993,1007.948
11.437864304,-10.1636,-2.001308,-1.740587,-0.9556078,0.05875896,-0.00311944,22.53572,-30.54345,19.33754,1007.95
11.472929955,7.740895,-3.726255,6.276534,-0.8860852,-0.0165939,-0.01303694,22.53572,-30.54345,19.33754,1007.948
11.505491257,18.07751,5.612252,3.400162,-0.9373485,0.03952677,0.003336798,22.52514,-30.18739,17.99671,1007.954
11.538051605,15.86252,8.288895,4.930147,-1.022725,0.04108904,-0.05021179,23.24998,-29.44931,18.88126,1007.954
11.573117256,15.24724,7.158757,-4.066164,-1.040164,-0.009665065,-0.05435292,23.24998,-29.44931,18.88126,1007.954
11.605678558,6.571873,2.519243,-1.862986,-0.3185342,0.003588614,-0.04517969,23.25324,-29.44415,19.7734,1007.953
11.638239860,4.479939,9.89488,6.58253,-0.8301234,0.01791654,-0.06670265,22.90303,-30.16667,21.11803,1007.949
11.673305511,7.37173,10.07332,20.47479,-1.109808,0.03974956,-0.2178799,22.90303,-30.16667,21.11803,1007.947
11.705865860,-7.39486,-14.61127,15.57884,-0.8446171,0.1338752,-0.06443617,25.46101,-29.78691,20.66103,1007.947
11.738427162,-10.34818,10.84658,11.11129,-0.9346905,0.112284,0.04263102,26.56937,-30.13762,21.55221,1007.947
11.773492813,-0.8114217,5.017443,6.827328,-1.040009,-0.02897396,-0.08268351,26.56937,-30.13762,21.55221,1007.947
11.806054115,1.157457,8.110452,9.581302,-0.9820889,0.1029324,-0.06670907,25.84211,-30.50672,21.5572,1007.946
11.838615417,-0.6883668,7.694086,6.092936,-0.9936262,0.08158025,-0.1066606,25.46669,-30.15072,20.66364,1007.946
11.871176243,0.6037098,5.790695,4.256954,-0.9906853,0.07682739,-0.1217206,25.46669,-30.15072,20.66364,1007.946
11.906241417,-1.303641,5.314847,2.359773,-0.9857494,0.0786719,-0.08592737,25.11322,-30.87841,21.11612,1007.946
11.938802719,-3.02641,7.218237,3.277764,-0.9862922,0.04648151,-0.06273249,25.1059,-30.51718,20.66743,1007.95
11.971364021,-0.5037844,10.07332,4.562951,-0.9758728,0.06713268,-0.08514619,25.1059,-30.51718,20.66743,1007.948
12.006429672,-0.9344766,10.72761,4.562951,-0.990667,0.07869631,-0.1052573,25.47214,-30.5149,20.60252,1007.946
12.038990974,0.04996268,9.775918,3.706159,-0.9804165,0.07355278,-0.1203304,25.10185,-30.15079,21.1109,1007.946
12.071551800,-0.6268393,10.1328,3.461362,-0.988907,0.09571095,-0.1011324,25.10185,-30.15079,21.1109,1007.948
12.106616974,0.7882922,10.72761,1.931377,-0.9883294,0.08080795,-0.1351967,25.10185,-30.15079,21.1109,1007.948
12.139178276,-1.057531,10.43021,0.7685882,-0.9855148,0.09626108,-0.1054777,25.12761,-31.60123,21.94976,1007.948
12.171739578,-1.426696,11.97671,-0.3330009,-0.9770424,0.07413588,-0.1319258,24.75243,-31.24486,21.11992,1007.948
12.206805229,2.326479,11.44138,-1.679388,-0.9842191,0.1022891,-0.1445405,24.75243,-31.24486,21.11992,1007.946
12.239366531,2.326479,9.24059,-3.943765,-0.983685,0.09031909,-0.182427,24.37762,-30.51509,21.94431,1007.946
12.271926880,1.588149,7.634604,-4.433361,-0.9849967,0.08241781,-0.1588608,24.76035,-31.23232,23.28655,1007.948
12.304487705,1.403567,7.515642,-4.678158,-0.9773839,0.05864418,-0.1461797,24.76035,-31.23232,23.28655,1007.945
12.339553833,5.218269,8.943185,-3.698968,-0.9794285,0.0640275,-0.1601135,24.74167,-30.14347,22.83265,1007.943
12.372114658,3.557028,9.656957,-1.985385,-0.972437,0.05000526,-0.1559838,24.74899,-30.50469,23.28133,1007.943
12.404675961,0.9728746,10.60865,0.3401924,-0.9794253,0.06211903,-0.1678767,24.74899,-30.50469,23.28133,1007.943
12.439741612,0.2960725,10.84658,-1.006194,-0.9845187,0.07578186,-0.1942491,24.75062,-30.50211,23.72741,1007.947
12.472302437,-0.6883668,9.062147,-0.2106021,-0.9766417,0.06716567,-0.200672,25.1041,-29.77443,23.27492,1007.947
12.504863262,-2.103498,7.277719,-0.1494027,-0.9803516,0.0520319,-0.1965489,25.1041,-29.77443,23.27492,1007.947
12.539929390,-1.549751,7.158757,-0.08820331,-0.9755802,0.06368908,-0.181391,24.75085,-30.50174,23.79113,1007.945
12.572490215,-3.395575,7.694086,1.074585,-0.9677405,0.06132378,-0.1732173,24.37442,-29.77456,24.16945,1007.945
12.605051518,-1.918916,7.099276,0.58499,-0.9698918,0.06737763,-0.2277444,24.37442,-29.77456,24.16945,1007.945
12.640117168,-1.426696,6.623428,-2.597378,-0.9744264,0.1212869,-0.2322347,24.74493,-30.1383,23.72479,1007.943
12.672677994,-1.119059,4.541595,-6.942536,-0.9725965,0.09019241,-0.2293272,24.74657,-30.13572,24.17086,1007.942
12.705238819,-0.6268393,4.006267,-9.451711,-0.9742873,0.06924654,-0.2238446,24.74657,-30.13572,24.17086,1007.94
12.737800121,0.8498197,3.233015,-9.268113,-0.9736833,0.06190491,-0.210906,25.48519,-30.49424,24.1711,1007.94
12.772865772,3.926193,2.043396,-10.1249,-0.9735195,0.04210571,-0.2382774,25.48682,-30.49165,24.61717,1007.938
12.805427074,2.511061,0.1400057,-8.166524,-0.9840142,0.02396979,-0.2346769,25.48682,-30.49165,24.61717,1007.935
12.837988377,0.4191274,-2.060789,-5.657349,-0.9750368,0.01228161,-0.2039278,25.85655,-30.48384,25.50813,1007.933
12.873053551,-0.8729492,-1.46598,-0.4553997,-0.9668549,0.0201751,-0.2062321,26.57813,-29.75093,25.50053,1007.93
12.905614376,3.433973,-2.77456,-3.943765,-0.6277313,0.02420994,-0.1219069,26.57813,-29.75093,25.50053,1007.93
12.938175678,-0.6268393,-1.703903,0.09539488,-0.9839424,0.06088106,-0.2287967,26.94865,-30.11467,25.05588,1007.93
12.973241329,-0.442257,-2.596117,-2.536179,-0.9731645,0.05662121,-0.2230716,26.93892,-29.38447,25.49673,1007.932
13.005802631,-0.9344766,-3.012484,-2.41378,-0.9698886,0.02937806,-0.2080223,26.93892,-29.38447,25.49673,1007.932
13.038363934,6.38729,-10.26916,-5.045355,-0.9958518,0.05358116,-0.1544565,27.67754,-29.74298,25.49696,1007.93
13.073428631,1.157457,-1.46598,-0.3942003,-0.9743095,0.03414704,-0.2006946,26.94623,-29.7457,25.94541,1007.93
13.105989933,0.3576,-1.109094,-0.2718015,-0.9810691,0.02919685,-0.2002802,26.94623,-29.7457,25.94541,1007.928
13.138551235,2.388006,-0.6927274,-1.985385,-0.9710751,0.04830264,-0.2048322,27.30944,-29.74821,25.05208,1007.93
13.171112061,1.588149,-1.406499,-2.597378,-0.9718921,0.0351616,-0.2030984,27.30944,-29.74821,25.05208,1007.93
13.206178188,1.526622,-0.7522084,-3.882566,-0.9752898,0.03509737,-0.1987457,27.30944,-29.74821,25.05208,1007.93
13.238739014,2.941753,-0.3953227,-4.004965,-0.9713318,0.03027809,-0.1964061,28.40317,-29.37646,25.0459,1007.93
13.271299839,1.403567,-0.09791802,-3.331771,-0.9673187,0.01917495,-0.2014132,27.30399,-29.38404,25.11319,1007.928
13.306365490,0.1114901,0.2589676,-2.230182,-0.9721764,0.01718759,-0.2057892,27.30399,-29.38404,25.11319,1007.933
13.338926792,1.157457,0.4374104,-1.618188,-0.9746095,0.01762857,-0.2028799,27.67186,-29.37918,25.49435,1007.931
13.371487618,0.5421823,0.02104386,-1.006194,-0.9747134,0.02637933,-0.203713,28.04588,-29.73738,26.00557,1007.931
13.406553745,-1.242114,0.4374104,-1.067394,-0.975063,0.0156588,-0.1985591,28.04588,-29.73738,26.00557,1007.931
13.439114571,0.2960725,0.6753342,-0.5165991,-0.9819797,0.02383696,-0.1998778,27.67754,-29.74298,25.49696,1007.931
13.471675396,0.7267647,0.6158532,-0.9449949,-0.9732632,0.0249912,-0.2148532,26.93892,-29.38447,25.49673,1007.93
13.506741047,0.5421823,0.3779295,-1.250992,-0.9755329,0.01276777,-0.20537,26.93892,-29.38447,25.49673,1007.93
13.539302349,0.3576,0.7348151,-0.3942003,-0.9789485,0.01463839,-0.1990543,28.04238,-29.74292,25.0497,1007.93
13.571863175,1.649677,1.389105,-0.02700391,-0.9760171,0.01180498,-0.2087679,28.41048,-29.73769,25.49458,1007.93
13.604424477,1.834259,1.03222,-0.2718015,-0.9703702,0.02841089,-0.2104535,28.41048,-29.73769,25.49458,1007.934
13.639490127,0.1114901,0.6753342,0.1565943,-0.9765257,0.01326515,-0.2106786,28.03428,-29.01013,25.93662,1007.932
13.672050953,0.7267647,0.9132579,0.4013919,-0.9692743,0.01963986,-0.2023709,28.40806,-29.36872,26.38411,1007.932
13.704611778,1.157457,0.7348151,0.2789931,-0.9723377,0.02794573,-0.2206096,28.40806,-29.36872,26.38411,1007.932
13.739677906,0.1730176,0.2589676,-0.2106021,-0.9766353,0.02250182,-0.2115043,27.66781,-29.01278,25.93781,1007.93
13.772238731,0.7267647,-0.09791802,0.4013919,-0.9764755,0.00984401,-0.2063805,27.67754,-29.74298,25.49696,1007.93
13.804800034,0.7882922,0.5563723,1.747779,-0.9701392,0.01134253,-0.1971796,27.67754,-29.74298,25.49696,1007.93
13.839865684,0.4191274,0.7348151,1.62538,-0.9738119,0.03223173,-0.2055581,27.30134,-29.01543,25.939,1007.93
13.872426033,1.157457,0.9727389,0.8909871,-0.9756513,0.02011794,-0.2187923,27.67349,-29.37659,25.94042,1007.933
13.904987335,1.895787,0.9132579,-0.02700391,-0.9676287,0.04447299,-0.2077942,27.67186,-29.37918,25.49435,1007.933
13.940052986,-1.365169,1.389105,-0.5777985,-0.9717354,0.0229853,-0.1970004,27.67186,-29.37918,25.49435,1007.933
13.972614288,0.7267647,2.043396,-0.3942003,-0.9779737,0.01274701,-0.2077849,28.41211,-29.73511,25.94065,1007.933
14.005175591,-0.3807295,1.924434,1.258183,-0.9726305,0.01141407,-0.2198948,28.03428,-29.01013,25.93662,1007.931
14.037736416,-0.6883668,0.7348151,3.338963,-0.9779958,0.01231164,-0.2189091,28.03428,-29.01013,25.93662,1007.929
14.072802544,-0.3192021,0.9727389,3.522561,-0.970219,0.009585693,-0.2382933,27.66618,-29.01536,25.49174,1007.927
14.105362892,-0.01156478,-0.9306512,5.480941,-0.9671878,0.04694185,-0.2150076,27.67917,-29.7404,25.94303,1007.927
14.137924194,-0.07309223,-2.893522,3.828558,-0.9844581,0.01437272,-0.2628587,27.67917,-29.7404,25.94303,1007.927
14.172989845,-1.488224,-3.845217,1.992576,-0.9719218,0.08367316,-0.1835065,28.0367,-29.37911,25.04709,1007.927
14.205551148,0.04996268,-4.083141,-1.740587,-0.9748322,0.02992574,-0.2355617,26.93892,-29.38447,25.49673,1007.932
14.238111973,0.1114901,-5.689126,-1.067394,-0.9638427,0.04900466,-0.2314142,26.93892,-29.38447,25.49673,1007.926
14.273178101,-1.980443,-8.901096,-0.5777985,-0.9848294,0.01272843,-0.2232466,27.66618,-29.01536,25.49174,1007.926
14.305738449,-4.318487,-11.75618,4.62415,-0.9700775,-0.03342241,-0.1857781,28.04238,-29.74292,25.0497,1007.93
14.338299751,-0.5037844,-6.58134,6.64373,-0.983633,0.09355343,-0.1456411,28.04238,-29.74292,25.0497,1007.93
14.373365402,1.403567,-8.306287,2.237374,-0.9747559,0.02598133,-0.2230541,27.67023,-29.38176,25.04827,1007.93
14.405926705,-6.471948,-9.852792,8.418513,-0.9874732,-0.03912786,-0.1568458,27.67451,-29.74778,24.66854,1007.93
14.438487530,-2.103498,-5.213279,10.37689,-0.9808955,0.1105742,-0.1400669,27.67451,-29.74778,24.66854,1007.93
14.471048832,2.818698,-4.02366,4.073355,-0.9715782,0.05213081,-0.1931722,27.31754,-30.481,24.16516,1007.928
14.506114483,2.572588,-5.153798,4.746549,-0.9873779,0.0784834,-0.1555349,26.94376,-30.12242,23.71766,1007.928
14.538675308,3.064808,-4.856393,4.012156,-0.9712934,0.06772581,-0.2016354,26.94376,-30.12242,23.71766,1007.93
14.571236134,-0.5653118,-4.67795,4.318153,-0.9864804,0.04634942,-0.140558,27.31023,-30.11978,23.71647,1007.932
14.606302261,1.157457,-5.808088,11.11129,-0.9834743,-0.001748008,-0.1359775,27.31591,-30.48359,23.71909,1007.932
14.638863087,7.61784,-6.402897,14.04886,-0.9912328,0.02990127,-0.1707737,27.31591,-30.48359,23.71909,1007.932
14.671424389,7.61784,-8.068363,13.80406,-0.9894813,0.0858763,-0.1839394,26.93668,-29.76082,23.3327,1007.932
14.706490040,5.402851,-8.068363,11.53968,-0.9694558,0.1335313,-0.1324771,26.21347,-30.49632,22.89423,1007.932
14.739051342,3.98772,-6.938226,8.540912,-0.9782769,0.1325683,-0.1595524,26.21347,-30.49632,22.89423,1007.93
14.771611690,1.280512,-7.770958,6.888527,-1.006862,0.1219412,-0.1490526,25.47866,-30.50457,22.38681,1007.93
14.806677341,0.4191274,-9.614867,5.236144,-0.9909459,0.1006084,-0.1150737,25.85081,-30.86573,22.38823,1007.935
14.839238644,5.218269,-9.198501,2.788168,-1.02556,0.09309746,-0.165426,25.85081,-30.86573,22.38823,1007.933
14.871799946,6.448818,-9.971753,3.032966,-1.025385,0.0808882,-0.1520779,25.47703,-30.50715,21.94074,1007.933
14.906865597,8.171587,-10.62604,2.849368,-1.031011,0.07185466,-0.1058061,25.84513,-30.50192,22.38562,1007.933
14.939426899,8.971444,-12.41047,7.806519,-1.056194,0.09452018,-0.138789,25.84513,-30.50192,22.38562,1007.933
14.971987247,6.325763,-15.1466,8.846909,-0.9977717,0.1394799,-0.132359,25.86055,-31.59594,21.94738,1007.933
15.004548550,3.064808,-13.18372,6.766129,-0.9404572,0.1580913,-0.1065114,25.85649,-31.22954,22.39084,1007.931
15.039614201,0.3576,-10.56656,2.543371,-0.9087936,0.1632379,-0.07891095,25.85649,-31.22954,22.39084,1007.931
15.072175503,-2.841828,-7.057188,-0.1494027,-0.8808091,0.1512916,-0.04383371,25.49408,-31.59858,21.94857,1007.929
15.104736328,-5.179872,-2.536637,-2.903375,-0.8922482,0.1335652,-0.02620817,25.11322,-30.87841,21.11612,1007.929
15.139802456,-4.380014,1.745991,-4.739358,-0.9221038,0.1059254,-0.018867,25.11322,-30.87841,21.11612,1007.934
15.172363281,-1.303641,5.195886,-4.678158,-0.956957,0.08511502,-0.03123527,24.75079,-31.24745,20.67385,1007.934
15.204924107,0.3576,8.705261,-4.004965,-1.014884,0.08004336,-0.04382454,25.11726,-31.2448,20.67266,1007.932
15.239989758,1.649677,9.419033,-1.312191,-1.07456,0.05222943,-0.0833448,25.11726,-31.2448,20.67266,1007.932
15.272551060,2.572588,6.920833,2.482172,-1.096402,0.03897358,-0.1163956,25.85915,-31.59815,21.56504,1007.932
15.305111885,6.202708,1.210663,2.176174,-1.073835,0.06316069,-0.1334499,25.4884,-31.23477,21.94596,1007.932
15.340178013,11.30949,-4.737431,1.013386,-1.049967,0.1028786,-0.1420512,25.4884,-31.23477,21.94596,1007.932
15.372738838,11.00185,-6.58134,0.5237907,-1.021478,0.1217661,-0.1524248,25.12621,-31.60345,21.56741,1007.932
15.405300140,8.479224,-8.603692,1.319383,-0.9836497,0.1344311,-0.1571019,24.74675,-30.88105,21.11731,1007.932
15.437860489,4.910632,-8.722653,1.686579,-0.9501712,0.1469796,-0.1487253,24.74675,-30.88105,21.11731,1007.93
15.472926617,-1.611279,-4.737431,-1.679388,-0.9353011,0.1699416,-0.1324379,24.38596,-31.24751,21.12111,1007.93
15.505487442,-8.933046,-3.309889,-2.658578,-0.8940319,0.1863977,-0.1061243,24.74675,-30.88105,21.11731,1007.93
15.538048744,-13.54761,-0.2763608,-2.842176,-0.8881338,0.1887518,-0.07274112,24.74675,-30.88105,21.11731,1007.93
15.573114395,-16.13176,2.578724,-0.1494027,-0.9021523,0.1845749,-0.04958922,24.00812,-30.52254,21.11707,1007.93
15.605675697,-18.10064,1.448586,0.8297876,-0.9366847,0.1370197,-0.05801544,24.37133,-30.52505,20.22374,1007.935
15.638236999,-15.70107,0.1994867,0.3401924,-0.9555506,0.08333109,-0.06219997,24.36565,-30.16124,20.22113,1007.935
15.673302650,-7.333333,0.02104386,3.522561,-0.9952502,0.06146336,-0.06974593,24.36565,-30.16124,20.22113,1007.935
15.705862999,-2.288081,-0.6927274,4.868948,-1.02568,0.08481109,-0.05437567,25.10832,-30.88616,19.7779,1007.935
15.738424301,-2.7803,-0.3953227,6.460132,-1.032863,0.07355533,-0.0579241,24.37375,-30.89403,19.33421,1007.935
15.773489952,-4.564597,3.470938,8.418513,-1.017447,0.08928344,-0.05238188,24.37375,-30.89403,19.33421,1007.935
15.806051254,-5.056817,5.909657,7.439322,-0.9885674,0.1192917,-0.04905167,24.38269,-31.25268,20.22897,1007.935
15.838612080,-2.041971,9.24059,5.419742,-0.9609336,0.1312913,-0.04357813,24.3778,-31.26043,18.89075,1007.935
15.871173382,1.526622,10.25177,3.58376,-0.9391541,0.1418075,-0.04923923,24.3778,-31.26043,18.89075,1007.935
15.906239033,4.049247,9.89488,1.62538,-0.936908,0.1531228,-0.07275423,24.01864,-31.6243,19.34062,1007.937
15.938799858,6.079653,9.478514,1.992576,-0.9583252,0.1466453,-0.09893474,24.00728,-30.89668,19.3354,1007.935
15.971360683,6.817983,10.78709,2.726969,-0.9974357,0.1497497,-0.1452538,24.00728,-30.89668,19.3354,1007.935
16.006426811,1.834259,10.72761,3.032966,-0.9760497,0.1534304,-0.1452183,23.64812,-31.26055,19.78527,1007.935
16.038987637,-0.6883668,12.631,2.910567,-0.9472795,0.1546824,-0.1244417,24.0219,-31.61913,20.23277,1007.935
16.071548939,1.09593,13.76114,-0.8837955,-0.9225631,0.171868,-0.09230054,24.0219,-31.61913,20.23277,1007.935
16.106614590,7.002565,12.45256,-3.331771,-0.9582406,0.1393566,-0.09904602,23.64975,-31.25797,20.23134,1007.935
16.139175892,14.63197,11.56035,-3.392971,-1.024047,0.090643,-0.1557974,23.64975,-31.25797,20.23134,1007.935
16.171736240,25.4608,13.40426,-0.1494027,-1.175148,0.04524627,-0.2245003,23.64975,-31.25797,20.23134,1007.935
16.206802368,35.85894,18.93598,12.94727,-1.25996,0.07372646,-0.3172756,24.00244,-30.15873,21.11446,1007.933
16.239363194,30.19842,23.21861,19.8628,-1.270968,0.1358994,-0.3404853,23.64063,-30.15399,22.39014,1007.932
16.271924496,39.61211,29.82099,19.3732,-1.15434,0.07756688,-0.3245696,23.64063,-30.15399,22.39014,1007.932
16.304485798,98.24779,51.17465,31.49068,-1.192408,0.009272888,-0.4841224,22.53959,-30.16451,21.94764,1007.932
16.339551449,113.0759,45.46448,38.77341,-1.167116,0.2694839,-0.4540746,21.8148,-30.15689,24.18037,1007.93
16.372112751,87.2959,30.47529,32.89827,-1.131833,0.2191738,-0.4050884,21.8148,-30.15689,24.18037,1007.93
16.404673576,129.2576,45.16708,22.37197,-1.034931,0.05128638,-0.6136618,19.97356,-29.06578,26.40884,1007.928
16.439738751,143.4089,40.11119,7.745319,-1.064918,0.2039201,-0.598253,18.78387,-26.88355,27.73516,1007.926
16.472300053,99.60139,40.4086,-28.48472,-0.9782299,0.2135902,-0.5527517,18.78387,-26.88355,27.73516,1007.925
16.504861355,53.20968,25.71681,-55.84085,-1.014853,0.0959908,-0.5545105,16.92885,-24.69584,30.84794,1007.925
16.539927006,40.04281,18.04377,-80.50421,-0.9400554,-0.04656916,-0.5195376,17.24572,-20.98153,33.05056,1007.925
16.572487831,60.83909,24.70563,-95.62046,-0.9663519,-0.1813411,-0.5626554,17.24572,-20.98153,33.05056,1007.923
16.605049133,98.67847,22.26691,-99.53722,-0.9611592,-0.2655201,-0.6325842,17.94136,-18.05284,35.25766,1007.921
16.640114784,133.7491,29.1667,-95.62046,-0.9187362,-0.235167,-0.6659985,18.26244,-14.394,38.35286,1007.919
16.672676086,145.0702,32.43816,-96.17126,-0.8295056,-0.1459268,-0.7957183,18.26244,-14.394,38.35286,1007.919
16.705236435,133.503,43.91798,-105.4124,-0.718884,-0.09808666,-0.7390234,20.46721,-9.991287,41.88277,1007.92
16.737797737,114.491,60.989,-104.0048,-0.7509359,-0.126249,-0.8360975,21.49835,-5.18284,43.62911,1007.917
16.772863388,88.03423,71.75505,-98.98643,-0.693347,-0.126212,-0.7863648,21.49835,-5.18284,43.62911,1007.915
16.805424690,64.2231,88.46919,-93.72328,-0.658527,-0.1756203,-0.7233464,20.32266,-0.0922637,44.48827,1007.91
16.837985992,48.28749,96.91549,-85.21656,-0.6610047,-0.1660613,-0.6951623,18.36915,3.527003,43.57615,1007.91
16.873051643,36.59727,105.0049,-69.48832,-0.6021941,-0.2239576,-0.6206955,18.36915,3.527003,43.57615,1007.908
16.905612946,26.81441,106.7298,-51.92409,-0.6362877,-0.1735533,-0.5807402,15.74294,6.767274,40.88454,1007.904
16.938173771,12.66309,102.9231,-34.97186,-0.6031789,-0.2044502,-0.531939,11.66368,8.960995,37.31294,1007.903
16.973238945,-1.488224,96.14223,-12.45048,-0.5697073,-0.1780961,-0.4605129,11.66368,8.960995,37.31294,1007.899
17.005800247,-14.03983,91.74065,3.094165,-0.5026741,-0.2419661,-0.4378666,8.696144,10.3744,33.74343,1007.899
17.038361549,-15.20885,85.19775,24.45275,-0.4526774,-0.3008386,-0.3875751,5.379179,10.69373,30.18295,1007.896
17.073427200,-3.826267,78.06003,44.64856,-0.4346787,-0.3732278,-0.3422927,5.379179,10.69373,30.18295,1007.892
17.105988503,6.6334,66.22333,55.97044,-0.4546199,-0.4072442,-0.2939713,2.363557,11.38165,27.06493,1007.891
17.138549328,10.69421,44.81019,62.33518,-0.4656633,-0.4922237,-0.2353184,0.1419535,12.07531,23.94434,1007.891
17.171110630,15.18572,22.44536,66.98634,-0.4425993,-0.5440359,-0.2114789,0.1419535,12.07531,23.94434,1007.891
17.206176281,22.93818,0.2589676,67.29234,-0.4075876,-0.6190019,-0.1918712,-1.357838,13.50226,20.87986,1007.888
17.238737106,35.36672,-18.06116,69.25072,-0.4285263,-0.6601217,-0.1871612,-1.736514,13.85309,19.09415,1007.884
17.271297932,46.44166,-40.7234,71.75989,-0.4358712,-0.6914775,-0.1533127,-1.736514,13.85309,19.09415,1007.883
17.306364060,64.2231,-64.63474,61.60079,-0.4686683,-0.7319608,-0.2152876,-1.390349,14.942,18.19299,1007.881
17.338924885,161.8672,-121.439,-38.33783,-0.5575821,-2.063,-0.2910969,-0.6785564,15.65942,15.50896,1007.881
17.371486187,176.5107,-33.05036,40.97659,-0.8942759,-1.725053,-0.5427725,0.008092403,18.20105,13.70401,1007.877
17.406551838,48.41054,-41.43717,27.51272,-1.267429,-1.159679,-0.6797666,0.008092403,18.20105,13.70401,1007.876
17.439113140,-18.40827,-63.08824,-11.77729,-0.8113638,-0.2816117,-0.1945516,0.7207277,19.29261,12.80166,1007.874
17.471674442,-43.01926,-55.11779,-43.35617,-0.7097919,-0.3411634,-0.1675223,2.570967,18.58856,14.58523,1007.877
17.506740093,-30.52918,-38.58208,-27.75033,-0.3506403,-0.5925853,-0.2794978,2.570967,18.58856,14.58523,1007.877
17.539300442,8.540751,-26.26953,-8.900916,-0.2541567,-0.6893186,-0.3197368,3.368249,18.59946,15.47479,1007.875
17.571861744,32.8441,-18.29909,7.255724,-0.4120639,-0.8825194,-0.2896623,3.353624,19.32191,14.57743,1007.873
17.604422569,29.82925,-16.39569,15.45644,-0.6007153,-0.8551163,-0.2305736,3.353624,19.32191,14.57743,1007.871
17.639488697,12.17087,-18.29909,8.969308,-0.7591243,-0.818433,-0.3076847,3.731457,18.59694,14.58146,1007.87
17.672049522,1.403567,-20.79729,-6.758938,-0.8005236,-0.7339326,-0.3049054,3.725776,18.96075,14.57885,1007.87
17.704610825,14.0167,-14.55179,-20.896,-0.7122285,-0.7098227,-0.3302418,3.725776,18.96075,14.57885,1007.87
17.739676475,24.53789,-15.26556,-30.32071,-0.5488932,-0.7190164,-0.2986368,4.823557,18.96611,14.12921,1007.872
17.772237778,27.2451,-16.09829,-26.40394,-0.4879469,-0.7891208,-0.2055067,4.075992,19.68327,13.23422,1007.872
17.804798126,36.10505,-13.12424,-20.896,-0.4835641,-0.8655267,-0.1709067,4.075992,19.68327,13.23422,1007.87
17.839864254,38.19698,-14.67075,-14.22526,-0.5355192,-0.8379951,-0.1752703,4.071941,20.04966,13.67768,1007.87
17.872425079,35.92047,-16.03881,-15.44925,-0.5735887,-0.7884464,-0.1720608,4.414056,21.50497,13.21998,1007.87
17.904986382,35.61283,-19.31026,-17.59123,-0.5575895,-0.8261024,-0.1818349,4.414056,21.50497,13.21998,1007.868
17.940052032,32.59798,-17.64479,-19.85561,-0.5339792,-0.9212418,-0.140772,3.657547,22.58078,11.43024,1007.868
17.972613335,30.07536,-15.74141,-16.61204,-0.5487693,-0.8954174,-0.09105928,4.03538,21.8558,11.43427,1007.868
18.005174637,22.26138,-13.8975,-15.26565,-0.5124097,-0.8675367,-0.0263799,4.03538,21.8558,11.43427,1007.873
18.037735462,11.80171,-11.28033,-15.08206,-0.4866766,-0.8162282,-0.01353754,4.009393,23.30588,10.53168,1007.873
18.072801590,3.680083,-8.722653,-13.06248,-0.4422922,-0.8229171,-0.01851619,4.356242,24.45801,10.07615,1007.871
18.105361939,1.957314,-4.737431,-8.044125,-0.4521673,-0.9044895,-0.06373845,4.356242,24.45801,10.07615,1007.869
18.137923241,3.98772,-0.9901322,-2.597378,-0.4900055,-0.9185638,-0.06971718,3.989771,24.45536,10.07734,1007.875
18.172988892,1.09593,0.0805248,0.1565943,-0.5054542,-0.9266207,-0.05242362,3.989087,24.39215,9.631702,1007.873
18.205550194,-2.165026,1.151182,0.09539488,-0.5182646,-0.9150976,-0.05803598,3.989087,24.39215,9.631702,1007.873
18.238111019,-2.288081,1.210663,-0.8837955,-0.5043343,-0.8570707,-0.06006441,3.61925,24.81911,10.52199,1007.873
18.273177147,-1.980443,1.210663,-2.597378,-0.4799189,-0.8649632,-0.07132605,4.357189,24.39738,10.07659,1007.873
18.305737972,-4.072377,2.578724,0.6461895,-0.4598631,-0.8292537,-0.06451671,4.357189,24.39738,10.07659,1007.872
18.338299275,-5.610564,-1.46598,-0.2106021,-0.5128238,-0.8458533,-0.09275469,3.98409,24.81917,10.07473,1007.873
18.373364925,7.740895,-0.8116893,-7.248533,-0.4056882,-0.9821762,0.05200866,3.994664,24.46311,11.41556,1007.873
18.405925751,-1.242114,3.233015,3.277764,-0.5415981,-0.9682124,-0.0941103,3.994664,24.46311,11.41556,1007.873
18.438486576,-6.471948,4.422634,1.62538,-0.5136319,-0.893199,-0.05093908,3.629141,24.39983,11.41718,1007.873
18.471047878,-18.34675,6.74239,1.074585,-0.5393893,-0.8271535,-0.1127456,3.99398,24.39989,10.96992,1007.872
18.506113529,-19.94646,6.682909,-3.698968,-0.5156086,-0.8224164,-0.1242973,3.99398,24.39989,10.96992,1007.872
18.538674832,-11.70178,9.181109,-4.310962,-0.4806832,-0.8938952,-0.123488,3.987352,24.82434,10.96687,1007.872
18.571236134,6.141181,18.28169,-4.188563,-0.4223936,-0.9778944,-0.1876648,4.363713,24.40771,11.86087,1007.872
18.606301785,18.38515,34.40103,-3.698968,-0.3072039,-1.006854,-0.2220542,4.363713,24.40771,11.86087,1007.872
18.638862610,14.6935,54.02974,-18.63162,-0.1715788,-0.9248667,-0.3340444,3.622512,24.82428,11.41413,1007.876
18.671423912,-8.133189,54.1487,-34.05387,-0.1678107,-0.8386083,-0.3743025,4.358716,24.83474,12.3039,1007.874
18.706489563,-30.22155,53.49441,-52.16889,-0.2336445,-0.8212163,-0.3266027,4.358716,24.83474,12.3039,1007.874
18.739050865,-44.61897,49.98503,-55.53485,-0.2335202,-0.8271505,-0.3039746,3.618462,25.19067,11.8576,1007.874
18.771611214,-46.89549,53.91077,-58.53363,-0.2596338,-0.795063,-0.2744572,3.227636,26.64068,11.40227,1007.874
18.806677341,-34.95916,47.07047,-53.94367,-0.3565008,-0.7978173,-0.2671551,3.227636,26.64068,11.40227,1007.874
18.839238167,-12.13247,34.63895,-40.17381,-0.4108645,-0.8055048,-0.2290332,2.435247,26.63753,11.85091,1007.874
18.871799469,22.50748,21.55314,-23.95597,-0.4810082,-0.7968636,-0.1930638,2.063095,26.9987,11.84949,1007.874
18.904360771,72.2832,1.924434,-4.861757,-0.626595,-0.9194186,-0.1657904,2.063095,26.9987,11.84949,1007.874
18.939426422,141.317,-38.28468,22.49437,-0.7370235,-1.236419,-0.02985741,2.046839,27.71856,10.50605,1007.876
18.971987724,149.3156,-19.4887,13.37566,-0.335224,-1.010427,0.05392652,2.391373,28.8049,9.158815,1007.876
19.004548550,99.35528,-30.4332,14.29366,-0.4579437,-1.165942,-0.08560663,2.391373,28.8049,9.158815,1007.876
19.039614677,67.23795,-43.34056,6.092936,-0.3886108,-1.068467,0.0526092,3.50799,30.98064,6.462954,1007.88
19.072175503,41.58099,-38.2252,12.45767,-0.267784,-0.8565918,0.08424427,2.755532,31.69006,4.229748,1007.88
19.104736328,46.56472,-24.4851,23.71836,-0.2381378,-0.7682225,0.08121344,2.755532,31.69006,4.229748,1007.878
19.139801979,34.07465,-21.09469,25.98274,-0.1894696,-0.8786663,0.1394202,3.48116,32.05658,3.778688,1007.878
19.172363281,36.78185,-16.21725,19.4344,-0.1640303,-1.069471,0.2742471,4.199477,32.78433,2.878944,1007.878
19.204924107,45.88792,-7.651997,15.57884,-0.2230557,-1.078077,0.3935668,4.932419,32.78962,2.876567,1007.878
19.239990234,33.15173,2.3408,21.45398,-0.3753179,-0.8367401,0.2190297,4.932419,32.78962,2.876567,1007.878
19.272551060,22.44596,0.6753342,13.37566,-0.3918141,-0.795267,0.2428804,5.297258,32.78969,2.429306,1007.876
19.305112362,9.402136,5.433809,7.68412,-0.3955511,-0.8336009,0.3249566,5.295627,32.78711,1.983233,1007.876
19.337673664,-13.91677,9.181109,5.236144,-0.3968949,-0.8846688,0.3290126,5.295627,32.78711,1.983233,1007.876
19.372739315,-39.0815,14.77232,3.767359,-0.3812227,-0.9392697,0.3039956,6.030199,32.79498,2.426929,1007.876
19.405300617,-55.44781,21.19626,4.318153,-0.3885882,-0.9482896,0.2361923,6.035881,32.43117,2.42954,1007.876
19.437860966,-64.1847,26.6685,4.868948,-0.3644063,-0.946719,0.1743207,6.035881,32.43117,2.42954,1007.876
19.472926617,-71.56799,32.85452,4.379352,-0.3772593,-0.9389228,0.133365,5.688928,31.71382,4.666309,1007.878
19.505487919,-84.36571,37.01819,2.114975,-0.3742783,-0.9475541,0.1163123,6.073284,30.99917,6.454632,1007.878
19.538049221,-88.6111,43.85849,-1.495789,-0.3537281,-0.9717237,0.04003355,6.073284,30.99917,6.454632,1007.878
19.573114872,-96.30203,49.62815,-2.903375,-0.3817824,-0.9686868,-0.06623593,6.079808,31.0095,8.23892,1007.878
19.605676174,-111.2532,51.35309,1.62538,-0.2538387,-0.8808179,-0.1046558,5.744218,29.56453,10.48091,1007.876
19.638236999,-119.9286,57.71756,-6.146944,-0.2182778,-0.8177101,-0.1994359,5.744218,29.56453,10.48091,1007.881
19.673303127,-118.8826,63.60616,-13.12367,-0.2372214,-0.9021719,-0.3824559,5.401315,28.48078,12.27422,1007.881
19.705863953,-114.0835,60.45368,-19.18242,-0.1956629,-0.887251,-0.444624,4.699254,27.03316,14.5174,1007.881
19.738425255,-104.0545,62.11914,-23.09918,-0.1883376,-0.8487252,-0.4522607,4.699254,27.03316,14.5174,1007.881
19.773490906,-84.05807,57.77703,-23.89477,-0.2104906,-0.8362059,-0.4897517,4.360401,25.58302,15.86725,1007.881
19.806051254,-56.98599,50.52036,-26.58754,-0.1925412,-0.8315669,-0.4964655,4.017498,24.49927,17.66056,1007.879
19.838612556,-30.77529,46.11877,-29.95351,-0.1409563,-0.7885629,-0.5069768,4.017498,24.49927,17.66056,1007.877
19.871173859,-13.05539,42.31199,-32.09549,-0.179271,-0.7247735,-0.5364194,2.146108,22.96714,17.23151,1007.876
19.906239510,-10.28665,30.83217,-32.82988,-0.2004294,-0.7089499,-0.5496922,2.51826,22.60597,17.23293,1007.876
19.938800812,-13.73219,23.63498,-32.03429,-0.1649069,-0.7089173,-0.5618103,2.51826,22.60597,17.23293,1007.88
19.971361637,-20.62326,21.3747,-39.25582,-0.1541639,-0.7207232,-0.6064715,1.778006,22.96191,16.78663,1007.88
20.006427765,-35.9436,18.22221,-54.98406,0.01124695,-0.5311208,-0.5723191,0.6785941,22.95397,16.7902,1007.878
20.038988590,-50.9563,13.5827,-53.33168,-0.01141175,-0.7546751,-0.7458565,0.6785941,22.95397,16.7902,1007.878
20.071549892,-42.15788,-1.644422,-38.09303,-0.1062577,-0.7185931,-0.722979,1.041015,23.32301,17.23247,1007.878
20.106615543,-24.99171,-8.127844,-24.56796,-0.3235353,-0.6182001,-0.8706011,0.3243289,22.59784,18.57828,1007.876
20.139176846,-4.810707,-0.2763608,-20.4064,-0.2633063,-0.8180414,-0.8920765,0.3243289,22.59784,18.57828,1007.875
20.171737194,41.33488,22.20743,-21.93639,0.02743629,-0.8314401,-0.9592676,-0.7856574,22.94596,17.24102,1007.873
20.206803322,88.4034,3.649381,-22.11999,-0.1297894,-0.8506622,-0.8177796,-0.4330232,23.29951,15.00686,1007.873
20.239364147,103.6622,-14.1949,-30.8715,-0.03950296,-0.841295,-0.6959129,-0.4330232,23.29951,15.00686,1007.873
20.271925449,124.8892,-0.9901322,-5.351352,-0.7957467,-0.5603791,-0.5134979,1.37487,25.20018,16.32564,1007.873
20.304486752,108.6459,-3.309889,8.908108,0.04509955,-0.9068552,-0.466424,0.221853,28.08981,14.07796,1007.873
20.339552403,88.09576,-5.094317,11.47848,0.01903837,-0.9071496,-0.3702114,0.221853,28.08981,14.07796,1007.873
20.372113705,64.46922,-6.105493,9.642501,0.01389289,-0.9147388,-0.3195677,0.9101325,30.63403,12.71909,1007.873
20.404674530,45.39569,-5.986531,6.888527,0.003627154,-0.8668178,-0.3062588,1.222998,33.53425,10.46665,1007.873
20.439740658,27.86037,-5.332241,7.194525,-0.01209957,-0.9346586,-0.2889103,1.222998,33.53425,10.46665,1007.873
20.472301483,9.463663,-1.228056,6.031736,0.3023612,-1.114625,-0.2122023,1.205955,34.62568,10.45882,1007.873
20.504862785,-4.010849,-3.190927,-0.8225961,0.01774066,-0.9924901,-0.31109,1.204324,34.6231,10.01275,1007.877
20.539928436,-4.749179,-4.440026,5.358542,0.01004777,-0.9210647,-0.3288446,1.204324,34.6231,10.01275,1007.877
20.572489262,-0.1961471,-3.785736,10.0097,-0.07446387,-0.9406384,-0.3280949,1.184018,35.70937,9.11277,1007.877
20.605050087,-3.826267,-0.8711703,4.440552,-0.06507025,-0.9517156,-0.3234392,1.175917,36.44215,9.999691,1007.877
20.640116215,-10.04054,1.745991,-1.495789,-0.06112254,-0.9166204,-0.3345086,1.175917,36.44215,9.999691,1007.879
20.672677040,-14.10135,3.233015,-5.657349,-0.01783779,-0.9088237,-0.3218637,1.175917,36.44215,9.999691,1007.879
20.705238342,-16.31634,3.114053,-4.984155,-0.009701883,-0.9402667,-0.331052,1.18728,35.71453,10.00491,1007.879
20.737799644,-17.60842,2.876129,-3.943765,-0.02501531,-0.9675951,-0.3503058,1.18728,35.71453,10.00491,1007.879
20.772865295,-17.73147,1.329625,-1.985385,0.001185821,-0.9670808,-0.3880267,1.183229,36.08092,10.44837,1007.879
20.805426598,-11.27109,-0.6332465,3.522561,-0.002118942,-0.9397848,-0.4146762,0.8167589,36.07828,10.44956,1007.877
20.837987423,-7.702497,-0.2168799,3.767359,-0.03500959,-0.9088108,-0.3735682,0.8167589,36.07828,10.44956,1007.877
20.873053551,-10.10207,0.02104386,2.053776,-0.0337085,-0.9412618,-0.3943664,1.200273,34.98949,10.45621,1007.877
20.905614376,-5.733618,0.02104386,0.3401924,-0.02592657,-0.9420946,-0.402604,1.205955,34.62568,10.45882,1007.881
20.938174725,-2.53419,0.2589676,-0.3942003,-0.02462507,-0.9227601,-0.3757246,1.200273,34.98949,10.45621,1007.881
20.973240852,-8.625409,0.1400057,0.58499,-0.01601154,-0.9085763,-0.3706827,1.200273,34.98949,10.45621,1007.881
21.005801678,-10.90193,-0.2763608,1.502981,-0.01198901,-0.9306356,-0.4241946,1.570006,34.9973,11.34716,1007.881
21.038362980,-8.010135,-0.157399,3.461362,-0.03317921,-0.9109491,-0.4320911,1.207586,34.62827,10.90489,1007.883
21.073428631,-4.010849,-0.6332465,-0.8225961,0.07427652,-0.9424928,-0.4549115,1.207586,34.62827,10.90489,1007.885
21.105989933,4.049247,-2.060789,2.849368,-0.02119825,-0.9346391,-0.4252135,1.217317,33.89806,10.46404,1007.885
21.138551235,11.1249,-2.834041,3.828558,-0.01516317,-0.9525108,-0.4322593,2.312679,34.27239,10.90394,1007.885
21.171112061,16.35474,-2.477156,0.7685882,0.007175383,-0.9454489,-0.4249224,2.312679,34.27239,10.90394,1007.885
21.206178188,44.10362,12.15516,1.808978,-0.6119619,-0.9834808,-0.4626085,1.207586,34.62827,10.90489,1007.885
21.238739014,63.42324,0.7348151,1.686579,-0.6442333,-0.9180224,-0.2024887,1.183229,36.08092,10.44837,1007.885
21.271300316,83.85036,-13.77853,5.66454,-0.04639117,-0.8710513,-0.2671216,1.183229,36.08092,10.44837,1007.885
21.306365967,46.56472,5.255367,4.073355,-0.1379481,-0.6332688,-0.1295102,1.165343,36.79821,8.658867,1007.883
21.338927269,12.97073,0.1400057,1.870177,-0.03894273,-1.183308,-0.3008953,1.146668,37.88707,8.204962,1007.887
21.371487618,14.6935,1.151182,-5.228953,-0.1151168,-1.328753,-0.2779051,1.146668,37.88707,8.204962,1007.887
21.406553745,29.09092,4.065748,-14.59246,-0.04090752,-0.9695546,-0.2860313,1.485521,39.3372,6.85511,1007.885
21.439114571,29.64467,3.173533,-13.73567,-0.01262073,-0.6006357,-0.1064145,1.097798,40.48146,5.955889,1007.885
21.471675873,26.44524,1.805472,-6.269343,0.01924499,-0.68326,-0.01538088,1.097798,40.48146,5.955889,1007.884
21.506741524,25.39927,-0.7522084,2.053776,0.008586526,-1.044996,-0.1214317,1.10511,40.12023,6.404572,1007.884
21.539302826,30.07536,0.02104386,-0.1494027,-0.03822304,-1.186105,-0.2187646,1.468318,40.11771,5.511238,1007.884
21.571864128,22.50748,-1.287537,-5.290153,-0.03139887,-1.09292,-0.1709453,1.468318,40.11771,5.511238,1007.886
21.604424954,5.895071,-0.8116893,0.58499,0.03113676,-0.9390841,-0.1546408,1.081542,41.20133,4.61245,1007.886
21.639491081,-12.44011,0.4968913,7.010926,-0.01370246,-0.9343628,-0.1458247,1.446382,41.20139,4.165188,1007.885
21.672051907,-10.04054,0.5563723,3.64496,-0.02475722,-1.042627,-0.2030541,1.446382,41.20139,4.165188,1007.886
21.704613209,5.095214,0.6753342,1.992576,-0.03700178,-0.9913451,-0.1863085,1.814483,41.20662,4.610071,1007.885
21.739678860,15.98557,0.2589676,-2.046584,-0.05394591,-0.9447179,-0.121775,1.094536,40.47629,5.063744,1007.883
21.772240162,14.32433,0.3184485,-2.41378,-0.03015312,-0.9775208,-0.1077971,1.094536,40.47629,5.063744,1007.883
21.804801464,7.494785,0.02104386,-0.5165991,-0.02406926,-1.000713,-0.1202413,1.807171,41.56785,4.161388,1007.883
21.839867115,-1.795861,0.1994867,-0.3942003,-0.0252753,-1.028783,-0.149671,1.07423,41.56256,4.163767,1007.881
21.872427464,-7.39486,0.9132579,-2.47498,-0.01050733,-1.002306,-0.1584654,1.07423,41.56256,4.163767,1007.882
21.904988766,-9.363738,1.151182,-3.209373,-0.007516295,-0.9667788,-0.1603432,0.7020779,41.92373,4.162344,1007.883
21.940054417,-5.733618,0.4968913,-0.8837955,-0.006049514,-0.9653437,-0.1511385,1.081542,41.20133,4.61245,1007.883
21.972615719,1.218984,-0.6332465,1.870177,-0.01253239,-0.9964824,-0.1622416,1.081542,41.20133,4.61245,1007.883
22.005177021,7.248675,-0.9901322,2.788168,-0.0250577,-1.006882,-0.1556209,0.3502319,41.19862,5.060898,1007.883
22.037737846,7.61784,-0.8711703,2.053776,-0.0275621,-1.000604,-0.1540726,1.075861,41.56514,4.609838,1007.883
22.072803974,5.279797,-0.2168799,0.9521865,-0.02703449,-1.004001,-0.1536416,1.075861,41.56514,4.609838,1007.882
22.105364800,4.664522,0.1400057,0.4013919,-0.02953129,-0.997261,-0.146769,1.062867,42.29018,4.158545,1007.88
22.137926102,6.018126,0.1994867,-0.5165991,-0.02719863,-0.9846768,-0.1286944,1.43907,41.56262,3.716506,1007.88
22.172991753,6.87951,-0.2168799,-0.7001973,-0.02712142,-0.9890984,-0.1181276,1.43907,41.56262,3.716506,1007.88
22.205553055,5.833543,0.02104386,-1.128593,-0.02269059,-0.99341,-0.1191644,0.7020779,41.92373,4.162344,1007.88
22.238114357,1.772732,0.1400057,-1.312191,-0.0167796,-0.9991648,-0.1192579,1.446382,41.20139,4.165188,1007.882
22.273180008,-2.964883,0.3779295,-1.312191,-0.01445878,-0.9908395,-0.1263838,1.446382,41.20139,4.165188,1007.882
22.305741310,-4.503069,0.4968913,-0.5165991,-0.006156524,-0.9936295,-0.1303014,1.079911,41.19875,4.166378,1007.882
22.338301659,-2.718773,0.2589676,0.8297876,-0.01393711,-0.9956528,-0.1351585,-0.02113175,41.18822,3.723872,1007.882
22.373367310,-0.07309223,-0.157399,1.258183,-0.02033339,-0.9908586,-0.1389462,-0.02113175,41.18822,3.723872,1007.881
22.405928612,0.4806549,-0.157399,1.074585,-0.03004288,-0.9934173,-0.1384925,1.075861,41.56514,4.609838,1007.882
22.438489437,0.04996268,-0.03843708,0.2177937,-0.03189963,-1.001694,-0.1405505,1.07423,41.56256,4.163767,1007.882
22.471050739,-0.5037844,0.02104386,-0.5777985,-0.02946731,-1.001658,-0.1415191,1.07423,41.56256,4.163767,1007.882
22.506116390,0.4806549,0.3184485,-1.067394,-0.02129277,-0.9923247,-0.1399344,1.80149,41.93166,4.158777,1007.881
22.538677693,3.249391,-0.157399,-0.7001973,-0.01300224,-0.9931907,-0.1394722,1.079911,41.19875,4.166378,1007.885
22.571238995,7.187148,-0.5737656,1.135785,-0.009716839,-0.9829335,-0.1412524,1.079911,41.19875,4.166378,1007.883
22.606304646,10.20199,-1.46598,3.950957,-0.007619695,-0.9950711,-0.138056,0.7004468,41.92114,3.716272,1007.883
22.638865948,10.87879,-1.406499,5.297343,-0.02166355,-0.9977749,-0.1182652,1.07423,41.56256,4.163767,1007.883
22.671426773,11.1249,-0.9306512,4.991346,-0.02798705,-0.9969186,-0.1109954,1.43907,41.56262,3.716506,1007.881
22.706492901,12.97073,-0.3358418,4.134555,-0.04203288,-1.00057,-0.09653627,1.43907,41.56262,3.716506,1007.88
22.739053726,11.30949,0.3779295,2.176174,-0.0464219,-0.9982371,-0.08779566,1.437438,41.56004,3.270433,1007.878
22.771615028,9.217554,-0.03843708,-0.02700391,0.03504594,-1.009338,-0.08514339,1.070968,41.55739,3.271622,1007.882
22.806680679,2.018841,0.5563723,-0.9449949,-0.04975178,-1.000803,-0.06752977,1.070968,41.55739,3.271622,1007.882
22.839241981,-3.887794,0.1994867,-3.148173,-0.03327049,-0.9961705,-0.07714254,1.427707,42.29025,3.711284,1007.88
22.871802330,-7.14875,0.3779295,-2.719777,-0.0255711,-0.990194,-0.08672633,0.6931348,42.28237,3.267589,1007.88
22.904363632,-7.087223,0.2589676,-2.47498,-0.02405654,-0.9983585,-0.1037705,0.6931348,42.28237,3.267589,1007.878
22.939429283,-5.056817,0.4374104,-2.046584,-0.02358118,-0.9992822,-0.1129692,1.055555,42.65141,3.709861,1007.878
22.971990585,-1.611279,0.2589676,-1.373391,-0.02121804,-0.9953148,-0.1235453,1.429338,42.29283,4.157354,1007.878
23.004551888,1.895787,0.02104386,-0.3330009,-0.02258671,-1.002161,-0.1183313,1.429338,42.29283,4.157354,1007.878
23.039617538,4.233829,-0.09791802,0.58499,-0.02451725,-1.001742,-0.1091389,0.6907153,42.65134,4.157122,1007.878
23.072178841,6.941038,-0.5737656,1.441782,-0.01126505,-1.010798,-0.1102566,1.435019,41.92902,4.159966,1007.877
23.104739666,11.24796,-2.536637,4.501751,0.001273185,-1.002325,-0.1207737,1.435019,41.92902,4.159966,1007.877
23.139805794,19.73875,-5.629645,5.725739,0.01783145,-1.005442,-0.1358219,1.053924,42.64882,3.263788,1007.877
23.172366619,31.85966,-4.142622,7.745319,-0.03221372,-1.010102,-0.1097423,1.053924,42.64882,3.263788,1007.882
23.204927921,30.25994,9.121628,-3.576569,0.1827674,-0.9483416,0.06984182,1.053924,42.64882,3.263788,1007.882
23.239993572,12.84767,22.20743,-24.38437,-0.2216857,-1.053327,-0.1252036,1.786865,42.65411,3.261411,1007.882
23.272554874,16.90849,23.69446,-30.8103,-0.2045529,-1.0585,-0.1141814,1.416345,43.01786,3.706061,1007.88
23.305116177,-12.68622,13.8801,-31.0551,0.03936267,-0.9316912,0.05863322,1.416345,43.01786,3.706061,1007.88
23.337677002,-15.57801,7.634604,-27.87273,0.04102682,-1.009037,-0.02762273,0.6793528,43.37897,4.151899,1007.88
23.372743130,-16.13176,11.97671,-18.87642,-0.01881874,-0.9671573,-0.003723944,1.047455,43.3842,4.596783,1007.88
23.405303955,-15.51648,5.136405,-9.57411,-0.02456649,-0.969786,0.0233106,1.047455,43.3842,4.596783,1007.88
23.437865257,-11.27109,-3.36937,2.420972,0.05206115,-0.9097727,-0.02176857,1.419607,43.02303,4.598204,1007.878
23.472930431,-22.59214,-4.440026,8.479712,0.04519841,-0.9577598,-0.06938161,0.6923463,42.65393,4.603193,1007.879
23.505491734,-18.03911,-4.558988,8.785709,0.03800201,-1.059722,-0.1120173,0.6923463,42.65393,4.603193,1007.879
23.538052559,-11.02498,-2.179751,6.215334,0.03171096,-1.066534,-0.1280666,0.3258758,42.65128,4.604382,1007.879
23.573118687,-3.51863,-0.9901322,3.522561,0.01964516,-1.029848,-0.1076768,0.3348191,42.29264,5.499138,1007.879
23.605679512,-2.841828,-0.6927274,1.319383,0.01710408,-0.9759969,-0.09380157,0.3348191,42.29264,5.499138,1007.877
23.638240814,-2.53419,-0.4548037,1.686579,0.02104075,-0.9803016,-0.09773806,1.434231,42.30058,5.495571,1007.877
23.673306465,1.772732,-0.4548037,3.155365,0.02711505,-1.004903,-0.120838,0.6972394,42.66167,5.94141,1007.877
23.705867767,8.786861,-0.2763608,2.788168,0.01956915,-1.025429,-0.1177602,0.6972394,42.66167,5.94141,1007.877
23.738429069,13.46295,0.2589676,1.380582,0.01658926,-1.015373,-0.09343505,0.3348191,42.29264,5.499138,1007.875
23.770989895,11.74018,0.2589676,0.3401924,0.01743764,-0.9989599,-0.06659974,0.6809838,43.38155,4.597971,1007.875
23.806056023,5.833543,0.1400057,0.4625912,0.01834368,-0.9888353,-0.04614433,0.6809838,43.38155,4.597971,1007.873
23.838616848,0.5421823,0.1994867,0.7685882,0.01833487,-0.9892949,-0.05195185,1.068549,41.92637,4.161156,1007.873
23.871178150,-2.595718,-0.03843708,0.09539488,0.01931131,-0.9921405,-0.064564,1.053136,43.02039,4.599394,1007.872
23.906243801,-4.564597,0.02104386,-0.5777985,0.01795487,-1.003289,-0.0748837,1.053136,43.02039,4.599394,1007.873
23.938805103,-4.810707,0.1400057,-0.7001973,0.01691948,-1.000336,-0.08595531,0.3177755,43.38407,5.491304,1007.872
23.971366405,-3.641685,0.02104386,-0.2106021,0.01642215,-1.001275,-0.09466994,0.6899271,43.0229,5.492727,1007.872
24.006432056,-1.488224,0.2589676,0.09539488,0.01252495,-1.000371,-0.09078538,0.6899271,43.0229,5.492727,1007.872
24.038993359,0.7882922,0.1994867,-0.08820331,0.01554968,-1.008607,-0.08801367,0.6939774,42.65651,5.049265,1007.873
24.071554184,2.695643,-0.03843708,-0.08820331,0.01983867,-0.9988666,-0.08013519,0.6866651,43.01774,4.600582,1007.873
24.106619835,2.695643,-0.09791802,0.09539488,0.02082504,-0.9998279,-0.07966743,0.6866651,43.01774,4.600582,1007.872
24.139181137,1.834259,-0.09791802,0.7073888,0.01692385,-0.9993927,-0.07965703,1.054767,43.02297,5.045465,1007.876
24.171741486,2.018841,-0.03843708,0.58499,0.01594274,-0.9993922,-0.08255633,1.421237,43.02561,5.044275,1007.876
24.204302788,2.757171,-0.157399,0.5237907,0.01698016,-1.002825,-0.07294217,1.421237,43.02561,5.044275,1007.876
24.239368439,2.388006,-0.4548037,0.58499,0.01697648,-1.001391,-0.06760314,0.3348191,42.29264,5.499138,1007.876
24.271929741,1.403567,-0.09791802,0.5237907,0.01984184,-0.9979211,-0.07432024,1.062079,42.66174,5.49415,1007.874
24.304491043,0.4191274,-0.03843708,0.2789931,0.013526,-0.99803,-0.06851529,1.062079,42.66174,5.49415,1007.874
24.339556694,-0.5037844,0.0805248,-0.02700391,0.01551933,-1.002844,-0.07294105,0.6956084,42.65909,5.495338,1007.874
24.372117996,-0.5653118,0.02104386,-0.2718015,0.01693423,-0.9984605,-0.07094203,1.053136,43.02039,4.599394,1007.874
24.404678822,-0.996004,-0.03843708,-0.2718015,0.01493888,-0.9931672,-0.06505883,0.6882961,43.02032,5.046654,1007.876
24.439744949,-1.980443,0.1400057,0.2789931,0.01552173,-1.002848,-0.07197436,0.6882961,43.02032,5.046654,1007.88
24.472305775,-1.857388,0.1400057,-0.5777985,0.01540385,-0.9950232,-0.08297253,1.054767,43.02297,5.045465,1007.876
24.504867077,-0.2576746,0.0805248,-0.3330009,0.02338785,-1.011445,-0.08274739,0.6899271,43.0229,5.492727,1007.876
24.539932728,1.711204,-0.09791802,0.2177937,0.01893567,-1.005192,-0.08119757,0.6899271,43.0229,5.492727,1007.88
24.572494030,1.772732,0.2589676,0.7685882,0.01745019,-1.001361,-0.07292029,0.3218255,43.01767,5.047842,1007.878
24.605055332,0.6037098,0.0805248,-0.02700391,0.0085338,-0.9888327,-0.07465405,0.6882961,43.02032,5.046654,1007.878
24.640120983,-0.3807295,0.0805248,-0.7001973,0.009109299,-0.9956467,-0.07089154,0.6882961,43.02032,5.046654,1007.877
24.672682285,0.6037098,0.1400057,-0.7613967,0.01161858,-1.003361,-0.07729556,1.422868,43.02819,5.490349,1007.877
24.705243111,2.080369,0.02104386,-0.9449949,0.01893484,-1.004715,-0.07925678,1.060448,42.65916,5.048077,1007.877
24.737804413,2.572588,-0.09791802,-0.7613967,0.01743492,-1.000857,-0.0767796,1.060448,42.65916,5.048077,1007.877
24.772870064,1.649677,0.02104386,-0.5165991,0.02330074,-1.001298,-0.07002471,1.053136,43.02039,4.599394,1007.878
24.805431366,1.09593,0.02104386,-0.1494027,0.02133161,-0.9993817,-0.0695102,0.6923463,42.65393,4.603193,1007.883
24.837992668,0.9113471,0.02104386,-0.2106021,0.01740021,-0.9960378,-0.06800526,0.6923463,42.65393,4.603193,1007.883
24.873058319,1.09593,0.0805248,-0.08820331,0.02234699,-1.00325,-0.07102032,0.6866651,43.01774,4.600582,1007.881
24.905619621,0.8498197,0.0805248,0.4625912,0.01981637,-0.9935941,-0.06410329,1.054767,43.02297,5.045465,1007.877
24.938180447,-0.1961471,-0.3358418,0.8297876,0.01206472,-0.997097,-0.06414925,1.054767,43.02297,5.045465,1007.875
24.973246574,-0.5037844,-0.09791802,0.6461895,0.009199882,-1.002946,-0.06858612,0.6980276,42.29012,4.605804,1007.874
25.005807400,0.1114901,-0.09791802,0.3401924,0.006411494,-1.014167,-0.06730448,1.053136,43.02039,4.599394,1007.872
25.038368225,0.8498197,-0.03843708,-0.6389979,0.01063208,-0.9995456,-0.06418522,1.053136,43.02039,4.599394,1007.872
25.073433876,0.1730176,0.0805248,0.2177937,0.01844168,-1.000429,-0.06130598,1.056398,43.02555,5.491539,1007.87
25.105995178,1.218984,-0.157399,-0.3330009,0.02459966,-0.9867147,-0.06690321,0.3145134,43.3789,4.599159,1007.869
25.138556004,1.649677,0.1400057,1.502981,0.01016122,-1.000533,-0.06226632,0.3145134,43.3789,4.599159,1007.867
25.171117306,0.2960725,0.0805248,0.2789931,0.0004488783,-1.002135,-0.05841438,1.058817,42.65657,4.602005,1007.867
25.206182957,-1.857388,0.3184485,-0.9449949,0.01270712,-1.010692,-0.06532403,0.6882961,43.02032,5.046654,1007.867
25.238744259,-3.334047,0.4374104,-1.740587,0.02179315,-0.9964753,-0.06608267,0.6882961,43.02032,5.046654,1007.867
25.271305561,-4.503069,0.0805248,-1.43459,0.02261128,-0.9847634,-0.07412218,0.6882961,43.02032,5.046654,1007.869
25.306371212,-3.27252,0.0805248,-0.2106021,0.02123381,-0.9920689,-0.07471568,1.060448,42.65916,5.048077,1007.869
25.338932514,-1.119059,-0.157399,0.7685882,0.02430852,-1.005628,-0.07685901,1.060448,42.65916,5.048077,1007.869
25.371493340,0.7267647,-0.09791802,1.258183,0.02142962,-1.010976,-0.08467185,0.6939774,42.65651,5.049265,1007.869
25.406559467,1.403567,-0.09791802,1.380582,0.01405134,-1.004277,-0.08262902,1.054767,43.02297,5.045465,1007.867
25.439120293,1.649677,-0.157399,0.7685882,0.01205592,-0.9975565,-0.06995678,1.054767,43.02297,5.045465,1007.867
25.471681595,2.326479,-0.09791802,0.7073888,0.003755319,-0.9957209,-0.06992076,0.6882961,43.02032,5.046654,1007.867
25.506747246,4.787577,-0.157399,0.2177937,0.01796165,-1.002351,-0.06761873,1.419607,43.02303,4.598204,1007.867
25.539308548,2.941753,0.1994867,0.09539488,0.01109767,-0.9975978,-0.06367258,1.419607,43.02303,4.598204,1007.867
25.571869850,0.7267647,0.3184485,-1.067394,0.02280359,-0.9974806,-0.05594806,1.045824,43.38161,4.150711,1007.869
25.604430676,-2.349608,-0.03843708,0.09539488,0.01889803,-0.9979888,-0.06223594,0.6809838,43.38155,4.597971,1007.869
25.639496803,-3.703212,-0.09791802,0.58499,0.02027918,-0.9921168,-0.06698146,0.6809838,43.38155,4.597971,1007.869
25.672057629,-2.53419,-0.2168799,0.9521865,0.01164151,-1.00483,-0.0749011,0.6826148,43.38413,5.044043,1007.871
25.704618931,-0.1346197,-0.2168799,1.196984,0.007675898,-0.9990451,-0.07577578,1.060448,42.65916,5.048077,1007.871
25.739684582,-0.01156478,-0.157399,1.258183,0.008756457,-1.007313,-0.07155256,1.060448,42.65916,5.048077,1007.869
25.772245884,-0.8114217,-0.2168799,0.6461895,0.007693257,-1.001455,-0.08016295,0.3177755,43.38407,5.491304,1007.874
25.804807186,-1.488224,-0.09791802,-0.3942003,0.00822606,-1.004386,-0.07537442,1.060448,42.65916,5.048077,1007.869
25.839872837,0.7882922,-0.09791802,-0.7613967,0.001865637,-1.002986,-0.08066407,1.060448,42.65916,5.048077,1007.872
25.872434139,4.972159,-0.3358418,-0.7001973,0.01120359,-1.006828,-0.06429688,0.6866651,43.01774,4.600582,1007.872
25.904994965,3.372445,-0.03843708,-0.7001973,0.01607468,-1.007719,-0.06818219,0.6842458,43.38671,5.490116,1007.872
25.940061092,-0.3807295,0.3779295,-2.352581,0.02324962,-0.9973994,-0.07238207,0.6842458,43.38671,5.490116,1007.872
25.972621918,1.280512,0.5563723,-1.128593,0.02572817,-0.9998259,-0.06613758,0.6826148,43.38413,5.044043,1007.872
26.005183220,4.295357,0.2589676,0.7685882,0.006713082,-0.9957487,-0.05542273,0.6826148,43.38413,5.044043,1007.87
26.037744522,4.787577,0.0805248,-0.3330009,0.01066374,-0.9991279,-0.0491942,0.6826148,43.38413,5.044043,1007.87
26.072810173,1.649677,0.3184485,-0.5165991,0.02092835,-1.004773,-0.06089127,0.6866651,43.01774,4.600582,1007.87
26.105371475,-2.103498,0.4374104,-0.8225961,0.008087833,-0.9903407,-0.06500909,0.3218255,43.01767,5.047842,1007.874
26.137932301,-1.488224,0.3779295,-1.679388,0.0083976,-1.018968,-0.07463029,0.3218255,43.01767,5.047842,1007.874
26.172998428,4.110775,0.4968913,-0.9449949,0.01560427,-1.009658,-0.0706282,1.049086,43.38678,5.042854,1007.874
26.205559254,8.11006,0.1994867,-0.2718015,0.0148901,-0.9878464,-0.05966046,1.058817,42.65657,4.602005,1007.873
26.238120556,8.909916,0.4968913,-0.1494027,0.02764649,-0.9959418,-0.05979627,1.413925,43.38684,4.595592,1007.873
26.273186207,6.941038,0.3184485,0.8909871,0.01065367,-0.9981582,-0.04869602,1.413925,43.38684,4.595592,1007.871
26.305747509,4.541467,0.3779295,-0.5165991,0.008300974,-1.00262,-0.03619403,0.6777217,43.37638,3.705828,1007.871
26.338308811,2.018841,0.3184485,-1.128593,0.02099724,-1.002996,-0.02412759,0.683403,43.01257,3.708439,1007.869
26.373373509,-1.426696,0.3184485,-0.8225961,0.01125145,-1.001208,-0.01780701,0.683403,43.01257,3.708439,1007.869
26.405934811,-5.549036,0.4968913,-1.740587,0.02288592,-1.000009,-0.03423476,1.410663,43.38168,3.70345,1007.869
26.438496113,-8.748464,0.3779295,-1.067394,0.01892076,-0.9951765,-0.03947435,0.6736717,43.74278,4.149288,1007.867
26.471056938,-10.96345,0.6158532,-1.43459,0.01799489,-1.00146,-0.04972024,0.6736717,43.74278,4.149288,1007.872
26.506123066,-13.23997,0.6753342,-0.8837955,0.01911258,-1.014551,-0.05330468,0.6809838,43.38155,4.597971,1007.87
26.538683891,-13.3015,0.853777,-1.067394,0.01905437,-1.013494,-0.07214019,0.6809838,43.38155,4.597971,1007.87
26.571245194,-11.33262,0.9727389,-1.495789,0.02084556,-1.001292,-0.07823966,0.6809838,43.38155,4.597971,1007.87
26.606310845,-10.65582,1.210663,-0.5777985,0.02372821,-0.9988048,-0.08255488,1.058817,42.65657,4.602005,1007.87
26.638872147,-11.27109,1.508067,-0.2106021,0.01995834,-1.0105,-0.08659668,1.058817,42.65657,4.602005,1007.87
26.671433449,-16.50092,1.329625,-1.067394,0.02189109,-1.006642,-0.07445528,1.058817,42.65657,4.602005,1007.87
26.706499100,-23.45353,0.9727389,-0.8225961,0.02274318,-1.0007,-0.09611738,1.062079,42.66174,5.49415,1007.868
26.739060402,-33.05181,0.2589676,-0.1494027,0.05854576,-0.9774534,-0.08226274,0.3331881,42.29005,5.053064,1007.868
26.771621227,-42.65009,-2.953003,0.2177937,-0.001320395,-0.9930295,-0.1414146,0.3331881,42.29005,5.053064,1007.866
26.806687355,-43.75759,-2.655598,3.706159,0.01031834,-0.9970701,-0.1811244,0.708602,41.93406,5.946632,1007.865
26.839248180,-41.29649,-4.142622,5.542141,0.02126266,-0.9817137,-0.2132869,0.7345891,40.48397,6.84922,1007.863
26.871809483,-35.2668,-6.046012,7.072126,0.01291015,-0.9845393,-0.2568258,0.7345891,40.48397,6.84922,1007.861
26.904370785,-32.00584,-7.235631,6.704929,-0.001322854,-0.9735805,-0.2493943,0.3754308,40.1201,7.299091,1007.861
26.939436436,-32.8057,-6.640821,5.725739,-0.05229934,-0.944618,-0.2450362,0.4007335,38.60681,7.756042,1007.865
26.971997738,-39.32761,-5.629645,5.236144,-0.04946951,-0.935851,-0.2410381,0.4007335,38.60681,7.756042,1007.865
27.004558563,-48.67979,-4.67795,5.419742,-0.04496691,-0.9483792,-0.2518679,0.4283514,37.15931,9.104704,1007.865
27.039624691,-49.72575,-2.298713,3.522561,-0.01849596,-0.9797481,-0.3311625,0.8134968,36.07311,9.557421,1007.867
27.072185516,-48.18756,0.5563723,4.440552,-0.03300227,-0.9563999,-0.376713,0.8134968,36.07311,9.557421,1007.867
27.104746819,-42.03482,0.0805248,5.113745,0.00911471,-0.9363715,-0.3851489,1.200273,34.98949,10.45621,1007.867
27.139812470,-33.29792,0.9727389,7.194525,0.02978011,-0.9175262,-0.4085668,0.8508463,33.89541,10.46523,1007.867
27.172373772,-25.79157,-2.596117,10.98889,-0.003480496,-0.9091259,-0.4272583,0.8508463,33.89541,10.46523,1007.867
27.204935074,-14.77815,-2.77456,11.96808,-0.0108079,-0.9096544,-0.4388603,0.5030506,32.80392,10.92033,1007.865
27.240000725,-4.503069,-1.763384,11.90688,-0.02486833,-0.9180352,-0.4529925,0.5103629,32.44269,11.36901,1007.865
27.272562027,4.910632,-3.547813,13.74286,-0.05521762,-0.9029194,-0.4440318,0.5103629,32.44269,11.36901,1007.871
27.305122852,12.60156,-4.321064,13.25327,-0.06757164,-0.887529,-0.4437851,1.250616,32.08676,11.81531,1007.871
27.337684155,24.04567,-4.975355,13.25327,-0.06957772,-0.8926797,-0.4921994,0.892246,31.35132,10.92958,1007.869
27.372749806,36.10505,-5.808088,16.43563,-0.06842765,-0.9390677,-0.4416703,0.892246,31.35132,10.92958,1007.869
27.405311108,38.38157,-7.770958,17.90442,-0.08128778,-0.908429,-0.3764179,1.261979,31.35913,11.82054,1007.869
27.437872410,34.25923,-8.48473,16.12964,-0.05907404,-0.9262911,-0.3394919,1.244092,32.07642,10.03102,1007.869
27.472938061,33.21326,-8.187325,14.23246,-0.06950733,-0.9507219,-0.3408213,1.244092,32.07642,10.03102,1007.869
27.505499363,36.04352,-9.079539,14.04886,-0.06497612,-0.9575949,-0.3128947,1.23273,32.80405,10.0258,1007.869
27.538060188,36.96643,-10.09072,12.70247,-0.04370281,-0.9351593,-0.2695524,1.588626,33.16275,8.683788,1007.869
27.573126316,37.88935,-9.020059,10.62169,-0.07312896,-0.9593584,-0.2694098,1.588626,33.16275,8.683788,1007.869
27.605687142,36.41269,-9.971753,12.02928,-0.1120809,-0.958446,-0.2611409,1.582945,33.52656,8.681177,1007.869
27.638248444,33.45937,-13.36217,12.76367,-0.1173073,-0.9601802,-0.2157249,1.578052,33.51881,7.34296,1007.869
27.673314094,35.85894,-15.444,11.78448,-0.1404965,-0.9865043,-0.2644418,1.578052,33.51881,7.34296,1007.869
27.705875397,47.30305,-16.51466,15.15045,-0.163498,-1.014598,-0.2445464,2.286637,34.97676,6.884068,1007.869
27.738436699,53.7019,-16.87154,15.08925,-0.1775987,-1.002454,-0.1771581,1.922586,34.60514,5.995724,1007.872
27.770997524,56.34758,-17.22843,16.98643,-0.1796719,-0.9860795,-0.1503206,1.922586,34.60514,5.995724,1007.872
27.806063652,52.96357,-14.07594,14.78325,-0.1875061,-0.9570901,-0.02902651,2.274432,35.33025,5.097168,1007.872
27.838624477,42.13474,-12.82684,14.17126,-0.1762255,-0.9642261,-0.0305964,1.886024,36.41129,3.752308,1007.872
27.871185780,31.61355,-14.07594,14.23246,-0.1779811,-0.9741147,0.001157301,1.886024,36.41129,3.752308,1007.872
27.906251430,24.53789,-11.3993,15.15045,-0.1808167,-0.9795418,0.01074478,1.878712,36.77251,3.303624,1007.872
27.938812733,20.47708,-8.841616,14.90565,-0.2197616,-0.9833983,-0.0008775136,2.671101,36.77566,2.854977,1007.872
27.971374035,20.66166,-6.878745,13.49806,-0.2417879,-0.9692079,0.02159557,2.662158,37.1343,1.960221,1007.87
28.006439686,15.98557,-5.748607,11.66208,-0.2376387,-0.9458953,0.03693192,2.662158,37.1343,1.960221,1007.875
28.039000988,11.30949,-5.391721,7.867718,-0.2640911,-0.9682489,0.06706916,3.022947,37.50076,1.956422,1007.876
28.071561813,9.463663,-3.488332,4.930147,-0.247354,-0.9873881,0.04887606,2.658896,37.12914,1.068078,1007.876
28.106627941,7.002565,-1.406499,3.889757,-0.2315259,-0.9691405,0.036088,2.658896,37.12914,1.068078,1007.876
28.139188767,3.98772,-0.2763608,4.012156,-0.2414239,-0.9556599,0.03581984,3.026997,37.13437,1.512961,1007.876
28.171750069,0.2345451,0.2589676,2.788168,-0.2515943,-0.9573212,0.05127238,3.389418,37.50341,1.955233,1007.876
28.204311371,-1.980443,0.6753342,1.196984,-0.260312,-0.9570464,0.07255357,3.389418,37.50341,1.955233,1007.876
28.239377022,-3.457102,0.4374104,1.686579,-0.2422431,-0.9626137,0.06616729,2.231347,37.12605,1.069466,1007.878
28.271938324,-5.733618,0.9132579,4.073355,-0.255765,-0.9744117,0.05681619,2.656476,37.49812,1.95761,1007.878
28.304499149,-9.363738,1.210663,1.441782,-0.2489904,-0.9732937,0.04425891,2.656476,37.49812,1.95761,1007.876
28.339565277,-16.62398,2.459762,1.747779,-0.2290182,-0.9773275,0.02677652,3.022947,37.50076,1.956422,1007.88
28.372126103,-16.6855,3.054572,5.174944,-0.2224025,-0.9654559,0.0003655246,2.662158,37.1343,1.960221,1007.882
28.404687405,-17.36231,2.816648,9.520103,-0.2229664,-0.9591388,-0.0009876844,2.662158,37.1343,1.960221,1007.884
28.439753056,-18.22369,1.805472,13.74286,-0.218713,-0.9517117,-0.01876342,1.873819,36.76476,1.965408,1007.884
28.472314358,-18.28522,1.448586,15.21165,-0.4019586,-0.9846761,-0.02827363,3.044884,36.41708,3.302471,1007.884
28.504875660,-30.89835,6.147581,15.08925,-0.6173369,-1.001955,-0.1583577,3.044884,36.41708,3.302471,1007.884
28.539941311,-15.45496,3.649381,10.98889,-0.0643843,-0.9377489,0.02480455,3.046515,36.41967,3.748544,1007.884
28.572502613,-4.441542,-1.049613,13.31446,-0.3037033,-0.9850998,-0.08057962,3.421929,36.06367,4.642109,1007.882
28.605063439,2.757171,2.102877,13.92646,-0.2830234,-0.9586712,-0.06182807,3.421929,36.06367,4.642109,1007.882
28.637624741,2.264951,0.9132579,11.23369,-0.3114188,-0.9373581,-0.02087184,3.788399,36.06631,4.640921,1007.884
28.672690391,-5.179872,2.162358,10.62169,-0.3265046,-0.9347185,-0.003415447,3.42356,36.06625,5.088181,1007.884
28.705251694,-18.40827,5.195886,6.766129,-0.2874402,-0.9367874,0.02890153,3.42356,36.06625,5.088181,1007.884
28.737812996,-18.28522,2.578724,6.58253,-0.3319422,-0.9460547,-0.09059098,3.801393,35.34127,5.092215,1007.882
28.772878647,-21.48465,7.932009,2.053776,-0.146506,-0.9258744,-0.04260778,3.804655,35.34644,5.98436,1007.882
28.805439949,-22.34603,2.757167,0.2789931,-0.331706,-0.9189561,-0.06407543,3.804655,35.34644,5.98436,1007.882
28.838000774,-29.54474,1.627029,-3.086974,-0.3402711,-0.9403625,-0.08372882,3.434134,35.71019,6.429008,1007.88
28.873066902,-25.29935,1.151182,-4.49456,-0.3300364,-0.9502332,-0.1278766,3.815229,34.99038,7.325186,1007.885
28.905627727,-22.22298,1.983915,-5.53495,-0.3346774,-0.9269887,-0.1226837,3.815229,34.99038,7.325186,1007.885
28.938189030,-27.26823,3.411457,-7.003736,-0.3105131,-0.9187275,-0.159801,3.81686,34.99296,7.771257,1007.885
28.973254681,-25.17629,7.099276,-6.820138,-0.3096953,-0.9511914,-0.1791488,3.828223,34.26534,7.77648,1007.883
29.005815983,-26.5299,8.348376,-4.555759,-0.3038155,-0.9445234,-0.1326486,3.828223,34.26534,7.77648,1007.883
29.038377285,-41.23496,8.348376,-2.903375,-0.3033508,-0.9302079,-0.07345862,3.828223,34.26534,7.77648,1007.883
29.070938110,-66.15358,7.634604,-3.392971,-0.2994255,-0.9050595,-0.1412349,3.468276,34.27303,9.561956,1007.883
29.106004715,-81.41239,7.39668,-2.719777,-0.2864267,-0.9160313,-0.2554917,3.468276,34.27303,9.561956,1007.885
29.138565064,-91.19525,9.716437,1.319383,-0.2967523,-0.9174091,-0.3023903,3.849371,33.55322,10.45813,1007.885
29.171126366,-130.3267,8.705261,6.827328,-0.2975095,-0.8845802,-0.2564513,3.504837,32.46689,11.80537,1007.883
29.206192970,-183.1788,8.526818,3.032966,-0.2779515,-0.8308396,-0.3677937,3.504837,32.46689,11.80537,1007.882
29.238753796,-241.6914,4.957962,-0.5165991,-0.2902433,-0.7030094,-0.4045018,3.183871,30.29945,14.94473,1007.883
29.271315098,-285.2529,13.52322,3.64496,-0.2540216,-0.6425907,-0.440835,3.618571,26.68207,18.09216,1007.883
29.306380749,-278.3003,27.08487,5.542141,-0.297574,-0.53312,-0.8026221,3.618571,26.68207,18.09216,1007.883
29.338942051,-224.6483,32.14075,6.827328,-0.3487431,-0.3233505,-1.013025,3.723466,20.82113,21.70295,1007.883
29.371503353,-147.6159,42.60939,12.51887,-0.3538878,-0.2169608,-1.017197,4.591969,12.46653,23.09884,1007.882
29.406569004,-80.73559,48.08164,13.00847,-0.2578648,-0.1707558,-0.9634138,4.591969,12.46653,23.09884,1007.882
29.439130306,-48.18756,36.30442,10.56049,-0.1506176,-0.220412,-0.9584744,5.048656,6.584984,22.69379,1007.884
29.539318085,-0.07309223,2.102877,3.889757,-0.1814922,-0.173422,-1.012833,4.361164,3.669205,22.71706,1007.884
29.571879387,7.37173,0.4374104,4.012156,-0.1909024,-0.1604121,-1.015042,4.376577,2.575189,22.27882,1007.884
29.604440689,9.032971,-0.4548037,3.094165,-0.2089026,-0.1578239,-0.9946833,4.376577,2.575189,22.27882,1007.882
29.639506340,16.60085,-2.12027,1.808978,-0.2127212,-0.2017161,-0.9726304,4.006056,2.938938,22.72347,1007.882
29.672067642,27.18357,-2.477156,0.8909871,-0.2171604,-0.2320532,-0.9407028,4.372527,2.941584,22.72228,1007.882
29.704628467,30.32147,-0.8711703,0.8909871,-0.2240151,-0.2638842,-0.9078289,4.357114,4.035598,23.16052,1007.881
29.739694118,25.89149,5.969138,0.03419548,-0.222335,-0.2713999,-0.8538069,4.357114,4.035598,23.16052,1007.881
29.772255421,8.171587,12.3336,-0.9449949,-0.2185629,-0.3067389,-0.8736848,4.725216,4.040828,23.6054,1007.883
29.804816723,-8.994574,13.22581,-1.067394,-0.213576,-0.2879211,-0.9357581,4.344121,4.760638,22.70922,1007.883
29.839882374,-12.07095,14.35595,-0.2718015,-0.2077412,-0.2940122,-0.9687263,4.344121,4.760638,22.70922,1007.883
29.872443676,-6.718058,15.30764,1.013386,-0.1925214,-0.2617566,-0.9643819,3.97765,4.757991,22.71041,1007.882
29.905004501,1.834259,10.96554,3.706159,-0.2321276,-0.3479467,-1.041065,3.984962,4.396762,23.1591,1007.882
29.940070629,10.07894,6.028619,2.176174,-0.1911313,-0.2673157,-1.020056,3.984962,4.396762,23.1591,1007.882
29.972631454,26.50677,-13.54061,12.76367,-0.03766153,-0.2872887,-0.8914475,3.972757,4.750242,21.3722,1007.882
30.005192757,33.39784,-8.722653,11.78448,-0.1977988,-0.3061472,-0.9437854,3.241447,4.747531,21.82065,1007.882
30.037754059,40.90419,-6.521859,14.11006,-0.2490268,-0.3294073,-0.8923695,3.241447,4.747531,21.82065,1007.882
30.072819710,37.52018,-9.257982,10.31569,-0.3573986,-0.3521461,-0.9051796,3.226822,5.469986,20.92328,1007.882
30.105381012,35.36672,-14.96815,3.706159,-0.4539495,-0.3878192,-0.9254491,3.583561,6.202837,21.36294,1007.886
30.137941837,37.08949,-20.26196,3.64496,-0.4312551,-0.4089928,-0.9069424,3.583561,6.202837,21.36294,1007.886
30.173007965,47.79527,-29.30306,6.092936,-0.4802533,-0.4669866,-0.9058463,3.200835,6.920063,20.02069,1007.886
30.205568790,63.30019,-37.27351,10.92769,-0.4676204,-0.502862,-0.8894877,2.761924,7.644597,20.01686,1007.886
30.238130093,78.74358,-45.89824,14.72205,-0.486366,-0.5159235,-0.8500319,2.761924,7.644597,20.01686,1007.886
30.273195744,87.9727,-53.86869,13.55926,-0.5400326,-0.5515742,-0.8592249,3.542003,8.436005,19.56255,1007.884
30.305757046,82.8044,-67.48982,9.764899,-0.5612059,-0.5575459,-0.7829219,2.723627,9.882931,19.10861,1007.884
30.338318348,67.05337,-81.70577,0.8297876,-0.5901088,-0.5632562,-0.6795385,2.723627,9.882931,19.10861,1007.882
30.373383999,43.30376,-94.73209,-11.59369,-0.6607646,-0.5830566,-0.5898643,2.703321,10.9692,18.20864,1007.882
30.405945301,19.49264,-107.1041,-27.75033,-0.6397599,-0.7548538,-0.585255,3.12924,10.9697,17.76118,1007.881
30.438506127,0.6037098,-110.9704,-35.33905,-0.2768568,-0.5608127,-0.4274809,3.12924,10.9697,17.76118,1007.881
30.471067429,-0.3807295,-116.74,-42.19339,-0.4177783,-0.7969117,-0.4270799,2.70169,10.96661,17.76256,1007.881
30.506134033,3.433973,-116.0263,-49.29252,-0.3631719,-0.7630887,-0.4406345,3.13329,10.60331,17.31771,1007.881
30.538694859,2.449534,-120.1305,-52.10769,-0.3776856,-0.7701104,-0.4344437,3.13329,10.60331,17.31771,1007.885
30.571256161,8.233114,-119.2977,-52.10769,-0.3174249,-0.7691033,-0.4828242,3.155227,9.519625,18.66376,1007.885
30.606321812,0.04996268,-108.7696,-55.35126,-0.3180898,-0.7459553,-0.4452504,2.741514,9.16564,20.89812,1007.883
30.638883114,-7.333333,-101.275,-54.67806,-0.2981632,-0.7104855,-0.4925828,2.741514,9.16564,20.89812,1007.88
30.671444416,-16.80856,-85.27463,-52.96448,-0.3015263,-0.7139423,-0.4902154,4.648782,8.828421,23.12495,1007.88
30.706510067,-26.09921,-68.2036,-44.45776,-0.3130179,-0.6826405,-0.4597574,4.664249,8.480108,25.80399,1007.878
30.739071369,-38.28165,-53.03595,-44.21297,-0.3303964,-0.644201,-0.41275,4.664249,8.480108,25.80399,1007.878
30.771632194,-46.09563,-37.45195,-36.74664,-0.3814853,-0.6397096,-0.3715451,5.042925,8.129274,27.5897,1007.876
30.806698322,-48.24909,-30.07631,-26.46515,-0.4297482,-0.5527799,-0.1758549,6.143179,8.511356,29.36782,1007.88
30.839259148,-38.34317,-28.52981,-3.943765,-0.4129255,-0.3217607,-0.1631624,6.143179,8.511356,29.36782,1007.88
30.871820450,-32.25195,-27.63759,32.46988,-0.6817918,-0.3156201,-0.1468578,6.532534,7.369687,30.71311,1007.88
30.904381752,-11.20956,-6.878745,53.33887,-0.559925,-0.2155106,-0.222305,7.638469,7.387959,32.49383,1007.878
30.939447403,-32.31348,-19.72663,79.65461,-0.7137695,-0.2313645,-0.2760532,7.638469,7.387959,32.49383,1007.88
30.972008705,-30.71377,-16.57414,85.65215,-0.6565791,-0.2851838,-0.2474435,8.041501,5.584467,34.73606,1007.878
31.004569530,-27.57586,-20.91625,84.48936,-0.7814314,-0.1624857,-0.3329423,7.708329,3.770516,36.08852,1007.878
31.039635658,-34.65152,-40.48548,101.564,-0.4388045,-0.2089386,-0.2513243,7.708329,3.770516,36.08852,1007.877
31.072196484,-44.86508,-33.82361,109.6423,-0.835232,-0.1518127,-0.3757481,8.102419,2.325668,37.43599,1007.877
31.104757786,-59.32404,-50.00243,105.4808,-1.441625,-0.05688242,-0.5443465,8.502977,0.1454511,37.45047,1007.878
31.139823437,-67.7533,-51.19204,95.93365,-0.9007928,-0.1487678,-0.4843982,8.502977,0.1454511,37.45047,1007.88
31.172384739,-81.72002,-58.86509,88.40613,-1.036538,-0.0899772,-0.548626,8.891329,-1.681288,35.67805,1007.88
31.204946041,-79.32046,-65.88384,77.20663,-0.9782395,-0.1207793,-0.5549527,8.560523,-4.609919,33.02369,1007.882
31.240011692,-56.80141,-70.22595,77.63503,-0.9483918,-0.1301673,-0.542557,9.345488,-8.68526,29.92797,1007.884
31.272572994,-31.32904,-67.84671,76.34985,-1.340885,-0.1134329,-0.6443987,9.345488,-8.68526,29.92797,1007.887
31.305133820,3.74161,-64.27785,42.99617,-1.5211,-0.1988752,-0.8601476,9.773609,-13.05867,28.17382,1007.889
31.337695122,44.90348,-23.05756,68.69992,-1.568257,-0.5269397,-0.9936854,9.773609,-13.05867,28.17382,1007.889
31.372760773,10.26352,-56.12896,76.77824,-1.527454,0.0177418,-0.6340001,10.55605,-16.33026,27.74887,1007.895
31.405322075,-38.77386,-46.25513,68.33273,-1.33264,0.0611183,-0.4242241,11.30688,-17.04226,29.53601,1007.898
31.437883854,-56.06308,-39.53378,24.88115,-1.159222,-0.1362207,-0.351512,11.30688,-17.04226,29.53601,1007.898
31.472949505,-51.6331,-28.05396,32.10268,-0.9848442,-0.1563406,-0.237427,11.70091,-19.23281,27.7662,1007.9
31.505510807,-49.23353,-21.39209,14.11006,-0.8789926,-0.1077944,-0.1362461,11.37337,-22.15627,26.00399,1007.9
31.538072109,-50.2795,-10.26916,6.460132,-0.8281474,-0.09894364,-0.01386584,11.76998,-24.40487,24.68069,1007.904
31.573137760,-39.20456,0.3184485,4.440552,-0.8774255,-0.09845712,-0.04813061,11.76998,-24.40487,24.68069,1007.904
31.605699062,-37.0511,-1.941827,3.828558,-0.9107541,0.01031051,-0.01501955,11.06218,-26.23439,23.80398,1007.905
31.638259888,-41.41954,-4.499507,0.8909871,-0.9389061,0.08576334,-0.01529137,11.43349,-26.96969,22.02372,1007.907
31.673326015,-45.72647,-9.198501,-5.228953,-0.9802069,0.1125903,-0.04771185,11.43349,-26.96969,22.02372,1007.907
31.705886841,-45.41883,-13.54061,-7.738128,-1.023282,0.0877649,-0.05578305,11.44159,-27.70248,21.1368,1007.909
31.738448143,-38.95845,-12.82684,-6.636539,-1.084243,0.09617707,-0.04979534,11.44075,-28.07662,19.35512,1007.91
31.771009445,-32.19043,-11.63722,-2.719777,-1.132382,0.09256926,-0.035786,11.44075,-28.07662,19.35512,1007.912
31.806075096,-21.79228,-10.62604,7.010926,-1.148523,0.0953455,-0.05119612,12.17611,-28.44031,18.46321,1007.917
31.838636398,-10.47123,-14.1949,17.53722,-1.120486,0.112736,-0.05434151,12.55068,-29.17045,17.5751,1007.917
31.871197224,-6.964168,-13.83801,25.61554,-1.044094,0.1694298,-0.01197989,12.55068,-29.17045,17.5751,1007.918
31.906263351,-9.425266,-14.43282,29.16511,-1.001099,0.1521286,-0.03838769,11.82016,-29.54472,16.68795,1007.918
31.938824177,-7.517915,-14.31386,31.55188,-0.9332001,0.1326448,-0.04793464,11.47152,-31.01035,15.36137,1007.918
31.971385479,-9.117629,-12.88632,32.10268,-0.9078993,0.1391951,-0.02659054,11.47152,-31.01035,15.36137,1007.92
32.006451130,-11.27109,-11.45878,27.69632,-0.9023001,0.1188458,-0.02448952,10.741,-31.38463,14.47421,1007.918
32.039012432,-9.855958,-8.48473,18.57761,-0.9039851,0.1007429,-0.003012121,10.76209,-32.84245,14.03858,1007.918
32.071573734,-11.33262,-4.02366,10.31569,-0.9254301,0.05965173,-0.006035209,10.76209,-32.84245,14.03858,1007.918
32.106639385,-22.03839,0.02104386,0.58499,-0.9226576,0.07660875,0.01355589,10.41182,-34.31067,12.26593,1007.924
32.139201164,-30.71377,0.9727389,-15.44925,-0.9394268,0.0103075,0.01014368,10.78398,-34.67184,12.26735,1007.92
32.171762466,-27.51434,-1.52546,-25.42476,-0.9887691,-0.06031964,0.009597165,10.78398,-34.67184,12.26735,1007.924
32.204323292,-17.793,-3.785736,-29.58631,-1.0606,-0.0408207,0.004646834,10.05345,-35.04611,11.3802,1007.924
32.239389420,-2.226553,-5.570164,-32.95228,-1.042355,-0.01442382,0.02340026,11.14555,-34.67694,10.92795,1007.924
32.271950245,17.58529,-3.012484,-32.27908,-0.9666105,-0.03866073,0.01280647,11.14555,-34.67694,10.92795,1007.924
32.304511547,31.7366,0.9132579,-23.52757,-0.9531802,0.1025047,0.002862763,11.13177,-33.58034,11.81226,1007.924
32.339577198,17.1546,-4.737431,-18.38682,-0.8491476,0.2457461,0.009781463,11.47878,-32.11728,12.69277,1007.923
32.372138500,8.971444,1.924434,-16.61204,-0.7863224,0.199518,-0.01128628,11.47878,-32.11728,12.69277,1007.923
32.404699802,11.1249,6.623428,-4.922956,-0.7915555,0.1892353,-0.009504595,11.82742,-30.65165,14.01935,1007.923
32.439765453,-8.809991,-2.179751,15.76244,-1.843055,0.5107867,0.1167768,12.53763,-29.19111,14.00653,1007.924
32.472326756,-6.16431,8.110452,7.133325,-0.7325171,0.3213656,0.06689428,12.53763,-29.19111,14.00653,1007.926
32.504887581,-7.333333,16.49726,-9.451711,-0.9663675,0.07814966,-0.1289746,12.52953,-28.45832,14.89345,1007.932
32.539953709,-80.92017,13.04737,7.010926,-1.808492,-0.03439009,0.5043117,12.91226,-29.17555,16.2357,1007.932
32.572514534,13.15531,34.40103,-18.69282,-1.930818,-0.5381864,-0.7373174,12.91226,-29.17555,16.2357,1007.932
32.605075836,30.32147,-22.52223,28.36951,-0.6375003,0.269752,0.03991279,14.76008,-29.51063,18.9088,1007.932
32.637637138,30.383,13.46374,12.88607,-0.6289657,0.3962134,0.1491435,21.47039,-32.73426,19.35677,1007.934
32.672702789,-2.657245,13.10685,6.215334,-1.312295,0.2036772,-0.1881144,21.47039,-32.73426,19.35677,1007.935
32.705264091,-26.09921,6.563947,9.214106,-0.8743382,0.08464271,0.09483913,21.10719,-32.73174,20.25011,1007.935
32.737824917,-1.057531,16.67571,8.72451,-0.9982001,0.03204459,-0.02185421,20.73745,-32.73955,19.35915,1007.935
32.772891521,4.049247,15.78349,10.1933,-0.980068,0.1821408,-0.05825194,20.73745,-32.73955,19.35915,1007.937
32.805452824,-1.611279,15.06972,6.154135,-0.9904211,0.1480512,-0.07277996,20.74639,-33.09819,20.25391,1007.937
32.838013649,1.465094,15.54557,6.215334,-0.9807063,0.113558,-0.04817998,20.00614,-32.74226,19.8076,1007.939
32.873079777,1.280512,17.86533,6.276534,-0.9775595,0.1734767,-0.06950421,20.00614,-32.74226,19.8076,1007.939
32.905640602,-9.609848,19.94716,6.276534,-0.9747499,0.1480917,-0.03702458,20.37424,-32.73703,20.25248,1007.939
32.938201904,-5.549036,21.67211,8.051316,-0.9821405,0.100173,-0.1010709,20.0094,-32.73709,20.69975,1007.945
32.973267555,6.817983,22.92121,7.316923,-0.9715131,0.1878704,-0.1176281,20.0094,-32.73709,20.69975,1007.945
33.005828857,2.449534,21.43418,5.236144,-0.9856355,0.1819806,-0.1452568,19.64293,-32.73974,20.70094,1007.943
33.038390160,1.218984,19.70923,3.950957,-0.9728217,0.1656951,-0.1609857,20.02402,-33.45955,21.59711,1007.943
33.070950985,3.372445,20.00664,3.338963,-0.9653834,0.1603135,-0.1320724,20.02402,-33.45955,21.59711,1007.941
33.106017113,8.602279,21.49366,2.114975,-0.9700401,0.1774038,-0.1627433,19.6535,-33.09581,22.04176,1007.941
33.138577938,8.909916,21.31522,1.258183,-0.9621289,0.1634931,-0.1803647,20.01429,-32.72935,22.03796,1007.941
33.171139240,8.725334,20.30404,1.380582,-0.974289,0.1590293,-0.1954058,20.01429,-32.72935,22.03796,1007.941
33.206204891,9.463663,20.30404,1.62538,-0.9769645,0.1428464,-0.1714812,18.84975,-32.37133,22.48518,1007.941
33.238766193,17.64681,21.3747,4.62415,-0.9890862,0.1321295,-0.2006356,19.29356,-33.08812,23.82724,1007.941
33.271327496,16.29321,19.64975,18.39401,-1.032878,-0.01672729,-0.2956727,19.28383,-32.35791,24.26809,1007.941
33.306393623,8.35617,11.97671,50.7073,-1.272347,0.007482362,-0.3206912,19.28383,-32.35791,24.26809,1007.941
33.338954926,-0.996004,3.114053,83.51018,-1.421363,-0.0428975,-0.3566025,18.85628,-32.361,24.26947,1007.943
33.371516228,-20.06952,-18.53701,110.8051,-1.439907,-0.1737472,-0.597369,20.39134,-33.08276,23.3776,1007.943
33.406581879,-24.19186,-32.99088,138.4672,-1.22642,-0.08061136,-0.4811105,20.39134,-33.08276,23.3776,1007.945
33.439143181,-55.07864,-29.54098,111.9067,-1.105482,0.1301655,-0.2092541,19.67213,-34.93036,19.37838,1007.945
33.471704006,-129.5884,-29.24358,36.44784,-0.689563,-0.2203819,-0.4827943,15.17678,-33.90212,14.03215,1007.945
33.506770134,-141.8939,-9.912272,4.685349,0.4340581,-0.5038823,-0.01014434,15.17678,-33.90212,14.03215,1007.945
33.539330959,-25.05324,5.850176,12.64127,-0.1339712,0.2520644,0.1353489,12.5976,-34.31546,8.690222,1007.944
33.571892262,62.93102,-39.11741,59.27521,-0.4275788,1.08106,0.9240997,12.56267,-32.50673,6.892878,1007.944
33.604453564,103.9698,-59.10301,201.1966,-2.017854,3.054963,0.4946076,12.56267,-32.50673,6.892878,1007.94
33.639519215,-11.33262,-104.8439,104.318,-0.1511757,-0.4414241,-0.2445145,12.20351,-32.87061,7.342749,1007.94
33.672080517,45.58028,-30.4332,135.3461,-0.2728108,0.4620997,-0.2765334,7.781453,-32.19541,3.783216,1007.94
33.704641342,-7.456387,-21.21365,143.4244,-1.597585,1.16924,-0.3302056,7.781453,-32.19541,3.783216,1007.94
33.739707470,-115.2525,-80.27823,176.1049,-0.4668379,0.5089129,-0.332187,3.734808,-31.87621,1.117249,1007.94
33.772268295,-105.162,-60.35211,182.5308,-0.2718895,0.6798169,-0.05762665,-0.01949167,-31.57548,-5.118283,1007.938
33.804829597,-104.1776,-73.14052,185.4684,-0.4044811,0.6261443,0.03545759,-0.01949167,-31.57548,-5.118283,1007.937
33.839896202,-101.2242,-78.79121,199.6054,0.08957162,0.6534533,0.2543671,-5.958994,-28.75567,-13.46807,1007.94
33.872457027,-91.68748,-76.82833,193.4855,0.4641913,1.05373,0.4094757,-13.42997,-25.58125,-21.49689,1007.933
33.905018330,-46.64938,-79.08861,170.7805,-0.02743254,1.070695,0.3995748,-13.42997,-25.58125,-21.49689,1007.933
33.940083981,-36.49735,-95.3269,136.9985,0.2498956,0.8848231,0.5990062,-20.87407,-19.78874,-27.76034,1007.936
33.972645283,-29.42169,-113.4091,29.16511,-0.1633943,1.705769,1.000565,-26.11428,-13.66167,-31.35666,1007.936
34.005206585,78.68205,-49.34814,62.45758,1.325842,0.7488962,1.398783,-26.11428,-13.66167,-31.35666,1007.938
34.037767410,141.317,27.79864,36.08064,1.246352,1.06126,0.2488379,-29.90256,-9.686666,-31.37329,1007.938
34.072833538,279.3231,38.08884,99.23842,-0.004556416,0.8091167,-0.2560301,-22.51444,-8.51861,-27.39045,1007.938
34.105394363,249.3592,-1.049613,47.89212,-0.1470204,1.314579,-0.344373,-22.51444,-8.51861,-27.39045,1007.936
34.137955666,114.2449,-30.4332,27.57392,-0.351708,1.146514,-0.2051101,-19.94514,-7.685996,-22.94371,1007.934
34.173021317,-15.82412,-0.5737656,31.12349,-0.3056233,1.117949,-0.4163427,-22.88821,-6.233846,-19.82215,1007.934
34.205582619,-13.54761,31.90283,17.23123,-0.01959625,0.7393793,-0.5654739,-22.88821,-6.233846,-19.82215,1007.934
34.238143921,41.45794,60.45368,17.90442,0.1593774,0.5640996,-0.3058471,-26.17267,-7.354265,-20.69576,1007.934
34.273209572,91.29518,76.98937,39.14061,0.1517591,0.9517025,-0.381617,-26.93649,-5.917231,-22.93418,1007.937
34.305770874,90.67991,64.08201,35.34625,0.2713155,1.190741,-0.3418323,-26.93649,-5.917231,-22.93418,1007.937
34.338332653,57.70119,66.46125,10.25449,0.3116012,1.400023,-0.3976503,-27.33626,-4.108572,-24.28427,1007.937
34.373398304,-22.16145,68.89997,22.00478,0.1155154,1.469367,-0.391086,-27.71899,-3.391346,-25.62651,1007.937
34.405959606,-91.37984,50.16348,11.47848,0.2812652,1.553827,-0.3203511,-27.71899,-3.391346,-25.62651,1007.937
34.438520432,-188.3471,62.00018,8.969308,0.6451603,1.639574,-0.07287197,-28.09119,-3.775886,-28.74522,1007.938
34.471081734,-332.1368,53.197,24.94235,0.60632,1.388652,0.3772282,-26.61884,-4.500669,-30.08297,1007.935
34.506147385,-463.4364,-17.46635,57.56163,0.1913049,0.922342,0.5174612,-26.61884,-4.500669,-30.08297,1007.933
34.538708687,-418.2137,-64.03993,39.14061,0.1373902,0.2720593,0.4684387,-20.75053,-5.941977,-34.99834,1007.93
34.571269989,-398.9556,-92.70975,42.75138,0.4646421,-0.1109,0.2278425,-18.99698,-1.952655,-39.49372,1007.93
34.606335640,-251.0436,-87.17802,51.56409,0.3263995,-0.3945542,-0.09876395,-18.99698,-1.952655,-39.49372,1007.928
34.638896942,-84.85793,-57.19962,58.96922,0.5465961,-0.435088,-0.06624188,-16.55099,5.705899,-39.55688,1007.924
34.671457767,46.31861,-18.06116,40.3646,0.3457608,-0.4254223,-0.09538656,-13.31451,10.54056,-36.03338,1007.923
34.706523895,120.7053,-8.901096,20.71959,0.417779,-0.3251002,-0.04075407,-13.31451,10.54056,-36.03338,1007.921
34.739084721,148.9464,-2.77456,1.441782,0.6646152,-0.2177516,0.03846911,-11.06428,12.03279,-32.48258,1007.919
34.771646976,143.1628,8.110452,-22.48718,1.004423,0.0176952,0.1098893,-9.945355,11.32602,-30.25056,1007.919
34.806712627,123.5356,50.75829,-73.28268,0.9622654,-0.01700296,0.03157698,-7.683928,8.831387,-23.99441,1007.922
34.839273930,115.6601,102.1498,-122.9766,0.8010672,0.006138592,0.144229,-7.683928,8.831387,-23.99441,1007.922
34.871834755,75.29804,118.4476,-165.3266,0.3671112,0.3189148,0.2301437,-4.27585,3.747716,-15.93882,1007.92
34.904396057,43.91904,125.8232,-214.4085,0.7113265,0.5933732,0.4979224,-4.27585,3.747716,-15.93882,1007.92
34.939461708,-7.825552,117.5554,-215.2653,-0.03249125,0.4212281,0.417707,-2.281949,-6.049025,-13.64391,1007.918
34.972023010,-19.63882,100.9007,-225.1184,-0.9992724,0.2769298,0.3081622,-2.16175,-14.49539,-16.70592,1007.916
35.004584312,-130.7574,102.8041,-160.6142,-2.126912,1.251281,1.686272,0.1003008,-19.59869,-21.13721,1007.916
35.039649963,251.0205,-14.1949,39.9974,-0.8315981,4.956726,3.133195,0.1003008,-19.59869,-21.13721,1007.923
35.072210789,-22.77672,-43.81641,44.03656,0.575416,1.62541,1.017477,-1.748362,-19.63775,-25.59199,1007.925
35.104772091,30.93675,-25.7342,-11.34889,0.05143118,0.1364481,0.1203549,-2.820102,-20.34748,-21.12248,1007.925
35.139837742,-91.37984,-0.4548037,-20.59,0.03964943,0.056733,0.3008998,-2.820102,-20.34748,-21.12248,1007.925
35.204960823,-47.94146,-14.13542,-13.12367,-0.1360686,0.1207342,0.0463395,-1.749939,-18.89463,-22.92078,1007.925
35.240026951,-1.549751,-1.763384,-3.45417,-0.05358638,0.2853269,0.1053261,-1.749939,-18.89463,-22.92078,1007.925
35.272587776,18.75431,17.98429,-5.53495,0.07291705,0.6463941,0.5810382,-1.768613,-17.80578,-23.37469,1007.925
35.305149078,5.279797,-25.19888,25.24835,0.3449757,1.868287,1.345268,-1.764564,-18.17218,-23.81815,1007.925
35.337710381,54.56329,12.09568,-1.373391,0.0734513,1.586076,1.491554,-1.764564,-18.17218,-23.81815,1007.927
35.372776032,-9.486794,-6.046012,-1.801786,0.009099391,0.8802328,0.4913756,-2.503186,-17.81366,-23.81838,1007.929
35.405337334,-21.97687,-0.8116893,-26.83234,0.1337833,0.4685273,0.3264265,-2.112359,-19.26367,-23.36305,1007.925
35.437898159,-29.23711,2.638205,-20.16161,0.1229506,0.3983271,0.3422841,-2.112359,-19.26367,-23.36305,1007.925
35.472963810,-21.79228,6.980314,7.194525,-0.007021189,0.5053586,0.4793881,-2.120459,-18.53088,-22.47613,1007.929
35.505525112,-9.302211,11.32242,13.55926,-0.0911415,0.7852685,0.6722566,-2.493454,-18.54386,-24.25923,1007.929
35.538086414,6.079653,-0.5142846,3.706159,-0.02686435,1.044561,0.907688,-2.493454,-18.54386,-24.25923,1007.929
35.573152065,-4.687652,-4.915874,-4.004965,0.01927509,0.9128547,0.8258769,-1.767826,-18.17734,-24.71029,1007.928
35.605713368,-4.995289,-2.893522,-2.168983,0.02195921,0.6715177,0.5747035,-1.766194,-18.17476,-24.26422,1007.928
35.638275146,2.757171,-3.36937,0.1565943,0.04234031,0.5835603,0.5240374,-1.766194,-18.17476,-24.26422,1007.928
35.673340797,7.310203,-2.417675,5.297343,0.05323629,0.6726695,0.6244786,-1.769456,-18.17993,-25.15636,1007.928
35.705902100,12.47851,-1.584942,4.501751,0.04958029,0.7928201,0.6973716,-1.771875,-17.81095,-24.26683,1007.928
35.738463402,14.93961,-0.9306512,0.58499,0.06109332,0.8531613,0.7137491,-1.771875,-17.81095,-24.26683,1007.928
35.771024227,12.97073,0.02104386,-3.086974,0.04550411,0.7959529,0.6384514,-1.758882,-18.53599,-23.81554,1007.928
35.806090355,10.4481,0.6158532,-2.719777,0.03231281,0.7455021,0.5801725,-1.762932,-18.16959,-23.37207,1007.928
35.838651180,4.726049,0.4374104,0.1565943,0.01605513,0.762759,0.586252,-1.762932,-18.16959,-23.37207,1007.928
35.871212482,0.04996268,-0.5737656,0.9521865,0.02598498,0.7967257,0.6263976,-2.123721,-18.53605,-23.36827,1007.926
