Time (s),Gyroscope X (deg/s),Gyroscope Y (deg/s),Gyroscope Z (deg/s),Accelerometer X (g),Accelerometer Y (g),Accelerometer Z (g),Magnetometer X (uT),Magnetometer Y (uT),Magnetometer Z (uT),Barometer (hPa)
0.000000000,-0.3199821,-0.07947369,0.03522218,-0.04312574,-0.007890185,-0.9998065,5.652326,-5.712193,34.82533,1008.348
0.032563210,-0.01202474,-0.07944824,0.03536643,-0.03774237,-0.01024769,-1.000331,4.917753,-5.720069,34.38163,1008.348
0.065126419,0.1113687,-0.1388849,0.03545247,-0.04210637,-0.01128984,-0.9974424,4.917753,-5.720069,34.38163,1008.348
0.100194931,-0.01194288,-0.1982598,0.03527757,-0.03968653,-0.01027968,-0.9988795,5.280174,-5.351029,34.8239,1008.35
0.132757664,0.2334437,-0.138213,0.2190965,-0.04257754,-0.01417868,-1.004737,5.291536,-6.07865,34.82912,1008.347
0.165317059,0.1712927,-0.07844853,0.03556463,-0.04357277,-0.01224994,-1.004223,5.291536,-6.07865,34.82912,1008.349
0.200384617,0.04829673,-0.01899615,-0.0256373,-0.04017024,-0.01076754,-0.9998533,5.285855,-5.71484,34.82652,1008.349
0.232947826,-0.136135,0.2187065,-0.08669394,-0.04304117,-0.01517882,-0.9999178,4.912072,-5.356259,34.37902,1008.353
0.265511036,-0.1968567,0.1590242,-0.14777,-0.04261745,-0.009825274,-1.00032,4.912072,-5.356259,34.37902,1008.348
0.300579548,0.1724772,0.1585684,0.2196335,-0.03919794,-0.01122756,-1.002761,4.53992,-4.995095,34.3776,1008.35
0.333142757,0.4171696,0.098926,-0.08645272,-0.0445326,-0.01276393,-1.000846,5.295587,-6.445045,34.38567,1008.352
0.365701676,0.4769966,-0.07932295,-0.02530412,-0.04064306,-0.01270214,-1.003266,5.295587,-6.445045,34.38567,1008.352
0.400769711,0.1678251,-0.3158352,-0.02536572,-0.04061006,-0.01514048,-1.00137,5.650695,-5.714776,34.37925,1008.349
0.433332920,-0.3855056,-0.2549736,0.09719384,-0.04794406,-0.01185194,-0.9974453,5.646645,-5.348382,34.82272,1008.351
0.465896130,-0.3222331,0.1619844,0.09725821,-0.04105438,-0.01760275,-0.9956062,5.646645,-5.348382,34.82272,1008.351
0.498458862,0.04787804,-0.01713749,0.03606538,-0.04600712,-0.01180677,-1.001797,5.280174,-5.351029,34.8239,1008.351
0.533527374,0.2316328,-0.07699056,-0.08629967,-0.04308139,-0.0127273,-1.004714,5.284224,-5.717422,34.38044,1008.351
0.566086769,0.1073638,-0.0175689,0.1586002,-0.04555166,-0.007462397,-0.9939971,5.284224,-5.717422,34.38044,1008.349
0.598649979,-0.07696155,0.04185304,0.03632265,-0.04354338,-0.01468168,-1.003777,5.291536,-6.07865,34.82912,1008.349
0.633717537,-0.1385949,-0.3743801,-0.08600514,-0.0441415,-0.004497126,-1.000721,5.652326,-5.712193,34.82533,1008.346
0.666280747,-0.01555385,-0.3733011,0.09769408,-0.04159161,-0.01418795,-0.9999041,5.652326,-5.712193,34.82533,1008.346
0.698843956,0.1685129,-0.2529294,0.1588409,-0.04503323,-0.01179407,-1.001798,4.90476,-4.995031,33.93033,1008.346
0.733911514,0.04498865,-0.1924879,0.09730917,-0.04305396,-0.01610669,-1.009599,5.642594,-4.981989,35.26617,1008.346
0.766470909,0.2291556,0.1046191,-0.02500648,-0.04110828,-0.01417501,-1.001354,5.642594,-4.981989,35.26617,1008.344
0.799034595,0.7196495,0.1039315,0.09734073,-0.04207893,-0.01466923,-1.002328,4.919384,-5.717486,34.8277,1008.345
0.834102631,0.041233,0.1630868,-0.08622412,-0.0425631,-0.01420505,-0.9989366,5.285855,-5.71484,34.82652,1008.345
0.866665840,-0.2658963,-0.01559182,-0.02505706,-0.03772057,-0.01314116,-1.005209,5.285855,-5.71484,34.82652,1008.345
0.899228573,-0.387404,0.162821,-0.02507012,-0.04306778,-0.01227655,-0.9969732,4.917753,-5.720069,34.38163,1008.343
0.931791782,-0.3242976,-0.2533137,-0.02517897,-0.04255987,-0.01468656,-0.9999108,5.280174,-5.351029,34.8239,1008.345
0.966855526,-0.07803801,-0.1337625,0.09727259,-0.04207773,-0.01467142,-1.001845,5.280174,-5.351029,34.8239,1008.347
0.999418736,0.3516789,-0.1335157,-0.0250814,-0.04063096,-0.01415108,-1.005221,5.272861,-4.989801,34.37522,1008.344
1.031981945,0.657786,-0.7271089,-0.02520969,-0.03915005,-0.01464431,-0.9994299,5.282593,-5.720006,33.93437,1008.344
1.067050457,0.41014,-0.6054032,-0.08654793,-0.04499376,-0.01519543,-1.00185,5.282593,-5.720006,33.93437,1008.346
1.099613667,0.1017188,-0.2464418,0.03576221,-0.04596683,-0.01568525,-1.00379,4.921016,-5.714904,35.27377,1008.348
1.132176876,0.224436,-0.1264564,-0.08662874,-0.04458657,-0.007909235,-0.9998054,5.272861,-4.989801,34.37522,1008.345
1.167240620,0.3465252,-0.006491351,0.03570886,-0.04549236,-0.01470488,-1.004259,5.272861,-4.989801,34.37522,1008.345
1.199803829,-0.26827,0.5282285,0.03567849,-0.0470019,-0.01083007,-1.005648,5.278543,-5.353612,34.37783,1008.345
1.232367039,-0.3901734,1.060191,-0.2090917,-0.04837899,-0.01766063,-1.003818,5.280174,-5.351029,34.8239,1008.347
1.267435551,-0.08146059,0.8176508,0.0360096,-0.0420491,-0.01805301,-1.006247,5.280174,-5.351029,34.8239,1008.345
1.299998283,-0.3878779,0.2795869,-0.2086277,-0.03723407,-0.01218278,-1.000844,5.646645,-5.348382,34.82272,1008.346
1.332561493,-0.5088691,-0.0783447,-0.02460143,-0.04059081,-0.01517564,-0.9936361,4.916122,-5.722652,33.93555,1008.348
1.365120888,0.2301062,-0.4942049,0.09803186,-0.03817211,-0.01559025,-1.002346,4.916122,-5.722652,33.93555,1008.348
1.400216580,0.843116,-0.3730549,-0.08582395,-0.0425413,-0.01709853,-1.003815,5.652326,-5.712193,34.82533,1008.344
1.432779789,1.024088,-0.5489507,0.09764428,-0.04595194,-0.01666366,-1.002355,5.284224,-5.717422,34.38044,1008.344
1.465342999,0.5284851,-0.4276205,-0.0248837,-0.04254859,-0.01565838,-0.9999256,5.284224,-5.717422,34.38044,1008.345
1.500410557,-0.210523,0.1680021,-0.08606976,-0.04842087,-0.01425488,-1.004732,5.646645,-5.348382,34.82272,1008.343
1.532973766,-0.6391025,0.5236429,-0.1468991,-0.04152554,-0.02049159,-1.002901,4.551283,-5.722716,34.38282,1008.343
1.565533161,-0.4524361,0.5809891,-0.20773,-0.04403558,-0.0137272,-1.001345,4.551283,-5.722716,34.38282,1008.345
1.600601196,0.2254635,0.5786818,-0.1461945,-0.03969894,-0.01073262,-1.006137,5.650695,-5.714776,34.37925,1008.347
1.633164406,0.9007867,0.339407,-0.02350697,-0.03772387,-0.01123269,-0.9974458,4.908022,-4.989865,34.82248,1008.344
1.665727616,0.4063231,0.04140278,0.0376348,-0.03864417,-0.01657501,-1.00091,5.639332,-4.987154,34.37403,1008.346
1.700795651,-0.08727452,-0.3743059,-0.02367241,-0.04258971,-0.01130278,-0.9959921,5.639332,-4.987154,34.37403,1008.346
1.733358860,0.4644544,-0.4317758,0.09851574,-0.04548755,-0.01471367,-1.002325,5.272861,-4.989801,34.37522,1008.346
1.765917778,-0.212581,-0.3697699,-0.08508095,-0.04351842,-0.01662971,-1.00284,5.658007,-6.076004,34.82794,1008.348
1.798480988,-0.2111355,-0.2493941,-0.08461885,-0.04200527,-0.02051112,-1,5.658007,-6.076004,34.82794,1008.345
1.833548546,-0.2103822,0.04824701,-0.1450246,-0.04798067,-0.009407016,-1.000792,5.650695,-5.714776,34.37925,1008.347
1.866111755,-0.1474765,0.1656876,-0.0224184,-0.0430883,-0.01081223,-0.998401,4.919384,-5.717486,34.8277,1008.347
1.898674965,-0.2084993,0.04567716,0.03896825,-0.04260978,-0.0107905,-1.001785,4.919384,-5.717486,34.8277,1008.349
1.933743477,0.161368,0.460705,-0.1446284,-0.0445229,-0.01420847,-1.003769,4.919384,-5.717486,34.8277,1008.346
1.966302872,0.9590995,0.3399214,-0.205603,-0.04451163,-0.01518029,-1.003783,5.649064,-5.717359,33.93318,1008.348
1.998865604,0.7705885,-0.1360989,0.1004452,-0.03914321,-0.01513242,-0.9989541,5.649064,-5.717359,33.93318,1008.35
2.033933640,-0.03108712,-0.3133658,-0.02218339,-0.04064509,-0.01222283,-1.001809,5.646645,-5.348382,34.82272,1008.347
2.066496849,-0.03092165,-0.1934439,0.03897201,-0.04017062,-0.01124246,-1.002277,4.547233,-5.356323,34.82628,1008.347
2.099060059,0.2767449,-0.01462301,0.03890905,-0.04157793,-0.01516417,-0.9989522,4.547233,-5.356323,34.82628,1008.349
2.134127617,0.4601702,0.0449222,0.03879575,-0.04349466,-0.01857555,-1.002386,4.919384,-5.717486,34.8277,1008.351
2.166687012,0.08992135,0.04457109,-0.02215872,-0.04307981,-0.01225458,-1.001807,5.652326,-5.712193,34.82533,1008.348
2.199250221,-0.5246001,0.3417939,-0.1444096,-0.04258565,-0.01226141,-0.9989069,5.652326,-5.712193,34.82533,1008.348
2.231812954,-0.5225199,0.2818151,-0.08323584,-0.0411836,-0.007378877,-0.9998006,5.281805,-5.348446,35.26997,1008.35
2.266881466,0.03292158,0.1616162,0.100363,-0.04163424,-0.01173204,-1.005667,5.284224,-5.717422,34.38044,1008.352
2.299444199,1.076766,0.1013458,0.09995375,-0.04302223,-0.01711587,-1.001397,5.284224,-5.717422,34.38044,1008.349
2.332007408,1.379145,-0.0175813,-0.02273726,-0.03716236,-0.01897232,-1.003848,5.285855,-5.71484,34.82652,1008.351
2.367071629,0.5132127,-0.07689197,0.09974186,-0.04649045,-0.01181971,-1.000347,5.274492,-4.987218,34.82129,1008.353
2.399634838,-0.3494138,-0.07667185,-0.02258376,-0.04694882,-0.01378069,-0.9979592,5.274492,-4.987218,34.82129,1008.353
2.432198048,-0.7781212,0.04256514,0.09977289,-0.04208217,-0.01418771,-1.001354,5.656376,-6.078587,34.38187,1008.35
2.467265606,-1.020236,-0.01706537,-0.0227379,-0.04105273,-0.01855699,-0.9994878,4.547233,-5.356323,34.82628,1008.352
2.499828816,-0.1560447,0.04239194,-0.08390237,-0.04447058,-0.01810893,-1.000928,4.547233,-5.356323,34.82628,1008.352
2.532392025,0.5201963,0.1013828,0.0998268,-0.0439989,-0.01759909,-1.004788,4.90071,-4.628637,34.3738,1008.35
2.567455769,0.3947814,0.04138239,0.09981068,-0.03773027,-0.01169662,-1.002287,4.543971,-5.361488,33.93414,1008.35
2.600018978,-0.09783124,-0.1369863,0.03866493,-0.037224,-0.0131524,-1.001343,4.543971,-5.361488,33.93414,1008.352
2.632582188,-0.6495386,-0.1955914,-0.1449183,-0.03770366,-0.01459889,-1.005231,5.272861,-4.989801,34.37522,1008.353
2.665145397,-0.5239135,0.2212922,0.2223698,-0.04355909,-0.01322615,-1.003271,5.284224,-5.717422,34.38044,1008.351
2.700213909,0.5829657,0.2797456,0.03865907,-0.04551656,-0.01180701,-1.000347,5.284224,-5.717422,34.38044,1008.352
2.732777119,1.132831,0.1002186,0.03859729,-0.04109106,-0.01373086,-0.9921636,5.281805,-5.348446,35.26997,1008.352
2.765336037,0.6366882,0.1594403,-0.08390117,-0.04017303,-0.01123807,-1.003244,5.284224,-5.717422,34.38044,1008.354
2.800404072,-0.1638013,0.04031929,-0.08383985,-0.04158515,-0.01515098,-1.001852,5.284224,-5.717422,34.38044,1008.352
2.832966804,-0.7156066,-0.1377655,0.161012,-0.03910653,-0.01900431,-1.002397,4.912072,-5.356259,34.37902,1008.353
2.865530014,0.08614407,-0.07746159,0.03889725,-0.04303192,-0.01567133,-0.9984751,5.640963,-4.984571,34.8201,1008.351
2.900598049,0.7002679,0.04180299,0.1000602,-0.04161733,-0.01318976,-1.005689,5.640963,-4.984571,34.8201,1008.351
2.933161259,0.9429825,-0.136232,0.09994033,-0.04348504,-0.01859313,-0.9985193,5.276124,-4.984635,35.26736,1008.353
2.965720177,0.7545753,-0.1358821,-0.08368129,-0.04494746,-0.0190849,-1.001426,5.281805,-5.348446,35.26997,1008.354
3.000788212,-0.3542806,0.1017987,0.03864363,-0.03864823,-0.01561638,-0.9979953,5.274492,-4.987218,34.82129,1008.356
3.033351421,-0.4752348,-0.07689114,-0.02236791,-0.03766186,-0.01657769,-0.9975274,5.274492,-4.987218,34.82129,1008.354
3.065914154,-0.4116353,-0.1952037,-0.1447137,-0.04351797,-0.01758175,-1.007205,4.912072,-5.356259,34.37902,1008.354
3.098477364,0.1431718,-0.07570719,-0.08346166,-0.04454222,-0.01274635,-1.004713,4.912072,-5.356259,34.37902,1008.354
3.133545876,0.3879776,0.04334439,0.1613568,-0.04939039,-0.01332433,-0.9984332,5.278543,-5.353612,34.37783,1008.357
3.166104317,0.2633607,-0.1939537,-0.1447796,-0.04351804,-0.01615479,-1.000416,5.645013,-5.350965,34.37664,1008.355
3.198667526,0.01631259,-0.1337379,-0.02255827,-0.0415296,-0.01953295,-0.9999857,5.645013,-5.350965,34.37664,1008.355
3.233736038,-0.106775,-0.1926134,-0.02253595,-0.0450006,-0.01470733,-1.002326,5.635282,-4.620761,34.81749,1008.355
3.266299248,-0.2903236,0.1051475,-0.206023,-0.04104905,-0.01999054,-1.004827,5.645013,-5.350965,34.37664,1008.354
3.298862457,-0.2280565,-0.1325894,0.1001803,-0.04453057,-0.01324325,-1.002304,5.646645,-5.348382,34.82272,1008.356
3.333930016,0.01822516,-0.1327908,-0.0221593,-0.04500992,-0.01278786,-0.9969791,5.646645,-5.348382,34.82272,1008.358
3.366489410,0.2027137,-0.07319772,-0.02220308,-0.04402995,-0.01421311,-1.001352,5.293167,-6.076067,35.2752,1008.353
3.399052620,0.140707,-0.1324174,-0.02213165,-0.0410483,-0.0190407,-0.9999787,5.281805,-5.348446,35.26997,1008.353
3.431615353,-0.1663844,-0.2506717,0.03890856,-0.04209103,-0.01322029,-1.000372,5.281805,-5.348446,35.26997,1008.355
3.466683388,-0.4108957,0.04641497,0.03912164,-0.04447261,-0.01762962,-0.9994704,4.906391,-4.992448,34.37641,1008.357
3.499246597,0.3274677,0.04570349,-0.02183415,-0.04110949,-0.01417281,-1.001838,5.278543,-5.353612,34.37783,1008.354
3.531809807,0.4491492,-0.1922759,-0.08305976,-0.039179,-0.01316461,-1.004241,5.278543,-5.353612,34.37783,1008.356
3.566873551,0.2018983,-0.2510059,0.03912792,-0.04060727,-0.01466996,-0.9979789,4.912072,-5.356259,34.37902,1008.356
3.599436760,-0.1058479,-0.2501879,0.1615783,-0.03961406,-0.01611938,-0.9970351,4.912072,-5.356259,34.37902,1008.356
3.631999970,-0.3515451,-0.01150589,0.1615913,-0.04398687,-0.01762107,-0.9999542,4.912072,-5.356259,34.37902,1008.354
3.667067528,-0.2889758,0.1077299,-0.08328234,-0.04257152,-0.01418967,-1.00232,5.646645,-5.348382,34.82272,1008.355
3.699630737,-0.6558046,-0.189125,-0.1445071,-0.04599223,-0.01278518,-1.000362,4.912072,-5.356259,34.37902,1008.355
3.732193947,-0.5304043,0.1086024,-0.3278617,-0.04404603,-0.0132325,-1.003271,4.912072,-5.356259,34.37902,1008.355
3.767258167,0.2082071,0.5244547,0.03931534,-0.03965029,-0.01319953,-0.9979574,5.645013,-5.350965,34.37664,1008.357
3.799821377,0.6363904,0.04771933,-0.022025,-0.03865424,-0.01560539,-1.000412,5.281805,-5.348446,35.26997,1008.359
3.832384586,0.8175292,0.1662816,-0.02208862,-0.04156177,-0.01757174,-1.003823,5.281805,-5.348446,35.26997,1008.357
3.864946842,0.384489,0.1656223,0.1000739,-0.04304997,-0.01563836,-1.005725,5.659638,-6.073421,35.27401,1008.357
3.900015354,-0.4148552,-0.01332352,-0.02230361,-0.04255866,-0.01468876,-0.9994274,5.276912,-5.356195,33.93176,1008.357
3.932578564,-0.8427562,-0.07261933,-0.02225103,-0.04547304,-0.01616701,-1.003314,5.276912,-5.356195,33.93176,1008.358
3.965137959,-0.4709665,-0.07224863,-0.02221785,-0.04111031,-0.0136957,-0.9998971,4.908022,-4.989865,34.82248,1008.356
4.000205517,-0.2844524,-0.01237581,0.03911743,-0.04448471,-0.01618068,-0.9975147,5.652326,-5.712193,34.82533,1008.358
4.032768726,-0.09909689,-0.1310448,0.03903455,-0.04545454,-0.01715201,-1.000429,5.652326,-5.712193,34.82533,1008.355
4.065331936,0.3315745,-0.01164203,0.03895204,-0.04547266,-0.01569209,-1.00089,4.917753,-5.720069,34.38163,1008.355
4.100399494,0.330119,-0.01190799,-0.08350258,-0.04400537,-0.01663606,-1.002839,5.278543,-5.353612,34.37783,1008.355
4.132962704,0.3901848,0.2254674,-0.1448988,-0.04057097,-0.01901677,-1.003846,5.278543,-5.353612,34.37783,1008.357
4.165522099,0.0813045,-0.01262911,0.1610939,-0.03866108,-0.01511728,-1.000888,5.645013,-5.350965,34.37664,1008.358
4.200589657,-0.1642745,-0.01223782,0.09982079,-0.04248011,-0.02196641,-1.001955,5.278543,-5.353612,34.37783,1008.358
4.233152866,-0.4082866,0.2252693,0.03879008,-0.04649564,-0.01228584,-1.004704,5.278543,-5.353612,34.37783,1008.358
4.265716076,-0.1609953,0.2838693,0.100215,-0.04452613,-0.01372696,-1.002795,5.274492,-4.987218,34.82129,1008.359
4.298279286,0.4536231,-0.1329079,-0.02226602,-0.04496121,-0.01668173,-0.9955884,5.650695,-5.714776,34.37925,1008.361
4.333346844,-0.03894725,-0.2517153,-0.08361727,-0.03769321,-0.01509359,-1.003305,5.650695,-5.714776,34.37925,1008.359
4.365906239,-0.2845315,-0.1323804,0.03873848,-0.03868724,-0.01316705,-1.002308,6.013115,-5.345736,34.82153,1008.362
4.398469448,0.1464519,-0.0129907,-0.02244607,-0.04159522,-0.01418136,-1.001354,5.284224,-5.717422,34.38044,1008.362
4.433537006,0.2689022,-0.01254211,-0.02225111,-0.04306853,-0.0132264,-1.001822,5.284224,-5.717422,34.38044,1008.364
4.466100216,0.1450215,-0.1903368,0.03905841,-0.04547146,-0.01569428,-1.000407,5.281805,-5.348446,35.26997,1008.364
4.498663426,-0.1013126,0.1666159,0.03911037,-0.04161055,-0.01225091,-0.9984244,5.650695,-5.714776,34.37925,1008.362
4.533731461,-0.03949481,0.1658844,-0.08322972,-0.04686103,-0.02155084,-0.9990445,5.650695,-5.714776,34.37925,1008.362
4.566290379,0.144824,0.0459855,0.2228762,-0.04348662,-0.01906585,-1.001427,4.919384,-5.717486,34.8277,1008.363
4.598853588,0.02110167,0.04576078,0.03936734,-0.03916133,-0.0136725,-0.9994152,5.274492,-4.987218,34.82129,1008.363
4.633921147,0.08263314,-0.07327154,-0.08293551,-0.03966233,-0.01317755,-1.002791,5.274492,-4.987218,34.82129,1008.363
4.666484356,0.02109697,0.04576518,0.1618547,-0.04303838,-0.0147083,-0.996527,4.915334,-5.351093,35.27116,1008.363
4.699047566,-0.1627223,-0.07297251,0.1005332,-0.04158433,-0.0156281,-1.003793,5.278543,-5.353612,34.37783,1008.359
4.731610775,0.02223361,-0.01310088,-0.02202578,-0.04157147,-0.0161272,-1.0009,5.278543,-5.353612,34.37783,1008.359
4.766674995,0.02225164,-0.01287592,0.039232,-0.04056984,-0.017592,-0.9965734,5.645013,-5.350965,34.37664,1008.361
4.799237728,-0.161978,0.4620534,-0.144296,-0.04548311,-0.01519739,-1.002816,5.278543,-5.353612,34.37783,1008.363
4.831800938,0.2069206,0.4008195,-0.0829306,-0.03917216,-0.01365272,-1.003765,5.278543,-5.353612,34.37783,1008.36
4.866869450,0.2059545,-0.4322171,-0.0829505,-0.0415647,-0.01518834,-0.9936354,5.648275,-5.345799,35.26879,1008.36
4.899431705,-0.1633164,-0.8457018,0.1619739,-0.03523961,-0.01557193,-0.9979979,5.289906,-6.081234,34.38305,1008.362
4.931994915,-0.7766317,-0.8417136,-0.1441842,-0.04407061,-0.01080955,-1.001784,5.285855,-5.71484,34.82652,1008.362
4.967059612,-0.4041936,-0.006741757,0.1009202,-0.04306042,-0.01514366,-1.007651,5.285855,-5.71484,34.82652,1008.358
4.999622345,0.1504669,0.1120608,0.101027,-0.04645346,-0.01378972,-0.9945762,4.917753,-5.720069,34.38163,1008.359
5.032185078,0.02596909,0.1118465,-0.1436256,-0.049361,-0.01575607,-0.997987,4.915334,-5.351093,35.27116,1008.359
5.067253590,-0.4041615,0.2300746,0.04014227,-0.04601547,-0.01321834,-1.011969,4.915334,-5.351093,35.27116,1008.361
5.099816799,0.0276567,0.8234981,0.0401705,-0.04016175,-0.01220989,-1.003259,6.013115,-5.345736,34.82153,1008.361
5.132380009,0.4572515,0.8799204,0.2237777,-0.03865874,-0.01369472,-0.9931321,5.268811,-4.623407,34.81868,1008.357
5.164938450,0.332487,0.2823268,0.04001589,-0.03428271,-0.01267454,-0.9911872,5.268811,-4.623407,34.81868,1008.359
5.200006962,0.08478328,-0.7281103,0.1620856,-0.03719574,-0.0170089,-1.008169,5.280174,-5.351029,34.8239,1008.359
5.232569695,-0.3451155,-0.784735,-0.02161666,-0.04309944,-0.01269433,-1.011964,4.915334,-5.351093,35.27116,1008.356
5.265132427,-0.4661654,-0.2471033,-0.08272809,-0.04690854,-0.01765916,-0.9999519,4.915334,-5.351093,35.27116,1008.356
5.300200939,-0.09582321,-0.1272066,0.03993783,-0.04742291,-0.01428613,-0.9950662,5.285855,-5.71484,34.82652,1008.356
5.332764149,0.2116642,0.1106757,-0.143804,-0.0415735,-0.01564788,-0.9994429,5.278543,-5.353612,34.37783,1008.354
5.365322590,0.2106661,0.4072933,0.04007309,-0.04058586,-0.01803835,-1.005281,5.278543,-5.353612,34.37783,1008.356
5.400391102,0.08695719,0.6428883,0.1012311,-0.0445205,-0.01421287,-1.002802,4.919384,-5.717486,34.8277,1008.357
5.432953835,0.6391528,0.6998978,0.1011829,-0.04208622,-0.01322908,-0.9984388,5.652326,-5.712193,34.82533,1008.357
5.465516567,0.7592161,0.3409429,-0.02124466,-0.04156545,-0.01613818,-0.9984837,5.652326,-5.712193,34.82533,1008.359
5.500585079,0.3872404,-0.31378,0.03993268,-0.0391626,-0.01224334,-0.9931094,4.913703,-5.353676,34.82509,1008.357
5.533148289,-0.4131524,-0.1342819,0.1011806,-0.03911585,-0.01708485,-0.9970503,5.649064,-5.717359,33.93318,1008.357
5.565706730,-0.6575197,-0.07402964,-0.02122758,-0.04108484,-0.01802273,-1.010114,5.649064,-5.717359,33.93318,1008.354
5.598269940,-0.102405,-0.0140793,0.04023109,-0.04400574,-0.01711099,-1.005263,5.274492,-4.987218,34.82129,1008.354
5.633338452,0.3895301,0.164276,0.04032313,-0.04155861,-0.01662629,-0.9980078,4.912072,-5.356259,34.37902,1008.356
5.665900707,0.265582,0.2827546,-0.08199068,-0.04739111,-0.01672227,-0.9936532,4.912072,-5.356259,34.37902,1008.356
5.698463917,-0.2881474,0.2817141,0.04049305,-0.03966112,-0.01317975,-1.002307,5.272861,-4.989801,34.37522,1008.354
5.733532429,-0.1024739,0.1021467,-0.1431293,-0.03964586,-0.01368324,-0.9984481,5.278543,-5.353612,34.37783,1008.354
5.766090870,-0.04060563,-0.01726867,0.1018871,-0.04061456,-0.01322981,-0.9940898,5.278543,-5.353612,34.37783,1008.354
5.798654079,0.02100972,-0.1358056,0.1019513,-0.04114287,-0.0122094,-1.006158,5.295587,-6.445045,34.38567,1008.355
5.833722591,0.696407,-0.07595231,0.04072669,-0.03963452,-0.01608202,-1.005252,5.280174,-5.351029,34.8239,1008.351
5.866284847,0.7551534,-0.1941193,0.1631513,-0.04004989,-0.02002399,-0.9946774,5.280174,-5.351029,34.8239,1008.353
5.898948193,-0.1691956,-0.3119168,0.1019201,-0.04342987,-0.02345002,-0.9990768,4.919384,-5.717486,34.8277,1008.353
5.934015751,-0.9054891,-0.1920524,-0.0813961,-0.04445487,-0.01956446,-1.001433,4.919384,-5.717486,34.8277,1008.353
5.966575146,-0.7171768,-0.191829,-0.2646244,-0.04307695,-0.01321101,-1.005205,4.919384,-5.717486,34.8277,1008.349
5.999138355,-0.7143111,-0.4879853,0.1639479,-0.04163754,-0.009823563,-0.997904,6.011484,-5.348319,34.37545,1008.35
6.031701088,-0.3432573,-0.0704879,-0.01960843,-0.04544492,-0.01716959,-0.9965622,4.917753,-5.720069,34.38163,1008.352
6.066769123,0.8865012,0.1672038,-0.01969495,-0.04399852,-0.01712417,-1.002363,4.917753,-5.720069,34.38163,1008.35
6.099332333,0.637588,0.4631805,0.04148868,-0.04211802,-0.01079294,-0.9998518,4.912072,-5.356259,34.37902,1008.35
6.131895542,0.2661915,0.4017931,-0.1422783,-0.04062209,-0.0151185,-1.006203,5.280174,-5.351029,34.8239,1008.35
6.166959286,-0.716637,0.1630204,-0.08081898,-0.04354908,-0.01276881,-0.9969802,5.280174,-5.351029,34.8239,1008.352
6.199522495,-1.019559,-0.2531525,-0.08064339,-0.04159966,-0.01369765,-1.000863,5.645013,-5.350965,34.37664,1008.352
6.232085228,0.08987144,0.1635552,0.04171935,-0.04163868,-0.01124833,-1.005176,5.285855,-5.71484,34.82652,1008.347
6.267153263,0.8243132,0.81584,-0.01960552,-0.0401183,-0.01514292,-0.9994366,5.285855,-5.71484,34.82652,1008.347
6.299716473,-1.389826,0.6936085,-0.01958312,-0.04590525,-0.02007821,-0.9995064,5.280174,-5.351029,34.8239,1008.349
6.332279682,-3.288712,0.6908928,-0.08060654,-0.04255423,-0.01517247,-0.9999182,5.285855,-5.71484,34.82652,1008.349
6.367343426,-3.35024,1.107259,-0.3254041,-0.03682314,-0.007757093,-1.010928,5.289906,-6.081234,34.38305,1008.345
6.399906635,-2.550383,0.8098547,-0.01940714,-0.0358872,-0.002443346,-1.001181,5.289906,-6.081234,34.38305,1008.346
6.432468891,0.1568255,0.03660252,-0.08060654,-0.03687047,0.0008903774,-0.9890442,5.289906,-6.081234,34.38305,1008.346
6.465032101,1.079737,-0.439245,-0.1418059,-0.04319662,-0.001577762,-0.9987434,5.289906,-6.081234,34.38305,1008.348
6.500100136,1.818067,-0.439245,0.04179226,-0.04169505,-0.006389234,-1.005102,5.652326,-5.712193,34.82533,1008.35
6.532662869,2.002649,-0.1418403,-0.01940714,-0.04204549,-0.0180596,-1.004797,5.285855,-5.71484,34.82652,1008.346
6.565222263,1.325847,0.1555644,-0.1418059,-0.03865785,-0.01559879,-1.001862,6.013115,-5.345736,34.82153,1008.349
6.600289822,0.218353,0.3340072,-0.3254041,-0.04020528,-0.00784989,-1.000292,6.013115,-5.345736,34.82153,1008.349
6.632853031,-0.7045588,0.5719309,-0.2030053,-0.04161702,-0.01128788,-0.9964762,4.916122,-5.722652,33.93555,1008.349
6.665416241,-1.135251,0.8098547,-0.1418059,-0.04315595,-0.004981324,-0.9983119,5.652326,-5.712193,34.82533,1008.345
6.700484276,-0.5199764,1.76155,-0.1418059,-0.05567924,-0.01586059,-0.9931487,5.652326,-5.712193,34.82533,1008.345
6.733047486,-0.5815039,2.237397,-0.1418059,-0.02901619,-0.01196495,-1.025018,4.913703,-5.353676,34.82509,1008.343
6.765606403,1.756539,-0.8556116,0.2253904,-0.02265559,-0.0086085,-0.9969369,5.285855,-5.71484,34.82652,1008.343
6.800673962,0.4029354,-2.580559,0.1641911,-0.0293014,-0.02042515,-0.9826095,5.285855,-5.71484,34.82652,1008.344
6.833237171,-3.780932,-1.153016,-0.1418059,-0.04160821,-0.01082835,-0.9906686,5.658007,-6.076004,34.82794,1008.346
6.865800381,-4.642316,-0.2608022,-0.2642047,-0.0466329,-0.001571664,-1.009858,5.282593,-5.720006,33.93437,1008.344
6.898363590,-1.012196,-0.7961307,0.04179226,-0.04908485,-0.002047567,-1.019047,5.282593,-5.720006,33.93437,1008.346
6.933431625,4.340693,-0.3202831,0.2865898,-0.04552549,-0.009412628,-0.9925768,5.656376,-6.078587,34.38187,1008.346
6.965990543,5.263605,0.5719309,0.2253904,-0.04062597,-0.009404072,-0.9804969,5.284224,-5.717422,34.38044,1008.346
6.998553753,2.494869,0.7503738,0.1641911,-0.03764051,-0.01851913,-0.9980405,5.284224,-5.717422,34.38044,1008.345
7.033621311,-1.996635,0.09608345,-0.01940714,-0.03578545,-0.01689755,-1.02847,4.548863,-5.35374,35.27235,1008.345
7.066184521,-4.027041,-0.3797641,-0.2030053,-0.03964789,-0.01320392,-0.9969906,4.921803,-6.086463,33.93817,1008.345
7.098747730,-3.842459,-1.331459,-0.3866035,-0.03778317,-0.003990204,-0.9871843,4.921803,-6.086463,33.93817,1008.345
7.133815765,-0.7045588,-1.271978,-0.1418059,-0.03831831,-0.002481687,-0.9997286,4.917753,-5.720069,34.38163,1008.34
7.166374683,2.556396,-0.439245,-0.01940714,-0.04180368,0.000943356,-1.014658,5.656376,-6.078587,34.38187,1008.34
7.198937416,5.017495,-0.02287842,0.2865898,-0.04112551,-0.01461917,-1.010545,5.656376,-6.078587,34.38187,1008.34
7.234005928,5.263605,-0.7366497,0.2865898,-0.04988695,-0.01331309,-1.0023,5.280174,-5.351029,34.8239,1008.342
7.266568184,1.818067,-0.439245,0.1029917,-0.04054051,-0.01859679,-0.989338,5.285855,-5.71484,34.82652,1008.34
7.299131394,-0.3353941,-0.439245,-0.1418059,-0.02972424,-0.02768277,-0.9909372,5.285855,-5.71484,34.82652,1008.34
7.331694603,-1.996635,-1.39094,-0.1418059,-0.02948439,-0.00962746,-1.00613,5.653956,-5.70961,35.2714,1008.342
7.366758347,-2.796492,-2.818483,-0.01940714,-0.04464776,-0.003041353,-1.001665,4.549652,-5.725299,33.93674,1008.343
7.399321556,-1.996635,-3.472773,0.2865898,-0.05632871,-0.005106617,-1.008452,4.549652,-5.725299,33.93674,1008.341
7.431884766,2.433342,-1.866788,0.470188,-0.06380349,-0.02861536,-0.9904352,4.923435,-6.08388,34.38424,1008.343
7.466952324,2.125704,1.345183,0.1029917,-0.04736901,-0.01771386,-0.989318,5.280174,-5.351029,34.8239,1008.343
7.499515534,-1.504416,1.880512,-0.2642047,-0.07095217,-0.007647539,-1.025878,5.280174,-5.351029,34.8239,1008.344
7.532078743,-2.673438,3.902864,-0.1418059,-0.03238509,-0.01208192,-1.009065,6.011484,-5.348319,34.37545,1008.346
7.567142487,-0.02775682,4.735597,-0.2030053,-0.04931425,-0.02059758,-1.001928,4.916122,-5.722652,33.93555,1008.345
7.599705696,4.709857,4.97352,-0.3866035,-0.03759953,-0.02002081,-0.9883959,4.916122,-5.722652,33.93555,1008.349
7.632268906,6.432626,4.021825,-0.1418059,-0.03131752,-0.01699644,-0.9941563,5.283991,-5.717792,34.31672,1008.349
7.667336464,0.4029354,9.613034,-0.8149993,-0.05185591,-0.006641253,-0.9789938,4.91347,-5.354045,34.76137,1008.346
7.699899674,0.5875177,8.958744,-0.5702018,-0.01688545,-0.01267913,-1.046792,4.91347,-5.354045,34.76137,1008.348
7.732462406,-7.041887,2.177916,-1.549392,-0.1240054,-0.008858539,-1.018595,5.280174,-5.351029,34.8239,1008.348
7.765021324,-7.411051,3.605459,-0.8761987,0.00611653,-0.0230553,-1.050357,4.545602,-5.358906,34.38021,1008.352
7.800088882,0.1568255,13.30085,-0.9373981,-0.0007388408,-0.01356227,-1.020236,4.545602,-5.358906,34.38021,1008.352
7.832652092,0.8951551,10.26732,-2.161386,0.03839897,-0.0171921,-0.965224,4.552914,-5.720133,34.82889,1008.349
7.865215301,1.079737,11.75435,-0.5090023,0.01401501,-0.01221074,-0.9549735,4.190494,-6.089174,34.38662,1008.351
7.900283337,-7.041887,5.508849,-0.5702018,0.0002515551,-0.00644554,-0.9795244,4.190494,-6.089174,34.38662,1008.353
7.932846546,-4.580789,2.653764,-0.5702018,-0.002835025,-0.004755598,-1.038951,4.188074,-5.720197,35.27615,1008.35
7.965405464,-2.488855,4.081306,-0.6314011,-0.004376746,0.001080437,-1.044178,3.451871,-5.730657,34.38639,1008.35
8.000473499,0.03377064,5.508849,-1.916588,-0.0003699113,-0.00287691,-1.017656,3.82379,-6.092189,34.32409,1008.352
8.033036232,6.309571,5.092483,-3.874969,-0.02054683,0.01484798,-1.018816,3.82379,-6.092189,34.32409,1008.352
8.065599442,1.51043,0.09608345,-3.201776,0.003604233,-0.002494039,-0.9838178,3.028372,-6.100138,33.94431,1008.348
8.100667477,-10.61048,-3.413292,-1.855389,-0.02111472,-0.004930735,-0.9466112,3.453269,-5.728442,34.76873,1008.348
8.133230686,-9.995206,-2.104711,-1.426993,-0.0273669,0.01571552,-1.015413,3.453269,-5.728442,34.76873,1008.348
8.165789604,-9.62604,-9.063981,-0.8149993,-0.0004354953,0.05378522,-0.9737712,3.02977,-6.097924,34.32666,1008.348
8.198352337,-7.780216,-7.457996,-1.977788,0.05129775,-0.07780936,-0.9579439,3.03382,-6.464318,33.88319,1008.345
8.233420849,-28.20733,-7.636439,-0.4478029,0.02275517,0.01405208,-1.040139,3.03382,-6.464318,33.88319,1008.345
8.265983105,-30.29926,-13.88194,-0.4478029,-0.02454163,0.01878335,-1.040505,3.463233,-6.458278,34.39161,1008.347
8.298546314,-33.31411,-20.84121,1.143381,0.01570282,0.07711795,-1.03482,3.839203,-7.186205,33.88584,1008.347
8.333613873,-8.149382,-35.47352,1.26578,0.007144229,0.07139492,-0.9768935,3.839203,-7.186205,33.88584,1008.343
8.366173267,5.38666,-32.55895,1.694176,-0.0525675,0.06362218,-0.935384,4.956838,-8.329963,33.95427,1008.343
8.398736477,22.49129,-31.01245,0.470188,-0.03721616,0.07803981,-0.9622479,5.32899,-8.691127,33.95569,1008.345
8.433804035,10.24733,-34.99767,-2.283785,-0.08183119,0.05714414,-0.9837922,5.32899,-8.691127,33.95569,1008.347
8.466367245,10.98566,-26.43242,-1.182196,-0.1630208,0.10573,-0.8930646,6.788958,-8.317098,33.8846,1008.347
8.498930454,-10.91812,-32.43999,0.3477892,-0.1561741,0.06724038,-1.065257,7.149747,-7.950641,33.8808,1008.342
8.533998013,-18.54752,-35.71144,-7.975329,-0.1591743,0.0231694,-1.10798,7.149747,-7.950641,33.8808,1008.344
8.566557408,-47.34237,-26.7893,-0.2642047,-0.2470199,0.1407001,-1.021028,8.973158,-7.578762,32.9801,1008.344
8.599119663,-76.81403,-25.71865,4.142151,-0.2005174,0.007855071,-0.9592941,8.977207,-7.945156,32.53664,1008.343
8.631682873,-82.47455,-29.22802,3.897354,-0.1701158,0.04014929,-0.9201606,8.977207,-7.945156,32.53664,1008.343
8.666750908,-76.81403,-25.59968,11.42488,-0.1387787,0.1494645,-0.928674,10.1034,-9.758852,32.10006,1008.345
8.699314118,-77.12166,-23.9937,11.73088,-0.1451644,0.2230922,-0.9990844,10.49906,-11.94682,30.77632,1008.341
8.731877327,-104.1937,-26.61086,16.74923,-0.2526068,0.2954587,-0.9756412,10.49906,-11.94682,30.77632,1008.342
8.766941071,-199.6228,-39.39926,22.56317,-0.4244628,0.3206829,-1.029712,11.62767,-14.12949,29.45021,1008.344
8.799503803,-300.0971,-73.71976,27.27552,-0.588847,0.3822071,-1.241784,11.28932,-16.69726,26.28345,1008.344
8.832067013,-187.1943,-93.8838,18.76881,-0.4674736,0.1925871,-1.304733,11.28932,-16.69726,26.28345,1008.344
8.867135048,-95.70295,-37.0795,19.6256,-0.2750807,0.6705369,-1.011951,11.71344,-21.88477,20.07424,1008.342
8.899698257,-198.3307,12.58708,18.95241,-0.2025776,0.2573428,-1.212642,12.87016,-26.63256,15.58018,1008.342
8.932260513,33.81234,66.65525,-24.00957,-0.3243315,-0.1008973,-1.124699,12.87016,-26.63256,15.58018,1008.342
8.967325211,11.78551,68.08279,-25.72315,-0.256384,0.3303316,-0.9601209,11.77879,-28.11899,11.57954,1008.34
8.999887466,-0.08928427,71.53268,-44.75617,-0.2697333,0.4350523,-0.941592,11.0418,-27.75789,12.02538,1008.34
9.032450676,-43.34309,82.83407,-51.6105,-0.1835389,0.4262344,-0.7871292,11.0418,-27.75789,12.02538,1008.338
9.065013886,-21.07015,95.44402,-49.89692,-0.3230699,0.4458847,-0.5933441,10.63449,-25.58838,10.16289,1008.34
9.100081444,-88.13508,93.77856,-67.27754,-0.3079272,0.3187528,-0.3826125,9.884448,-25.24794,7.04015,1008.337
9.132644653,-96.44128,103.7119,-89.49293,-0.2624478,-0.09090858,-0.2641951,9.884448,-25.24794,7.04015,1008.337
9.165204048,56.33139,-0.3202831,-26.21275,-1.052313,1.222203,-0.1549414,8.757132,-24.55446,2.51405,1008.337
9.200271606,-245.0301,150.4639,-85.39256,0.004108251,0.9234502,-0.1513348,9.827239,-23.84731,-2.40153,1008.337
9.232834816,-447.8861,127.6827,35.84344,-0.2629232,2.580799,1.310321,9.827239,-23.84731,-2.40153,1008.334
9.265397549,77.1892,168.3677,-262.4424,-0.8697132,-2.317853,-3.687506,10.89869,-23.88365,-10.05204,1008.334
9.300465107,1701.022,45.8964,-91.57371,-1.806699,1.812187,-2.93043,15.22372,-18.40893,-23.10592,1008.334
9.333028317,-93.1188,-162.1084,-117.8282,-0.03012967,4.029006,0.8323787,15.22372,-18.40893,-23.10592,1008.334
9.365587235,-507.5062,70.99736,-162.6874,-1.259481,0.2956666,-1.658644,24.78486,-17.54238,-11.03438,1008.332
9.400655270,166.3425,-171.8038,-81.7206,-0.7143396,0.9695743,-0.1697561,34.95995,-32.90538,-16.75507,1008.334
9.433218479,-190.0246,-110.4195,-85.45377,-0.7590619,0.9455454,-0.2503201,34.95995,-32.90538,-16.75507,1008.337
9.465781689,-56.20232,-80.5006,-106.078,-0.8215841,0.02504604,-0.3256921,44.10849,-29.16622,-21.33598,1008.341
9.498344898,91.46357,-98.40436,-93.34849,-1.058522,0.5663866,-0.2393809,48.86845,-30.25683,-27.14254,1008.341
9.533412457,-20.5164,-103.9361,-98.06084,-0.9253842,0.6289389,-0.4657422,48.86845,-30.25683,-27.14254,1008.34
9.565970898,-4.150096,-105.5421,-78.96663,-0.8630355,0.4330339,-0.5978527,53.71412,-30.99732,-24.92217,1008.342
9.598534107,13.26217,-88.53052,-84.35218,-0.9729325,0.5211004,-0.5074617,56.6483,-31.34512,-25.82121,1008.345
9.633602142,-29.49941,-77.82395,-89.49293,-0.9330328,0.3098852,-0.3318732,55.89899,-30.19577,-25.38103,1008.341
9.666164875,-70.96892,-82.10658,-93.34849,-1.027521,-0.001018711,-0.4206328,55.89899,-30.19577,-25.38103,1008.341
9.698728085,-25.31554,-52.24714,-95.85767,-1.0314,-0.003002158,-0.4230762,55.1179,-27.66767,-27.69102,1008.345
9.733796120,8.216922,-53.19884,-80.86381,-1.233812,0.1764836,-0.2881807,53.20438,-22.59013,-28.1677,1008.346
9.766355038,-11.7795,-55.22119,-66.54315,-1.106117,0.3912074,-0.2221891,53.20438,-22.59013,-28.1677,1008.344
9.798918247,-57.98662,-30.47712,-62.50399,-1.069276,0.1825281,-0.2906642,51.31263,-18.90721,-28.63438,1008.343
9.833986282,-35.22146,-25.59968,-45.30696,-1.060456,0.112261,-0.2042535,48.99508,-15.65956,-30.43484,1008.343
9.866548538,-48.14223,-8.945019,-37.16744,-0.8935615,0.08428867,-0.2009743,48.99508,-15.65956,-30.43484,1008.345
9.899215698,-36.39048,6.460544,-31.90429,-0.8289988,0.0223547,-0.1836132,47.47075,-12.03463,-30.90226,1008.347
9.931778908,9.385943,16.45334,-22.41839,-0.7666674,0.2540326,-0.07911306,46.68668,-8.765625,-30.92339,1008.346
9.966842651,-13.31769,35.78465,-16.29845,-0.962736,0.06161606,-0.1166625,46.68668,-8.765625,-30.92339,1008.349
9.999405861,18.30743,25.43496,-8.220126,-1.105701,0.16106,0.04837399,45.94322,-7.669154,-29.14455,1008.349
10.031969070,-24.02346,14.96632,-8.158927,-1.115915,0.08682066,0.09897254,46.64602,-5.412612,-27.82482,1008.349
10.067036629,-15.28657,-8.528652,-4.303365,-0.9807604,-0.1062185,0.07897882,46.64602,-5.412612,-27.82482,1008.352
10.099599361,20.2763,-21.31705,-0.2030053,-0.9068847,-0.1097542,6.315578E-05,46.63815,-4.679455,-26.87417,1008.356
10.132162571,33.62776,-36.4847,2.000173,-0.8952104,0.1250957,0.116745,46.98758,-3.585376,-26.88319,1008.355
10.167226315,-373.807,-211.775,46.06374,-0.8445197,0.04629555,-0.04305371,46.98758,-3.585376,-26.88319,1008.355
10.199789524,-299.2358,8.304454,19.8704,-1.089523,-0.01252704,-0.7373604,46.97187,-3.237432,-29.62596,1008.359
10.232352257,-36.69812,-4.364987,4.509348,-1.251946,-0.4567517,-0.5617478,46.17965,0.01865578,-31.87744,1008.36
10.267420292,55.65459,12.11123,-1.855389,-1.61105,-0.3664841,-0.6001443,46.17965,0.01865578,-31.87744,1008.358
10.299983502,69.37521,-79.60838,1.26578,-0.804951,0.2075899,-0.02274619,46.48594,4.089021,-31.01565,1008.361
10.332545757,-14.11755,-28.27633,-8.709722,-1.016672,-0.09751002,-0.2268312,46.49904,2.929205,-32.34559,1008.361
10.365105152,-42.29712,-35.05715,-16.11485,-1.095888,-0.03753148,-0.07115909,46.49904,2.929205,-32.34559,1008.365
10.400172711,-46.23488,-50.76012,-10.9129,-1.027215,-0.1976733,-0.03499841,44.68047,1.819374,-33.22396,1008.367
10.432735920,9.939691,-63.96489,-5.894549,-0.9813674,-0.1568407,-0.01218437,43.54449,3.617572,-35.46381,1008.364
10.465299130,4.525275,-58.84953,-7.730532,-0.965691,-0.03563958,0.2047523,43.54449,3.617572,-35.46381,1008.367
10.500366688,1.695012,-43.74137,-8.709722,-0.9673746,-0.05659864,0.2131349,41.68334,5.112097,-36.87068,1008.367
10.532929897,-2.058163,-33.0348,-8.893319,-0.9646461,-0.1321949,0.1723421,39.48772,4.355681,-39.08869,1008.369
10.565488339,0.5875177,-26.55138,-4.85416,-0.9552791,-0.1826437,0.1778473,39.48772,4.355681,-39.08869,1008.368
10.600556851,4.279165,-14.83363,0.1641911,-0.9684215,-0.09209345,0.2135612,38.0129,4.703739,-39.97869,1008.37
10.633119583,-3.165657,-9.182942,2.428569,-0.9450268,-0.1388579,0.1973571,37.20994,5.056649,-40.87087,1008.372
10.665682793,-8.026327,0.7503738,1.694176,-0.9626788,-0.08517496,0.2049604,37.20994,5.056649,-40.87087,1008.372
10.700750351,-12.57936,6.995872,2.795765,-0.9458477,-0.1044855,0.224468,36.84915,4.690191,-40.86707,1008.37
10.733313561,-33.80633,11.5759,1.571777,-1.011375,-0.143776,0.1272565,36.84673,5.059167,-39.97754,1008.373
10.765872955,-29.00719,12.64656,3.224161,-0.9586859,-0.1337588,0.2124327,36.84673,5.059167,-39.97754,1008.377
10.798435211,-24.82332,20.55753,3.101762,-0.9579155,-0.07635631,0.2031568,37.20915,5.428209,-39.53526,1008.378
10.833502769,-32.51426,24.0669,2.734566,-0.9762611,-0.1453196,0.1397668,37.19211,6.51964,-39.5431,1008.378
10.866065979,-14.60977,27.04095,4.815345,-0.9686792,-0.1671342,0.1490942,37.19211,6.51964,-39.5431,1008.374
10.898629189,-0.7660863,23.82898,4.876544,-0.9284114,-0.08273896,0.08895405,38.3445,7.260809,-38.65994,1008.378
10.966256142,-33.37564,17.76192,-5.588552,-1.091087,-0.04632376,0.05824713,39.07502,7.63508,-37.77279,1008.381
10.998819351,-15.16351,17.28607,-10.9129,-1.020267,-0.1013834,0.07812397,39.80554,8.00935,-36.88563,1008.381
11.033887386,-7.411051,12.2302,-17.70603,-0.991294,-0.07820429,0.08715042,40.52144,9.106075,-36.89584,1008.379
11.066449642,-9.318403,11.04058,-14.03407,-0.9943621,-0.2024191,0.03353699,40.52144,9.106075,-36.89584,1008.38
11.099012852,-9.072294,4.259749,-14.15647,-0.9874364,-0.1873641,-0.05034758,41.24814,9.847109,-35.5015,1008.382
11.134080410,-1.627471,2.356359,-12.81008,-0.9584865,-0.1346541,0.09012455,41.60488,10.57996,-35.06184,1008.38
11.166639805,-0.1508117,5.925215,-7.118537,-0.9654263,-0.2684753,0.0005984148,41.60488,10.57996,-35.06184,1008.38
11.199203014,17.63062,8.363935,-2.650981,-0.9541135,-0.1797072,0.07058129,41.2311,10.93854,-35.50933,1008.38
11.231765270,3.971528,14.90684,2.918164,-0.9227082,-0.2020946,0.06054188,41.9543,11.67404,-35.07086,1008.381
11.266833305,17.5691,5.151963,4.448148,-1.015995,-0.1600466,-0.04748636,41.5862,11.66881,-35.51575,1008.379
11.299396515,7.355538,-7.874362,1.020983,-1.004794,-0.1570488,-0.03343351,41.5862,11.66881,-35.51575,1008.381
11.331959248,0.03377064,-17.92664,-0.5702018,-0.9972177,-0.1802794,-0.03331186,41.61219,10.21873,-34.61316,1008.381
11.367023468,-15.5942,-28.33581,-6.384145,-0.9941163,-0.1967402,-0.03839976,41.96809,10.57744,-35.95517,1008.382
11.399586201,-0.9506686,-39.69667,-8.526123,-1.022368,-0.132465,0.06701751,41.96809,10.57744,-35.95517,1008.381
11.432148934,-2.550383,-45.40683,-7.730532,-1.062979,-0.1924527,0.1028782,41.22597,10.93042,-36.91127,1008.383
11.467216492,11.78551,-51.29545,-5.527353,-1.055707,-0.1842135,0.1286158,39.76088,10.54828,-38.24213,1008.385
11.499779701,15.29258,-55.75652,0.8373844,-1.039379,-0.2733607,0.007845912,39.76088,10.54828,-38.24213,1008.387
11.532342911,14.4312,-59.44434,2.979363,-1.033923,-0.2178818,0.1135798,37.55716,10.52465,-39.5732,1008.387
11.567406654,17.19993,-69.02077,3.040563,-1.131511,-0.1057022,0.1738741,34.93563,9.767725,-41.34375,1008.383
11.599969864,-20.88556,-83.47464,4.998943,-1.203857,-0.1484082,0.06018218,34.93563,9.767725,-41.34375,1008.384
11.632532597,10.98566,-114.0478,2.795765,-1.280284,0.1236966,0.1751006,33.10648,9.013954,-43.56295,1008.386
11.665095329,-40.14366,-132.4869,4.815345,-1.581935,-0.1278007,-0.1034866,29.4407,8.612976,-45.39646,1008.386
11.700163365,-4.580789,-156.1603,-26.15155,-1.532495,-0.4797287,-0.4820704,29.4407,8.612976,-45.39646,1008.386
11.732726574,87.2797,-189.7671,-37.53464,-1.369627,0.1494826,-0.1913028,23.86709,8.921144,-48.05748,1008.384
11.765285492,27.16738,-175.6701,-20.9496,-1.297952,-0.04109601,0.1319998,16.90494,8.499298,-49.37049,1008.384
11.800353527,-211.4976,-79.01357,-35.08666,-1.015456,-0.610991,-0.3816128,16.90494,8.499298,-49.37049,1008.385
11.832915783,13.63134,-28.93061,-13.36088,-0.551622,-0.2159794,-0.4147042,8.100541,5.535181,-47.53659,1008.385
11.865478992,10.06275,27.75472,6.773726,-0.386407,-0.0497443,-0.3726906,5.476857,9.897881,-44.88317,1008.385
11.900547028,-36.08285,120.1881,34.43585,-0.2538177,-0.09530394,-0.3411274,5.476857,9.897881,-44.88317,1008.381
11.933110237,-26.36151,203.4614,54.08086,-0.3709413,0.02195785,-0.2788033,6.578976,10.28292,-42.59526,1008.381
11.965669155,-13.93296,272.3998,73.35867,-0.7429984,-0.1566875,-0.3222567,11.34478,11.06561,-39.04736,1008.381
12.000737190,-3.473294,311.7762,70.78829,-1.123569,0.1657855,0.1330543,11.34478,11.06561,-39.04736,1008.377
12.033299446,-94.16476,321.9474,62.89357,-1.406961,0.292334,0.5596634,19.48801,11.15564,-33.65712,1008.377
12.065862656,-173.166,310.9435,71.82868,-1.720773,-0.3326204,0.5016107,27.65645,10.16716,-26.02869,1008.375
12.098425865,-127.5742,247.6557,74.76626,-2.125673,-0.7186919,0.9790048,27.65645,10.16716,-26.02869,1008.373
12.133493423,-80.99789,146.2408,50.2865,-1.816346,-1.061517,1.368878,35.35352,12.08866,-17.97369,1008.374
12.166052818,72.32853,45.71796,17.11642,-1.611637,-0.8825517,1.290687,42.41421,11.82465,-9.5185,1008.374
12.198615074,104.9381,-18.40249,-21.0108,-1.475925,-0.6820968,0.7807515,42.41421,11.82465,-9.5185,1008.374
12.233683109,-21.62389,-183.1052,-20.766,-0.686479,0.1275946,-0.1531426,44.99498,11.49487,-6.847779,1008.376
12.266246319,-139.2644,4.081306,-46.53095,-1.341896,-0.5757607,-1.468842,44.99329,10.74658,-10.41113,1008.375
12.298809052,31.04361,-67.29582,-46.89815,-0.3373775,0.04011379,-0.008834381,44.99329,10.74658,-10.41113,1008.379
12.333877087,-3.227185,-78.53772,-38.81982,-1.223329,-0.2156781,-0.05780252,44.2181,12.91124,-12.65478,1008.381
12.366436005,-35.65215,-66.99842,-28.29353,-0.5525686,-0.3850824,-0.211848,42.72865,13.98175,-14.44215,1008.381
12.398998737,46.11784,-45.94217,-30.49671,-0.9578689,0.0721476,-0.06768549,42.72865,13.98175,-14.44215,1008.382
12.434066296,-16.08642,-20.72225,-27.62034,-0.9544778,-0.1847492,-0.1030276,41.22526,15.83794,-16.68124,1008.38
12.466629505,6.924846,-20.42484,-17.70603,-0.961972,-0.2581063,-0.1312086,40.10392,16.91368,-18.02373,1008.38
12.499192715,11.41635,-15.5474,-8.83212,-0.9440771,-0.2462337,-0.1257276,40.10392,16.91368,-18.02373,1008.38
12.531755924,19.78408,-10.49152,-6.812541,-0.98441,-0.1091523,-0.03368921,39.72687,17.2671,-19.36336,1008.38
12.566819668,7.970812,-4.305506,-7.91413,-0.9784172,-0.1692209,-0.05974702,38.98662,17.62303,-19.80967,1008.38
12.599382401,17.32299,-9.539828,-6.628942,-0.99462,-0.2100334,-0.1086917,38.98662,17.62303,-19.80967,1008.38
12.631945133,17.5691,-21.43602,-9.811311,-1.016934,-0.2161893,-0.1015134,39.35365,17.25375,-21.21019,1008.382
12.667013168,27.16738,-30.17971,-9.321715,-1.025223,-0.2238872,-0.1422265,38.61097,17.97866,-20.76696,1008.384
12.699576378,43.53368,-38.15016,-12.01449,-1.046552,-0.1825435,-0.1038718,38.61097,17.97866,-20.76696,1008.384
12.732138634,50.9785,-48.49984,-17.46124,-1.098813,-0.1686654,-0.09925924,37.50666,17.96297,-22.10161,1008.384
12.767202377,31.41277,-55.69704,-21.86759,-1.145404,-0.2056518,-0.008903705,36.35506,16.85024,-24.32037,1008.381
12.799765587,41.5648,-68.96129,-18.31803,-1.061723,-0.1474072,0.03395791,36.35506,16.85024,-24.32037,1008.381
12.832328796,12.70843,-76.09901,-20.7048,-1.116246,-0.2403022,-0.000759703,35.97881,16.8321,-26.99562,1008.381
12.867396831,36.3965,-94.53809,-24.37677,-1.172473,-0.356975,-0.04840623,33.76591,17.16674,-29.28518,1008.381
12.899959087,33.68929,-119.877,-23.39758,-1.447602,-0.1026276,-0.01767454,32.66808,16.41569,-31.95282,1008.381
12.932522297,105.4918,-154.9707,-27.06954,-1.650484,-0.1004168,-0.1228211,32.66808,16.41569,-31.95282,1008.383
12.965081215,89.12553,-187.6258,-49.46852,-1.808885,-0.04911563,-0.526472,28.63116,16.00468,-35.05964,1008.383
13.000149250,179.2017,-194.9419,-50.44771,-1.143445,0.3860787,-0.3759451,23.82609,13.70271,-39.10625,1008.378
13.032712460,-261.4579,-126.9552,-88.69733,-1.292206,-0.6335721,0.2592675,23.82609,13.70271,-39.10625,1008.378
13.065274715,250.9427,-53.6152,-31.5983,-0.5245726,-0.6769629,-0.7098557,18.00227,10.36799,-42.18624,1008.38
13.100342751,45.37951,14.49047,-15.87005,-0.301045,0.5885933,-0.06672427,14.2514,15.85932,-42.21395,1008.378
13.132905960,-12.14867,103.7119,-1.488193,-0.2489217,-0.04397826,-0.2852441,14.2514,15.85932,-42.21395,1008.378
13.165464878,-3.35024,178.3605,19.99279,-0.2845802,-0.02711608,-0.2482158,13.20143,8.880478,-41.71407,1008.374
13.200532913,-6.303557,240.518,37.49582,-0.5226042,0.2413283,-0.1124121,17.31405,8.569471,-37.71008,1008.374
13.233095169,-22.91597,279.1807,59.4052,-0.8156979,0.4013404,0.08994664,17.31405,8.569471,-37.71008,1008.372
13.265658379,-68.01559,298.8688,80.519,-1.185624,0.4765601,0.3350732,23.21443,7.551753,-32.30468,1008.372
13.300725937,-121.8521,296.906,114.7295,-1.621816,0.1044734,0.4289098,30.65561,6.194166,-24.67126,1008.371
13.333289147,-174.3966,281.7383,120.8494,-2.163185,-0.5910684,0.3849845,30.65561,6.194166,-24.67126,1008.367
13.365848541,-112.9922,217.0826,80.0906,-2.080876,-1.389368,0.5699437,36.19772,5.932417,-13.91704,1008.367
13.398502827,155.5137,94.37337,54.44806,-1.843283,-0.531101,1.0425,39.62306,3.762256,-5.436463,1008.368
13.433570862,36.51955,0.3934881,17.05522,-1.397243,-0.3922225,1.277659,39.62306,3.762256,-5.436463,1008.37
13.466134071,123.827,-79.72734,-22.54079,-1.408694,-0.9729736,0.5998164,40.04826,0.8754497,-1.784462,1008.368
13.498696327,499.8828,39.59143,-38.39143,-1.465756,0.4110644,-4.414833,39.32505,0.1399522,-2.222936,1008.369
13.533764362,-47.28084,-37.61483,-47.81614,-0.9008693,-0.1807475,0.1309361,39.32505,0.1399522,-2.222936,1008.371
13.566323280,116.0746,-145.6917,-20.52121,-1.039863,-0.1332879,-0.1214951,39.3134,0.1215024,-5.409163,1008.371
13.598886490,-119.6371,-41.89746,-49.71332,-0.9047714,-0.2027201,-0.1763396,38.18148,1.553307,-8.092473,1008.373
13.633954048,34.79678,-60.03915,-35.08666,-0.9505123,-0.04135786,0.01081628,38.18148,1.553307,-8.092473,1008.371
13.666517258,0.218353,-43.91981,-32.27149,-1.009628,-0.1752494,-0.1057297,37.72305,2.992548,-10.33189,1008.372
13.699079991,-4.519261,-42.73019,-30.06831,-0.9677637,-0.08061983,-0.06130584,36.59912,4.126342,-12.12088,1008.372
13.734147549,-28.69955,-35.77092,-26.51875,-0.9046399,-0.261405,-0.2028541,36.59912,4.126342,-12.12088,1008.374
13.766706943,-18.11683,-41.54057,-13.97287,-0.9338161,-0.2532989,-0.1456637,36.21477,4.840985,-13.9092,1008.37
13.799270153,-5.626755,-31.01245,-9.811311,-0.9741596,-0.2245266,-0.1756386,35.8353,5.563377,-14.35931,1008.373
13.831832409,-11.41034,-24.23162,-11.3413,-0.9616383,-0.1965216,-0.09981663,35.8353,5.563377,-14.35931,1008.373
13.866900444,5.14055,-21.91187,-11.3413,-0.9778098,-0.1846537,-0.0841519,35.44448,7.01339,-14.81463,1008.371
13.899463177,20.707,-23.27993,-7.424534,-1.015042,-0.2550057,-0.1103249,35.06907,7.369388,-15.7082,1008.371
13.932026386,39.41134,-25.83761,-8.648522,-1.015012,-0.2146886,-0.1053594,35.06907,7.369388,-15.7082,1008.372
13.967090130,55.71612,-36.24677,-13.72807,-1.022075,-0.09981754,-0.05671253,34.69201,7.722803,-17.04784,1008.374
13.999652863,28.76709,-48.38088,-19.66441,-1.006606,-0.1269371,-0.03393912,34.34096,6.62614,-17.48489,1008.376
14.032216072,16.52313,-63.72697,-22.23479,-1.117232,-0.203252,-0.02822936,34.34096,6.62614,-17.48489,1008.374
14.067283630,11.35482,-72.35171,-19.66441,-1.081282,-0.2710045,0.01082257,33.22934,6.971679,-19.26822,1008.374
14.099846840,32.76638,-81.86865,-16.35965,-1.202712,-0.206678,0.05204143,32.11991,6.947873,-22.00481,1008.374
14.132409573,0.4029354,-91.62353,-16.17605,-1.331944,-0.4916161,-0.1808182,32.11991,6.947873,-22.00481,1008.371
14.164968491,99.70825,-129.8698,-15.62525,-1.49444,-0.002828075,0.02498027,31.0164,6.560623,-24.67507,1008.373
14.200036526,64.51455,-160.3835,-26.82474,-1.771677,-0.09127171,-0.4483607,28.43158,7.256803,-26.90233,1008.375
14.232599258,82.04987,-180.607,-56.07806,-1.449059,0.2411342,-0.3725443,28.43158,7.256803,-26.90233,1008.375
14.265161991,138.1014,-165.9152,-51.6105,-0.9931154,0.1171032,-0.3270223,24.71361,5.751034,-30.95817,1008.378
14.300229549,-86.53536,-141.0522,-41.94099,-1.48707,-0.1144536,0.1175286,19.57239,5.32434,-35.39964,1008.374
14.332792759,46.42547,22.40144,-31.4147,-0.08007208,-1.171816,-1.33559,19.57239,5.32434,-35.39964,1008.374
14.365352154,225.778,19.0705,23.05276,-0.5177662,0.6251891,-0.290727,14.47926,2.674809,-36.25642,1008.374
14.400419712,43.04146,133.4523,31.62068,-0.2240683,0.2878436,-0.2927735,12.91703,4.90691,-36.3313,1008.374
14.432982445,22.61435,202.8666,50.1641,-0.3579022,0.2527217,-0.221157,12.91703,4.90691,-36.3313,1008.374
14.465545654,-14.67129,271.805,63.56676,-0.6790773,0.0942191,-0.273053,13.74531,-0.9638677,-35.33559,1008.376
14.500613213,-10.4259,318.4381,65.76994,-1.238405,0.01633084,-0.139806,18.59329,-1.638559,-32.22352,1008.372
14.533175945,-79.21359,330.5722,57.20203,-1.532981,0.2614416,0.2605868,25.23392,-3.012212,-26.37181,1008.37
14.565734863,-178.3959,317.4864,65.28035,-1.93389,-0.1319988,0.3419791,25.23392,-3.012212,-26.37181,1008.37
14.598298073,-182.2721,254.734,59.7724,-2.22787,-0.5928966,0.8123242,31.93647,-4.011282,-18.73863,1008.37
14.633365631,-101.7326,163.0144,40.18859,-1.792479,-1.297963,0.6406661,34.88376,-3.592718,-12.95181,1008.372
14.665928364,65.68357,36.61738,10.01729,-1.485468,-0.3827478,1.29239,34.88376,-3.592718,-12.95181,1008.367
14.698491573,-22.05459,-19.65159,-17.58364,-1.320194,-0.5825096,0.8096731,37.46373,-3.550944,-8.945486,1008.369
14.733559132,45.87173,-89.30377,-39.79902,-1.131993,-0.5194214,0.1984988,38.97039,-2.45365,-9.850416,1008.369
14.766118526,-17.74766,-243.2999,-0.2642047,-1.764181,2.032239,1.779043,38.97039,-2.45365,-9.850416,1008.371
14.798680782,-98.84085,-13.64401,-70.88831,-1.93528,-0.9313266,1.150076,38.23419,-2.464109,-10.74018,1008.371
14.833748817,-40.75893,-94.47861,-45.18456,-0.7812899,0.6680155,1.493841,37.04608,-1.024996,-12.08508,1008.368
14.866312027,-97.73336,-43.44397,-48.79533,-0.9243928,-0.2079989,-0.4591767,37.04608,-1.024996,-12.08508,1008.37
14.898874760,-26.7922,-55.816,-33.55668,-0.7429615,-0.2702596,-0.2500327,36.65036,0.4172673,-13.87862,1008.37
14.933942795,11.9701,-40.64836,-23.27518,-0.9776249,-0.1161945,-0.2808087,35.13819,2.943024,-15.67643,1008.372
14.966501236,21.3838,-31.66674,-29.39512,-0.9944358,0.1045171,-0.129512,35.13819,2.943024,-15.67643,1008.372
14.999064445,-13.80991,-18.52145,-41.2066,-0.9688905,0.04456625,-0.1256175,35.84661,4.090052,-17.47137,1008.369
15.031627655,-23.83888,-18.58093,-39.24822,-0.9206975,-0.1823195,-0.2190335,34.36937,4.807086,-17.47183,1008.373
15.066694736,-4.888426,-30.59608,-25.35596,-1.001299,-0.2569854,-0.2756832,34.36937,4.807086,-17.47183,1008.373
15.099257946,2.617924,-49.15413,-11.46369,-0.9180089,-0.1827515,-0.1170502,33.98096,5.888124,-18.81669,1008.373
15.131821156,-4.150096,-38.98289,-6.384145,-0.9618236,-0.1011718,-0.1201137,33.58445,7.701947,-19.27463,1008.375
15.166884899,-13.99449,-27.85996,-9.627712,-0.9760756,-0.08542205,-0.09762433,33.58445,7.701947,-19.27463,1008.376
15.199447155,-5.442173,-21.25757,-10.9741,-0.98396,-0.1689501,-0.134661,32.48341,7.691424,-19.71714,1008.376
15.232010365,1.26432,-21.01965,-12.74888,-0.9671054,-0.1436518,-0.09223747,32.83744,8.04718,-21.56895,1008.376
15.267078400,-9.441459,-18.40249,-10.36211,-0.9769345,-0.1720953,-0.06462608,32.83744,8.04718,-21.56895,1008.374
15.299641132,0.8951551,-17.68872,-7.302136,-1.008894,-0.1429335,-0.04964902,32.0915,8.766926,-22.01787,1008.374
15.332203865,-0.5199764,-16.7965,-5.894549,-0.9861128,-0.1766309,-0.05550225,31.72503,8.764278,-22.01668,1008.376
15.367267609,10.00122,-16.97495,-1.304595,-0.9790964,-0.2410578,-0.08211092,31.72503,8.764278,-22.01668,1008.376
15.399830818,23.10657,-18.34301,1.388179,-0.9864875,-0.1915861,-0.08086565,30.98315,9.11763,-22.90906,1008.376
15.432393074,27.53654,-20.78173,3.652557,-0.9867672,-0.2052881,-0.06125597,30.9872,8.751238,-23.35252,1008.373
15.464956284,46.61005,-25.42124,4.386949,-0.9944739,-0.1133861,0.01314346,30.9872,8.751238,-23.35252,1008.373
15.500024319,9.570526,-29.16854,5.488538,-1.017104,-0.1935252,-0.06298074,30.62478,8.382195,-23.79479,1008.373
15.532587528,20.46089,-35.59248,7.079722,-1.054405,-0.3031718,-0.1052212,29.89831,7.641531,-25.1254,1008.369
15.565145970,60.57679,-40.41043,1.388179,-0.9995937,-0.02696214,0.1237101,29.89831,7.641531,-25.1254,1008.369
15.600213528,60.51526,-33.51065,-5.83335,-0.9637464,-0.1467904,0.07205953,29.16615,7.264679,-26.45863,1008.37
15.632776737,24.15253,-32.20207,-1.059797,-0.9482204,-0.08423484,0.1469556,28.80941,6.531827,-26.89829,1008.372
15.665338993,21.62991,-24.82643,0.776185,-0.9620501,-0.1942318,0.1419071,28.80941,6.531827,-26.89829,1008.374
15.700407028,34.05846,-17.98612,1.632977,-0.9738426,-0.1428802,0.1446354,27.72947,5.063478,-27.77643,1008.37
15.732970238,24.33712,-21.31705,2.244971,-1.003622,-0.04716573,0.1727102,27.7357,4.327738,-29.17314,1008.37
15.765529156,20.09172,-21.13861,-0.01940714,-1.007537,-0.1797108,0.1315383,27.7357,4.327738,-29.17314,1008.372
15.800597191,33.87387,-18.40249,-3.324174,-0.9477017,-0.1664566,0.1669692,27.3929,2.809214,-29.16108,1008.369
15.833159447,47.77908,-16.43962,-1.426993,-0.8710431,-0.08890183,0.2183496,26.66806,2.071132,-30.04562,1008.371
15.865722656,35.10442,-21.01965,0.776185,-0.9498001,0.03855999,0.2851427,26.66806,2.071132,-30.04562,1008.373
15.898285389,11.84704,-22.44719,1.082182,-1.016802,-0.08907676,0.1599991,26.29996,2.065903,-30.4905,1008.373
15.933352947,19.84561,-28.39529,-1.488193,-1.008465,-0.1303983,0.1859463,25.88783,0.9688001,-30.92735,1008.372
15.965912342,27.35196,-31.19089,-4.670562,-1.075628,-0.2215961,0.1691517,25.88783,0.9688001,-30.92735,1008.374
15.998475075,65.86815,-35.47352,-10.4233,-1.075487,-0.1962258,0.1482701,24.79977,0.2332377,-30.91857,1008.373
16.033542633,67.40633,-30.65556,-24.13197,-1.052879,-0.3369279,0.1596362,24.80056,-0.1383214,-32.25417,1008.375
16.066105366,114.7209,-31.66674,-32.27149,-1.025172,-0.3739961,0.1609775,24.80056,-0.1383214,-32.25417,1008.377
16.098668575,108.6913,-33.62961,-42.30819,-0.8391915,-0.232799,0.2108064,22.98362,-1.24557,-32.68647,1008.377
16.133736610,111.5831,-10.72945,-42.12459,-0.8479607,-0.2034177,0.3499923,22.64798,-3.436247,-33.56175,1008.374
16.166295052,128.4416,-2.461597,-42.61419,-0.7432685,-0.04199152,0.3146506,23.05017,-5.613882,-33.1012,1008.376
16.198858261,113.798,24.12638,-39.98261,-0.7522898,-0.08956378,0.3825731,23.05017,-5.613882,-33.1012,1008.376
16.233925819,127.7033,42.03014,-38.02423,-0.7290204,-0.1213551,0.386416,23.09819,-8.58242,-32.63381,1008.375
16.266488552,133.3638,55.8892,-39.30942,-0.6650723,-0.1032706,0.3339421,23.87743,-11.11347,-30.83362,1008.375
16.299051762,153.4832,74.26881,-35.69866,-0.7851119,-0.0559167,0.2646908,23.87743,-11.11347,-30.83362,1008.377
16.331614494,158.4054,90.44762,-32.27149,-0.802516,-0.08871681,0.1607645,25.75552,-13.26465,-27.63767,1008.374
16.366677761,188.3693,101.4516,-23.15278,-0.9710325,0.07919516,0.1601052,28.4396,-15.76394,-22.72112,1008.376
16.399240971,155.2675,97.88274,-15.38046,-1.099842,0.1583094,0.2411937,28.4396,-15.76394,-22.72112,1008.374
16.431804180,142.7159,97.4069,0.2253904,-1.10465,0.07590946,0.07269286,30.70936,-18.991,-17.28816,1008.374
16.466871739,194.0298,83.30991,7.997714,-1.229147,-0.3150926,-0.1221526,31.86743,-21.56195,-12.36623,1008.377
16.499434471,266.9399,50.35748,10.07849,-1.206245,0.275642,0.1062908,31.86743,-21.56195,-12.36623,1008.379
16.531997681,309.8245,32.03735,13.19966,-1.112225,0.5774122,-0.04049293,32.28841,-23.33703,-5.217207,1008.383
16.567061424,198.1522,45.24212,28.43831,-0.9382999,0.6792902,0.07062002,32.7023,-24.75051,1.546852,1008.38
16.599623680,192.6762,40.00779,42.88137,-0.9605384,0.5907714,-0.08490621,32.7023,-24.75051,1.546852,1008.38
16.632186890,154.5907,43.27924,47.04293,-0.9664837,0.3277251,-0.1836555,31.63731,-25.44954,7.864372,1008.382
16.667254925,124.873,52.7962,49.3685,-1.018525,0.1659228,-0.1285519,30.54448,-24.70145,12.76951,1008.384
16.699817181,123.0272,48.57305,56.95723,-0.9959023,-0.1135201,-0.173924,30.54448,-24.70145,12.76951,1008.379
16.732380390,189.7845,48.0972,57.56923,-1.007277,-0.1104935,-0.230422,29.07242,-23.2306,17.28826,1008.381
16.764939785,206.5815,40.54312,50.83729,-1.004547,-0.07633609,-0.1462793,27.60198,-21.75716,22.25309,1008.381
16.800006866,149.484,31.5615,40.005,-1.017699,-0.326813,-0.1447708,27.60198,-21.75716,22.25309,1008.378
16.832570076,101.6156,-0.3202831,10.56809,-0.99505,-0.2172222,0.08019936,26.40572,-18.40478,26.69364,1008.38
16.865132809,61.37664,-27.26515,-17.03284,-1.135578,-0.4132485,0.03384044,24.9066,-15.85836,28.4644,1008.382
16.900199890,29.19779,-54.15053,-35.57626,-0.9716869,-0.1514309,-0.2107791,24.9066,-15.85836,28.4644,1008.385
16.932763100,127.9494,-74.37405,2.367369,-1.192585,1.303696,-1.368772,25.61113,-14.03401,28.44897,1008.385
16.965322494,-132.6194,-49.51102,-21.072,-1.593853,-0.5624704,0.3244492,27.46885,-11.84005,27.98109,1008.381
17.000390053,77.31226,-57.3625,-46.46975,-0.8328561,0.9005308,0.02990629,27.46885,-11.84005,27.98109,1008.385
17.032952785,-94.34935,-25.12383,-52.10009,-0.8747074,-0.2400886,-0.2088416,28.21473,-13.3055,25.31273,1008.386
17.065515995,8.093866,-36.36573,-55.16006,-0.8562052,-0.2479298,-0.2481326,30.01541,-11.47838,24.40158,1008.384
17.100583077,71.22104,-49.80843,-35.33146,-1.002482,0.1970945,0.008703837,30.01541,-11.47838,24.40158,1008.384
17.133146286,-45.12738,-2.461597,-44.20537,-0.9957906,-0.3445941,-0.2325545,31.47235,-11.10915,23.50207,1008.386
17.165705204,26.92127,-10.551,-42.49179,-1.018895,0.0189599,0.01711966,33.63927,-9.279748,22.52601,1008.383
17.198267937,37.38094,-10.72945,-40.83941,-0.9801691,-0.2137802,0.007730991,33.63927,-9.279748,22.52601,1008.385
17.233335495,40.51884,-15.13104,-29.15032,-0.9280881,-0.3190111,-0.1075183,33.61818,-7.821922,22.96164,1008.387
17.265898705,57.86958,-10.90789,-21.74519,-0.9811671,-0.1173107,0.05899154,33.9553,-5.939587,22.94696,1008.387
17.298460960,10.92413,-0.7961307,-18.25683,-0.9334726,-0.263914,-0.05543455,33.9553,-5.939587,22.94696,1008.389
17.333528996,33.19707,-1.569383,-16.60444,-0.9994118,-0.2563173,-0.09779218,35.03035,-4.478987,22.48688,1008.386
17.366087914,45.50256,-7.279553,-17.64483,-0.9811342,-0.1877059,-0.06389343,35.02467,-4.115176,22.48426,1008.388
17.398650646,21.81449,-8.231248,-12.25929,-0.9985011,-0.2462016,-0.07540338,35.02467,-4.115176,22.48426,1008.388
17.433718205,39.5344,-12.57336,-12.50408,-1.020784,-0.1559764,0.005268429,35.36274,-2.293476,22.47002,1008.388
17.466281414,30.42834,-9.599309,-15.13566,-0.9910924,-0.2481995,-0.04257139,34.98164,-1.573667,21.57384,1008.385
17.498844147,44.21048,-16.02325,-18.80762,-1.025167,-0.2467619,-0.02898202,34.98164,-1.573667,21.57384,1008.387
17.533911705,25.56767,-16.97495,-22.66319,-0.9733769,-0.3490285,-0.04944392,35.33838,-0.8408155,22.0135,1008.385
17.566471100,57.62347,-18.34301,-28.78312,-1.013419,-0.3973243,-0.1240987,35.68454,0.2480979,21.11234,1008.386
17.599033356,6.248044,-26.13501,-35.82106,-0.9782274,-0.2317616,0.1191148,35.68454,0.2480979,21.11234,1008.386
17.631596565,58.48486,-32.55895,-23.39758,-1.127478,-0.3268407,-0.02672135,35.64883,2.428379,20.6506,1008.386
17.666664601,80.14252,-53.55573,-26.94714,-1.204994,-0.04312414,0.09659266,35.995,3.517292,19.74944,1008.382
17.699226856,42.24161,-78.53772,-37.10624,-1.327662,-0.1987328,-0.02215678,35.995,3.517292,19.74944,1008.384
17.731790066,12.03162,-113.691,-45.00097,-1.551935,-0.2448447,-0.1430046,36.328,5.020319,17.06094,1008.382
17.766853809,103.2768,-151.1045,-65.74756,-1.827348,-0.1310698,-0.3005174,37.02983,6.467571,14.75403,1008.382
17.799416065,151.7605,-178.9415,-86.49416,-1.802621,0.1566958,-0.7703436,38.86797,8.630531,8.933287,1008.382
17.831979275,277.9533,-168.0565,-66.72675,-0.8915053,0.4543719,-0.9871014,38.86797,8.630531,8.933287,1008.382
17.867047310,-163.6908,-100.7836,-76.21265,-1.306376,-0.2307938,0.5656031,39.53319,11.13822,1.265683,1008.379
17.899609566,221.9633,40.66208,-37.59584,-0.4127307,-1.168405,-1.329416,38.74961,13.28959,-3.27205,1008.379
17.932172775,323.2375,75.57739,-9.505314,-0.3485425,0.8682063,-0.2354615,38.74961,13.28959,-3.27205,1008.379
17.967236519,85.98763,164.8583,4.692946,-0.2554646,0.5700415,-0.2371999,37.53457,16.23942,-5.51997,1008.378
17.999799252,-5.196063,225.2909,23.72596,-0.4680441,0.6238916,-0.07810898,36.83346,14.73116,-3.276353,1008.373
18.032362461,-57.98662,287.7459,53.46886,-0.788963,0.250642,-0.2512254,36.83346,14.73116,-3.276353,1008.372
18.064924717,-95.51837,317.189,68.15672,-1.313003,0.1200581,-0.0786962,36.15362,12.94593,3.493884,1008.372
18.099992752,-183.2565,325.0999,77.88742,-1.694875,0.225087,0.2031499,34.01364,11.532,13.38877,1008.367
18.132555485,-254.3207,286.3778,95.32925,-2.099511,-0.6256953,0.1678419,34.01364,11.532,13.38877,1008.367
18.165114403,-167.6286,224.8746,70.1763,-1.98043,-1.241509,0.7258163,30.79044,8.644554,21.51337,1008.367
18.200181961,30.48986,117.1546,32.66107,-1.794595,-0.8724518,1.005342,26.45394,2.406048,28.32747,1008.369
18.232744694,-56.63302,8.780301,-3.691371,-1.53406,-0.3360093,1.560941,26.45394,2.406048,28.32747,1008.366
18.265307427,-25.99234,-78.06187,-48.67293,-1.545804,-1.0701,0.8295211,23.20689,-0.1463656,31.47895,1008.37
18.300375462,403.9615,-65.09503,-62.74879,-2.430759,1.148528,-3.379825,23.22636,-1.606775,30.59725,1008.37
18.332937718,-94.10324,-64.20281,-60.72921,-0.8138225,-0.6805034,0.08890789,23.22636,-1.606775,30.59725,1008.366
18.365497112,148.2534,-191.6705,-42.79779,-1.107861,0.40477,0.5258036,26.07206,3.497418,28.7669,1008.369
18.400564671,-151.8775,-50.40323,-55.34366,-1.148715,-0.1674598,-0.1862005,28.01414,-0.1399293,26.5565,1008.369
18.433127403,-49.80347,-68.78284,-46.16375,-0.9786264,-0.2063565,-0.1231524,28.01414,-0.1399293,26.5565,1008.37
18.465690613,19.84561,-61.28825,-36.80025,-0.9646498,-0.1085183,-0.1158727,30.15913,2.773152,24.2344,1008.37
18.498252869,-7.226469,-42.67071,-33.61788,-0.9596967,-0.020255,-0.0599093,31.26501,2.045722,22.89783,1008.374
18.533320904,-25.80776,-32.97532,-25.84555,-0.9698679,-0.2551628,-0.1596753,31.26501,2.045722,22.89783,1008.371
18.565879822,-15.04046,-33.86753,-20.03161,-0.9449091,-0.2104147,-0.09617771,32.68529,4.65587,21.53615,1008.371
18.598442555,-2.61191,-31.25037,-18.19563,-0.9981166,-0.1376796,0.001175303,32.69434,3.862447,20.64967,1008.371
18.633510113,4.832912,-26.19449,-17.27764,-1.014876,-0.1146949,0.02861124,32.69434,3.862447,20.64967,1008.371
18.666073322,16.64618,-25.65916,-14.15647,-0.9992617,-0.217647,-0.05128155,33.04523,4.648185,19.75068,1008.37
18.698635578,23.35268,-29.64439,-11.89209,-1.022212,-0.258201,-0.06976304,33.3914,5.737098,18.84951,1008.372
18.733703613,42.91841,-37.97172,-14.21767,-1.06475,-0.148204,-0.01293887,33.3914,5.737098,18.84951,1008.376
18.766262054,33.19707,-53.6152,-20.27641,-1.124208,-0.003514274,0.0613491,34.47619,6.467494,17.94858,1008.372
18.798825264,20.76852,-76.69381,-21.6228,-1.196892,-0.03936429,0.04153724,34.8264,7.190013,16.60395,1008.372
18.833892822,9.632053,-103.4602,-22.05119,-1.298305,-0.2090704,-0.01605893,34.8264,7.190013,16.60395,1008.373
18.866455555,42.54924,-133.0223,-24.07077,-1.441312,-0.2791777,-0.07837935,35.91579,7.182086,13.86023,1008.373
18.899085999,36.88872,-175.3132,-13.72807,-1.943735,-0.0143122,-0.3382607,36.97375,8.988417,10.27503,1008.371
18.931649208,31.41277,-204.5778,-50.44771,-1.898987,-0.07831945,-0.6674932,36.97375,8.988417,10.27503,1008.373
18.966712475,107.1531,-223.0169,-56.38405,-1.389877,0.6131638,-0.8904227,38.46387,10.05951,4.845657,1008.373
18.999275208,-141.8485,-179.6553,-32.88348,-1.013501,0.0764785,1.906062,39.14067,11.83995,-2.752998,1008.376
19.031838417,-170.4588,-21.13861,-28.04873,-0.3432975,-1.36899,-1.374597,39.14067,11.83995,-2.752998,1008.372
19.066905499,232.8537,21.98507,26.23513,-0.4233976,0.2922141,-0.3287677,38.73735,12.89737,-8.17623,1008.372
19.099468708,8.770669,120.8424,39.8214,-0.05792443,0.2019565,-0.2744257,39.06485,15.07513,-9.531301,1008.368
19.132031441,16.21549,187.699,59.28281,-0.1782049,0.236013,-0.3061763,39.06485,15.07513,-9.531301,1008.368
19.167095184,-58.29426,256.0426,79.7234,-0.5613919,0.1354592,-0.3469774,39.48087,12.5466,-6.837781,1008.37
19.199658394,-76.13722,320.4009,95.75764,-0.9641297,-0.1228966,-0.3708321,41.72953,10.77737,-0.9691982,1008.371
19.232220650,-85.61245,336.5203,93.49327,-1.501124,-0.01600136,0.01705172,41.72953,10.77737,-0.9691982,1008.367
19.267288685,-194.5161,338.4237,84.31336,-1.94032,0.01299601,0.3944686,43.29487,7.217382,10.71375,1008.369
19.299850941,-266.8723,262.8829,84.12976,-2.369655,-0.8610764,0.704927,42.69079,2.507521,25.53461,1008.369
19.332414150,-184.9793,190.1377,43.49336,-2.096197,-1.656478,0.8012878,42.69079,2.507521,25.53461,1008.369
19.364972591,5.325132,34.00022,0.1029917,-1.658701,-0.7551734,1.572068,34.00548,-6.232919,35.12096,1008.368
19.400040627,-54.66414,-66.93894,-46.89815,-1.480853,-1.002591,1.024806,25.27588,-13.98721,36.98925,1008.37
19.432603359,403.2232,-23.9937,-8.097728,-0.7810234,-0.05394353,-3.444717,23.81079,-14.36936,35.6584,1008.367
19.465166092,-474.7121,-63.60801,-42.67539,-0.3262933,0.3894591,1.212177,23.81079,-14.36936,35.6584,1008.367
19.500233650,186.5235,-79.78682,-41.4514,-1.664184,-0.3251307,-1.821922,26.29329,-9.262646,34.72138,1008.367
19.532796860,-20.82404,-42.61123,-65.50276,-0.8214116,0.4594166,0.02123193,29.68803,-12.16474,31.99121,1008.369
19.565355301,18.98423,-51.35493,-50.38651,-1.002833,-0.2848746,-0.2393706,29.68803,-12.16474,31.99121,1008.367
19.600423336,-79.02901,-46.23957,-40.04381,-0.9859372,-0.2088732,-0.3373196,32.92535,-8.882117,29.28059,1008.368
19.632985592,24.33712,-37.19847,-31.78189,-1.013893,-0.02164595,-0.1227172,34.01987,-8.881926,27.9388,1008.368
19.665548802,-1.750526,-34.81923,-23.39758,-1.000132,-0.1713497,-0.18737,34.01987,-8.881926,27.9388,1008.37
19.700615883,12.27773,-32.61843,-13.17728,-0.9188609,-0.1810842,-0.05901874,35.08829,-6.99688,27.47567,1008.368
19.733179093,14.30814,-20.72225,-9.87251,-0.9693766,-0.1439824,-0.02650107,36.1755,-6.635461,25.68521,1008.371
19.765738487,21.50685,-14.71467,-10.4233,-0.9969758,-0.02399123,0.01305959,36.1755,-6.635461,25.68521,1008.375
19.798300743,-9.379931,-11.97855,-10.4845,-0.9359463,-0.1845584,-0.09192488,37.25787,-5.536088,25.67381,1008.375
19.833368778,0.5259903,-16.85598,-8.648522,-0.9630557,-0.1467362,-0.04395076,37.62513,-5.905001,24.33702,1008.377
19.865931034,19.78408,-20.30588,-3.140576,-1.13266,-0.1467737,-0.09405882,37.62513,-5.905001,24.33702,1008.374
19.898494244,43.16452,-38.20964,-10.9129,-1.064363,0.07001396,-0.01106017,38.34079,-4.808644,24.26308,1008.378
19.933561325,9.016779,-55.75652,-20.46001,-1.088345,-0.00368436,-0.01167801,37.96538,-4.452646,23.36951,1008.375
19.966120720,7.047901,-73.83873,-22.84678,-1.126133,-0.199312,-0.0648973,37.96538,-4.452646,23.36951,1008.375
19.998682976,31.28972,-98.10695,-20.766,-1.212594,-0.1623655,0.005356091,39.47446,-3.724329,21.57505,1008.377
20.033750534,40.82647,-118.6874,-13.78927,-1.271725,-0.08242679,0.1047582,40.17894,-2.645684,18.44234,1008.378
20.066313744,90.97135,-141.9444,10.20089,-1.790851,-0.1865047,0.02198076,40.17894,-2.645684,18.44234,1008.376
20.098876476,40.2112,-190.4214,-9.076918,-1.876112,0.2052422,-0.1184235,42.34254,-1.567153,13.45685,1008.378
20.133944035,-22.23917,-223.6117,-12.81008,-2.072521,0.7082707,-0.571701,43.02424,0.2210317,7.196413,1008.374
20.166502476,-0.7045588,-223.6712,-10.6681,-0.9095623,0.6951791,-0.4516957,43.02424,0.2210317,7.196413,1008.374
20.199065685,-460.7453,-122.9105,16.74923,-0.7660381,-0.6877742,-0.5222375,43.72433,0.1742959,-1.791127,1008.375
20.231628418,84.63403,-39.75615,76.41864,-0.4393685,-0.6069786,-0.7852439,43.30639,1.954172,-8.111727,1008.374
20.266695976,-88.31966,31.97787,130.7637,-0.1456127,0.2056396,-0.2670343,43.30639,1.954172,-8.111727,1008.369
20.299259186,-130.4044,84.20213,181.3756,-0.3950086,-0.1499246,-0.3838782,42.20613,1.572089,-9.889837,1008.368
20.331821919,-161.7219,160.5162,214.9129,-0.7343295,-0.1155505,-0.3656247,41.53653,-2.06098,-8.077061,1008.368
20.399447918,-237.3392,218.5101,206.4674,-1.416712,-0.2935891,-0.04526995,41.27821,-7.919404,-3.572939,1008.364
20.432011128,-480.065,214.4654,169.0133,-1.837175,0.2793945,-0.1743683,40.29193,-14.08593,0.9994602,1008.364
20.467078209,-702.856,169.6168,146.1248,-1.940879,-1.279686,-1.013511,40.29193,-14.08593,0.9994602,1008.364
20.499641419,-477.973,76.35064,134.8029,-1.80472,-1.147252,-0.4654059,36.66851,-21.09621,-0.7226954,1008.364
20.532203674,-509.7827,39.53194,58.36481,-1.278293,-2.025949,-0.8819726,33.81667,-28.81977,-11.4278,1008.364
20.567267895,-362.3014,-28.09788,-27.62034,-1.54099,-1.9357,1.268751,33.81667,-28.81977,-11.4278,1008.359
20.599830628,-51.52624,-33.09428,-32.63869,-1.041893,-1.84975,-0.1597646,31.95709,-29.99454,-23.52169,1008.361
20.632393360,-86.71994,13.41981,-37.47344,-0.6588802,0.2326006,-0.7171181,33.28623,-23.48997,-33.00468,1008.363
20.664955616,-167.1979,22.22299,-48.67293,-1.124446,-1.257087,-0.2279833,33.28623,-23.48997,-33.00468,1008.363
20.700023651,-20.57793,19.90324,-35.94345,-1.024945,-0.03912799,0.05490943,33.62103,-21.67344,-33.91107,1008.36
20.732586861,20.95311,2.356359,-23.51998,-1.329515,0.5278684,0.2895907,35.34691,-15.05614,-34.85659,1008.362
20.765145302,-178.1497,19.48687,-42.79779,-0.9180528,0.597396,0.3936969,35.34691,-15.05614,-34.85659,1008.359
20.800212860,-54.60261,24.18586,-30.9251,-1.144571,-0.5730618,-0.2228453,36.79902,-13.94896,-33.97704,1008.361
20.832775593,30.85903,10.08888,-24.49917,-0.9872111,0.1457156,0.2341256,37.10215,-10.31854,-35.78863,1008.361
20.865338802,-44.75822,19.60583,-11.0353,-1.018982,-0.2886894,-0.08908301,37.10215,-10.31854,-35.78863,1008.365
20.900444508,-16.94781,13.59826,-3.691371,-1.019956,-0.04070902,0.09596753,38.5372,-8.11992,-34.9169,1008.362
20.933006763,-40.0206,12.46812,-1.059797,-0.9497427,-0.04947767,0.08803196,38.88163,-6.598812,-34.4829,1008.364
20.965565205,-47.46543,6.341582,-0.4478029,-1.039608,-0.03636347,0.04626498,38.88163,-6.598812,-34.4829,1008.366
21.000633240,-68.20018,-7.874362,3.836155,-1.104267,0.174445,0.1012649,40.38261,-5.137707,-35.39044,1008.366
21.033196449,-109.1159,-13.88194,10.20089,-0.9301482,-0.07369298,0.01900409,40.00399,-4.041172,-34.05887,1008.363
21.065758705,-116.4992,4.97352,6.100532,-0.7758909,-0.6101683,-0.1976649,40.34121,-2.593615,-35.85479,1008.365
21.098321915,80.08099,-8.409691,10.07849,-0.8773918,-0.3892049,-0.02404716,40.34121,-2.593615,-35.85479,1008.369
21.133388996,-67.40032,12.34916,-6.322946,-1.086627,-0.0369513,-0.06535865,40.6525,1.049723,-35.43602,1008.37
21.165948391,-4.642316,13.30085,16.81043,-1.040546,-0.02645558,0.1087727,40.31038,-0.4055843,-34.97832,1008.37
21.198510647,-38.05172,11.87331,8.609708,-1.056672,-0.04368316,0.004115995,40.31038,-0.4055843,-34.97832,1008.372
21.233578682,-48.63445,9.494072,0.1029917,-1.012182,-0.002583687,0.0709227,41.38302,1.423994,-34.54887,1008.371
21.266140938,-14.2406,10.56473,4.876544,-0.9531295,-0.2590847,-0.1046463,41.73976,2.156844,-34.1092,1008.372
21.298704147,-19.47043,4.259749,8.732107,-0.9889544,-0.1293651,-0.1964078,41.73976,2.156844,-34.1092,1008.37
21.333771229,18.55354,-1.509902,8.120112,-1.015844,-0.02018216,0.08274218,41.35382,3.614606,-33.22632,1008.37
21.366330624,-19.65502,-7.695919,-2.038987,-0.9315311,-0.03205595,0.0500934,41.73571,2.523238,-33.66574,1008.372
21.398892880,9.939691,9.434591,-3.079377,-1.005252,-0.08962588,0.1005242,41.73571,2.523238,-33.66574,1008.371
21.433960915,24.15253,5.687292,-3.140576,-1.06462,-0.02970437,0.006753817,41.36193,2.881819,-34.11324,1008.375
21.466523171,8.093866,5.925215,-9.076918,-0.9685965,-0.006805594,-0.05051136,41.36356,2.884403,-33.66717,1008.376
21.499086380,-2.550383,4.259749,-5.710951,-1.009928,-0.2192972,-0.03969538,41.36356,2.884403,-33.66717,1008.376
21.531648636,45.1334,-13.22765,-6.567743,-0.9587539,-0.01257544,-0.03610758,41.7284,2.884466,-34.11443,1008.376
21.566712856,25.01392,-13.16817,-10.6681,-1.018025,-0.07917859,-0.09458833,41.74544,1.793033,-34.10659,1008.379
21.599275112,24.15253,-14.35778,-14.27887,-1.023765,-0.06612622,0.01050911,41.74544,1.793033,-34.10659,1008.377
21.631838322,15.7848,-11.32426,-18.07323,-0.9974343,-0.07440882,-0.01622839,41.73976,2.156844,-34.1092,1008.38
21.666905403,11.04718,-4.602911,-17.88963,-0.9712331,-0.1142109,0.1532877,40.64277,1.779927,-34.99517,1008.38
21.699468613,19.53798,0.6908928,-14.58486,-0.9947054,-0.1209931,0.08166713,40.64277,1.779927,-34.99517,1008.378
21.732030869,25.1985,-6.506301,-8.954519,-1.121496,-0.01498438,-0.07949116,40.6444,1.78251,-34.5491,1008.381
21.767094612,-28.08428,4.497673,-5.894549,-1.012053,-0.1172749,0.1755157,40.27061,2.141091,-34.99659,1008.379
21.799657345,6.494154,3.367535,-2.161386,-0.9693468,-0.1715667,0.05380199,40.27061,2.141091,-34.99659,1008.38
21.832219601,11.72399,6.995872,-3.691371,-1.010465,-0.2173116,-0.05029886,39.9082,1.77205,-35.43887,1008.38
21.867287636,-4.334679,3.724421,-2.712181,-0.9455509,-0.1582964,0.08926798,40.62814,2.502382,-35.89254,1008.382
21.899860859,-7.349524,5.984696,0.4089886,-0.9901723,-0.2400032,-0.02552905,40.62814,2.502382,-35.89254,1008.381
21.932423115,-10.91812,6.22262,-0.5090023,-0.9565288,-0.3422675,-0.0981781,41.37003,2.149031,-35.00016,1008.383
21.964982510,22.12213,-0.498726,4.570547,-1.044253,-0.1998062,-0.04226515,41.74218,1.787867,-34.99873,1008.381
22.000049591,18.9227,-3.413292,7.385719,-0.9749231,-0.116595,0.02661019,41.74218,1.787867,-34.99873,1008.381
22.032612801,18.30743,-5.554606,10.93528,-0.9316322,-0.01522494,0.08902042,41.00193,2.143801,-35.44505,1008.384
22.065175056,7.970812,1.642588,12.40407,-1.019263,-0.03019555,0.03087138,41.02791,0.6937242,-34.54245,1008.382
22.100243092,25.13697,3.843383,10.44569,-0.9797201,-0.06976068,0.0805008,41.02791,0.6937242,-34.54245,1008.384
22.132805347,19.23034,4.854558,13.99525,-0.9053627,-0.04521916,0.1334915,40.6728,-0.03654385,-34.53604,1008.385
22.165363789,35.04289,-0.7366497,25.62314,-0.9930847,0.08201827,0.1176324,40.67685,-0.4029374,-34.9795,1008.385
22.200431824,-5.872865,-9.123462,29.2339,-0.9273558,0.09478147,0.1709352,40.67685,-0.4029374,-34.9795,1008.384
22.232994080,-58.54037,-11.8001,23.29756,-0.9451431,-0.1624259,0.0369999,40.71257,-2.583219,-34.51777,1008.386
22.265557289,-34.05244,-10.61049,19.01361,-1.032585,-0.1967669,-0.03594615,40.72067,-3.316007,-35.40469,1008.388
22.300624847,-29.80704,-2.283154,15.09684,-0.9311953,-0.245046,-0.0300133,40.72067,-3.316007,-35.40469,1008.385
22.333187580,19.78408,-0.9745734,20.91079,-0.99924,-0.06708383,0.07717683,39.97474,-2.596262,-35.8536,1008.387
22.365746021,50.7324,-3.234849,22.86917,-1.078491,0.2232975,0.1198703,40.33716,-2.227221,-35.41133,1008.387
22.398309231,18.06132,7.769125,19.5644,-1.116203,0.1833093,0.04195628,40.33716,-2.227221,-35.41133,1008.389
22.433376312,29.99764,16.21542,19.6868,-1.073899,0.08705837,-0.04559406,40.36393,-4.048858,-35.84435,1008.385
22.465939522,48.20977,12.76552,40.86179,-1.2576,0.4416299,0.01026391,40.38098,-5.14029,-35.83652,1008.388
22.498501778,14.06203,23.47209,46.24734,-1.120862,0.4948941,0.0181952,40.38098,-5.14029,-35.83652,1008.386
22.533569813,14.12356,53.15308,53.95846,-1.085807,0.06691361,-0.03187197,40.7971,-8.103599,-34.92423,1008.386
22.566128254,85.43388,21.5687,64.36236,-1.107793,0.1171226,-0.02093383,41.55604,-9.548382,-34.02402,1008.383
22.598690510,85.2493,30.015,72.68548,-0.9555103,0.2077011,-0.05111841,41.55604,-9.548382,-34.02402,1008.385
22.633758545,104.8766,48.3946,81.49819,-0.9468996,0.2859867,-0.1408072,41.98202,-12.80675,-31.70763,1008.383
22.666320801,134.4713,64.98978,85.96574,-1.069684,0.4744899,-0.262524,42.43456,-17.88712,-29.88797,1008.385
22.698884010,73.86672,68.6776,81.92658,-1.109767,0.5687848,-0.2721645,42.43456,-17.88712,-29.88797,1008.385
22.733951092,63.09941,81.88237,86.57774,-1.085255,0.561613,-0.4405126,42.54676,-24.10929,-25.8285,1008.382
22.766510487,55.96223,101.868,79.53981,-1.079589,0.7582177,-0.3737129,43.00987,-29.54572,-22.66802,1008.384
22.799072742,2.433342,103.236,88.65852,-1.169683,0.7527797,-0.3978777,43.10363,-34.67868,-18.99873,1008.381
22.831635475,-41.62032,100.7378,91.41249,-1.285366,0.6882154,-0.2131344,43.10363,-34.67868,-18.99873,1008.377
22.866703033,-32.32967,69.56982,95.32925,-1.264022,0.3704287,-0.1672487,43.88124,-37.21231,-17.64461,1008.377
22.899265766,71.95937,61.06404,85.59855,-1.328637,0.5530959,-0.2286886,43.8966,-39.05202,-21.20013,1008.379
22.931828976,84.63403,46.01537,74.03186,-1.293862,0.5568722,-0.5298083,43.8966,-39.05202,-21.20013,1008.379
22.966891766,104.1998,26.20822,84.25216,-1.049558,0.4415822,-0.5545217,43.54609,-40.52062,-23.03651,1008.375
22.999454975,117.6127,12.46812,76.54104,-0.8977221,0.7862021,-0.5542444,39.7959,-39.84057,-26.59822,1008.375
23.032017708,54.91626,39.23454,59.8336,-0.6381687,0.860906,-0.2087076,39.7959,-39.84057,-26.59822,1008.375
23.099647999,33.75082,-46.23957,79.17262,-0.2333677,0.6537535,0.4369164,18.75465,-30.38139,-10.92235,1008.367
23.132210255,80.88085,-49.2731,100.9596,-0.4060708,0.7894399,0.5628977,18.75465,-30.38139,-10.92235,1008.363
23.167273998,11.5394,-71.28104,135.7821,-0.2523836,1.023134,0.5933838,15.02493,-28.5505,-4.232241,1008.361
23.199836731,-71.8303,-112.5608,162.9546,-0.6214688,0.6705275,0.3389381,12.08698,-27.09023,0.2912693,1008.361
23.232399941,-159.1993,-146.7624,164.0562,-0.8328463,0.3551761,-0.1727313,12.08698,-27.09023,0.2912693,1008.353
23.264962196,-136.0034,-146.7624,136.7001,-0.7548144,0.01582176,-0.3500661,10.26115,-27.09313,2.0815,1008.351
23.300029755,-120.8062,-171.328,84.86416,-0.5815331,-0.3357311,-0.6702751,8.067165,-27.84696,0.3095675,1008.35
23.332592487,-39.65144,-143.6693,54.75405,-0.4359023,-0.01525917,-0.9333172,8.067165,-27.84696,0.3095675,1008.344
23.365150929,-54.3565,-119.4606,8.915705,-0.3868859,-0.1862661,-1.021531,7.715033,-29.31814,-1.972884,1008.344
23.400218964,-74.9682,-73.89821,-39.06462,-0.4848596,-0.03105378,-0.9136925,7.366394,-30.78378,-3.299466,1008.344
23.432781220,-115.6378,-90.13651,-74.37668,-2.034008,-0.3638542,-0.6804198,7.366394,-30.78378,-3.299466,1008.345
23.465344429,590.9434,-50.34375,11.18008,-1.128491,2.898438,-1.425228,9.196273,-31.14727,-5.533158,1008.34
23.500411511,-148.3705,67.07162,-28.23233,-0.667394,2.019845,-0.670508,11.02166,-29.28103,0.3105021,1008.34
23.532974720,-168.7976,52.43931,-24.00957,-0.8689476,-0.309664,-0.1760723,11.02166,-29.28103,0.3105021,1008.34
23.565533161,229.3466,54.0453,-41.0842,-0.8557627,0.6309856,0.1345759,12.11539,-28.90928,0.3043251,1008.337
23.600600243,105.0611,34.35711,-60.23961,-0.281728,0.8697837,-0.3896991,12.8589,-29.26005,1.642775,1008.335
23.633163452,128.8723,46.90758,-63.60558,-0.1900236,0.861595,-0.5692453,12.8589,-29.26005,1.642775,1008.333
23.665725708,116.7514,77.18337,-57.60804,-0.2732241,0.6338531,-0.4252096,13.95758,-28.13485,6.092094,1008.331
23.698288441,99.5852,52.20139,-53.01809,-0.5630794,0.5647768,-0.3877969,15.41784,-27.01475,9.202009,1008.331
23.733355999,93.37093,49.58422,-55.52726,-0.6497133,0.6870067,-0.5806494,15.41784,-27.01475,9.202009,1008.333
23.765914440,80.14252,30.96669,-51.4269,-0.7812311,0.6768096,-0.6386832,16.92804,-25.16621,12.37023,1008.33
23.798477650,72.57465,35.18984,-51.3045,-0.7115991,0.6553656,-0.7459039,17.64804,-23.69018,15.03384,1008.328
23.833544731,54.5471,26.08925,-44.51137,-0.5186183,0.4382049,-0.5343005,17.64804,-23.69018,15.03384,1008.33
23.866107464,58.48486,31.62098,-43.83818,-0.4880171,0.4154393,-0.6763068,17.98695,-21.49434,16.80127,1008.33
23.898787975,82.29598,19.72479,-34.71947,-0.4201544,0.4634478,-0.7781157,19.07016,-20.02082,18.57155,1008.327
23.933855534,54.79321,38.81817,-39.00343,-0.4928625,0.3792408,-0.639151,19.07016,-20.02082,18.57155,1008.329
23.966413975,44.57965,25.79185,-32.88348,-0.5311447,0.06007164,-0.8856717,19.0573,-18.86064,19.96522,1008.327
23.998976707,18.43048,19.48687,-35.88226,-0.5461866,0.03177166,-0.7981144,19.77567,-17.38719,22.18275,1008.328
24.034044266,35.41206,5.627811,-22.72438,-0.6618762,0.2117714,-0.846978,19.77567,-17.38719,22.18275,1008.324
24.066606998,44.51812,4.735597,-20.39881,-0.6608528,0.2448756,-1.068344,19.37511,-15.20697,22.16828,1008.324
24.099169254,33.81234,13.7767,-19.90921,-0.582906,0.2515891,-0.8266283,20.10158,-14.4663,23.4989,1008.326
24.131732464,7.970812,13.7767,-18.01203,-0.6422755,0.2151301,-0.7816898,20.10158,-14.4663,23.4989,1008.323
24.166795731,10.24733,12.64656,-10.4233,-0.6244874,0.1853437,-1.019016,20.44696,-13.00583,23.93333,1008.325
24.199358940,21.75296,13.00345,-1.426993,-0.480608,0.2243686,-0.7469018,20.06507,-11.91446,24.37276,1008.325
24.231921196,14.55425,29.47967,-5.588552,-0.4802183,0.01841444,-0.7713128,20.06507,-11.91446,24.37276,1008.324
24.266988277,30.48986,23.82898,-1.73299,-0.4859533,0.2060944,-1.229102,20.43317,-11.90923,24.81765,1008.326
24.299551487,-10.17979,19.18946,-3.630172,-0.3748904,0.1444354,-0.7148703,20.07402,-12.27311,25.26752,1008.324
24.332114220,77.06615,67.1311,13.01606,-0.2171122,0.2290675,-0.9167497,20.07402,-12.27311,25.26752,1008.327
24.367177963,43.16452,120.1881,10.87409,-0.3540631,0.2492688,-1.260473,19.32161,-10.81799,26.15159,1008.331
24.432302952,-157.2304,65.94148,36.45543,-0.1377821,0.003169228,-0.8187635,16.02748,-10.4625,28.83611,1008.328
24.467370510,-40.51283,84.02368,32.23267,-0.1152963,0.1671678,-0.800815,16.02748,-10.4625,28.83611,1008.332
24.499933243,-13.99449,86.93825,29.9071,-0.2861205,0.05691579,-0.8787058,13.81466,-13.38673,29.31041,1008.331
24.532495499,-2.734965,68.91553,18.58521,-0.2464325,0.1006826,-0.7712501,11.2924,-15.94676,30.22915,1008.335
24.565054894,-44.38905,68.55864,11.11888,-0.2871874,-0.057803,-0.6653522,11.2924,-15.94676,30.22915,1008.335
24.600121975,91.27899,19.60583,7.140922,-0.30691,0.3499104,-0.8157271,9.834061,-16.31821,30.74631,1008.332
24.632684231,-102.7171,2.832207,3.530158,-0.4095209,0.8326725,-1.246202,8.01307,-17.05906,30.75748,1008.331
24.665247440,-62.35507,21.2713,16.93283,-0.1739587,0.4764794,-1.012592,8.01307,-17.05906,30.75748,1008.333
24.700314522,-2.550383,39.29402,-9.505314,0.0518675,0.3300416,-0.9744407,7.263085,-15.97293,30.75202,1008.331
24.732877255,-32.32967,21.09285,4.509348,-0.2049863,0.4420547,-1.118947,6.19371,-17.79734,31.21471,1008.331
24.765436172,5.694297,33.22697,3.101762,-0.1806203,0.3891803,-0.96558,6.19371,-17.79734,31.21471,1008.334
24.800503254,86.23374,-3.770178,-3.140576,-0.08849127,0.3393689,-0.9698125,6.19371,-17.79734,31.21471,1008.33
24.833065987,74.78963,-1.39094,-5.098958,0.009606209,0.2380947,-0.9690354,5.468081,-18.16386,31.66578,1008.333
24.865629196,63.9608,-0.8556116,-3.507773,-0.06625027,0.22597,-0.9783313,5.468081,-18.16386,31.66578,1008.331
24.900696278,54.17793,10.80265,-1.304595,-0.06429867,0.1946535,-0.9266064,5.438887,-15.97325,32.98832,1008.331
24.933258533,43.71827,11.21902,0.776185,-0.02412319,0.2089377,-0.9597802,5.778583,-14.14896,33.42015,1008.333
24.965821743,44.64118,12.94397,3.162961,-0.08859264,0.1794948,-0.9756352,5.778583,-14.14896,33.42015,1008.33
24.998380184,44.76423,5.270925,2.000173,-0.07736986,0.1316174,-0.9957116,5.026178,-12.69385,34.30423,1008.332
25.033447266,36.02733,0.5719309,-0.2642047,-0.037606,0.09539826,-1.039323,4.627251,-10.51105,34.73582,1008.329
25.066010475,27.35196,3.308054,0.1029917,-0.02049252,0.09026011,-1.036034,4.627251,-10.51105,34.73582,1008.329
25.098573208,23.72184,2.832207,0.2253904,-0.0104904,0.07896726,-0.9825613,5.356142,-10.13936,35.17691,1008.327
25.133640289,12.70843,1.047778,0.3477892,-0.01314953,0.06513251,-0.9407161,4.606157,-9.05322,35.17145,1008.327
25.166199207,1.51043,-0.3202831,0.4089886,-0.01379323,0.07254666,-0.969605,4.606157,-9.05322,35.17145,1008.325
25.198761940,-3.903987,-0.2013212,0.2865898,-0.008147065,0.07773907,-1.026086,4.602107,-8.686827,35.61491,1008.328
25.233829022,-4.088569,-0.9150925,-0.01940714,-0.01841071,0.08005284,-1.029908,4.959634,-8.325535,34.71897,1008.328
25.266392231,-4.150096,-1.093535,-0.2642047,-0.01918806,0.07112017,-0.9918569,4.959634,-8.325535,34.71897,1008.326
25.298954487,-3.596349,-1.450421,-0.08060654,-0.02102968,0.06519353,-0.9764774,5.331786,-8.686699,34.72039,1008.329
25.334021568,-1.012196,-1.39094,-0.4478029,-0.02223286,0.07986799,-1.000421,4.234005,-8.692056,35.17003,1008.331
25.366580963,1.633485,-0.3202831,-0.3866035,-0.02187672,0.08962549,-1.007523,4.234005,-8.692056,35.17003,1008.329
25.399143219,1.941122,1.16674,0.04179226,-0.02766855,0.08612595,-1.002737,4.596426,-8.323015,35.6123,1008.329
25.431705952,5.263605,1.404664,-0.01940714,-0.03581731,0.07436717,-1.005326,4.607788,-9.050637,35.61752,1008.326
25.466773510,7.232483,1.285702,0.2865898,-0.0186258,0.06433038,-0.9934112,4.607788,-9.050637,35.61752,1008.328
25.499336243,9.201361,1.345183,0.4089886,-0.02200457,0.06090215,-0.9973272,4.602107,-8.686827,35.61491,1008.329
25.531898499,9.078306,1.76155,0.2253904,-0.01225066,0.05719682,-1.009478,4.596426,-8.323015,35.6123,1008.327
25.566962242,8.709142,0.3340072,0.2253904,-0.01464434,0.05423642,-1.00662,4.596426,-8.323015,35.6123,1008.327
25.599524975,4.832912,-1.093535,-0.01940714,-0.02137472,0.04970841,-0.9921814,4.596426,-8.323015,35.6123,1008.33
25.632087231,-0.3353941,-0.9150925,-0.01940714,-0.02380298,0.04871364,-0.9941278,4.229955,-8.325663,35.61349,1008.328
25.667154312,-3.596349,-0.2013212,0.04179226,-0.01700907,0.04979633,-0.9989516,4.229955,-8.325663,35.61349,1008.33
25.699717522,-2.734965,-0.02287842,-0.1418059,-0.02193963,0.05317376,-1.007596,4.224274,-7.961852,35.61088,1008.327
25.732279778,-2.11969,0.2150453,-0.01940714,-0.01758216,0.05660589,-1.001747,4.224274,-7.961852,35.61088,1008.327
25.767347336,-0.5199764,0.3340072,0.04179226,-0.01955135,0.0599489,-0.9944438,4.224274,-7.961852,35.61088,1008.325
25.799906254,0.8951551,0.2150453,0.04179226,-0.01813435,0.06242606,-1.000691,4.229955,-8.325663,35.61349,1008.327
25.832468986,2.371814,-0.2608022,0.04179226,-0.01570602,0.06199387,-1.005534,4.974258,-9.047991,35.61633,1008.328
25.865031242,3.602363,-0.498726,0.04179226,-0.02042053,0.05070832,-0.9955508,4.974258,-9.047991,35.61633,1008.326
25.900098801,2.187232,-0.2608022,-0.01940714,-0.01945778,0.04883892,-1.009115,4.592375,-7.956622,36.05576,1008.326
25.932661533,1.325847,0.2745263,-0.08060654,-0.02131587,0.04341797,-0.998078,4.218592,-7.598041,35.60826,1008.327
25.965223789,0.0952981,0.03660252,-0.01940714,-0.01995569,0.05170627,-0.9998863,4.218592,-7.598041,35.60826,1008.323
26.000287056,-0.7660863,-0.1418403,-0.08060654,-0.01996538,0.05315081,-0.9969642,4.585063,-7.595394,35.60708,1008.327
26.032850266,-0.458449,-0.3202831,-0.08060654,-0.01515029,0.05759408,-0.998351,4.585063,-7.595394,35.60708,1008.329
26.065412521,0.6490452,-0.08235936,-0.01940714,-0.02338279,0.05264682,-1.002769,4.964527,-8.317786,36.05718,1008.329
26.100480080,1.01821,-0.08235936,-0.01940714,-0.01991825,0.04878422,-0.9984809,4.964527,-8.317786,36.05718,1008.326
26.133042336,1.325847,-0.2608022,-0.01940714,-0.02294215,0.05654264,-1.003193,4.216961,-7.600624,35.16219,1008.328
26.165605545,0.5259903,-0.3797641,0.1029917,-0.02529035,0.0501699,-0.9979712,4.585063,-7.595394,35.60708,1008.325
26.200668812,-0.1508117,-0.2608022,-0.1418059,-0.02234087,0.04730353,-1.000435,4.585063,-7.595394,35.60708,1008.329
26.233231068,-0.1508117,-0.1418403,-0.2030053,-0.02141329,0.0512057,-1.000859,4.578435,-7.170948,35.60403,1008.327
26.265794277,-0.5815039,-0.02287842,-0.2030053,-0.02140366,0.05118812,-0.9969927,4.949903,-7.59533,35.15982,1008.327
26.298356533,0.4644628,0.3340072,0.04179226,-0.01945506,0.0507364,-0.9989349,4.949903,-7.59533,35.15982,1008.328
26.333424091,0.5259903,0.3934881,-0.08060654,-0.02091387,0.05023804,-1.000391,4.586694,-7.592811,36.05315,1008.328
26.365986347,1.387375,0.03660252,0.04179226,-0.01553575,0.04884136,-0.9984842,4.589113,-7.961788,35.16362,1008.329
26.398545265,1.141265,-0.08235936,0.1029917,-0.01847066,0.04882744,-1.003799,4.589113,-7.961788,35.16362,1008.327
26.433612824,0.7105727,-0.3202831,0.1029917,-0.02234252,0.04825777,-0.996553,4.953165,-7.590164,36.05196,1008.327
26.466175079,0.0952981,-0.3797641,-0.01940714,-0.02327327,0.04341015,-1.001943,4.589113,-7.961788,35.16362,1008.326
26.498737812,0.218353,-0.2013212,-0.1418059,-0.02233764,0.04682202,-1.001409,4.589113,-7.961788,35.16362,1008.328
26.533805370,-0.08928427,-0.2608022,0.04179226,-0.02139112,0.04878715,-1.003313,4.957215,-7.956558,35.6085,1008.325
26.566368103,-0.3969216,0.09608345,-0.01940714,-0.02235899,0.04876346,-1.000896,4.220223,-7.595458,36.05434,1008.327
26.598926544,-0.3969216,0.09608345,-0.08060654,-0.02240124,0.0516943,-1.004235,4.220223,-7.595458,36.05434,1008.327
26.633994103,-0.2123392,0.09608345,0.04179226,-0.02036288,0.04442007,-1.001931,4.596426,-8.323015,35.6123,1008.323
26.666556835,0.4644628,-0.1418403,-0.08060654,-0.0150552,0.04838379,-1.003325,4.589113,-7.961788,35.16362,1008.322
26.699119091,0.7721002,-0.08235936,-0.01940714,-0.01991743,0.0483071,-1.000422,4.589113,-7.961788,35.16362,1008.322
26.731681824,0.0952981,-0.08235936,-0.1418059,-0.01793101,0.04540825,-0.9985343,4.583432,-7.597977,35.16101,1008.321
26.766748905,0.4644628,-0.3797641,0.04179226,-0.02231351,0.0453511,-0.9985309,4.211964,-7.173595,35.60522,1008.321
26.799307823,0.8951551,-0.2608022,-0.1418059,-0.02372804,0.04144258,-0.9981058,4.211964,-7.173595,35.60522,1008.317
26.831870556,0.3414079,-0.2013212,0.04179226,-0.02086952,0.04540092,-1.005299,4.951533,-7.592747,35.60589,1008.319
26.866937637,0.218353,-0.02287842,-0.2030053,-0.02136698,0.04731623,-1.000435,4.596426,-8.323015,35.6123,1008.321
26.899499893,0.0952981,0.03660252,-0.01940714,-0.02131745,0.04294524,-1.000986,4.596426,-8.323015,35.6123,1008.318
26.932063103,0.2798805,-0.08235936,0.1029917,-0.02276504,0.04290202,-0.9956676,4.580066,-7.168365,36.0501,1008.318
26.967130184,0.3414079,0.03660252,-0.08060654,-0.02133518,0.04488009,-0.9990225,4.218592,-7.598041,35.60826,1008.318
26.999688625,-0.3353941,-0.02287842,-0.08060654,-0.02134165,0.04584312,-0.9970743,4.218592,-7.598041,35.60826,1008.319
27.032251358,0.4029354,-0.3202831,0.1029917,-0.01789839,0.04249499,-0.9990622,4.953165,-7.590164,36.05196,1008.317
27.067318916,0.03377064,-0.1418403,-0.01940714,-0.02525772,0.04725664,-0.998499,4.951533,-7.592747,35.60589,1008.318
27.099881649,-0.02775682,-0.2013212,-0.01940714,-0.02431196,0.04827193,-1.005252,4.951533,-7.592747,35.60589,1008.318
27.132443905,0.1568255,-0.08235936,-0.08060654,-0.02279602,0.04486104,-0.9990214,4.958846,-7.953975,36.05457,1008.316
27.165006638,0.03377064,-0.2608022,0.1641911,-0.02139479,0.05022069,-0.9979742,4.586694,-7.592811,36.05315,1008.318
27.200070381,0.1568255,-0.02287842,0.04179226,-0.02424753,0.04292253,-1.004367,4.586694,-7.592811,36.05315,1008.315
27.232632637,0.4029354,0.2745263,0.1641911,-0.02523036,0.04530422,-0.9965953,4.229955,-8.325663,35.61349,1008.315
27.265195370,0.5875177,0.03660252,0.1029917,-0.02188655,0.05022314,-0.9999071,4.949903,-7.59533,35.15982,1008.315
27.300262451,0.5875177,-0.08235936,-0.1418059,-0.02129256,0.04242417,-0.9932594,4.949903,-7.59533,35.15982,1008.314
27.332824707,-0.08928427,0.1555644,-0.08060654,-0.01647815,0.04449065,-1.006284,4.585063,-7.595394,35.60708,1008.316
27.365387917,-0.02775682,-0.08235936,-0.01940714,-0.01991097,0.04734407,-1.00237,4.588325,-7.590228,36.49922,1008.314
27.400451183,-0.2123392,-0.2013212,-0.08060654,-0.02040152,0.04734432,-1.003819,4.588325,-7.590228,36.49922,1008.317
27.433013439,0.6490452,-0.1418403,-0.08060654,-0.02032785,0.04150242,-1.001492,5.318004,-7.590101,35.6047,1008.317
27.465576172,0.03377064,0.03660252,0.1029917,-0.02184423,0.04586534,-1.003357,4.590744,-7.959205,35.60969,1008.315
27.500643730,0.3414079,0.1555644,-0.01940714,-0.0237981,0.04727789,-0.9989835,4.590744,-7.959205,35.60969,1008.317
27.533206463,0.1568255,0.09608345,-0.08060654,-0.02374533,0.04242539,-1.000508,4.958846,-7.953975,36.05457,1008.314
27.565768719,-0.1508117,0.03660252,0.1029917,-0.02130541,0.04292327,-0.996152,4.210333,-7.176178,35.15915,1008.316
27.598327160,0.1568255,0.03660252,-0.01940714,-0.01937328,0.04297724,-1.002437,4.210333,-7.176178,35.15915,1008.316
27.633394241,0.7105727,0.09608345,0.1029917,-0.01982203,0.04099869,-0.9961828,4.218592,-7.598041,35.60826,1008.311
27.665956974,1.079737,-0.02287842,-0.01940714,-0.02326282,0.04291545,-1.000017,4.953165,-7.590164,36.05196,1008.313
27.698520184,0.8336276,-0.08235936,0.04179226,-0.01935599,0.04199443,-1.000035,4.953165,-7.590164,36.05196,1008.311
27.733587265,0.2798805,-0.02287842,-0.2030053,-0.02473854,0.04387482,-1.001451,4.586694,-7.592811,36.05315,1008.313
27.766149521,0.4644628,-0.2013212,-0.01940714,-0.02470876,0.04191799,-0.998581,4.955584,-7.959141,35.16243,1008.313
27.798707962,-0.2738667,-0.1418403,-0.08060654,-0.02133316,0.04440078,-1.00048,4.586694,-7.592811,36.05315,1008.312
27.833775997,0.0952981,-0.2013212,0.04179226,-0.02475184,0.04532595,-0.999979,4.586694,-7.592811,36.05315,1008.314
27.866338253,-0.3353941,-0.2013212,-0.08060654,-0.0222769,0.04290617,-0.9951847,4.946536,-7.165719,36.04891,1008.313
27.898900986,-0.02775682,-0.2013212,0.1029917,-0.02235937,0.04828854,-1.00332,3.847125,-7.173659,36.05248,1008.315
27.933968067,0.5875177,-0.498726,0.2865898,-0.01647214,0.04447966,-1.003867,3.847125,-7.173659,36.05248,1008.312
27.966530323,0.4644628,-0.3202831,-0.2030053,-0.02525171,0.04724566,-0.9960822,4.580066,-7.168365,36.0501,1008.312
27.999088764,-0.458449,0.09608345,-0.2030053,-0.02324388,0.04097841,-1.001497,4.951533,-7.592747,35.60589,1008.314
28.031651497,-0.08928427,0.3934881,-0.08060654,-0.0256544,0.03804879,-1.005406,4.951533,-7.592747,35.60589,1008.313
28.066719055,0.3414079,0.03660252,0.04179226,-0.01983926,0.04055453,-1.005374,4.951533,-7.592747,35.60589,1008.315
28.099281788,1.079737,-0.02287842,0.04179226,-0.01789516,0.04201348,-1.000036,4.225904,-7.959269,36.05695,1008.315
28.131844044,0.8336276,-0.02287842,-0.01940714,-0.02325642,0.04337939,-0.9951765,4.225904,-7.959269,36.05695,1008.313
28.166911125,0.0952981,-0.1418403,0.04179226,-0.02126392,0.03904259,-0.9976614,4.958846,-7.953975,36.05457,1008.312
28.199470043,0.5875177,-0.08235936,-0.08060654,-0.02466366,0.03803072,-0.9986403,4.581697,-7.165782,36.49617,1008.315
28.232032776,0.03377064,-0.439245,0.04179226,-0.02277182,0.04196317,-1.002933,4.581697,-7.165782,36.49617,1008.319
28.267099857,-0.2123392,-0.2013212,-0.08060654,-0.02619411,0.04289493,-1.003882,4.954796,-7.587581,36.49803,1008.316
28.299662590,-0.2123392,0.2150453,-0.08060654,-0.02326643,0.04292204,-1.001467,4.585063,-7.595394,35.60708,1008.316
28.332224846,0.2798805,0.2745263,0.04179226,-0.01887228,0.04248229,-0.9990614,4.585063,-7.595394,35.60708,1008.318
28.367292404,1.079737,0.03660252,-0.1418059,-0.02176132,0.03953094,-0.9995871,4.213595,-7.171012,36.05129,1008.318
28.399851322,0.7105727,0.03660252,0.1029917,-0.02369015,0.0375685,-1.001065,4.585063,-7.595394,35.60708,1008.319
28.432413578,0.5259903,-0.2608022,-0.01940714,-0.02223015,0.03806466,-0.9991256,4.585063,-7.595394,35.60708,1008.319
28.464976311,-0.5815039,-0.3202831,-0.1418059,-0.02371955,0.04000024,-1.001511,4.953165,-7.590164,36.05196,1008.319
28.500043392,-0.2738667,-0.2608022,-0.08060654,-0.02420693,0.04094593,-0.9971462,4.952931,-7.590533,35.98824,1008.322
28.532606125,-0.2123392,-0.02287842,0.04179226,-0.0246947,0.0414167,-0.995205,4.952931,-7.590533,35.98824,1008.319
28.565168381,-0.458449,0.2745263,0.04179226,-0.02232276,0.0458436,-0.9999735,4.944673,-7.168671,35.53912,1008.323
28.600232124,0.03377064,-0.02287842,-0.01940714,-0.02375261,0.04386554,-0.9966186,4.216728,-7.600993,35.09847,1008.32
28.632794857,0.4029354,0.09608345,0.2253904,-0.02131339,0.04198662,-1.0039,4.216728,-7.600993,35.09847,1008.32
28.665357113,0.7105727,-0.02287842,0.04179226,-0.01882515,0.03811571,-1.000578,4.952931,-7.590533,35.98824,1008.324
28.700424194,0.7105727,-0.439245,-0.01940714,-0.02319238,0.03755507,-0.9967155,4.58483,-7.595763,35.54335,1008.322
28.732986927,-0.1508117,-0.02287842,-0.1418059,-0.02323944,0.0404947,-1.001988,4.58483,-7.595763,35.54335,1008.323
28.765549183,0.2798805,-0.02287842,0.1641911,-0.02028959,0.03810325,-1.002027,4.570889,-6.81009,35.09163,1008.323
28.800612450,0.218353,-0.2013212,-0.08060654,-0.0217641,0.03906042,-1.002978,4.592142,-7.956991,35.99203,1008.323
28.833175659,0.03377064,0.03660252,-0.01940714,-0.01638156,0.03718003,-1.001562,4.592142,-7.956991,35.99203,1008.326
28.865737915,-0.6430314,0.2150453,-0.08060654,-0.01783321,0.03809544,-0.9933288,4.58483,-7.595763,35.54335,1008.327
28.898300648,0.03377064,0.03660252,0.04179226,-0.02272114,0.03901695,-0.9962103,4.218592,-7.598041,35.60826,1008.326
28.933367729,0.4029354,-0.2013212,0.04179226,-0.02371872,0.03952312,-1.003452,4.218592,-7.598041,35.60826,1008.33
28.965929985,0.5875177,0.09608345,0.04179226,-0.02226277,0.04097792,-0.9985977,4.939224,-6.804491,35.60023,1008.33
28.998488426,0.4029354,0.03660252,-0.08060654,-0.0246572,0.03706769,-1.000589,4.94967,-7.595699,35.09609,1008.329
29.033555508,0.0952981,-0.1418403,0.1029917,-0.01834669,0.0395644,-0.997173,4.94967,-7.595699,35.09609,1008.332
29.066118240,-0.02775682,-0.498726,-0.08060654,-0.02367768,0.03659448,-1.000597,4.58483,-7.595763,35.54335,1008.33
29.098681450,-0.5815039,-0.02287842,0.1029917,-0.02179153,0.0424398,-0.9980925,4.58483,-7.595763,35.54335,1008.332
29.133748531,0.2798805,0.3340072,-0.08060654,-0.02273844,0.03999976,-0.9986122,4.58483,-7.595763,35.54335,1008.332
29.166310787,0.8951551,0.09608345,0.1029917,-0.02078141,0.03953265,-0.9971711,4.578202,-7.171317,35.54031,1008.33
29.198869228,0.8336276,-0.3202831,0.1029917,-0.02275174,0.04145089,-0.9971399,4.944673,-7.168671,35.53912,1008.333
29.233936310,-0.458449,-0.2608022,0.04179226,-0.02373361,0.04050153,-1.004887,4.944673,-7.168671,35.53912,1008.332
29.266499043,-0.5199764,0.1555644,0.1029917,-0.02124897,0.03663722,-1.003015,5.319402,-7.587887,35.98705,1008.334
29.299061298,-0.2738667,0.03660252,-0.08060654,-0.02326244,0.04339037,-0.9975932,4.576571,-7.1739,35.09423,1008.334
29.331624031,0.0952981,-0.2013212,-0.01940714,-0.01934547,0.04007278,-1.004898,4.576571,-7.1739,35.09423,1008.332
29.366691589,0.218353,-0.6176878,-0.01940714,-0.02183853,0.04395247,-1.010154,4.94967,-7.595699,35.09609,1008.333
29.399250031,-0.3353941,-0.2608022,0.1641911,-0.01984813,0.04152195,-1.004392,4.951301,-7.593116,35.54216,1008.331
29.431812763,-0.2738667,-0.3797641,-0.01940714,-0.02177101,0.04097548,-0.9966646,4.951301,-7.593116,35.54216,1008.332
29.466879845,-0.02775682,0.3934881,-0.01940714,-0.02568063,0.04142598,-1.000038,4.578202,-7.171317,35.54031,1008.332
29.499442101,0.7105727,0.5719309,0.04179226,-0.02272874,0.03855521,-1.001534,5.317771,-7.590469,35.54097,1008.332
29.532004833,1.387375,0.2150453,-0.01940714,-0.02324185,0.04049909,-1.002954,4.951301,-7.593116,35.54216,1008.334
29.567071915,0.4644628,0.3340072,0.2253904,-0.01588175,0.03668728,-0.9986693,4.951301,-7.593116,35.54216,1008.331
29.599630356,-0.9506686,0.1555644,-0.1418059,-0.02076608,0.0376022,-1.000101,4.58483,-7.595763,35.54335,1008.333
29.632193089,-0.9506686,-0.3202831,-0.1418059,-0.01637238,0.03811449,-0.9933299,4.586461,-7.59318,35.98943,1008.333
29.667260647,-0.5815039,-0.3797641,-0.08060654,-0.02472283,0.04241928,-1.001957,4.586461,-7.59318,35.98943,1008.33
29.699823380,0.2798805,-0.3797641,0.1029917,-0.02423506,0.04194852,-1.003898,4.588881,-7.962157,35.09989,1008.33
29.732385636,0.6490452,0.03660252,-0.1418059,-0.0217641,0.03906042,-1.002978,4.592142,-7.956991,35.99203,1008.328
29.764948368,0.5875177,0.3340072,-0.08060654,-0.01978339,0.03807444,-0.994294,4.592142,-7.956991,35.99203,1008.33
29.800011158,0.4029354,0.2150453,-0.01940714,-0.02030815,0.04051521,-0.9981232,4.955351,-7.95951,35.0987,1008.33
29.832573891,-0.5199764,-0.02287842,-0.01940714,-0.02126062,0.03713411,-1.005425,4.958613,-7.954344,35.99084,1008.327
29.865136147,-0.5199764,0.09608345,0.04179226,-0.02325636,0.04195243,-1.001966,4.958613,-7.954344,35.99084,1008.329
29.900203228,0.03377064,0.2150453,-0.3254041,-0.0222857,0.04244664,-1.000992,4.579833,-7.168734,35.98638,1008.326
29.932765961,0.7105727,0.09608345,0.1641911,-0.02323583,0.0404881,-1.000538,4.946303,-7.166088,35.98519,1008.328
29.965328217,0.8951551,-0.08235936,-0.08060654,-0.02125265,0.03807077,-0.9976763,4.946303,-7.166088,35.98519,1008.328
30.000391960,0.0952981,-0.2013212,-0.08060654,-0.02416221,0.03658373,-0.9996297,4.583199,-7.598346,35.09728,1008.327
30.032953739,-0.2738667,0.09608345,0.04179226,-0.02458308,0.03027375,-1.002626,5.311143,-7.166024,35.53793,1008.327
30.065516949,-0.1508117,-0.08235936,-0.01940714,-0.01835226,0.03862335,-1.003955,5.311143,-7.166024,35.53793,1008.327
30.100584030,-0.02775682,-0.02287842,0.04179226,-0.02177221,0.04097768,-0.9971481,4.218359,-7.59841,35.54454,1008.33
30.133146763,0.03377064,-0.1418403,-0.08060654,-0.02425083,0.044831,-0.9966034,5.319402,-7.587887,35.98705,1008.328
30.165709019,-0.02775682,-0.08235936,-0.01940714,-0.01742664,0.04157788,-1.009711,5.319402,-7.587887,35.98705,1008.328
30.198267460,0.1568255,-0.1418403,-0.08060654,-0.0183161,0.03713046,-0.9962433,4.938991,-6.80486,35.53651,1008.333
30.233335018,-0.02775682,0.09608345,0.04179226,-0.02317059,0.03466159,-1.001593,4.590511,-7.959574,35.54596,1008.33
30.265897274,0.0952981,-0.1418403,-0.08060654,-0.01837602,0.04056918,-1.004408,4.590511,-7.959574,35.54596,1008.328
30.298459530,0.4029354,-0.08235936,-0.01940714,-0.02468659,0.03949944,-1.001035,4.213362,-7.171381,35.98757,1008.33
30.333527088,0.2798805,0.1555644,-0.01940714,-0.02074992,0.03519463,-1.004971,4.952931,-7.590533,35.98824,1008.33
30.366089344,0.7105727,-0.08235936,-0.08060654,-0.02025899,0.03566931,-1.001098,4.952931,-7.590533,35.98824,1008.329
30.398647785,0.6490452,-0.08235936,0.1641911,-0.02127602,0.04049153,-0.9957058,4.944673,-7.168671,35.53912,1008.329
30.433714867,0.6490452,0.03660252,0.04179226,-0.02122807,0.03564782,-0.9991634,5.317771,-7.590469,35.54097,1008.327
30.466277599,0.7105727,-0.08235936,0.1029917,-0.02509904,0.03317407,-1.000648,5.317771,-7.590469,35.54097,1008.328
30.498839855,0.0952981,0.1555644,0.04179226,-0.02370225,0.03901744,-0.9991096,5.312774,-7.163441,35.984,1008.328
30.533907890,-0.5199764,-0.2608022,-0.08060654,-0.01979618,0.03714658,-1.003976,4.951301,-7.593116,35.54216,1008.328
30.566470146,-0.5815039,-0.2013212,0.04179226,-0.02219677,0.03610125,-0.9948051,4.951301,-7.593116,35.54216,1008.331
30.599028587,-0.8891412,-0.1418403,-0.1418059,-0.01934382,0.03911854,-1.00878,4.943041,-7.171253,35.09304,1008.331
30.631591320,0.2798805,-0.3202831,-0.2030053,-0.01937974,0.04394026,-1.000489,4.579833,-7.168734,35.98638,1008.332
30.666658402,0.8951551,-0.2608022,-0.01940714,-0.02464149,0.03561216,-1.001094,4.579833,-7.168734,35.98638,1008.332
30.699220658,0.5875177,0.09608345,0.04179226,-0.02954393,0.037987,-1.002987,4.218359,-7.59841,35.54454,1008.33
30.731783390,0.6490452,-0.2608022,-0.1418059,-0.02422017,0.04097011,-1.002463,4.578202,-7.171317,35.54031,1008.327
30.766850471,1.01821,-0.08235936,-0.01940714,-0.02709914,0.03704913,-1.003487,4.578202,-7.171317,35.54031,1008.329
30.799408913,1.387375,0.2745263,0.04179226,-0.02270176,0.03612787,-1.002055,4.946303,-7.166088,35.98519,1008.331
30.831971168,0.3414079,-0.1418403,-0.1418059,-0.02224548,0.03999512,-0.9961958,4.58483,-7.595763,35.54335,1008.331
30.867038250,-1.073724,-0.7961307,-0.2030053,-0.02805168,0.03509499,-1.003999,4.58483,-7.595763,35.54335,1008.328
30.899600983,-1.503509,0.1556535,-0.1417553,-0.02853464,0.03555697,-1.000124,4.579833,-7.168734,35.98638,1008.332
30.932163239,-1.742486,0.6895823,-0.2027224,-0.02760712,0.0408861,-0.9937602,4.944673,-7.168671,35.53912,1008.33
30.967230797,-1.795961,0.9837172,-0.08035478,-0.02221,0.03612542,-1.000122,4.944673,-7.168671,35.53912,1008.329
30.999789238,-1.666839,1.691556,-0.2023298,-0.01730749,0.03232362,-1.005018,4.944673,-7.168671,35.53912,1008.329
31.032351494,-2.765087,1.387089,-0.2015819,-0.01158104,0.0445036,-0.9951706,4.944673,-7.168671,35.53912,1008.331
31.064914227,-1.401834,-0.04377469,-0.07876452,-0.01356708,0.04787736,-0.9946337,4.944673,-7.168671,35.53912,1008.332
31.099981308,1.183125,-0.9337439,0.2269638,-0.01546253,0.0439515,-0.9917917,4.586461,-7.59318,35.98943,1008.33
31.132543564,2.896689,-1.404554,0.2263265,-0.02516676,0.04043194,-0.9937695,4.58483,-7.595763,35.54335,1008.331
31.165106297,2.834251,-0.7498221,-0.07974154,-0.02560803,0.03273236,-1.011771,4.58483,-7.595763,35.54335,1008.331
31.200169087,1.480647,0.4992776,-0.1409409,-0.02904355,0.0336883,-1.018037,4.956982,-7.956927,35.54477,1008.331
31.232731819,0.6807901,0.7372014,-0.1409409,-0.02756113,0.03509475,-1.002549,4.57252,-6.807507,35.5377,1008.332
31.265294075,-1.349616,2.105263,-0.1409409,-0.03050706,0.03938148,-0.9918469,4.213362,-7.171381,35.98757,1008.33
31.300361157,0.9884274,1.391492,0.1038567,-0.003184214,0.03488237,-0.9929085,4.213362,-7.171381,35.98757,1008.329
31.332923889,1.665229,-1.106708,0.165056,-0.009491181,0.03380603,-0.9880852,4.207681,-6.80757,35.98495,1008.329
31.365486145,-1.226561,-1.22567,-0.2021403,-0.01390039,0.03046839,-1.014717,4.944673,-7.168671,35.53912,1008.331
31.400549412,-4.672099,0.3803158,-0.3245391,-0.02024366,0.03373886,-1.004027,4.944673,-7.168671,35.53912,1008.329
31.433111668,-3.318495,-0.9877458,-0.1409409,-0.02230471,0.04581064,-0.9927233,4.94967,-7.595699,35.09609,1008.332
31.465674400,-0.1190668,-2.058403,-0.01854214,-0.02236545,0.04972648,-0.9989476,4.58483,-7.595763,35.54335,1008.33
31.498236656,2.034394,-1.166189,0.165056,-0.02332769,0.04921688,-0.9965374,4.58483,-7.595763,35.54335,1008.33
31.533304215,2.895779,-0.1550127,0.471053,-0.02756284,0.03747594,-0.9918787,5.311143,-7.166024,35.53793,1008.33
31.565866470,2.342031,0.2018729,0.165056,-0.02803553,0.03268742,-1.00887,4.211731,-7.173964,35.5415,1008.333
31.598424912,0.9269,0.6182395,0.1038567,-0.0241081,0.02887512,-1.014249,4.211731,-7.173964,35.5415,1008.331
31.633491993,-1.780308,0.6182395,-0.07974154,-0.02172553,0.03756313,-0.9942999,4.570889,-6.81009,35.09163,1008.331
31.666054726,-2.334055,-0.03605081,-0.2633397,-0.01646062,0.04683668,-0.9878796,4.588092,-7.590597,36.4355,1008.331
31.698616982,-1.226561,-0.5118983,0.04265726,-0.01938342,0.04537382,-0.9951498,4.588092,-7.590597,36.4355,1008.328
31.733684063,1.41912,-0.3334555,0.165056,-0.02081923,0.04197978,-1.001001,4.57252,-6.807507,35.5377,1008.33
31.766246796,4.187855,-0.2144936,0.2262554,-0.01731306,0.03138258,-1.0118,4.592142,-7.956991,35.99203,1008.329
31.798805237,4.0648,-0.5118983,0.1038567,-0.01585951,0.03284177,-1.007912,4.592142,-7.956991,35.99203,1008.329
31.833872318,3.141888,-0.809303,0.04265726,-0.02655265,0.03314183,-0.9977463,4.940622,-6.802277,35.98258,1008.332
31.866434574,1.41912,0.142392,0.1038567,-0.03156043,0.04094079,-1.016958,4.578202,-7.171317,35.54031,1008.332
31.898997307,1.849812,2.164744,-0.01854214,-0.03587692,0.03600696,-1.013162,4.578202,-7.171317,35.54031,1008.328
31.931559563,2.649669,3.770729,-0.1409409,-0.02347643,0.02148295,-0.9901932,4.213362,-7.171381,35.98757,1008.331
31.966626644,2.772724,3.056958,-0.3245391,-0.03766337,0.02522344,-0.9983398,4.566839,-6.443696,35.53508,1008.329
31.999185085,2.342031,3.354363,-0.2633397,-0.01788811,0.0372445,-1.019927,4.566839,-6.443696,35.53508,1008.326
32.031747818,4.372438,3.711248,-0.07974154,-0.01921776,0.02794922,-1.0104,5.309512,-7.168607,35.09186,1008.326
32.066814899,8.002557,6.090486,-0.2633397,-0.009735188,0.01052659,-0.9995578,4.213362,-7.171381,35.98757,1008.326
32.099377155,10.27907,7.815434,0.2262554,-0.004155088,0.02202263,-1.053043,4.213362,-7.171381,35.98757,1008.324
32.131939888,17.97001,6.804257,0.2262554,-0.009715489,0.009539385,-0.9961892,4.213362,-7.171381,35.98757,1008.323
32.167006969,-5.287373,6.744776,-0.3245391,-0.003135842,-0.005577507,-0.9664568,4.202,-6.443759,35.98235,1008.325
32.199565411,-16.60842,7.220623,-1.058932,-0.002009773,0.01740674,-0.9941431,4.202,-6.443759,35.98235,1008.325
32.232128143,-10.20957,10.19467,-1.609726,-0.0133318,0.0255695,-1.004642,3.829848,-6.082595,35.98092,1008.324
32.267195225,-10.57874,6.863738,-1.732125,-0.02267887,0.02704943,-1.03603,4.202,-6.443759,35.98235,1008.326
32.299757481,5.110767,4.365539,-1.854524,-0.02393551,0.04419958,-1.070087,4.202,-6.443759,35.98235,1008.33
32.332320213,30.39855,-4.556602,-2.405318,-0.001250782,0.06817131,-1.039774,3.471478,-6.81803,35.09519,1008.329
32.364882469,-5.102791,-18.65359,-2.099322,0.02025272,0.1780637,-0.8839205,3.047191,-6.815951,35.98872,1008.329
32.400063038,-62.32333,-3.010098,-4.3637,0.09317581,-0.02642986,-0.9146631,3.047191,-6.815951,35.98872,1008.326
32.432625294,6.772008,-8.24442,-0.2021403,0.06159974,-0.09398595,-1.004605,3.461746,-6.087825,35.53604,1008.328
32.465187073,16.86251,-18.05877,1.083047,0.02061885,0.04052972,-0.9909118,3.498412,-8.328742,35.99821,1008.326
32.500255108,-14.51649,-17.16656,-1.120131,0.01724097,0.03519741,-1.003558,3.498412,-8.328742,35.99821,1008.327
32.532816887,-17.10064,-7.173764,-1.487328,0.06298068,0.07432371,-1.032974,3.863251,-8.328678,35.55095,1008.327
32.565379143,-20.30007,-4.318679,-2.527717,-0.03351832,0.0779761,-1.043943,4.594562,-8.325968,35.1025,1008.327
32.600442410,-36.4818,-15.67954,-1.487328,-0.05568435,0.08766568,-1.100329,4.594562,-8.325968,35.1025,1008.324
32.633005142,-44.91106,-27.39728,0.5322524,-0.05694836,0.0896652,-1.009906,4.229722,-8.326032,35.54976,1008.328
32.665567398,-23.00728,-28.5869,-0.9365332,-0.09618959,0.07403935,-0.999472,5.350227,-9.775917,35.11057,1008.325
32.700634480,-20.91535,-30.13341,-0.6305361,-0.09486013,0.1042619,-0.9091042,5.728061,-10.50089,35.1146,1008.325
32.733197212,-2.395583,-29.18171,-1.058932,-0.1073006,0.1592304,-0.9551411,5.728061,-10.50089,35.1146,1008.329
32.765759468,-1.841836,-26.92144,-2.22172,-0.151462,0.1493412,-0.9378477,7.209356,-11.58432,34.67161,1008.326
32.798317909,-9.102077,-27.39728,-2.160521,-0.1622401,0.2438566,-0.9122266,7.209356,-11.58432,34.67161,1008.324
32.833384991,-30.51363,-24.12583,-7.178872,-0.1451495,0.1513586,-0.9358896,7.206094,-11.58949,33.77946,1008.325
32.865947723,-22.33048,-11.39691,-9.688046,-0.1554367,0.1423006,-1.003691,7.944716,-11.948,33.7797,1008.325
32.898509979,-47.43369,-19.30787,-12.01362,-0.2057107,0.2193327,-0.8811393,9.048179,-12.30646,33.33267,1008.323
32.933577061,-66.26109,-24.36375,-19.11275,-0.2160923,0.2399352,-0.8460118,9.048179,-12.30646,33.33267,1008.325
32.966139793,-64.84595,-22.3414,-14.95119,-0.239928,0.2385725,-1.04081,9.796532,-13.39518,32.89206,1008.322
32.998697758,-43.00371,-34.05915,-7.178872,-0.1588559,0.3141696,-1.186199,10.54731,-14.85288,31.5619,1008.326
33.033765316,-37.03555,-38.04437,2.980228,-0.2833389,0.3592551,-1.091132,10.54731,-14.85288,31.5619,1008.326
33.066327095,-56.72433,-38.04437,9.95696,-0.3644652,0.3996955,-0.8134619,11.30702,-16.66922,31.12651,1008.325
33.098889828,-35.06667,-21.56815,-0.7529349,-0.2286119,0.2456958,-0.7598708,12.41104,-17.3996,29.28016,1008.325
33.133956909,-36.85096,-19.8432,0.04265726,-0.1403119,0.3467349,-0.8154529,12.41104,-17.3996,29.28016,1008.322
33.166519165,-32.9132,-12.58653,3.102627,-0.1906985,0.3883017,-0.9085453,13.15613,-18.49349,27.9474,1008.324
33.199077606,-32.29793,-12.64601,5.428204,-0.2664531,0.4011427,-0.9566139,13.17559,-19.9539,27.0657,1008.324
33.231640339,-48.17201,-27.57573,9.712162,-0.2955135,0.3866835,-0.9597067,13.17559,-19.9539,27.0657,1008.322
33.266707420,-61.64653,-16.09591,15.8933,-0.3732435,0.4703605,-0.8805314,13.9249,-21.10326,26.62551,1008.325
33.299269676,-108.715,-33.34538,18.46368,-0.6077573,0.4137337,-0.8570002,14.29947,-21.8334,25.73741,1008.326
33.331832409,-179.8408,-53.98526,25.68521,-0.7648355,0.5666121,-0.8322809,14.29947,-21.8334,25.73741,1008.33
33.366899490,-213.8654,-90.14967,25.25681,-0.7927911,0.4549016,-1.246279,14.31888,-24.03951,21.73843,1008.33
33.399457932,-137.1407,-48.69146,10.81375,-0.1436948,0.6543406,-1.134136,14.34289,-26.98394,15.89665,1008.327
33.432019711,-272.4396,64.14388,3.163826,-0.2560949,0.221364,-1.36202,14.34289,-26.98394,15.89665,1008.329
33.467086792,92.3567,103.4608,-32.69902,-0.455954,-0.2933718,-1.496808,14.35009,-28.83657,10.11077,1008.327
33.499649525,45.16514,145.5138,-64.09431,-0.3054357,0.3635309,-1.344818,12.89473,-29.94893,8.339075,1008.329
33.532211781,94.32558,146.644,-77.68058,-0.4211049,0.2105888,-1.176891,12.89473,-29.94893,8.339075,1008.329
33.567278862,57.4091,145.8707,-89.24727,-0.4411049,0.4347154,-0.7190785,12.12691,-27.3998,9.66139,1008.324
33.599837303,18.70834,120.1154,-97.75398,-0.5390754,0.5277833,-0.3071772,11.72309,-25.22474,8.75477,1008.32
33.632400036,-100.5319,116.4871,-98.12118,-0.4377268,0.1347838,-0.1658408,11.72309,-25.22474,8.75477,1008.322
33.664962292,-63.67693,99.654,-115.4406,-0.5436584,-0.1761859,0.04558662,11.67759,-23.05996,5.616598,1008.323
33.700029373,28.30662,49.63053,-134.7796,-0.8568472,0.02702905,0.2022197,12.74662,-22.72732,-1.144382,1008.323
33.732591152,42.51946,4.841386,-153.017,-0.9470479,0.1580642,-0.01321371,12.74662,-22.72732,-1.144382,1008.323
33.765153885,135.3644,-42.86233,-156.689,-0.9762608,0.5690017,-0.04558624,16.4512,-22.73399,-6.955403,1008.32
33.800217152,102.7548,-80.21635,-145.4283,-0.9415473,1.109721,-0.005467471,23.42624,-24.52859,-11.42565,1008.32
33.832779407,-64.969,-98.12012,-138.0232,-0.856151,1.055331,-0.1963468,23.42624,-24.52859,-11.42565,1008.318
33.865341663,-130.5573,-85.56964,-127.5581,-0.8605502,0.6743622,-0.2239067,31.95749,-27.75707,-14.10612,1008.318
33.900409222,-94.80982,-82.77404,-119.6634,-0.9784583,0.6363826,-0.2258224,39.68656,-31.0042,-19.01438,1008.316
33.932971477,-100.9626,-69.92616,-118.5618,-0.9066727,0.7005629,-0.2394139,39.68656,-31.0042,-19.01438,1008.319
33.965534210,-62.50791,-53.33097,-119.6634,-1.133902,0.3747289,-0.311355,45.99874,-32.41658,-19.47041,1008.318
34.000597000,54.76342,-91.57722,-104.5471,-1.286751,0.7811674,-0.1377583,47.44842,-30.94042,-17.70132,1008.322
34.033158779,-21.0384,-78.61037,-111.2178,-1.137781,0.9931164,-0.1482031,47.44842,-30.94042,-17.70132,1008.321
34.065721512,-85.70376,-75.57684,-105.2203,-1.055927,0.3371584,-0.2694663,47.75565,-26.93069,-16.83909,1008.321
34.098283768,78.51302,-73.13812,-92.06244,-1.168353,0.4789984,-0.3604855,47.31449,-22.57794,-18.65352,1008.324
34.133350849,20.24652,-75.63632,-84.41251,-1.182528,0.5724976,-0.3348766,47.31449,-22.57794,-18.65352,1008.324
34.165913582,33.10576,-67.36848,-73.09062,-1.045163,0.2886913,-0.4804851,46.85532,-17.07312,-20.47623,1008.325
34.198472023,26.52232,-54.63955,-51.91563,-1.153043,0.1448363,-0.4704911,47.15357,-13.45045,-23.62603,1008.33
34.233539105,3.080361,-65.52457,-36.18739,-0.9843373,0.05827305,-0.4033352,47.15357,-13.45045,-23.62603,1008.33
34.266100884,-4.856681,-49.88108,-25.47749,-0.8837199,-0.04027152,-0.3546645,46.73512,-10.55294,-25.43002,1008.331
34.298663616,-28.4217,-35.18929,-22.11152,-0.9665417,-0.16239,-0.3501637,46.32455,-8.388594,-28.18465,1008.332
34.333730698,-4.672099,-30.19289,-19.05155,-0.914995,-0.1805592,-0.2688,46.32455,-8.388594,-28.18465,1008.331
34.366292954,2.034394,-21.62763,-21.98913,-1.00439,-0.0429097,-0.122084,45.55573,-6.52453,-29.98005,1008.335
34.398851395,-173.3188,-75.27944,-47.93767,-1.602692,-0.2274753,0.6954848,44.7968,-5.079747,-30.88026,1008.335
34.433918476,37.72032,-38.81762,-13.05401,-1.38959,0.07857389,0.2716764,44.76918,-3.632253,-32.22892,1008.336
34.466481209,41.96571,-41.61323,-0.6305361,-0.9319758,0.3507045,0.09702039,44.76918,-3.632253,-32.22892,1008.337
34.499042988,6.833536,-29.47912,-0.01854214,-1.043197,-0.01568374,-0.1283985,43.97453,-0.007187843,-33.59087,1008.342
34.531605244,-32.35946,-20.25957,-2.894914,-1.074453,-0.08852457,0.08755661,43.97453,-0.007187843,-33.59087,1008.342
34.566672325,-5.471955,-19.90269,-4.118902,-1.378087,-0.2601916,-0.2236471,42.88159,-0.7504988,-34.9203,1008.342
34.599231243,6.710481,-49.1673,-3.26211,-1.133938,-0.0450363,-0.1326257,42.86292,0.3383508,-35.37421,1008.343
34.631793499,-6.33334,-34.23759,-6.505679,-0.7885399,-0.1571201,0.173242,42.10804,1.41674,-36.71788,1008.345
34.666860581,-15.37788,-17.0476,-13.72721,-0.9382467,-0.09785396,0.1776743,42.10804,1.41674,-36.71788,1008.349
34.699422360,0.1885704,-28.05157,-10.54484,-1.095301,0.008370076,-0.01052064,40.22434,0.6728606,-37.15259,1008.346
34.731985092,-18.45425,-22.3414,-12.25842,-0.9001234,-0.2653421,0.03296943,39.84729,1.026276,-38.49223,1008.346
34.767052174,-6.08723,-22.51985,-7.117672,-0.9848378,-0.2023201,0.1451894,39.84729,1.026276,-38.49223,1008.347
34.799610615,3.818691,-20.25957,-1.915723,-0.9904881,-0.1357987,0.1428261,38.71947,2.837389,-38.50171,1008.351
34.832172871,-4.733626,-11.87276,-2.099322,-0.9652729,-0.1594756,0.1844943,37.61112,3.188094,-39.3929,1008.352
34.867239952,3.572581,-3.78335,-1.487328,-0.9741427,-0.1066612,0.1944928,37.61112,3.188094,-39.3929,1008.351
34.899801731,1.357592,7.161142,-0.2633397,-0.9591495,-0.1903504,0.1516311,37.60381,3.549322,-39.84158,1008.351
34.932364464,-1.718781,14.95315,0.77705,-0.9473037,-0.1572509,0.1743599,37.61112,3.188094,-39.3929,1008.355
34.964926720,1.234537,20.78228,2.735431,-0.966005,-0.149522,0.1314754,37.61112,3.188094,-39.3929,1008.354
34.999989986,-10.88637,27.68207,4.387814,-0.9646828,-0.1810605,0.1237423,37.61112,3.188094,-39.3929,1008.353
35.032552719,-1.165034,31.60781,10.99735,-0.9825183,-0.1640844,0.08051459,38.71137,3.570177,-37.61479,1008.352
35.065114498,2.342031,28.8122,13.01693,-0.9943163,-0.1588017,0.06078811,38.71137,3.570177,-37.61479,1008.352
35.100181580,-2.395583,22.80463,12.58853,-0.9984922,-0.1416941,0.02770014,39.8181,3.21689,-37.16967,1008.354
35.132743835,9.048524,11.50325,15.9545,-1.032682,-0.08968698,0.03577723,40.19188,2.858308,-36.72218,1008.354
35.165306568,12.67864,-3.188541,9.773361,-1.048076,-0.08363096,-0.05692386,40.19188,2.858308,-36.72218,1008.357
35.200369358,-2.518638,-23.94739,-5.587687,-1.167482,-0.07786065,-0.06493799,40.93377,2.504957,-35.8298,1008.355
35.232932091,73.59083,-52.20084,-18.56196,-1.476995,-0.1844371,-0.278951,40.94918,1.410943,-36.26804,1008.355
35.265493870,78.14386,-79.20518,-27.37467,-1.506966,0.02518863,-0.1853325,40.94918,1.410943,-36.26804,1008.354
35.300560951,71.0682,-108.2319,-34.2902,-1.236253,0.2576817,-0.3024076,39.84161,1.390087,-38.49483,1008.357
35.333123684,8.248667,-65.1082,-25.0491,-0.6335316,0.1705755,-1.003765,36.20284,-0.8321605,-40.69764,1008.356
35.365685940,76.79025,23.99425,11.11975,-0.3454898,0.5718098,-1.198039,36.20284,-0.8321605,-40.69764,1008.352
35.398244381,55.99397,106.1374,37.31309,-0.4807786,0.6407616,-0.8265899,32.55028,-1.957809,-42.01614,1008.352
35.433311463,32.73659,163.8934,55.73411,-0.865003,0.452069,-0.5149029,33.33362,-4.10955,-37.54213,1008.356
35.465873242,-0.549759,194.4666,64.54682,-1.155267,0.2665413,-0.2022916,33.33362,-4.10955,-37.54213,1008.359
35.498435974,0.2500979,200.2958,71.15635,-1.240988,0.2385136,0.2614053,37.41036,-5.499517,-31.29975,1008.355
35.533503056,-98.8091,198.9277,76.05231,-1.511794,-0.2517343,0.3083255,42.27572,-5.773867,-21.88156,1008.353
35.566065312,-118.1903,146.2871,40.74026,-1.673069,-1.211638,0.4905709,42.27572,-5.773867,-21.88156,1008.356
35.598623276,59.31646,21.79345,-0.8141344,-1.529217,-1.094086,1.126416,45.24579,-6.064843,-12.96702,1008.356
35.633690357,61.90061,-61.0635,-41.87893,-1.295889,-1.116933,0.8362993,45.26941,-6.400241,-8.057614,1008.356
35.666253090,645.2424,-3.426464,24.95081,-1.19745,1.554169,-3.96793,45.26941,-6.400241,-8.057614,1008.357
35.698815346,-405.0313,15.13159,-37.22778,-0.2517537,0.2690262,0.4474994,44.51858,-5.688245,-9.844747,1008.356
