Time (s),Gyroscope X (deg/s),Gyroscope Y (deg/s),Gyroscope Z (deg/s),Accelerometer X (g),Accelerometer Y (g),Accelerometer Z (g),Magnetometer X (uT),Magnetometer Y (uT),Magnetometer Z (uT),Barometer (hPa)
0.021976471,-0.03944254,0.1832445,-0.1465425,-0.005002967,-0.08752427,-0.995301,-2.06575,12.33051,42.43164,1007.43
0.056739807,0.2697827,-0.05207656,-0.02480158,-0.0001745862,-0.08705109,-1.00256,-2.417203,12.70465,42.86826,1007.43
0.089023590,0.1452215,-0.1112114,-0.02471977,0.0003140998,-0.08702841,-0.9962766,-2.053765,12.33614,42.86736,1007.434
0.121307373,-0.1646361,0.1232061,0.0362259,0.0003075033,-0.08558973,-1.000136,-2.053765,12.33614,42.86736,1007.434
0.156074524,-0.349815,0.1232911,-0.08547044,-0.0001690735,-0.09191494,-1.00984,-2.06575,12.33051,42.43164,1007.434
0.188357830,-0.101427,-0.05302522,0.03652994,-0.004047697,-0.0870818,-1.008353,-2.791965,12.703,42.43805,1007.434
0.223124981,0.1462322,0.005781822,-0.0854733,-0.001620874,-0.08703721,-0.9972394,-2.791965,12.703,42.43805,1007.434
0.255404949,0.2072404,0.005831927,0.1580454,-0.002100842,-0.09142181,-1.005482,-2.066411,12.69503,42.42702,1007.434
0.290172100,0.2678186,0.005382851,-0.08595228,-0.005474613,-0.09627241,-1.005985,-2.791304,12.33849,42.44267,1007.434
0.322455883,-0.104143,0.2982303,-0.0248715,-0.0006484557,-0.08945573,-0.9977387,-2.791304,12.33849,42.44267,1007.432
0.354738712,-0.288959,0.06262704,-0.08550042,-0.004995352,-0.09091341,-0.9958038,-2.076684,12.6902,42.05354,1007.432
0.389505863,0.02202189,-0.2312903,-0.02439493,-0.005495171,-0.08707284,-1.004483,-2.064038,12.33131,42.49389,1007.434
0.421790123,0.08406067,0.06243023,-0.02444848,-0.002103172,-0.09094279,-1.006929,-2.064038,12.33131,42.49389,1007.432
0.456552982,0.3309252,0.06278203,-0.02447483,-0.005486848,-0.09143639,-1.006925,-2.054426,12.70066,42.86275,1007.432
0.488836765,0.3297318,-0.05482424,0.09739132,-0.001142822,-0.08656992,-1.002555,-2.42985,13.06353,42.42792,1007.436
0.523603916,0.0193491,0.003898337,-0.08518922,-0.00451135,-0.09481949,-1.006463,-2.42985,13.06353,42.42792,1007.432
0.555887222,-0.2284687,0.1799171,0.09754075,-0.004521836,-0.08802156,-0.9996558,-2.428527,12.3345,42.43715,1007.431
0.588171005,-0.1041926,0.003793485,0.0363936,-0.0006453991,-0.0953071,-1.010825,-2.051391,11.97243,42.93423,1007.429
0.622938156,0.1440626,-0.2311262,-0.02442002,0.0007873646,-0.08706962,-1.008847,-2.051391,11.97243,42.93423,1007.429
0.655218124,-0.1038558,0.06257507,0.1585781,0.0007958547,-0.08947779,-1.005477,-1.702973,12.32652,42.42612,1007.427
0.689985275,-0.04195088,-0.1134027,-0.02429029,-0.004995603,-0.09384646,-1.004522,-2.079058,13.05391,41.98668,1007.424
0.722268581,-0.1038119,-0.05455043,-0.08517018,-0.00548308,-0.08897744,-0.9953083,-2.079058,13.05391,41.98668,1007.422
0.754552364,0.0205391,0.1801517,-0.02428371,-0.007903349,-0.09094954,-1.004016,-2.428527,12.3345,42.43715,1007.422
0.789319515,0.08218956,-0.05482424,-0.08519423,0.001286267,-0.09237999,-1.005494,-2.42985,13.06353,42.42792,1007.422
0.821603298,0.3911201,0.003586546,0.03659518,-0.008392531,-0.08755361,-1.001095,-2.077735,12.32487,41.99591,1007.422
0.856366634,0.2657675,-0.05520543,0.03647275,-0.004036918,-0.09045783,-1.004989,-2.077735,12.32487,41.99591,1007.422
0.888649464,-0.04419267,-0.1141436,0.03653423,-0.002107313,-0.0885166,-1.004982,-2.077735,12.32487,41.99591,1007.422
0.923518181,-0.04327953,-0.1725849,0.0364695,0.0007993717,-0.0899519,-1.002579,-2.053765,12.33614,42.86736,1007.42
0.955801964,0.019162,-0.1137307,-0.02437153,-0.00693455,-0.0894737,-0.9977252,-2.053765,12.33614,42.86736,1007.42
0.988085747,0.142895,-0.05461935,0.03642006,-0.005003051,-0.08850196,-0.9982072,-2.04139,13.07162,43.35611,1007.419
1.022852898,0.2660207,0.1218944,0.03633659,-0.002112016,-0.08804742,-1.00933,-2.077735,12.32487,41.99591,1007.419
1.055131912,-0.1065946,-0.3469359,0.03645624,-0.006461908,-0.08756281,-1.00545,-2.077735,12.32487,41.99591,1007.419
1.089899063,0.0173347,-0.4038214,-0.0240902,-0.004034857,-0.08947197,-0.9996651,-2.053765,12.33614,42.86736,1007.419
1.122183323,0.3268406,-0.3440435,-0.1457396,-0.005012644,-0.08512101,-1.000122,-1.702973,12.32652,42.42612,1007.422
1.156950474,-0.5401839,-0.1674741,-0.206098,-0.004523544,-0.08949464,-1.005949,-1.702973,12.32652,42.42612,1007.422
1.189234257,-0.9090072,-0.5186583,-0.2662939,-0.005004237,-0.08850688,-0.9996576,-1.690988,12.33216,42.86185,1007.424
1.221517086,-0.03858447,0.1864529,-0.1437475,-0.01033063,-0.08708667,-1.004472,-2.428138,13.06433,42.49017,1007.426
1.256280422,0.3949138,0.36119,0.03924654,-0.007426315,-0.08853181,-1.00497,-2.428138,13.06433,42.49017,1007.426
1.288564205,-0.3487854,-0.1096279,0.09983627,-0.001616859,-0.09092993,-1.003546,-1.689276,12.33296,42.9241,1007.426
1.323331356,-0.2844451,0.1834096,0.1603959,-0.003065477,-0.09043705,-0.9996727,-1.690988,12.33216,42.86185,1007.426
1.355615139,0.2122311,0.006995745,-0.02258319,-0.004523022,-0.08802647,-1.001106,-1.690988,12.33216,42.86185,1007.426
1.390382290,-0.09786862,0.2406709,0.09886245,-0.005499,-0.0856227,-1.004958,-2.076684,12.6902,42.05354,1007.422
1.422665596,-0.7775854,0.415338,-0.145074,-0.002600098,-0.08562423,-1.007865,-2.403505,12.71109,43.36624,1007.422
1.454945564,-0.5267549,0.4139763,0.0378236,-0.001154308,-0.08221947,-1.003981,-2.403505,12.71109,43.36624,1007.422
1.489712715,0.650568,0.1777347,-0.02313024,0.0003141836,-0.08605073,-0.9933704,-2.429188,12.69901,42.43254,1007.422
1.521996498,1.390297,-0.3510378,0.09850131,-0.0006634586,-0.08463119,-1.002062,-1.702312,11.96201,42.43074,1007.422
1.556763649,1.755434,-0.2905913,0.09852768,-0.005020468,-0.08417608,-1.006884,-1.702312,11.96201,42.43074,1007.426
1.589046955,1.871525,-0.4065729,0.03758694,-0.006468026,-0.08514481,-1.00592,-2.077074,11.96036,42.00053,1007.426
1.621330738,1.554417,-0.3460654,0.03754811,-0.005970477,-0.09241547,-1.00983,-1.704296,13.05555,42.41689,1007.424
1.656093597,0.7434725,-0.6369374,-0.02388251,-0.002075413,-0.09913518,-0.9968237,-2.414829,12.34094,42.93513,1007.424
1.688377857,0.05945152,-0.4584355,-0.08547127,-0.007405674,-0.09675366,-1.003567,-2.414829,12.34094,42.93513,1007.424
1.723145008,-1.239611,0.07092546,0.2794399,-0.01320695,-0.09578767,-0.9991979,-1.702973,12.32652,42.42612,1007.426
1.755428791,-2.533147,0.4809843,-0.08638749,-0.005004531,-0.09192877,-1.009829,-1.702312,11.96201,42.43074,1007.424
1.790194988,-2.589049,1.125234,-0.1471575,-0.003571413,-0.08417848,-1.008821,-1.702312,11.96201,42.43074,1007.424
1.822479248,-0.9777339,1.125234,-0.02527615,0.004637983,-0.0773587,-1.002516,-2.064699,12.69583,42.48927,1007.424
1.854758739,1.439239,0.4208008,0.09660529,0.002710978,-0.08124384,-1.004951,-2.440123,13.0587,42.05444,1007.424
1.889525890,3.112528,-0.5771464,0.09660529,0.008036391,-0.08022474,-0.9943208,-2.440123,13.0587,42.05444,1007.424
1.921809673,3.48437,-1.164174,0.157546,0.0003403795,-0.09864761,-0.9977931,-2.053375,13.06598,42.92038,1007.424
1.956576347,1.997002,-0.8706603,0.157546,-0.003046668,-0.1015985,-1.008922,-2.062715,11.60228,42.50312,1007.426
1.988860130,-0.1720762,-0.8119575,-0.2080983,-0.01028722,-0.1064536,-1.007483,-2.062715,11.60228,42.50312,1007.426
2.023627281,-2.031286,-0.5184436,-0.2690389,-0.01320945,-0.09726401,-1.006458,-2.42985,13.06353,42.42792,1007.426
2.055907249,-2.279181,0.5969092,-0.02527615,-0.01611676,-0.09387662,-1.004015,-2.054426,12.70066,42.86275,1007.426
2.088191032,-1.287602,0.8904231,-0.02527615,-0.003076819,-0.08901804,-1.009333,-2.054426,12.70066,42.86275,1007.426
2.122958183,0.323713,0.8317203,0.2184867,-0.008397067,-0.08512905,-0.999631,-1.704296,13.05555,42.41689,1007.424
2.155241489,1.873055,0.4795036,0.4622495,0.02206311,-0.0855439,-1.005017,-2.427476,12.69982,42.49479,1007.424
2.190008640,-0.9157602,-0.8706603,-0.3909203,0.01435516,-0.08642413,-0.9726149,-2.427476,12.69982,42.49479,1007.424
2.222292423,-3.022865,-1.986013,-0.5128018,-0.008859637,-0.08944156,-0.9866016,-1.703635,12.69104,42.4215,1007.422
2.254572392,-1.597471,-1.809905,0.157546,-0.03015715,-0.09594416,-1.031069,-2.066411,12.69503,42.42702,1007.422
2.289339542,1.563186,1.24264,0.4622495,-0.0287171,-0.09500656,-1.041219,-2.066411,12.69503,42.42702,1007.422
2.321622372,2.80266,2.123181,0.4622495,-0.00547559,-0.0938331,-1.00017,-2.428527,12.3345,42.43715,1007.422
2.356389522,1.377265,1.301342,0.09660529,0.009539178,-0.08977795,-0.9586038,-2.076023,12.32568,42.05816,1007.421
2.388673782,-1.101681,0.3033953,-0.2690389,0.009991718,-0.08257497,-0.9754842,-2.076023,12.32568,42.05816,1007.421
2.423440933,-2.279181,0.3033953,-0.2690389,0.005605758,-0.08321713,-1.018505,-2.06575,12.33051,42.43164,1007.419
2.455720425,-0.9777339,-0.8119575,-0.08621684,-0.0006864767,-0.08570388,-1.033008,-2.428527,12.3345,42.43715,1007.421
2.488004207,1.377265,-1.164174,0.03566457,-0.008871127,-0.09437585,-1.014669,-2.428527,12.3345,42.43715,1007.421
2.522770882,3.050554,-0.3423353,0.03566457,-0.01175796,-0.09188097,-0.9899933,-2.4388,12.32967,42.06367,1007.423
2.555054665,1.997002,0.1859897,-0.08621684,-0.01319426,-0.0952464,-0.9822744,-2.064038,12.33131,42.49389,1007.423
2.589821815,-0.3579972,0.8317203,0.03566457,-0.005488053,-0.08704336,-0.9957807,-2.064699,12.69583,42.48927,1007.423
2.622105598,-1.473523,1.360045,-0.1471575,0.002725646,-0.08997913,-1.012252,-2.064699,12.69583,42.48927,1007.423
2.656868935,-0.6678655,0.8317203,0.03566457,0.002230842,-0.0875838,-1.019006,-2.052714,12.70147,42.925,1007.423
2.689152718,0.01384473,0.3033953,0.09660529,0.0003312661,-0.09428734,-0.9963179,-2.064699,12.69583,42.48927,1007.423
2.721436024,-0.5439183,-0.1075242,-0.02527615,-0.0001419985,-0.09424613,-0.9837471,-2.064699,12.69583,42.48927,1007.421
2.756203175,-1.597471,-0.2836325,-0.1471575,0.0007895929,-0.08412836,-0.9977115,-2.415491,12.70545,42.93051,1007.423
2.788486958,-1.907339,-0.166227,-0.08621684,-0.00114994,-0.0865994,-1.011258,-2.417203,12.70465,42.86826,1007.423
2.823254108,-0.1720762,-0.5184436,-0.08621684,-0.005508676,-0.08321944,-1.009779,-2.417203,12.70465,42.86826,1007.423
2.855534077,2.058976,-0.4597408,0.03566457,-0.001131378,-0.09140921,-1.002583,-2.417864,13.06916,42.86365,1007.423
2.890301228,1.873055,-0.5184436,-0.02527615,-0.009342853,-0.09481694,-1.001618,-2.428527,12.3345,42.43715,1007.423
2.922584057,0.3856867,-0.0488214,-0.2080983,-0.009344039,-0.09482186,-1.003068,-2.428527,12.3345,42.43715,1007.427
2.954868317,-1.163655,0.4795036,-0.08621684,-0.005976344,-0.0870644,-1.001581,-2.428527,12.3345,42.43715,1007.425
2.989635468,-1.349576,0.5969092,-0.2080983,-0.005971142,-0.09095221,-1.006438,-2.428527,12.3345,42.43715,1007.425
3.021919250,-0.0481289,0.5969092,0.157546,-0.0001792895,-0.08658189,-1.006909,-2.428527,12.3345,42.43715,1007.425
3.056682110,0.8195023,0.1859897,0.09660529,0.002263555,-0.09331232,-0.995833,-2.06575,12.33051,42.43164,1007.425
3.088965416,0.5096341,-0.4010381,0.03566457,0.002746352,-0.09282537,-0.9953479,-2.440512,12.32886,42.00143,1007.423
3.121249199,-0.9777339,-0.2249297,-0.02527615,-0.002096492,-0.09140378,-1.000164,-2.440512,12.32886,42.00143,1007.427
3.156016350,-1.845365,-0.1075242,0.157546,-0.003564235,-0.08805811,-1.011261,-2.066411,12.69503,42.42702,1007.427
3.188300133,-1.473523,-0.166227,-0.08621684,-0.00551136,-0.08225321,-1.010257,-2.791965,12.703,42.43805,1007.427
3.223067284,-0.3579972,0.06858415,0.03566457,-0.007920347,-0.08173525,-0.9981624,-2.791965,12.703,42.43805,1007.425
3.255347252,0.9434497,0.362098,0.157546,-0.005481084,-0.09336719,-1.005486,-2.428527,12.3345,42.43715,1007.429
3.290113926,1.191344,0.4208008,0.157546,-0.003546817,-0.09238398,-1.002583,-2.791965,12.703,42.43805,1007.429
3.322397709,0.695555,0.362098,-0.08621684,-0.004028261,-0.09091064,-0.9958058,-2.791965,12.703,42.43805,1007.429
3.354681492,0.1377921,0.06858415,0.03566457,0.002226995,-0.08173571,-1.006886,-2.426815,12.3353,42.4994,1007.429
3.389448643,-0.2340499,-0.1075242,-0.08621684,0.006112401,-0.09045009,-1.011295,-2.053765,12.33614,42.86736,1007.431
3.421732426,-0.7918129,-0.4597408,-0.1471575,-0.005493714,-0.08853282,-1.006908,-2.440512,12.32886,42.00143,1007.431
3.456495762,-0.5439183,-0.8119575,-0.1471575,-0.008375199,-0.09285717,-0.9953241,-2.440512,12.32886,42.00143,1007.431
3.488778591,-0.4199709,-0.166227,-0.02527615,-0.004522711,-0.08900252,-1.003529,-1.702312,11.96201,42.43074,1007.431
3.523546219,0.5716076,0.4795036,-0.02527615,-0.004997227,-0.09434186,-1.007909,-1.702973,12.32652,42.42612,1007.431
3.555830002,0.881476,0.009881377,-0.02527615,-0.007906428,-0.08998497,-1.004978,-1.702973,12.32652,42.42612,1007.431
3.588113785,1.253318,-0.2836325,0.2184867,0.01775789,-0.09415895,-0.9731495,-2.053765,12.33614,42.86736,1007.431
3.622880936,0.6335813,-0.2836325,0.157546,0.002266863,-0.09623063,-1.000201,-2.777606,12.34492,42.94064,1007.427
3.655159950,-1.163655,-0.4597408,0.03566457,-0.003547111,-0.09580588,-1.012755,-2.777606,12.34492,42.94064,1007.431
3.689927101,-1.039708,0.009881377,-0.2080983,-0.003065123,-0.09092426,-1.000642,-2.440512,12.32886,42.00143,1007.431
3.722210884,-0.2960236,0.06858415,-0.2690389,-0.0001715672,-0.08410656,-0.9904576,-2.052714,12.70147,42.925,1007.432
3.756978035,0.1377921,0.1272869,-0.08621684,-0.001135728,-0.09142722,-1.007901,-2.052714,12.70147,42.925,1007.432
3.789261818,-0.2340499,-0.0488214,0.2794274,-0.0001782706,-0.08853236,-1.011271,-2.052052,12.33695,42.92961,1007.434
3.821546078,0.7575287,-0.1075242,0.09660529,-0.006468254,-0.08319107,-1.000591,-2.052052,12.33695,42.92961,1007.434
3.856308460,1.62516,-0.3423353,0.2184867,-0.00742051,-0.08997376,-1.002078,-2.052052,12.33695,42.92961,1007.436
3.888592243,1.873055,0.1272869,0.03566457,-0.004509559,-0.09236872,-0.9972634,-2.052714,12.70147,42.925,1007.436
3.923359394,0.07581842,0.1859897,-0.1471575,-0.003527777,-0.09621446,-0.9905192,-2.426815,12.3353,42.4994,1007.436
3.955643177,-1.721418,0.1272869,-0.08621684,-0.003076921,-0.08559778,-0.9996452,-2.426815,12.3353,42.4994,1007.44
3.987926960,-2.155233,0.06858415,0.03566457,-0.00163877,-0.08369067,-1.009306,-2.052052,12.33695,42.92961,1007.441
4.022694111,-0.1101026,-0.1075242,0.157546,-0.003565649,-0.08610928,-1.007382,-2.06575,12.33051,42.43164,1007.441
4.054973602,1.935028,-0.4010381,0.2794274,-0.002598349,-0.08366231,-1.000119,-2.06575,12.33051,42.43164,1007.441
4.089740753,2.120949,-0.3423353,0.2184867,-0.003535913,-0.09429348,-0.9948593,-2.790253,12.70381,42.5003,1007.441
4.122024536,0.5096341,-0.2249297,0.157546,-0.0006411519,-0.09186883,-0.9958186,-2.428527,12.3345,42.43715,1007.441
4.156791687,-0.9157602,0.009881377,-0.02527615,-0.005499084,-0.08660038,-1.007864,-2.428527,12.3345,42.43715,1007.441
4.189075470,-0.6678655,-0.4597408,0.03566457,-0.006456935,-0.08949689,-1.004978,-2.427476,12.69982,42.49479,1007.441
4.221359253,0.2617394,-0.5184436,0.03566457,-0.005010522,-0.08804424,-1.00594,-1.701261,12.32733,42.48837,1007.441
4.256121635,1.067397,-0.3423353,0.157546,-0.003562486,-0.08609618,-1.003515,-2.428138,13.06433,42.49017,1007.441
4.288405418,0.9434497,-0.5184436,0.09660529,-0.00258395,-0.0909327,-1.003544,-2.428138,13.06433,42.49017,1007.441
4.323172569,1.005423,-0.4597408,0.03566457,-0.006455521,-0.09144571,-1.008856,-2.040067,12.34258,43.36534,1007.44
4.355456352,0.7575287,-0.5184436,0.03566457,-0.002580517,-0.09238449,-1.003552,-2.802238,12.69817,42.06457,1007.44
4.390223503,0.3856867,-0.4010381,-0.08621684,-0.008869607,-0.09046019,-1.001594,-2.802238,12.69817,42.06457,1007.44
4.422507763,0.4476604,-0.5184436,-0.02527615,-0.003549627,-0.09288429,-1.007421,-2.426153,11.97079,42.50402,1007.438
4.454786777,0.6335813,-0.6358492,0.157546,-0.002111267,-0.08853298,-1.009816,-2.053375,13.06598,42.92038,1007.438
4.489553928,1.129371,-0.5771464,0.157546,-0.00742305,-0.09193896,-1.010791,-2.053375,13.06598,42.92038,1007.438
4.521837711,1.377265,-0.6945519,0.2184867,-0.01031945,-0.09046106,-1.000624,-1.339145,12.68785,42.47824,1007.44
4.556604862,1.129371,-0.5184436,0.03566457,-0.01321615,-0.09240507,-1.000629,-2.052714,12.70147,42.925,1007.44
4.588888645,0.881476,-0.4597408,-0.02527615,-0.007895608,-0.09287216,-1.00016,-2.052714,12.70147,42.925,1007.44
4.621172428,0.1377921,-0.4010381,0.09660529,-0.008368811,-0.09674005,-0.9987303,-2.441174,12.69338,41.99681,1007.439
4.655935287,0.323713,-0.8706603,0.09660529,-0.00839116,-0.08999127,-1.006427,-2.054426,12.70066,42.86275,1007.437
4.688219070,1.501213,-0.9880658,0.3403681,-0.00547326,-0.09431212,-0.9987227,-2.054426,12.70066,42.86275,1007.435
4.722986221,3.112528,-1.809905,0.5231902,-0.008840661,-0.09864767,-0.9900381,-1.341519,13.05157,42.41137,1007.435
4.755270004,4.413974,-2.514338,0.7060123,-0.01418896,-0.08998819,-1.000613,-2.067073,13.05954,42.42241,1007.435
4.790037155,7.822526,-3.923205,1.315419,-0.01271338,-0.09867675,-0.9953478,-2.067073,13.05954,42.42241,1007.431
4.822320938,10.54937,-4.803747,1.620123,-0.00835458,-0.1059658,-1.007968,-2.053375,13.06598,42.92038,1007.429
4.854599953,12.5945,-6.447424,1.559182,-0.01508445,-0.1170598,-0.9915798,-1.713908,12.68621,42.04802,1007.429
4.889367104,13.15226,-8.325912,1.742004,-0.01602882,-0.1286966,-0.9974452,-1.713908,12.68621,42.04802,1007.429
4.921650887,8.628183,-10.2631,1.315419,-0.02567004,-0.1373972,-0.9863547,-1.351131,12.68222,42.04251,1007.433
4.956418037,1.129371,-12.2003,1.37636,-0.03437006,-0.1344743,-0.9732664,-1.72959,13.77332,41.53621,1007.432
4.988702297,-8.290626,-12.84603,0.9497752,-0.04591466,-0.1528264,-0.952558,-1.72959,13.77332,41.53621,1007.432
5.023469448,-19.44588,-11.73067,-0.2080983,-0.04646144,-0.1389183,-0.9892192,-0.5934429,14.11957,41.07839,1007.43
5.055748463,-31.71667,-10.79143,-1.670675,-0.04745253,-0.1282697,-0.9877061,-0.5801346,13.39617,41.52335,1007.43
5.088032246,-38.28588,-10.96754,-2.889489,-0.06208622,-0.07801702,-0.9975412,-0.5801346,13.39617,41.52335,1007.43
5.122799397,-34.62943,-10.43921,-3.072311,-0.07236354,-0.03555207,-1.02435,-0.1927257,13.03893,42.39391,1007.426
5.155083180,-23.78404,-8.325912,-2.889489,-0.08598487,-0.001235122,-1.025092,0.8736188,11.92215,41.51976,1007.425
5.222134113,5.653448,-3.570988,-0.6956239,-0.07092998,-0.02731131,-1.021406,0.890624,10.10601,42.04081,1007.421
5.256896973,14.08187,-4.45153,0.09660529,-0.07569724,-0.04316864,-0.9842608,0.890624,10.10601,42.04081,1007.416
5.289180756,15.50726,-5.919099,0.03566457,-0.08388439,-0.0626017,-0.9998237,1.264725,10.47218,42.4664,1007.411
5.321464538,11.91279,-7.562777,-0.6346832,-0.09790787,-0.07046328,-1.023043,1.264725,10.47218,42.4664,1007.409
5.356231689,7.264763,-6.56483,-0.8175052,-0.1012903,-0.07437223,-1.031277,1.614855,10.82707,42.02054,1007.404
5.388515472,4.909763,-4.392828,-1.24409,-0.0998556,-0.06710424,-1.029788,1.612481,11.19078,41.95368,1007.404
5.423282623,6.397131,-6.447424,-2.219141,-0.1071195,-0.04908857,-0.9909949,1.612481,11.19078,41.95368,1007.401
5.455561638,19.84542,-5.155963,-3.194193,-0.1148423,-0.05687157,-0.9963403,1.599834,11.54966,41.51334,1007.401
5.487845898,33.85147,-2.866555,-2.95043,-0.120603,-0.07577283,-0.9998195,1.22441,11.91253,41.07851,1007.401
5.522613048,41.47423,-2.455635,-4.534888,-0.09781193,-0.1086707,-1.016493,1.22441,11.91253,41.07851,1007.401
5.554896831,43.82922,-3.453583,-7.399101,-0.1248053,-0.12501,-0.9599649,1.951015,12.26987,41.12511,1007.398
5.589663982,48.10541,-5.273369,-8.98356,-0.08404707,-0.1839299,-0.9594209,1.93401,14.08601,40.60406,1007.398
5.621947765,45.0687,-7.738885,-7.703805,-0.105768,-0.2033788,-0.9681866,1.93401,14.08601,40.60406,1007.394
5.656710625,42.52778,-6.095208,-9.0445,-0.1250791,-0.2233423,-0.9880794,2.269509,15.89333,39.70401,1007.392
5.688993931,40.54462,-5.390775,-8.252271,-0.1036957,-0.2717038,-0.9971025,2.617654,17.34177,39.2443,1007.391
5.721277714,33.47962,-6.975749,-7.825686,-0.1385191,-0.2557108,-0.9606785,2.617654,17.34177,39.2443,1007.389
5.756044865,33.5416,-8.971643,-10.26331,-0.1254383,-0.2585017,-0.9384844,2.228261,18.79256,38.3599,1007.389
5.788328648,36.14449,-9.793482,-8.861678,-0.09728511,-0.3175935,-0.9780396,2.57773,19.51196,37.90943,1007.386
5.823095798,34.34726,-8.619427,-7.460042,-0.1374519,-0.2958528,-0.9546244,2.57773,19.51196,37.90943,1007.384
5.855375290,32.1162,-8.26721,-9.227323,-0.1334776,-0.3237458,-0.9064476,2.562437,21.32891,37.45062,1007.382
5.890142441,28.45975,-7.210561,-7.581923,-0.1033632,-0.3905389,-0.9354152,2.911905,22.04832,37.00015,1007.38
5.922426224,22.88213,-5.919099,-6.484991,-0.1367106,-0.4008247,-0.9436203,2.911905,22.04832,37.00015,1007.38
5.954710007,22.63423,-5.09726,-7.033457,-0.1250511,-0.4264659,-0.9515263,2.873965,23.12496,35.67912,1007.38
5.989477158,16.87068,-3.042663,-5.022414,-0.1419319,-0.4278006,-0.9026701,2.87198,24.21851,35.66527,1007.38
6.021760941,3.174501,-6.858344,-10.56802,-0.2034127,-0.397971,-0.9018846,2.87198,24.21851,35.66527,1007.383
6.056524277,-7.051153,-13.84397,-16.54021,-0.2306398,-0.3414893,-0.919392,3.221449,24.93792,35.2148,1007.385
6.088807583,-7.113127,-17.01392,-15.56516,-0.1932297,-0.4295873,-0.9581651,3.584887,24.56941,35.2139,1007.385
6.123574734,-2.465102,-19.00982,-6.058406,-0.2518455,-0.4023426,-1.008645,3.234096,24.57903,35.65514,1007.385
6.155858517,3.980159,-24.82139,12.89415,-0.3533642,-0.4328233,-1.063712,3.234096,24.57903,35.65514,1007.385
6.188142300,1.873055,-38.96877,22.58372,-0.4454946,-0.310516,-1.022692,3.596872,24.57505,35.64962,1007.385
6.222909451,-7.608916,-43.9585,19.11011,-0.3721606,-0.2459958,-1.037953,4.297132,25.28483,34.75791,1007.385
6.255189419,4.723843,-44.83904,30.74978,-0.2283964,-0.08912098,-0.991928,4.297132,25.28483,34.75791,1007.385
6.289955616,18.97779,-21.53404,30.50602,-0.2178482,-0.08506445,-1.089099,5.362154,24.89708,33.87453,1007.387
6.322239399,17.49042,-7.386669,38.55019,-0.1196346,-0.1026417,-1.075391,7.899607,25.96271,33.82207,1007.389
6.354523182,0.1377921,9.871948,52.01808,-0.09426052,-0.1666112,-0.9810551,7.899607,25.96271,33.82207,1007.387
6.389290333,-6.121548,26.60224,54.51665,-0.239852,-0.1706311,-1.044578,8.224054,26.30553,32.44251,1007.387
6.421574592,-11.51326,34.2923,59.14815,-0.2763923,-0.2632058,-1.056628,9.675162,26.28957,32.42045,1007.387
6.456337452,-5.625759,40.6322,53.60254,-0.2540349,-0.2944321,-1.008027,9.675162,26.28957,32.42045,1007.391
6.488620758,3.856211,53.2533,54.15101,-0.2863774,-0.3118888,-0.991136,10.03992,25.19204,32.42878,1007.396
6.523387909,10.11555,55.4253,57.80745,-0.3458214,-0.3065506,-0.9363489,9.679132,24.10248,32.44815,1007.401
6.555671692,11.47897,56.65806,60.79354,-0.3666258,-0.2748958,-0.8597407,9.679132,24.10248,32.44815,1007.406
6.587955475,1.873055,50.49427,66.88762,-0.3966297,-0.2374537,-0.781146,9.355346,23.39515,33.83232,1007.406
6.622722626,-11.07944,36.69912,69.14243,-0.4111575,-0.2199918,-0.7568436,8.980584,23.3935,33.40211,1007.411
6.655002594,-15.78944,26.07391,73.34733,-0.3651671,-0.2259911,-0.7095998,8.980584,23.3935,33.40211,1007.422
6.689769745,-19.81773,16.85758,77.97882,-0.3419417,-0.2204868,-0.6757779,8.617807,23.39749,33.40762,1007.434
6.722053051,-23.22628,7.58254,80.84304,-0.3430052,-0.1910797,-0.7079988,9.331648,22.28952,32.91247,1007.444
6.756820202,-23.35023,-3.747097,84.74324,-0.3241255,-0.1816526,-0.655291,9.331648,22.28952,32.91247,1007.455
6.789103985,-17.33878,-16.25079,86.08394,-0.3310282,-0.1338449,-0.6791762,10.04588,21.9114,32.47033,1007.455
6.821387768,-13.24852,-26.64118,90.65449,-0.2883697,-0.1596703,-0.6247864,11.49963,20.43738,32.46673,1007.462
6.856151104,-5.006022,-41.8452,94.31094,-0.2519689,-0.2137388,-0.6169539,13.65431,19.30863,31.57603,1007.468
6.888434887,-6.927206,-47.89159,90.22791,-0.2778855,-0.2965685,-0.6183359,13.65431,19.30863,31.57603,1007.478
6.923202038,-5.439838,-60.21917,80.53833,-0.3401627,-0.3320048,-0.5980986,16.17242,17.81138,30.68443,1007.481
6.955485344,-18.64023,-68.20274,66.46103,-0.3358545,-0.5315033,-0.6379174,19.02802,17.0279,28.90663,1007.481
6.987769127,-36.1168,-73.5447,44.82708,-0.4254694,-0.6975409,-0.7203695,19.02802,17.0279,28.90663,1007.488
7.022536278,19.90739,-85.93098,12.28475,-0.4966407,-0.6365447,-0.6536382,21.86097,15.50413,26.26661,1007.49
7.054815769,77.91473,-91.62515,-10.56802,-0.60694,-0.7563062,-1.057753,23.9793,13.62864,24.01571,1007.488
7.089582920,330.5194,-155.4938,-35.12712,-0.576139,-0.9418867,-0.01077922,23.9793,13.62864,24.01571,1007.493
7.121867180,193.7435,-111.8189,-36.10218,-0.8192592,-0.5812154,-1.190212,24.55772,15.37563,18.75288,1007.493
7.156633377,79.8979,-81.76308,-26.53448,-0.7418462,-0.5509963,-1.049043,26.49265,21.07528,10.24263,1007.495
7.188917160,13.21423,-37.85341,-14.10258,-0.7479571,-0.5439353,-0.8164557,26.49265,21.07528,10.24263,1007.493
7.221200943,-15.35562,-15.89857,-7.520983,-0.9627131,-0.6610616,-0.6397203,26.0287,23.95032,6.725405,1007.486
7.255964279,-11.51326,-12.66992,-7.642864,-0.7477947,-0.5276257,-0.5731936,26.04002,24.32047,7.156516,1007.479
7.288248062,-8.600494,-13.37435,-9.836729,-0.6207973,-0.4634834,-0.6025924,26.04002,24.32047,7.156516,1007.479
7.323015213,6.954895,-22.8842,-11.66495,-0.5720275,-0.4206238,-0.5628118,26.39015,24.67536,6.710658,1007.474
7.355298996,38.37554,-34.91827,-15.07763,-0.5497921,-0.4313426,-0.6030461,26.74028,25.03025,6.264799,1007.469
7.390065670,76.92316,-46.24791,-22.45146,-0.6491096,-0.3820828,-0.6915047,26.74028,25.03025,6.264799,1007.467
7.422349453,111.1946,-51.41375,-37.68663,-0.6765462,-0.4119391,-0.6249008,27.0538,25.73275,4.507146,1007.471
7.454629421,162.7567,-52.17689,-38.17416,-0.6225265,-0.5535325,-0.6127695,26.61673,26.06665,1.831437,1007.471
7.489396572,192.566,-47.65678,5.581268,-0.271608,-0.249674,-0.4943224,26.61673,26.06665,1.831437,1007.473
7.521680355,174.5936,-88.22039,48.48352,-0.3588504,0.5099483,-0.3177111,25.70875,27.44817,-4.711897,1007.478
7.556447506,-48.57351,70.21841,53.66348,-0.4144484,0.1816322,1.0946,25.52831,27.72817,-11.25242,1007.49
7.588730812,-35.74496,-8.91294,107.8398,-0.8404081,-0.09603712,-0.2297158,25.52831,27.72817,-11.25242,1007.502
7.623497963,-100.3215,14.62687,125.086,-0.9079943,-0.2706705,-0.01108189,26.23149,25.88554,-12.17407,1007.502
7.655777454,-89.41415,-0.6358492,130.3269,-1.03576,-0.6965368,-0.1930672,28.41014,24.76806,-12.19331,1007.506
7.688061714,-27.50246,-11.31975,127.5236,-1.086706,-0.8317404,-0.2058121,28.41014,24.76806,-12.19331,1007.506
7.722828865,48.16738,-26.17156,109.7289,-1.167904,-0.8406096,-0.1839328,30.66637,21.4981,-9.508255,1007.501
7.755112648,51.51396,-28.98929,87.72934,-1.273029,-0.7317702,-0.1076709,32.85031,17.46449,-9.490574,1007.498
7.789879799,33.97541,-31.92443,62.19518,-1.298424,-0.599474,-0.03144753,33.93526,12.70819,-9.882841,1007.498
7.822162628,-1.163655,-36.50325,48.48352,-1.289809,-0.568056,-0.04965812,33.93526,12.70819,-9.882841,1007.496
7.854442596,-24.27983,-44.0172,43.30356,-1.268467,-0.5911779,-0.03629931,33.90526,9.410645,-11.14848,1007.496
7.889209747,-27.50246,-39.02747,39.95182,-1.17286,-0.5557903,-0.09915119,33.88724,6.118733,-11.97839,1007.496
7.921493530,-21.73891,-40.08412,40.37841,-1.108291,-0.4700448,-0.1268423,33.88724,6.118733,-11.97839,1007.501
7.956260681,-25.27141,-41.19947,41.47534,-1.015234,-0.3413895,-0.0828018,33.52578,5.39369,-11.96364,1007.501
7.988544464,-31.09693,-43.48888,34.58904,-0.9478078,-0.2338309,-0.1021565,32.77654,4.296046,-12.87246,1007.51
8.023312092,-35.74496,-47.89159,24.35101,-0.905902,-0.1757441,-0.1328567,32.77654,4.296046,-12.87246,1007.523
8.055591106,-32.21246,-50.41581,12.10192,-0.9505733,-0.1116447,-0.1725213,32.7672,2.83235,-13.28973,1007.531
8.087874889,-24.5897,-58.28198,-2.280082,-0.9817285,-0.01926027,-0.1593595,33.10667,2.452576,-14.16208,1007.537
8.122642040,-22.60654,-54.05538,-12.03059,-0.9588991,-0.03342977,-0.07585435,33.10667,2.452576,-14.16208,1007.537
8.154925823,-24.89957,-35.62271,-7.520983,-0.9674763,-0.09205915,-0.09067239,32.00635,2.458906,-14.58126,1007.54
8.189692974,-15.78944,-23.06031,-6.302169,-0.9921529,-0.09219518,-0.1099575,31.6429,2.827412,-14.58036,1007.542
8.221976757,-6.555364,-7.797588,1.132597,-0.9896552,-0.1050512,-0.05008961,31.6429,2.827412,-14.58036,1007.54
8.256740093,-5.253917,4.119075,12.89415,-1.017337,-0.05187166,-0.04199255,31.24484,2.44998,-15.87741,1007.535
8.289023876,-12.8147,9.637137,20.02422,-0.9728321,-0.04678071,-0.005318183,31.62026,2.087111,-15.44258,1007.535
8.321307182,-19.13602,13.45282,26.60581,-0.9128637,-0.0509712,-0.007405009,31.62026,2.087111,-15.44258,1007.531
8.356074333,-16.40918,16.62277,32.8827,-0.9591836,-0.07707553,0.03992338,31.25881,1.362067,-15.42784,1007.525
8.388358116,-15.54154,16.32925,35.13751,-0.944663,-0.07306598,0.06843777,30.17047,1.374033,-15.41129,1007.522
8.423125267,-11.51326,11.63303,36.90479,-0.9577451,-0.05806385,0.07967035,30.17047,1.374033,-15.41129,1007.515
8.455405235,-11.26536,4.471292,35.80786,-0.9800846,-0.01454602,0.0881844,30.51259,-0.4638033,-16.26518,1007.51
8.490172386,-16.28523,-5.919099,32.09047,-0.9728439,0.003991767,0.1259824,30.15179,-1.553363,-16.24582,1007.51
8.522456169,-22.85444,-8.032398,33.73587,-0.9466768,-0.01378324,0.1422619,30.15179,-1.553363,-16.24582,1007.506
8.554739475,-24.77562,-14.13749,33.97963,-1.044487,0.01714715,0.07013273,29.77902,-2.648556,-16.66218,1007.503
8.589506626,-22.97838,-19.18593,30.68884,-1.119854,-0.005762366,0.08515151,29.03214,-4.109911,-17.50414,1007.499
8.621790409,-13.18655,-23.23642,30.20131,-1.172139,0.01288784,0.0636155,29.03214,-4.109911,-17.50414,1007.499
8.656553268,-9.468125,-28.34356,31.35919,-1.139882,0.06615362,0.04644505,27.55772,-4.469742,-18.34892,1007.499
8.688837051,-7.422995,-28.40226,30.50602,-1.133797,0.1371731,0.006710332,27.17362,-5.935086,-19.19639,1007.497
8.721121311,-12.00905,-19.42074,31.2373,-1.164845,0.1752692,-0.006542424,25.33471,-6.291733,-20.09789,1007.501
8.755888462,-10.08786,-10.02829,31.66389,-1.15088,0.1970615,-0.01370019,25.33471,-6.291733,-20.09789,1007.5
8.788171291,-0.1101026,-4.979855,31.11542,-1.083653,0.1870502,-0.02598797,23.86239,-7.805864,-20.92805,1007.501
8.822938442,22.13844,-2.866555,33.12646,-0.9698948,0.1277847,-0.04639111,24.21451,-8.544518,-21.36007,1007.501
8.855218410,45.56449,-2.98396,38.00172,-0.9178075,0.1967632,-0.01323733,24.21451,-8.544518,-21.36007,1007.501
8.889985561,46.37014,1.066531,36.11256,-0.8952115,0.269099,0.03595257,23.86636,-9.992958,-20.90036,1007.5
8.922269344,30.38094,9.69584,32.21236,-0.905336,0.26333,0.05576257,23.89232,-11.07524,-20.01506,1007.498
8.954553127,16.80871,11.86784,28.43403,-0.9225575,0.2024788,0.1066982,23.89232,-11.07524,-20.01506,1007.496
8.989320278,16.68476,16.97498,31.2373,-0.894936,0.1769045,0.1050429,23.1461,-12.90111,-20.8524,1007.496
9.021603584,14.39173,22.55175,27.51992,-1.022316,0.2509382,0.06803019,23.52219,-13.62849,-20.41296,1007.491
9.056366920,14.39173,14.21595,19.78045,-1.076878,0.2041937,0.02920691,23.52219,-13.62849,-20.41296,1007.488
9.088650703,27.71607,9.05011,22.4009,-1.050814,0.2368145,0.06559411,23.52285,-13.99301,-20.40834,1007.482
9.123417854,25.79489,12.39617,23.13219,-1.013756,0.3275744,0.1129239,23.51219,-14.72767,-20.83484,1007.479
9.155701637,14.32976,11.39822,24.16818,-1.024127,0.415586,0.1032944,23.51219,-14.72767,-20.83484,1007.479
9.187985420,-2.898917,3.942967,18.19599,-0.9766758,0.4008376,0.1379159,22.81259,-15.80198,-19.93851,1007.476
9.255032539,-14.98378,-10.087,11.98004,-0.8622908,0.2923242,0.1501052,23.19934,-15.79469,-19.07257,1007.472
9.289798737,-24.52773,-12.43511,10.51747,-0.8293356,0.2536319,0.1285429,22.46312,-16.52138,-19.48803,1007.472
9.322082996,-23.1643,-21.76885,8.079838,-0.8761964,0.2214241,0.08881877,22.07769,-17.2577,-20.34474,1007.472
9.356850147,-13.37247,-27.16951,0.2184867,-0.8936569,0.2319061,0.05507529,22.07769,-17.2577,-20.34474,1007.474
9.389133930,-13.0626,-26.46507,-7.216279,-0.8270406,0.2692562,0.02468745,20.6146,-17.24738,-20.7584,1007.474
9.421417713,-18.08246,-27.40432,-16.2355,-0.7961249,0.2697041,-0.01211797,20.57798,-16.89977,-22.0702,1007.474
9.456181049,-17.33878,-16.36819,-23.54839,-0.7878909,0.2223836,-0.1313307,20.57798,-16.89977,-22.0702,1007.472
9.488464832,-6.679311,-1.28158,-33.84737,-0.7732459,0.133573,-0.2184028,19.46568,-16.89907,-22.92511,1007.472
9.523231029,22.51028,14.21595,-47.86373,-0.819883,0.01726325,-0.2286323,19.42907,-16.55146,-24.2369,1007.469
9.555514812,73.5146,46.85469,-15.01669,-1.267756,-0.04213275,-0.5267699,20.50343,-15.47551,-24.70302,1007.463
9.587799072,30.69081,86.06815,-134.6433,-2.863668,0.1687695,-1.917335,20.50343,-15.47551,-24.70302,1007.458
9.622566223,-19.19799,-22.70809,-12.57906,-0.4982403,0.7147469,0.1154646,21.25229,-15.1077,-23.84722,1007.453
9.654845714,-17.46273,10.40027,-7.886627,-0.8726708,0.2498712,0.3408445,21.97917,-15.84471,-23.84902,1007.453
9.689612865,-10.39773,-3.277474,-21.90299,-1.10014,0.1775733,0.4762865,21.97917,-15.84471,-23.84902,1007.448
9.721896648,2.98858,-17.48355,-16.17456,-0.8490887,0.2113604,0.09498782,21.95453,-15.49146,-24.72508,1007.443
9.756663799,1.62516,-6.388722,-21.35452,-1.079826,0.2166988,0.008979945,22.31599,-14.76642,-24.73983,1007.438
9.788947105,0.323713,-10.61532,-21.41546,-0.9340779,0.1627258,0.0953779,22.31599,-14.76642,-24.73983,1007.432
9.821230888,-0.1720762,-9.734779,-17.33244,-0.9742987,0.2047669,0.1116571,21.95189,-14.0334,-24.74355,1007.432
9.855994225,-4.262338,-9.96959,-9.532026,-1.017206,0.1431145,0.09061117,22.31334,-13.30836,-24.7583,1007.427
9.888278007,-0.6058919,-10.02829,-5.266177,-1.026695,0.03877852,0.01220474,22.31334,-13.30836,-24.7583,1007.42
9.923045158,9.867657,0.6556119,-4.230185,-0.9606363,0.1750183,0.1752724,21.93792,-12.94549,-25.19312,1007.417
9.955328941,2.678712,6.467186,-3.498896,-0.9560601,0.2819541,0.1681356,22.65215,-13.32361,-25.63527,1007.412
9.990096092,-4.758128,9.343624,-3.742659,-0.9661053,0.2232485,0.132049,22.65215,-13.32361,-25.63527,1007.407
10.022379398,-4.63418,13.62893,-5.814643,-0.9603169,0.223695,0.1160855,22.66479,-13.6825,-25.19492,1007.407
10.054659367,-6.865232,15.80093,-3.681718,-0.9882004,0.1417015,0.07748777,22.66347,-12.95346,-25.20415,1007.4
10.089426518,-4.014443,16.79888,-4.65677,-1.003836,0.2137986,0.08856706,22.66347,-12.95346,-25.20415,1007.396
10.121710300,-2.960891,17.03369,-3.072311,-0.981528,0.1828547,0.07770739,23.39969,-12.22678,-24.78869,1007.398
10.156477451,-1.783391,14.33336,-2.036319,-1.001375,0.1895501,0.07102009,23.40101,-12.95581,-24.77946,1007.393
10.188761234,-0.4199709,10.9286,-3.498896,-1.015795,0.1453975,0.04904538,23.40101,-12.95581,-24.77946,1007.393
10.221045017,3.732264,7.758648,-3.559837,-1.019734,0.1773453,0.05503679,24.12722,-13.3283,-24.78587,1007.395
10.255808353,-0.6678655,5.117023,-4.169244,-1.005273,0.1952791,0.05124008,24.1259,-12.59927,-24.7951,1007.395
10.288091183,-0.1720762,5.704051,-5.631821,-0.9945621,0.1677583,0.06072929,24.1259,-12.59927,-24.7951,1007.395
10.322858333,-0.9157602,5.821456,-3.925481,-1.015361,0.1637635,0.04189729,24.12656,-12.96378,-24.79049,1007.395
10.355142593,-2.155233,4.41259,-3.986422,-1.004263,0.170052,0.03175692,23.7871,-12.58401,-23.91814,1007.395
10.389909744,-4.510232,4.00167,-4.839592,-0.9940676,0.1575431,0.04471666,24.49934,-11.86859,-24.37412,1007.393
10.422193527,-3.828522,2.064478,-5.936524,-1.000398,0.1803091,0.05646228,24.49934,-11.86859,-24.37412,1007.393
10.454473019,-5.377864,-1.516391,-8.130389,-1.010135,0.1966237,0.0237022,24.13723,-12.22912,-24.36399,1007.391
10.489240169,-5.749706,-6.212614,-8.069449,-1.021209,0.1816392,0.03814403,24.14855,-11.85897,-23.93288,1007.39
10.521523476,-5.935627,-11.14365,-8.617915,-1.007173,0.1719598,0.02597277,24.14855,-11.85897,-23.93288,1007.39
10.556290626,-3.766549,-11.08494,-10.56802,-0.9660252,0.175202,0.09116675,24.86146,-11.50806,-24.38426,1007.39
10.623341560,-0.1101026,-4.510233,-9.89767,-1.001174,0.1097527,0.08555254,24.48603,-11.14519,-24.81908,1007.388
10.655621529,-4.200364,5.645348,-12.51812,-0.9374074,0.161479,0.1587085,24.48471,-10.41616,-24.82832,1007.388
10.687905312,-6.865232,8.345676,-9.89767,-0.989494,0.07393422,0.07323773,24.8355,-10.42579,-25.26956,1007.388
10.722672462,-5.501812,11.33952,-9.105441,-1.040713,0.04510977,0.03595945,24.8355,-10.42579,-25.26956,1007.386
10.754956245,-7.546942,15.33131,-11.96965,-0.9881109,0.1068881,0.08599153,24.48339,-9.68713,-24.83755,1007.386
10.789722919,-8.538521,15.91833,-12.88376,-1.006539,0.1154103,0.0459543,24.48405,-10.05165,-24.83293,1007.388
10.822006702,-7.1751,16.38796,-13.24941,-0.996736,0.04708283,0.009770198,24.48405,-10.05165,-24.83293,1007.388
10.856770039,-7.299047,16.97498,-12.39624,-1.024855,0.07552823,0.002257521,25.20762,-8.966076,-24.85781,1007.388
10.889053822,-6.617337,16.91628,-13.24941,-1.000188,0.07758195,0.01623576,26.67071,-8.976396,-24.44415,1007.39
10.921508789,-5.749706,10.63509,-12.3353,-1.028715,0.06040727,-0.02972709,26.67071,-8.976396,-24.44415,1007.39
10.956275940,-3.146812,9.69584,-13.37129,-1.006364,0.0257312,0.0004842099,25.94516,-8.968418,-24.43312,1007.393
10.988559723,-0.0481289,10.10676,-13.12753,-1.002092,0.06206122,0.007449715,27.0315,-7.886837,-24.46351,1007.393
11.023326874,-3.332733,10.10676,-13.37129,-1.026708,0.02357526,-0.04734464,27.0315,-7.886837,-24.46351,1007.393
11.055606842,-2.960891,8.697893,-13.31035,-1.031526,0.01288225,-0.05706383,27.01952,-7.892471,-24.89923,1007.397
11.087890148,-1.845365,6.11497,-13.12753,-1.006877,0.03489334,-0.008647925,27.38152,-7.471191,-24.91014,1007.4
11.122657299,-0.2960236,9.989354,-14.52916,-0.9976686,0.03500643,0.01695512,27.38152,-7.471191,-24.91014,1007.406
11.154941082,-2.031286,11.80914,-15.80892,-1.014094,0.02182783,-0.002421957,27.41748,-7.454288,-23.60295,1007.408
11.189708233,-3.332733,14.03985,-15.38233,-1.011576,-0.02905966,-0.02688866,27.76761,-7.099395,-24.04881,1007.409
11.221992016,-0.4819446,13.0419,-14.10258,-1.030005,-0.01760929,-0.05965767,27.76761,-7.099395,-24.04881,1007.409
11.256755352,-0.4199709,9.226218,-13.61505,-1.031481,-0.01331869,-0.07751732,28.11642,-6.015471,-24.5039,1007.411
11.289039135,-0.2340499,6.643295,-14.22446,-1.033527,0.04338716,-0.05011792,28.47919,-6.019459,-24.50942,1007.413
11.321322918,-5.687733,2.710209,-14.34634,-1.038354,0.03900814,-0.05303305,28.50316,-6.00819,-23.63796,1007.416
11.356089592,-8.104705,0.5969092,-11.66495,-1.027245,0.0414301,-0.06174511,28.50316,-6.00819,-23.63796,1007.418
11.388373375,-17.71062,0.009881377,-7.338161,-1.005983,0.05023112,-0.053039,28.86462,-5.283147,-23.65271,1007.418
11.423140526,-36.48864,5.938862,-0.6346832,-0.9402015,0.02850803,-0.09294627,28.83932,-4.565385,-24.5334,1007.423
11.455420494,-49.87495,10.10676,2.838937,-0.9129388,-0.07327215,-0.162232,28.83932,-4.565385,-24.5334,1007.425
11.490187645,-26.26299,9.578435,1.498242,-0.9976299,-0.2369752,-0.1310734,29.57686,-4.567727,-24.1087,1007.427
11.522471428,9.123973,3.825562,0.03566457,-1.014885,-0.269132,-0.03791534,29.56289,-3.479815,-24.55828,1007.427
11.554755211,12.71845,1.007829,-1.975379,-1.032364,-0.2030219,0.0645038,29.56289,-3.479815,-24.55828,1007.427
11.589522362,3.422396,0.4208008,2.838937,-1.023483,-0.1304761,-0.09850514,29.20078,-3.840342,-24.54815,1007.428
11.621805668,-2.403128,2.357992,2.168589,-1.019893,-0.03046216,-0.1482218,29.56289,-3.479815,-24.55828,1007.43
11.656568527,1.005423,1.477451,1.437301,-1.029101,0.01047443,-0.05563243,29.56289,-3.479815,-24.55828,1007.43
11.688852310,-0.8537865,-0.9880658,0.2184867,-1.004454,0.009513197,-0.07454513,29.18813,-3.481461,-24.98849,1007.432
11.723619461,-0.2340499,0.06858415,-0.2080983,-1.023683,-0.04334109,-0.08979081,29.58753,-3.833061,-23.68221,1007.432
11.755903721,-1.845365,0.4208008,2.290471,-1.019696,-0.08193129,-0.05666155,29.58753,-3.833061,-23.68221,1007.435
11.788187504,-1.349576,0.1859897,4.179633,-1.01489,-0.07666469,-0.07742982,29.93832,-3.842684,-24.12345,1007.437
11.822954655,-1.225628,-1.692499,4.606217,-1.013066,-0.0385107,-0.1013888,29.56355,-3.84433,-24.55366,1007.442
11.855233669,-3.828522,-4.86245,4.423395,-1.019859,-0.02005887,-0.07709726,29.56355,-3.84433,-24.55366,1007.446
11.890000820,-2.217207,-3.981908,4.118692,-1.008202,-0.03838058,-0.06707434,29.55091,-3.485449,-24.994,1007.446
11.922284603,-0.4199709,-3.336177,4.118692,-1.012113,-0.01951024,-0.06454143,29.56421,-4.208846,-24.54905,1007.447
11.954568386,-0.1720762,-3.453583,3.99681,-1.01502,-0.0161212,-0.06161526,29.56421,-4.208846,-24.54905,1007.453
11.989335537,-0.9777339,-4.921152,3.692107,-1.021285,-0.03120157,-0.07957473,29.21277,-3.834707,-24.11242,1007.455
12.021619320,-1.163655,-5.214666,3.509285,-1.016919,-0.03357437,-0.06944543,29.2021,-4.569374,-24.53891,1007.456
12.056382656,-0.4199709,-3.923205,4.057751,-1.012583,-0.01945265,-0.04713629,29.2021,-4.569374,-24.53891,1007.456
12.088666439,-1.163655,-3.336177,3.99681,-1.021291,-0.02291581,-0.06212381,29.56421,-4.208846,-24.54905,1007.458
12.123433590,-1.411549,-3.981908,3.509285,-1.012585,-0.02092737,-0.05391282,28.82668,-4.206503,-24.97374,1007.458
12.155716896,-0.9777339,-2.925258,3.631166,-1.007748,-0.01699789,-0.04084805,29.2021,-4.569374,-24.53891,1007.46
12.188000679,-0.8537865,-2.807852,3.631166,-1.018399,-0.01317325,-0.04563774,29.2021,-4.569374,-24.53891,1007.46
12.222767830,-1.783391,-3.218771,3.204581,-1.011147,-0.01511116,-0.05243253,29.18813,-3.481461,-24.98849,1007.46
12.255047798,-1.101681,-2.749149,3.143641,-1.020344,-0.0122486,-0.05674738,28.83866,-4.200869,-24.53801,1007.462
12.289814949,0.1997657,-2.279527,2.899878,-1.015513,-0.006877162,-0.04657504,28.83866,-4.200869,-24.53801,1007.463
12.322098732,0.5096341,-2.866555,2.960819,-1.014565,0.0003763404,-0.04895303,28.82602,-3.841988,-24.97836,1007.463
12.356865883,0.1377921,-2.455635,2.534234,-1.014051,-0.01024577,-0.04224639,28.82668,-4.206503,-24.97374,1007.463
12.389149189,0.4476604,-1.633796,2.777996,-1.01163,-0.01022739,-0.03886744,28.82668,-4.206503,-24.97374,1007.463
12.421432972,0.695555,-0.6945519,2.656115,-1.013076,-0.009232561,-0.02967332,28.82734,-4.571019,-24.96912,1007.465
12.456195831,0.5716076,-0.6945519,2.290471,-1.014087,0.002799003,-0.04845685,28.82866,-5.300051,-24.95989,1007.465
12.488480091,-0.2340499,-1.164174,2.534234,-1.01356,-0.01070375,-0.03499847,28.82866,-5.300051,-24.95989,1007.465
12.523247242,0.1997657,-2.162122,3.265522,-1.017439,-0.01026692,-0.04562328,28.47589,-4.196881,-24.5325,1007.463
12.555531025,0.881476,-1.692499,3.326463,-1.010666,-0.004860465,-0.02675303,28.828,-4.935535,-24.96451,1007.463
12.587814808,0.3856867,-1.516391,2.838937,-1.014577,0.01254335,-0.0285794,28.828,-4.935535,-24.96451,1007.462
12.622581959,-0.0481289,-3.160069,3.509285,-1.017942,0.0003994241,-0.03927684,28.47721,-4.925912,-24.52327,1007.462
12.654860973,1.067397,-4.334125,3.753048,-1.015504,-0.006841126,-0.0359392,28.46522,-4.931547,-24.95899,1007.462
12.689628124,1.62516,-3.512285,3.93587,-1.011181,0.01259889,-0.01505012,28.46522,-4.931547,-24.95899,1007.46
12.721911907,2.058976,-4.216719,3.570225,-1.015071,0.01738453,-0.02758393,28.828,-4.935535,-24.96451,1007.46
12.756679058,2.244897,-4.334125,3.021759,-1.01361,0.01254775,-0.02809802,28.10311,-5.292074,-24.94886,1007.46
12.788963318,3.546343,-3.923205,3.326463,-1.018902,0.001402191,-0.02814998,28.10311,-5.292074,-24.94886,1007.46
12.821247101,7.016868,-5.038558,3.204581,-1.019407,0.004245411,-0.04553652,27.72901,-5.658236,-25.37446,1007.458
12.856009960,10.2395,-8.325912,4.78904,-1.03107,0.02449792,-0.05699876,28.4539,-5.301697,-25.3901,1007.458
12.888293266,6.583053,-8.854238,3.874929,-1.005859,0.007740416,-0.02524143,28.4539,-5.301697,-25.3901,1007.458
12.923060417,12.3466,-9.441265,4.545277,-1.023686,-0.017457,-0.02002845,28.08046,-6.032374,-25.81108,1007.458
12.955344200,9.805683,-9.441265,6.617261,-1.011225,0.03831591,0.00540063,26.99147,-5.655893,-25.79915,1007.46
12.990111351,6.273184,-7.210561,6.190676,-1.013065,0.008892291,0.03521049,27.00544,-6.743806,-25.34958,1007.459
13.022395134,10.98318,-6.271316,6.982905,-1.004988,0.05865559,0.004535959,27.00544,-6.743806,-25.34958,1007.459
13.054675102,8.256342,-3.805799,3.99681,-1.008333,0.04659357,0.01801087,26.99345,-6.749441,-25.78531,1007.459
13.089442253,3.608317,-0.2249297,4.179633,-1.009668,0.005534123,0.04098534,27.35755,-7.48246,-25.78159,1007.459
13.121726036,4.537921,-0.3423353,5.70315,-1.035457,0.0600121,0.002192146,27.35755,-7.48246,-25.78159,1007.459
13.156493187,-0.3579972,-2.631744,5.642209,-1.007013,0.08955106,-0.01607187,26.63134,-7.109968,-25.77518,1007.46
13.188776493,-4.882075,-2.98396,4.301514,-1.010734,0.04079262,0.02185057,25.90644,-7.466506,-25.75953,1007.46
13.223543644,-0.8537865,-4.86245,3.021759,-1.025794,0.04534662,-0.04964001,25.90644,-7.466506,-25.75953,1007.462
13.255823612,1.315292,-7.680182,2.22953,-0.9996945,0.07078212,0.008461011,26.98279,-7.484107,-26.2118,1007.462
13.288107395,-0.5439183,-5.860397,1.559182,-0.9980984,0.01568066,0.02651494,26.632,-7.474483,-25.77056,1007.465
13.322874546,1.811081,-6.917047,3.631166,-1.049951,0.05366645,-0.001680205,26.632,-7.474483,-25.77056,1007.465
13.355158329,2.678712,-10.02829,1.498242,-0.9751278,0.1027149,-0.01413199,26.63277,-7.899752,-25.76517,1007.471
13.389925480,-1.349576,-7.797588,-0.5128018,-1.028096,0.03555888,0.06295051,26.98356,-7.909375,-26.20642,1007.474
13.422209263,-2.77497,-7.62148,1.437301,-1.027142,0.03452662,0.04312161,26.98356,-7.909375,-26.20642,1007.474
13.454488277,0.1997657,-8.26721,1.681064,-1.001649,0.07997778,0.01045126,26.62145,-8.269902,-26.19628,1007.478
13.489255428,-1.659444,-6.506127,-0.451861,-0.9861069,0.06906693,0.06208367,26.23299,-8.277987,-27.12447,1007.483
13.521539688,-3.022865,-4.099313,-0.2690389,-0.9941589,0.006701831,0.08688523,26.23299,-8.277987,-27.12447,1007.49
13.556306839,-0.7298392,-2.220824,2.168589,-1.018493,0.06413504,0.06212543,26.2347,-8.277183,-27.06222,1007.495
13.588590622,-1.039708,-2.749149,0.4013088,-1.010319,0.0688553,0.02007548,25.87126,-7.908679,-27.06132,1007.495
13.623357773,-1.101681,-2.573041,0.03566457,-1.015553,0.04377738,0.04991737,25.87126,-7.908679,-27.06132,1007.5
13.655637264,-2.155233,-2.807852,2.168589,-1.023272,0.03747893,0.05424914,25.144,-7.901506,-27.11254,1007.505
13.687920570,-0.4199709,-3.042663,1.863886,-0.9900531,0.09609855,0.04532552,25.5197,-7.473787,-26.62547,1007.509
13.722687721,-2.403128,0.3033953,0.157546,-1.015005,0.03232009,0.09577772,25.5197,-7.473787,-26.62547,1007.516
13.754971504,-0.6678655,1.418748,1.681064,-1.016549,0.05147487,0.03739388,25.49545,-8.275645,-27.54917,1007.516
13.789738655,-1.535497,2.005776,0.3403681,-1.000617,0.06705699,0.05243474,25.88286,-8.63288,-26.67861,1007.521
13.822022915,-4.076417,1.770965,0.5841309,-0.9933378,0.06620651,0.08093709,25.88286,-8.63288,-26.67861,1007.526
13.856785774,-4.510232,-0.0488214,1.132597,-1.01687,-0.01479851,0.04475276,25.14571,-7.900702,-27.05029,1007.531
13.889069557,-7.980758,1.712262,0.7060123,-1.044178,0.07652924,0.02841055,25.86955,-7.909483,-27.12357,1007.538
13.921353340,-11.38931,-0.1075242,3.021759,-1.007359,0.06519528,0.07999469,25.86955,-7.909483,-27.12357,1007.538
13.956120491,-9.220231,0.1859897,0.4013088,-1.015593,0.07293429,0.0858577,25.89446,-7.472141,-26.19525,1007.542
13.988403797,-2.403128,-2.103419,-1.426912,-1.020453,0.04447588,-0.02548453,25.51904,-7.109272,-26.63008,1007.547
14.023170948,-0.5439183,-1.868608,-4.65677,-1.032518,0.0596888,0.04714377,25.87126,-7.908679,-27.06132,1007.55
14.055450916,-3.45668,-2.631744,-3.925481,-1.017926,0.02978403,0.06386264,25.87126,-7.908679,-27.06132,1007.558
14.090218067,-0.1720762,-3.453583,-4.352066,-1.00448,0.04751844,0.002054346,25.88247,-7.477776,-26.63098,1007.563
14.122501850,-0.5439183,-3.453583,-1.548794,-1.043543,0.01754048,0.04257694,25.50705,-7.114906,-27.06581,1007.563
14.154785633,-3.332733,-2.866555,-0.1471575,-1.000124,0.06025225,0.04320965,25.50705,-7.114906,-27.06581,1007.566
14.189552784,-15.97536,3.473345,-1.365972,-1.017209,0.1367497,0.06882024,25.85547,-6.760818,-27.57391,1007.573
14.221836567,-20.1276,-1.105471,-0.878446,-1.0127,0.03576762,-0.03135202,26.2326,-7.122883,-27.07684,1007.578
14.256599426,-12.13299,-0.5184436,-5.509939,-1.194188,0.1342819,0.06145263,26.2326,-7.122883,-27.07684,1007.588
14.288883209,-11.94707,-17.01392,-3.011371,-1.51379,-0.02824158,0.2110833,25.51666,-6.745561,-26.69695,1007.588
14.321166992,7.574631,-23.82345,0.4622495,-1.396971,-0.1410805,0.230011,25.86679,-6.390668,-27.1428,1007.599
14.355934143,75.37382,-34.68346,10.82217,-1.233286,-0.2407472,0.240694,25.86679,-6.390668,-27.1428,1007.611
14.388217926,148.3788,-42.19742,40.43935,-1.037113,0.0254857,0.2398512,25.50269,-5.657648,-27.14652,1007.62
14.422985077,151.8493,-32.74627,80.53833,-0.6823562,0.3380266,0.3467368,24.80613,-7.460176,-26.17871,1007.634
14.455265045,99.41959,-23.88215,110.4602,-0.6284605,0.621457,0.2573458,24.80613,-7.460176,-26.17871,1007.634
14.490032196,24.98923,-5.860397,121.9171,-0.6169567,0.6025013,0.08027462,23.06154,-12.57603,-23.9071,1007.647
14.522315025,-26.88272,4.706103,120.8811,-0.6553006,0.4327635,0.004942577,20.93944,-16.17472,-22.08495,1007.661
14.554599285,-37.66614,17.97293,119.5404,-0.7069871,0.3536704,-0.1573477,20.93944,-16.17472,-22.08495,1007.666
14.589366436,-22.35865,25.66299,108.2054,-0.7499343,0.2830567,-0.2524107,18.04251,-19.05894,-22.00389,1007.665
14.621650219,2.678712,38.87112,88.82627,-0.8236156,0.3593007,-0.2537521,15.13162,-20.85524,-22.37242,1007.665
14.656413078,6.397131,48.38097,64.32811,-0.8663953,0.4515717,-0.2642543,15.13162,-20.85524,-22.37242,1007.656
14.688696861,-8.166678,60.76726,44.15673,-0.8529031,0.4694962,-0.2699828,13.67118,-22.30299,-22.76762,1007.644
14.723464489,-12.50484,73.27095,17.58659,-0.9267569,0.4175305,-0.2623841,12.93761,-24.48774,-23.16462,1007.63
14.755748272,0.3856867,76.617,4.910921,-0.8987072,0.4552548,-0.1495888,14.38805,-24.13918,-23.1913,1007.613
14.788031101,-11.20339,80.19788,-2.158201,-0.882423,0.5626497,-0.03105418,14.38805,-24.13918,-23.1913,1007.613
14.822798252,-9.282205,61.00207,-7.520983,-1.037195,0.459479,0.2147631,16.58935,-24.51636,-22.34832,1007.596
14.855078220,-7.051153,25.48689,-14.40728,-1.103609,0.6144786,0.45654,19.52619,-23.80233,-21.0945,1007.578
14.889845371,-16.96694,-8.032398,-11.54307,-1.128704,0.6278053,0.554808,19.52619,-23.80233,-21.0945,1007.565
14.922129154,-45.66074,-31.3961,-14.89481,-1.013241,0.6042486,0.3600827,20.60121,-23.0909,-21.556,1007.552
14.956896305,-48.32561,-47.36326,-17.08867,-0.8838118,0.5511739,0.01094273,20.57658,-22.73765,-22.43207,1007.552
14.989180088,-27.81233,-39.7906,-9.410145,-0.7986978,0.482067,-0.176241,20.57658,-22.73765,-22.43207,1007.544
15.021464348,-10.21181,-20.30128,-6.606873,-0.8244816,0.5737067,-0.1016982,19.06158,-20.56278,-24.61634,1007.536
15.056226730,-9.963915,-9.089048,-3.925481,-0.8148544,0.6077601,-0.05704901,19.76316,-20.58202,-25.49882,1007.527
15.088510513,-24.96154,0.362098,0.7669531,-0.8606109,0.5394735,-0.0341336,19.76316,-20.58202,-25.49882,1007.522
15.123277664,-29.79549,4.060373,1.254479,-0.9116167,0.4499591,0.01236091,19.01258,-20.95063,-26.41688,1007.522
15.155561447,-17.95852,5.645348,-0.9393867,-0.9273863,0.3803211,0.03955495,18.63755,-19.85793,-26.79869,1007.515
15.187845230,-4.448259,7.347728,4.362454,-0.9057041,0.4274637,0.08086855,18.63755,-19.85793,-26.79869,1007.508
15.222612381,-3.95247,8.991407,13.5645,-0.8294516,0.5077006,0.1314381,19.35046,-19.50702,-27.25006,1007.503
15.254892349,-14.85983,18.44255,24.77759,-0.7897115,0.463227,0.111762,18.61121,-19.50549,-27.73701,1007.5
15.289659500,-9.839968,18.97088,23.98536,-0.8254751,0.4006528,-0.04466742,18.61121,-19.50549,-27.73701,1007.5
15.321943283,8.876079,21.6125,17.76941,-0.8586825,0.3396365,-0.02898931,19.37443,-19.49575,-26.37861,1007.494
15.356709957,21.14686,12.86579,4.057751,-0.8933623,0.4754125,-0.06053295,18.99862,-19.86272,-26.86645,1007.494
15.388993740,26.53857,8.404379,-3.681718,-0.8875117,0.4497285,-0.07616164,18.99862,-19.86272,-26.86645,1007.493
15.421277523,33.72752,12.57228,-11.23837,-0.919688,0.5672973,-0.05608625,18.31007,-19.47252,-25.49061,1007.491
15.456040859,40.11081,15.62482,-16.84491,-0.945865,0.5918736,-0.064592,19.03695,-20.20953,-25.49241,1007.491
15.488324642,36.02054,13.21801,-23.42651,-0.9560591,0.6043858,-0.07658485,19.03695,-20.20953,-25.49241,1007.489
15.523091793,31.93028,9.284921,-25.31567,-0.9091083,0.5802808,-0.08939251,18.73542,-20.9064,-23.29903,1007.489
15.555375576,31.37252,11.046,-26.83919,-0.9236841,0.5858156,-0.1574945,20.20984,-20.54657,-22.45425,1007.489
15.590142727,21.51871,14.09855,-27.93612,-0.9329727,0.6313047,-0.1494808,20.96068,-21.27231,-21.5846,1007.485
15.622426033,9.805683,24.78245,-35.85841,-0.8980271,0.5562004,-0.2075123,20.96068,-21.27231,-21.5846,1007.485
15.654705524,-5.749706,36.11209,-46.7668,-0.8505941,0.5389325,-0.2023949,21.70889,-20.53999,-20.73341,1007.485
15.689472675,-29.48562,46.9134,-59.68623,-0.8088403,0.4615639,-0.2203286,22.8192,-19.44713,-19.89235,1007.485
15.721756458,-49.50311,54.54476,-69.19298,-0.7637874,0.4405355,-0.1804199,22.8192,-19.44713,-19.89235,1007.484
15.756523609,-68.71495,47.61783,-74.312,-0.8133156,0.3174179,-0.1979335,24.26766,-18.00502,-19.93287,1007.478
15.788807869,-65.92613,32.53122,-76.32304,-0.7789956,0.1606524,-0.07658886,26.82948,-16.19829,-19.06086,1007.473
15.821091652,-36.1168,11.51563,-68.33981,-0.781521,0.0302602,0.004376322,26.82948,-16.19829,-19.06086,1007.473
15.855854511,30.56686,-9.499969,-53.77498,-0.889934,0.06667996,-0.009686103,28.28596,-12.56345,-18.69335,1007.47
15.888137817,95.32933,-11.37846,-35.55371,-0.9634379,0.3117142,0.102573,29.0082,-10.74885,-18.72746,1007.465
15.922904968,57.27751,-3.747097,-13.55411,-1.081352,0.6140624,-0.113968,29.0082,-10.74885,-18.72746,1007.458
15.955188751,-0.9157602,1.712262,-11.90871,-1.216224,0.5527499,-0.2426206,30.46865,-9.301107,-18.33226,1007.454
15.989955902,-22.66851,0.7730175,-7.581923,-1.177407,0.2944626,-0.2378882,30.13116,-10.01488,-17.44606,1007.454
16.022239685,-20.31352,1.653559,-12.3353,-1.128649,0.1296369,-0.2224936,30.13116,-10.01488,-17.44606,1007.451
16.054519653,-0.4819446,0.7143147,-14.10258,-1.000839,0.08812778,-0.1558071,30.48063,-9.295473,-17.89653,1007.445
16.089286804,16.62279,5.05832,-14.22446,-0.8978842,0.107799,-0.1501158,30.456,-8.942226,-18.77261,1007.442
16.121570587,23.00607,8.932704,-11.78683,-0.8665736,0.1533274,-0.164911,30.456,-8.942226,-18.77261,1007.439
16.156337738,14.88752,9.284921,-12.3353,-0.8869557,0.1764226,-0.186974,31.20553,-8.938934,-17.91218,1007.439
16.188621044,7.884499,7.641243,-10.9946,-0.9319388,0.177216,-0.2004088,30.85341,-8.200279,-17.48017,1007.437
16.223388195,0.3856867,5.880159,-8.556974,-0.9615023,0.1998206,-0.2166535,30.85341,-8.200279,-17.48017,1007.435
16.255668163,-6.307469,4.119075,-4.65677,-0.9938032,0.156637,-0.2231141,31.21751,-8.9333,-17.47646,1007.435
16.287951946,-4.262338,3.590751,-3.072311,-1.047415,0.1210667,-0.2497899,31.20354,-7.845387,-17.92603,1007.435
16.322719097,-0.6678655,2.416695,-1.426912,-1.018808,0.09752588,-0.2233963,31.20354,-7.845387,-17.92603,1007.435
16.355002880,-0.0481289,0.1859897,0.7060123,-1.015953,0.1120029,-0.2378233,31.59029,-7.838106,-17.06009,1007.433
16.389770031,2.864633,0.4795036,2.777996,-0.9733769,0.1048935,-0.229737,31.94174,-8.212245,-17.49672,1007.433
16.422053814,2.616739,-0.1075242,3.813988,-0.9361668,0.1156562,-0.2268554,31.94174,-8.212245,-17.49672,1007.433
16.456816196,1.129371,0.8904231,4.78904,-0.9250646,0.1385751,-0.1846898,31.59095,-8.202622,-17.05548,1007.433
16.489100456,-2.589049,2.886317,6.921965,-0.93625,0.1627119,-0.192747,31.59029,-7.838106,-17.06009,1007.433
16.521384239,-6.98918,0.5969092,7.836075,-0.9483475,0.1660616,-0.1936687,31.59029,-7.838106,-17.06009,1007.433
16.556151390,-8.476547,1.712262,8.689245,-0.9691526,0.1610629,-0.2231421,31.24016,-8.192999,-16.61423,1007.435
16.588435173,-7.1751,1.536154,8.140779,-0.9628719,0.1576377,-0.239612,31.60293,-8.196987,-16.61975,1007.436
16.623202324,-5.81168,0.9491258,7.348549,-0.9851337,0.1648265,-0.2414569,31.59161,-8.567138,-17.05086,1007.436
16.655482292,-4.510232,1.066531,6.007854,-0.9948038,0.1662686,-0.23611,31.59161,-8.567138,-17.05086,1007.436
16.687766075,-3.580627,0.1272869,5.276566,-0.9909475,0.1769802,-0.2201039,31.59161,-8.567138,-17.05086,1007.442
16.722532272,-2.589049,1.125234,5.154684,-0.973064,0.1809093,-0.2181864,31.22884,-8.563149,-17.04535,1007.444
16.754816055,-3.208786,-0.166227,5.459388,-0.97306,0.1819034,-0.2104457,31.22884,-8.563149,-17.04535,1007.444
16.789583206,-4.324312,-0.7532547,5.642209,-0.980323,0.1823305,-0.2210633,31.21751,-8.9333,-17.47646,1007.444
16.821867466,-4.386285,0.009881377,5.154684,-0.9720833,0.1731496,-0.2240339,31.21685,-8.568784,-17.48107,1007.444
16.856630325,-3.332733,-0.7532547,4.545277,-0.977414,0.1740629,-0.2356197,31.21685,-8.568784,-17.48107,1007.444
16.888914108,-2.155233,-1.340283,3.265522,-0.9784002,0.1871753,-0.2210399,30.86738,-9.288193,-17.0306,1007.445
16.921197891,-2.341154,-2.807852,2.290471,-0.9750661,0.2040783,-0.2340038,31.23016,-9.292181,-17.03611,1007.447
16.955965042,-1.101681,-5.390775,2.168589,-0.9649037,0.2095157,-0.208856,31.23016,-9.292181,-17.03611,1007.447
16.988248348,-4.696154,-3.688394,2.595174,-0.9566813,0.206616,-0.2146915,30.47997,-8.930957,-17.90115,1007.447
17.023015499,-6.679311,-4.334125,1.802945,-0.947925,0.1868227,-0.2080548,31.58029,-8.937288,-17.48197,1007.449
17.055295467,-4.63418,-2.396933,0.8278937,-0.9948111,0.1823644,-0.1987937,31.58029,-8.937288,-17.48197,1007.451
17.090062618,-2.836944,-2.220824,-0.3299797,-0.9866015,0.1794123,-0.2200995,30.84407,-9.663977,-17.89743,1007.451
17.122346401,0.01384473,-1.516391,-0.02527615,-0.9885305,0.1740524,-0.2293112,31.20685,-9.667966,-17.90295,1007.455
17.154630184,1.749107,0.2446925,-0.7565646,-0.9865794,0.1692416,-0.2225746,31.20685,-9.667966,-17.90295,1007.455
17.189397335,2.678712,1.183937,-3.377015,-0.9856606,0.1944545,-0.2088969,30.83143,-9.305096,-18.33778,1007.456
17.221681118,2.368844,1.947073,-4.71771,-0.9600195,0.1931169,-0.1968738,31.20553,-8.938934,-17.91218,1007.456
17.256444454,0.3856867,2.94502,-5.448998,-0.9368497,0.2052323,-0.211358,31.20553,-8.938934,-17.91218,1007.451
17.288727760,0.07581842,2.827615,-7.642864,-0.9891086,0.2142187,-0.2285981,30.84275,-8.934946,-17.90667,1007.455
17.321011543,-3.332733,0.6556119,-11.78683,-1.02103,0.2131203,-0.2401381,31.5683,-8.942923,-17.9177,1007.453
17.355778694,0.01384473,3.766859,-14.46822,-1.079089,0.2113503,-0.2849828,30.85275,-7.835764,-17.48479,1007.453
17.388062477,1.62516,10.45898,-18.91689,-1.198449,0.1604984,-0.3386764,30.85275,-7.835764,-17.48479,1007.447
17.422829628,9.123973,12.80709,-25.43755,-1.261105,0.07125457,-0.3453335,31.95505,-8.935642,-17.05176,1007.447
17.455109596,24.98923,18.14904,-38.96639,-1.305827,-0.02216081,-0.3128944,31.2395,-7.828483,-16.61885,1007.45
17.489876747,44.1391,31.41587,-47.92467,-1.292393,-0.1549417,-0.2363282,31.2395,-7.828483,-16.61885,1007.446
17.522160530,85.22763,22.08212,-58.28459,-1.24774,-0.1883308,-0.1307412,32.36169,-6.669245,-15.34283,1007.446
17.554443836,62.91711,26.19132,-66.87724,-1.336483,-0.06698016,-0.08925106,33.84743,-5.939264,-14.06695,1007.444
17.589210987,9.495815,16.50536,-73.64165,-1.518155,-0.1582976,-0.1788149,33.84743,-5.939264,-14.06695,1007.444
17.621494770,-1.163655,10.45898,-83.81875,-1.500712,-0.1952394,-0.2419096,34.2555,-4.462651,-12.34802,1007.446
17.656257629,-27.8743,12.51357,-84.4891,-1.383131,-0.2439309,-0.2869162,33.94974,-1.878075,-10.13393,1007.451
17.688541889,-48.94535,19.14699,-78.63879,-1.268939,-0.2906932,-0.3309377,33.94974,-1.878075,-10.13393,1007.451
17.723309040,-50.06087,44.03696,-59.99093,-1.175749,-0.2699696,-0.43496,34.00569,0.3371925,-7.982994,1007.46
17.755592823,-67.78534,64.34813,-46.58398,-1.018278,-0.194456,-0.4189166,34.48237,3.670193,-3.672784,1007.476
17.787876606,-89.66205,95.34319,-27.20483,-0.824596,-0.1127179,-0.4531934,34.48237,3.670193,-3.672784,1007.486
17.822643757,-113.0881,116.2414,-10.26331,-0.7371615,-0.05565476,-0.3960116,36.39883,6.617086,0.1842527,1007.497
17.854922771,-139.3649,124.1663,-3.8036,-0.6664196,-0.0983473,-0.3446789,37.93158,8.828474,3.24683,1007.497
17.889689922,-135.8324,127.8058,-14.04164,-0.6294316,-0.169577,-0.2605618,37.93158,8.828474,3.24683,1007.505
17.921973705,-111.6007,110.8407,-36.77253,-0.6118414,-0.2308322,-0.2155048,38.45016,8.897736,8.905763,1007.506
17.956740856,-74.60245,79.02382,-67.91322,-0.5638917,-0.2626215,-0.2119214,36.40838,8.255419,13.80333,1007.512
17.989024639,-42.31416,53.66422,-94.23961,-0.5030214,-0.2377588,-0.209494,36.40838,8.255419,13.80333,1007.51
18.021308899,-15.10773,31.06365,-112.9484,-0.5424816,-0.1095871,-0.1961108,35.76672,8.302837,16.86445,1007.51
18.056071758,-20.74733,-2.220824,-124.9537,-0.6026568,-0.07009204,-0.3432053,34.02249,10.54449,19.54094,1007.507
18.088355541,-26.44891,-35.09438,-124.9537,-0.6390973,-0.01765391,-0.4037419,34.02249,10.54449,19.54094,1007.507
18.123122215,-46.59035,-61.33452,-110.1451,-0.5949039,-0.07586724,-0.3403542,32.22729,13.49183,20.40304,1007.504
18.155405998,-52.91166,-78.24092,-80.77171,-0.5081764,0.01740797,-0.4497514,32.19868,16.03217,19.49928,1007.5
18.187689781,-60.22455,-90.80331,-49.87477,-0.5100687,0.2149515,-0.417684,32.19868,16.03217,19.49928,1007.5
18.222456932,-93.13257,-107.3575,-26.47354,-0.448511,0.3505629,-0.4363832,32.49519,18.55081,17.22057,1007.498
18.254736900,-101.7469,-118.511,-3.620778,-0.4244142,0.394279,-0.4086305,33.19412,19.98963,16.31962,1007.497
18.289504051,-114.6374,-139.2331,27.45898,-0.3917633,0.4755158,-0.4546491,36.01376,19.18925,13.23464,1007.497
18.321787834,-56.32021,-139.057,66.82668,-0.3174499,0.4183637,-1.389621,36.01376,19.18925,13.23464,1007.498
18.356554985,-105.2794,-23.82345,70.54406,-1.579278,0.636431,-2.23313,38.0835,17.65574,9.236224,1007.502
18.388838291,6.954895,16.91628,69.26431,-1.764642,0.07983056,-1.102231,40.55896,13.21982,6.638645,1007.502
18.421122074,51.76185,6.878106,33.85775,-1.73896,-0.05851097,0.3230709,40.55896,13.21982,6.638645,1007.497
18.455885410,7.636605,5.527942,35.25939,-1.056691,0.09091052,0.1416439,41.34105,8.495676,8.430529,1007.491
18.488169193,-8.3526,-31.92443,29.10438,-0.9572073,0.139002,-0.4601782,42.78149,7.745057,7.981971,1007.484
18.522936344,-47.45798,-16.66171,2.107649,-0.5881888,0.1813613,-0.8392652,42.78149,7.745057,7.981971,1007.481
18.555220127,-16.65707,7.17162,5.276566,-0.54571,0.07958324,-0.6349574,41.68383,6.293324,7.581254,1007.481
18.589987278,-10.89352,7.347728,13.19886,-0.7341105,0.08957279,-0.3835899,42.40938,6.285348,7.570223,1007.474
18.622271061,-10.27378,7.817351,19.23199,-0.9645493,0.1767293,-0.4594644,42.40938,6.285348,7.570223,1007.467
18.654551029,-18.82615,13.21801,19.29293,-0.987555,0.2654238,-0.5425454,42.78613,5.193446,8.014282,1007.46
18.689317226,-14.67391,19.02958,17.58659,-1.034029,0.09017146,-0.5245876,42.79877,4.834565,8.454625,1007.453
18.721601486,-8.910362,24.13672,15.33178,-0.9671688,0.06696097,-0.4330104,42.79877,4.834565,8.454625,1007.453
18.756368637,-26.13904,27.01316,10.15182,-0.8495117,0.2008118,-0.4474895,42.45063,3.386125,8.91433,1007.448
18.788652420,-38.65772,26.42613,12.04098,-0.7708481,0.2365595,-0.5325409,41.38693,3.044845,9.806947,1007.445
18.823419571,-36.24075,22.72786,19.59763,-0.7487607,0.2740944,-0.6135928,41.38693,3.044845,9.806947,1007.44
18.855699062,-27.06865,20.61456,24.53383,-0.7704067,0.2417613,-0.5687702,41.80135,1.970651,11.62043,1007.436
18.887983322,-20.1276,23.49099,32.2733,-0.8867381,0.1816749,-0.4939281,41.4532,0.5222106,12.08014,1007.436
18.922750473,-35.43509,25.31078,34.2234,-0.9469463,0.2699002,-0.5411572,41.4532,0.5222106,12.08014,1007.431
18.955033302,-62.57955,24.54764,33.1874,-0.8794934,0.3531362,-0.5978751,41.12836,-0.5504436,13.40668,1007.433
18.989800453,-81.66744,20.37975,36.72197,-0.8431532,0.2983283,-0.665463,41.16763,-2.356119,14.73694,1007.426
19.022084236,-78.25889,7.934757,41.4144,-0.72767,0.3447334,-0.6354748,41.16763,-2.356119,14.73694,1007.428
19.054364204,-71.75166,0.7143147,46.59436,-0.6193514,0.3758467,-0.5422277,41.18556,-5.631126,15.21421,1007.428
19.089131355,-65.98811,-0.4597408,55.43076,-0.6753004,0.509636,-0.5708361,40.06536,-7.883912,13.95204,1007.428
19.121415138,-52.22995,-6.036505,56.58864,-0.635662,0.5307106,-0.525842,40.06536,-7.883912,13.95204,1007.422
19.156182289,-42.9339,-6.917047,59.20909,-0.6812662,0.6066771,-0.4900207,39.68258,-10.07829,13.1138,1007.421
19.188466072,-29.17575,-8.208507,56.46675,-0.6583194,0.5421724,-0.4087358,39.68986,-14.08796,13.16457,1007.421
19.223233223,-10.64563,-8.854238,48.84917,-0.686015,0.5840545,-0.4500137,39.29575,-16.65248,11.89522,1007.421
19.255512714,3.112528,-6.153911,44.52238,-0.7392501,0.7996607,-0.4709112,39.29575,-16.65248,11.89522,1007.421
19.287796497,5.591474,6.232376,35.50315,-0.7611502,0.8517923,-0.4913554,39.65118,-19.21372,11.48629,1007.421
19.322563648,13.33818,19.61661,24.0463,-0.6877411,0.6542552,-0.582073,37.83994,-20.65184,11.53233,1007.416
19.354847431,36.08252,29.83089,9.237711,-0.5939991,0.4353735,-0.7053461,37.83994,-20.65184,11.53233,1007.414
19.389614582,50.52238,34.58582,-6.180287,-0.4959232,0.4670701,-0.7169798,37.17497,-20.98021,13.72661,1007.414
19.421898365,44.32502,46.32637,-21.41546,-0.4189212,0.4355276,-0.6651137,36.1226,-20.95134,15.05034,1007.414
19.456661701,12.78042,54.83827,-38.17416,-0.4174047,0.4196784,-0.6308829,36.1226,-20.95134,15.05034,1007.416
19.488945484,-11.32734,55.484,-39.14921,-0.436882,0.5045792,-0.5510743,36.18054,-19.82962,17.21512,1007.413
19.521228790,-32.52233,55.83622,-38.78357,-0.3978949,0.6080317,-0.4727365,36.2535,-19.43049,19.88712,1007.407
19.555995941,-43.36772,62.99796,-30.61751,-0.5017714,0.7737021,-0.4778554,36.2535,-19.43049,19.88712,1007.407
19.588279724,-70.6981,59.06487,-21.35452,-0.5372747,0.6384165,-0.5278587,35.58721,-19.02982,22.07216,1007.402
19.623046875,-54.461,53.3707,-4.108303,-0.584786,0.6797941,-0.5584611,35.2737,-19.73233,23.82982,1007.401
19.655326843,-21.0572,47.67654,2.534234,-0.5270102,0.5572937,-0.6274471,35.2737,-19.73233,23.82982,1007.399
19.690093994,13.83397,38.4015,9.481474,-0.4705582,0.5862668,-0.6936351,34.24927,-21.87928,26.0527,1007.395
19.722377777,39.86291,37.52095,8.201719,-0.4174982,0.6415883,-0.6929514,32.49901,-22.92391,28.335,1007.395
19.754661560,43.76725,46.9721,-3.437956,-0.4167012,0.7234718,-0.6639647,32.49901,-22.92391,28.335,1007.39
19.789428711,27.90199,48.67448,-13.49317,-0.4108341,0.6885718,-0.6859306,30.40756,-23.58957,31.42741,1007.385
19.821712017,24.86528,54.72087,-18.85596,-0.3661568,0.5937113,-0.7271751,28.68929,-22.4302,34.9892,1007.38
19.856474876,37.0741,56.77547,-21.65923,-0.324456,0.5386017,-0.7454656,28.68929,-22.4302,34.9892,1007.376
19.888758659,53.0633,58.30174,-19.40442,-0.2798658,0.4800311,-0.7879538,25.857,-21.27094,37.63384,1007.376
19.921042919,67.99895,64.40683,-18.00278,-0.2310324,0.4933449,-0.7560764,23.42212,-19.36973,41.57092,1007.373
19.955810070,75.86961,71.21635,-16.54021,-0.2285649,0.4515325,-0.8157824,23.42212,-19.36973,41.57092,1007.37
19.988093853,71.77934,76.91052,-15.56516,-0.2023077,0.4043213,-0.7750152,19.83938,-16.75489,43.39891,1007.368
20.022861004,73.70052,84.36578,-16.60115,-0.1877816,0.3941823,-0.7804219,16.61637,-13.41581,45.14992,1007.366
20.089907646,65.02422,103.9138,-12.09154,-0.1799406,0.3755786,-0.7075453,12.31504,-8.965588,47.33934,1007.364
20.122190952,118.8174,118.3547,-0.3299797,-0.7251442,0.5737908,-1.018512,8.319091,-5.944835,47.36232,1007.364
20.154474735,125.7584,104.1486,-27.99706,-0.8805938,0.2787924,-0.9724769,3.597038,-2.612342,47.39248,1007.364
20.189241886,62.85514,-5.155963,-31.59256,-0.487087,0.06551534,-1.123437,3.597038,-2.612342,47.39248,1007.371
20.221525669,0.8195023,10.45898,-23.24368,-0.2007579,-0.06580519,-1.418248,-0.7881929,1.79844,46.53182,1007.385
20.256289005,-0.2960236,14.56817,0.9497752,-0.1885106,0.09658924,-1.345802,-0.4420319,4.340426,46.05827,1007.385
20.288572788,-2.960891,-6.212614,0.4622495,-0.1626419,0.106456,-1.026249,-0.4420319,4.340426,46.05827,1007.39
20.323339939,4.84779,-15.13544,-4.65677,-0.1001179,0.1057755,-0.8513824,-1.240695,4.70795,45.62988,1007.394
20.355623722,-2.465102,-25.23231,-8.800737,-0.06477509,0.07918171,-0.8748149,-1.615458,4.706304,45.19966,1007.392
20.387907028,-4.138391,-26.40637,-5.083355,-0.06886798,0.1207548,-1.027336,-1.615458,4.706304,45.19966,1007.387
20.422674179,-2.403128,-29.2828,3.265522,-0.0725011,0.207677,-1.078562,-0.8401033,3.962996,44.76122,1007.387
20.454954147,4.537921,-17.24874,0.3403681,-0.06611707,0.1650978,-1.082202,-0.115211,4.319534,44.74557,1007.387
20.489721298,7.760552,-7.093155,-0.5128018,-0.03828628,0.0900572,-0.9724648,-0.115211,4.319534,44.74557,1007.387
20.522005081,20.83699,-12.61122,-3.925481,-0.09767685,0.07802483,-0.9027901,0.2475657,4.315546,44.74005,1007.388
20.554288864,36.14449,-14.66581,-4.839592,-0.09529798,0.08129149,-0.9404848,1.709336,5.034258,45.14449,1007.39
20.589056015,39.30515,-9.558671,-2.767608,-0.125373,0.09107342,-1.027383,1.709336,5.034258,45.14449,1007.39
20.621339798,32.98383,-5.625586,0.5841309,-0.1392774,0.03434981,-1.04653,2.047481,5.383516,44.2629,1007.39
20.656102180,26.84844,-9.030346,-0.08621684,-0.1851344,0.0159799,-1.002059,1.693381,7.215718,44.68106,1007.39
20.688386440,22.13844,-4.216719,0.4622495,-0.1535346,-0.03844873,-0.9536096,1.693381,7.215718,44.68106,1007.392
20.723153591,4.475948,9.578435,8.933008,-0.1746106,0.05218701,-1.036684,2.755096,8.650546,43.7746,1007.394
20.755437374,7.016868,8.639191,3.99681,-0.100594,-0.07837637,-0.7852306,3.104564,9.369955,43.32413,1007.394
20.787721157,-3.332733,4.471292,-1.365972,-0.1553815,0.05617341,-1.161913,3.104564,9.369955,43.32413,1007.397
20.822488308,-42.50008,11.92655,-3.559837,-0.1133055,0.03873302,-1.203195,2.377026,10.47148,43.32131,1007.401
20.854768276,-59.23298,30.24181,4.84998,0.1322715,-0.0213787,-0.8704936,1.653457,9.385908,43.34619,1007.406
20.889535427,-49.751,55.54271,8.628304,-0.04364559,-0.01465316,-0.7361636,1.656103,7.927846,43.36465,1007.407
20.921819210,-44.91706,35.17284,7.226667,-0.2233073,0.07902148,-0.7879387,1.656103,7.927846,43.36465,1007.407
20.956585407,-44.73114,22.02342,-4.169244,-0.01518116,0.1370892,-0.9649956,0.6190205,6.139771,45.14719,1007.411
20.988869667,-49.93692,27.835,-7.825686,0.006642438,0.2282622,-1.211562,-0.4660025,4.329157,45.18681,1007.418
21.021153450,-47.33403,25.31078,-8.252271,-0.09204665,0.2336546,-1.250477,-0.4660025,4.329157,45.18681,1007.421
21.055916309,-27.81233,28.01111,-1.365972,0.01323055,0.1777323,-0.9909315,-1.636121,2.872456,44.35129,1007.421
21.088200092,-7.918784,21.37769,3.631166,-0.07799367,0.1625209,-0.8327368,-2.697834,1.437627,45.25775,1007.421
21.122967243,16.99463,7.17162,3.143641,-0.08875873,0.2113198,-0.8464559,-2.697834,1.437627,45.25775,1007.418
21.155251503,21.64265,-2.749149,0.09660529,0.004424957,0.2217547,-0.9877614,-3.786165,1.449593,45.2743,1007.418
21.190018654,16.18897,0.1859897,1.863886,0.004824733,0.2174998,-1.101395,-3.810798,1.80284,44.39823,1007.419
21.222302437,9.557789,2.94502,2.838937,0.005962411,0.1600576,-1.059665,-3.810798,1.80284,44.39823,1007.419
21.254581451,10.85924,2.064478,2.595174,0.005161297,0.1226261,-0.9660885,-4.149604,1.818097,45.2752,1007.419
21.289348602,10.73529,-1.398985,0.7060123,0.01628327,0.1275464,-0.9515814,-3.788811,2.907656,45.25584,1007.419
21.321632385,3.918185,-1.986013,0.03566457,0.0268397,0.153627,-0.9756278,-3.788811,2.907656,45.25584,1007.419
21.356399536,-4.820101,-0.1075242,-0.08621684,0.0282466,0.1690874,-0.9842448,-4.150927,2.547129,45.26597,1007.419
21.388683319,-10.21181,0.06858415,-0.2080983,0.01662581,0.1704552,-0.9991986,-3.43802,2.898032,44.81459,1007.419
21.421024799,-11.82312,0.009881377,-0.3299797,0.009868343,0.1602242,-1.013745,-3.43802,2.898032,44.81459,1007.419
21.455787659,-9.592072,-1.398985,-0.878446,0.008445716,0.1549607,-0.9949182,-4.140265,3.281795,45.69246,1007.424
21.488070965,-5.749706,-1.457688,-0.6346832,0.00700074,0.1564461,-0.9837874,-4.164896,3.635041,44.81639,1007.424
21.522838116,-2.898917,-0.3423353,-0.2690389,0.009351032,0.1859824,-0.9807239,-4.164896,3.635041,44.81639,1007.424
21.555121899,-2.465102,0.362098,0.157546,0.01271223,0.1917583,-0.9927844,-3.424711,2.174635,45.25955,1007.426
21.589889049,-1.473523,1.007829,0.3403681,0.006933447,0.1830441,-0.9889539,-4.162912,2.541494,44.83024,1007.426
21.622172832,0.881476,0.7143147,0.4622495,0.01274238,0.1791778,-0.9923725,-4.162912,2.541494,44.83024,1007.426
21.654452801,3.608317,0.7730175,0.7060123,0.01470601,0.1675772,-0.9900256,-3.812782,2.896387,44.38438,1007.426
21.689219952,4.104106,0.3033953,0.2794274,0.02052435,0.1627726,-0.9847475,-3.787488,2.178624,45.26507,1007.424
21.721503735,1.935028,-0.166227,-0.02527615,0.0175855,0.1762913,-0.9914325,-3.787488,2.178624,45.26507,1007.426
21.756270885,-1.535497,0.009881377,0.157546,0.01518079,0.1714517,-0.9895211,-4.513042,2.186601,45.2761,1007.426
21.788554192,-2.836944,0.009881377,0.2184867,0.01178726,0.1758039,-0.9875552,-4.150927,2.547129,45.26597,1007.426
21.823321342,-1.783391,-0.166227,0.2184867,0.01421907,0.1695165,-0.9885631,-3.77418,1.455227,45.71003,1007.424
21.855601311,-0.7298392,-0.166227,0.03566457,0.007945088,0.163196,-0.9919696,-3.77418,1.455227,45.71003,1007.424
21.887885094,-0.6678655,-0.2836325,0.157546,0.01275175,0.1777506,-0.9851289,-4.150927,2.547129,45.26597,1007.419
21.922652245,-1.473523,-0.0488214,0.157546,0.01227405,0.1767961,-0.9807824,-3.799474,2.17299,44.82934,1007.419
21.954936028,-2.09326,0.1859897,0.2794274,0.01710058,0.1787276,-0.9860997,-3.799474,2.17299,44.82934,1007.419
21.989703178,-1.349576,-0.0488214,0.2184867,0.02098856,0.1724673,-0.9803424,-3.78815,2.54314,45.26045,1007.419
22.021986961,-0.2960236,-0.6358492,0.157546,0.01613182,0.1777406,-0.9909377,-4.149604,1.818097,45.2752,1007.419
22.056750298,0.5716076,-0.2249297,0.2184867,0.01517965,0.1719356,-0.9895183,-4.149604,1.818097,45.2752,1007.419
22.089033604,0.5096341,-0.2249297,0.2184867,0.008889686,0.172879,-0.9914331,-4.149604,1.818097,45.2752,1007.418
22.121317387,0.01384473,-0.0488214,0.2184867,0.01759742,0.1724314,-0.9880703,-3.800135,2.537506,44.82472,1007.418
22.156084538,-0.5439183,0.1272869,0.2794274,0.01179747,0.1704709,-0.9904862,-3.800135,2.537506,44.82472,1007.418
22.188368321,-0.3579972,0.2446925,0.3403681,0.007431205,0.1782177,-0.9855983,-3.436697,2.169001,44.82382,1007.418
22.223135471,-0.1101026,0.009881377,0.2184867,0.01083804,0.1675678,-0.9895338,-3.78815,2.54314,45.26045,1007.418
22.255415440,-0.2340499,0.1859897,0.09660529,0.01566861,0.1704934,-0.9871103,-3.78815,2.54314,45.26045,1007.418
22.287699223,-0.7918129,0.1859897,0.3403681,0.01663318,0.1734178,-0.981778,-3.423388,1.445603,45.26878,1007.418
22.322466373,-1.411549,-0.166227,0.3403681,0.01856934,0.1734315,-0.9793648,-4.138941,2.552763,45.70169,1007.418
22.354749203,-1.721418,-0.929363,0.09660529,0.01130781,0.1728875,-0.9909549,-4.138941,2.552763,45.70169,1007.418
22.389516353,-1.721418,-0.2249297,0.157546,0.0108236,0.1743494,-0.9875614,-4.13828,2.188247,45.70631,1007.422
22.421960354,-1.287602,-0.2836325,0.2794274,0.01517045,0.1753182,-0.9909494,-3.436697,2.169001,44.82382,1007.422
22.456723690,-1.411549,0.06858415,0.2184867,0.01033564,0.1782391,-0.981737,-3.436697,2.169001,44.82382,1007.422
22.489007473,-1.225628,0.1272869,0.157546,0.01032588,0.1796647,-0.9894639,-4.13828,2.188247,45.70631,1007.418
22.521291256,-1.039708,-0.0488214,0.2794274,0.01178726,0.1758039,-0.9875552,-4.162251,2.176978,44.83485,1007.419
22.556058407,-0.5439183,0.2446925,0.3403681,0.009867245,0.1704817,-0.9856476,-4.162251,2.176978,44.83485,1007.419
22.588342190,0.2617394,0.5969092,0.4622495,0.009364557,0.1777311,-0.9880224,-4.162251,2.176978,44.83485,1007.424
22.623109341,0.8195023,0.4795036,0.4013088,0.008878721,0.1786976,-0.9880159,-3.436697,2.169001,44.82382,1007.424
22.655388355,0.695555,0.6556119,0.2184867,0.01565681,0.1758199,-0.9861131,-3.787488,2.178624,45.26507,1007.419
22.690155983,-0.1101026,0.4208008,0.3403681,0.02048505,0.1792245,-0.9851372,-3.787488,2.178624,45.26507,1007.419
22.722439766,-0.9157602,0.1859897,0.5231902,0.01951981,0.1777634,-0.9870772,-4.875157,1.826074,45.28623,1007.419
22.754723549,-0.7918129,0.1272869,0.2794274,0.01516794,0.1782398,-0.9856149,-4.161589,1.812463,44.83947,1007.421
22.789490700,-0.4819446,0.1859897,0.157546,0.01372558,0.1733833,-0.989507,-4.161589,1.812463,44.83947,1007.419
22.821774483,0.1997657,-0.0488214,0.3403681,0.01903882,0.1753293,-0.9909577,-3.424711,2.174635,45.25955,1007.419
22.856537819,0.5716076,-0.1075242,0.09660529,0.01613736,0.1777636,-0.9841694,-3.423388,1.445603,45.26878,1007.421
22.888821602,0.5096341,-0.0488214,-0.02527615,0.01177952,0.1777265,-0.9914118,-3.423388,1.445603,45.26878,1007.419
22.921105385,0.1377921,0.009881377,0.157546,0.01421916,0.1704942,-0.9856569,-3.775503,2.184258,45.70079,1007.419
22.955871582,0.1377921,0.362098,0.3403681,0.008886918,0.1728675,-0.9948173,-4.150265,2.182612,45.27058,1007.418
22.988155842,0.5096341,0.5969092,0.5231902,0.01082202,0.1743428,-0.9894952,-4.150265,2.182612,45.27058,1007.418
23.022922993,0.323713,0.362098,0.2184867,0.01276966,0.1700061,-0.9856565,-4.150927,2.547129,45.26597,1007.418
23.055202484,-0.1720762,0.8904231,0.2794274,0.01711762,0.1700022,-0.9905003,-3.78815,2.54314,45.26045,1007.418
23.089969635,-0.7918129,0.7143147,0.03566457,0.01421943,0.1690293,-0.9895328,-3.78815,2.54314,45.26045,1007.418
23.122253418,-1.163655,0.5382064,0.09660529,0.02050173,0.1709863,-0.9885682,-3.437358,2.533517,44.81921,1007.418
23.154537678,-0.6058919,0.1859897,0.2794274,0.01952368,0.1768021,-0.985149,-4.875157,1.826074,45.28623,1007.418
23.189304829,-0.2340499,-0.2249297,0.2794274,0.01953007,0.1729192,-0.9885551,-4.875157,1.826074,45.28623,1007.416
23.221588612,0.6335813,-0.2836325,0.157546,0.02388849,0.1705153,-0.9876114,-4.512381,1.822085,45.28071,1007.418
23.256350994,0.695555,-0.7532547,0.2184867,0.01033957,0.1733687,-0.99095,-3.798812,1.808475,44.83395,1007.418
23.288634777,0.07581842,-0.5771464,0.3403681,0.01372756,0.1733914,-0.9870896,-3.798812,1.808475,44.83395,1007.416
23.323401928,-0.7918129,-0.2836325,0.4013088,0.009389961,0.1651309,-0.9934121,-3.424711,2.174635,45.25955,1007.416
23.355685711,-1.659444,-0.1075242,0.157546,0.007950145,0.1622396,-0.9885909,-3.437358,2.533517,44.81921,1007.418
23.387969494,-2.09326,0.1859897,0.03566457,0.01469818,0.1685222,-0.9967882,-3.437358,2.533517,44.81921,1007.418
23.422736645,-1.721418,0.1859897,0.09660529,0.0146851,0.177264,-0.9875532,-4.174897,2.53586,44.39451,1007.418
23.455016613,-1.039708,0.4795036,0.2794274,0.01903634,0.1787397,-0.98417,-3.786827,1.814109,45.26968,1007.418
23.489783764,-0.2340499,0.5969092,0.3403681,0.01758827,0.1763028,-0.9880483,-3.811459,2.167356,44.39361,1007.418
23.522067070,0.1377921,0.362098,0.2794274,0.01566293,0.1734019,-0.9856434,-3.811459,2.167356,44.39361,1007.418
23.556834221,0.695555,0.2446925,0.2794274,0.01227609,0.1728952,-0.9895066,-4.151588,2.911644,45.26135,1007.418
23.589118004,0.9434497,0.1272869,0.4013088,0.01083571,0.1680468,-0.9909814,-4.162912,2.541494,44.83024,1007.418
23.621401787,1.129371,0.8317203,0.6450716,0.01760104,0.168537,-0.9948608,-4.162912,2.541494,44.83024,1007.418
23.656165123,0.5716076,-0.5771464,0.09660529,0.03357397,0.1652279,-0.985245,-4.162251,2.176978,44.83485,1007.418
23.688448906,-0.9777339,-1.868608,-0.1471575,0.03309586,0.1686697,-0.9687876,-3.800135,2.537506,44.82472,1007.418
23.723216057,-4.262338,-2.33823,-0.5737424,-0.00659141,0.1806218,-0.9783029,-3.800135,2.537506,44.82472,1007.418
23.755499840,-4.758128,-0.5184436,-0.2690389,-0.0240186,0.1785364,-1.007767,-3.800135,2.537506,44.82472,1007.418
23.787783623,-1.473523,1.418748,0.5231902,-0.005627343,0.1683953,-1.01705,-4.151588,2.911644,45.26135,1007.419
23.822550297,3.670291,2.416695,1.193538,0.0243785,0.1676114,-0.9881123,-4.151588,2.911644,45.26135,1007.419
23.854829788,3.980159,2.357992,1.132597,0.03357566,0.1710989,-0.9663576,-4.162912,2.541494,44.83024,1007.419
23.889597416,-0.9777339,1.125234,0.4622495,0.03307499,0.1788453,-0.9648622,-4.138941,2.552763,45.70169,1007.416
23.921881199,-4.63418,-1.046769,-0.451861,0.02339419,0.1787767,-0.9769277,-4.138941,2.552763,45.70169,1007.414
23.956648350,-3.518654,-1.633796,-0.5128018,0.01950892,0.175275,-1.007396,-4.150927,2.547129,45.26597,1007.416
23.988932133,-0.3579972,-0.8119575,0.09660529,0.007431949,0.1684474,-1.012727,-3.787488,2.178624,45.26507,1007.416
24.021215916,2.30687,-0.2836325,0.3403681,0.001651461,0.1675448,-0.9885471,-3.787488,2.178624,45.26507,1007.419
24.055979252,2.492791,-0.4597408,0.3403681,0.006985635,0.1646909,-0.9784227,-3.800135,2.537506,44.82472,1007.419
24.088262081,1.129371,-0.0488214,0.3403681,0.01373636,0.1700072,-0.986142,-4.151588,2.911644,45.26135,1007.416
24.123029232,-1.039708,0.7730175,0.3403681,0.01854412,0.1743043,-1.007399,-4.151588,2.911644,45.26135,1007.416
24.155313015,-2.589049,1.007829,0.3403681,0.00986845,0.1660887,-0.9967917,-3.787488,2.178624,45.26507,1007.416
24.190080166,-2.155233,0.5969092,0.2794274,0.01084235,0.167097,-0.9856689,-3.424711,2.174635,45.25955,1007.421
24.222364426,-0.8537865,0.362098,0.2794274,0.01906077,0.1685788,-0.9837444,-3.424711,2.174635,45.25955,1007.417
24.254643917,0.07581842,0.6556119,0.3403681,0.0224261,0.1763265,-0.9851579,-3.800797,2.902021,44.82011,1007.421
24.289411068,-0.5439183,0.2446925,0.2794274,0.01904365,0.1763266,-0.98225,-4.525027,2.180966,44.84037,1007.423
24.321694851,-0.8537865,-0.1075242,0.2184867,0.01854955,0.1777475,-0.9909428,-4.525027,2.180966,44.84037,1007.423
24.356462002,-0.1720762,-0.4597408,0.09660529,0.01372678,0.1689902,-1.000651,-4.524366,1.816451,44.84498,1007.421
24.388745308,0.323713,-0.0488214,0.2184867,0.005508485,0.1689749,-0.9982162,-3.787488,2.178624,45.26507,1007.423
24.423512459,1.62516,-1.340283,0.157546,0.03260557,0.1637537,-0.9910527,-4.162251,2.176978,44.83485,1007.423
24.455792427,0.1997657,-1.28158,-0.02527615,0.02343422,0.1662371,-0.9644296,-4.162251,2.176978,44.83485,1007.423
24.488076210,-2.465102,-0.8119575,-0.2690389,0.002118715,0.1757861,-0.9846339,-4.513042,2.186601,45.2761,1007.421
24.522843361,-3.394706,0.2446925,0.03566457,-0.009503594,0.1732383,-1.012663,-3.425373,2.539151,45.25494,1007.421
24.555127144,-1.287602,0.9491258,0.5231902,0.008396939,0.1669754,-1.019505,-3.425373,2.539151,45.25494,1007.426
24.589894295,1.811081,1.947073,0.7669531,0.01860644,0.1589251,-0.9760633,-3.787488,2.178624,45.26507,1007.426
24.622178078,1.377265,2.005776,0.8888345,0.02488107,0.1681803,-0.9634548,-3.798812,1.808475,44.83395,1007.421
24.654457569,-1.783391,0.3033953,0.157546,0.02340118,0.1773397,-0.9725849,-3.798812,1.808475,44.83395,1007.422
24.689224720,-3.45668,-0.2249297,-0.2690389,0.02484224,0.1763268,-0.9870969,-3.811459,2.167356,44.39361,1007.422
24.721508503,-1.349576,-0.4010381,0.03566457,0.02047404,0.1752695,-1.009815,-3.798812,1.808475,44.83395,1007.422
24.756275654,0.7575287,-0.3423353,0.157546,0.0127512,0.1713956,-1.004019,-3.798812,1.808475,44.83395,1007.422
24.788559437,1.749107,-0.0488214,0.3403681,0.006989505,0.1637295,-0.9764944,-3.810798,1.80284,44.39823,1007.422
24.823326588,1.377265,-0.5184436,0.2184867,0.01569156,0.1661905,-0.9716647,-4.150265,2.182612,45.27058,1007.422
24.855606556,0.01384473,-0.4597408,0.157546,0.01808625,0.1695226,-0.9900218,-4.150265,2.182612,45.27058,1007.422
24.887890339,-1.659444,0.009881377,0.2184867,0.01371442,0.1723597,-1.00595,-3.799474,2.17299,44.82934,1007.422
24.922657490,-2.031286,0.1272869,0.2184867,0.005029517,0.1670378,-0.9982262,-4.525689,2.545483,44.83575,1007.422
24.954940796,-0.9777339,0.009881377,0.2184867,0.01131969,0.1685387,-0.9890459,-4.525689,2.545483,44.83575,1007.422
24.989707947,0.01384473,0.4208008,0.157546,0.01424124,0.1652103,-0.9740845,-3.799474,2.17299,44.82934,1007.424
25.021991730,-0.3579972,0.06858415,0.09660529,0.02438822,0.165697,-0.9818386,-4.150927,2.547129,45.26597,1007.424
25.056754589,-1.535497,-0.2249297,0.2184867,0.02338505,0.1782502,-0.9895001,-4.150927,2.547129,45.26597,1007.424
25.089038849,-1.721418,-0.4010381,0.09660529,0.02193579,0.1758084,-0.9948288,-3.787488,2.178624,45.26507,1007.424
25.121322632,-0.8537865,-0.6945519,0.03566457,0.01324894,0.1709671,-0.9880692,-3.42405,1.81012,45.26417,1007.426
25.156089783,0.1997657,-0.8706603,0.2184867,0.004076536,0.1656275,-0.9851792,-3.42405,1.81012,45.26417,1007.42
25.188373566,0.1997657,-0.4010381,0.09660529,0.003595195,0.1636806,-0.9880899,-4.150927,2.547129,45.26597,1007.42
25.223139763,-0.9157602,0.3033953,0.2184867,0.01324657,0.1709573,-0.99097,-3.437358,2.533517,44.81921,1007.42
25.255419731,-1.845365,0.4795036,0.3403681,0.01129206,0.1781976,-0.9947922,-4.162251,2.176978,44.83485,1007.42
25.290186882,-1.721418,0.7730175,0.4013088,0.01517886,0.1719324,-0.9904851,-4.162251,2.176978,44.83485,1007.418
25.322470665,-1.225628,0.3033953,0.2794274,0.01711625,0.1724398,-0.9851686,-3.425373,2.539151,45.25494,1007.418
25.354754448,-1.597471,0.06858415,0.09660529,0.02196367,0.1690825,-0.9803638,-4.150265,2.182612,45.27058,1007.418
25.389521599,-2.155233,-0.2836325,0.03566457,0.01517295,0.1767946,-0.9836893,-4.150265,2.182612,45.27058,1007.417
25.421805858,-2.155233,-0.929363,0.09660529,0.01467981,0.1801741,-0.9856029,-3.775503,2.184258,45.70079,1007.417
25.456568718,-1.163655,-0.6945519,0.09660529,0.01323213,0.1777389,-0.9889977,-4.150927,2.547129,45.26597,1007.418
25.488852024,0.3856867,-0.1075242,0.4013088,0.01034032,0.1728831,-0.9914362,-4.150927,2.547129,45.26597,1007.418
25.521135807,0.8195023,0.2446925,0.4013088,0.009860606,0.1714316,-0.9909601,-3.787488,2.178624,45.26507,1007.418
25.555902958,0.01384473,0.3033953,0.2794274,0.01710511,0.176303,-0.9875638,-3.436697,2.169001,44.82382,1007.42
25.588186741,-1.039708,0.4208008,0.157546,0.01905118,0.1719598,-0.9856589,-3.436697,2.169001,44.82382,1007.422
25.622953892,-1.473523,0.4795036,0.09660529,0.02096345,0.1792046,-0.9914232,-3.799474,2.17299,44.82934,1007.42
25.655233860,-0.7298392,0.1859897,0.2184867,0.01664159,0.1700319,-0.9813138,-3.786827,1.814109,45.26968,1007.42
25.690001011,0.3856867,-0.7532547,0.2184867,0.01178594,0.1743325,-0.9933649,-3.786827,1.814109,45.26968,1007.42
25.722284794,1.129371,-0.8119575,0.2184867,0.0141955,0.1757715,-0.9991632,-3.811459,2.167356,44.39361,1007.42
25.754568100,0.4476604,-0.0488214,0.2794274,0.009856112,0.174345,-0.9880427,-3.412726,2.180269,45.69528,1007.422
25.789335251,-0.1720762,0.2446925,0.4013088,0.009855698,0.1787413,-0.9759318,-3.412726,2.180269,45.69528,1007.42
25.821619034,-1.039708,0.362098,0.157546,0.02000539,0.1738638,-0.9958025,-4.13828,2.188247,45.70631,1007.422
25.856382370,-1.907339,0.6556119,0.4013088,0.02195695,0.1690547,-0.9885824,-4.150265,2.182612,45.27058,1007.422
25.888666153,-2.217207,-0.166227,0.09660529,0.02146312,0.1782954,-0.974509,-4.150265,2.182612,45.27058,1007.422
25.923433304,-1.101681,-0.929363,-0.08621684,0.01417475,0.1874136,-0.9908785,-3.436035,1.804485,44.82844,1007.424
25.955717087,-0.1101026,-0.4010381,0.2794274,0.01418828,0.1791623,-0.998177,-3.798151,1.443958,44.83857,1007.424
25.988000393,1.129371,-0.166227,0.4013088,0.01227969,0.1733988,-0.9837024,-3.798151,1.443958,44.83857,1007.425
26.022767544,1.191344,-0.1075242,0.2794274,0.0108134,0.1752845,-0.9972249,-3.811459,2.167356,44.39361,1007.427
26.055047035,-0.2340499,0.362098,0.2794274,0.008402228,0.17335,-0.9948136,-3.774842,1.819743,45.70541,1007.427
26.089814186,-1.473523,0.4795036,0.3403681,0.01131686,0.1724363,-0.9812886,-3.799474,2.17299,44.82934,1007.423
26.122097969,-1.535497,-0.2249297,0.157546,0.01662007,0.1772728,-0.9865903,-3.799474,2.17299,44.82934,1007.427
26.154382229,-0.9777339,0.1272869,0.2794274,0.02192359,0.1811332,-0.9943149,-3.798151,1.443958,44.83857,1007.423
26.189149380,-0.1101026,0.1272869,0.3403681,0.01130486,0.1753186,-0.9875569,-3.775503,2.184258,45.70079,1007.421
26.221433163,-0.1101026,-0.1075242,0.157546,0.01227388,0.1748407,-0.9865948,-3.775503,2.184258,45.70079,1007.421
26.256196022,-0.3579972,-0.1075242,0.157546,0.01130962,0.1709403,-0.99435,-4.149604,1.818097,45.2752,1007.427
26.288479328,-1.039708,-0.1075242,0.4013088,0.0122822,0.1704772,-0.9890369,-3.811459,2.167356,44.39361,1007.425
26.323246479,-0.7918129,-0.3423353,0.157546,0.006472041,0.1738497,-0.9885217,-3.811459,2.167356,44.39361,1007.425
26.355530262,-0.2340499,0.009881377,0.4622495,0.009855322,0.1743417,-0.9890097,-4.150927,2.547129,45.26597,1007.425
26.387814045,-0.2340499,0.1272869,0.2184867,0.01516307,0.1767536,-0.9957756,-3.799474,2.17299,44.82934,1007.425
26.422581196,-0.6058919,0.1859897,0.2794274,0.01275791,0.1758214,-0.9832063,-3.799474,2.17299,44.82934,1007.425
26.454861164,-0.7918129,0.362098,0.3403681,0.0151594,0.1801591,-0.9904383,-3.799474,2.17299,44.82934,1007.425
26.489628315,-0.6058919,-0.0488214,0.2184867,0.01614608,0.1734016,-0.9861279,-4.149604,1.818097,45.2752,1007.425
26.521911621,-0.3579972,-0.1075242,0.09660529,0.01662504,0.1753387,-0.986118,-4.149604,1.818097,45.2752,1007.425
26.556678772,-0.3579972,-0.0488214,-0.02527615,0.01323852,0.173856,-0.9924038,-4.162251,2.176978,44.83485,1007.425
26.588962555,-0.2340499,0.06858415,0.2184867,0.01614762,0.1729193,-0.9856473,-4.513042,2.186601,45.2761,1007.425
26.621246338,-0.4199709,-0.0488214,0.4013088,0.01082549,0.1733799,-0.9880503,-4.513042,2.186601,45.2761,1007.425
26.656009674,-0.6058919,-0.166227,0.09660529,0.01274503,0.1777227,-0.9933477,-3.810798,1.80284,44.39823,1007.424
26.688293457,-0.2960236,-0.0488214,0.157546,0.01034049,0.1748385,-0.9856238,-3.786827,1.814109,45.26968,1007.424
26.723060608,-0.1720762,0.1272869,0.4013088,0.01032497,0.1781949,-0.9947901,-3.786827,1.814109,45.26968,1007.424
26.755343914,0.07581842,0.009881377,0.5231902,0.01468395,0.1777479,-0.9875504,-3.786827,1.814109,45.26968,1007.424
26.790111065,0.1377921,-0.2249297,0.2184867,0.0103536,0.1709834,-0.9808114,-4.149604,1.818097,45.2752,1007.424
26.822394848,0.07581842,-0.4010381,0.03566457,0.01371946,0.1758012,-0.9899767,-4.149604,1.818097,45.2752,1007.425
26.854674816,0.1997657,-0.4597408,0.2794274,0.01710282,0.1772709,-0.9875584,-3.787488,2.178624,45.26507,1007.425
26.889441967,0.5716076,-0.6358492,0.03566457,0.01661862,0.1787328,-0.9841649,-3.786165,1.449593,45.2743,1007.425
26.921725750,0.5716076,-0.929363,0.09660529,0.005026898,0.1733797,-0.9832035,-3.786165,1.449593,45.2743,1007.427
26.956492901,0.8195023,-0.5771464,0.3403681,0.010335,0.1753044,-0.990939,-3.424711,2.174635,45.25955,1007.423
26.988776684,0.8195023,-0.5771464,0.2184867,0.01033579,0.1753077,-0.9899722,-3.799474,2.17299,44.82934,1007.423
27.021059990,0.881476,-0.3423353,0.2794274,0.007449474,0.169986,-0.9870955,-3.799474,2.17299,44.82934,1007.423
27.055822849,1.563186,-1.046769,0.2184867,0.01132175,0.1695246,-0.9837224,-4.525689,2.545483,44.83575,1007.423
27.088106632,3.174501,-1.809905,0.2184867,0.009400116,0.163707,-0.9852016,-3.786827,1.814109,45.26968,1007.423
27.122873783,5.715421,-2.807852,0.2184867,0.007946442,0.1651563,-0.9847069,-3.81212,2.531872,44.389,1007.423
27.155157566,8.814105,-3.101366,0.7060123,0.003130127,0.1578917,-0.9823205,-3.81212,2.531872,44.389,1007.423
27.189924717,10.48739,-3.688394,1.559182,0.01046093,0.1411306,-0.936505,-3.062596,2.535163,45.24942,1007.423
27.222208977,9.867657,-5.919099,0.5231902,0.01090154,0.1429088,-0.9833894,-3.43802,2.898032,44.81459,1007.423
27.254487991,5.653448,-8.26721,-0.6346832,-0.003590219,0.1380411,-0.9795183,-3.43802,2.898032,44.81459,1007.423
27.289255142,0.3856867,-8.736832,-1.365972,-0.0001753516,0.1288905,-0.9694255,-3.088551,3.617441,44.36412,1007.423
27.321538925,-5.563785,-12.14159,-3.620778,-0.01422747,0.1375251,-0.9799817,-3.089213,3.981957,44.3595,1007.42
27.356306076,-13.43444,-12.61122,-4.595829,-0.04328367,0.1470356,-1.005004,-3.089213,3.981957,44.3595,1007.42
27.388589859,-17.33878,-9.617373,-4.291125,-0.0317189,0.1561864,-1.027699,-3.075904,3.25856,44.80446,1007.418
27.423357010,-20.25154,-5.860397,-4.047362,-0.04045368,0.1731367,-1.016464,-2.37366,2.874798,43.92659,1007.418
27.455636978,-18.26838,-5.390775,-2.706667,-0.02837785,0.189733,-0.9844888,-2.37366,2.874798,43.92659,1007.41
27.487920284,-11.01747,-5.214666,-2.280082,-0.0269526,0.1979393,-0.9916968,-2.711143,2.161024,44.81279,1007.409
27.522687435,-2.77497,-3.042663,-0.3909203,-0.02505656,0.2095149,-1.004688,-1.984266,1.424015,44.81099,1007.407
27.554971218,6.707,-0.6945519,0.8278937,-0.02210755,0.1945722,-0.9897928,-1.984266,1.424015,44.81099,1007.407
27.589738369,12.28463,-2.396933,0.9497752,-0.03562417,0.1868086,-0.9844899,-1.270036,1.045889,44.36885,1007.407
27.622022152,14.26779,-3.39488,0.8278937,-0.04724134,0.1842821,-1.006234,-1.622151,1.784543,44.80086,1007.409
27.656785488,14.63963,-3.336177,1.010716,-0.05203591,0.1678229,-1.0039,-1.622151,1.784543,44.80086,1007.409
27.689069271,14.57765,-4.216719,0.2184867,-0.05346832,0.1590982,-1.006847,-1.646121,1.773273,43.92941,1007.409
27.721352577,15.8791,-6.858344,0.7669531,-0.1018494,0.1725329,-0.9998984,-1.623474,2.513575,44.79163,1007.409
27.756119728,21.08489,-5.038558,1.132597,-0.06598765,0.1392457,-0.9996814,-1.623474,2.513575,44.79163,1007.409
27.788403511,23.56384,-3.805799,1.132597,-0.05725201,0.1276744,-0.9944482,-1.285991,3.227348,43.90543,1007.407
27.823170662,25.54699,-2.925258,0.8278937,-0.06686617,0.1073578,-0.9839073,-1.27599,4.32653,44.32731,1007.403
27.855450153,30.69081,-4.45153,0.2794274,-0.06539077,0.09182705,-0.998502,-1.27599,4.32653,44.32731,1007.401
27.887734413,29.88515,-3.512285,-0.2690389,-0.05181053,0.06711334,-1.019943,-0.8547345,5.415424,44.30703,1007.398
27.922501564,28.27383,-5.273369,-1.609734,-0.06823472,0.06420207,-1.008322,-0.8560575,6.144456,44.29779,1007.398
27.954784393,30.25699,-9.089048,-6.545932,-0.1161531,0.08390464,-1.00859,-1.293267,7.237021,43.85465,1007.398
27.989551544,31.49647,-11.73067,-10.9946,-0.0681638,0.03370966,-1.009946,-1.293267,7.237021,43.85465,1007.396
28.021835327,33.16975,-12.259,-13.06659,-0.09667366,0.02882157,-1.000243,-0.1338112,7.959058,44.26368,1007.396
28.056598663,38.31357,-12.72862,-14.2854,-0.09415449,-0.01912958,-1.015024,-0.1624124,10.4994,43.35992,1007.396
28.088882446,48.29133,-14.54841,-15.74798,-0.09845231,-0.04286271,-1.017567,-0.1624124,10.4994,43.35992,1007.396
28.121166229,54.86054,-15.60506,-15.80892,-0.07079402,-0.08294506,-1.016405,0.2123499,10.50105,43.79013,1007.396
28.155933380,48.78712,-12.3177,-12.82282,-0.08760293,-0.1225871,-0.990488,0.5471871,12.67288,42.88547,1007.39
28.222983837,36.57831,-6.623533,-8.374152,-0.0932399,-0.1878882,-0.9773108,1.246124,14.1117,41.98452,1007.39
28.255263805,25.36107,-8.032398,-8.617915,-0.1223059,-0.1681563,-0.984871,1.242817,15.93428,41.96144,1007.39
28.290030956,19.03976,-10.38051,-11.23837,-0.1377547,-0.1803152,-0.9897412,1.242817,15.93428,41.96144,1007.392
28.322314739,20.71305,-12.259,-12.76188,-0.1275731,-0.2006979,-1.015501,1.591624,17.0182,41.50635,1007.394
28.354598522,27.6541,-12.2003,-14.22446,-0.131394,-0.2181042,-1.007857,1.577654,18.10611,41.05677,1007.396
28.389365673,36.26844,-9.793482,-13.79788,-0.1298371,-0.2508892,-0.9732392,1.577654,18.10611,41.05677,1007.396
28.421680927,36.57831,-8.032398,-11.66495,-0.1413675,-0.2740691,-0.9491743,1.912764,19.1836,40.10371,1007.396
28.456444263,33.35567,-3.864502,-11.96965,-0.1602108,-0.2843232,-0.9603109,1.886808,20.26588,39.21841,1007.397
28.488728046,31.68239,-0.4010381,-9.836729,-0.1475321,-0.3380885,-0.9857829,1.886808,20.26588,39.21841,1007.399
28.521011829,19.53555,3.062426,-8.861678,-0.1697392,-0.342401,-0.954336,2.610378,21.35145,39.19353,1007.401
28.555778980,18.97779,-0.7532547,-12.88376,-0.2186588,-0.3062279,-0.9487071,2.221646,22.43771,38.31374,1007.401
28.588062286,25.85686,-2.98396,-16.17456,-0.2017296,-0.3340124,-1.022384,2.221646,22.43771,38.31374,1007.401
28.622829437,56.10001,-9.734779,-10.93366,-0.1789171,-0.4024943,-1.11516,1.870193,22.81185,38.75037,1007.4
28.655108929,69.61027,-19.89036,2.046708,-0.2267962,-0.381163,-1.063207,1.832252,23.8885,37.42934,1007.4
28.689876079,61.24382,-27.87394,15.14896,-0.2294565,-0.2414381,-0.9560504,2.155766,25.69018,36.09357,1007.4
28.722159862,51.45198,-30.98519,25.81358,-0.1669869,-0.2863241,-0.973844,2.155766,25.69018,36.09357,1007.398
28.754444122,27.03436,-11.96548,27.15428,-0.09366246,-0.2003423,-0.939189,4.280517,27.83081,34.28987,1007.398
28.789210319,-32.33641,9.813246,30.01849,-0.1252228,-0.331398,-0.886688,4.614964,29.27281,33.33219,1007.398
28.821494102,-58.55126,22.55175,35.80786,-0.1878453,-0.2617343,-0.9828446,4.614964,29.27281,33.33219,1007.397
28.856257439,-60.90626,24.13672,38.79395,-0.2157433,-0.3286392,-0.9957344,6.442547,29.2593,33.80259,1007.397
28.888541222,-53.15955,22.25823,37.02667,-0.2790433,-0.349649,-1.001519,6.107048,27.45198,34.70264,1007.398
28.923308372,-30.97299,18.79477,33.00459,-0.3158298,-0.3200984,-0.9611459,6.107048,27.45198,34.70264,1007.4
28.955592155,-7.794837,10.10676,33.12646,-0.2665484,-0.2966682,-0.9432317,6.884512,25.27945,36.46221,1007.4
28.987875938,2.244897,9.167516,37.27043,-0.2483582,-0.1991577,-0.887121,6.174251,23.47049,36.93204,1007.402
29.022642612,-9.468125,5.821456,42.45039,-0.2551645,-0.1797822,-0.8758771,6.174251,23.47049,36.93204,1007.407
29.054922581,-20.37549,5.05832,46.10683,-0.3093533,-0.1707833,-0.887795,5.786841,23.82772,36.06149,1007.412
29.089689732,-24.27983,-0.1075242,52.87125,-0.3345614,-0.1447313,-0.8900098,7.239272,23.08273,36.04866,1007.415
29.121973515,-29.98141,-1.986013,54.09007,-0.3263,-0.1860743,-0.958911,7.239272,23.08273,36.04866,1007.415
29.156740665,-24.40378,-4.745044,55.79641,-0.3335714,-0.1817724,-0.9685396,8.329587,21.97722,36.04596,1007.424
29.189024448,-11.45128,-3.042663,58.7825,-0.3404699,-0.1256397,-0.9633711,7.969457,20.52315,36.06994,1007.429
29.221307755,-12.13299,-2.514338,66.09538,-0.3757879,-0.1004093,-0.9138409,7.969457,20.52315,36.06994,1007.436
29.256070614,-14.17812,-7.856291,72.31134,-0.3835791,-0.0586317,-0.8599248,9.772678,19.76854,35.61587,1007.445
29.288354874,-13.12457,-12.3764,73.71297,-0.4230342,-0.1414968,-0.8603109,10.86233,19.02754,35.60855,1007.445
29.323122024,5.715421,-22.41458,72.12852,-0.3930319,-0.1515802,-0.8623667,10.86233,19.02754,35.60855,1007.455
29.355405807,23.56384,-25.23231,74.01768,-0.3796075,-0.08067168,-0.7981786,12.27947,17.90114,34.29316,1007.463
29.387689590,19.90739,-30.16335,81.57433,-0.3825415,-0.0475861,-0.7428721,14.43111,17.50062,33.33098,1007.472
29.422456741,17.98621,-30.63297,85.04794,-0.3638803,-0.1738897,-0.7586171,14.43111,17.50062,33.33098,1007.479
29.454735756,28.5837,-35.68141,83.40255,-0.4277387,-0.1639359,-0.7661579,15.84692,17.10324,32.00636,1007.479
29.489502907,28.33581,-37.6773,87.72934,-0.3063789,-0.125026,-0.6680601,18.32776,16.31812,29.79835,1007.486
29.521786690,20.71305,-34.62476,85.41359,-0.3823741,-0.2975328,-0.6717778,18.32776,16.31812,29.79835,1007.491
29.556553841,21.14686,-45.19126,76.1506,-0.423546,-0.2720431,-0.6836301,21.17203,15.16449,27.58944,1007.496
29.588837624,22.69621,-47.36326,62.68271,-0.2946371,-0.3692029,-0.6177459,23.2997,14.7527,25.7558,1007.5
29.621121883,-9.71602,-39.6732,48.91011,-0.4586986,-0.5109391,-0.6061122,23.2997,14.7527,25.7558,1007.5
29.655884266,10.92121,-60.8649,25.387,-0.5274907,-0.456937,-0.6061403,25.05696,12.88201,23.57267,1007.501
29.688168049,21.64265,-64.50447,8.628304,-0.5354201,-0.5969813,-0.6557468,26.83688,11.75161,22.25176,1007.501
29.722935200,26.84844,-69.78772,-10.26331,-0.6307768,-0.5473271,-0.6310871,27.50317,11.35095,20.06671,1007.501
29.755218983,36.64028,-78.35833,-11.96965,-0.8145414,-0.5327753,-0.6083701,27.50317,11.35095,20.06671,1007.503
29.789986134,57.02961,-100.3719,-23.18274,-0.915181,-0.5284333,-0.6700086,28.51589,12.39792,17.35971,1007.503
29.822269916,188.6617,-188.7782,-55.23756,-1.249407,-0.4863392,-1.246758,29.46973,13.78203,12.53171,1007.51
29.854549408,159.4101,-113.0517,-22.93898,-1.134584,-0.373187,-0.6546333,29.46973,13.78203,12.53171,1007.519
29.889316559,183.9517,-132.0714,-27.57047,-1.025125,-0.5304651,-0.8911982,29.25898,16.60157,5.025175,1007.526
29.921600342,97.12657,-88.86613,-18.18561,-0.9668245,-0.4158368,-0.8157391,28.3959,18.73385,0.15327,1007.534
29.956367493,28.95555,-38.96877,7.165727,-0.9402266,-0.368348,-0.676296,28.3959,18.73385,0.15327,1007.543
29.988651276,-27.50246,-3.101366,26.54487,-0.9733257,-0.4206084,-0.5044177,28.62486,19.76143,-4.659088,1007.543
30.023418427,-27.44049,2.827615,6.55632,-0.8425598,-0.4413617,-0.3128923,28.2501,19.75979,-5.089299,1007.539
30.055697441,-24.65167,-2.807852,-0.08621684,-0.8419592,-0.4540693,-0.2075763,28.2501,19.75979,-5.089299,1007.536
30.087981224,-1.163655,-18.83371,-8.069449,-0.8211315,-0.4758538,-0.227566,27.89997,19.40489,-4.643441,1007.529
30.122748375,29.20344,-38.91006,-13.85882,-0.8273928,-0.4918954,-0.2435972,27.89997,19.40489,-4.643441,1007.524
30.155032158,58.7029,-49.41786,-11.48213,-0.8485252,-0.3848782,-0.3478493,27.89997,19.40489,-4.643441,1007.524
30.189799309,80.02184,-41.49298,0.4013088,-0.8166143,-0.3984827,-0.3910215,27.8507,20.11139,-6.39558,1007.524
30.222083569,82.62473,-14.78322,16.18495,-0.8267345,-0.394949,-0.3392517,27.428,20.0872,-8.568699,1007.524
30.254362583,75.62171,17.3859,30.68884,-0.8350599,-0.3299262,-0.2798845,27.428,20.0872,-8.568699,1007.524
30.289129734,85.0417,38.5189,54.02913,-0.7817565,-0.1754209,-0.2854056,27.74217,20.42519,-10.32174,1007.524
30.321413517,88.5742,53.84033,82.30561,-0.7372523,-0.0130281,-0.3836831,28.80852,19.30841,-11.19589,1007.524
30.356180668,69.23843,52.07924,106.3772,-0.8330951,0.07472989,-0.2529325,28.80852,19.30841,-11.19589,1007.522
30.388464451,30.87673,45.68064,117.4684,-0.8980886,-0.02494127,-0.1929293,29.91413,16.38595,-10.73978,1007.515
30.423231602,7.636605,37.05133,128.7424,-0.9689787,-0.08690225,-0.1385003,31.77058,12.73776,-9.414021,1007.513
30.455511093,14.32976,27.71759,127.097,-1.034075,-0.170874,-0.158175,31.77058,12.73776,-9.414021,1007.513
30.487794876,26.84844,20.32104,118.3216,-1.074327,-0.1274975,-0.1762123,33.29353,6.188691,-7.174363,1007.513
30.522562027,34.90502,9.402327,100.9535,-1.076639,-0.1612729,-0.1449758,32.59054,0.37005,-6.653751,1007.507
30.554845810,16.74673,-3.805799,81.26962,-1.066384,-0.2023614,-0.1403971,31.51081,-4.356688,-6.577199,1007.501
30.589612961,-6.307469,-13.31565,60.7326,-1.092918,-0.2329708,-0.1540503,31.51081,-4.356688,-6.577199,1007.49
30.621896744,-6.741285,-21.12312,42.32851,-1.127708,-0.240787,-0.1462847,30.06841,-9.140192,-6.494361,1007.489
30.656660080,0.07581842,-29.40021,23.07125,-1.170761,-0.2331622,-0.1446983,28.95942,-10.96207,-7.326189,1007.489
30.688942909,-9.406152,-33.92033,11.37064,-1.17819,-0.1606101,-0.1491041,28.95942,-10.96207,-7.326189,1007.486
30.721226692,-21.30509,-34.09644,-0.6346832,-1.165712,-0.135554,-0.1915312,28.57664,-13.15645,-8.164431,1007.486
30.755994320,-20.1276,-31.3374,-13.12753,-1.111688,-0.08170604,-0.1981095,27.46434,-13.15575,-9.019339,1007.486
30.788278103,-21.61496,-30.75037,-19.58724,-1.067497,0.03154413,-0.231885,27.46434,-13.15575,-9.019339,1007.486
30.823045254,-24.96154,-28.22615,-19.40442,-1.011196,0.1356342,-0.2657386,28.15327,-12.81612,-10.34217,1007.486
30.855324268,-29.0518,-17.42484,-10.14143,-0.8515432,0.113467,-0.2304343,27.41507,-12.44926,-10.77148,1007.484
30.890091419,-21.49102,-4.392828,1.498242,-0.8774676,0.2245597,-0.2703556,27.41507,-12.44926,-10.77148,1007.478
30.922375202,-21.61496,6.11497,12.58945,-0.8416667,0.2232724,-0.2520694,28.47943,-12.47249,-11.65948,1007.478
30.954658985,-21.61496,14.33336,23.7416,-0.8387977,0.2343865,-0.259264,28.11428,-12.1048,-11.72083,1007.478
30.989426136,-25.64325,29.53738,31.60295,-0.885599,0.1867881,-0.2710363,28.11428,-12.1048,-11.72083,1007.478
31.021709919,-20.56141,39.81036,33.91869,-0.9700032,0.09410601,-0.274282,27.75283,-12.82984,-11.70608,1007.477
31.056472778,-14.67391,34.64452,33.1874,-1.067206,0.1475419,-0.1316377,26.99264,-13.5678,-12.993,1007.477
31.088756561,-19.56983,25.01727,31.72483,-1.558481,0.1583846,-0.08652432,26.99264,-13.5678,-12.993,1007.473
31.121040344,-57.18784,5.704051,17.76941,-1.028965,-0.02658822,0.003136067,27.3827,-15.38309,-12.10398,1007.473
31.155807495,-58.61324,-7.562777,8.872067,-1.159988,-0.03861646,-0.00825247,27.37071,-15.38873,-12.5397,1007.473
31.188091278,-60.10061,-19.83166,1.437301,-1.118062,0.01906346,-0.01623332,27.37071,-15.38873,-12.5397,1007.472
31.222858429,-36.24075,-28.75448,-3.072311,-1.038616,0.1004743,-0.1933637,27.32475,-16.50481,-14.26876,1007.466
31.255137444,-36.17877,-28.57837,0.3403681,-0.9188998,0.1698535,-0.2420545,26.54994,-15.79034,-16.00987,1007.466
31.289904594,-38.90561,-25.93675,-6.850636,-0.7944438,0.09914009,-0.2224204,26.54994,-15.79034,-16.00987,1007.466
31.322188854,-41.32259,-11.73067,-18.79501,-0.7737142,-0.0700933,-0.1987719,26.16319,-15.79763,-16.87581,1007.466
31.354472637,-19.69378,3.766859,-25.43755,-0.9542321,-0.02091991,-0.2440299,26.12657,-15.45001,-18.18761,1007.467
31.389239788,5.343579,8.991407,-36.71158,-1.125531,0.01961653,-0.2753372,26.46339,-14.37172,-19.07842,1007.465
31.421523571,0.1377921,36.64041,-47.86373,-1.053563,0.07275418,-0.2210451,26.46339,-14.37172,-19.07842,1007.465
31.456285953,33.16975,55.19049,-12.39624,-1.079564,0.3457193,-0.4751761,27.21159,-13.6394,-18.22723,1007.461
31.488569736,23.93568,26.89575,6.617261,-1.397241,0.7191361,0.02895779,28.34588,-12.53528,-16.51472,1007.461
31.523336887,1.811081,-0.6358492,8.445482,-0.9681936,0.2739146,0.09076581,28.34588,-12.53528,-16.51472,1007.458
31.555620670,-19.63181,-11.14365,8.811127,-1.060313,0.1456248,0.01095096,29.47083,-12.89486,-15.21947,1007.455
31.587904453,-11.38931,-10.55662,11.00499,-1.011021,0.08749361,-0.1915632,29.80963,-12.91012,-16.09644,1007.451
31.622671127,-15.47957,-12.55251,10.45653,-1.032413,0.1167624,-0.2474295,29.80963,-12.91012,-16.09644,1007.449
31.654951096,5.963316,0.9491258,4.78904,-0.9891797,0.05075595,-0.1981038,29.0721,-12.90777,-16.52113,1007.449
31.689718246,6.707,-1.633796,8.445482,-1.012544,0.1443646,-0.1158201,29.05945,-12.54889,-16.96148,1007.449
31.722002029,1.005423,-3.864502,10.57841,-0.9976063,0.1432136,-0.1825734,29.05945,-12.54889,-16.96148,1007.444
31.754285812,-0.4199709,-5.038558,7.226667,-0.9802839,0.1780947,-0.1857965,29.06276,-14.37147,-16.9384,1007.442
31.789052963,3.050554,-4.510233,3.021759,-0.9937309,0.15205,-0.1486908,29.07276,-13.27229,-16.51652,1007.44
31.821336269,8.876079,-3.570988,1.620123,-0.9965879,0.1321892,-0.1521816,29.07276,-13.27229,-16.51652,1007.438
31.856099129,2.554765,-2.807852,4.179633,-1.030879,0.1092907,-0.1686748,29.0621,-14.00695,-16.94301,1007.438
31.888383388,-2.341154,-4.040611,4.728099,-0.9845698,0.1529442,-0.1781952,28.69932,-14.00297,-16.9375,1007.437
31.923150539,1.563186,-3.336177,1.071657,-0.9986687,0.19266,-0.1561842,28.69932,-14.00297,-16.9375,1007.431
31.955434322,3.980159,-3.042663,-3.559837,-0.9866977,0.2557347,-0.1176598,28.69866,-13.63845,-16.94211,1007.431
31.987717152,-2.898917,-5.332072,-5.57088,-0.9796754,0.1497819,-0.1158601,27.96178,-14.00062,-17.36219,1007.429
32.022484303,-3.022865,-2.749149,-5.631821,-1.0072,0.1215156,-0.1512526,27.96178,-14.00062,-17.36219,1007.429
32.054764271,-0.4819446,0.1272869,-4.778651,-0.9839934,0.1342722,-0.1193231,28.68733,-14.0086,-17.37323,1007.429
32.089531422,-7.546942,-0.4597408,-4.230185,-1.018302,0.1054372,-0.1740417,29.05011,-14.01259,-17.37874,1007.424
32.121815205,-8.290626,0.7143147,-3.986422,-0.9928129,0.1684638,-0.1611688,29.05011,-14.01259,-17.37874,1007.424
32.156582356,-5.81168,0.7730175,-6.850636,-0.999019,0.1384799,-0.1502069,28.68601,-13.27957,-17.38246,1007.424
32.188865662,-4.820101,-0.0488214,-7.460042,-0.9995073,0.1330832,-0.1715078,28.68535,-12.91505,-17.38707,1007.424
32.221149445,-6.307469,-0.2249297,-9.592967,-1.011582,0.144835,-0.1206539,28.68535,-12.91505,-17.38707,1007.424
32.255912781,-1.597471,1.360045,-11.90871,-0.9810959,0.1323104,-0.1294927,29.02415,-12.93031,-18.26404,1007.424
32.288196564,2.430818,2.534101,-13.85882,-0.9859308,0.1430495,-0.0979977,29.03548,-12.56016,-17.83293,1007.424
32.322963714,3.732264,5.293131,-13.00565,-1.008071,0.09014922,-0.1243565,28.67138,-11.82714,-17.83665,1007.421
32.355247021,3.360422,5.762753,-12.3353,-1.019162,0.08046671,-0.1161691,28.67138,-11.82714,-17.83665,1007.421
32.390014171,6.954895,5.05832,-11.05554,-0.9868367,0.1095819,-0.1199408,28.32125,-12.18203,-17.39079,1007.423
32.422297954,15.25937,6.056267,-12.3353,-0.970796,0.07234704,-0.1255049,29.39627,-11.4706,-17.85229,1007.428
32.454577923,17.61436,7.289025,-10.87272,-1.008913,0.01980647,-0.1750322,29.39627,-11.4706,-17.85229,1007.43
32.489345074,15.8791,5.469239,-8.008509,-1.046632,0.003071444,-0.2262906,29.05746,-11.45535,-16.97532,1007.433
32.521627903,19.53555,5.351834,-5.936524,-0.9766214,0.06295072,-0.1801744,29.77169,-11.83347,-17.41747,1007.433
32.556395054,19.6595,-0.2249297,-4.961473,-1.000881,0.06302974,-0.2792265,29.77169,-11.83347,-17.41747,1007.439
32.588679314,17.67634,-0.3423353,-5.997465,-1.041338,0.01910871,-0.2107408,29.79633,-12.18672,-16.5414,1007.44
32.620963097,22.82015,-4.86245,-5.327118,-1.037435,0.0236635,-0.1551279,30.1458,-11.46731,-16.99187,1007.445
32.655725956,44.01514,-8.795535,-5.997465,-0.9916666,0.07391864,-0.2153706,30.1458,-11.46731,-16.99187,1007.448
32.688009739,46.06028,-16.36819,-8.313211,-0.989747,0.09731982,-0.1659309,30.16976,-11.45604,-16.12042,1007.448
32.722776413,46.98988,-19.00982,-9.958611,-1.030439,0.1496727,-0.1051157,29.795,-11.45769,-16.55063,1007.45
32.755060196,34.03739,-23.88215,-10.32425,-1.029217,0.05935122,-0.05535427,29.795,-11.45769,-16.55063,1007.45
32.789827347,30.87673,-24.8801,-8.496034,-1.013634,0.006094518,-0.0759951,30.17109,-12.18507,-16.11119,1007.448
32.822111130,30.56686,-26.93469,-8.556974,-1.03872,-0.01816724,-0.07414522,30.15911,-12.19071,-16.54691,1007.441
32.854391098,30.25699,-30.51556,-8.069449,-1.046438,-0.04010211,-0.1143787,30.15911,-12.19071,-16.54691,1007.441
32.889157772,36.95015,-34.44865,-4.534888,-0.9866033,-0.03165404,-0.2425709,29.42157,-12.18836,-16.97161,1007.438
32.921441555,49.96462,-34.91827,-3.925481,-1.0088,-0.03494789,-0.1961317,29.0468,-12.19001,-17.40182,1007.432
32.956208706,69.61027,-41.72779,2.22953,-1.062818,-0.08534774,-0.1716464,29.0468,-12.19001,-17.40182,1007.429
32.988492489,88.5742,-53.05743,10.39559,-1.102961,0.1143228,-0.1936297,28.64939,-12.93196,-18.69425,1007.425
33.023259640,35.71067,-46.42402,25.26512,-1.03049,0.5383462,-0.2232819,28.28728,-13.29248,-18.68412,1007.422
33.055538654,-37.48022,-34.21384,28.55591,-1.015003,0.3068648,-0.2855447,28.28728,-13.29248,-18.68412,1007.422
33.087822437,-38.4718,-35.27049,27.70274,-1.152938,-0.02868805,-0.2262421,27.90384,-15.12234,-19.52698,1007.422
33.122589588,27.46818,-52.05949,33.79681,-1.087594,-0.2309806,-0.1424479,26.76651,-15.49824,-21.31097,1007.416
33.154873848,71.90329,-67.3222,32.76082,-1.038242,-0.1461748,0.1368721,25.65289,-14.76851,-22.17511,1007.414
33.189640999,47.91949,-91.03812,17.22094,-1.143539,-0.0898006,0.4395687,25.65289,-14.76851,-22.17511,1007.414
33.221923828,35.52475,-126.5533,13.80826,-1.051783,-0.04262471,0.4314208,24.18046,-16.22189,-23.00604,1007.414
33.256687164,0.881476,-164.4753,-6.484991,-0.9070284,0.08747467,0.4294313,22.68406,-17.68653,-24.70842,1007.414
33.288970947,-24.89957,-153.087,-8.435093,-0.7761573,-0.09361474,0.2884058,22.68406,-17.68653,-24.70842,1007.416
33.321254730,4.661869,-144.4576,2.351411,-0.980661,-0.06033177,0.4297165,20.76125,-18.08262,-28.66002,1007.419
33.356021881,15.81713,-147.6276,12.04098,-0.9465537,0.01116012,0.3628515,17.447,-17.34023,-30.36251,1007.421
33.388305187,14.26779,-148.9191,19.71951,-0.9778268,-0.03567915,0.4192149,17.447,-17.34023,-30.36251,1007.421
33.423241138,-3.332733,-143.1075,30.50602,-0.7141002,0.1598337,0.6271535,13.39652,-17.32453,-32.48048,1007.424
33.455520630,-26.01509,-131.4256,31.66389,-0.6051622,0.0893798,0.5936441,9.710814,-18.40637,-34.59011,1007.426
33.487803936,-17.27681,-109.1186,21.54773,-0.2989528,-0.1241947,0.7145633,9.710814,-18.40637,-34.59011,1007.428
33.522571087,38.25159,-112.9343,13.74732,-0.6178823,-0.04853784,0.6044899,5.693924,-18.01005,-35.46775,1007.428
33.554854870,69.98211,-140.231,8.750186,-0.4264631,-0.2383517,-0.02063783,1.353248,-18.32107,-34.96123,1007.428
33.589622021,262.2244,-172.1654,49.15387,0.3583163,0.1337044,0.4347021,1.353248,-18.32107,-34.96123,1007.426
33.621905804,312.7949,-173.6916,93.70152,0.6789289,1.227629,0.6688976,-2.573675,-19.34177,-32.64583,1007.43
33.656668663,-50.55666,-92.97532,37.45325,0.7811907,0.4999826,1.205024,-9.309529,-25.73001,-24.98743,1007.432
33.688952446,-44.73114,-91.74256,53.5416,-0.0300381,1.110444,0.8176916,-9.309529,-25.73001,-24.98743,1007.448
33.721236229,-136.4522,-92.74051,38.97677,-0.3472113,1.685278,1.924367,-14.66001,-29.64042,-21.80383,1007.448
33.756003380,-228.607,-170.5217,71.70193,-1.543135,1.26122,1.751462,-18.99201,-28.12322,-20.88465,1007.482
33.788287163,-227.5535,-174.1026,21.60867,1.718938,-0.6722112,0.9434998,-18.99201,-28.12322,-20.88465,1007.519
33.823053837,-245.8977,-53.99668,68.53301,-0.2131229,0.6558511,1.488448,-23.3879,-24.44711,-22.17181,1007.527
33.855333328,-135.8324,-70.55086,1.498242,-0.2009807,-1.073847,1.86002,-28.12789,-17.83961,-22.61892,1007.523
33.890100479,95.32933,-65.85464,97.90643,-0.5842033,-0.5693866,1.246846,-28.12789,-17.83961,-22.61892,1007.523
33.922384739,-1.287602,-77.9474,52.44467,-0.06089505,0.475599,0.8620088,-30.70387,-10.89716,-23.53947,1007.52
33.954668522,-63.6331,-67.55701,60.24508,0.3952922,0.5182589,0.6408201,-32.48511,-9.037733,-22.22779,1007.506
33.989434719,-156.1598,18.14904,62.80459,0.5055612,0.4311875,0.4148049,-34.61713,-7.168685,-20.47487,1007.497
34.021718502,-222.4716,-16.30949,14.17391,1.101632,-0.4778944,-0.02819388,-34.61713,-7.168685,-20.47487,1007.494
34.056481838,-140.3565,2.416695,10.21276,0.8438085,-0.7790158,-0.4175516,-35.35139,-2.36125,-20.52461,1007.494
34.088765621,16.99463,33.29435,5.825031,1.310139,-0.4832906,-0.5121126,-34.64841,3.45739,-21.04522,1007.485
34.121049404,194.1153,117.709,19.90233,0.5259562,-0.5265374,-0.4724768,-34.64841,3.45739,-21.04522,1007.48
34.155816078,294.6366,200.3625,71.64099,0.08539885,-0.1893915,-0.1432892,-33.9608,4.526056,-22.37728,1007.472
34.188099861,248.2184,196.6055,49.51952,-0.4302797,0.1282597,-0.07704118,-30.46129,1.507259,-27.25075,1007.461
34.222867012,108.0339,120.5854,19.84139,-0.5546444,0.2276945,0.09637986,-30.46129,1.507259,-27.25075,1007.461
34.255146980,133.0093,92.87768,-32.93326,-0.5916151,0.5156645,2.996795,-26.56803,-4.419577,-31.15911,1007.454
34.289914131,-75.71797,-90.5685,44.52238,-0.2516762,0.5984111,4.994586,-23.67041,-8.527545,-31.58742,1007.458
34.354481220,71.59342,-73.5447,18.37882,0.2336468,0.38483,0.6742506,-20.76224,-11.84009,-31.59,1007.463
34.389248371,-25.5193,-45.60218,14.17391,-0.1050726,0.3672414,0.3398575,-23.93135,-11.75912,-28.05454,1007.459
34.421532631,-81.2956,-18.83371,5.581268,-0.06357911,0.1500594,0.1910844,-23.93135,-11.75912,-28.05454,1007.459
34.456295967,-137.1958,34.64452,6.617261,-0.09475017,0.1236787,0.4298203,-25.36717,-13.56011,-27.57368,1007.452
34.488579750,-145.3144,77.90847,5.581268,-0.0747007,-0.05072156,0.7860467,-25.7592,-10.65127,-28.47654,1007.45
34.523346901,-9.654046,61.5304,-4.71771,-0.1492922,-0.4129282,1.352188,-25.7592,-10.65127,-28.47654,1007.45
34.555630684,-4.138391,2.123181,1.437301,-0.4479696,-0.3999515,1.578672,-24.75083,-6.262097,-31.16361,1007.454
34.587913990,1.253318,-21.82755,-1.365972,-0.1860413,-0.2166339,1.330662,-22.60145,-4.474719,-32.09123,1007.454
34.622681141,-3.828522,-27.34561,11.6144,-0.03388701,-0.1177192,0.8305376,-22.60145,-4.474719,-32.09123,1007.455
34.654961109,6.583053,-14.3723,8.018897,0.07398392,0.0141608,0.6710368,-22.57748,-4.46345,-31.21978,1007.455
34.689728260,12.53252,7.347728,-0.5128018,0.05419685,0.03674158,0.7823987,-23.3037,-4.090957,-31.21337,1007.457
34.722012043,7.760552,17.73812,-0.5737424,-0.05075382,0.1160066,0.9851529,-23.3037,-4.090957,-31.21337,1007.457
34.756778240,6.149237,10.51768,-1.487853,-0.1674735,0.06364298,1.197336,-24.01594,-4.806377,-30.75738,1007.457
34.789062023,-19.75575,-6.330019,1.559182,-0.1368463,-0.01719902,1.163453,-23.30237,-4.819989,-31.20413,1007.455
34.821346283,-17.83457,-8.736832,0.8278937,-0.06816101,-0.08972397,0.98112,-23.30237,-4.819989,-31.20413,1007.455
34.856109142,-7.484969,-4.86245,1.071657,-0.03194716,-0.1069394,0.8683029,-23.30171,-5.184505,-31.19952,1007.456
34.888392925,4.352001,2.416695,-0.5737424,-0.05707909,-0.1001184,0.9032034,-22.94092,-4.094946,-31.21888,1007.458
34.923159599,6.521079,3.825562,-1.061268,-0.08706812,-0.05528463,1.020998,-23.30436,-3.726441,-31.21798,1007.458
34.955443382,2.30687,1.125234,-0.2080983,-0.08808549,-0.01933418,1.063264,-23.30436,-3.726441,-31.21798,1007.46
34.987727165,-1.969312,-1.692499,0.4622495,-0.0760816,-0.002547216,1.008705,-23.6778,-4.457119,-31.63896,1007.456
35.022494316,-9.406152,1.594856,0.7669531,-0.05286848,-0.005400811,1.003805,-23.30303,-4.455473,-31.20875,1007.454
35.054773808,-12.50484,1.125234,-0.1471575,-0.07799732,-0.02251175,0.9737884,-23.30303,-4.455473,-31.20875,1007.454
35.089540958,-13.74431,3.121129,-0.2080983,-0.07641895,-0.07719809,0.9715403,-23.6778,-4.457119,-31.63896,1007.454
35.121824741,-12.69076,1.536154,0.4013088,-0.07978666,-0.07127286,1.009289,-23.30436,-3.726441,-31.21798,1007.454
35.156591892,-11.07944,0.8317203,1.010716,-0.07161722,-0.06022055,0.9793615,-23.30436,-3.726441,-31.21798,1007.454
35.188875675,-10.21181,0.5382064,1.315419,-0.07592192,-0.0859369,0.9627877,-23.31568,-4.096592,-31.64909,1007.454
35.221158981,-5.81168,1.007829,0.6450716,-0.08363524,-0.09416942,0.9675919,-22.95489,-3.007032,-31.66846,1007.454
35.255921841,-3.95247,0.4208008,0.5841309,-0.0758822,-0.0975004,0.9777084,-22.95489,-3.007032,-31.66846,1007.454
35.288205624,-2.155233,0.7143147,0.4622495,-0.08361217,-0.09700584,0.9873967,-23.30568,-2.99741,-31.22721,1007.454
35.322972774,-0.3579972,-0.4597408,0.3403681,-0.08170024,-0.08927383,0.9826021,-22.96688,-3.012667,-32.10418,1007.452
35.355257034,-0.7298392,-0.3423353,0.3403681,-0.08269987,-0.07670592,0.9792916,-22.96688,-3.012667,-32.10418,1007.448
35.390023231,-1.101681,-0.2836325,0.4013088,-0.07977333,-0.08636637,0.982131,-23.31833,-2.638528,-31.66755,1007.45
35.422307014,0.323713,-0.6358492,0.2184867,-0.07637119,-0.09654703,0.9738474,-22.59211,-3.011021,-31.67397,1007.45
35.454586983,3.546343,-1.692499,0.157546,-0.08073411,-0.09122971,0.9758207,-22.59211,-3.011021,-31.67397,1007.45
35.489354133,3.980159,-2.103419,0.03566457,-0.07493306,-0.08095726,1.003423,-22.59145,-3.375537,-31.66935,1007.45
35.521637440,0.323713,-1.809905,0.5841309,-0.07740065,-0.05869199,1.006939,-23.31767,-3.003044,-31.66294,1007.45
35.556404591,-3.208786,-2.690447,1.193538,-0.07642298,-0.06890741,0.9904414,-23.31767,-3.003044,-31.66294,1007.45
35.588688373,-3.828522,-2.925258,0.7669531,-0.06814361,-0.0896519,1.002392,-23.317,-3.36756,-31.65832,1007.45
35.623455524,-4.510232,-0.2836325,1.010716,-0.06721293,-0.08100393,0.9831014,-22.96555,-3.741699,-32.09495,1007.452
35.655735493,-5.501812,-0.0488214,1.254479,-0.07590982,-0.0829547,0.9860097,-22.96555,-3.741699,-32.09495,1007.452
35.688018322,-5.377864,0.009881377,1.010716,-0.06715482,-0.09933262,1.000884,-22.60344,-3.381172,-32.10508,1007.452
35.722785473,-7.237074,1.829667,0.8888345,-0.06525491,-0.08871833,0.9898214,-23.67978,-3.363572,-31.65281,1007.453
35.755069733,-8.290626,2.416695,0.8278937,-0.06475492,-0.09060352,1.004313,-23.31833,-2.638528,-31.66755,1007.453
35.789836883,-11.38931,3.35594,0.4622495,-0.07492416,-0.09704648,0.9680401,-23.31833,-2.638528,-31.66755,1007.453
35.822119713,-8.600494,1.007829,0.4622495,-0.08648749,-0.1125441,0.9742616,-23.69375,-2.275659,-32.10238,1007.455
35.854399681,-5.625759,0.1859897,0.3403681,-0.07971992,-0.1135106,0.9689238,-22.95621,-2.278001,-31.67769,1007.451
35.889166832,-6.49339,1.007829,0.9497752,-0.06807567,-0.1133152,1.01676,-22.95621,-2.278001,-31.67769,1007.451
35.921450615,-7.608916,0.7143147,0.03566457,-0.08695357,-0.1207804,0.9717987,-23.66978,-2.26439,-31.23093,1007.451
35.956217766,-6.555364,-0.3423353,1.071657,-0.07826998,-0.112532,0.97086,-23.68309,-1.540993,-31.67589,1007.451
35.988501072,-5.81168,-0.4597408,1.315419,-0.08453481,-0.122724,0.9674314,-23.68309,-1.540993,-31.67589,1007.451
36.023268223,-6.245495,-0.4597408,1.315419,-0.07477434,-0.1477361,1.004009,-23.30833,-1.539347,-31.24568,1007.453
