Time (s),Gyroscope X (deg/s),Gyroscope Y (deg/s),Gyroscope Z (deg/s),Accelerometer X (g),Accelerometer Y (g),Accelerometer Z (g),Magnetometer X (uT),Magnetometer Y (uT),Magnetometer Z (uT),Barometer (hPa)
0.007374763,-0.424554,0.5103306,-0.07232723,-0.9988715,0.1112367,-0.04980683,11.4818,-16.56395,18.86058,1008.135
0.042138100,0.009261653,0.5103306,-0.01138653,-1.008521,0.1025016,-0.04886882,11.4818,-16.56395,18.86058,1008.135
0.074418068,0.8149192,0.2168167,0.04955418,-0.99936,0.1092603,-0.06141954,11.12969,-15.8253,19.29259,1008.135
0.109180927,-0.05271201,0.09941114,0.1714356,-1.0008,0.1053912,-0.05950469,10.75625,-16.55597,18.87161,1008.138
0.141460896,0.07123531,0.2755195,-0.01138653,-1.00176,0.1068812,-0.04740817,10.75625,-16.55597,18.87161,1008.138
0.176224232,-0.424554,0.92125,-0.1332679,-0.9998301,0.1073592,-0.05079369,11.49445,-16.92283,19.30092,1008.136
0.208504677,0.1951826,1.156061,0.04955418,-0.9983701,0.1025159,-0.05324156,11.11836,-16.19545,18.86148,1008.134
0.240784645,0.009261653,0.92125,-0.07232723,-1.008525,0.1019947,-0.05563983,11.50511,-16.18817,19.72742,1008.134
0.275547504,0.009261653,0.7451417,-0.1332679,-1.004178,0.1034557,-0.05660777,11.50511,-16.18817,19.72742,1008.133
0.307827473,0.133209,1.038656,-0.1942087,-1.006119,0.1063537,-0.05658711,11.50511,-16.18817,19.72742,1008.133
0.342590809,-0.6104749,1.33217,-0.1942087,-0.9969441,0.1107255,-0.05948266,11.49313,-16.1938,19.29169,1008.129
0.374870300,-0.6724486,1.273467,0.04955418,-1.000777,0.09620316,-0.05762322,11.49313,-16.1938,19.29169,1008.133
0.409633636,-0.1146857,1.390872,-0.01138653,-0.9974191,0.1092936,-0.05320508,11.49313,-16.1938,19.29169,1008.133
0.441913605,-0.8583696,1.743089,-0.31609,-0.9983861,0.1048929,-0.06579742,11.49313,-16.1938,19.29169,1008.131
0.474193096,-0.238633,1.508278,-0.07232723,-1.00561,0.094731,-0.05955493,11.49313,-16.1938,19.29169,1008.131
0.508956432,1.496629,0.9799528,0.1714356,-0.9993537,0.1039109,-0.069185,11.13035,-16.18981,19.29721,1008.134
0.541236400,0.3191299,0.6864389,0.1104949,-1.002265,0.1087467,-0.0677009,11.84458,-16.56794,18.85507,1008.132
0.575999260,0.009261653,0.09941114,0.2323763,-1.00661,0.1038754,-0.0735205,11.84458,-16.56794,18.85507,1008.132
0.608280182,-0.7344223,0.1581139,0.5370798,-1.000796,0.1063853,-0.05176402,11.87987,-16.18652,20.15763,1008.132
0.643043041,-0.3625803,0.5690334,0.293317,-1.001771,0.1068386,-0.0599778,11.86789,-16.19215,19.7219,1008.132
0.675323009,0.07123531,0.9799528,0.5370798,-1.000307,0.1005452,-0.06195049,11.86789,-16.19215,19.7219,1008.13
0.707602978,0.4430773,0.5690334,0.7808427,-1.005635,0.1058679,-0.0575578,11.86723,-15.82764,19.71729,1008.133
0.742365837,1.00084,0.1581139,1.268368,-1.002743,0.1063274,-0.06723019,11.8559,-16.19779,19.28618,1008.134
0.774645805,0.9388666,0.2755195,0.6589612,-0.996483,0.120896,-0.05749207,11.8559,-16.19779,19.28618,1008.134
0.809409141,-0.3625803,0.1581139,-0.01138653,-1.009032,0.1097165,-0.0613961,11.49379,-16.55832,19.29631,1008.133
0.841688633,0.8149192,-0.3115083,0.5980205,-1.003208,0.09662776,-0.07308561,11.13167,-16.91884,19.30644,1008.137
0.873969555,1.00084,-0.4289138,0.5980205,-0.9998528,0.1145952,-0.05752064,11.13167,-16.91884,19.30644,1008.137
0.908731937,0.9388666,-0.3702111,0.4151984,-1.001763,0.1014958,-0.06580946,11.14233,-16.18418,19.73293,1008.135
0.941012382,1.00084,-0.6050222,0.7199019,-1.004678,0.1068041,-0.06770675,11.11903,-16.55996,18.8661,1008.135
0.975775719,-0.1146857,-0.1941027,0.293317,-0.9988855,0.1136219,-0.05994545,11.11903,-16.55996,18.8661,1008.135
1.008055210,-0.05271201,-0.3702111,0.4151984,-1.001762,0.1034544,-0.05903018,11.143,-16.54869,19.73755,1008.135
1.042818546,-0.1766593,0.09941114,0.293317,-1.00275,0.1121624,-0.05897854,11.49379,-16.55832,19.29631,1008.137
1.075098515,-0.6724486,0.2755195,0.04955418,-0.9988717,0.1083036,-0.05852539,11.49379,-16.55832,19.29631,1008.136
1.107378006,-0.6724486,0.3342223,-0.07232723,-0.9979265,0.1150568,-0.06574062,11.13101,-16.55433,19.30182,1008.136
1.142141342,-1.478106,0.5103306,-0.2551494,-1.003241,0.1160357,-0.05798857,11.50577,-16.55268,19.73204,1008.136
1.174421310,-1.478106,0.4516278,-0.4379715,-1.001785,0.1106888,-0.06624058,11.13101,-16.55433,19.30182,1008.136
1.209184170,-0.1146857,0.04070837,-0.6207936,-1.009502,0.1014622,-0.06917705,11.13101,-16.55433,19.30182,1008.134
1.241465092,0.9388666,-0.3702111,-0.4989121,-0.9979141,0.1131539,-0.05608269,12.21934,-16.5663,19.28528,1008.14
1.276227474,-0.4865277,-0.0179944,-0.4379715,-0.9998313,0.1034452,-0.06338535,11.49313,-16.1938,19.29169,1008.14
1.308507919,0.3811036,-0.07669719,-0.3770308,-0.9993773,0.1145638,-0.06719062,11.49313,-16.1938,19.29169,1008.138
1.340787887,-1.354159,-0.0179944,-0.31609,-1.004668,0.1048914,-0.0609495,11.49379,-16.55832,19.29631,1008.136
1.375550747,-1.54008,0.2755195,-0.4989121,-1.002735,0.1053808,-0.06095088,11.88054,-16.55104,20.16225,1008.133
1.407830715,-2.283764,0.2168167,-0.8645564,-1.000324,0.1068264,-0.06481537,11.88054,-16.55104,20.16225,1008.133
1.442594051,-0.3625803,0.2168167,-0.9864379,-1.007061,0.09472357,-0.06051873,11.50577,-16.55268,19.73204,1008.133
1.474873543,1.682551,-0.8398333,-0.1332679,-1.00516,0.1053428,-0.07013121,11.84392,-16.20342,18.85045,1008.131
1.509636879,0.4430773,-1.074644,-0.1332679,-1.002744,0.1102299,-0.05802266,11.84392,-16.20342,18.85045,1008.131
1.541916847,1.558603,-0.7224277,-0.4989121,-1.001292,0.1087757,-0.05996782,11.50511,-16.18817,19.72742,1008.135
1.574197292,0.6909719,-0.7811305,-0.4379715,-1.002747,0.1102185,-0.06140679,11.49313,-16.1938,19.29169,1008.135
1.608960152,0.4430773,-0.7811305,-0.5598529,-1.002255,0.1073212,-0.05997401,11.49313,-16.1938,19.29169,1008.135
1.641240120,0.2571563,-1.015942,-0.6207936,-1.005633,0.101967,-0.06628188,11.85524,-15.83327,19.28156,1008.135
1.676003456,0.07123531,-0.8985361,-0.8036157,-1.006112,0.1058927,-0.0498216,11.11903,-16.55996,18.8661,1008.135
1.708283424,-0.796396,-0.4289138,-0.9864379,-0.9978908,0.1034769,-0.05565432,11.11903,-16.55996,18.8661,1008.137
1.743046284,-0.424554,0.2168167,-1.047378,-1.006105,0.1010338,-0.05565051,11.49379,-16.55832,19.29631,1008.137
1.775326252,-0.3006067,-0.0179944,-0.9864379,-1.006603,0.1039049,-0.06481845,11.4818,-16.56395,18.86058,1008.137
1.807606220,-0.7344223,-0.5463194,-0.4989121,-1.002246,0.1019832,-0.06435533,11.4818,-16.56395,18.86058,1008.137
1.842369080,-1.230212,-0.1941027,-0.8645564,-1.001278,0.1054112,-0.05321883,11.8559,-16.19779,19.28618,1008.141
1.874649525,-1.911922,0.2755195,-1.230201,-0.999349,0.1083285,-0.05078921,11.48048,-15.83492,18.85135,1008.141
1.909412861,-3.585211,0.7451417,-1.291141,-1.007068,0.09762714,-0.0605022,11.48048,-15.83492,18.85135,1008.141
1.941692829,-3.895079,0.3929251,-0.9864379,-1.004655,0.09761604,-0.06582528,11.49379,-16.55832,19.29631,1008.139
1.973972797,-3.151395,0.2755195,-0.9254971,-1.004655,0.1000603,-0.05855981,11.49313,-16.1938,19.29169,1008.139
2.008735657,-2.469685,1.156061,-1.413023,-0.9973988,0.101559,-0.0508319,11.49313,-16.1938,19.29169,1008.139
2.041015625,-2.407711,0.8038445,-1.230201,-1.005589,0.08797566,-0.05379212,11.83127,-15.84454,18.41011,1008.139
2.075778961,0.3811036,-0.3702111,-0.4379715,-1.009479,0.09178688,-0.06826522,11.48048,-15.83492,18.85135,1008.139
2.108058453,1.062814,-0.8985361,-0.3770308,-1.005626,0.09759689,-0.07065769,11.1177,-15.83093,18.85686,1008.143
2.142821789,0.4430773,-0.663725,-0.3770308,-1.00029,0.09866186,-0.04649119,11.1177,-15.83093,18.85686,1008.143
2.175102234,0.7529456,-0.3115083,-0.31609,-1.008497,0.09038372,-0.05473903,11.4918,-15.46477,19.28246,1008.145
2.207382202,0.6909719,-0.1354,-0.4989121,-1.001737,0.09476008,-0.05424528,11.1177,-15.83093,18.85686,1008.143
2.242145061,0.5670246,-0.4289138,-0.31609,-1.009018,0.101954,-0.06724153,11.1177,-15.83093,18.85686,1008.147
2.274425030,2.240314,-1.309456,0.1714356,-1.005603,0.08743112,-0.07168242,11.4818,-16.56395,18.86058,1008.149
2.309188366,1.930445,-1.779078,0.04955418,-1.001268,0.1010575,-0.05276017,12.20603,-15.8429,18.84032,1008.147
2.341468334,1.930445,-1.015942,-0.07232723,-1.007052,0.09182983,-0.05763456,12.20603,-15.8429,18.84032,1008.147
2.376231193,1.496629,-0.663725,-0.4379715,-0.9998202,0.1034911,-0.04984882,12.20736,-16.57193,18.84955,1008.149
2.408511162,-0.5485013,-0.663725,-0.3770308,-1.006573,0.09230368,-0.06101697,11.50445,-15.82365,19.72281,1008.147
2.440791607,0.8768929,-0.9572388,0.04955418,-1.00367,0.09231853,-0.05908938,11.50445,-15.82365,19.72281,1008.15
2.475554943,-0.4865277,-0.8985361,0.04955418,-1.003669,0.09378669,-0.05424665,11.48048,-15.83492,18.85135,1008.15
2.507834434,0.5670246,-0.663725,-0.1942087,-1.005121,0.09622183,-0.04842841,11.49313,-16.1938,19.29169,1008.15
2.542597771,-0.3625803,-0.4876166,-0.1332679,-1.001731,0.09429908,-0.04747977,11.49313,-16.1938,19.29169,1008.15
2.574877739,-0.05271201,-0.4876166,0.1714356,-1.002696,0.09137309,-0.0532956,12.21802,-15.83726,19.27604,1008.148
2.609640598,-0.05271201,-0.2528055,0.04955418,-0.9993308,0.09911907,-0.05519256,11.48114,-16.19944,18.85597,1008.15
2.641920566,-1.168238,-0.3115083,-0.07232723,-1.002704,0.09622384,-0.04988392,11.48114,-16.19944,18.85597,1008.149
2.674201012,0.2571563,-0.3702111,0.2323763,-1.009938,0.08650979,-0.05427451,11.4918,-15.46477,19.28246,1008.149
2.708964348,-0.5485013,0.04070837,0.1714356,-0.999806,0.09817439,-0.04794533,11.84392,-16.20342,18.85045,1008.147
2.741244316,0.3811036,0.3929251,-0.1942087,-1.002702,0.09427994,-0.05231218,11.84392,-16.20342,18.85045,1008.143
2.776007175,-0.7344223,0.5103306,-0.3770308,-1.002215,0.09380394,-0.05038217,11.84326,-15.83891,18.84583,1008.143
2.808287144,-0.3006067,0.2168167,-0.07232723,-1.008011,0.087954,-0.05813796,11.50445,-15.82365,19.72281,1008.142
2.840567112,-0.4865277,0.2755195,-0.07232723,-1.007524,0.08943502,-0.04991214,11.50445,-15.82365,19.72281,1008.142
2.875329971,-0.1766593,0.2168167,-0.01138653,-1.002225,0.09669768,-0.05326634,11.10704,-16.5656,18.43037,1008.142
2.907609940,-0.9203433,0.2755195,-0.01138653,-1.003186,0.09231991,-0.05909042,11.49247,-15.82929,19.28708,1008.14
2.942373276,-0.3006067,0.4516278,0.04955418,-1.00318,0.09283496,-0.04990217,11.49313,-16.1938,19.29169,1008.138
2.974653721,-0.238633,0.5690334,0.1104949,-1.001737,0.09524892,-0.05279218,11.49313,-16.1938,19.29169,1008.138
3.009417057,0.009261653,0.2755195,0.1714356,-1.005122,0.09523924,-0.05278495,11.86723,-15.82764,19.71729,1008.138
3.041696548,0.4430773,-0.0179944,0.3542577,-1.003657,0.08895233,-0.05282385,11.84392,-16.20342,18.85045,1008.138
3.073976517,0.4430773,-0.4289138,0.293317,-1.003202,0.09958538,-0.05711532,11.84392,-16.20342,18.85045,1008.137
3.108739853,0.9388666,-0.4289138,0.2323763,-1.006076,0.09040537,-0.05039318,11.83127,-15.84454,18.41011,1008.141
3.141019344,1.124788,-0.4876166,0.04955418,-1.006089,0.0927939,-0.05956491,11.84392,-16.20342,18.85045,1008.137
3.175782681,1.558603,-0.4876166,0.1714356,-0.9983686,0.1005671,-0.05712016,11.84392,-16.20342,18.85045,1008.139
3.208063125,1.806498,-1.250753,-0.1942087,-1.006079,0.0899018,-0.0561973,11.83127,-15.84454,18.41011,1008.139
3.242826462,2.426234,-1.368158,-0.01138653,-1.004639,0.09524063,-0.05278598,11.48048,-15.83492,18.85135,1008.137
3.275106430,1.496629,-0.7224277,-0.1332679,-0.9978772,0.1001124,-0.04890534,11.48048,-15.83492,18.85135,1008.137
3.307385921,0.2571563,-0.7224277,-0.4989121,-1.005118,0.0937891,-0.05230976,11.1177,-15.83093,18.85686,1008.14
3.342149258,0.3811036,-0.4876166,-0.8645564,-0.9997942,0.0938256,-0.04603633,11.85524,-15.83327,19.28156,1008.138
3.374429226,0.1951826,-0.2528055,-0.8645564,-1.002209,0.0928541,-0.04506977,11.85524,-15.83327,19.28156,1008.138
3.409192085,0.2571563,-0.07669719,-0.742675,-0.9997823,0.08849911,-0.04703351,11.48114,-16.19944,18.85597,1008.136
3.441472530,-1.044291,0.4516278,-0.9254971,-0.9998022,0.0972131,-0.04601705,12.20537,-15.47838,18.8357,1008.136
3.476235390,-3.275342,0.5690334,-1.047378,-1.004637,0.09720255,-0.04503981,12.20537,-15.47838,18.8357,1008.136
3.508515835,-2.283764,1.214764,-0.742675,-1.00461,0.08656268,-0.04316661,11.12903,-15.46078,19.28798,1008.14
3.540795326,-2.593632,1.566981,-0.6817343,-1.002217,0.09526391,-0.04795668,11.49247,-15.82929,19.28708,1008.14
3.575558662,-3.39929,1.390872,-0.4379715,-1.005587,0.08798385,-0.05137488,11.49247,-15.82929,19.28708,1008.137
3.607838631,-2.283764,1.214764,-0.6207936,-1.004609,0.08559154,-0.04413901,11.84326,-15.83891,18.84583,1008.135
3.642601490,-1.168238,1.273467,-0.3770308,-0.9992997,0.08800837,-0.04945454,11.83061,-15.48003,18.40549,1008.133
3.674882412,-0.6724486,1.097358,-0.2551494,-1.009462,0.08892263,-0.05667902,11.83061,-15.48003,18.40549,1008.133
3.709644794,1.620577,0.09941114,0.4151984,-1.007514,0.07725653,-0.0736699,11.84326,-15.83891,18.84583,1008.133
3.741925240,1.682551,-0.663725,0.293317,-1.00319,0.0986552,-0.04600154,11.84392,-16.20342,18.85045,1008.137
3.774205208,-0.1766593,-0.07669719,-0.1942087,-0.9968854,0.0899559,-0.04799835,11.84392,-16.20342,18.85045,1008.137
3.808968067,0.07123531,0.3929251,-0.4379715,-1.007056,0.09328162,-0.0576263,11.84392,-16.20342,18.85045,1008.135
3.841248035,-1.54008,0.6864389,-0.4379715,-1.000261,0.08656202,-0.04704349,11.10638,-16.20108,18.42575,1008.134
3.876011372,-1.664027,1.038656,-0.5598529,-1.008482,0.08702571,-0.04605626,11.85524,-15.83327,19.28156,1008.134
3.908291817,-0.796396,1.33217,-0.31609,-1.000757,0.08993338,-0.05137421,11.85524,-15.83327,19.28156,1008.134
3.940571785,-1.292185,1.273467,-0.2551494,-1.00559,0.08699633,-0.05718176,11.1177,-15.83093,18.85686,1008.132
3.975334644,-0.8583696,1.566981,-0.1332679,-1.002695,0.09088916,-0.05329835,11.1177,-15.83093,18.85686,1008.132
4.007614613,-2.097843,1.33217,-0.1942087,-1.003683,0.0956831,-0.06583837,11.1177,-15.83093,18.85686,1008.134
4.042377949,-1.478106,0.8625473,0.04955418,-1.005582,0.08360719,-0.05768448,11.85458,-15.46876,19.27695,1008.134
4.074657440,0.133209,0.8038445,0.1714356,-1.010902,0.08407591,-0.05767035,11.49247,-15.82929,19.28708,1008.134
4.109420776,1.062814,0.2168167,0.7199019,-1.004148,0.08794048,-0.06539796,11.49247,-15.82929,19.28708,1008.134
4.141701221,-1.044291,0.2168167,0.6589612,-1.000762,0.09186582,-0.05233008,11.50445,-15.82365,19.72281,1008.134
4.173981190,-0.5485013,0.6277362,0.9636648,-1.003639,0.07876197,-0.06110029,11.48048,-15.83492,18.85135,1008.134
4.208744049,-0.6724486,0.9799528,0.9636648,-0.9983475,0.09430221,-0.0494208,11.48048,-15.83492,18.85135,1008.138
4.241024017,-2.407711,2.154008,0.5370798,-1.005604,0.09377789,-0.05520941,11.46916,-16.20507,18.42024,1008.138
4.275787353,-0.9203433,2.447522,0.7808427,-1.008462,0.07342493,-0.06112024,11.46916,-16.20507,18.42024,1008.138
4.308067322,1.00084,2.271414,1.816835,-0.9988213,0.0835905,-0.0683348,11.46916,-16.20507,18.42024,1008.138
4.342830181,-0.7344223,2.447522,1.634013,-0.9998333,0.1068573,-0.05611436,11.48114,-16.19944,18.85597,1008.138
4.375110626,-0.238633,3.504172,1.39025,-1.004626,0.08698435,-0.06153484,11.4918,-15.46477,19.28246,1008.138
4.407390594,2.240314,3.328064,0.9636648,-1.003207,0.09614383,-0.07308836,11.4918,-15.46477,19.28246,1008.138
4.442153931,1.682551,2.388819,1.085546,-1.00174,0.09132671,-0.06780108,11.4818,-16.56395,18.86058,1008.138
4.474433422,1.558603,2.506225,0.8417833,-0.9983848,0.1019664,-0.07258221,11.49313,-16.1938,19.29169,1008.142
4.509196758,1.434656,1.390872,0.293317,-1.002248,0.09708988,-0.08033663,11.49313,-16.1938,19.29169,1008.141
4.541476726,0.009261653,0.1581139,0.6589612,-1.007547,0.09275863,-0.0687473,11.86723,-15.82764,19.71729,1008.142
4.576239586,-0.7344223,0.92125,0.4761391,-0.9998199,0.09762822,-0.06631907,11.86789,-16.19215,19.7219,1008.142
4.608520508,-0.6104749,2.917144,-0.07232723,-0.9983925,0.1077982,-0.06529745,11.86789,-16.19215,19.7219,1008.141
4.640799999,-3.027448,4.736931,-0.1332679,-0.9935187,0.09526587,-0.05474355,11.14167,-15.81966,19.72832,1008.139
4.675563335,-4.824684,7.202447,-0.3770308,-1.007041,0.0860145,-0.06008485,11.50445,-15.82365,19.72281,1008.139
4.707843304,-2.531658,7.789475,-0.6817343,-0.9998323,0.09659976,-0.08421212,11.50445,-15.82365,19.72281,1008.139
4.742606163,-4.204947,7.202447,-0.6817343,-1.001309,0.1008855,-0.1035221,11.49247,-15.82929,19.28708,1008.137
4.774886131,-4.142974,5.910986,-0.07232723,-1.002709,0.08301035,-0.09346853,11.5171,-16.18253,20.16315,1008.137
4.809649467,-2.593632,4.384714,0.6589612,-0.9988511,0.08688791,-0.09490512,11.4818,-16.56395,18.86058,1008.136
4.841929913,0.6289983,2.975847,1.207428,-1.013877,0.09598073,-0.1122248,11.4818,-16.56395,18.86058,1008.14
4.874209881,0.07123531,2.271414,1.755894,-1.002229,0.08788213,-0.08425653,11.50445,-15.82365,19.72281,1008.138
4.908972740,2.426234,2.212711,1.45119,-1.002271,0.09894861,-0.1030476,11.87921,-15.822,20.15302,1008.136
4.941252708,3.169918,1.214764,1.024606,-0.9926254,0.1047359,-0.1170552,11.87921,-15.822,20.15302,1008.136
4.976016045,4.099523,-0.3115083,1.268368,-1.00517,0.09406172,-0.1146717,11.50577,-16.55268,19.73204,1008.139
5.008296490,3.169918,-0.8985361,1.694953,-0.9964655,0.09800062,-0.1020986,11.89186,-16.18089,20.59336,1008.137
5.040575981,3.54176,-0.8985361,1.634013,-0.9988831,0.1009268,-0.09337491,11.89186,-16.18089,20.59336,1008.137
5.075339317,1.496629,0.2755195,1.573072,-0.997435,0.1033637,-0.08949666,11.5171,-16.18253,20.16315,1008.135
5.107619286,1.682551,0.9799528,1.268368,-0.9945546,0.1086608,-0.09962496,11.52908,-16.1769,20.59887,1008.135
5.142382145,-0.796396,1.449575,0.9636648,-0.9969513,0.1009225,-0.09627973,11.52908,-16.1769,20.59887,1008.135
5.174662113,-0.9203433,0.92125,1.207428,-0.9998611,0.09696903,-0.1180507,11.15432,-16.17854,20.16866,1008.139
5.209425449,-1.787974,-0.7224277,1.146487,-0.9960131,0.1086239,-0.1092908,11.89186,-16.18089,20.59336,1008.137
5.241705894,-2.655606,-0.4876166,1.329309,-1.002751,0.09945245,-0.09675902,11.89186,-16.18089,20.59336,1008.137
5.273985863,0.3811036,0.09941114,1.39025,-0.9950219,0.1043286,-0.092397,11.88054,-16.55104,20.16225,1008.137
5.308748722,-0.05271201,0.4516278,0.902724,-1.003264,0.1071448,-0.1112173,11.15498,-16.54306,20.17328,1008.136
5.341028690,-0.05271201,1.156061,0.902724,-0.997443,0.10724,-0.08802429,11.15498,-16.54306,20.17328,1008.136
5.375792026,1.310709,1.038656,0.902724,-0.9960174,0.1042079,-0.1272031,11.14366,-16.91321,19.74217,1008.134
5.408072471,-0.5485013,-0.3115083,0.5980205,-1.000852,0.1120156,-0.1039433,11.1663,-16.17291,20.60439,1008.134
5.442835331,0.07123531,-0.3702111,0.8417833,-1.001307,0.1023585,-0.09722905,11.1663,-16.17291,20.60439,1008.134
5.475115299,-0.7344223,0.1581139,0.4761391,-1.001354,0.1173161,-0.1101967,11.5071,-17.28171,19.74127,1008.138
5.507395267,-1.416133,-0.07669719,0.2323763,-1.000368,0.109576,-0.1102429,11.54107,-16.17126,21.0346,1008.137
5.542158604,-0.424554,0.3342223,-0.01138653,-1.001313,0.1028228,-0.1030277,11.54107,-16.17126,21.0346,1008.137
5.574438095,-0.3625803,1.097358,-0.07232723,-1.002761,0.1057615,-0.0914053,11.5171,-16.18253,20.16315,1008.135
5.609201431,-0.05271201,1.390872,-0.2551494,-1.002294,0.1042309,-0.1151035,12.25596,-16.91391,20.59707,1008.133
5.641481876,0.3191299,0.2755195,-0.2551494,-0.9911707,0.1067118,-0.1064115,12.25596,-16.91391,20.59707,1008.133
5.676245212,-1.044291,0.6277362,-0.07232723,-1.001799,0.1033021,-0.1039908,12.24331,-16.55503,20.15673,1008.133
5.708524704,0.07123531,0.8038445,0.04955418,-0.9984196,0.1062202,-0.1025311,11.8812,-16.91555,20.16686,1008.133
5.740804672,-0.7344223,0.6277362,-0.1942087,-0.9984295,0.1100884,-0.103476,11.8812,-16.91555,20.16686,1008.131
5.775568008,-0.7344223,0.8038445,-0.01138653,-1.001311,0.1008773,-0.1059394,11.52974,-16.54141,20.60349,1008.135
5.807848453,0.009261653,0.92125,-0.01138653,-0.9979318,0.1042843,-0.1030266,11.52908,-16.1769,20.59887,1008.135
5.842611790,0.6909719,1.214764,-0.07232723,-1.004712,0.1071554,-0.1068632,11.16697,-16.53743,20.609,1008.137
5.874891281,3.975576,0.1581139,0.293317,-0.9984226,0.09838893,-0.1286813,11.16697,-16.53743,20.609,1008.137
5.909654617,1.434656,-0.9572388,-0.01138653,-0.9955431,0.1168766,-0.1019933,11.52908,-16.1769,20.59887,1008.135
5.941934586,0.009261653,0.09941114,-0.1332679,-0.9988852,0.09847435,-0.1030576,11.15564,-16.90757,20.17789,1008.135
5.974215031,0.009261653,0.5690334,-0.31609,-1.002286,0.1067046,-0.09913599,11.15564,-16.90757,20.17789,1008.135
6.008977890,0.2571563,0.2168167,-0.4379715,-0.9974545,0.1018169,-0.1175449,11.16697,-16.53743,20.609,1008.134
6.041257858,-0.424554,0.04070837,-0.1942087,-0.999388,0.1057237,-0.1054325,11.8912,-15.81637,20.58874,1008.138
6.076021194,-1.416133,0.3342223,-0.07232723,-0.9979281,0.1013676,-0.1069107,11.8912,-15.81637,20.58874,1008.138
6.108301163,-0.1766593,-0.0179944,-0.07232723,-0.998419,0.1037793,-0.1088297,11.143,-16.54869,19.73755,1008.138
6.140580654,0.5670246,-0.0179944,-0.1332679,-1.001325,0.1037497,-0.1151083,11.50577,-16.55268,19.73204,1008.138
6.175343990,1.744524,-0.3115083,-0.2551494,-1.001812,0.1052018,-0.1146156,11.50577,-16.55268,19.73204,1008.138
6.207624435,2.116366,-1.074644,0.4151984,-0.9969719,0.1042575,-0.1117308,11.85656,-16.56231,19.29079,1008.138
6.242387771,3.293866,-1.544267,0.5370798,-0.9960219,0.1115192,-0.1116915,11.51776,-16.54705,20.16776,1008.138
6.274667263,0.3811036,-1.19205,0.4151984,-1.000347,0.1038,-0.1010904,11.51776,-16.54705,20.16776,1008.136
6.309430599,1.310709,-0.4876166,0.293317,-0.996022,0.1144507,-0.1034564,11.89252,-16.5454,20.59797,1008.134
6.341710567,0.07123531,-0.07669719,0.1104949,-1.004705,0.1022948,-0.1131756,11.5171,-16.18253,20.16315,1008.134
6.373991012,-0.1146857,-0.07669719,0.1714356,-0.99744,0.1004109,-0.1040166,11.5171,-16.18253,20.16315,1008.134
6.408754349,0.2571563,-0.3115083,0.2323763,-0.9969685,0.1023169,-0.1131921,11.51776,-16.54705,20.16776,1008.134
6.441033840,-0.424554,-0.2528055,0.1104949,-0.9979309,0.1062429,-0.09624737,11.52908,-16.1769,20.59887,1008.137
6.475797176,0.7529456,0.4516278,0.04955418,-1.000357,0.1062032,-0.1059111,11.52908,-16.1769,20.59887,1008.137
6.508077145,-0.8583696,0.6277362,-0.1942087,-0.9969794,0.1086244,-0.1083218,12.25397,-15.82036,20.58323,1008.137
6.542840004,-0.424554,0.2755195,-0.1942087,-1.002272,0.09747716,-0.1088573,11.17961,-16.89631,21.04935,1008.138
6.575120449,0.9388666,-0.5463194,0.2323763,-1.000853,0.1081032,-0.1160515,11.17961,-16.89631,21.04935,1008.137
6.607400417,0.5670246,-0.663725,0.293317,-0.9998815,0.1071463,-0.1136418,11.52842,-15.81238,20.59426,1008.135
6.642163753,0.5670246,-0.7224277,0.04955418,-1.000837,0.1032819,-0.1107611,11.16697,-16.53743,20.609,1008.133
6.674443245,1.682551,-0.7224277,0.293317,-0.9993962,0.1100873,-0.1029905,11.16697,-16.53743,20.609,1008.133
6.709206581,0.9388666,-0.663725,-0.01138653,-0.9955265,0.1086383,-0.1054243,11.52974,-16.54141,20.60349,1008.132
6.741487026,0.5670246,-0.6050222,0.2323763,-0.9993853,0.1042687,-0.1064077,11.52974,-16.54141,20.60349,1008.135
6.776250362,0.2571563,-0.9572388,0.293317,-0.9998758,0.1057043,-0.1107494,12.62807,-15.4542,21.00882,1008.134
6.808530331,1.186761,-0.7811305,0.2323763,-1.001786,0.09944703,-0.09917833,12.62807,-15.4542,21.00882,1008.132
6.840809822,1.00084,-0.7811305,0.3542577,-0.9998728,0.1071823,-0.103006,11.52974,-16.54141,20.60349,1008.132
6.875573158,0.07123531,-0.4289138,0.2323763,-0.9964904,0.107671,-0.1044608,11.16697,-16.53743,20.609,1008.132
6.907853603,-0.1146857,-0.4289138,0.1104949,-0.9984248,0.1091304,-0.1005808,11.16697,-16.53743,20.609,1008.134
6.942616940,-1.106264,-0.1941027,0.2323763,-0.9979293,0.1018515,-0.106908,11.16697,-16.53743,20.609,1008.133
6.974896908,-0.7344223,-0.4289138,0.3542577,-1.000846,0.1100864,-0.1020205,11.52974,-16.54141,20.60349,1008.133
7.009659767,-0.7344223,-0.4289138,0.3542577,-1.004715,0.1105625,-0.1010426,11.52974,-16.54141,20.60349,1008.133
7.041939735,-0.7344223,-0.3702111,0.1714356,-0.9993941,0.1076529,-0.1073553,11.52974,-16.54141,20.60349,1008.131
7.074220181,-0.6104749,-0.1941027,0.04955418,-1.003746,0.1091053,-0.1034701,11.52908,-16.1769,20.59887,1008.135
7.108983517,0.505051,-0.6050222,0.4761391,-1.003238,0.09845699,-0.1044987,11.52908,-16.1769,20.59887,1008.133
7.141263008,0.07123531,-0.663725,0.1714356,-1.000835,0.1032901,-0.1083439,10.7922,-16.53907,20.17879,1008.13
7.176026344,0.8149192,-0.7224277,0.1104949,-0.9931047,0.1086616,-0.100595,11.16697,-16.53743,20.609,1008.13
7.208306312,0.4430773,-0.9572388,0.4761391,-1.002293,0.1071672,-0.105418,11.16697,-16.53743,20.609,1008.13
7.240586757,0.9388666,-1.133347,0.3542577,-0.9989058,0.1071851,-0.103008,11.5171,-16.18253,20.16315,1008.13
7.275350094,0.133209,-1.015942,0.2323763,-0.9984182,0.1086694,-0.09381533,11.50511,-16.18817,19.72742,1008.132
7.307629585,-0.424554,-0.6050222,0.04955418,-0.9989057,0.1091404,-0.09719566,11.50511,-16.18817,19.72742,1008.132
7.342392921,0.1951826,-0.4289138,-0.1332679,-0.9998602,0.1028368,-0.1001301,11.89252,-16.5454,20.59797,1008.136
7.374672890,-0.9203433,-0.1354,-0.2551494,-0.9969653,0.1081945,-0.09237084,11.15498,-16.54306,20.17328,1008.136
7.409435749,0.2571563,-0.4289138,-0.1332679,-0.9964886,0.1096329,-0.09671463,11.15498,-16.54306,20.17328,1008.134
7.441716194,-0.6104749,-0.1941027,-0.1332679,-1.003255,0.1071841,-0.09961461,11.15498,-16.54306,20.17328,1008.134
7.473996162,0.4430773,-0.8398333,0.293317,-0.9988981,0.1047736,-0.1006046,11.89252,-16.5454,20.59797,1008.134
7.508759498,0.3191299,-0.6050222,0.04955418,-1.000842,0.1091251,-0.1000922,11.89252,-16.5454,20.59797,1008.132
7.541038990,-0.3625803,-0.07669719,-0.3770308,-1.000839,0.1101175,-0.09283499,11.86789,-16.19215,19.7219,1008.132
7.575802326,0.07123531,0.2168167,-0.3770308,-1.001317,0.1057378,-0.09962701,11.52974,-16.54141,20.60349,1008.134
7.608082771,-0.6104749,-0.4289138,-0.2551494,-1.00325,0.102317,-0.1078608,11.52974,-16.54141,20.60349,1008.134
7.642846107,-0.6724486,-0.1941027,-0.4379715,-1.000352,0.1086655,-0.09332775,11.52974,-16.54141,20.60349,1008.134
7.675126076,-0.238633,0.2755195,-0.4379715,-0.9998469,0.1004483,-0.09095836,10.7922,-16.53907,20.17879,1008.136
7.707405567,-0.3625803,0.3342223,-0.6817343,-0.9974512,0.1076944,-0.09672358,10.7922,-16.53907,20.17879,1008.136
7.742168903,-0.238633,-0.2528055,-0.6817343,-1.006153,0.1037703,-0.1049456,11.52974,-16.54141,20.60349,1008.14
7.774449348,0.2571563,-0.2528055,-0.1942087,-0.9959898,0.1038337,-0.09481493,11.5171,-16.18253,20.16315,1008.136
7.809212685,0.07123531,-0.1354,-0.4379715,-1.003742,0.1091233,-0.09815221,11.14167,-15.81966,19.72832,1008.138
7.841492176,0.1951826,-0.0179944,-0.31609,-0.9955029,0.1018945,-0.09627733,11.14167,-15.81966,19.72832,1008.138
7.876255512,0.07123531,-0.3115083,-0.1942087,-0.9998562,0.103342,-0.09384251,10.78088,-16.90922,19.74768,1008.138
7.908535480,0.3191299,-0.3115083,-0.3770308,-0.9998572,0.1048036,-0.09093358,11.89252,-16.5454,20.59797,1008.138
7.940815926,-0.1766593,0.2755195,-0.2551494,-1.002268,0.09993776,-0.0967573,11.89252,-16.5454,20.59797,1008.138
7.975579262,1.00084,0.2755195,-0.07232723,-0.9979352,0.1062249,-0.1015653,11.50511,-16.18817,19.72742,1008.14
8.007858753,-0.3625803,0.3342223,-0.2551494,-0.9974437,0.1072367,-0.08899118,12.24265,-16.19051,20.15211,1008.142
8.042622089,0.07123531,0.7451417,-0.3770308,-0.9974263,0.09802406,-0.09436143,12.24265,-16.19051,20.15211,1008.142
8.074902535,-0.238633,0.5103306,-0.4989121,-1.001304,0.1009051,-0.09772076,11.15432,-16.17854,20.16866,1008.142
8.109665871,0.07123531,0.5103306,-0.3770308,-0.9998632,0.1042902,-0.09963837,11.52842,-15.81238,20.59426,1008.142
8.141945362,0.009261653,0.2755195,-0.4989121,-0.9959852,0.101898,-0.09482595,11.52842,-15.81238,20.59426,1008.142
8.174225330,-1.106264,0.2755195,-0.4379715,-1.000342,0.1033308,-0.09674216,11.15366,-15.81403,20.16405,1008.144
8.208988666,-0.6724486,0.3342223,-0.31609,-1.002745,0.09507908,-0.1021017,11.50511,-16.18817,19.72742,1008.146
8.241269111,-1.354159,0.09941114,-0.31609,-0.9959856,0.1014075,-0.09676249,11.50511,-16.18817,19.72742,1008.146
8.276032448,-0.8583696,0.3929251,-0.2551494,-1.001307,0.101873,-0.09771525,11.15432,-16.17854,20.16866,1008.144
8.308311939,-1.106264,0.6277362,0.1714356,-1.001299,0.0970173,-0.1025773,11.51776,-16.54705,20.16776,1008.146
8.340591907,0.133209,0.4516278,-0.01138653,-0.9979373,0.1057279,-0.1054356,11.51776,-16.54705,20.16776,1008.146
8.375355244,-0.3006067,0.1581139,-0.1942087,-0.9998558,0.1038325,-0.09190597,11.15432,-16.17854,20.16866,1008.146
8.407635689,0.133209,0.3929251,0.04955418,-1.003723,0.09845071,-0.105948,11.52908,-16.1769,20.59887,1008.146
8.442399025,0.07123531,0.04070837,-0.1332679,-0.997933,0.1042793,-0.104477,11.52908,-16.1769,20.59887,1008.148
8.474678516,-0.6724486,0.4516278,-0.31609,-1.000832,0.103792,-0.1030232,11.51776,-16.54705,20.16776,1008.15
8.509441852,-0.796396,0.8625473,-0.3770308,-0.9964761,0.09991176,-0.1093393,11.87987,-16.18652,20.15763,1008.15
8.541721821,-1.230212,0.92125,-0.31609,-0.9969454,0.0994805,-0.09338731,11.87987,-16.18652,20.15763,1008.152
8.574002266,-1.106264,1.566981,-0.1332679,-1.005165,0.09457349,-0.1064503,10.79154,-16.17455,20.17418,1008.152
8.608765125,0.133209,1.390872,0.04955418,-1.00132,0.1032854,-0.1093097,11.52974,-16.54141,20.60349,1008.152
8.641045093,0.3191299,0.6864389,0.4151984,-1.004686,0.09455686,-0.1117693,11.52974,-16.54141,20.60349,1008.15
8.675808430,1.00084,0.4516278,0.6589612,-0.9984084,0.1033347,-0.09722975,11.15432,-16.17854,20.16866,1008.15
8.708088875,-0.5485013,1.038656,0.6589612,-1.000329,0.09654433,-0.1001649,11.52974,-16.54141,20.60349,1008.154
8.742852211,0.9388666,0.4516278,1.146487,-1.004681,0.09506372,-0.1049983,11.5171,-16.18253,20.16315,1008.153
8.775131702,2.302287,0.3342223,1.207428,-1.006639,0.1018037,-0.1136576,11.5171,-16.18253,20.16315,1008.153
8.807411671,2.612155,-0.4289138,1.207428,-1.002283,0.09987552,-0.1151283,11.5171,-16.18253,20.16315,1008.153
8.842175007,3.231892,-1.015942,1.512131,-1.001286,0.09413993,-0.09485863,11.51644,-15.81802,20.15853,1008.151
8.874455452,6.08268,-1.896483,1.999657,-1.002781,0.1076367,-0.1092818,11.51644,-15.81802,20.15853,1008.149
8.909218311,5.462944,-2.835728,1.45119,-0.995034,0.1057443,-0.1030246,11.5171,-16.18253,20.16315,1008.147
8.941498280,3.603734,-1.602969,1.39025,-0.9969712,0.1115902,-0.08993433,11.16763,-16.90194,20.61362,1008.147
8.976261616,2.612155,-0.9572388,1.268368,-0.9994003,0.11398,-0.09668364,11.16763,-16.90194,20.61362,1008.15
9.008542061,2.364261,-0.9572388,1.085546,-0.9969628,0.1042952,-0.1006115,11.89252,-16.5454,20.59797,1008.152
9.040822029,2.674129,-1.485564,1.085546,-0.9974618,0.1135147,-0.09282295,11.16697,-16.53743,20.609,1008.15
9.075584888,1.062814,-1.309456,0.5980205,-0.9984348,0.1125097,-0.1029788,11.16697,-16.53743,20.609,1008.148
9.107864857,0.9388666,-1.309456,0.293317,-0.9974664,0.1095859,-0.1097656,10.82882,-16.88668,21.49059,1008.148
9.142628193,0.7529456,-0.8398333,0.1714356,-1.00519,0.1101051,-0.09282568,11.16697,-16.53743,20.609,1008.148
9.174908638,2.364261,-1.309456,0.4761391,-1.000842,0.1057048,-0.1097804,11.16697,-16.53743,20.609,1008.148
9.209671497,1.682551,-1.896483,0.7808427,-0.994558,0.1140217,-0.08847538,11.89186,-16.18089,20.59336,1008.152
9.241951465,0.3811036,-1.720375,0.6589612,-0.9960092,0.1120605,-0.09476811,11.52908,-16.1769,20.59887,1008.152
9.274231434,-0.424554,-1.074644,0.6589612,-1.004216,0.1062282,-0.09526703,11.52908,-16.1769,20.59887,1008.152
9.308994293,1.062814,-0.663725,0.293317,-0.9993927,0.1140111,-0.08749814,11.52974,-16.54141,20.60349,1008.152
9.341275215,0.1951826,-0.3115083,-0.2551494,-0.998949,0.1250872,-0.103873,11.17895,-16.53179,21.04473,1008.15
9.376038074,1.00084,-0.9572388,-0.1942087,-1.000335,0.1028731,-0.08900976,11.17895,-16.53179,21.04473,1008.154
9.408318043,0.6289983,-0.5463194,0.1104949,-1.002272,0.1038338,-0.08948357,11.88054,-16.55104,20.16225,1008.153
9.440598488,1.124788,-0.663725,-0.07232723,-0.999393,0.1115669,-0.09476362,11.89252,-16.5454,20.59797,1008.153
9.475361824,-0.8583696,-0.8398333,-0.31609,-0.9988906,0.1043159,-0.09287218,11.89252,-16.5454,20.59797,1008.151
9.507641315,-0.05271201,-0.0179944,-0.5598529,-0.9993873,0.1125675,-0.08508918,11.90451,-16.53977,21.0337,1008.151
9.542404652,-1.602054,0.1581139,-0.4379715,-0.9945471,0.1077142,-0.09334566,11.5171,-16.18253,20.16315,1008.152
9.574684620,-0.9823169,0.09941114,-0.4379715,-1.003236,0.1004206,-0.09626904,11.16564,-15.80839,20.59977,1008.152
9.609447956,-0.3625803,0.2755195,-0.1942087,-0.9955215,0.1111022,-0.09235742,11.16564,-15.80839,20.59977,1008.152
9.641728401,0.009261653,-0.1354,-0.1332679,-0.9964665,0.1004399,-0.09628352,11.52908,-16.1769,20.59887,1008.152
9.674007893,0.3191299,-0.2528055,0.2323763,-1.006138,0.102366,-0.0909339,11.52908,-16.1769,20.59887,1008.152
9.708771229,1.434656,0.1581139,0.5370798,-1.004716,0.1139795,-0.09232124,11.52908,-16.1769,20.59887,1008.152
9.741051674,0.505051,0.09941114,0.5370798,-1.000358,0.1125484,-0.08992158,11.52842,-15.81238,20.59426,1008.152
9.775815010,0.07123531,0.5690334,0.5980205,-1.003241,0.1028451,-0.09480492,11.15498,-16.54306,20.17328,1008.156
9.808094978,1.620577,-0.1941027,0.4761391,-1.000836,0.108172,-0.0957467,11.15498,-16.54306,20.17328,1008.156
9.842857838,0.133209,0.2168167,0.4151984,-0.9960156,0.1159434,-0.09136195,11.54107,-16.17126,21.0346,1008.154
9.875137806,-0.9823169,0.7451417,0.4151984,-0.9974523,0.1096449,-0.09236154,11.17895,-16.53179,21.04473,1008.156
9.907418251,-1.973896,1.566981,0.1714356,-1.005657,0.1077299,-0.07930191,11.17895,-16.53179,21.04473,1008.154
9.942181587,0.009261653,2.036603,0.7199019,-0.9993567,0.0955907,-0.09678829,11.52974,-16.54141,20.60349,1008.154
9.974461079,0.5670246,1.156061,-0.01138653,-0.9989571,0.1265193,-0.1096661,11.52908,-16.1769,20.59887,1008.154
10.009224415,-0.1766593,0.3342223,-0.2551494,-0.9998562,0.09894405,-0.1064369,11.52908,-16.1769,20.59887,1008.154
10.041504860,1.434656,0.2755195,0.4761391,-1.000327,0.0994823,-0.08999594,11.17829,-16.16727,21.04012,1008.16
10.076268196,1.930445,0.09941114,0.3542577,-0.9974654,0.1130111,-0.09862708,11.54173,-16.53578,21.03922,1008.16
10.108548164,0.505051,0.04070837,0.293317,-0.9965143,0.1202777,-0.0971375,11.54173,-16.53578,21.03922,1008.16
10.140827656,-0.424554,0.6277362,-0.31609,-1.003727,0.1072286,-0.08607706,10.80287,-15.80441,20.60529,1008.16
10.175591469,0.6909719,0.7451417,-0.4379715,-0.9989069,0.1042487,-0.1126935,10.80419,-16.53344,20.61452,1008.161
10.207871437,0.3811036,-0.2528055,-0.742675,-0.9916748,0.11591,-0.1049078,10.80419,-16.53344,20.61452,1008.16
10.242634773,-1.726001,-0.1354,-0.4379715,-0.9960043,0.1091487,-0.09720187,11.54173,-16.53578,21.03922,1008.158
10.274914265,-2.159817,1.038656,-0.5598529,-0.9950427,0.114993,-0.0870185,11.54107,-16.17126,21.0346,1008.156
10.307195186,-5.382447,3.445469,-1.473963,-0.9911743,0.1203797,-0.07152617,11.54107,-16.17126,21.0346,1008.156
10.341958046,-8.047315,5.441364,-2.509955,-0.9931254,0.1212815,-0.08940407,11.89318,-16.90992,20.60259,1008.154
10.374238014,-12.19955,5.030445,-1.961489,-1.002761,0.09256934,-0.1287051,11.89186,-16.18089,20.59336,1008.153
10.409001350,-4.266921,4.678228,-2.205252,-1.000322,0.09266307,-0.1030876,11.89186,-16.18089,20.59336,1008.153
10.441281795,-1.044291,3.328064,-1.230201,-1.000835,0.09742562,-0.1252976,11.52908,-16.1769,20.59887,1008.155
10.476044655,0.07123531,1.390872,-0.9254971,-1.002786,0.1027286,-0.1296142,11.15432,-16.17854,20.16866,1008.155
10.508324623,0.9388666,0.3342223,-0.742675,-0.9989058,0.1027871,-0.1156025,11.1663,-16.17291,20.60439,1008.155
10.540604591,2.364261,-0.7811305,-0.5598529,-1.008076,0.09159119,-0.1272489,11.1663,-16.17291,20.60439,1008.155
10.575367451,4.657286,-2.777025,0.3542577,-0.9974592,0.1017972,-0.1233462,11.17895,-16.53179,21.04473,1008.157
10.607648373,2.488208,-2.2487,0.04955418,-0.9959989,0.1077051,-0.0947929,11.52908,-16.1769,20.59887,1008.157
10.642411232,1.930445,-1.896483,0.1104949,-0.9979364,0.101822,-0.11561,11.52908,-16.1769,20.59887,1008.159
10.674691200,1.930445,-1.720375,0.04955418,-0.9989056,0.1047425,-0.1097901,11.51776,-16.54705,20.16776,1008.159
10.709454536,0.6909719,-1.485564,-0.01138653,-0.9960251,0.1154152,-0.1044178,11.52908,-16.1769,20.59887,1008.159
10.741734981,1.930445,-1.309456,-0.07232723,-1.007563,0.09073773,-0.09389757,11.52908,-16.1769,20.59887,1008.159
10.774014473,4.657286,-1.544267,0.1104949,-0.9984292,0.1047144,-0.1184932,11.52842,-15.81238,20.59426,1008.163
10.808777809,1.434656,-1.896483,-0.1942087,-0.9969682,0.10525,-0.1044735,11.55305,-16.16563,21.47033,1008.161
10.841058254,0.2571563,-1.19205,-0.1332679,-0.9920915,0.09272916,-0.09053553,11.55305,-16.16563,21.47033,1008.161
10.875821590,0.3191299,-0.8985361,-0.07232723,-0.9921346,0.1067221,-0.1025418,11.89186,-16.18089,20.59336,1008.16
10.908101559,-1.230212,-1.015942,-0.3770308,-0.998393,0.09313615,-0.1079234,11.54173,-16.53578,21.03922,1008.158
10.942864418,0.07123531,-0.663725,0.04955418,-1.005621,0.08784462,-0.09246789,11.54173,-16.53578,21.03922,1008.158
10.975144863,1.124788,-0.5463194,0.293317,-1.004221,0.1066958,-0.1000987,11.16763,-16.90194,20.61362,1008.156
11.007424831,0.6289983,-1.133347,0.1104949,-0.9969699,0.1042657,-0.1093135,11.52908,-16.1769,20.59887,1008.156
11.042188168,1.682551,-1.426861,0.4151984,-1.003715,0.09945951,-0.09385628,11.52908,-16.1769,20.59887,1008.159
11.074467659,3.913602,-1.602969,0.902724,-1.001784,0.09847589,-0.1001507,11.54107,-16.17126,21.0346,1008.159
11.109230995,3.045971,-1.368158,0.6589612,-0.9974528,0.1076879,-0.09865738,11.54107,-16.17126,21.0346,1008.159
11.141511440,4.037549,-1.779078,0.5980205,-1.005642,0.09508716,-0.09726106,11.54107,-16.17126,21.0346,1008.157
11.176274776,2.86005,-1.955186,1.329309,-0.9978253,0.06954133,-0.07373466,11.52974,-16.54141,20.60349,1008.157
11.208554745,3.355839,-1.720375,1.816835,-1.001298,0.09995364,-0.0928918,11.52842,-15.81238,20.59426,1008.157
11.240835190,2.364261,-1.426861,1.512131,-0.9950384,0.1140334,-0.08460678,11.52842,-15.81238,20.59426,1008.157
11.275598049,1.682551,0.2755195,1.024606,-0.9964705,0.1053103,-0.08707048,11.8912,-15.81637,20.58874,1008.159
11.307878017,0.2571563,-0.2528055,0.7199019,-0.9960031,0.1057334,-0.1054398,11.54173,-16.53578,21.03922,1008.158
11.342641353,-0.796396,-0.4876166,0.8417833,-0.9988929,0.1052838,-0.09286667,11.54173,-16.53578,21.03922,1008.158
11.374921799,-0.3625803,0.2168167,0.5370798,-1.003725,0.1043054,-0.09189495,10.44141,-16.52945,20.62004,1008.158
11.407201767,-0.4865277,0.2755195,0.5370798,-1.002284,0.1052479,-0.1005946,11.52908,-16.1769,20.59887,1008.158
11.441964626,-0.796396,0.2168167,0.3542577,-1.002272,0.1018751,-0.09626284,10.80419,-16.53344,20.61452,1008.156
11.474244594,0.009261653,0.2168167,0.3542577,-0.9993945,0.1120492,-0.09524433,10.80419,-16.53344,20.61452,1008.16
11.509007931,-0.1766593,0.1581139,0.3542577,-0.9993728,0.1018769,-0.09820283,11.52842,-15.81238,20.59426,1008.16
11.541288376,1.062814,-0.07669719,0.3542577,-1.000355,0.1081635,-0.09864841,11.54173,-16.53578,21.03922,1008.16
11.576051235,1.062814,-0.4876166,0.1104949,-0.9960039,0.1106169,-0.09235913,11.54173,-16.53578,21.03922,1008.158
11.608331203,0.133209,-0.07669719,0.2323763,-0.9969625,0.108206,-0.08898671,11.54107,-16.17126,21.0346,1008.158
11.640611648,-0.5485013,-0.0179944,0.1714356,-1.000345,0.1047859,-0.09576701,11.89186,-16.18089,20.59336,1008.158
11.675374985,-0.3625803,0.2168167,0.1104949,-1.003734,0.106223,-0.09720185,11.89186,-16.18089,20.59336,1008.158
11.707654953,0.7529456,-0.0179944,-0.07232723,-0.9993744,0.1023591,-0.09868354,11.54041,-15.80675,21.02999,1008.158
11.742417812,-0.6104749,0.2168167,-0.4989121,-0.9974388,0.1057915,-0.08706565,11.52908,-16.1769,20.59887,1008.162
11.774698257,0.6289983,0.6864389,-0.6817343,-1.000835,0.1072008,-0.09671909,11.52908,-16.1769,20.59887,1008.162
11.809461594,-0.3006067,0.5690334,-0.4379715,-1.004213,0.1037971,-0.09866492,10.80419,-16.53344,20.61452,1008.161
11.841741562,0.3191299,0.1581139,-0.31609,-1.000826,0.1023517,-0.09964732,11.17895,-16.53179,21.04473,1008.159
11.874022007,-0.3625803,-0.0179944,-0.1942087,-0.9979173,0.1028783,-0.08949838,11.17895,-16.53179,21.04473,1008.159
11.908784866,-0.05271201,0.09941114,-0.07232723,-0.9993761,0.1047952,-0.09383529,11.89252,-16.5454,20.59797,1008.159
11.941064835,-0.7344223,0.1581139,-0.1942087,-0.9998701,0.1071938,-0.09962185,11.5304,-16.90593,20.6081,1008.157
11.975828171,-1.168238,0.5690334,-0.31609,-0.9979273,0.1062577,-0.09189634,11.5304,-16.90593,20.6081,1008.161
12.008108616,-1.292185,0.8625473,-0.31609,-0.998416,0.106235,-0.09818012,11.52908,-16.1769,20.59887,1008.159
12.042871952,-2.841527,0.7451417,-0.3770308,-0.9974462,0.1052715,-0.09770425,11.89252,-16.5454,20.59797,1008.159
12.075151443,-2.469685,1.038656,-0.3770308,-0.9974474,0.1106422,-0.08365399,11.89252,-16.5454,20.59797,1008.159
12.107431412,-2.22179,1.566981,-0.8036157,-1.003241,0.09893601,-0.1059463,11.54107,-16.17126,21.0346,1008.159
12.142195225,-2.283764,1.273467,-0.4379715,-0.9984177,0.1057396,-0.101567,11.8912,-15.81637,20.58874,1008.159
12.174475193,-4.204947,1.860494,-0.5598529,-0.9950253,0.1062692,-0.09093565,11.8912,-15.81637,20.58874,1008.159
12.209238052,-7.79942,3.210658,-1.16926,-0.9930984,0.1077102,-0.095766,10.7922,-16.53907,20.17879,1008.16
12.241518020,-10.09245,3.03455,-1.291141,-1.005638,0.09510519,-0.09194314,11.52908,-16.1769,20.59887,1008.16
12.276281833,-1.973896,3.562875,-0.4989121,-1.006124,0.09215927,-0.1040448,11.52908,-16.1769,20.59887,1008.158
12.308561802,-0.7344223,3.151955,-0.9864379,-0.9979562,0.1095583,-0.1174998,11.52908,-16.1769,20.59887,1008.157
12.340841770,-2.407711,2.858442,-1.108319,-1.006615,0.09603588,-0.1020879,10.80353,-16.16892,20.6099,1008.153
12.375604629,0.1951826,1.860494,-0.6207936,-0.9979349,0.1008509,-0.1165824,11.1663,-16.17291,20.60439,1008.152
12.407885074,2.17834,0.5690334,-0.07232723,-1.005173,0.08818742,-0.1345261,11.1663,-16.17291,20.60439,1008.152
12.442648411,2.983997,-1.19205,0.293317,-0.998924,0.1075986,-0.1237935,11.54107,-16.17126,21.0346,1008.15
12.474928379,1.558603,-1.309456,0.1714356,-0.993093,0.1023575,-0.1044983,11.17763,-15.80276,21.0355,1008.154
12.507208824,1.930445,-0.9572388,-0.07232723,-0.9993743,0.09845004,-0.1098249,11.17763,-15.80276,21.0355,1008.152
12.541972160,1.434656,-1.485564,-0.2551494,-1.001332,0.1081214,-0.1102491,11.1663,-16.17291,20.60439,1008.15
12.574251652,1.806498,-1.661672,-0.4379715,-0.996955,0.0984635,-0.1078962,11.1663,-16.17291,20.60439,1008.15
12.609014988,0.8149192,-1.309456,-0.9254971,-0.9984261,0.1086366,-0.1034843,11.1663,-16.17291,20.60439,1008.149
12.641295433,1.186761,-1.250753,-1.047378,-0.9954938,0.09313625,-0.1103469,11.17829,-16.16727,21.04012,1008.151
12.676058769,0.1951826,-1.133347,-1.108319,-0.9983954,0.09263748,-0.1122772,11.52974,-16.54141,20.60349,1008.149
12.708338261,0.4430773,-1.779078,-1.047378,-0.9974642,0.1086181,-0.1097711,11.52974,-16.54141,20.60349,1008.149
12.740619183,-3.461263,-2.072592,-1.473963,-1.001319,0.1047536,-0.104467,11.52842,-15.81238,20.59426,1008.149
12.775382042,-4.081,-2.953134,-1.047378,-1.002252,0.08974414,-0.1060006,11.52974,-16.54141,20.60349,1008.146
12.807662010,-0.9203433,-2.718323,-0.5598529,-1.002743,0.09655216,-0.09580866,11.52974,-16.54141,20.60349,1008.146
12.842425346,-1.106264,-1.955186,-1.534904,-0.9945139,0.09807821,-0.08083112,11.89186,-16.18089,20.59336,1008.144
12.874705791,0.3811036,-1.602969,-1.413023,-0.9998522,0.09847159,-0.1030556,11.50511,-16.18817,19.72742,1008.144
12.909468651,1.310709,-2.013889,-0.9254971,-1.002229,0.08152882,-0.1026633,11.50511,-16.18817,19.72742,1008.144
12.941748619,3.417813,-2.072592,-0.742675,-0.9969352,0.09903425,-0.08227077,11.51644,-15.81802,20.15853,1008.144
12.974029064,0.8149192,-1.368158,-0.6817343,-1.000307,0.09125879,-0.08907586,11.52974,-16.54141,20.60349,1008.144
13.008792400,1.310709,-1.426861,-0.3770308,-1.005145,0.08977024,-0.09584204,11.52974,-16.54141,20.60349,1008.148
13.041072369,-0.796396,-2.072592,-0.5598529,-0.9983953,0.0980131,-0.09677659,11.52974,-16.54141,20.60349,1008.146
13.075835228,0.4430773,-1.426861,-0.4989121,-1.003678,0.08788782,-0.08135274,11.8912,-15.81637,20.58874,1008.145
13.108115673,0.6909719,-1.133347,-0.5598529,-1.001743,0.08593962,-0.08668581,11.8912,-15.81637,20.58874,1008.145
13.142879009,0.3191299,-0.9572388,-0.4989121,-0.9993411,0.09321201,-0.0847159,11.52842,-15.81238,20.59426,1008.147
13.175158978,-0.1766593,-0.9572388,-0.9864379,-1.001275,0.09125274,-0.09004069,11.51644,-15.81802,20.15853,1008.149
13.207439422,0.3191299,-0.2528055,-1.047378,-1.003201,0.08981508,-0.08424345,11.51644,-15.81802,20.15853,1008.149
13.242202759,1.062814,-0.4876166,-1.16926,-0.9998155,0.0893392,-0.08473689,11.86789,-16.19215,19.7219,1008.147
13.274482250,0.9388666,-0.2528055,-1.473963,-1.001275,0.09369696,-0.08277521,11.52842,-15.81238,20.59426,1008.147
13.309245586,0.07123531,-0.07669719,-1.473963,-1.002731,0.09318104,-0.09099346,11.8912,-15.81637,20.58874,1008.151
13.341526031,-1.106264,-0.4289138,-1.534904,-1.004642,0.08350021,-0.09007752,11.8912,-15.81637,20.58874,1008.151
13.376289368,-0.6724486,-1.309456,-1.656785,-1.006108,0.08929666,-0.09197515,11.52842,-15.81238,20.59426,1008.151
13.408568859,-1.973896,-1.602969,-1.291141,-0.9998011,0.0820688,-0.08816233,11.50379,-15.45914,19.71819,1008.151
13.440849781,0.6289983,-1.074644,-0.9864379,-1.001245,0.08258299,-0.07800408,11.50379,-15.45914,19.71819,1008.151
13.475612640,-1.106264,-0.9572388,-1.352082,-1.005148,0.09366461,-0.08905175,10.7789,-15.81567,19.73384,1008.151
13.507892609,-0.1146857,-1.779078,-0.9864379,-1.0099,0.06174425,-0.07955423,11.86789,-16.19215,19.7219,1008.155
13.542655945,2.240314,-2.2487,0.04955418,-1.003195,0.08690987,-0.08474343,11.86789,-16.19215,19.7219,1008.153
13.574936390,0.1951826,-1.896483,-0.31609,-1.004185,0.09511916,-0.08904555,11.8912,-15.81637,20.58874,1008.153
13.607215881,0.7529456,-1.426861,-0.31609,-1.007039,0.08113427,-0.07219856,11.87921,-15.822,20.15302,1008.153
13.641979217,-0.05271201,-1.015942,-0.3770308,-1.001255,0.08840322,-0.07410346,11.87921,-15.822,20.15302,1008.153
13.674259663,-0.238633,-0.6050222,-0.1942087,-0.9973829,0.08305503,-0.08477787,11.5171,-16.18253,20.16315,1008.153
13.709022999,-2.531658,-0.4876166,-0.6207936,-1.011887,0.08693249,-0.07070484,11.87789,-15.09297,20.14378,1008.155
13.741302967,-0.796396,0.04070837,-0.9254971,-1.005573,0.07582503,-0.06933128,11.87789,-15.09297,20.14378,1008.159
13.776065826,-1.664027,1.273467,-0.742675,-1.002197,0.08263919,-0.06059792,12.24199,-15.82599,20.1475,1008.158
13.808346271,-0.796396,1.214764,-0.742675,-0.9978636,0.08355395,-0.0799396,12.23066,-16.19614,19.71639,1008.158
13.840626240,-2.593632,0.6864389,-0.9254971,-1.001255,0.08449576,-0.08476133,12.23066,-16.19614,19.71639,1008.156
13.875389576,-4.700737,0.3342223,-0.9254971,-1.00509,0.07484709,-0.07272195,11.51577,-15.4535,20.15391,1008.154
13.907670021,-2.407711,-0.07669719,0.1104949,-1.010393,0.06268452,-0.08728284,11.87855,-15.45749,20.1484,1008.154
13.942432880,-0.4865277,0.4516278,0.1104949,-1.005118,0.08695021,-0.07120275,11.87855,-15.45749,20.1484,1008.153
13.974712849,-0.8583696,0.8625473,-0.3770308,-1.003167,0.07725096,-0.07899713,11.84259,-15.47439,18.84122,1008.153
14.009476185,-1.726001,0.8038445,-0.8036157,-1.003172,0.08016108,-0.07704682,11.14035,-15.09063,19.71909,1008.153
14.041756630,-1.416133,1.273467,-0.3770308,-1.007997,0.07188444,-0.08771913,11.14035,-15.09063,19.71909,1008.157
14.074036598,-0.238633,0.5103306,-0.31609,-0.9983521,0.08646435,-0.07750481,11.50379,-15.45914,19.71819,1008.155
14.108799458,-2.345737,1.390872,-0.6207936,-1.002189,0.07485702,-0.0722447,11.51577,-15.4535,20.15391,1008.153
14.141079903,0.07123531,1.508278,-0.5598529,-1.005085,0.07047207,-0.0785481,11.51577,-15.4535,20.15391,1008.153
14.175843239,0.3191299,1.566981,-0.4989121,-1.003179,0.08013324,-0.08526543,11.8659,-15.09861,19.70806,1008.151
14.208123207,-1.168238,1.684386,-0.4989121,-1.000265,0.07775138,-0.07658335,11.87921,-15.822,20.15302,1008.15
14.242886066,-0.5485013,1.508278,-0.31609,-1.003169,0.07528904,-0.0867433,12.21736,-15.47275,19.27143,1008.154
14.275166988,-0.9203433,0.8038445,0.04955418,-1.006073,0.07429323,-0.09254397,12.21736,-15.47275,19.27143,1008.152
14.307446480,-1.230212,-0.07669719,0.1714356,-1.004631,0.08110023,-0.08428992,11.50379,-15.45914,19.71819,1008.152
14.342209816,-1.54008,0.2755195,0.2323763,-1.008952,0.06997872,-0.07805914,11.87789,-15.09297,20.14378,1008.15
14.374490261,-0.424554,1.273467,0.293317,-1.002671,0.07437334,-0.07176298,11.87789,-15.09297,20.14378,1008.15
14.409253597,-1.106264,1.508278,0.1104949,-1.001731,0.07524078,-0.1022167,11.85392,-15.10424,19.27233,1008.154
14.441533089,-2.345737,0.6277362,-0.07232723,-1.006544,0.0709191,-0.08821119,12.22868,-15.1026,19.70254,1008.154
14.476296902,-2.097843,0.9799528,0.3542577,-1.004626,0.08014547,-0.08042785,12.22868,-15.1026,19.70254,1008.153
14.508576870,0.2571563,1.214764,0.3542577,-1.005103,0.07283765,-0.09448809,12.22934,-15.46711,19.70716,1008.153
14.540857315,0.5670246,0.7451417,0.293317,-0.9973884,0.08498748,-0.08573374,11.86789,-16.19215,19.7219,1008.153
14.575620651,0.3191299,1.156061,0.1104949,-1.011872,0.07624348,-0.08333505,11.86789,-16.19215,19.7219,1008.158
14.607900619,2.17834,0.8038445,0.293317,-0.9968941,0.07574835,-0.09932362,11.14035,-15.09063,19.71909,1008.158
14.642663479,0.3191299,0.6864389,0.5980205,-1.0027,0.07767075,-0.0983333,11.50445,-15.82365,19.72281,1008.157
14.674943924,1.124788,0.5103306,0.4151984,-0.9998011,0.0820688,-0.08816233,11.50445,-15.82365,19.72281,1008.157
14.707223892,-0.3625803,0.2755195,0.5370798,-1.004622,0.07625111,-0.08721814,12.24067,-15.09696,20.13827,1008.157
14.741987228,-0.1766593,0.8038445,0.4761391,-0.9978519,0.07676095,-0.08529608,11.50247,-14.7301,19.70896,1008.155
14.774267673,-0.238633,1.273467,0.4761391,-1.00173,0.08208621,-0.08138993,11.50247,-14.7301,19.70896,1008.155
14.809031010,3.417813,1.156061,0.5370798,-1.0022,0.07236857,-0.09256326,11.51511,-15.08898,20.1493,1008.159
14.841310501,3.417813,0.8038445,0.3542577,-1.005619,0.08491975,-0.09876923,11.87855,-15.45749,20.1484,1008.159
14.876073837,1.496629,0.04070837,0.6589612,-1.000288,0.07667869,-0.1075295,11.87855,-15.45749,20.1484,1008.157
14.908354282,1.496629,0.4516278,0.5980205,-1.00174,0.0835085,-0.09008373,11.51511,-15.08898,20.1493,1008.156
14.940634251,0.8768929,0.1581139,0.3542577,-1.000295,0.0844674,-0.09394889,11.87921,-15.822,20.15302,1008.156
14.975397110,-0.4865277,0.2168167,0.293317,-1.006565,0.07865212,-0.09106781,11.87921,-15.822,20.15302,1008.152
15.007678032,0.8149192,0.2168167,0.8417833,-1.00077,0.08059459,-0.09396989,11.89186,-16.18089,20.59336,1008.152
15.042440891,0.505051,0.1581139,0.6589612,-1.005614,0.08347615,-0.09636026,11.54041,-15.80675,21.02999,1008.156
15.074720860,1.00084,0.1581139,0.5980205,-1.003192,0.08350107,-0.09104751,11.54041,-15.80675,21.02999,1008.154
15.109484673,-0.7344223,0.4516278,0.04955418,-1.004161,0.08299965,-0.09539922,11.87789,-15.09297,20.14378,1008.153
15.141764641,0.3811036,0.3342223,0.5370798,-1.004624,0.07477804,-0.09351122,11.52776,-15.44787,20.58964,1008.157
15.174044132,0.3191299,0.5103306,0.5980205,-1.005597,0.07768212,-0.09252573,11.52776,-15.44787,20.58964,1008.157
15.208808422,0.6289983,0.3929251,0.5980205,-0.9998124,0.0844655,-0.09491682,11.87855,-15.45749,20.1484,1008.157
15.241087913,0.6909719,0.2755195,0.5980205,-1.005613,0.08103522,-0.1026588,11.15366,-15.81403,20.16405,1008.155
15.275851250,0.4430773,-0.1354,1.024606,-1.006571,0.08009407,-0.09396023,11.50445,-15.82365,19.72281,1008.155
15.308131695,2.054393,-0.4876166,1.268368,-1.000775,0.0805733,-0.1002547,11.50445,-15.82365,19.72281,1008.155
15.342895031,-0.9823169,-0.07669719,0.9636648,-1.003192,0.08496433,-0.08765511,11.15366,-15.81403,20.16405,1008.155
15.375174522,-0.05271201,0.3342223,1.268368,-1.002686,0.07675368,-0.08335195,11.5171,-16.18253,20.16315,1008.155
15.407455444,0.1951826,0.9799528,1.207428,-0.9983849,0.09610196,-0.08953591,11.5171,-16.18253,20.16315,1008.159
15.442218304,-0.7344223,1.038656,0.4151984,-1.002227,0.08349237,-0.09443371,11.52776,-15.44787,20.58964,1008.157
15.474498272,1.310709,0.2755195,0.7808427,-1.00224,0.08343831,-0.1103875,12.25463,-16.18488,20.58784,1008.157
15.509261608,-0.5485013,0.2168167,0.4761391,-0.9998218,0.08931299,-0.09247204,12.25463,-16.18488,20.58784,1008.157
15.541542053,1.496629,0.6864389,0.5370798,-1.006083,0.07913743,-0.09106609,11.86723,-15.82764,19.71729,1008.157
15.576304912,1.868472,0.3929251,0.4151984,-0.9969332,0.09415565,-0.09390105,11.8912,-15.81637,20.58874,1008.157
15.608584881,0.009261653,0.3342223,0.04955418,-0.9997906,0.07527087,-0.09496915,11.8912,-15.81637,20.58874,1008.156
15.640865326,2.983997,0.6864389,0.5370798,-0.999806,0.07960492,-0.1012292,11.8912,-15.81637,20.58874,1008.157
15.675628662,0.8149192,1.038656,-0.2551494,-0.99646,0.09802355,-0.09533039,11.54041,-15.80675,21.02999,1008.158
15.707909107,0.9388666,1.097358,-0.6817343,-1.003202,0.08247917,-0.1070068,11.54041,-15.80675,21.02999,1008.158
15.742672443,0.6289983,0.9799528,-0.3770308,-0.9988582,0.08685843,-0.1036072,11.54107,-16.17126,21.0346,1008.158
15.774951935,0.1951826,0.8038445,-0.01138653,-1.002689,0.07234262,-0.09981394,11.87921,-15.822,20.15302,1008.156
15.807232380,2.116366,0.5690334,0.2323763,-1.001747,0.08299346,-0.09927197,11.87921,-15.822,20.15302,1008.156
15.841995716,-1.726001,0.7451417,-0.5598529,-0.993084,0.1004398,-0.09919144,11.51644,-15.81802,20.15853,1008.154
15.874275684,-1.54008,1.390872,-0.8645564,-0.9993342,0.08737702,-0.09296753,11.91583,-16.16962,21.46481,1008.154
15.909038544,-4.452842,1.625683,-0.3770308,-1.001263,0.08104274,-0.1041185,11.91583,-16.16962,21.46481,1008.154
15.941319466,-6.064157,0.4516278,1.207428,-1.007508,0.06164797,-0.1100166,11.87855,-15.45749,20.1484,1008.154
15.976082325,-0.9203433,1.684386,0.5980205,-0.9969419,0.1029155,-0.07934806,11.8912,-15.81637,20.58874,1008.159
16.008362293,-3.337316,3.915092,-0.1942087,-0.9993249,0.08399443,-0.09153648,11.8912,-15.81637,20.58874,1008.16
16.040642738,-0.6104749,5.676175,-0.1942087,-1.001778,0.09068061,-0.1156651,11.90384,-16.17525,21.02909,1008.16
16.075406075,-5.072579,5.500067,-0.9254971,-0.998897,0.0994029,-0.1146548,11.1663,-16.17291,20.60439,1008.16
16.107685566,-5.196526,3.973794,-1.534904,-1.013913,0.09827261,-0.1499199,11.1663,-16.17291,20.60439,1008.159
16.174729347,-9.410735,-0.7224277,-1.047378,-1.022092,0.08033884,-0.1514546,11.1663,-16.17291,20.60439,1008.159
16.209492683,-11.45587,-2.307403,0.5980205,-0.9810215,0.1140489,-0.09188847,11.52842,-15.81238,20.59426,1008.159
16.241773128,-6.002184,-1.309456,-0.07232723,-0.9925322,0.06749469,-0.1109825,11.52842,-15.81238,20.59426,1008.159
16.274053097,-7.241657,-0.663725,-0.8036157,-1.012912,0.1096563,-0.07589125,11.50445,-15.82365,19.72281,1008.161
16.308815956,-11.39389,3.797686,-2.02243,-0.991646,0.1067448,-0.09625806,11.87855,-15.45749,20.1484,1008.159
16.341096401,-9.658629,6.028392,-2.631837,-0.9789973,0.08022038,-0.07999922,11.87855,-15.45749,20.1484,1008.159
16.375859737,-4.204947,11.42905,-1.230201,-1.013845,0.08047373,-0.1185978,11.50445,-15.82365,19.72281,1008.157
16.408139706,-5.444421,8.552611,-2.327133,-1.004716,0.09443237,-0.1485113,11.50445,-15.82365,19.72281,1008.157
16.442903519,-7.551525,6.145797,-0.31609,-0.988625,0.04078976,-0.1406325,11.50445,-15.82365,19.72281,1008.156
16.475183487,2.116366,4.619525,2.609064,-1.000341,0.08525508,-0.1471226,11.51511,-15.08898,20.1493,1008.156
16.507462978,-1.849948,2.975847,1.146487,-1.006219,0.1166906,-0.147898,11.86656,-15.46312,19.71267,1008.152
16.542226791,-4.266921,2.506225,-0.01138653,-0.9934987,0.06602867,-0.1143728,11.86656,-15.46312,19.71267,1008.157
16.574506760,1.248735,3.269361,0.293317,-0.9983981,0.08431896,-0.1393971,11.87855,-15.45749,20.1484,1008.157
16.609270096,-0.8583696,2.036603,0.2323763,-0.9863688,0.1031661,-0.157203,11.89054,-15.45185,20.58413,1008.157
16.641550541,-0.9203433,0.5103306,-0.8036157,-1.001791,0.08720794,-0.1408236,11.89054,-15.45185,20.58413,1008.155
16.673830509,1.620577,-0.4289138,-0.07232723,-0.9983719,0.07172208,-0.1438197,11.87921,-15.822,20.15302,1008.153
16.708593368,3.169918,-0.8985361,1.39025,-1.007591,0.0793846,-0.1597097,11.51644,-15.81802,20.15853,1008.151
16.740873814,1.930445,-2.542214,1.512131,-0.9902173,0.09786133,-0.148523,11.51644,-15.81802,20.15853,1008.151
16.775637150,1.620577,-3.481458,1.634013,-0.9969562,0.0896627,-0.1345354,11.15366,-15.81403,20.16405,1008.153
16.807917595,4.90518,-2.718323,1.999657,-0.9920985,0.07999468,-0.1355677,11.50379,-15.45914,19.71819,1008.157
16.842680931,5.40097,-2.366106,1.694953,-1.006157,0.09593242,-0.1330296,11.50379,-15.45914,19.71819,1008.155
16.874960422,1.806498,-1.837781,0.2323763,-0.9897463,0.1095392,-0.130087,11.16432,-15.07936,20.59054,1008.154
16.907241344,-0.796396,-0.9572388,-0.8036157,-1.000371,0.1032096,-0.1325172,12.25397,-15.82036,20.58323,1008.154
16.942004204,0.1951826,-0.0179944,-0.9254971,-1.005138,0.07562821,-0.1278294,12.25397,-15.82036,20.58323,1008.154
16.974284172,3.231892,-0.3115083,0.6589612,-0.9993509,0.07606812,-0.1457266,10.79154,-16.17455,20.17418,1008.154
17.009047508,3.479787,-1.779078,-0.4379715,-0.99458,0.1070894,-0.1349249,11.15366,-15.81403,20.16405,1008.158
17.041327953,0.2571563,-1.250753,-1.595845,-0.9959705,0.09267388,-0.1035803,11.15366,-15.81403,20.16405,1008.158
17.076090813,1.248735,1.156061,-0.6207936,-0.9964313,0.07761829,-0.119135,11.50445,-15.82365,19.72281,1008.158
17.108371735,3.727681,0.5103306,0.1104949,-0.9892439,0.09349237,-0.1533843,11.51644,-15.81802,20.15853,1008.158
17.140651226,0.8768929,-1.426861,-1.108319,-0.9921389,0.09302144,-0.1470961,10.80221,-15.43989,20.60067,1008.158
17.175414562,2.116366,-1.426861,-1.230201,-1.003201,0.07857662,-0.1162143,10.80221,-15.43989,20.60067,1008.156
17.207695007,2.426234,0.3929251,-1.291141,-0.9998632,0.09500547,-0.1262803,11.52644,-14.71883,20.58041,1008.158
17.242458343,-2.22179,-0.8985361,-2.692777,-1.003792,0.1098946,-0.1561604,11.52908,-16.1769,20.59887,1008.16
17.274737835,-8.852972,-1.779078,-4.520999,-1.002277,0.09843682,-0.111269,11.52908,-16.1769,20.59887,1008.16
17.309501171,-7.985341,-1.250753,-5.43511,-1.003707,0.08336701,-0.1302057,11.88921,-14.72282,20.57489,1008.16
17.341781616,-8.976919,-0.1354,-4.460058,-0.9891114,0.04908396,-0.1202799,12.25331,-15.45584,20.57861,1008.158
17.374061584,-6.869815,0.5103306,-3.78971,-1.000802,0.08437102,-0.1219878,12.25331,-15.45584,20.57861,1008.157
17.408825397,-4.886658,-0.7811305,-4.155354,-1.001761,0.07364811,-0.1438014,10.79022,-15.44552,20.16495,1008.161
17.441105366,-5.134552,-0.4876166,-3.972533,-1.006069,0.06551044,-0.1138652,11.49114,-15.10025,19.27784,1008.161
17.475868225,-1.602054,0.09941114,-4.033473,-0.9916126,0.08196126,-0.1268557,11.49114,-15.10025,19.27784,1008.161
17.508148670,-3.151395,-0.6050222,-4.399117,-0.9988838,0.08235402,-0.1476257,11.8659,-15.09861,19.70806,1008.161
17.542912006,-3.647184,-0.6050222,-4.338177,-0.9924698,0.04234188,-0.1077416,11.51379,-14.35995,20.14007,1008.161
17.575191975,-0.3625803,-0.2528055,-2.8756,-1.000298,0.07468073,-0.1259115,11.51379,-14.35995,20.14007,1008.165
17.607472420,-1.044291,-0.0179944,-4.094414,-1.005648,0.08724274,-0.1272788,11.49048,-14.73574,19.27323,1008.166
17.642235756,-3.027448,0.2168167,-4.155354,-1.006997,0.05101112,-0.107661,11.8526,-14.37521,19.2631,1008.166
17.674516201,2.674129,1.743089,-2.692777,-1.006015,0.0334827,-0.1401531,11.8526,-14.37521,19.2631,1008.166
17.709279060,3.479787,0.3929251,-3.485007,-0.9964342,0.07565145,-0.1283315,11.85392,-15.10424,19.27233,1008.168
17.741559029,-0.05271201,-0.07669719,-4.033473,-1.001165,0.03941997,-0.1058057,11.47849,-14.74137,18.8375,1008.166
17.773839474,5.896759,0.3929251,-2.814659,-1.008429,0.03153517,-0.1416093,11.47849,-14.74137,18.8375,1008.168
17.808602810,4.843207,-1.955186,-2.388074,-1.008973,0.05718527,-0.1404954,11.86458,-14.36958,19.69883,1008.168
17.840882778,1.372682,-3.481458,-1.534904,-1.006008,0.03449151,-0.1280614,11.5018,-14.36559,19.70434,1008.166
17.875646591,7.26018,-2.718323,-0.8036157,-1.001667,0.04325398,-0.1164184,11.5018,-14.36559,19.70434,1008.169
17.907926083,6.826364,-2.600917,-1.047378,-1.005095,0.05918937,-0.123572,11.49048,-14.73574,19.27323,1008.169
17.942689419,-0.3625803,-2.777025,-1.230201,-1.004081,0.04081924,-0.1188443,11.50114,-14.00107,19.69972,1008.167
17.974969864,1.062814,-2.366106,-0.07232723,-1.004554,0.04086208,-0.1057902,11.50114,-14.00107,19.69972,1008.167
18.007249832,4.037549,-1.955186,-0.3770308,-1.0012,0.05198246,-0.1115354,11.8526,-14.37521,19.2631,1008.167
18.042012692,7.817943,-3.187945,-0.6817343,-1.002157,0.04224707,-0.1275422,11.87723,-14.72846,20.13917,1008.169
18.074293613,3.975576,-2.483511,-0.07232723,-0.9982585,0.03456441,-0.1130911,11.51379,-14.35995,20.14007,1008.169
18.109056473,1.744524,-1.544267,0.4151984,-1.002596,0.03852332,-0.08356952,11.51379,-14.35995,20.14007,1008.169
18.141336918,1.062814,-0.3702111,-0.1332679,-1.002671,0.05824481,-0.1187482,11.51445,-14.72447,20.14468,1008.169
18.176100254,0.8768929,-0.7224277,-0.1942087,-1.013269,0.03883433,-0.1256039,11.51313,-13.99544,20.13545,1008.169
18.208380222,6.08268,-1.602969,0.5980205,-1.006469,0.03360254,-0.104377,11.51313,-13.99544,20.13545,1008.168
18.240660667,11.72228,-2.424809,1.085546,-0.9982852,0.0403175,-0.1290118,12.2267,-14.00905,19.68869,1008.166
18.275424003,6.578469,-2.894431,-0.31609,-1.006053,0.0660648,-0.09307423,11.87657,-14.36394,20.13455,1008.164
18.307703495,8.065837,-2.542214,-0.5598529,-0.9996377,0.02410549,-0.0565853,11.87657,-14.36394,20.13455,1008.164
18.342467308,3.107945,0.04070837,-1.352082,-1.001624,0.03756806,-0.08067641,12.22802,-14.73808,19.69793,1008.168
18.374747276,2.86005,0.09941114,-0.1332679,-1.005979,0.03070035,-0.1043946,11.87723,-14.72846,20.13917,1008.166
18.409510612,3.169918,-0.4289138,-0.2551494,-1.004573,0.04762234,-0.1101026,11.87723,-14.72846,20.13917,1008.165
18.441791057,-1.911922,0.3342223,-0.8645564,-0.9987627,0.04816053,-0.09899302,11.8759,-13.99943,20.12994,1008.167
18.474071026,-1.973896,1.038656,-1.16926,-0.9992048,0.03367078,-0.09037256,11.87657,-14.36394,20.13455,1008.165
18.508833885,1.00084,1.097358,-1.108319,-1.008411,0.03405309,-0.1125887,11.87657,-14.36394,20.13455,1008.165
18.541114330,2.983997,0.2168167,-0.6207936,-1.005976,0.02924692,-0.1048863,11.8759,-13.99943,20.12994,1008.164
18.575877666,2.612155,0.6864389,0.1104949,-1.012342,0.05577459,-0.1255096,11.88789,-13.99379,20.56566,1008.164
18.608158111,1.992419,0.2755195,-0.4989121,-0.9934731,0.05147478,-0.1250913,11.88789,-13.99379,20.56566,1008.162
18.642921448,-0.3006067,-1.661672,-0.01138653,-1.009833,0.02097632,-0.1145938,11.5271,-15.08335,20.58502,1008.162
18.675200939,4.037549,-2.189997,1.634013,-1.011291,0.02436295,-0.1136045,11.88921,-14.72282,20.57489,1008.162
18.707481861,3.355839,-1.426861,0.7199019,-1.003092,0.04384187,-0.08450508,11.88921,-14.72282,20.57489,1008.164
18.742244720,2.983997,1.390872,0.1714356,-0.995336,0.03417232,-0.08844429,11.86458,-14.36958,19.69883,1008.161
18.774525166,5.215049,2.095305,0.1104949,-1.005518,0.0364712,-0.1154818,12.60278,-14.73643,20.12814,1008.159
18.809288502,1.062814,2.271414,-1.230201,-0.9997711,0.0621573,-0.1090635,12.60278,-14.73643,20.12814,1008.157
18.841568470,-1.230212,1.156061,-1.717726,-1.002091,0.02150694,-0.1073559,12.25133,-14.3623,20.56476,1008.157
18.873848915,0.1951826,0.8625473,-0.8645564,-1.003051,0.0181134,-0.10834,12.25199,-14.72681,20.56938,1008.154
18.908611774,-0.5485013,0.2168167,0.4761391,-1.006955,0.02968222,-0.118418,12.25199,-14.72681,20.56938,1008.154
18.940891743,-4.266921,0.6864389,-0.6817343,-0.9891511,0.06553425,-0.1211531,11.88921,-14.72282,20.57489,1008.152
18.975655556,-9.162841,1.743089,-2.02243,-1.0161,0.0225035,-0.08701557,11.90054,-14.35267,21.00601,1008.158
19.007935524,7.322154,1.9779,-0.742675,-1.015635,0.01216548,-0.1392867,11.89987,-13.98816,21.00139,1008.158
19.042698860,-1.292185,0.4516278,-0.4379715,-1.008471,0.05921737,-0.1124455,11.89987,-13.98816,21.00139,1008.157
19.074979305,1.372682,0.3929251,-0.1332679,-1.007853,0.002602393,-0.1118019,11.88789,-13.99379,20.56566,1008.155
19.107258797,1.558603,0.1581139,0.8417833,-1.009867,0.03598466,-0.1125746,11.88855,-14.35831,20.57028,1008.153
19.142022610,2.17834,-1.309456,1.39025,-1.004047,0.02434273,-0.1257062,11.88855,-14.35831,20.57028,1008.153
19.174302578,3.603734,-1.779078,0.7199019,-1.000723,0.05244648,-0.1178185,11.88855,-14.35831,20.57028,1008.153
19.209065914,-1.230212,-1.133347,-0.07232723,-1.002101,0.03026188,-0.0942532,12.25133,-14.3623,20.56476,1008.151
19.241346359,1.372682,-0.07669719,-0.31609,-1.002597,0.0346093,-0.09616118,12.25133,-14.3623,20.56476,1008.151
19.276109695,-1.911922,0.4516278,-0.9864379,-0.9968161,0.03990979,-0.107746,11.87657,-14.36394,20.13455,1008.154
19.308390140,-1.478106,0.9799528,-0.8645564,-1.005003,0.0219449,-0.1184662,11.91186,-13.98252,21.43712,1008.152
19.340669632,-0.7344223,0.6864389,-0.5598529,-1.002125,0.03651527,-0.1053367,11.91186,-13.98252,21.43712,1008.152
19.375432968,-0.3625803,0.92125,-0.1332679,-1.000172,0.02487048,-0.1160428,12.25067,-13.99778,20.56015,1008.152
19.407713413,-1.168238,0.92125,0.1714356,-1.002601,0.03312639,-0.1053549,12.62543,-13.99613,20.99036,1008.152
19.442476749,-0.424554,1.566981,0.04955418,-1.001655,0.04036843,-0.1111171,12.62543,-13.99613,20.99036,1008.152
19.474756718,-1.726001,1.390872,-0.6817343,-1.010348,0.03452494,-0.1145156,12.25133,-14.3623,20.56476,1008.152
19.509520531,-1.044291,1.743089,-1.047378,-1.004547,0.03111471,-0.12615,12.2753,-14.35103,21.43622,1008.156
19.541800022,-0.3006067,0.92125,-1.108319,-1.004568,0.04129032,-0.1222246,12.2753,-14.35103,21.43622,1008.156
19.574080944,-1.416133,0.92125,-1.108319,-1.00403,0.02197223,-0.1112165,11.88921,-14.72282,20.57489,1008.154
19.608843803,-0.8583696,0.8038445,-0.4379715,-1.001647,0.03405279,-0.1184046,12.26331,-14.35666,21.00049,1008.154
19.641123772,-1.230212,-0.0179944,-0.8645564,-1.001632,0.02580471,-0.1247362,12.26331,-14.35666,21.00049,1008.153
19.675887585,0.7529456,-0.1941027,-0.31609,-1.005973,0.02339392,-0.1184558,12.26265,-13.99215,20.99587,1008.151
19.708167553,-0.1146857,-0.07669719,-0.6207936,-1.001657,0.03987303,-0.1145039,12.25133,-14.3623,20.56476,1008.151
19.742930412,-1.849948,0.04070837,-1.291141,-1.002603,0.02871862,-0.12085,12.25133,-14.3623,20.56476,1008.149
19.775210857,-1.416133,0.1581139,-1.047378,-1.000645,0.0175856,-0.1233348,12.25199,-14.72681,20.56938,1008.147
19.807490826,1.186761,-0.2528055,-0.1942087,-1.00596,0.01660909,-0.1213951,12.23868,-14.00341,20.12442,1008.15
19.842254639,1.496629,-0.663725,0.293317,-1.002627,0.04034601,-0.1169164,12.97622,-14.00576,20.54911,1008.148
19.874534607,0.009261653,-0.9572388,0.04955418,-1.000178,0.02484755,-0.122811,12.97622,-14.00576,20.54911,1008.148
19.909297943,0.07123531,-0.7224277,0.293317,-1.00934,0.01661579,-0.1165534,11.89921,-13.62364,20.99677,1008.148
19.941578388,-0.05271201,-0.4876166,0.293317,-1.005513,0.03698297,-0.1072605,11.89921,-13.62364,20.99677,1008.146
19.973857880,-2.779553,0.3929251,-0.742675,-1.003111,0.04181115,-0.112556,11.89921,-13.62364,20.99677,1008.146
20.008621693,-4.390869,1.33217,-1.291141,-1.009337,0.0200508,-0.1025141,11.8759,-13.99943,20.12994,1008.146
20.040901661,-1.230212,1.566981,-1.047378,-1.004046,0.02434929,-0.1237724,12.6141,-14.36628,20.55925,1008.146
20.075664997,-0.8583696,0.6864389,-0.6817343,-1.011296,0.02287512,-0.1242486,12.6141,-14.36628,20.55925,1008.146
20.107945442,-0.7344223,-0.1354,0.1714356,-1.010297,0.009816735,-0.1228747,11.87657,-14.36394,20.13455,1008.152
20.142708778,1.558603,-0.8985361,1.085546,-1.006476,0.03015607,-0.1218004,12.23934,-14.36793,20.12904,1008.15
20.174989224,1.434656,-1.602969,1.207428,-1.007903,0.02291756,-0.1145869,12.23934,-14.36793,20.12904,1008.15
20.207268715,3.975576,-1.602969,1.146487,-1.003064,0.02343661,-0.1083097,11.87657,-14.36394,20.13455,1008.149
20.242032051,7.570048,-1.955186,1.329309,-1.005473,0.0146682,-0.1233409,12.25067,-13.99778,20.56015,1008.149
20.274312496,6.392549,-2.424809,1.755894,-1.005996,0.03307249,-0.1184008,12.25067,-13.99778,20.56015,1008.149
20.309075832,5.772812,-2.2487,1.755894,-1.004991,0.02346057,-0.09960347,11.9012,-14.71719,21.01062,1008.147
20.341356277,8.809522,-1.368158,1.634013,-1.007443,0.03112935,-0.1193756,12.23934,-14.36793,20.12904,1008.151
20.376119614,4.781233,-0.8398333,0.5980205,-0.99974,0.05202428,-0.1004193,12.23934,-14.36793,20.12904,1008.151
20.408399105,0.2571563,0.2755195,-0.9254971,-0.9977943,0.04377026,-0.1101392,11.88921,-14.72282,20.57489,1008.151
20.440680027,-1.602054,0.6277362,-1.595845,-1.006463,0.02776591,-0.1131121,12.60212,-14.37192,20.12352,1008.151
20.475442886,-0.1766593,-0.6050222,-1.230201,-1.007871,0.0113213,-0.1093351,12.60212,-14.37192,20.12352,1008.151
20.507723331,1.372682,-1.544267,-0.31609,-1.010332,0.02384083,-0.1256955,12.25265,-15.09133,20.57399,1008.151
20.542486668,0.009261653,-2.65962,-0.31609,-0.9963334,0.03453227,-0.1242146,12.27464,-13.98651,21.4316,1008.153
20.574766636,-1.973896,-2.542214,-0.07232723,-1.005453,0.0196369,-0.08512107,12.27464,-13.98651,21.4316,1008.153
20.609530449,2.240314,-1.602969,-0.07232723,-1.001145,0.03168695,-0.1029491,11.88789,-13.99379,20.56566,1008.153
20.641809940,-1.664027,-1.779078,-0.742675,-1.00118,0.0408259,-0.1193339,12.61344,-14.00177,20.55463,1008.152
20.674090862,-1.416133,-1.250753,-0.3770308,-1.007367,0.0118967,-0.08274375,12.61344,-14.00177,20.55463,1008.152
20.708853722,1.00084,-0.3115083,-0.31609,-1.001632,0.03411176,-0.1010005,12.23802,-13.6389,20.1198,1008.15
20.741133690,-1.54008,-0.6050222,-1.230201,-1.000692,0.04084366,-0.1145005,11.88789,-13.99379,20.56566,1008.15
20.775897503,-1.416133,-0.8398333,-1.108319,-1.006425,0.01912727,-0.09189001,11.87524,-13.63491,20.12532,1008.15
20.808177471,-0.7344223,-1.015942,-0.6817343,-1.005947,0.01764083,-0.1025351,11.87524,-13.63491,20.12532,1008.15
20.842940330,-0.238633,-0.9572388,-0.6207936,-1.004528,0.0307045,-0.1043977,12.25067,-13.99778,20.56015,1008.15
20.875220776,-1.54008,-1.015942,-0.6817343,-1.006428,0.02009185,-0.09285139,12.26331,-14.35666,21.00049,1008.152
20.907501698,-0.9823169,-0.4289138,-0.31609,-1.006436,0.01956861,-0.1044569,12.26331,-14.35666,21.00049,1008.152
20.942264557,1.620577,-0.8985361,-0.07232723,-1.002097,0.02588031,-0.1020131,12.25199,-14.72681,20.56938,1008.152
20.974544525,-1.106264,-0.9572388,-0.4989121,-1.00403,0.02832227,-0.09377664,11.52511,-13.9898,20.57118,1008.15
21.009307861,0.3191299,-0.3702111,-0.6817343,-1.003017,0.009458377,-0.09195232,11.52511,-13.9898,20.57118,1008.149
21.041588306,1.806498,-0.7224277,0.1714356,-1.004995,0.02246486,-0.1078276,12.60212,-14.37192,20.12352,1008.147
21.073868752,-0.238633,-1.426861,-0.2551494,-1.005491,0.02729785,-0.1092493,12.62543,-13.99613,20.99036,1008.145
21.108631611,-0.7344223,-1.426861,-0.2551494,-1.005455,0.0210936,-0.08366246,12.62543,-13.99613,20.99036,1008.145
21.140911579,0.8149192,-0.3702111,0.04955418,-1.010304,0.0259125,-0.08555836,12.25067,-13.99778,20.56015,1008.149
21.175675392,0.4430773,-0.3115083,-0.31609,-1.005977,0.03168459,-0.09955459,12.6141,-14.36628,20.55925,1008.148
21.207955360,0.133209,-0.6050222,-0.742675,-1.011767,0.02830015,-0.0937601,12.6141,-14.36628,20.55925,1008.148
21.242718696,-0.9823169,-0.2528055,-0.6817343,-1.006396,0.009471632,-0.08517683,12.23802,-13.6389,20.1198,1008.148
21.274999142,0.9388666,0.09941114,0.1104949,-1.003536,0.0239683,-0.09380246,12.25133,-14.3623,20.56476,1008.148
21.307278633,-0.9823169,0.1581139,-0.4379715,-1.003554,0.03220491,-0.09085496,12.25133,-14.3623,20.56476,1008.146
21.342042923,-1.230212,0.3929251,-0.8036157,-1.005453,0.02012738,-0.08318452,12.24,-14.73245,20.13365,1008.152
21.374322414,-1.354159,0.8038445,-0.6817343,-1.003512,0.01478676,-0.0899872,12.60146,-14.0074,20.1189,1008.15
21.409085750,-0.3006067,0.5690334,-0.2551494,-1.010309,0.02100606,-0.1054072,12.60146,-14.0074,20.1189,1008.15
21.441366196,-0.5485013,0.2168167,-0.01138653,-1.007897,0.02489914,-0.1010394,11.51379,-14.35995,20.14007,1008.15
21.476129532,-0.1146857,0.09941114,-0.07232723,-1.004487,0.01719381,-0.09287205,12.25067,-13.99778,20.56015,1008.148
21.508409977,-0.4865277,0.6864389,-0.5598529,-1.004514,0.026856,-0.09765144,12.25067,-13.99778,20.56015,1008.15
21.540689945,-1.787974,0.6864389,-0.8036157,-1.00789,0.02248441,-0.09960278,11.51379,-14.35995,20.14007,1008.152
21.575453758,-0.7344223,0.2755195,-0.2551494,-1.007384,0.01720354,-0.08754793,12.61344,-14.00177,20.55463,1008.152
21.607733250,-0.424554,0.6864389,-0.1332679,-1.005959,0.02540989,-0.09475592,12.61344,-14.00177,20.55463,1008.152
21.642496586,-1.54008,0.6277362,-0.4989121,-1.005953,0.02152209,-0.09961242,12.58947,-14.01304,19.68318,1008.15
21.674777031,-0.9203433,0.3929251,-0.3770308,-1.007393,0.0176547,-0.09721411,12.23802,-13.6389,20.1198,1008.154
21.709540367,0.3811036,-0.4876166,0.1714356,-1.004497,0.01812891,-0.1025355,12.97556,-13.64124,20.5445,1008.154
21.741820812,0.3191299,-0.4289138,0.04955418,-1.008857,0.02443374,-0.09475522,12.97556,-13.64124,20.5445,1008.153
21.774100780,-0.6104749,-0.3115083,-0.31609,-1.007415,0.02684771,-0.09764524,12.23868,-14.00341,20.12442,1008.153
21.808863640,0.2571563,-0.3115083,-0.07232723,-1.009317,0.01280334,-0.09917131,11.15035,-13.99145,20.14097,1008.153
21.841144085,0.009261653,-0.6050222,0.04955418,-1.006425,0.01619585,-0.1001251,11.15035,-13.99145,20.14097,1008.155
21.875907421,-0.424554,-0.9572388,-0.31609,-1.006427,0.02058561,-0.08994795,11.89987,-13.98816,21.00139,1008.155
21.908187866,0.133209,-0.8985361,-0.2551494,-1.000628,0.02205235,-0.09043556,12.2267,-14.00905,19.68869,1008.155
21.942951202,0.505051,-0.8985361,-0.07232723,-1.010783,0.02299936,-0.08799108,12.2267,-14.00905,19.68869,1008.155
21.975231647,-0.3625803,-0.7811305,-0.1942087,-1.00305,0.02153857,-0.09720138,12.6008,-13.64289,20.11429,1008.155
22.007511616,-1.416133,-0.07669719,-0.4989121,-1.007371,0.01285801,-0.08467203,11.88789,-13.99379,20.56566,1008.154
22.042274475,0.505051,-0.2528055,-0.01138653,-1.00302,0.01237833,-0.08710133,11.88789,-13.99379,20.56566,1008.158
22.074554920,0.1951826,-0.2528055,-0.07232723,-1.007403,0.02201006,-0.09718932,12.23802,-13.6389,20.1198,1008.158
22.109318256,0.3811036,-0.2528055,-0.01138653,-1.004983,0.02153959,-0.09526347,11.87458,-13.27039,20.1207,1008.156
22.141598702,-0.3625803,-0.3702111,-0.1942087,-1.006895,0.01429479,-0.08949927,11.87458,-13.27039,20.1207,1008.156
22.173878670,-0.238633,-0.3702111,-0.31609,-1.005925,0.01577391,-0.08224137,12.25,-13.63326,20.55553,1008.156
22.208642483,0.3191299,-0.1941027,-0.1942087,-1.005937,0.0171913,-0.0923855,12.22603,-13.64453,19.68408,1008.154
22.240922451,-0.6104749,-0.2528055,-0.2551494,-1.005445,0.01576055,-0.08659343,12.22603,-13.64453,19.68408,1008.152
22.275685310,1.00084,-0.663725,-0.1332679,-1.006905,0.01669642,-0.09480342,12.23868,-14.00341,20.12442,1008.154
22.307965755,0.4430773,-0.663725,0.2323763,-1.010302,0.01810249,-0.1054238,12.60013,-13.27837,20.10967,1008.154
22.342729091,1.124788,-1.602969,0.293317,-1.005942,0.01961586,-0.09092139,12.60013,-13.27837,20.10967,1008.157
22.375009537,0.8768929,-1.720375,0.6589612,-1.009308,0.01186496,-0.09047477,11.8759,-13.99943,20.12994,1008.157
22.407289505,1.00084,-1.426861,0.4761391,-1.003529,0.02204405,-0.09042935,11.88723,-13.62928,20.56105,1008.155
22.442053318,0.8768929,-1.368158,0.1104949,-1.005466,0.02300638,-0.0904197,11.88723,-13.62928,20.56105,1008.155
22.474333286,0.8149192,-1.015942,-0.2551494,-1.00884,0.0181525,-0.09189034,12.23868,-14.00341,20.12442,1008.155
22.509096146,0.7529456,-1.015942,-0.2551494,-1.008826,0.01234863,-0.0909565,11.87524,-13.63491,20.12532,1008.155
22.541376591,1.744524,-0.8398333,-0.07232723,-1.006422,0.0206069,-0.08366314,11.87524,-13.63491,20.12532,1008.157
22.576139927,-0.05271201,-0.4876166,-0.2551494,-1.004498,0.02643268,-0.07976665,12.23736,-13.27438,20.11519,1008.155
22.608420372,-0.6104749,-0.07669719,-0.6207936,-1.005442,0.01577529,-0.08224241,11.8759,-13.99943,20.12994,1008.154
22.640700340,0.2571563,-0.1354,-0.2551494,-1.006398,0.007996914,-0.09195335,11.8759,-13.99943,20.12994,1008.154
22.675464153,0.7529456,-0.8398333,0.3542577,-1.005443,0.0113708,-0.09677061,12.58881,-13.64852,19.67856,1008.155
22.707744121,0.3191299,-1.485564,0.5980205,-1.001582,0.01917058,-0.0831983,12.23736,-13.27438,20.11519,1008.159
22.742506981,0.1951826,-0.7811305,0.4151984,-1.012684,0.01482274,-0.07159656,11.8759,-13.99943,20.12994,1008.158
22.774787426,1.682551,-0.4876166,0.04955418,-1.00402,0.02836322,-0.08169046,11.8759,-13.99943,20.12994,1008.158
22.809550762,0.4430773,-0.6050222,-0.1942087,-1.008823,0.01382663,-0.08321308,12.6008,-13.64289,20.11429,1008.156
22.841831207,1.992419,-0.4289138,0.4761391,-1.011243,0.01380825,-0.08659204,11.86326,-13.64054,19.68959,1008.156
22.874111176,2.116366,-0.7811305,0.7199019,-1.010306,0.02639152,-0.08700595,11.86326,-13.64054,19.68959,1008.154
22.908874989,0.6289983,-1.133347,0.293317,-1.002543,0.01919566,-0.07497763,11.88789,-13.99379,20.56566,1008.153
22.941154957,0.8768929,-1.074644,0.5980205,-1.008324,0.01096048,-0.07259479,11.8626,-13.27603,19.68498,1008.157
22.975917816,2.983997,-1.19205,0.7808427,-1.006908,0.02059242,-0.08752968,11.8626,-13.27603,19.68498,1008.157
23.008198738,1.248735,-1.19205,0.5370798,-1.004018,0.02495279,-0.088478,11.8759,-13.99943,20.12994,1008.157
23.042961597,-0.4865277,-0.4876166,0.1104949,-1.004005,0.02598289,-0.0701015,12.23868,-14.00341,20.12442,1008.157
23.075242043,-0.1146857,-0.0179944,-0.01138653,-1.010288,0.0206024,-0.08172107,12.23868,-14.00341,20.12442,1008.161
23.107522011,-0.3625803,-0.1941027,0.1104949,-1.009812,0.02546272,-0.07589321,11.87524,-13.63491,20.12532,1008.161
23.142285824,-0.5485013,-0.1354,-0.1942087,-1.009315,0.01720783,-0.0846431,12.60146,-14.0074,20.1189,1008.159
23.174565792,0.5670246,-0.0179944,0.04955418,-1.008854,0.02786711,-0.08119942,12.60146,-14.0074,20.1189,1008.159
23.209328651,-0.9823169,0.3929251,-0.2551494,-1.00206,0.01919377,-0.07594556,11.8759,-13.99943,20.12994,1008.159
23.241609573,-0.6104749,0.6864389,-0.31609,-1.003991,0.01529224,-0.08321516,11.86392,-14.00506,19.69421,1008.157
23.273890018,-2.159817,0.8625473,-0.6207936,-1.002074,0.02499927,-0.07639596,11.86392,-14.00506,19.69421,1008.157
23.308652878,-1.664027,0.7451417,-0.3770308,-1.008808,0.01095746,-0.07307722,11.86458,-14.36958,19.69883,1008.161
23.340932846,-1.044291,1.097358,-0.07232723,-1.006881,0.01288724,-0.07645447,12.23802,-13.6389,20.1198,1008.161
23.375696659,-0.796396,1.214764,-0.2551494,-1.002577,0.02882509,-0.08942596,12.23802,-13.6389,20.1198,1008.159
23.407976627,-2.22179,1.038656,-0.1332679,-1.008365,0.02642653,-0.07830804,12.60146,-14.0074,20.1189,1008.159
23.442740440,-1.478106,1.566981,-0.31609,-1.007357,0.009493437,-0.07792305,12.6141,-14.36628,20.55925,1008.159
23.475020409,-0.238633,1.860494,-0.1942087,-1.007397,0.02252511,-0.08800108,12.6141,-14.36628,20.55925,1008.158
23.507300854,-1.849948,2.036603,-0.5598529,-1.000634,0.02496083,-0.08896869,11.88789,-13.99379,20.56566,1008.158
23.542063713,-2.965474,1.801792,-0.1942087,-1.014131,0.007015128,-0.08952507,12.23868,-14.00341,20.12442,1008.158
23.574344158,-1.044291,2.212711,0.3542577,-1.004975,0.02450377,-0.07735939,12.23868,-14.00341,20.12442,1008.156
23.609107494,-4.948631,2.506225,0.1104949,-1.013671,0.01767113,-0.08704828,12.23736,-13.27438,20.11519,1008.154
23.641387463,-2.283764,2.330117,-0.07232723,-1.00835,0.01525031,-0.0919079,12.22736,-14.37356,19.69331,1008.157
23.676151276,-0.7344223,1.625683,0.1714356,-1.0079,0.02293067,-0.1107193,12.6008,-13.64289,20.11429,1008.155
23.708431244,-2.407711,0.9799528,0.293317,-1.001093,0.010399,-0.1016199,12.6008,-13.64289,20.11429,1008.155
23.740711689,-1.54008,1.508278,0.902724,-1.003515,0.02014929,-0.07835418,11.88723,-13.62928,20.56105,1008.155
23.775474548,-2.159817,2.154008,1.024606,-1.005418,0.003166945,-0.09004917,12.23802,-13.6389,20.1198,1008.153
23.807755470,-0.9203433,2.154008,1.45119,-1.00982,0.02102874,-0.09912346,12.23802,-13.6389,20.1198,1008.153
23.842518330,0.7529456,1.860494,1.816835,-1.009325,0.0161892,-0.09963548,12.22736,-14.37356,19.69331,1008.157
23.874798775,1.558603,1.33217,1.999657,-1.005477,0.02295887,-0.1044397,12.23802,-13.6389,20.1198,1008.157
23.909562111,0.4430773,1.625683,1.573072,-1.005971,0.02926822,-0.09860146,12.23802,-13.6389,20.1198,1008.159
23.941842079,0.3811036,1.860494,1.329309,-1.004517,0.02488753,-0.1073314,12.25067,-13.99778,20.56015,1008.161
23.974122524,-1.044291,1.508278,1.268368,-1.003557,0.03414554,-0.0893936,12.23868,-14.00341,20.12442,1008.162
24.008885384,0.133209,1.743089,1.207428,-1.008365,0.01616575,-0.1073727,12.23868,-14.00341,20.12442,1008.161
24.041166306,6.516496,-1.074644,0.9636648,-1.016112,0.05079413,-0.02110702,12.23868,-14.00341,20.12442,1008.161
24.075929165,-1.230212,1.566981,0.9636648,-1.003066,0.03075615,-0.09038081,12.23868,-14.00341,20.12442,1008.159
24.108209610,-0.8583696,2.212711,1.268368,-1.002587,0.02780973,-0.1034514,12.23868,-14.00341,20.12442,1008.159
24.140489578,-2.9035,2.330117,0.5980205,-1.004059,0.03602254,-0.1063022,12.60212,-14.37192,20.12352,1008.159
24.175253391,-0.5485013,1.919197,0.7808427,-1.006441,0.01759522,-0.1155872,12.25133,-14.3623,20.56476,1008.161
24.207533359,-0.1766593,1.390872,0.7808427,-1.001135,0.0287932,-0.1000649,12.25133,-14.3623,20.56476,1008.161
24.242296219,0.133209,1.214764,0.5370798,-1.0026,0.03166478,-0.1082639,12.23868,-14.00341,20.12442,1008.163
24.274577141,-0.1146857,1.156061,0.902724,-1.005009,0.02924969,-0.1048883,11.51379,-14.35995,20.14007,1008.163
24.309340000,0.6289983,1.273467,1.024606,-1.003082,0.02922409,-0.114078,11.51379,-14.35995,20.14007,1008.161
24.341620445,-0.1766593,0.9799528,1.45119,-1.008857,0.01906139,-0.1092889,12.25133,-14.3623,20.56476,1008.161
24.373900890,0.3191299,1.743089,0.8417833,-1.005027,0.0399256,-0.09612571,11.8759,-13.99943,20.12994,1008.161
24.408664226,-0.238633,2.271414,0.1104949,-1.003112,0.03691781,-0.1285373,11.8759,-13.99943,20.12994,1008.161
24.440944195,-0.7344223,1.038656,0.293317,-1.008914,0.03543961,-0.1314339,11.88855,-14.35831,20.57028,1008.161
24.475708008,0.9388666,-0.1941027,0.4761391,-1.002122,0.03310648,-0.1116408,12.26265,-13.99215,20.99587,1008.159
24.507987976,0.133209,0.6864389,0.2323763,-1.001156,0.03212992,-0.1150325,12.26265,-13.99215,20.99587,1008.162
24.542751789,-0.424554,0.3342223,0.04955418,-1.002607,0.03309854,-0.1135735,12.25,-13.63326,20.55553,1008.16
24.575031280,-0.6724486,0.2168167,-0.01138653,-1.001626,0.02582928,-0.1174845,12.61344,-14.00177,20.55463,1008.16
24.607312202,-3.461263,0.4516278,0.04955418,-1.001165,0.03502531,-0.1174332,11.88855,-14.35831,20.57028,1008.16
24.642075062,-8.171262,1.273467,0.1714356,-1.002555,0.01328205,-0.1064347,11.88855,-14.35831,20.57028,1008.16
24.674355507,3.603734,1.273467,-0.3770308,-1.006983,0.03738577,-0.1299766,12.61344,-14.00177,20.55463,1008.16
24.709118843,-3.151395,0.5690334,-0.8645564,-1.00892,0.04079067,-0.123185,11.16234,-13.98582,20.57669,1008.157
24.741399288,-1.354159,0.8038445,-0.9254971,-1.004029,0.02441808,-0.1034676,11.16234,-13.98582,20.57669,1008.157
24.776162624,0.133209,0.4516278,-0.9254971,-1.006015,0.03592856,-0.1324042,12.25133,-14.3623,20.56476,1008.157
24.808442116,-1.911922,-0.7224277,-0.742675,-1.003081,0.02629759,-0.1208628,11.8759,-13.99943,20.12994,1008.159
24.840723038,-0.6104749,-1.015942,0.293317,-1.002586,0.02145969,-0.1208913,11.8759,-13.99943,20.12994,1008.158
24.875485897,-3.895079,-1.485564,-0.2551494,-1.005549,0.04513932,-0.1280019,12.22802,-14.73808,19.69793,1008.158
24.907766342,-8.729025,-2.189997,-0.1942087,-1.001603,0.02250402,-0.09913278,12.24,-14.73245,20.13365,1008.158
24.942529678,-2.655606,-0.3702111,-0.742675,-1.002619,0.0418453,-0.1028881,12.24,-14.73245,20.13365,1008.156
24.974810123,-4.948631,1.097358,-1.778667,-1.008403,0.03213376,-0.1077653,12.23934,-14.36793,20.12904,1008.156
25.009573460,-5.506394,0.6277362,-1.352082,-1.001644,0.02966467,-0.1280983,12.58881,-13.64852,19.67856,1008.152
25.041853905,-4.886658,-0.8398333,-0.9254971,-1.010353,0.03303875,-0.1246763,12.58881,-13.64852,19.67856,1008.157
25.074133873,-4.081,-1.485564,-0.5598529,-1.004514,0.02245805,-0.1102459,12.23934,-14.36793,20.12904,1008.157
25.108897686,-0.9823169,-1.426861,-0.31609,-0.9997138,0.03502945,-0.1174363,11.85193,-14.0107,19.25848,1008.155
25.141177177,-3.213369,-0.8985361,-0.6207936,-1.005502,0.03507183,-0.1000198,11.85193,-14.0107,19.25848,1008.153
25.175940514,-6.312052,-0.3702111,-0.9864379,-1.015254,0.06940475,-0.09932012,12.59013,-14.37755,19.68779,1008.153
25.208220959,-4.886658,-0.1354,-1.473963,-1.005984,0.02676831,-0.1223041,12.60146,-14.0074,20.1189,1008.151
25.240501404,-4.762711,-0.5463194,-0.9864379,-1.004507,0.02493011,-0.09476177,12.60146,-14.0074,20.1189,1008.151
25.275264740,0.133209,-0.07669719,-0.5598529,-1.005001,0.02341798,-0.1121731,12.22736,-14.37356,19.69331,1008.15
25.307545185,-0.3006067,-0.4289138,-1.047378,-1.005042,0.03888731,-0.1169195,11.85061,-13.28166,19.24925,1008.154
25.342308521,-1.973896,-1.896483,-1.16926,-1.006931,0.01658995,-0.1262275,11.85061,-13.28166,19.24925,1008.152
25.374588013,-0.6104749,-2.072592,-0.5598529,-1.008374,0.01905949,-0.1102569,11.86392,-14.00506,19.69421,1008.152
25.409351826,-0.6104749,-2.835728,-0.31609,-1.004071,0.03792713,-0.1154767,12.58881,-13.64852,19.67856,1008.15
25.441631794,-2.9035,-2.307403,-1.352082,-1.003575,0.0414012,-0.09031919,12.58881,-13.64852,19.67856,1008.15
25.473912239,-1.54008,-1.074644,-1.717726,-1.006441,0.02590227,-0.09185145,11.47822,-13.64702,18.8859,1008.15
25.508675575,0.009261653,0.04070837,-1.717726,-1.004513,0.02783532,-0.0942618,11.8626,-13.27603,19.68498,1008.153
25.540956020,-1.602054,-0.0179944,-2.509955,-1.005032,0.03892498,-0.1058002,11.84166,-14.01552,18.885,1008.153
25.575719356,-3.461263,0.2168167,-2.8756,-1.004501,0.02153279,-0.09768174,11.84166,-14.01552,18.885,1008.151
25.607999802,-1.230212,-0.1941027,-2.02243,-1.006891,0.006492967,-0.1069474,11.83995,-14.01633,18.82276,1008.151
25.642762661,0.9388666,-0.3702111,-0.9864379,-1.006928,0.02051215,-0.1112186,12.2051,-14.38403,18.8841,1008.149
25.675043583,-1.54008,-1.074644,-1.656785,-1.003065,0.02685196,-0.1000718,12.2051,-14.38403,18.8841,1008.149
25.707323074,0.3191299,-1.602969,-2.02243,-1.008829,0.005980576,-0.1137143,11.4885,-13.64219,19.25938,1008.153
25.742086887,0.8768929,-1.426861,-0.9254971,-1.005453,0.01719432,-0.09190309,12.19179,-13.66063,18.43914,1008.151
25.774366856,0.6289983,-1.485564,-0.8645564,-1.006423,0.01473424,-0.1030341,12.19179,-13.66063,18.43914,1008.151
25.809130669,-0.5485013,-0.9572388,-1.413023,-1.002106,0.03219759,-0.09424219,12.20245,-12.92597,18.86564,1008.15
25.841410637,-1.664027,-0.4876166,-1.473963,-1.005409,-0.0002140024,-0.08813465,11.82835,-13.29213,18.44004,1008.148
25.876173973,1.682551,0.2168167,-0.4379715,-1.004962,0.006966045,-0.1117833,11.82835,-13.29213,18.44004,1008.148
25.908454418,0.1951826,-0.8985361,-0.8036157,-1.00548,0.02343461,-0.1068542,12.20378,-13.655,18.87487,1008.152
25.940734863,0.5670246,-1.250753,-0.4379715,-1.002993,-0.003148336,-0.09927564,11.85061,-13.28166,19.24925,1008.152
25.975497723,3.107945,-1.485564,0.4761391,-1.007375,0.009910207,-0.09774163,11.85061,-13.28166,19.24925,1008.15
26.007778645,2.983997,-0.8398333,0.902724,-1.00593,0.0128212,-0.09676132,12.57616,-13.28964,19.23822,1008.15
26.042541504,2.983997,-0.9572388,0.1714356,-1.002568,0.02348713,-0.09380728,12.21273,-12.92114,19.23912,1008.15
26.074821949,-0.1766593,-1.074644,-0.2551494,-1.007372,0.01041215,-0.09242096,12.21273,-12.92114,19.23912,1008.15
26.109585285,4.22347,-1.133347,0.8417833,-1.009747,-0.005055902,-0.08525221,12.19179,-13.66063,18.43914,1008.153
26.141865253,6.392549,-0.7811305,1.329309,-1.003057,0.02443887,-0.09815176,12.19179,-13.66063,18.43914,1008.153
26.174145699,2.488208,-1.074644,0.6589612,-1.004501,0.0234898,-0.09138591,12.19179,-13.66063,18.43914,1008.153
26.208908558,1.186761,-1.368158,0.4151984,-1.007382,0.01330262,-0.09627201,12.20311,-13.29048,18.87025,1008.151
26.241189480,1.310709,-1.074644,0.4761391,-1.005932,0.01476838,-0.09336616,11.84995,-12.91715,19.24463,1008.149
26.275952339,0.6909719,-0.3702111,0.5980205,-1.007375,0.01235442,-0.09047616,11.84995,-12.91715,19.24463,1008.149
26.308232784,0.2571563,-0.0179944,0.2323763,-1.006438,0.02591374,-0.08846732,11.85127,-13.64618,19.25387,1008.149
26.340513229,-1.416133,-0.2528055,0.4151984,-1.007365,0.008973472,-0.08856165,11.82835,-13.29213,18.44004,1008.153
26.375276565,1.682551,-0.0179944,1.268368,-1.006408,0.01137622,-0.09435131,11.85127,-13.64618,19.25387,1008.151
26.407557011,2.302287,-0.0179944,1.329309,-1.007399,0.02251364,-0.09138522,11.85127,-13.64618,19.25387,1008.15
26.442320347,1.310709,-0.4289138,1.207428,-1.00836,0.01862798,-0.0947893,12.56484,-13.65979,18.80711,1008.146
26.474600315,2.240314,-0.1354,1.329309,-1.007851,0.01189532,-0.08274271,12.95159,-13.65251,19.67305,1008.146
26.509364128,3.417813,-0.3115083,1.146487,-1.007349,0.001219149,-0.09198984,12.95159,-13.65251,19.67305,1008.146
26.541643619,4.099523,-0.0179944,1.146487,-1.004506,0.02493503,-0.09331143,11.83929,-13.65181,18.81814,1008.146
26.573924541,3.479787,-0.6050222,1.39025,-1.010736,0.004134338,-0.08568126,11.85061,-13.28166,19.24925,1008.149
26.608687401,7.446101,-0.7224277,1.45119,-1.008844,0.02009313,-0.09042899,11.85061,-13.28166,19.24925,1008.147
26.640967846,4.595312,-1.250753,1.45119,-1.005009,0.0316939,-0.09762287,11.85127,-13.64618,19.25387,1008.147
26.675731182,6.330575,-1.544267,1.512131,-1.011717,0.006027975,-0.0972709,11.86326,-13.64054,19.68959,1008.147
26.708011627,5.40097,-0.9572388,1.512131,-1.01078,0.0220315,-0.08799659,11.86326,-13.64054,19.68959,1008.147
26.742774963,5.772812,-1.015942,1.816835,-0.9990962,-0.0103487,-0.08530526,11.85127,-13.64618,19.25387,1008.147
26.775055408,1.310709,-1.19205,1.085546,-1.016098,0.02446379,-0.07975285,12.60146,-14.0074,20.1189,1008.147
26.807335377,2.364261,-1.133347,1.45119,-1.003519,0.01866474,-0.08803138,12.60146,-14.0074,20.1189,1008.147
26.842099190,2.612155,-0.8985361,1.39025,-1.006922,0.02932934,-0.07974496,11.85193,-14.0107,19.25848,1008.149
26.874378681,0.9388666,-0.3115083,1.268368,-1.008852,0.02445504,-0.08847041,12.21537,-14.3792,19.25758,1008.149
26.909142494,2.426234,-0.4289138,1.816835,-1.007876,0.01130164,-0.1151364,12.21537,-14.3792,19.25758,1008.151
26.941422462,1.186761,-0.0179944,1.573072,-1.001602,0.0288639,-0.07879219,12.58881,-13.64852,19.67856,1008.149
26.976186275,0.009261653,0.92125,1.329309,-1.004006,0.02353868,-0.07736697,12.58947,-14.01304,19.68318,1008.149
27.008466244,0.505051,1.038656,1.45119,-1.007902,0.03123116,-0.08891737,12.58947,-14.01304,19.68318,1008.149
27.040746689,-0.5485013,0.92125,1.39025,-1.006441,0.02541343,-0.09330454,11.13836,-13.99708,19.70524,1008.149
27.075510025,1.372682,-0.0179944,2.060597,-1.006433,0.02300361,-0.09041764,12.2267,-14.00905,19.68869,1008.149
27.107790470,0.8149192,-0.8398333,2.730945,-1.006956,0.03896204,-0.0932264,12.2267,-14.00905,19.68869,1008.153
27.142553330,-0.6104749,-0.4289138,2.426242,-1.008378,0.02979274,-0.08457357,12.2267,-14.00905,19.68869,1008.153
27.174834251,-0.6724486,0.09941114,2.791886,-1.01078,0.02789598,-0.0710429,11.50114,-14.00107,19.69972,1008.153
27.209597111,0.3811036,1.273467,2.913767,-1.004552,0.04575542,-0.08980888,11.50114,-14.00107,19.69972,1008.153
27.241877556,-2.531658,1.33217,2.609064,-1.004531,0.03655914,-0.09034466,11.85193,-14.0107,19.25848,1008.152
27.274158001,1.062814,1.566981,3.218471,-1.008363,0.02399378,-0.08218938,12.22802,-14.73808,19.69793,1008.153
27.308921337,2.116366,1.33217,4.315403,-1.003576,0.04090744,-0.09322262,12.21537,-14.3792,19.25758,1008.153
27.341201305,-0.1146857,1.743089,3.462234,-1.001191,0.05641644,-0.08830519,12.21537,-14.3792,19.25758,1008.153
27.375965118,1.124788,2.154008,3.462234,-1.001611,0.03029111,-0.08603564,11.87657,-14.36394,20.13455,1008.153
27.408245087,1.992419,2.330117,3.340352,-1.004563,0.04864097,-0.09511027,12.22736,-14.37356,19.69331,1008.152
27.440525532,1.930445,1.566981,2.974708,-1.011334,0.04763902,-0.09945233,12.22736,-14.37356,19.69331,1008.152
27.475288391,1.496629,1.038656,3.09659,-1.004083,0.05156067,-0.09074377,12.60146,-14.0074,20.1189,1008.154
27.507568836,3.417813,0.5103306,3.766937,-1.014208,0.03601808,-0.09902877,11.51511,-15.08898,20.1493,1008.154
27.542332172,4.161497,0.5103306,4.315403,-1.00411,0.05975797,-0.09939899,11.51511,-15.08898,20.1493,1008.154
27.574612617,2.612155,0.5690334,3.15753,-1.001202,0.06125736,-0.0877942,11.52577,-14.35432,20.57579,1008.154
27.609375954,1.372682,2.154008,2.670005,-1.005064,0.06029483,-0.08295697,12.25199,-14.72681,20.56938,1008.154
27.641656399,0.5670246,2.975847,2.121538,-1.000272,0.06843552,-0.1124108,12.25199,-14.72681,20.56938,1008.152
27.673936844,-3.027448,2.975847,1.816835,-1.004122,0.06410351,-0.1022749,11.16432,-15.07936,20.59054,1008.152
27.708700180,-3.895079,2.447522,2.121538,-1.005053,0.04861502,-0.1023609,11.87789,-15.09297,20.14378,1008.151
27.740980625,-4.328895,1.390872,4.193522,-1.011324,0.0398634,-0.1091653,11.87789,-15.09297,20.14378,1008.155
27.775743961,1.124788,1.801792,3.401293,-1.003189,0.08106997,-0.09444541,11.5271,-15.08335,20.58502,1008.155
27.808024406,-1.292185,2.741036,2.791886,-0.9988171,0.07187958,-0.09692428,11.88987,-15.08734,20.57951,1008.155
27.842787266,-1.168238,3.151955,3.09659,-1.00744,0.03847182,-0.09467845,11.88987,-15.08734,20.57951,1008.153
27.875067711,4.347418,3.562875,4.92481,-1.009923,0.05871947,-0.1153458,11.15234,-15.085,20.15481,1008.153
27.907347679,5.896759,2.682333,4.741988,-0.9925756,0.08686166,-0.1079716,11.51577,-15.4535,20.15391,1008.151
27.942111492,4.595312,3.093253,5.595158,-1.005525,0.04230946,-0.1062633,11.51577,-15.4535,20.15391,1008.155
27.974391460,6.578469,5.089147,4.498226,-0.9917225,0.1274407,-0.1294975,10.81485,-15.79877,21.04102,1008.154
28.009155273,-7.613499,4.032497,-0.4379715,-0.9955937,0.1225314,-0.1469208,11.55239,-15.80111,21.46571,1008.154
28.041435242,-0.6104749,3.210658,-3.545947,-1.002245,0.08293146,-0.1171585,11.55239,-15.80111,21.46571,1008.154
28.076198101,1.620577,2.212711,-4.399117,-1.005605,0.06689973,-0.1327124,11.90318,-15.81074,21.02447,1008.152
28.108478546,4.471365,-1.602969,-3.485007,-1.010004,0.07597546,-0.1640749,11.53974,-15.44223,21.02537,1008.15
28.140759468,2.302287,-4.714217,-5.313228,-0.9975272,0.1161758,-0.1643566,11.53974,-15.44223,21.02537,1008.152
28.175522327,-1.478106,-8.001572,-7.019568,-1.007486,0.04854423,-0.1212102,11.92715,-15.79947,21.89592,1008.154
28.207802772,1.744524,-7.766761,-6.471101,-0.9968517,0.05735415,-0.1008786,11.18961,-15.79712,21.47123,1008.154
28.242566109,0.9388666,-6.768814,-8.116501,-0.9964793,0.08963624,-0.142755,11.55305,-16.16563,21.47033,1008.152
28.274846554,-6.931788,-6.357894,-10.91977,-0.9925254,0.07289816,-0.08726327,11.55305,-16.16563,21.47033,1008.154
28.307126522,-3.833105,-5.41865,-13.41834,-1.005057,0.04517674,-0.1173671,11.51511,-15.08898,20.1493,1008.152
28.341890335,-8.976919,-4.949028,-14.57621,-1.006971,0.04427871,-0.09512989,11.5271,-15.08335,20.58502,1008.151
28.374170303,-7.923367,-8.764708,-15.55127,-1.023456,0.03964702,-0.1628021,11.5271,-15.08335,20.58502,1008.151
28.408934116,-5.692316,-16.74829,-17.9889,-1.031747,0.07451716,-0.1475994,12.22802,-14.73808,19.69793,1008.153
28.441213608,-18.58284,-20.03564,-20.30464,-1.030642,0.04185848,-0.07527165,12.21537,-14.3792,19.25758,1008.151
28.475977421,-22.98297,-17.15921,-20.60935,-1.083692,-0.007556013,-0.04643195,12.21537,-14.3792,19.25758,1008.151
28.508257389,-16.97152,-22.61856,-14.88092,-1.088877,0.1326957,-0.06737806,12.20311,-13.29048,18.87025,1008.15
28.540537834,-16.35178,-14.63499,-10.0666,-1.087029,0.2046683,0.03503275,12.15385,-12.58399,17.11812,1008.15
28.575301170,-13.56297,-0.9572388,8.581253,-1.056812,0.2379424,-0.1678874,12.15385,-12.58399,17.11812,1008.154
28.607581615,-34.88191,-4.596811,21.74444,-0.9806783,0.3860998,-0.06665386,12.85477,-12.23872,16.23101,1008.155
28.642344952,-53.53598,0.6277362,32.8966,-0.9519556,0.1182621,-0.01554385,12.48332,-14.06294,15.82388,1008.157
28.674625397,-46.84282,-1.250753,27.35099,-0.8307104,0.005745152,0.09474598,12.48332,-14.06294,15.82388,1008.157
28.709388256,-3.709158,19.00171,25.40089,-0.822569,-0.181672,0.04676924,12.81146,-14.81287,14.52042,1008.157
28.741669178,24.67478,17.29932,12.35958,-0.8418786,-0.197231,0.04140457,12.45133,-16.26694,14.5444,1008.157
28.773949623,38.61885,13.77716,4.802929,-0.8686675,-0.1301851,-0.0006990867,12.45133,-16.26694,14.5444,1008.157
28.808712482,12.34202,6.732825,-17.25761,-0.7090169,-0.4157084,-0.1385129,12.11451,-17.34523,15.43521,1008.158
28.840992928,-18.33494,25.2829,-9.700959,-2.454473,-0.4704837,-0.6890833,12.50324,-18.4315,16.315,1008.158
28.875756264,-51.3669,-23.79262,10.77512,-0.6717514,0.2201974,0.5539226,12.50324,-18.4315,16.315,1008.156
28.908036709,-53.04019,15.42084,17.05201,-0.9021891,-0.07962033,-0.04529913,12.50192,-17.70247,16.30577,1008.156
28.942800045,57.45885,-4.949028,5.351395,-1.147929,0.1259281,-0.1581758,11.75107,-16.97673,15.43612,1008.154
28.975080490,-12.75731,4.032497,11.75017,-0.9236805,0.07286865,0.1315859,11.75107,-16.97673,15.43612,1008.153
29.007360458,-17.59126,3.738983,19.91622,-1.052958,-0.008840917,-0.3090127,12.47795,-17.71374,15.43432,1008.153
29.042124271,17.85768,-7.297139,12.42052,-0.9550476,0.1795243,-0.0707843,12.11583,-18.07426,15.44445,1008.158
29.074404240,-2.345737,-15.28072,9.861008,-0.9995351,0.1319909,-0.2082553,12.11583,-18.07426,15.44445,1008.158
29.109168053,3.913602,-17.74623,2.670005,-1.028581,0.05216667,0.1089727,12.50258,-18.06698,16.31038,1008.158
29.141448498,-4.514816,1.684386,10.28759,-1.03695,0.07791331,0.002297149,12.47927,-18.44277,15.44355,1008.157
29.176211357,2.86005,-1.955186,7.118676,-0.9825313,0.1079362,-0.1808727,11.36763,-18.80659,14.59326,1008.157
29.208491802,-2.159817,-9.410439,1.634013,-0.980641,0.185458,-0.01171588,11.36763,-18.80659,14.59326,1008.157
29.240771770,-7.551525,-4.949028,2.852827,-1.045157,0.05448925,-0.04857942,12.46795,-18.81292,15.01244,1008.157
29.275535583,8.6236,-7.708058,5.473277,-0.9654603,0.08758026,-0.06161587,11.73107,-19.17509,14.59236,1008.161
29.307815552,5.524917,-10.34968,6.935853,-1.002739,0.1190471,-0.02654902,11.73107,-19.17509,14.59236,1008.161
29.342579365,-3.709158,-5.770867,13.63933,-0.9991173,0.04380636,0.04456428,12.09385,-19.17908,14.58684,1008.159
29.374859333,14.2632,-4.714217,20.58657,-1.013789,0.08803897,-0.02815183,12.08186,-19.18472,14.15112,1008.159
29.407139778,17.91965,-3.833675,21.3788,-1.010065,0.1690594,0.02934659,12.08186,-19.18472,14.15112,1008.159
29.441902637,18.47741,-2.013889,21.92727,-1.004632,0.0977094,-0.0382688,11.73305,-20.26864,14.6062,1008.157
29.474183559,18.47741,-0.2528055,18.69741,-0.9995169,0.1872858,-0.02761828,11.73438,-20.99767,14.61543,1008.155
29.508946419,1.496629,5.089147,14.67532,-0.9951877,0.2087058,0.006334889,11.73438,-20.99767,14.61543,1008.158
29.541226864,5.40097,3.269361,10.83606,-0.9995074,0.1829272,-0.02860996,11.75901,-21.35092,15.49151,1008.158
29.575990200,13.02373,6.380609,8.520312,-0.9850159,0.1931688,-0.01746387,11.02279,-22.07761,15.07604,1008.158
29.608270645,5.215049,7.319853,6.021743,-0.9956664,0.1999281,-0.01305154,11.02279,-22.07761,15.07604,1008.158
29.640551090,8.065837,7.789475,3.340352,-0.992254,0.1751297,-0.05090811,11.06007,-22.78973,16.39245,1008.156
29.675314426,16.74215,10.78332,4.193522,-0.9688177,0.2528069,-0.1399531,11.43417,-22.42357,16.81805,1008.156
29.707594871,0.133209,11.66386,7.48432,-0.957718,0.2669201,-0.1258771,11.43417,-22.42357,16.81805,1008.154
29.742358208,-11.08402,12.4857,11.32358,-1.016115,0.2178613,-0.1303811,11.08338,-22.41395,17.25929,1008.158
29.774638653,-14.6785,12.36829,14.85815,-1.026214,0.2068231,-0.09464765,11.44748,-23.14697,17.26301,1008.158
29.809401512,-12.75731,14.77511,18.33176,-0.9397101,0.2298267,-0.0913192,11.44748,-23.14697,17.26301,1008.157
29.841682434,-21.18573,18.17987,22.29291,-0.9228243,0.2443766,-0.09610725,11.44748,-23.14697,17.26301,1008.155
29.873962879,-21.12376,18.8843,22.41479,-0.9952937,0.2214606,-0.08544572,11.4488,-23.876,17.27224,1008.155
29.908725739,-11.70376,14.42289,18.94117,-1.063581,0.2618682,-0.0990885,11.4488,-23.876,17.27224,1008.155
29.941006184,-11.146,10.66591,15.71131,-0.9955246,0.2996686,-0.140596,11.07404,-23.87765,16.84203,1008.155
29.975769520,-17.40534,8.787423,12.72522,-0.9375991,0.3272743,-0.1831065,10.71325,-24.96721,16.86139,1008.153
30.008049965,-15.54613,5.910986,11.99393,-0.9028862,0.3645774,-0.200373,10.71325,-24.96721,16.86139,1008.159
30.042813301,-26.94928,3.621578,5.534217,-0.8700421,0.3938381,-0.1616023,11.06404,-24.97683,16.42015,1008.158
30.075093746,-39.96375,8.787423,1.694953,-0.916971,0.39751,-0.1808178,10.67795,-25.34862,15.55883,1008.158
30.107373714,-49.69361,12.19218,-0.742675,-0.9813085,0.3903775,-0.2319642,10.67795,-25.34862,15.55883,1008.158
30.142137527,-63.01795,15.94916,0.293317,-1.002082,0.3713383,-0.2634512,10.28988,-24.62687,14.68366,1008.158
30.174417496,-70.4548,25.81123,1.512131,-0.9663897,0.399899,-0.2909217,10.24564,-25.74215,13.01684,1008.158
30.209181309,-88.36518,40.19341,2.791886,-1.031534,0.3372299,-0.3075746,10.57048,-24.6695,11.6903,1008.158
30.241460800,-87.80742,56.57148,10.65324,-0.865907,0.02458976,-0.3126099,10.57048,-24.6695,11.6903,1008.156
30.276224613,91.73028,120.9097,30.15426,-0.9040884,0.2629344,-0.7767238,10.17042,-23.95338,10.3794,1008.156
30.308504581,95.51067,104.7078,6.265506,-1.359308,0.5861996,-0.6757665,10.59246,-23.56468,12.5479,1008.154
30.340785026,32.79333,134.9397,17.60048,-1.291615,0.5262721,-0.8527083,10.59246,-23.56468,12.5479,1008.154
30.375548839,61.17727,143.6277,11.26264,-1.30697,0.5105907,-0.7546263,11.82753,-26.06145,17.73014,1008.156
30.407828808,30.93412,156.8945,20.83033,-1.257778,0.5722561,-0.7350442,11.27005,-27.06894,23.79295,1008.155
30.442592621,12.09413,155.7205,21.0741,-1.226798,0.5768818,-0.6814229,11.27005,-27.06894,23.79295,1008.153
30.474872589,5.215049,151.4352,29.72768,-1.156062,0.5434511,-0.6102166,12.09043,-27.39716,27.2101,1008.153
30.507153034,29.5707,155.0161,49.28965,-1.068258,0.6195894,-0.636562,11.06335,-28.08605,29.41452,1008.151
30.541915893,31.98767,154.1942,64.89046,-0.9771584,0.7388577,-0.6476827,11.06335,-28.08605,29.41452,1008.15
30.574196815,16.24636,139.3424,65.01234,-0.8609389,0.6778273,-0.6197574,10.37442,-28.42569,30.73735,1008.146
30.608959675,33.84688,124.9015,58.79639,-0.6910893,0.633384,-0.5976545,9.660185,-28.04756,31.17949,1008.148
30.641240120,53.92635,106.7624,55.87124,-0.5140011,0.6079595,-0.5387177,9.660185,-28.04756,31.17949,1008.148
30.676003933,85.71883,88.91671,58.30887,-0.4086194,0.6408724,-0.4831623,7.831008,-26.21067,30.74826,1008.145
30.708283901,102.2658,60.03495,53.67738,-0.3400357,0.7008441,-0.4085196,6.760305,-23.63663,31.5417,1008.142
30.740564346,103.3194,31.44669,42.22052,-0.241658,0.6062486,-0.4170045,6.760305,-23.63663,31.5417,1008.138
30.775327682,112.1196,11.01813,46.54731,-0.176622,0.4833096,-0.4787569,6.438194,-19.60043,33.23935,1008.136
30.807608128,130.3399,4.384714,55.74936,-0.100391,0.3186813,-0.5712272,5.764627,-15.1901,35.37362,1008.136
30.842371464,144.4699,10.31369,61.47779,-0.07770329,0.3024589,-0.6651555,5.764627,-15.1901,35.37362,1008.133
30.874651909,103.1334,3.269361,63.67165,-0.1418949,0.2539051,-0.658525,5.054445,-10.43215,36.1961,1008.128
30.909414768,47.91491,-8.647303,61.11214,-0.1364724,0.02325536,-0.6095706,4.717423,-5.734106,37.38731,1008.127
30.941695690,43.01899,-13.46093,61.3559,-0.1102604,-0.2273824,-0.6216878,4.717423,-5.734106,37.38731,1008.122
30.973976135,79.39751,-12.52169,61.11214,-0.05986248,-0.2727213,-0.6201205,4.334723,-1.361563,36.90171,1008.122
31.008738995,96.68817,-9.88006,54.89619,-0.06368206,-0.3077145,-0.6614035,4.340755,1.924713,37.2959,1008.116
31.041019440,93.77541,-11.28893,44.84097,-0.07812614,-0.3465914,-0.6973678,4.340755,1.924713,37.2959,1008.111
31.075782776,80.51305,-13.75444,38.92973,-0.08038359,-0.4089727,-0.6822476,3.994672,5.949645,38.12209,1008.108
31.108063221,71.65081,-4.538108,38.80784,-0.01358932,-0.4441858,-0.7053134,4.725596,9.592461,38.50063,1008.104
31.142826557,58.01661,21.11501,31.00743,-0.04030513,-0.4007819,-0.7267638,5.070435,12.86348,38.01784,1008.104
31.175107002,22.62965,22.34776,12.72522,-0.1964698,-0.3913697,-0.6731955,5.070435,12.86348,38.01784,1008.105
31.207387447,14.5111,23.93274,7.606202,-0.2779396,-0.5024754,-0.6891217,5.04051,16.13285,37.10485,1008.103
31.242150783,55.90951,36.14292,7.910905,-0.2967166,-0.5368882,-0.6892769,5.049188,17.96107,37.51749,1008.103
31.274431228,60.8674,39.66508,12.5424,-0.4124929,-0.4467027,-0.6822299,5.049188,17.96107,37.51749,1008.102
31.309194565,40.29214,27.22009,14.00498,-0.409107,-0.471122,-0.7510243,5.746801,20.12892,36.60731,1008.102
31.341475010,36.69767,30.39004,25.76653,-0.4284288,-0.4818451,-0.7573283,5.741509,23.04504,36.57038,1008.102
31.373755455,-20.62797,2.330117,22.84138,-0.5646099,-0.5464877,-0.725012,5.741509,23.04504,36.57038,1008.1
31.408518314,-41.63704,-11.75855,23.14608,-0.3727992,-0.7053591,-0.787242,5.377799,24.5079,36.61969,1008.1
31.440799236,1.124788,-3.598864,22.11009,-0.2380288,-0.673785,-0.8661534,5.726327,24.80123,36.11235,1008.098
31.475562096,10.9786,-11.05412,18.27082,-0.458653,-0.6202121,-0.8644064,5.726327,24.80123,36.11235,1008.096
31.507842541,75.6791,3.738983,-1.413023,-0.4976111,-0.7367855,-1.53068,6.462543,25.52792,36.52781,1008.096
31.542605877,10.48281,13.24883,-21.21875,-0.1736777,-0.6886331,-1.446987,6.10148,25.53271,36.59558,1008.095
31.607166767,-83.46926,23.1109,-12.68705,-0.2377917,-0.38165,-0.9118699,4.709248,25.21152,38.73864,1008.097
31.641930103,-74.79295,25.34161,-8.604026,-0.137767,-0.2951564,-0.7486748,2.933854,23.85106,40.09109,1008.097
31.674210548,-37.42283,9.080936,-6.532042,-0.1223438,-0.2396118,-0.6502542,2.933854,23.85106,40.09109,1008.097
31.708973885,17.23794,-1.015942,4.985751,-0.1138933,-0.183462,-0.7959515,4.036817,22.38666,40.52874,1008.095
31.741254330,82.80607,3.386766,10.04383,-0.1719155,-0.2613129,-1.014784,3.663377,21.65598,40.10776,1008.094
31.776017189,87.39212,5.617472,2.791886,-0.09421255,-0.4175415,-1.057415,3.663377,21.65598,40.10776,1008.096
31.808298111,33.97083,6.908934,-5.130406,-0.03750772,-0.4828117,-1.087882,3.685363,22.7608,40.96536,1008.096
31.840578556,8.561626,9.257045,-10.18848,-0.1070138,-0.4927572,-0.9649948,2.571077,23.85505,40.09661,1008.096
31.875341415,11.59834,9.315748,-11.59012,-0.1287847,-0.4444878,-0.8399463,2.571077,23.85505,40.09661,1008.096
31.907621860,22.7536,6.556717,-10.61507,-0.1127987,-0.4755971,-0.8943028,1.892142,24.61459,41.84131,1008.096
31.942385197,31.24399,2.917144,-6.166398,-0.1224995,-0.4737939,-0.9252117,1.878283,25.64175,41.39251,1008.094
31.974665642,36.44978,2.212711,-3.667829,-0.09448361,-0.4518468,-0.8985581,1.878283,25.64175,41.39251,1008.098
32.009428978,32.73136,2.212711,-2.266193,-0.05474273,-0.4748162,-0.8557484,1.538425,25.29169,42.21185,1008.098
32.041709423,15.81254,-1.720375,-1.16926,-0.03283121,-0.5234801,-0.8115959,1.516167,25.28123,41.40264,1008.096
32.073989868,0.6289983,-3.011836,-4.64288,-0.05503909,-0.560048,-0.8736361,0.7759819,26.74163,40.95948,1008.096
32.108753204,16.18439,-12.46298,6.265506,-0.1279408,-0.5617404,-0.7400596,0.7759819,26.74163,40.95948,1008.095
32.141033649,-3.027448,-16.51348,0.9636648,-0.1031499,0.01095933,-0.6962478,0.8095641,27.12225,42.1998,1008.099
32.175796986,-6.869815,-22.91208,9.982889,-0.1184743,-0.5303074,-0.8975022,0.8228724,26.39885,42.64476,1008.097
32.208077431,3.727681,-23.08819,10.5923,-0.1456101,-0.5061885,-0.8973066,0.8228724,26.39885,42.64476,1008.097
32.242840290,13.27162,-19.38991,11.01888,-0.1799298,-0.4993953,-0.8628699,1.200008,26.03678,43.14183,1008.097
32.275120735,7.693995,-17.80494,9.800067,-0.1614904,-0.5064051,-0.8049368,1.912526,25.65785,42.63744,1008.097
32.307401657,-1.230212,-15.39812,8.093727,-0.1759712,-0.5122045,-0.7904354,1.912526,25.65785,42.63744,1008.099
32.342164516,3.417813,-9.997466,3.766937,-0.1629324,-0.5210336,-0.8364404,1.186972,25.66582,42.64848,1008.099
32.374444961,7.136232,-6.181786,1.694953,-0.1779696,-0.5090553,-0.8590615,1.913577,26.02317,42.69508,1008.099
32.409208298,8.747548,-2.777025,-0.3770308,-0.1847639,-0.5072224,-0.8836918,1.913577,26.02317,42.69508,1008.104
32.441488743,7.384127,-2.013889,0.902724,-0.1973113,-0.5218156,-0.8953503,1.911865,26.02237,42.63283,1008.104
32.476252079,5.153075,-0.07669719,1.085546,-0.191453,-0.5406262,-0.8819336,1.538815,26.02153,42.26487,1008.104
32.508532524,3.727681,0.5690334,0.4151984,-0.175408,-0.5602514,-0.8318022,1.538815,26.02153,42.26487,1008.104
32.540812969,0.07123531,-0.4876166,0.4761391,-0.1724919,-0.5577383,-0.8066553,1.200281,24.94243,43.09343,1008.104
32.575576305,-6.497973,-2.2487,0.9636648,-0.1609019,-0.5450623,-0.788721,1.912915,26.38768,42.69046,1008.104
32.607856750,-15.54613,-2.424809,1.146487,-0.1779158,-0.5234928,-0.8354552,1.912915,26.38768,42.69046,1008.109
32.642619610,-21.86744,-4.244595,2.365301,-0.1852517,-0.4969794,-0.8594607,1.912254,26.7522,42.68584,1008.107
32.674900532,-18.27297,-4.596811,3.705997,-0.164465,-0.4852156,-0.8328494,2.286627,26.02401,43.06304,1008.105
32.707180977,-12.3235,-2.2487,2.426242,-0.1712377,-0.5077266,-0.9011277,2.286627,26.02401,43.06304,1008.105
32.741943836,-11.02205,-6.534003,3.401293,-0.1769596,-0.5166938,-0.8291339,1.586918,25.01046,43.9586,1008.105
32.774224281,-9.844551,-6.827517,3.401293,-0.2244983,-0.4641908,-0.8611233,1.600226,24.28707,44.40356,1008.105
32.808987617,3.913602,-1.720375,1.146487,-0.2128856,-0.49931,-0.952718,1.600226,24.28707,44.40356,1008.103
32.841268063,13.0857,5.206553,-3.119362,-0.2386537,-0.4696664,-1.037096,1.600887,23.92255,44.40818,1008.102
32.876031399,6.206627,15.71435,-9.883781,-0.2121691,-0.6552067,-1.117975,1.953002,23.1839,43.97617,1008.102
32.908311844,13.51952,27.98323,-7.994619,-0.1799147,-0.5589505,-1.015492,1.212817,24.6443,43.53301,1008.106
32.940592289,12.71386,38.54973,-3.119362,-0.08099221,-0.6220164,-0.8594294,1.212817,24.6443,43.53301,1008.106
32.975355625,-16.41376,39.19546,-4.033473,-0.05696718,-0.5258214,-0.7680477,1.562396,25.30296,43.0833,1008.104
33.007636070,18.47741,38.0214,-19.99994,-0.08960808,-0.450201,-0.845381,1.899218,26.38124,42.19249,1008.108
33.042398930,26.10017,25.34161,-27.92223,0.03203833,-0.4897571,-0.6254202,1.899218,26.38124,42.19249,1008.108
33.074679852,30.37636,36.14292,-30.4208,0.02579988,-0.5149885,-0.6400533,2.973968,28.18703,41.77938,1008.108
33.109443665,62.47871,37.904,-30.78644,-0.03709176,-0.5275121,-0.7125047,2.209812,29.63617,40.46477,1008.108
33.141723156,72.02265,39.37157,-25.97213,-0.0197497,-0.4901065,-0.6847734,2.209812,29.63617,40.46477,1008.105
33.174004078,44.13451,29.80302,-21.21875,-0.02574805,-0.3809836,-0.6087236,1.45698,31.45546,39.58126,1008.103
33.208766937,-15.73205,12.89662,-8.96967,-0.1337789,-0.2814552,-0.5644154,1.441688,33.2724,39.12246,1008.107
33.241047382,-17.34336,-22.79467,9.617245,-0.1989523,-0.6437514,-0.8902388,1.441688,33.2724,39.12246,1008.107
33.275811195,43.26688,-54.49417,24.60866,0.06338255,-0.7939298,-1.017352,0.7034867,33.63926,38.69315,1008.104
33.308091163,23.00149,-38.58572,13.70027,-0.0207036,-0.8379401,-1.081235,0.7174566,32.55135,39.14272,1008.102
33.342854977,-20.50402,-0.0179944,5.351395,-0.09560596,-0.8775409,-1.136894,0.7174566,32.55135,39.14272,1008.1
33.375134945,-4.886658,8.435206,-8.177442,-0.03307777,-0.6549292,-0.901779,0.02984333,31.48268,40.47478,1008.103
33.407415390,-10.77416,6.380609,-4.764762,-0.06648207,-0.5594096,-0.675398,0.3946047,30.38514,40.48311,1008.103
33.442179203,-8.543104,-1.133347,-2.08337,-0.03461197,-0.5228501,-0.6240143,0.3946047,30.38514,40.48311,1008.101
33.474459171,-3.709158,-5.41865,2.060597,-0.009479533,-0.5560572,-0.7339978,-0.3309493,30.39312,40.49414,1008.099
33.509222984,-4.452842,-3.657567,1.999657,-0.01419254,-0.6493883,-0.8534443,-0.6817405,30.40274,40.93539,1008.097
33.541503429,-8.667051,-1.015942,-0.6817343,-0.04030808,-0.6602305,-0.8892241,-0.6817405,30.40274,40.93539,1008.097
33.573783398,-11.08402,2.741036,-2.814659,-0.03983736,-0.6529522,-0.8838659,-0.2936702,29.68099,41.81055,1008.097
33.608547211,-7.613499,2.212711,-2.266193,-0.03120525,-0.5994707,-0.8173493,-0.2803617,28.95759,42.25552,1008.1
33.640826702,-3.151395,0.3929251,-0.6817343,-0.0123579,-0.5794267,-0.7732831,-0.2803617,28.95759,42.25552,1008.102
33.675590515,-1.664027,-1.955186,0.9636648,-0.01140762,-0.5726522,-0.7742135,-0.292347,28.95196,41.81979,1008.1
33.707871437,-1.664027,-3.246647,1.573072,-0.03414641,-0.5805862,-0.8114343,-0.2797003,28.59307,42.26013,1008.098
33.742634296,-2.841527,-4.185892,2.426242,-0.04717308,-0.5966292,-0.8221332,-0.2797003,28.59307,42.26013,1008.098
33.774914741,-0.4865277,-4.303297,3.340352,-0.02975222,-0.6038548,-0.8270462,-0.2700887,28.96242,42.62899,1008.096
33.807194710,-3.585211,-3.422756,2.791886,-0.04183075,-0.6150869,-0.846905,-0.6178451,28.24382,43.14172,1008.1
33.841958523,-4.824684,-1.19205,0.5370798,-0.04284976,-0.5889165,-0.834668,-0.9570405,27.52924,43.96567,1008.1
33.874238968,-4.204947,0.5103306,-0.4989121,-0.04915199,-0.5743412,-0.8123334,-0.9570405,27.52924,43.96567,1008.1
33.909002304,-5.878236,1.156061,-0.9864379,-0.03417438,-0.5655533,-0.8021635,-0.9550561,26.43569,43.97952,1008.1
33.941282749,-5.010605,0.3342223,-0.2551494,-0.03130758,-0.5573805,-0.8204939,-1.320479,27.89774,43.96657,1008.104
33.976046085,-4.390869,-1.015942,0.5980205,-0.03225655,-0.5719683,-0.8403957,-1.320479,27.89774,43.96657,1008.104
34.008326530,-3.709158,-0.9572388,0.6589612,-0.03418623,-0.5792852,-0.8559033,-1.319817,27.53323,43.97118,1008.104
34.040606976,-0.6104749,-0.3702111,0.5370798,-0.02741171,-0.5777796,-0.8457571,-1.331141,27.16308,43.54007,1008.105
34.075370312,1.124788,-0.2528055,0.4151984,-0.034678,-0.5646605,-0.8239121,-1.331141,27.16308,43.54007,1008.105
34.107650757,0.4430773,-1.955186,1.146487,-0.03949575,-0.5655783,-0.8050528,-1.341414,27.15825,43.16659,1008.105
34.142413616,0.133209,-2.013889,1.45119,-0.047253,-0.5651968,-0.8287224,-1.331141,27.16308,43.54007,1008.105
34.174694061,-0.6104749,-1.720375,1.146487,-0.04770989,-0.5817025,-0.8438019,-1.331141,27.16308,43.54007,1008.105
34.209457397,-1.416133,-0.3702111,0.1714356,-0.04625441,-0.5850989,-0.8476918,-1.633455,27.1664,43.54467,1008.107
34.241737842,-1.044291,0.6277362,-0.5598529,-0.03080367,-0.5734208,-0.8418574,-1.307171,27.17435,44.41153,1008.105
34.274018287,0.1951826,0.92125,-0.4989121,-0.04046528,-0.5709665,-0.823452,-1.307171,27.17435,44.41153,1008.105
34.308781624,0.7529456,0.09941114,0.3542577,-0.03610467,-0.5709181,-0.8128254,-0.5936022,27.16074,43.96477,1008.105
34.341062069,-0.5485013,-0.4289138,0.4761391,-0.03853228,-0.5709659,-0.8249065,-1.622132,27.53655,43.97578,1008.109
34.375825882,-0.796396,-0.8985361,0.5370798,-0.03564106,-0.5729539,-0.8428112,-1.622132,27.53655,43.97578,1008.109
34.408105850,-0.1766593,-0.3115083,0.5370798,-0.04000441,-0.5681272,-0.8427744,-0.9563791,27.16472,43.97029,1008.107
34.442869663,-0.1146857,0.3342223,-0.4379715,-0.04481426,-0.5782969,-0.8408881,-1.62147,27.17204,43.9804,1008.107
34.475150108,-2.655606,0.3929251,-0.3770308,-0.04000647,-0.5598282,-0.8214559,-1.62147,27.17204,43.9804,1008.111
34.507430076,-0.6104749,-0.4876166,0.1104949,-0.02889558,-0.5549539,-0.8204852,-1.984247,27.17603,43.98591,1008.113
34.542193890,-0.7344223,0.8038445,-0.3770308,-0.03660811,-0.5724679,-0.8413561,-1.307171,27.17435,44.41153,1008.111
34.574474335,-1.602054,0.2168167,-0.1942087,-0.03515853,-0.5710021,-0.8384503,-1.307171,27.17435,44.41153,1008.11
34.609237671,-0.5485013,-0.07669719,-0.1942087,-0.03902607,-0.5705211,-0.836022,-1.608162,26.44864,44.42535,1008.11
34.641518116,0.133209,0.09941114,0.1104949,-0.03952489,-0.564233,-0.8364686,-1.608162,26.44864,44.42535,1008.11
34.673797607,-0.238633,-0.9572388,0.7808427,-0.03758943,-0.5632449,-0.8321162,-1.608162,26.44864,44.42535,1008.108
34.708561420,0.6909719,-1.074644,0.7199019,-0.03661208,-0.5680864,-0.8335961,-1.293862,26.45095,44.85648,1008.11
34.740842342,-0.3006067,-1.015942,0.6589612,-0.03612748,-0.5695465,-0.8365061,-1.293862,26.45095,44.85648,1008.11
34.775605202,-1.416133,-0.5463194,0.4761391,-0.04289478,-0.5700449,-0.8350441,-1.608162,26.44864,44.42535,1008.11
34.807885647,-0.7344223,-0.7811305,0.4151984,-0.040487,-0.5661699,-0.8359941,-1.608162,26.44864,44.42535,1008.109
34.842648983,-0.05271201,-0.6050222,0.4761391,-0.04387913,-0.5637665,-0.8379068,-1.294524,26.81547,44.85187,1008.107
34.874929428,-0.238633,-0.4289138,0.1714356,-0.04194688,-0.5632803,-0.8388751,-1.295185,27.17999,44.84725,1008.107
34.907209873,-0.9203433,-0.1941027,-0.1332679,-0.04001759,-0.5603629,-0.8364456,-1.295185,27.17999,44.84725,1008.107
34.941973209,-1.416133,-0.1941027,-0.01138653,-0.04098859,-0.5598933,-0.8398249,-1.596176,26.45427,44.86108,1008.111
34.974253654,-0.9823169,-0.07669719,0.04955418,-0.04241151,-0.5685787,-0.8311692,-1.317833,26.43968,43.98503,1008.111
35.009016991,0.3191299,-0.3115083,0.04955418,-0.04048018,-0.5695622,-0.8374637,-1.317833,26.43968,43.98503,1008.109
35.041297436,0.3811036,-0.2528055,-0.1332679,-0.04629694,-0.564751,-0.8408079,-1.2832,27.18562,45.28298,1008.111
35.076061249,0.4430773,0.4516278,-0.31609,-0.04533796,-0.5579405,-0.8311025,-0.9317468,26.81148,44.84636,1008.111
35.108341217,-0.238633,0.1581139,-0.1942087,-0.03468524,-0.5661566,-0.8369734,-0.9317468,26.81148,44.84636,1008.109
35.140621662,-0.9823169,0.2755195,-0.3770308,-0.04242316,-0.5661836,-0.8384072,-1.608823,26.81315,44.42074,1008.109
35.175385475,-1.416133,0.5103306,-0.01138653,-0.03855594,-0.5656886,-0.8384127,-1.294524,26.81547,44.85187,1008.112
35.207664966,-1.849948,0.4516278,-0.3770308,-0.04146672,-0.5613383,-0.8374149,-1.294524,26.81547,44.85187,1008.114
35.242428779,-2.531658,-0.0179944,0.1104949,-0.03808055,-0.5593683,-0.8301594,-1.970277,26.08811,44.43549,1008.112
35.274709701,-2.655606,-0.1354,0.2323763,-0.04389827,-0.5565157,-0.8402828,-1.596838,26.81879,44.85646,1008.112
35.309472561,-2.717579,-0.2528055,0.1104949,-0.03761666,-0.5579823,-0.8499734,-1.596838,26.81879,44.85646,1008.112
35.341753006,-3.151395,-0.8398333,0.3542577,-0.04001985,-0.5637931,-0.8490344,-1.282538,26.8211,45.28759,1008.112
35.374033928,-2.965474,-0.663725,0.3542577,-0.03954667,-0.5555272,-0.8378693,-1.595515,26.08976,44.8657,1008.114
35.408796787,-3.647184,-0.8398333,0.04955418,-0.0424582,-0.5506913,-0.8363853,-1.595515,26.08976,44.8657,1008.113
35.441077232,-3.089422,-0.6050222,-0.1332679,-0.04439567,-0.5521765,-0.844608,-1.584191,26.45991,45.29681,1008.113
35.475840568,-4.204947,-0.3702111,-0.07232723,-0.04827683,-0.5493085,-0.851835,-1.293862,26.45095,44.85648,1008.113
35.508121014,-3.461263,0.4516278,-0.4989121,-0.0424827,-0.5459061,-0.8523115,-1.293862,26.45095,44.85648,1008.115
35.540401459,-2.717579,0.4516278,-0.4989121,-0.03765072,-0.5449293,-0.8537667,-1.583529,26.09539,45.30142,1008.113
35.575164795,-1.973896,0.1581139,-0.31609,-0.04199596,-0.5410048,-0.8343974,-1.595515,26.08976,44.8657,1008.111
35.607445240,-1.106264,-0.2528055,0.1714356,-0.04249555,-0.539118,-0.8484054,-1.595515,26.08976,44.8657,1008.108
35.642208576,-1.787974,-0.2528055,0.1714356,-0.0415164,-0.5459066,-0.8532804,-1.596176,26.45427,44.86108,1008.108
35.674489021,-2.965474,0.1581139,0.1104949,-0.04103246,-0.5459036,-0.852798,-1.582868,25.73088,45.30604,1008.108
35.709252834,-2.841527,0.7451417,-0.5598529,-0.03521944,-0.548287,-0.8470228,-1.606839,25.7196,44.43459,1008.11
35.741532326,-4.019026,-0.0179944,-0.1942087,-0.04298126,-0.5366849,-0.8440395,-1.606839,25.7196,44.43459,1008.11
35.773813248,-3.957053,-0.1354,-0.31609,-0.04540883,-0.536244,-0.8546674,-1.594853,25.72524,44.87031,1008.11
35.808577061,-3.585211,-0.4289138,-0.01138653,-0.03720009,-0.5323589,-0.8575637,-1.945094,25.4311,45.3154,1008.113
35.840857506,-3.39929,0.04070837,-0.3770308,-0.04156014,-0.5304504,-0.8618944,-1.945094,25.4311,45.3154,1008.113
35.875620365,-3.089422,-0.2528055,-0.31609,-0.04010665,-0.529457,-0.8556072,-1.280003,25.42379,45.30529,1008.111
