Time (s),Gyroscope X (deg/s),Gyroscope Y (deg/s),Gyroscope Z (deg/s),Accelerometer X (g),Accelerometer Y (g),Accelerometer Z (g),Magnetometer X (uT),Magnetometer Y (uT),Magnetometer Z (uT),Barometer (hPa)
0.000000000,-0.01034714,0.2517338,0.059286,0.01395866,0.07026225,-1.003147,0.550107,6.075659,44.83764,1007.321
0.032277107,0.05153282,0.07517003,-0.1235864,0.01926693,0.07414233,-1.00507,0.550107,6.075659,44.83764,1007.321
0.064557552,-0.01063141,-0.1011527,-0.123522,0.01298699,0.07219519,-1.003134,0.5494456,6.440174,44.83303,1007.322
0.099321365,-0.07257792,0.01660468,0.05944102,0.01299386,0.06929163,-1.00315,0.9015603,5.70152,44.40101,1007.322
0.131602764,-0.01058035,-0.2176481,-0.1842011,0.008153869,0.07170235,-1.001675,0.9015603,5.70152,44.40101,1007.324
0.166366577,0.05147843,0.01738207,-0.001028982,0.01300499,0.06542838,-1.000755,0.550107,6.075659,44.83764,1007.32
0.198647499,0.2372866,-0.04120744,0.06010706,0.01153781,0.07073107,-1.005556,1.275661,6.067681,44.82661,1007.32
0.233407497,0.4844116,0.01756567,-0.0008106232,0.01008225,0.07314985,-1.004572,1.275661,6.067681,44.82661,1007.322
0.265688896,0.04947653,0.1348627,0.1210168,0.00768212,0.06637449,-1.002672,1.275661,6.067681,44.82661,1007.322
0.297969341,-0.1986388,0.1345526,-0.06193529,0.01444912,0.06784891,-1.001711,0.9128838,6.071671,44.83213,1007.322
0.332733154,-0.01221524,0.07575596,-0.1228143,0.01105369,0.07317063,-0.9992563,0.9128838,6.071671,44.83213,1007.324
0.365014076,0.05013862,0.01689182,-0.0007571494,0.01347524,0.07172739,-0.9987863,0.9248691,6.077305,45.26785,1007.325
0.399777889,0.1120087,0.01681758,-0.0006584367,0.0173455,0.07076897,-0.9992836,1.275661,6.067681,44.82661,1007.325
0.432055473,-0.01210349,0.1339339,-0.0008085049,0.009608209,0.06878982,-1.005563,1.275661,6.067681,44.82661,1007.323
0.466819286,0.111586,-0.04226524,-0.1226672,0.01394745,0.0731478,-1.008448,0.5507686,5.711143,44.84226,1007.323
0.499099732,0.1111699,-0.2767752,-0.1836239,0.01540882,0.06928708,-1.006539,0.914207,5.342639,44.84136,1007.325
0.531380654,0.1106778,0.07535459,-0.0004928468,0.01300728,0.06446053,-1.00076,0.914207,5.342639,44.84136,1007.325
0.566144467,0.04868467,0.134021,-0.06145021,0.008157345,0.07073942,-1.000231,1.275661,6.067681,44.82661,1007.325
0.598425865,-0.136949,-0.1008397,-0.06133362,0.01203226,0.06882295,-0.9978329,1.626452,6.058059,44.38536,1007.325
0.633185387,-0.1366782,0.2516539,-0.1220435,0.01492738,0.07076041,-0.9997618,1.276322,5.703165,44.83123,1007.325
0.665466309,-0.01262092,-0.2179451,0.1218156,0.01444406,0.06880529,-1.00509,1.276322,5.703165,44.83123,1007.326
0.697747231,0.110989,0.1343131,0.06089447,0.01491885,0.07267974,-1.004585,0.9368544,6.082939,45.70358,1007.326
0.732511044,0.1102882,-0.04190643,-0.1218511,0.01010152,0.06736564,-0.997837,1.276322,5.703165,44.83123,1007.328
0.764792442,0.04800104,0.1928546,0.06116178,0.01540903,0.07173129,-0.9992739,1.276322,5.703165,44.83123,1007.326
0.799556256,-0.07633178,0.07522836,0.0001054399,0.01154191,0.06781603,-1.008957,0.5620923,6.081293,45.27337,1007.326
0.831833363,0.04753792,0.07540049,-0.1217574,0.0139499,0.07413532,-1.002641,0.526798,5.699873,43.9708,1007.324
0.866597176,0.04729019,-0.1009282,0.1220427,0.01347622,0.06928809,-1.004601,0.526798,5.699873,43.9708,1007.324
0.898877621,0.04711686,0.01679677,0.0002372775,0.01541709,0.06883263,-0.9978401,1.275661,6.067681,44.82661,1007.326
0.931159019,-0.01493215,-0.04155078,0.2442286,0.01057033,0.07072668,-1.006037,1.287646,6.073316,45.26234,1007.326
0.965922832,-0.2622559,-0.1584242,0.1224599,0.01008225,0.07314985,-1.004572,1.287646,6.073316,45.26234,1007.326
0.998203754,0.172259,0.1940146,0.1225723,0.01444379,0.07027019,-1.001214,0.5381217,6.070024,44.40191,1007.328
1.032963753,0.2949059,0.1353069,0.0008982319,0.01201947,0.07170195,-1.005068,1.627114,5.693542,44.38998,1007.328
1.065244198,-0.0156977,-0.04092942,-0.06010344,0.01057617,0.06977355,-1.001692,1.627114,5.693542,44.38998,1007.329
1.100008488,0.04646119,0.1935462,-0.05985868,0.01154306,0.0673321,-1.008959,0.9255309,5.712789,45.27247,1007.325
1.132288933,0.04636884,0.1349012,-0.05982497,0.01589909,0.0693163,-0.9983218,1.275,6.432197,44.82199,1007.325
1.164570332,0.04614063,0.01757171,0.001130162,0.01299659,0.06881425,-1.001219,1.275,6.432197,44.82199,1007.325
1.199334145,-0.01595748,-0.1584113,0.001182523,0.01687538,0.06593648,-0.9968929,1.275,6.432197,44.82199,1007.327
1.266375065,0.170563,-0.09923416,-0.05950079,0.01347764,0.06733927,-1.00848,0.5614309,6.445808,45.26875,1007.33
1.298655510,0.2936399,-0.1574587,-0.05935371,0.01347081,0.07073169,-1.00701,1.287646,6.073316,45.26234,1007.329
1.333419323,0.2301442,0.019175,0.001561035,0.009609,0.0687931,-1.004596,1.649762,6.433843,45.2522,1007.329
1.365700722,-0.327585,-0.03958741,-0.1811144,0.01492989,0.06783882,-1.005096,1.649762,6.433843,45.2522,1007.33
1.397981167,-0.3263468,-0.03955458,-0.2418519,0.01588475,0.07267759,-1.006038,0.9248691,6.077305,45.26785,1007.328
1.432741642,-0.01545446,0.0197638,-0.1197879,0.01105329,0.07316899,-0.9997398,1.263014,6.426562,44.38626,1007.33
1.465022087,0.2941461,-0.0974461,-0.1195864,0.01153931,0.06975994,-1.006528,1.263014,6.426562,44.38626,1007.33
1.499785900,0.1070703,0.02038724,0.1242045,0.01347811,0.06831859,-1.00509,0.9008985,6.066036,44.3964,1007.33
1.532067299,-0.01731331,0.1377281,0.002371147,0.01251269,0.06930007,-1.000248,1.300293,5.714434,45.70268,1007.332
1.566831112,-0.07934715,0.1965073,0.002341595,0.01830824,0.07075371,-1.004604,1.275661,6.067681,44.82661,1007.329
1.599112034,0.04449592,-0.09705269,-0.05870406,0.009614849,0.06784,-1.00025,1.275661,6.067681,44.82661,1007.329
1.631388664,-0.01789239,0.1376754,-0.05834989,0.013484,0.06785433,-0.9992918,0.9135456,5.707154,44.83674,1007.331
1.666152477,-0.07980677,-0.09735332,-0.240935,0.01202413,0.07074393,-1.002173,0.9128838,6.071671,44.83213,1007.331
1.698433876,-0.1414164,-0.0968826,0.1250417,0.01298431,0.07316142,-1.003612,0.9128838,6.071671,44.83213,1007.331
1.733197689,-0.01715926,-0.2136052,-0.05766026,0.01395708,0.0702557,-1.00508,0.9248691,6.077305,45.26785,1007.329
1.765478611,-0.01722553,-0.03668145,-0.05755899,0.01347622,0.06928809,-1.004601,0.9248691,6.077305,45.26785,1007.329
1.797759056,0.1064226,-0.09492177,0.2472836,0.01008707,0.07414719,-0.9958646,0.9248691,6.077305,45.26785,1007.327
1.832519055,0.04411796,0.1398093,0.003600982,0.011057,0.07025232,-1.003624,0.9128838,6.071671,44.83213,1007.327
1.864799977,0.2299756,0.02222031,0.003796611,0.01346513,0.07364017,-1.005544,1.263014,6.426562,44.38626,1007.329
1.899564266,0.105466,-0.03643285,-0.1179105,0.01203064,0.06832755,-1.00122,1.263014,6.426562,44.38626,1007.329
1.931845188,-0.1427222,-0.0364132,-0.1178122,0.01299875,0.06637986,-1.005584,0.5507686,5.711143,44.84226,1007.33
1.966609001,-0.08047172,-0.09515846,-0.1178493,0.01879791,0.06833708,-1.004135,1.299632,6.078951,45.69806,1007.33
1.998889446,-0.2040519,-0.09475181,0.004187618,0.01203051,0.06686103,-1.005579,1.299632,6.078951,45.69806,1007.33
2.031166554,-0.07975876,-0.1531786,-0.05661733,0.01299359,0.07075652,-0.9992743,0.5494456,6.440174,44.83303,1007.328
2.065930367,0.1060845,0.02308667,-0.2392101,0.008649607,0.06637888,-1.00219,1.275661,6.067681,44.82661,1007.328
2.098211765,0.3529051,0.08180611,-0.05640657,0.01056275,0.07460465,-1.004081,1.275661,6.067681,44.82661,1007.33
2.132975578,0.1035783,0.02302033,0.1264528,0.01492584,0.0712427,-1.000242,0.9128838,6.071671,44.83213,1007.332
2.165256023,-0.2682383,0.08159249,0.1263195,0.01395523,0.07171404,-1.003138,1.651084,5.704811,45.26144,1007.332
2.200020790,-0.2051067,0.08158408,-0.178174,0.01298968,0.07122898,-1.002656,1.651084,5.704811,45.26144,1007.332
2.232296944,-0.08045973,-0.2701364,-0.1170996,0.01251031,0.06929024,-1.003149,0.9128838,6.071671,44.83213,1007.332
2.264578342,0.3524979,-0.2695138,0.004781323,0.01009255,0.06879449,-1.004597,0.9122224,6.436186,44.82751,1007.328
2.299342156,0.4748786,-0.1517169,0.004664503,0.01203099,0.06784035,-1.002189,0.9122224,6.436186,44.82751,1007.329
2.331622601,0.101937,0.02443898,-0.05633351,0.01154322,0.06928748,-1.003147,1.263014,6.426562,44.38626,1007.328
2.366386890,-0.1459966,0.375867,0.0654132,0.01057688,0.06879915,-1.003631,0.5627539,5.716777,45.27798,1007.328
2.398667812,-0.1449933,0.2576475,0.06564371,0.0149239,0.07172335,-1.001207,0.5627539,5.716777,45.27798,1007.329
2.433427334,-0.08193639,0.1396265,-0.1169122,0.01444533,0.0697879,-1.000733,0.9248691,6.077305,45.26785,1007.329
2.465708733,0.1040851,-0.03684849,0.1271934,0.01492324,0.0731866,-0.9978143,0.9015603,5.70152,44.40101,1007.331
2.497989178,0.4750943,0.1979655,0.06623095,0.01154682,0.06979106,-0.9973428,1.637115,6.792725,44.81186,1007.327
2.532752991,0.7209228,0.1974647,-0.05578839,0.01203064,0.06832755,-1.00122,1.637115,6.792725,44.81186,1007.327
2.565033913,0.5944449,0.3135495,0.187743,0.009117005,0.07168875,-1.006512,0.5387833,5.705508,44.40653,1007.327
2.599797726,0.3444273,0.6637459,0.06543885,0.01251441,0.0663752,-1.00655,1.263014,6.426562,44.38626,1007.327
2.632075310,-0.1519689,0.6028526,0.1261322,0.01590059,0.06834517,-0.9992942,1.263014,6.426562,44.38626,1007.325
2.664355755,0.09569055,0.71769,0.1868644,0.01541009,0.07026967,-1.002183,0.5374603,6.43454,44.3973,1007.325
2.699119568,0.3425038,0.7733347,0.00350886,0.009615243,0.06784163,-0.9997669,0.911561,6.800702,44.8229,1007.325
2.731400490,0.6500622,0.4775154,-0.05763734,0.01686499,0.06931415,-0.9997742,0.911561,6.800702,44.8229,1007.327
2.766164303,0.6470923,0.1240865,0.1248647,0.02121863,0.06640173,-1.006085,0.9122224,6.436186,44.82751,1007.323
2.798445702,0.2734098,-0.1694175,0.06370185,0.01590552,0.06592225,-1.000275,0.9008985,6.066036,44.3964,1007.324
2.833205223,-0.3461465,-0.2276525,0.1245921,0.015905,0.06445408,-1.005118,0.9008985,6.066036,44.3964,1007.324
2.865486145,-0.7156634,-0.3443877,-0.1192771,0.012513,0.06832402,-1.002671,0.5374603,6.43454,44.3973,1007.324
2.897767067,-0.6506754,-0.2257993,-0.1798654,0.01153465,0.07071798,-1.009423,0.9135456,5.707154,44.83674,1007.326
2.932530880,-0.1528277,0.1267085,0.06420902,0.01250337,0.07121613,-1.006039,0.9135456,5.707154,44.83674,1007.326
2.964811325,-0.09003663,0.1848764,0.003350628,0.01395413,0.0726868,-1.001682,0.9008985,6.066036,44.3964,1007.326
2.999576092,0.1582139,0.1842307,0.125179,0.01781642,0.07560471,-1.000707,1.275,6.432197,44.82199,1007.326
3.032029152,0.7144565,0.5942703,0.1249171,0.01781581,0.07315885,-1.008456,1.275,6.432197,44.82199,1007.326
3.066792965,0.587179,0.1234203,0.002621157,0.02023406,0.07463394,-1.003619,0.9128838,6.071671,44.83213,1007.328
3.099074364,0.2133324,0.005751251,-0.1803261,0.01686456,0.06882367,-1.001711,0.9008985,6.066036,44.3964,1007.325
3.131354809,0.08904061,-0.1699388,-0.1192428,0.0139734,0.06690259,-0.9949473,0.9008985,6.066036,44.3964,1007.325
3.166118622,-0.09662984,0.1239712,0.00281815,0.01637173,0.07122719,-1.006047,0.5381217,6.070024,44.40191,1007.327
3.198399544,-0.03439825,0.1236498,-0.05803859,0.0149284,0.06880995,-1.004124,1.649762,6.433843,45.2522,1007.329
3.233159542,0.2752322,0.1818096,-0.0579941,0.01589637,0.06979368,-1.000253,1.649762,6.433843,45.2522,1007.329
3.265440464,0.02670136,0.2398819,0.003183106,0.01589553,0.06930156,-1.002673,1.286323,6.802347,45.25311,1007.329
3.300204277,0.02611794,0.1222703,0.1860867,0.01880442,0.06592071,-1.003182,0.5381217,6.070024,44.40191,1007.331
3.332485199,0.0879463,0.004807973,-0.05786113,0.01927617,0.07124858,-1.002186,0.550107,6.075659,44.83764,1007.327
3.364766121,0.1497363,-0.229673,-0.05793118,0.01831938,0.06689046,-1.002208,0.550107,6.075659,44.83764,1007.328
3.399529934,0.02495672,0.06389179,0.1857613,0.01639589,0.06253122,-1.001745,0.911561,6.800702,44.8229,1007.328
3.431806564,-0.284702,-0.3466989,0.1247322,0.01638176,0.06833672,-1.002196,0.9122224,6.436186,44.82751,1007.33
3.466570854,-0.7784832,-0.1113049,0.002819277,0.01928884,0.06690306,-0.9993097,0.9122224,6.436186,44.82751,1007.332
3.498851299,-0.4662578,-0.1698116,-0.1798424,0.01155775,0.06348361,-1.002213,1.625129,6.78709,44.37613,1007.33
3.533615112,-0.09303056,-0.1108054,0.06423226,0.01686716,0.06687976,-1.004139,0.9128838,6.071671,44.83213,1007.33
3.565896511,0.2166918,-0.1109796,0.06393217,0.01782021,0.07366572,-1.001685,0.9128838,6.071671,44.83213,1007.33
3.598176956,0.09213336,0.006252194,0.002979311,0.01492817,0.07076368,-0.9987949,1.263676,6.062047,44.39088,1007.331
3.632937431,0.5243196,0.1231145,0.002813206,0.01541032,0.06831594,-1.007512,0.9122224,6.436186,44.82751,1007.333
3.665217877,0.4599753,0.005170236,0.002591538,0.01735074,0.06737,-1.002687,0.9122224,6.436186,44.82751,1007.331
3.699981690,0.7050541,0.1807406,-0.1801273,0.01929219,0.06447358,-1.002224,0.9135456,5.707154,44.83674,1007.331
3.732263088,0.3309212,0.00413492,0.002683509,0.01542726,0.06301074,-1.002224,0.550107,6.075659,44.83764,1007.331
3.764543534,-0.165575,0.06267411,-0.2409945,0.02025395,0.06689763,-1.001729,0.550107,6.075659,44.83764,1007.332
3.799307347,-0.1024858,-0.523064,-0.1794354,0.02025246,0.06786877,-1.000757,1.275661,6.067681,44.82661,1007.334
3.831584454,0.51656,-0.05210139,0.0646574,0.01058092,0.06979321,-0.9958904,0.5507686,5.711143,44.84226,1007.336
3.866348267,0.01906749,0.1233885,0.1250083,0.02750191,0.06591938,-1.010936,0.5507686,5.711143,44.84226,1007.333
3.898629666,-1.589525,-0.8724279,-0.3016082,0.02219478,0.06595332,-0.9964207,0.5261364,6.064389,43.96619,1007.333
3.933393478,-2.571346,-1.33741,-0.4832402,0.01733874,0.07025227,-1.008955,0.5381217,6.070024,44.40191,1007.335
3.965673923,-1.384706,-1.214884,-0.4206163,0.005717369,0.07406104,-1.01761,0.5381217,6.070024,44.40191,1007.337
3.997954845,0.7242892,0.1374691,0.1283219,-0.004413993,0.06679764,-1.010378,0.9255309,5.712789,45.27247,1007.337
4.032714844,2.390277,1.425141,0.4318696,0.00816469,0.06881516,-0.9968578,0.9128838,6.071671,44.83213,1007.337
4.064995289,1.761244,1.712698,0.4912792,0.02267647,0.06741305,-0.9944797,0.9128838,6.071671,44.83213,1007.337
4.099760056,-0.2252682,1.178292,0.06370398,0.02942514,0.07174353,-1.007523,1.276322,5.703165,44.83123,1007.337
4.132040501,-1.645914,-0.1153756,0.002809837,0.02507102,0.07367663,-1.004602,0.9128838,6.071671,44.83213,1007.335
4.166804314,-0.5865961,-0.6415735,-0.179241,0.01926468,0.07559903,-1.003611,0.9128838,6.071671,44.83213,1007.331
4.199085236,0.5905139,-0.4622057,-0.2393174,0.01346844,0.07072186,-1.009911,0.5494456,6.440174,44.83303,1007.331
4.231361866,1.391781,-0.1668081,-0.1173014,0.009131009,0.06441671,-1.010421,1.275661,6.067681,44.82661,1007.331
4.266125679,0.6434469,-0.0488367,-0.1171882,0.01106967,0.06590679,-1.000748,1.264337,5.697531,44.3955,1007.331
4.298407078,0.1459101,0.4197874,0.06582497,0.0178324,0.06834086,-1.002199,1.264337,5.697531,44.3955,1007.331
4.333170891,-0.1023331,0.5936111,0.06553604,0.01926728,0.07365513,-1.006039,0.9128838,6.071671,44.83213,1007.331
4.365451813,-0.1637144,0.23973,0.1260568,0.01831111,0.06734491,-1.010908,0.9128838,6.071671,44.83213,1007.325
4.400215626,-0.6576189,-0.05408096,-0.1179344,0.02218119,0.06882904,-1.004623,0.9128838,6.071671,44.83213,1007.325
4.432492256,-0.6550353,-0.4054141,0.06506301,0.01493974,0.06739093,-0.9944631,0.9135456,5.707154,44.83674,1007.325
4.464773655,-0.590955,-0.4619486,-0.1175657,0.01444102,0.07025872,-1.004598,0.9008985,6.066036,44.3964,1007.327
4.499537468,-0.341516,-0.4007029,0.004659944,0.01345774,0.07507558,-1.01037,0.9008985,6.066036,44.3964,1007.327
4.531817913,-0.4637794,-0.1645165,0.00473665,0.01298479,0.07414074,-1.000222,0.1879916,5.715131,44.84777,1007.327
4.566582203,-0.8330415,0.1295168,-0.1171847,0.01057736,0.06977847,-1.000241,0.9255309,5.712789,45.27247,1007.329
4.598862648,-0.4588343,0.01150934,-0.05603398,0.01251995,0.06639814,-0.9997814,0.9255309,5.712789,45.27247,1007.329
4.633622646,0.2846279,0.2454599,0.06603586,0.0168631,0.07028365,-0.9992853,0.9135456,5.707154,44.83674,1007.331
4.665903568,0.8396947,0.1858484,0.06605322,0.01540974,0.07075688,-1.001213,0.9008985,6.066036,44.3964,1007.328
4.698184490,0.7742594,0.008780154,-0.05596358,0.01928628,0.0693358,-0.9954284,0.9008985,6.066036,44.3964,1007.328
4.732948303,0.2142065,-0.2260139,0.06610595,0.0207441,0.06546033,-0.9978707,0.9128838,6.071671,44.83213,1007.328
4.765229225,-0.03415296,-0.400427,0.005201759,0.02460741,0.06642778,-1.001258,0.1879916,5.715131,44.84777,1007.328
4.799993038,-0.4671769,-0.6908947,-0.05564698,0.009614993,0.06490856,-1.008486,0.1879916,5.715131,44.84777,1007.327
4.832269669,-0.8987765,-0.453746,-0.3598368,0.01251125,0.0663621,-1.010417,1.288308,5.708799,45.26695,1007.325
4.864550591,-1.266235,-0.04235814,0.006203787,0.01154445,0.06978124,-1.000243,1.287646,6.073316,45.26234,1007.327
4.899314404,-1.508008,-0.1017034,-0.1155903,0.01831958,0.06933468,-0.9949428,1.287646,6.073316,45.26234,1007.322
4.931595802,-0.5737536,-0.2774335,-0.1763465,0.02167374,0.0804567,-1.000205,0.9135456,5.707154,44.83674,1007.324
4.966359615,0.5415486,-0.2174391,0.006466145,0.01780385,0.07652998,-1.013272,1.287646,6.073316,45.26234,1007.324
4.998640060,0.6621029,-0.4510509,-0.115537,0.01153438,0.07218285,-1.005548,1.287646,6.073316,45.26234,1007.324
5.033400059,0.2878995,-0.3906076,-0.1763143,0.01252676,0.06740367,-0.9886566,1.275661,6.067681,44.82661,1007.322
5.065680981,0.1010774,-0.3890891,-0.2976299,0.01541361,0.06979558,-0.9992849,0.9002371,6.430552,44.39178,1007.324
5.097961426,0.3487154,0.0810144,0.00754124,0.005725194,0.07311611,-1.010848,0.9002371,6.430552,44.39178,1007.322
5.132726193,0.3479813,0.08087979,0.06873555,0.0183067,0.07123599,-1.005084,1.637115,6.792725,44.81186,1007.322
5.165006638,0.3460578,-0.1532853,-0.1137742,0.01976958,0.06640413,-1.004148,0.9135456,5.707154,44.83674,1007.324
5.199770451,0.4060267,-0.1528338,0.008319653,0.01301409,0.06546606,-0.9896356,0.9128838,6.071671,44.83213,1007.324
5.232047558,0.2186839,0.1405298,0.008266581,0.01154687,0.07027991,-0.9958898,0.9128838,6.071671,44.83213,1007.324
5.266811371,-0.02999541,0.02320683,-0.1135748,0.01782813,0.06930053,-1.004611,0.9002371,6.430552,44.39178,1007.322
5.299091816,-0.5869749,0.1992205,0.1300586,0.02073091,0.06833769,-1.005589,1.275661,6.067681,44.82661,1007.322
5.331373215,-0.6470029,-0.2699432,-0.05270094,0.01637356,0.0741668,-0.9953947,1.275661,6.067681,44.82661,1007.318
5.366137028,-0.2734684,-0.3274615,-0.05239336,0.01588704,0.07170974,-1.006043,0.9268537,4.983757,45.2817,1007.319
5.398417473,-0.08697703,-0.3266051,0.1304892,0.01783055,0.06979921,-1.000257,0.550107,6.075659,44.83764,1007.319
5.433177948,-0.02466017,-0.3248219,-0.05229424,0.01104239,0.0750785,-1.007464,0.550107,6.075659,44.83764,1007.319
5.465458393,-0.1479044,-0.03020502,0.06959004,0.0149166,0.07413644,-1.003127,1.275,6.432197,44.82199,1007.319
5.500222206,-0.02323024,0.02866707,0.1305694,0.01298246,0.07461976,-1.001669,1.276322,5.703165,44.83123,1007.319
5.532503605,0.2861105,0.08712407,-0.1739781,0.01348602,0.06835135,-0.9954215,1.276322,5.703165,44.83123,1007.319
5.564784050,0.5943847,0.02808451,-0.05199908,0.01637714,0.0697836,-1.003638,1.288308,5.708799,45.26695,1007.317
5.599547863,-0.08799041,0.2038855,0.06993856,0.01541533,0.0668707,-1.005586,1.288308,5.708799,45.26695,1007.317
5.631824970,-0.2110154,-0.2066683,0.07016954,0.01734506,0.07027848,-1.00122,1.288308,5.708799,45.26695,1007.317
5.666588783,0.09940937,-0.2057794,0.009111866,0.01395452,0.07268844,-1.001199,0.1873302,6.079647,44.84316,1007.315
5.698869229,0.2846918,-0.3808093,0.07001551,0.01395875,0.07123993,-1.00024,0.9248691,6.077305,45.26785,1007.315
5.731150627,0.1593313,-0.1452378,0.009018526,0.01395993,0.07124484,-0.9987901,0.9248691,6.077305,45.26785,1007.314
5.765914440,0.0968142,-0.08608179,0.008997894,0.01057965,0.06881061,-1.000247,1.626452,6.058059,44.38536,1007.31
5.798194885,0.09706093,-0.08613591,-0.1127481,0.01249279,0.07703637,-1.002138,1.286985,6.437831,45.25772,1007.31
5.832955361,0.1588804,-0.2034944,0.07010999,0.01589047,0.07025795,-1.006051,1.286985,6.437831,45.25772,1007.311
5.865235806,0.4677316,0.08998373,0.008921552,0.01686073,0.07027382,-1.002186,1.264337,5.697531,44.3955,1007.313
5.899999619,0.1564711,-0.1447253,0.1307636,0.01733776,0.07269157,-1.00314,0.9248691,6.077305,45.26785,1007.315
5.932281017,-0.02993217,-0.2023959,-0.1128058,0.01783306,0.06687761,-1.005592,0.9248691,6.077305,45.26785,1007.316
5.964561462,0.3412543,-0.2597951,0.009382617,0.0134694,0.0726805,-1.003132,0.5620923,6.081293,45.27337,1007.316
5.999325275,0.8971884,-0.1407522,-0.1124253,0.01251648,0.06736108,-1.001226,0.9242077,6.44182,45.26324,1007.316
6.031748295,1.512781,-0.9598444,-0.2339248,0.01057349,0.07073978,-1.00217,0.9242077,6.44182,45.26324,1007.316
6.066512108,2.805215,-1.189485,-0.1114945,0.01009839,0.06784138,-1.000251,1.275,6.432197,44.82199,1007.316
6.098793507,3.481681,-1.773664,0.07159507,0.01202848,0.07076195,-0.996855,0.9008985,6.066036,44.3964,1007.312
6.133557320,5.15497,-2.30199,0.07159507,0.01107424,0.06397108,-1.000759,0.5740776,6.086927,45.7091,1007.314
6.165837765,6.146548,-2.712909,0.1325358,0.01350165,0.06157472,-0.9959435,0.5740776,6.086927,45.7091,1007.314
6.198118687,7.324048,-4.180478,-0.2331085,0.002880456,0.05477258,-0.9949924,0.9122224,6.436186,44.82751,1007.316
6.232878685,10.7326,-4.297884,0.3153579,0.00770894,0.05182551,-1.01194,0.9008985,6.066036,44.3964,1007.316
6.265160084,12.65378,-4.297884,0.7419429,0.001430982,0.04988657,-1.007586,0.9008985,6.066036,44.3964,1007.315
6.299923897,11.72418,-5.06102,0.5591207,-0.0009490413,0.03781911,-0.9965308,0.9008985,6.066036,44.3964,1007.315
6.332204342,13.33549,-7.643941,0.49818,-0.005262247,0.02819362,-0.9772387,1.26103,7.52011,44.37242,1007.315
6.366968155,11.35233,-10.22686,0.2544172,-0.01685411,0.01648719,-0.9946841,1.26103,7.52011,44.37242,1007.315
6.399249077,2.985892,-11.92924,-1.147219,-0.01779547,-0.00148973,-1.015089,1.623145,7.880637,44.36229,1007.317
6.431525707,-5.628447,-13.22071,-2.305093,-0.01442918,0.01750127,-0.9830809,1.985922,7.876649,44.35677,1007.317
6.466289520,-17.77528,-13.74903,-4.072373,-0.03430608,0.02504985,-1.023604,1.985922,7.876649,44.35677,1007.319
6.498570919,-20.50212,-11.10741,-4.072373,-0.03967508,0.0458403,-1.024441,2.710153,8.597703,44.33651,1007.319
6.533334732,-11.51595,-8.230969,-2.97544,-0.03540512,0.07678812,-1.03491,3.074914,7.500168,44.34484,1007.316
6.565615177,2.923918,-6.235075,-1.390982,-0.05522375,0.07236135,-1.039244,3.074914,7.500168,44.34484,1007.316
6.600379467,15.4426,-3.769559,-0.1112271,-0.05226906,0.05451015,-1.025815,3.427028,6.761513,43.91283,1007.318
6.632656098,20.58641,-3.065125,0.1934765,-0.05219367,0.03478702,-0.9911197,3.789805,6.757524,43.90731,1007.32
6.664937496,23.68509,-2.536801,0.6200615,-0.0579726,0.01971951,-1.005696,3.789805,6.757524,43.90731,1007.32
6.699701309,25.85417,-1.127934,0.6810021,-0.05940177,0.002700874,-1.028512,3.801129,7.127675,44.33842,1007.318
6.731981754,23.18931,-1.010528,0.5591207,-0.0608086,-0.007383872,-1.004394,3.786498,8.580103,43.88424,1007.318
6.766745568,21.39207,-0.8344198,0.6810021,-0.05355523,-0.009805711,-1.011191,3.786498,8.580103,43.88424,1007.318
6.799026489,21.02023,-0.540906,0.5591207,-0.05785658,-0.0286668,-1.004038,4.160599,8.946264,44.30983,1007.318
6.831306935,22.56957,-0.3060949,0.8028836,-0.0592578,-0.04703566,-0.9968877,3.78319,10.40268,43.86116,1007.318
6.866066933,25.23444,-0.3060949,1.716994,-0.05539634,-0.0538946,-1.024974,3.78319,10.40268,43.86116,1007.318
6.898348332,30.56417,-2.94772,1.656053,-0.06163302,-0.07227729,-1.017814,3.757236,11.48496,42.97586,1007.316
6.933112144,39.6743,-5.765453,1.777935,-0.0823624,-0.1018842,-1.026156,4.130674,12.21564,43.39684,1007.31
6.965392590,50.08588,-7.17432,1.412291,-0.09440827,-0.1193337,-1.024296,4.130674,12.21564,43.39684,1007.31
7.000156879,52.56482,-9.052809,-3.036381,-0.06339478,-0.1404709,-1.004662,3.753928,13.30754,42.95278,1007.312
7.032437325,49.59008,-12.51627,-9.06951,-0.1044038,-0.1788106,-1.002374,4.452203,15.11087,42.04721,1007.312
7.064713955,54.54798,-18.21044,-16.62616,-0.1048317,-0.1854231,-0.9540668,4.424925,16.92218,41.15268,1007.312
7.099478245,57.33679,-23.7285,-24.97504,-0.08147041,-0.2575424,-0.9782156,4.424925,16.92218,41.15268,1007.312
7.131759167,58.63824,-24.08072,-26.49855,-0.01364327,-0.2861274,-0.9026245,5.509949,18.7328,41.11305,1007.314
7.166522980,69.42165,-27.8964,-21.86706,-0.1529855,-0.2966349,-1.029528,5.083276,20.8957,38.91224,1007.314
7.198803902,77.29231,-24.08072,-24.36563,-0.03814551,-0.363728,-0.9329861,5.083276,20.8957,38.91224,1007.314
7.233567715,81.81639,-23.84591,-21.31859,-0.1140404,-0.3638549,-0.9062341,6.143667,23.05956,37.99654,1007.315
7.265844345,97.06191,-25.95921,-21.37954,-0.1584013,-0.4137957,-0.8972371,6.805053,26.30486,35.82758,1007.313
7.298125267,91.6702,-26.60494,-21.68424,-0.1383109,-0.5089091,-0.8494774,6.805053,26.30486,35.82758,1007.315
7.332889080,90.4927,-27.30937,-20.16072,-0.1705958,-0.5505607,-0.8322408,6.36441,29.55569,33.1772,1007.315
7.365170002,96.00835,-29.30527,-19.79508,-0.1579441,-0.5819587,-0.8261619,6.651307,31.70498,30.52962,1007.315
7.399933815,106.7918,-30.47932,-18.27156,-0.1542975,-0.6732232,-0.7710933,6.651307,31.70498,30.52962,1007.315
7.432214737,100.0986,-24.78515,-14.98076,-0.1827548,-0.6832691,-0.712593,6.915393,34.14758,27.069,1007.315
7.466974735,87.51797,-22.90667,-12.60407,-0.1429668,-0.7285221,-0.6766781,6.813557,37.38315,23.54164,1007.316
7.499255180,73.82178,-23.78721,-7.606934,-0.1109453,-0.7421569,-0.5859382,6.813557,37.38315,23.54164,1007.316
7.531536102,37.50522,-17.56471,-5.230246,-0.1054872,-0.7840796,-0.5378445,6.725029,39.89532,20.45924,1007.316
7.566300392,-0.4846332,-6.939508,-1.512863,-0.1074023,-0.7967115,-0.5509651,6.665492,40.59698,18.33362,1007.314
7.598580837,-13.87094,0.3396357,-0.05028634,-0.1858497,-0.7680833,-0.6047783,6.665492,40.59698,18.33362,1007.316
7.633344650,-4.141079,4.390128,-3.645788,-0.2299136,-0.7684629,-0.6796185,7.002975,41.31075,17.44742,1007.318
7.665621758,25.91615,-2.243287,-2.244152,-0.2342056,-0.8258902,-0.7717891,7.040255,40.59863,18.76383,1007.319
7.697902203,73.51192,-9.992053,14.02702,-0.2535479,-0.850381,-0.8424687,7.040255,40.59863,18.76383,1007.319
7.732666493,62.35666,-1.069231,25.84951,-0.2478964,-0.7302886,-0.680813,6.301392,41.33,18.32991,1007.319
7.764947415,-181.8196,12.54981,19.45074,-0.1853144,-0.6408606,-0.762624,7.304502,42.00762,15.25404,1007.318
7.831992150,-63.69777,32.50876,12.38162,-0.2640957,-1.034266,-1.260699,8.159522,42.42533,19.96914,1007.315
7.866752148,28.20917,24.46648,12.99102,-0.2391481,-0.3841957,-0.8050414,8.4081,36.70497,28.69529,1007.315
7.899032593,-18.89081,26.81459,8.664235,-0.2361023,-0.4422294,-0.7966762,8.037968,34.15171,28.29739,1007.315
7.931313515,-9.284894,16.24809,6.348488,-0.2248883,-0.4740664,-0.7760934,8.037968,34.15171,28.29739,1007.317
7.966077328,-4.388974,6.209914,6.348488,-0.2163512,-0.404364,-0.7781327,8.391133,33.77838,27.923,1007.319
7.998358250,-11.88779,2.452936,12.44256,-0.1619035,-0.3536966,-0.8669147,8.037968,34.15171,28.29739,1007.319
8.033122063,-19.26265,4.096613,18.35381,-0.1771171,-0.2657284,-0.8852358,8.037968,34.15171,28.29739,1007.319
8.065399170,-22.23739,8.792836,24.26505,-0.1997831,-0.3285805,-0.9919009,8.393007,32.74558,27.93608,1007.319
8.100162983,-20.75002,14.3109,34.74685,-0.2125041,-0.256421,-0.964874,8.756446,32.37708,27.93518,1007.32
8.132443428,-17.40344,24.81869,41.14563,-0.2380167,-0.3131909,-0.9878634,8.756446,32.37708,27.93518,1007.32
8.164724350,11.97207,29.98454,47.05688,-0.2891903,-0.3501357,-0.9937646,8.783062,30.93029,28.8251,1007.316
8.199488163,16.6201,39.43568,54.7354,-0.2995877,-0.2192305,-0.9122635,9.133464,30.19083,28.33084,1007.318
8.231769085,3.233787,42.54693,63.44993,-0.316339,-0.2786694,-0.8734068,9.133464,30.19083,28.33084,1007.318
8.266528606,14.94681,44.42542,71.43317,-0.3679222,-0.3426746,-0.8673749,9.496241,30.18684,28.32533,1007.318
8.298810005,11.72418,44.0145,78.92887,-0.4129665,-0.2541745,-0.7033723,9.111205,30.18036,27.52164,1007.318
8.333573818,-2.219896,34.62206,85.32764,-0.5248819,-0.3413484,-0.6286938,9.111205,30.18036,27.52164,1007.318
8.365854263,-7.239762,20.00507,90.50761,-0.6065047,-0.346558,-0.5260585,10.18689,30.52728,27.06475,1007.318
8.398135185,-22.98107,1.161475,88.19186,-0.6893111,-0.4738102,-0.4502203,10.55165,29.42974,27.07308,1007.318
8.432899475,-4.512921,-29.59878,79.47733,-0.7063122,-0.6099805,-0.3484689,10.55165,29.42974,27.07308,1007.314
8.465175629,11.60023,-52.96249,70.27529,-0.619704,-0.6495823,-0.3981915,13.43254,27.9285,26.17597,1007.312
8.499939442,44.69416,-67.75558,63.75463,-0.5076392,-0.6311802,-0.4892148,15.59788,27.53442,25.71176,1007.312
8.532220841,44.07443,-74.33029,59.54972,-0.5356319,-0.6403257,-0.4510149,15.59788,27.53442,25.71176,1007.312
8.566984654,72.02455,-82.8422,52.23684,-0.4217581,-0.7944012,-0.6029692,19.17837,27.10748,23.91832,1007.315
8.599265099,75.61903,-78.08727,47.30064,-0.3594458,-0.774457,-0.6252283,22.36079,26.30311,20.82782,1007.315
8.631546497,93.0956,-75.56306,37.18448,-0.3311407,-0.902311,-0.6782276,22.36079,26.30311,20.82782,1007.317
8.666306019,81.38258,-78.26338,38.4033,-0.3000924,-0.923304,-0.6160502,25.19214,26.60272,18.22696,1007.311
8.698586464,112.9272,-75.85657,44.92395,-0.2983468,-0.8444264,-0.6180227,27.63702,25.80069,14.71177,1007.315
8.733351231,97.12389,-68.75353,51.01802,-0.3641166,-0.5974261,-0.5033519,27.63702,25.80069,14.71177,1007.317
8.765631676,82.00231,-63.76379,50.89614,-0.4452019,-0.6747341,-0.5422918,30.09058,26.82688,11.60923,1007.317
8.797912121,74.00771,-56.24984,64.12028,-0.4740441,-0.5216928,-0.4818965,32.17373,26.39416,8.157187,1007.318
8.832676411,79.58533,-53.96043,71.25034,-0.5715122,-0.3222684,-0.2422173,33.20478,24.89596,5.980469,1007.32
8.864953041,51.07745,-56.13244,76.91782,-0.7130207,-0.3635044,-0.1527106,33.20478,24.89596,5.980469,1007.322
8.899716854,51.63522,-67.05115,80.20863,-0.7137981,-0.456057,-0.1885262,34.998,23.04217,5.104518,1007.323
8.931998253,146.5169,-79.49614,91.72642,-0.9012997,-0.5509227,-0.3206403,37.57803,20.47954,6.4054,1007.323
8.966762066,162.4441,-84.42717,88.00903,-0.8510773,-0.1161847,0.2603995,37.57803,20.47954,6.4054,1007.325
8.999042511,3.29576,-32.53392,90.62949,-0.987715,-0.5158972,-0.05049608,35.76075,15.75514,6.057258,1007.329
9.031397820,16.86799,-42.86561,100.9894,-0.9364975,-0.4689971,0.03716262,27.94429,6.989906,-1.496972,1007.33
9.066157341,28.08522,-45.62464,107.9976,-1.139584,-0.4993742,-0.04427355,27.94429,6.989906,-1.496972,1007.332
9.098437786,-8.417262,-28.83565,110.1915,-1.362795,-0.5906189,-0.07718513,27.39376,-0.02608204,-8.686617,1007.332
9.133201599,-12.3216,-30.24451,104.0364,-1.243234,-0.4285472,-0.04799839,27.6566,-4.454971,-12.55828,1007.335
9.165482998,-61.71461,-23.6111,92.51865,-1.288987,-0.3004197,-0.04233687,27.6566,-4.454971,-12.55828,1007.337
9.200246811,-106.1497,-21.96742,74.35831,-1.253077,-0.3471898,-0.02237577,26.86802,-8.428917,-15.04936,1007.341
9.232527256,-172.5855,-41.51545,65.58286,-1.211167,-0.3057006,-0.09571289,25.6791,-12.47734,-18.90358,1007.342
9.264804363,-101.7496,-23.90461,57.66056,-1.106732,-0.1310415,-0.1950167,25.6791,-12.47734,-18.90358,1007.342
9.299568176,-81.48421,-14.80568,38.708,-0.9850299,-0.2309601,-0.08030525,24.10852,-11.78789,-23.18577,1007.344
9.331848621,-44.85777,-15.62752,33.22334,-0.8980198,-0.1751192,0.04503536,24.07058,-10.71125,-24.5068,1007.347
9.366612434,-23.10502,-1.89107,33.28428,-0.8639852,-0.06825627,-0.008575513,24.07058,-10.71125,-24.5068,1007.347
9.398893833,-16.41186,2.394233,26.15421,-1.017353,0.0135448,0.1266161,23.65722,-9.271734,-26.26266,1007.349
9.433657646,-3.521343,-0.540906,13.72231,-1.030794,-0.04277377,0.08378223,24.73356,-9.289334,-26.71493,1007.352
9.465934277,21.0822,-1.538853,9.700227,-1.128793,0.1471695,0.2392904,24.73356,-9.289334,-26.71493,1007.352
9.498215199,-14.61463,-18.97358,15.18489,-1.285835,0.1745409,0.4524975,25.08369,-8.934442,-27.16079,1007.354
9.532979012,59.38192,-32.47522,3.179571,-1.40371,0.4438232,0.1888748,25.79792,-9.312569,-27.60293,1007.356
9.565259457,10.23681,-6.645995,0.7419429,-1.850985,0.2744628,-0.2863444,25.79792,-9.312569,-27.60293,1007.357
9.600023270,-39.21817,-19.03228,-6.997527,-0.6719542,-0.05229616,0.111961,25.07369,-10.03362,-27.58267,1007.359
9.632304669,-37.60686,5.564183,1.168528,-0.6704816,-0.09520368,0.0155096,25.42515,-10.40776,-28.01929,1007.359
9.667064667,16.68207,-0.1886893,17.50064,-1.239827,-0.07078572,0.4200634,25.4009,-9.324678,-28.84235,1007.357
9.699345112,21.0822,-18.32785,1.656053,-1.06507,0.01937256,-0.2556479,25.4009,-9.324678,-28.84235,1007.359
9.731626034,18.54128,-9.522431,5.068733,-0.9500487,0.1997618,0.1850591,25.06038,-9.310226,-28.02763,1007.361
9.766389847,3.605628,-8.289673,4.520267,-0.9911317,0.1923903,0.186556,25.08568,-10.02799,-27.14694,1007.361
9.798670292,-2.715685,-5.824156,-0.4159306,-0.989521,0.1275759,0.1944025,25.08568,-10.02799,-27.14694,1007.361
9.833434582,-0.8564752,-1.773664,-2.609796,-1.013702,0.08253486,0.06125284,24.33681,-10.3958,-28.00275,1007.357
9.865711689,17.5497,-1.89107,-2.487915,-0.9687323,0.09341305,0.09167441,24.31588,-11.13529,-28.80272,1007.358
9.897992134,16.00036,-2.243287,-1.939448,-0.9740118,0.0930728,0.1385774,24.31588,-11.13529,-28.80272,1007.358
9.932755947,14.57497,1.161475,0.07159507,-1.012738,0.1010924,0.1101836,24.33681,-10.3958,-28.00275,1007.362
9.965036869,5.216943,6.268616,-1.2691,-0.9931963,0.0247672,0.133396,24.67628,-10.77557,-28.8751,1007.362
9.999800682,25.5443,9.908189,-1.20816,-0.9875299,0.1053387,0.1995896,24.67628,-10.77557,-28.8751,1007.362
10.032081604,15.38062,14.48701,-3.523906,-1.000577,0.08188116,0.142922,25.06369,-11.1328,-28.00455,1007.364
10.066841126,14.51299,18.5375,-4.011432,-1.001572,0.08860589,0.1289426,24.7129,-11.12318,-27.5633,1007.364
10.099122524,11.84812,22.11837,-2.366033,-0.9846238,0.07751245,0.125459,24.7129,-11.12318,-27.5633,1007.365
10.131402969,4.411286,24.05556,0.924765,-0.999121,0.06627019,0.1046384,25.07568,-11.12717,-27.56882,1007.365
10.166166782,1.498524,23.87945,3.9718,-1.002086,0.07870152,0.06265633,26.1893,-11.8569,-26.70468,1007.367
10.198447704,2.676023,24.58388,2.752986,-1.034963,0.0893768,0.09904578,26.1893,-11.8569,-26.70468,1007.367
10.233211517,0.75484,23.82075,1.534172,-1.006593,0.128383,0.01847217,26.56473,-12.21977,-26.26985,1007.365
10.265488148,-4.265027,21.17912,-1.086278,-0.9955173,0.1321323,-0.02697362,27.30227,-12.22211,-25.84516,1007.369
10.300251961,-3.273448,18.47879,-4.316135,-1.009985,0.1190559,-0.01783146,27.30227,-12.22211,-25.84516,1007.366
10.332533360,-12.63147,9.966891,-4.864602,-1.041848,0.1015858,-0.005292714,27.67703,-12.22046,-25.41495,1007.366
10.364813805,-9.470815,4.566236,-6.44906,-0.9930447,0.09767051,-0.0595653,27.67769,-12.58498,-25.41033,1007.368
10.399577618,-14.86252,-0.3060949,-5.53495,-1.02969,0.07258789,-0.004516921,27.67769,-12.58498,-25.41033,1007.368
10.431858540,-7.983447,0.5157441,-6.266238,-1.024872,0.1072227,0.07301982,28.41324,-11.49378,-24.99948,1007.37
10.466618538,-11.76384,-1.714962,-7.789756,-1.014705,0.07798345,0.00418336,28.41324,-11.49378,-24.99948,1007.37
10.498898983,-15.91608,-2.30199,-8.399162,-1.023429,0.08667256,0.005218444,28.41324,-11.49378,-24.99948,1007.37
10.533662796,-12.87937,-4.943614,-7.363171,-1.006042,0.08565783,-0.02334768,28.03914,-11.85994,-25.42508,1007.372
10.565944195,-27.00936,-13.51422,-9.617977,-1.034044,0.06963257,-0.01612687,28.38795,-10.77601,-25.88017,1007.367
10.598224640,-9.718709,-13.33811,-8.216341,-0.9890187,0.06021852,0.02384798,28.38795,-10.77601,-25.88017,1007.367
10.632988453,-4.698843,-8.407078,-7.241289,-1.00346,0.02624145,0.005798677,28.01253,-10.41314,-26.31499,1007.369
10.665265560,-9.718709,-5.06102,-6.266238,-1.023752,0.0457977,0.08185348,28.37398,-9.688101,-26.32974,1007.369
10.700029373,-16.59778,-8.465781,-5.839653,-1.003924,0.02632033,0.02948862,27.63512,-8.956726,-26.76367,1007.369
10.732309818,-29.55028,-4.297884,-4.620839,-1.015054,0.01550287,-0.01164119,27.63512,-8.956726,-26.76367,1007.371
10.764591217,-19.75844,-1.714962,-3.645788,-1.005372,0.03658679,0.06145707,27.62313,-8.96236,-27.1994,1007.369
10.799355030,-8.169368,-0.4235004,-2.548855,-0.979294,0.04727511,0.05179287,27.96062,-8.248587,-28.0856,1007.37
10.831635475,-10.09055,2.511638,-1.756626,-1.00295,0.02439393,0.03140932,27.96062,-8.248587,-28.0856,1007.37
10.866395474,-8.851078,4.742344,0.6810021,-1.008277,0.02190503,0.01545318,27.25848,-7.925578,-27.20696,1007.372
10.898676396,-4.574895,6.796941,1.595113,-0.9923533,0.05504125,0.0697524,27.5953,-6.847288,-28.09778,1007.372
10.933440208,-7.36371,11.02354,2.692045,-0.9923613,0.04963285,0.04458285,27.5953,-6.847288,-28.09778,1007.374
10.965720654,-12.81739,12.43241,4.82497,-1.008778,0.02232041,-0.004364369,27.25782,-7.561062,-27.21157,1007.374
10.998002052,-6.86792,7.266563,3.788978,-1.027211,0.04010608,-0.0240445,27.60729,-6.841654,-27.66205,1007.374
11.032765865,0.8168136,-4.063073,0.8638242,-1.026744,0.04052586,-0.04338067,27.60729,-6.841654,-27.66205,1007.376
11.065042496,5.464838,-7.291725,-0.8425155,-1.023842,0.06008623,0.0142535,28.70827,-7.2125,-27.23825,1007.373
11.099806309,2.428129,-5.354534,-0.2331085,-0.98989,0.02396207,0.03572967,27.97073,-7.210158,-27.66295,1007.375
11.132087231,5.402864,-6.176373,-0.2940492,-1.018023,0.05284062,0.01323289,27.97073,-7.210158,-27.66295,1007.377
11.166851044,4.473259,-4.591398,-0.4768713,-0.9947724,0.05014263,0.05425972,27.97073,-7.210158,-27.66295,1007.377
11.199131489,-0.9184489,-2.830314,0.07159507,-1.009272,0.04377569,0.04410256,27.61927,-6.836019,-27.22632,1007.377
11.231412888,1.870366,-1.714962,1.229468,-0.9991192,0.04477585,0.04505324,27.61927,-6.836019,-27.22632,1007.378
11.266172409,3.543655,-1.245339,1.534172,-1.000074,0.03651682,0.03630644,28.34549,-7.208512,-27.23274,1007.38
11.298453331,2.861944,-1.714962,1.412291,-1.01555,0.03499622,0.02907957,27.98271,-7.204523,-27.22722,1007.38
11.333217144,1.93234,-1.48015,1.777935,-1.005393,0.03992187,0.04600604,27.98271,-7.204523,-27.22722,1007.382
11.365498066,4.473259,-0.5996087,1.838876,-1.004938,0.05055494,0.04171457,27.60927,-7.935201,-27.6482,1007.382
11.400261879,2.861944,-0.1886893,1.960757,-1.00737,0.06074984,0.05338031,27.63126,-6.830385,-26.7906,1007.378
11.432542324,-0.5466069,1.396286,2.387342,-1.010708,0.03406021,0.03438164,27.63126,-6.830385,-26.7906,1007.38
11.464818955,2.118261,0.8679608,2.26546,-1.003987,0.05586781,0.03787522,27.60982,-8.238964,-27.64436,1007.38
11.499583721,1.498524,0.809258,1.899816,-1.016076,0.05436509,0.03305835,27.97139,-7.574674,-27.65833,1007.38
11.531864166,-1.476212,0.5157441,1.168528,-1.007379,0.05582702,0.02869697,27.97139,-7.574674,-27.65833,1007.38
11.566627979,-0.1747649,0.2222302,1.046646,-1.009796,0.05875479,0.03790416,27.2465,-7.931212,-27.64269,1007.38
11.598908425,-0.6705542,0.2222302,0.49818,-1.0127,0.05238336,0.01660288,27.60795,-7.206169,-27.65743,1007.38
11.633672714,-1.352264,-0.4822032,0.3762986,-1.012197,0.04904311,0.03011909,27.25848,-7.925578,-27.20696,1007.381
11.665949345,0.568919,-1.010528,-0.05028634,-1.0098,0.05873841,0.03306969,27.25848,-7.925578,-27.20696,1007.381
11.698229790,0.5069454,-1.421448,-0.2331085,-1.005928,0.0597419,0.04031863,27.2465,-7.931212,-27.64269,1007.381
11.732993603,1.126682,-1.304042,-0.1112271,-1.005931,0.0577767,0.03160556,27.62126,-7.929566,-27.21247,1007.377
11.765275002,1.188656,-1.597556,-0.6596934,-1.013177,0.05729661,0.03887003,27.62126,-7.929566,-27.21247,1007.377
11.800038815,-0.6085805,-1.48015,-0.4768713,-1.004434,0.04380098,0.04747635,27.9726,-8.242952,-27.64987,1007.377
11.832319260,0.382998,-0.775717,-0.1112271,-1.009298,0.05392836,0.04125971,27.60795,-7.206169,-27.65743,1007.375
11.864596367,-2.343843,-0.7170143,-0.05028634,-1.002052,0.05538614,0.03690144,27.60795,-7.206169,-27.65743,1007.375
11.899360180,0.8168136,-0.5996087,-0.05028634,-1.009774,0.05005227,0.04027182,27.2465,-7.931212,-27.64269,1007.373
11.931640625,0.75484,-0.540906,0.1934765,-1.003976,0.05493436,0.0480221,26.88427,-8.230987,-27.63332,1007.375
11.966404438,-0.9804225,0.1048246,0.5591207,-1.008801,0.04616887,0.0358967,26.88427,-8.230987,-27.63332,1007.375
11.998685837,-1.166343,-0.01258095,0.6200615,-1.012199,0.05196797,0.03642043,27.60795,-7.206169,-27.65743,1007.375
12.033449650,-1.972001,-0.1886893,0.49818,-1.006873,0.05005729,0.03929872,27.97073,-7.210158,-27.66295,1007.375
12.065726280,-1.662133,0.1048246,0.6200615,-1.010747,0.05148819,0.03641457,27.97073,-7.210158,-27.66295,1007.375
12.098006725,0.382998,-0.8344198,0.2544172,-1.007864,0.06119471,0.04226482,27.60927,-7.935201,-27.6482,1007.372
12.132771015,0.4449717,-1.362745,0.2544172,-1.009291,0.04858385,0.03494461,27.23451,-7.936847,-28.07841,1007.374
12.165051460,1.498524,-1.773664,0.1325358,-1.015115,0.05727306,0.03355625,27.23451,-7.936847,-28.07841,1007.376
12.199815273,0.8787873,-2.243287,0.1325358,-1.008814,0.05295698,0.03980283,27.9594,-7.580308,-28.09406,1007.379
12.232095718,2.61405,-2.360692,-0.2331085,-1.002037,0.05593887,0.05720897,27.59729,-7.940835,-28.08393,1007.379
12.266856194,0.8787873,-1.832367,0.07159507,-0.9991077,0.04091425,0.04793189,27.59729,-7.940835,-28.08393,1007.381
12.299137116,2.056287,-0.775717,-0.1112271,-1.017513,0.05392943,0.048529,27.59729,-7.940835,-28.08393,1007.381
12.331417561,3.171813,-0.3647976,0.07159507,-1.005448,0.06559301,0.05292027,27.60861,-7.570685,-27.65282,1007.381
12.366181374,3.419708,-1.421448,-0.5378119,-1.007879,0.06846184,0.04472336,27.60861,-7.570685,-27.65282,1007.377
12.398462296,2.552076,-2.536801,-1.20816,-1.019467,0.06166184,0.04712686,27.24583,-7.566697,-27.6473,1007.377
12.433226109,-0.7325279,-5.06102,-1.817567,-1.013183,0.05971462,0.03840035,27.60982,-8.238964,-27.64436,1007.379
12.465502739,0.75484,-6.704698,-2.548855,-1.023769,0.04132932,0.04847084,27.60982,-8.238964,-27.64436,1007.379
12.500266552,4.845101,-8.054861,-2.853559,-1.012184,0.04958764,0.04800939,27.59729,-7.940835,-28.08393,1007.377
12.532547951,4.907075,-9.405025,-3.341084,-1.00494,0.05983148,0.06593926,26.88372,-7.927224,-27.63717,1007.379
12.564828396,5.092996,-8.700592,-3.402025,-0.9976126,0.03279481,0.07833914,26.14673,-8.228644,-28.05802,1007.379
12.599592209,9.245231,-10.05076,-3.889551,-1.020925,0.05478277,0.01760113,26.14673,-8.228644,-28.05802,1007.379
12.631873131,9.926941,-9.874647,-2.9145,-0.9772953,0.02848933,0.07585368,26.51017,-8.597149,-28.05892,1007.38
12.666633129,10.91852,-4.180478,0.1934765,-0.982636,0.04842003,0.1069186,26.50951,-8.232633,-28.06354,1007.38
12.698913574,3.853523,-1.186637,2.20452,-1.003898,0.03962227,0.09917936,26.50951,-8.232633,-28.06354,1007.38
12.731194019,1.250629,-0.1299865,3.849919,-1.01889,0.01171539,0.01638499,26.49752,-8.238268,-28.49926,1007.38
12.765957833,4.659181,3.098666,4.581207,-0.9947352,0.04980776,0.09825066,25.40985,-8.590817,-28.4781,1007.376
12.798239231,0.8168136,5.740292,5.190615,-1.002063,0.07244485,0.07277292,25.40985,-8.590817,-28.4781,1007.376
12.833003044,1.808392,6.620833,6.653192,-1.014635,0.06947749,0.06456468,26.13475,-8.23428,-28.49375,1007.376
12.865279675,1.002735,6.97305,5.67814,-1.013584,0.04344149,0.09197038,26.88493,-8.595503,-27.62871,1007.376
12.900043488,7.138127,-0.4822032,4.093682,-1.012677,0.05199116,0.04367317,26.88493,-8.595503,-27.62871,1007.376
12.932324409,7.633916,-4.826209,3.179571,-1.003078,0.08739473,0.05835695,26.86096,-8.606771,-28.50016,1007.376
12.964604855,9.183257,-4.6501,2.813927,-0.9914162,0.08081999,0.1076052,26.51254,-8.960859,-27.99206,1007.372
12.999368668,6.084575,-2.243287,1.412291,-1.013576,0.03369903,0.07306086,26.51254,-8.960859,-27.99206,1007.374
13.031650066,12.09602,-6.704698,1.656053,-1.018051,0.08057851,0.0588339,26.1607,-9.316557,-27.60845,1007.377
13.066409588,-4.017132,-12.69238,-0.1721677,-1.019921,0.06324656,0.08677883,26.87559,-10.0592,-28.04597,1007.377
13.098690510,-6.18621,-10.81389,0.6810021,-0.979333,0.09500314,0.1415005,26.87559,-10.0592,-28.04597,1007.383
13.133454323,-8.231341,-12.51627,1.656053,-1.009743,0.05457798,0.09057511,25.43515,-9.30858,-27.59741,1007.386
13.165735245,-10.15252,-13.74903,-0.1112271,-1.030091,0.09002854,0.1444822,25.7866,-9.682719,-28.03404,1007.388
13.198015690,-14.36673,-15.74493,-1.086278,-0.9986292,0.05604355,0.08524166,25.7866,-9.682719,-28.03404,1007.389
13.232779503,-9.470815,-10.52038,-0.5378119,-0.9773309,0.06596968,0.1403642,25.41184,-9.684365,-28.46425,1007.393
13.265056133,-6.496078,-8.817998,2.387342,-1.00099,0.04210263,0.1146572,25.3876,-8.601282,-29.28731,1007.393
13.299819946,-2.343843,-5.002317,1.899816,-0.9846367,0.08381172,0.127912,25.3876,-8.601282,-29.28731,1007.395
13.332101345,-0.4846332,-0.8344198,1.595113,-0.9841642,0.08474492,0.1172806,25.4009,-9.324678,-28.84235,1007.396
13.366865158,1.746418,-0.01258095,0.8028836,-1.013107,0.06491591,0.1452697,25.38826,-8.965797,-29.28269,1007.398
13.399145603,4.907075,-0.3060949,-1.817567,-1.002544,0.09835541,0.1507549,25.04708,-8.586829,-28.47258,1007.398
13.431426525,4.039444,-3.593451,-4.316135,-1.004904,0.08050538,0.1690292,25.04708,-8.586829,-28.47258,1007.398
13.466186524,-8.293315,-5.941561,-6.083416,-1.009197,0.04750881,0.1461292,25.02482,-8.597294,-29.28179,1007.4
13.498466969,-16.47384,-5.530642,-6.44906,-1.001952,0.04407489,0.1262731,25.04708,-8.586829,-28.47258,1007.401
13.533230782,-23.29094,-6.998211,-4.438017,-1.026172,0.05213591,0.09784821,25.04708,-8.586829,-28.47258,1007.403
13.565512180,-11.08213,-11.75314,-6.083416,-1.020788,0.02847466,0.1083377,24.31004,-7.915403,-28.8435,1007.405
13.600275993,-4.636868,-12.51627,-8.277282,-1.042049,0.03580871,0.1485507,24.30938,-7.550887,-28.84811,1007.405
13.632556439,-6.682,-10.9313,-10.83679,-1.071528,0.02113446,0.1272594,24.30938,-7.550887,-28.84811,1007.405
13.664833069,1.312603,-10.28557,-15.59017,-1.089293,-0.03410421,0.1211824,23.93461,-7.552534,-29.27832,1007.405
13.699596882,15.13273,-8.583186,-18.27156,-1.067102,-0.01324479,0.1173857,23.2084,-7.180041,-29.27191,1007.401
13.731877804,10.79457,0.2222302,-21.19671,-1.000367,-0.00667449,0.1433849,23.2084,-7.180041,-29.27191,1007.403
13.766641617,17.05391,5.094561,-21.25765,-0.9530122,0.03192886,0.2136009,23.20774,-6.815525,-29.27652,1007.403
13.798922062,-1.414238,11.02354,-16.62616,-0.9792023,0.06084897,0.2017358,23.59277,-6.809049,-28.47283,1007.401
13.831203461,-1.228317,12.72592,-14.49323,-0.9786486,0.01667198,0.1599077,23.59277,-6.809049,-28.47283,1007.401
13.865962982,-3.64529,12.90203,-14.55417,-0.9635428,-0.0243421,0.1823636,23.25264,-6.06476,-27.60509,1007.401
13.898243904,1.43655,11.37576,-14.43229,-0.9562873,-0.03457396,0.1557007,23.97886,-6.437253,-27.61151,1007.399
13.933007717,0.75484,12.1976,-14.737,-0.9635506,-0.03268191,0.1489589,23.97886,-6.437253,-27.61151,1007.399
13.965288639,-9.346868,19.94636,-16.07769,-0.994056,-0.0236579,0.1244206,24.37627,-5.695306,-26.31908,1007.397
14.000052452,-12.75542,32.62616,-20.22166,-1.03555,-0.08790434,0.05066205,25.47592,-5.337121,-25.90451,1007.396
14.032332897,-17.09357,47.88889,-24.79221,-1.142309,-0.1395751,0.03029392,25.47592,-5.337121,-25.90451,1007.394
14.064609528,25.73023,58.04446,-23.39058,-1.203971,-0.2853909,-0.1062486,25.83804,-4.976594,-25.91464,1007.391
14.099373341,58.88614,43.36877,-32.59262,-1.21615,-0.1685209,0.1192412,26.25809,-3.494347,-23.75999,1007.387
14.131654739,5.712733,39.55309,-48.98568,-1.262617,-0.3295739,0.186107,26.25809,-3.494347,-23.75999,1007.387
14.166418552,-18.14713,38.96606,-73.24007,-1.241809,-0.6025671,0.0075714,28.12058,-3.856267,-22.04004,1007.387
14.198698998,-0.6085805,43.19266,-83.96564,-1.344275,-0.6886754,-0.1826888,28.91435,-2.737694,-19.51281,1007.391
14.233462811,-0.5466069,38.37904,-91.0957,-1.235499,-0.431952,-0.05963695,28.91435,-2.737694,-19.51281,1007.387
14.265739918,-17.65134,35.91352,-88.04866,-1.185921,-0.3311066,-0.04563412,29.32044,-0.1675339,-17.80773,1007.387
14.298020363,-66.36263,39.55309,-76.46992,-1.106744,-0.3006102,-0.1099287,30.13724,2.421176,-14.36525,1007.387
14.332784176,-80.67855,55.93117,-64.52555,-1.054607,-0.3076601,-0.2352918,30.23811,5.387208,-10.54289,1007.388
14.365064621,-106.8314,70.25465,-52.03271,-1.032711,-0.366647,-0.238575,30.23811,5.387208,-10.54289,1007.387
14.399829388,-111.7274,83.63888,-32.1051,-0.9533739,-0.4122094,-0.3274743,30.71346,9.449238,-6.241909,1007.385
14.432109833,-122.1389,102.2477,-21.98894,-0.9720754,-0.5069045,-0.4091902,30.87055,13.53619,-0.3170011,1007.381
14.466869354,-114.6401,108.294,-17.96686,-0.9467325,-0.5885953,-0.4034246,30.87055,13.53619,-0.3170011,1007.381
14.499150276,-113.7105,112.9316,-20.89201,-1.003155,-0.6389464,-0.362497,31.74624,15.78775,5.246474,1007.378
14.531431198,-116.3754,104.6545,-25.46256,-0.9643551,-0.6735394,-0.321685,32.58767,18.02321,9.565017,1007.371
14.566195011,-103.5468,93.32484,-29.78935,-0.8669594,-0.5336856,-0.2611533,32.58767,18.02321,9.565017,1007.371
14.598475456,-98.65091,83.34537,-35.63966,-0.8395004,-0.4915197,-0.2653237,32.71648,18.81342,14.28653,1007.369
14.633239269,-81.54618,66.38026,-39.66175,-0.7711461,-0.3347639,-0.1906136,32.08614,19.23099,17.77876,1007.369
14.665516377,-82.97157,54.99192,-47.94968,-0.6813952,-0.2668747,-0.2252286,32.08614,19.23099,17.77876,1007.362
14.697797299,-73.55158,38.67255,-59.89406,-0.7009866,-0.3861744,-0.2838773,31.4541,19.64775,21.20875,1007.36
14.732561112,-45.9733,16.18938,-66.71941,-0.5880911,-0.28917,-0.3145092,29.71213,19.7015,23.85069,1007.357
14.764841557,-54.27777,-3.945667,-76.83557,-0.5497839,-0.3091417,-0.2426729,29.71213,19.7015,23.85069,1007.353
14.799605370,-116.4993,-45.15502,-98.65234,-0.6601939,-0.4908866,-0.3730299,29.02187,20.0909,25.16428,1007.353
14.831886292,7.2001,-56.95428,-125.771,-0.5853321,-0.6146224,-0.2496511,27.96817,20.8488,26.47878,1007.348
14.866646290,94.21112,-69.92759,-130.829,-0.6917639,-0.416788,-0.3290311,27.96817,20.8488,26.47878,1007.345
14.898926735,138.3983,-82.43128,-108.8294,-0.7136343,0.0771299,-0.2169184,27.93089,21.56093,25.16236,1007.343
14.931208134,-8.107394,-122.5253,-88.23148,-0.7438506,0.3325688,-0.3555981,27.80178,26.6078,20.74047,1007.34
14.965971947,-83.96316,-129.8044,-65.01308,-0.6180568,-0.03909255,-0.7505347,27.80178,26.6078,20.74047,1007.334
14.998252392,-45.53949,-129.0413,-20.52637,-0.6149418,0.06437463,-0.7804097,27.32425,31.30059,16.82668,1007.334
15.033016205,-49.44382,-111.5479,28.71372,-0.5780208,0.2146759,-0.7274233,28.37397,32.72978,15.4845,1007.333
15.065292835,-45.22962,-93.4087,64.24216,-0.6476949,0.1629861,-0.9277107,28.37397,32.72978,15.4845,1007.333
15.100056648,-78.4475,-67.16856,110.3133,-0.545494,0.4702951,-1.008852,30.83018,32.2979,12.40042,1007.327
15.132337570,-264.3685,-142.132,118.2966,-0.7695735,0.4214347,-1.386212,33.70013,31.15635,11.12521,1007.325
15.164618015,-28.8066,22.11837,116.6512,-0.8795052,-0.5918109,-0.981297,33.70013,31.15635,11.12521,1007.325
15.199381828,16.43418,-15.0992,103.0005,-1.205623,-0.5275887,-0.4605324,37.64777,27.1083,11.48971,1007.325
15.231663227,27.52746,-8.583186,100.5628,-1.18506,0.0754226,-0.1791708,40.94665,21.61593,12.38076,1007.325
15.266422749,-10.71029,-2.125881,84.71824,-0.9361602,0.1904025,-0.5899763,43.10596,17.93558,11.52237,1007.325
15.298703671,31.36983,27.28421,64.54686,-0.9678583,0.1095984,-0.5599108,43.10596,17.93558,11.52237,1007.325
15.333467484,-3.583316,17.42214,61.92641,-0.8071214,0.0541985,-0.4788711,44.56368,14.27447,11.54647,1007.325
15.365747929,0.4449717,10.67132,62.6577,-0.7188728,0.1697592,-0.4392457,45.66862,11.71652,11.99796,1007.324
15.398028851,-6.86792,10.96484,59.12314,-0.8034928,0.1167435,-0.5897142,45.66862,11.71652,11.99796,1007.324
15.432792664,-2.157922,3.979208,57.29491,-0.8560954,0.09258971,-0.5326924,46.04868,8.802044,12.4651,1007.324
15.465069294,-8.913052,-7.878753,55.16199,-0.8496163,0.2443588,-0.4491754,46.43939,6.622231,13.35873,1007.32
15.499833107,-29.86015,-21.4978,45.41148,-0.8669893,0.2151324,-0.4908798,46.43939,6.622231,13.35873,1007.32
15.532114506,-13.68502,-21.85002,37.73295,-0.8484016,0.2995823,-0.5764918,46.78217,4.419879,12.50946,1007.32
15.566878319,-6.372131,-11.51833,31.21229,-0.7886031,0.3709207,-0.5675132,47.47745,2.208708,11.28119,1007.318
15.599158764,-26.76147,-16.33195,26.8855,-0.8908244,0.2951095,-0.4323611,47.47745,2.208708,11.28119,1007.32
15.631439209,-17.83726,-14.57087,20.91331,-0.8618811,0.3159178,-0.4569605,47.46877,0.3804941,10.86854,1007.318
15.666199207,-5.814368,-11.28351,21.0352,-0.7754894,0.3785282,-0.4756449,48.17234,-0.7322989,9.999906,1007.318
15.698480129,-13.99489,-7.409131,17.37875,-0.8396041,0.3092801,-0.4352915,48.17234,-0.7322989,9.999906,1007.318
15.733243942,-21.61765,-14.62957,17.19593,-0.8614047,0.3383683,-0.4012384,48.163,-2.195997,9.582643,1007.32
15.765524388,-11.63989,-9.228917,16.34276,-0.8462241,0.4310237,-0.4901805,48.47916,-2.951555,7.843451,1007.32
15.797805786,-8.231341,-3.241234,15.67241,-0.8760827,0.3933243,-0.451172,48.47916,-2.951555,7.843451,1007.318
15.832569599,-22.36134,-8.524484,12.07691,-0.8429863,0.35033,-0.3141912,48.85525,-3.67894,8.282894,1007.318
15.864846230,-18.58094,-4.943614,10.61434,-0.8444996,0.3280756,-0.4540282,48.47115,-5.144284,7.435419,1007.318
15.899610043,-9.470815,-2.067178,16.89123,-0.8402284,0.3683131,-0.4364049,48.47115,-5.144284,7.435419,1007.318
15.931890488,-7.859499,2.570341,19.6945,-0.8576784,0.4013179,-0.3926701,48.10969,-5.869327,7.450167,1007.318
15.966654301,-18.39502,3.803099,20.97425,-0.8739777,0.3476138,-0.3755366,48.08638,-6.245112,6.583329,1007.318
15.998935223,-21.80357,5.857697,24.99634,-0.8161173,0.3910761,-0.451314,48.08638,-6.245112,6.583329,1007.32
16.031302452,-20.3162,9.966891,26.70268,-0.7929337,0.4081356,-0.43483,48.4871,-7.325744,7.898842,1007.32
16.066062450,-7.487657,4.507533,36.20943,-0.7327671,0.5332389,-0.4115268,48.46434,-8.005292,7.035851,1007.32
16.098342896,-12.44555,6.209914,36.02661,-0.7710157,0.5666469,-0.3740296,48.46434,-8.005292,7.035851,1007.32
16.133106709,-22.9191,4.742344,39.62211,-0.7950531,0.4747992,-0.4678037,47.74143,-9.455378,7.065346,1007.32
16.165387154,-20.99792,2.100719,42.85197,-0.7632355,0.5301992,-0.4259816,48.80645,-9.843128,6.18196,1007.317
16.200150967,-25.58397,1.924611,36.33131,-0.7163339,0.5586665,-0.3476037,48.09686,-12.01661,6.656414,1007.317
16.232432365,-8.231341,2.805152,33.22334,-0.6808577,0.6664736,-0.4094308,48.09686,-12.01661,6.656414,1007.319
16.264708519,-11.20608,2.570341,25.30104,-0.7065076,0.6824355,-0.3899472,47.3746,-13.83121,6.690524,1007.321
16.299472332,-6.124237,1.865908,20.60861,-0.6986464,0.6360611,-0.3723406,46.64104,-16.01596,6.293524,1007.322
16.331753731,-3.583316,5.094561,12.8082,-0.7171194,0.674695,-0.3802996,46.64104,-16.01596,6.293524,1007.324
16.366517544,-12.63147,11.02354,-3.462966,-0.7403542,0.6965167,-0.3472516,46.99315,-16.75462,5.861513,1007.324
16.398797989,-13.18923,15.54365,-11.81184,-0.7490505,0.6725779,-0.4068319,46.65567,-17.46839,6.747714,1007.324
16.433561802,-14.18081,21.82485,-17.72309,-0.788753,0.7108554,-0.3591517,46.65567,-17.46839,6.747714,1007.326
16.465838432,-10.2145,27.81253,-23.14682,-0.6946639,0.5783929,-0.3997496,47.02911,-16.73772,7.168694,1007.328
16.498119354,2.923918,28.04735,-15.95581,-0.6953702,0.6600541,-0.4350582,46.70295,-17.08134,8.486006,1007.329
16.532883644,10.05089,32.56746,-13.3963,-0.7283229,0.658686,-0.525398,46.70295,-17.08134,8.486006,1007.329
16.565164089,13.39747,33.97633,-17.96686,-0.676949,0.6114321,-0.5185258,47.09837,-15.24585,9.764591,1007.329
16.599927902,6.642338,43.01656,-20.09978,-0.6189617,0.5625729,-0.7055359,45.69217,-14.47913,11.45808,1007.329
16.632208824,10.79457,66.08675,-22.29365,-0.4792059,0.4520903,-1.010548,45.69217,-14.47913,11.45808,1007.329
16.666968823,13.02562,88.98083,-23.39058,-0.3844198,0.4113591,-1.114924,45.38932,-14.44697,13.64223,1007.323
16.699249268,24.6147,109.1159,-27.10796,-0.3397137,0.3249253,-1.097141,45.84599,-13.31233,17.10868,1007.323
16.731529713,35.58404,120.6216,-29.11901,-0.3439422,0.3122301,-0.9840791,45.84599,-13.31233,17.10868,1007.323
16.766293526,28.64299,128.84,-30.64252,-0.3342306,0.3222,-0.9062097,44.18489,-12.49091,22.72923,1007.323
16.798574925,27.40351,128.5465,-33.62862,-0.378492,0.2599655,-0.8121976,43.27396,-12.03072,29.21482,1007.322
16.833338738,41.65746,130.7772,-34.60367,-0.3537935,0.2518846,-0.7900586,43.27396,-12.03072,29.21482,1007.322
16.865614891,41.7814,132.5383,-39.84457,-0.413649,0.2365075,-0.707349,39.43724,-10.82005,34.92609,1007.318
16.897895813,54.91982,133.5363,-41.00244,-0.4798812,0.2280668,-0.7145058,34.95769,-9.5916,41.45668,1007.318
16.932659626,70.35126,124.7895,-40.14927,-0.5143862,0.3049493,-0.7033587,34.95769,-9.5916,41.45668,1007.317
16.964940548,89.19125,113.4012,-33.7505,-0.5078109,0.3901696,-0.6941864,28.91542,-6.607247,46.24503,1007.311
16.999704361,91.85612,105.2415,-24.73127,-0.5094684,0.4718936,-0.7101551,22.0773,-3.587167,48.49154,1007.309
17.031984806,87.14613,91.56376,-7.850697,-0.4501726,0.5587884,-0.6798155,22.0773,-3.587167,48.49154,1007.309
17.066744804,41.34759,77.41639,8.359531,-0.5476668,0.5099076,-0.5986657,15.92414,1.959642,49.38751,1007.309
17.099025250,9.555099,63.50383,16.03806,-0.4172513,0.2952144,-0.8022449,11.17812,5.280867,48.54622,1007.307
17.131306648,-22.05147,58.16187,9.822108,-0.2741263,0.03177052,-0.9795395,11.17812,5.280867,48.54622,1007.307
17.166070461,6.51839,44.95375,4.885911,-0.262294,-0.09382045,-1.064881,6.8095,7.145673,48.15359,1007.309
17.198350906,25.48233,38.43774,-2.183211,-0.08838005,0.0174208,-0.9442469,4.985615,6.066434,47.7593,1007.309
17.233114719,17.7976,32.39135,0.7419429,-0.1551269,-0.1166909,-0.7640596,2.073399,4.999159,47.38154,1007.309
17.265391827,35.70798,7.853592,2.26546,-0.1940223,0.009375412,-0.6583528,2.073399,4.999159,47.38154,1007.306
17.300155640,58.01851,-79.61355,-17.66215,0.2318016,1.477782,-3.107757,0.9724212,5.370007,46.95774,1007.31
17.332436085,-118.9163,-8.230969,-9.313273,-0.01375462,0.2810099,-2.33763,0.2202511,6.824778,46.07886,1007.313
17.364716530,-44.73383,25.75794,-2.305093,0.02882276,0.1875062,-1.404733,0.2202511,6.824778,46.07886,1007.315
17.399480343,-53.53409,-6.000264,-7.728815,0.02329613,0.07824032,-0.7986268,-0.5186112,7.556151,45.64493,1007.315
17.431761742,-21.7416,-6.822103,-2.548855,-0.01738161,0.1032868,-0.7988802,-0.4780245,5.021444,46.98442,1007.317
17.466521263,-14.36673,-3.652153,-1.939448,0.01315028,0.05870018,-0.8441592,-0.4780245,5.021444,46.98442,1007.315
17.498802185,-8.479237,4.85975,0.8028836,0.04713643,0.1497252,-1.001799,-0.1252484,3.918274,46.55703,1007.311
17.533565998,4.411286,5.740292,1.168528,0.0498942,0.1911646,-1.056682,0.2508366,3.190888,46.99647,1007.313
17.565846443,3.667602,2.159422,0.6810021,0.02037332,0.1992858,-1.062857,0.2508366,3.190888,46.99647,1007.313
17.598127365,3.171813,-2.419395,-0.4159306,0.01951681,0.1704209,-1.011774,0.2388513,3.185254,46.56075,1007.314
17.632891178,11.47628,-3.886965,-0.4159306,0.0279065,0.1085966,-0.9841045,-0.1126018,3.559392,46.99737,1007.314
17.665167809,12.8397,-2.008476,-0.1112271,0.01636681,0.09221958,-0.9517825,-0.1126018,3.559392,46.99737,1007.316
17.699931622,11.97207,-1.010528,0.01065436,0.01143355,0.1225868,-0.9830227,-0.1126018,3.559392,46.99737,1007.318
17.732213020,5.092996,-0.3647976,-0.1112271,0.01328712,0.1413165,-1.026913,0.236867,4.278801,46.5469,1007.314
17.764493466,-4.203053,1.161475,0.07159507,0.02393158,0.1428396,-1.014842,0.236867,4.278801,46.5469,1007.314
17.799257279,-5.070684,1.044069,0.07159507,0.02208382,0.122668,-0.9680585,-0.1139247,4.288424,46.98814,1007.315
17.831537724,-4.141079,-0.01258095,-0.1112271,0.02210549,0.1080977,-0.9836115,-0.12591,4.282789,46.55241,1007.315
17.866297722,-4.327001,0.2222302,-0.2331085,0.01286989,0.1171563,-1.01593,-0.12591,4.282789,46.55241,1007.315
17.898578644,-3.273448,0.5744469,-0.2331085,0.01862991,0.1375208,-1.009059,0.2481906,4.648952,46.97801,1007.317
17.933342457,-2.901606,0.6331496,-0.05028634,0.02008725,0.1419508,-0.988249,-0.12591,4.282789,46.55241,1007.317
17.965622902,-1.848054,0.04612182,-0.05028634,0.02395744,0.1449015,-0.9776049,-0.12591,4.282789,46.55241,1007.317
17.997903347,-0.6085805,-0.01258095,0.1934765,0.02252352,0.1322611,-0.9936273,0.2495136,3.91992,46.98724,1007.317
18.032667160,3.357734,-0.4235004,0.1934765,0.02106888,0.1317517,-0.9999117,0.2488523,4.284435,46.98262,1007.313
18.064944744,3.233787,-0.5996087,0.07159507,0.0196175,0.1322332,-0.9994224,-0.8621262,3.556101,46.13695,1007.315
18.099708557,1.126682,-0.1299865,-0.1721677,0.01865463,0.1307819,-0.9984617,-0.8621262,3.556101,46.13695,1007.315
18.131989002,-0.4226596,0.4570413,-0.05028634,0.02060032,0.1313238,-0.9829928,-0.4880254,3.922263,46.56255,1007.319
18.166752815,-0.2367386,0.2222302,0.07159507,0.01817997,0.128374,-0.9946069,-0.1252484,3.918274,46.55703,1007.321
18.199033260,-0.6705542,-0.01258095,0.07159507,0.02202717,0.1351387,-1.000861,-0.1252484,3.918274,46.55703,1007.322
18.231314182,-0.7325279,0.04612182,-0.05028634,0.0191343,0.1317446,-1.000391,-0.1139247,4.288424,46.98814,1007.322
18.266074181,-0.6705542,-0.2473921,-0.05028634,0.01962397,0.1293279,-0.9999223,0.2375283,3.914286,46.55151,1007.322
18.298354626,-0.8564752,-0.2473921,0.01065436,0.01865646,0.1337215,-0.9878093,0.2375283,3.914286,46.55151,1007.318
18.333118439,-1.166343,-0.3060949,0.01065436,0.01865629,0.1317661,-0.9936218,-0.1132631,3.923908,46.99276,1007.318
18.365398884,-1.166343,0.2809329,0.01065436,0.01815558,0.1390237,-0.9935794,0.2375283,3.914286,46.55151,1007.32
18.400162697,-1.042396,0.2222302,0.07159507,0.01816501,0.1336873,-0.9974773,0.2375283,3.914286,46.55151,1007.32
18.432444096,-0.2987123,0.1048246,0.07159507,0.01914781,0.1278912,-0.9950952,0.2375283,3.914286,46.55151,1007.32
18.464720726,0.1351034,0.2222302,-0.05028634,0.01816979,0.1341958,-0.9902229,-0.1378956,4.277155,46.11669,1007.32
18.499484539,0.2590507,0.1635274,0.01065436,0.01817266,0.130787,-0.996527,-0.1378956,4.277155,46.11669,1007.32
18.531764984,0.07312971,0.3396357,0.1325358,0.01913957,0.1332324,-0.9897469,-0.1612046,3.90137,45.24985,1007.32
18.566528797,-0.6705542,0.1635274,-0.05028634,0.01815616,0.1365827,-0.9998779,-0.1252484,3.918274,46.55703,1007.318
18.598809719,-0.5466069,0.1048246,-0.1112271,0.021061,0.1366058,-0.9955332,-0.1252484,3.918274,46.55703,1007.318
18.633573532,-0.1747649,-0.07128373,-0.05028634,0.01961648,0.1341836,-0.9950604,-0.1126018,3.559392,46.99737,1007.318
18.665850163,0.1351034,0.04612182,-0.05028634,0.01237288,0.1307819,-0.9931304,0.2375283,3.914286,46.55151,1007.323
18.698130608,0.382998,-0.07128373,-0.05028634,0.02057749,0.1370932,-0.994079,0.2375283,3.914286,46.55151,1007.323
18.732894421,0.197077,0.2809329,0.1934765,0.02252071,0.1317608,-0.9984645,-0.1365724,3.548123,46.12592,1007.325
18.765175820,-0.1127913,-0.07128373,-0.05028634,0.02300394,0.1327382,-0.9960428,0.225543,3.908651,46.11579,1007.326
18.799939633,-0.3606859,-0.1886893,0.07159507,0.02057635,0.1375772,-0.9940763,0.225543,3.908651,46.11579,1007.326
18.832220078,-0.05081761,-0.07128373,0.01065436,0.01864323,0.13611,-0.996981,-0.4880254,3.922263,46.56255,1007.326
18.864496708,-0.2367386,-0.01258095,0.07159507,0.02154656,0.1371042,-0.9916639,-0.1252484,3.918274,46.55703,1007.326
18.899260998,-0.4846332,0.04612182,0.01065436,0.01865519,0.1327389,-0.9921658,-0.1252484,3.918274,46.55703,1007.326
18.931541443,-0.4846332,-0.01258095,-0.1112271,0.01718915,0.1375576,-0.9969696,0.610306,5.009479,46.96788,1007.326
18.966305256,-0.2367386,-0.01258095,0.01065436,0.02106869,0.1341943,-0.9931297,0.2495136,3.91992,46.98724,1007.326
18.998586178,0.197077,-0.01258095,0.01065436,0.01912894,0.133677,-1.001347,-0.1132631,3.923908,46.99276,1007.326
19.033349991,0.4449717,0.04612182,0.07159507,0.02057283,0.1380512,-0.9969742,-0.1132631,3.923908,46.99276,1007.325
19.065627098,0.2590507,-0.01258095,0.1325358,0.02155089,0.1322354,-1.000393,-0.4873638,3.557747,46.56716,1007.325
19.097907543,-0.2367386,-0.01258095,-0.1112271,0.02590284,0.1327367,-0.9989496,-0.1245871,3.553758,46.56165,1007.323
19.132671356,-0.3606859,-0.07128373,-0.1721677,0.01526615,0.1341777,-0.9931173,-0.1245871,3.553758,46.56165,1007.323
19.164951801,-0.4226596,0.04612182,-0.1112271,0.02058001,0.1341716,-0.9994134,0.2495136,3.91992,46.98724,1007.325
19.199715614,0.382998,-0.1299865,0.1325358,0.01912894,0.133677,-1.001347,-0.1245871,3.553758,46.56165,1007.325
19.231997013,0.382998,-0.01258095,-0.05028634,0.02058357,0.1341864,-0.9950625,-0.1245871,3.553758,46.56165,1007.325
19.266756535,-0.1127913,0.1048246,0.01065436,0.01913834,0.1327386,-0.9926503,0.2488523,4.284435,46.98262,1007.322
19.299036980,-0.5466069,-0.01258095,0.01065436,0.02010385,0.1327348,-0.9945862,-0.1239257,3.189242,46.56626,1007.322
19.331317425,-0.6705542,-0.07128373,-0.1112271,0.02106716,0.1346766,-0.9936104,-0.1239257,3.189242,46.56626,1007.322
19.366081715,-0.3606859,-0.01258095,-0.05028634,0.01816307,0.134168,-0.9984414,-0.4986877,3.187597,46.13605,1007.322
19.398362637,-0.1127913,0.04612182,-0.05028634,0.0157463,0.1361197,-0.991657,-0.4867024,3.193232,46.57178,1007.322
19.433126450,0.07312971,-0.1299865,0.01065436,0.01767283,0.1390256,-0.9926114,-0.4867024,3.193232,46.57178,1007.322
19.465403080,0.2590507,0.1048246,-0.05028634,0.01622779,0.1351352,-0.9969814,0.2488523,4.284435,46.98262,1007.322
19.500166893,0.2590507,0.2222302,-0.1721677,0.01768281,0.1356462,-0.9902136,0.2388513,3.185254,46.56075,1007.322
19.532447338,0.1351034,-0.07128373,-0.1112271,0.02202386,0.138057,-0.9964939,0.2388513,3.185254,46.56075,1007.322
19.564728737,-0.2987123,0.04612182,0.01065436,0.01960776,0.1385455,-0.9931018,-0.1252484,3.918274,46.55703,1007.322
19.599492550,-0.2367386,0.04612182,-0.1721677,0.01622593,0.1365936,-0.9950394,0.5996437,4.274813,46.54138,1007.324
19.631772995,-0.2367386,-0.1299865,0.1325358,0.02058488,0.1356578,-0.9892528,0.5996437,4.274813,46.54138,1007.324
19.666532517,0.07312971,-0.01258095,0.07159507,0.01526034,0.1356197,-0.9960097,0.2375283,3.914286,46.55151,1007.324
19.698812962,-0.05081761,-0.1886893,0.01065436,0.01769303,0.1303132,-0.9931445,0.2495136,3.91992,46.98724,1007.324
19.731094361,0.2590507,0.04612182,0.1325358,0.02589989,0.1351678,-0.9955518,0.2495136,3.91992,46.98724,1007.324
19.765858174,0.01115606,0.04612182,0.01065436,0.02106944,0.1337087,-0.9936159,0.2375283,3.914286,46.55151,1007.328
19.798138619,0.07312971,-0.01258095,-0.05028634,0.01816702,0.1341844,-0.993607,-0.1132631,3.923908,46.99276,1007.328
19.832902432,0.01115606,0.04612182,0.07159507,0.01719852,0.1361304,-0.9897262,-0.1126018,3.559392,46.99737,1007.328
19.865179062,0.01115606,-0.1299865,0.1934765,0.02445347,0.1337151,-0.99459,-0.1126018,3.559392,46.99737,1007.324
19.899942875,-0.2987123,-0.07128373,0.01065436,0.02301137,0.1317917,-0.9897634,-0.1245871,3.553758,46.56165,1007.324
19.932223797,-0.2367386,-0.1886893,0.07159507,0.01671789,0.1332091,-0.9945762,0.250175,3.555404,46.99186,1007.324
19.964504719,0.01115606,-0.1886893,0.07159507,0.01235898,0.1346337,-0.9989097,0.250175,3.555404,46.99186,1007.324
19.999268532,0.1351034,-0.1886893,0.2544172,0.02058771,0.1317602,-0.9970099,0.236867,4.278801,46.5469,1007.324
20.031548977,0.01115606,-0.07128373,-0.1112271,0.02056817,0.1390093,-0.9998693,0.2262044,3.544135,46.1204,1007.326
20.066308498,-0.1747649,0.1048246,0.01065436,0.0205844,0.1346785,-0.9926424,0.2262044,3.544135,46.1204,1007.324
20.098589897,-0.5466069,0.1048246,-0.05028634,0.0201042,0.1322476,-0.9955559,-0.4993494,3.552113,46.13144,1007.322
20.133353710,-0.6705542,-0.01258095,0.01065436,0.01864564,0.1366087,-0.9926273,0.2508366,3.190888,46.99647,1007.32
20.165634155,-0.1747649,-0.01258095,-0.2331085,0.01912531,0.1375714,-0.9945566,0.2508366,3.190888,46.99647,1007.32
20.197914600,0.382998,-0.01258095,0.01065436,0.01767033,0.1375492,-0.9998714,-0.1126018,3.559392,46.99737,1007.322
20.232678413,0.6308927,-0.1299865,0.01065436,0.0191291,0.1356324,-0.9955345,-0.1245871,3.553758,46.56165,1007.322
20.264955521,0.2590507,-0.2473921,0.07159507,0.0210543,0.1414647,-0.9897043,-0.1245871,3.553758,46.56165,1007.326
20.299719334,0.2590507,0.1635274,0.01065436,0.02057406,0.138545,-0.9940707,0.225543,3.908651,46.11579,1007.326
20.332000256,0.07312971,0.04612182,-0.05028634,0.01670786,0.1360996,-0.9984273,-0.1132631,3.923908,46.99276,1007.326
20.366764069,-0.4226596,0.1635274,-0.05028634,0.02058409,0.1356545,-0.9902198,-0.1132631,3.923908,46.99276,1007.322
20.399044991,-0.3606859,0.04612182,-0.1721677,0.01911876,0.1394989,-0.9969628,0.2495136,3.91992,46.98724,1007.32
20.431325436,-0.1127913,0.1048246,0.07159507,0.02057991,0.1375919,-0.9897252,-0.1252484,3.918274,46.55703,1007.318
20.466085434,0.01115606,0.1048246,0.01065436,0.02201277,0.1424091,-0.997436,-0.1252484,3.918274,46.55703,1007.318
20.498365879,1.002735,0.3396357,0.01065436,0.02299214,0.1380647,-0.9950456,0.2495136,3.91992,46.98724,1007.318
20.533129692,1.250629,0.3983385,0.1325358,0.01912862,0.134653,-0.9989241,0.2495136,3.91992,46.98724,1007.318
20.565410137,1.312603,0.1048246,-0.05028634,0.01961257,0.1346561,-0.9984417,0.2495136,3.91992,46.98724,1007.32
20.600173950,1.126682,-0.01258095,0.01065436,0.02252888,0.1303287,-0.9926713,-0.1252484,3.918274,46.55703,1007.322
20.632455349,0.75484,0.3396357,0.07159507,0.02156171,0.1293482,-0.9955755,-0.1365724,3.548123,46.12592,1007.322
20.664731980,0.4449717,0.3396357,0.1934765,0.02542995,0.1278928,-0.999943,-0.1365724,3.548123,46.12592,1007.322
20.699495793,0.07312971,0.2222302,0.07159507,0.02687613,0.1312991,-0.9955758,-0.1132631,3.923908,46.99276,1007.322
20.731776238,-0.6705542,-0.01258095,0.1325358,0.02252664,0.1317854,-0.9912128,-0.1132631,3.923908,46.99276,1007.322
20.766540051,-1.228317,0.1048246,0.01065436,0.02349316,0.1298311,-0.9975107,-0.488687,4.286778,46.55793,1007.32
20.798820496,-1.78608,0.1048246,0.01065436,0.02106464,0.1375982,-0.9882758,-0.488687,4.286778,46.55793,1007.32
20.831101418,-1.538185,-0.07128373,-0.1721677,0.01815928,0.136107,-0.9974635,-0.12591,4.282789,46.55241,1007.316
20.865861416,-0.3606859,-0.07128373,0.07159507,0.02154643,0.1356376,-0.9960231,-0.1119404,3.194877,47.00199,1007.316
20.898141861,0.4449717,0.04612182,0.07159507,0.01670909,0.1365933,-0.9955238,-0.1119404,3.194877,47.00199,1007.316
20.932905674,1.188656,-0.07128373,0.07159507,0.01720649,0.1322541,-0.9911987,-0.1126018,3.559392,46.99737,1007.316
20.965186119,1.43655,-0.1886893,0.01065436,0.01961974,0.1307765,-1.000881,0.5883198,3.904663,46.11027,1007.318
20.999949932,1.250629,0.2809329,-0.05028634,0.02106395,0.1341747,-0.9989311,0.5883198,3.904663,46.11027,1007.318
21.032338619,0.382998,0.04612182,0.01065436,0.02057279,0.1375624,-0.9984273,0.611629,4.280447,46.97711,1007.318
21.064615726,0.3210244,0.2222302,0.1325358,0.02301062,0.1322772,-0.9892772,0.2375283,3.914286,46.55151,1007.318
21.099379540,0.197077,0.2222302,0.3762986,0.02446334,0.1288693,-0.9965514,0.2375283,3.914286,46.55151,1007.319
21.131659985,0.1351034,-0.01258095,0.01065436,0.02638994,0.1327528,-0.9945996,-0.1252484,3.918274,46.55703,1007.319
21.166423798,-0.1127913,0.1048246,0.01065436,0.02202761,0.1356292,-0.9989249,-0.1139247,4.288424,46.98814,1007.319
21.198704243,-0.2367386,-0.1299865,0.1325358,0.01768296,0.1327148,-0.9984486,-0.1139247,4.288424,46.98814,1007.319
21.233468533,0.07312971,-0.07128373,0.1934765,0.02107525,0.1322668,-0.9907234,-0.12591,4.282789,46.55241,1007.321
21.265745640,-0.1127913,-0.01258095,0.1934765,0.02300311,0.1322461,-0.9984627,0.2381897,3.549769,46.55613,1007.321
21.298026085,-0.2367386,-0.07128373,0.07159507,0.01961485,0.1336882,-0.9984472,0.2381897,3.549769,46.55613,1007.317
21.332789898,-0.5466069,-0.01258095,-0.1112271,0.02011186,0.1293473,-0.9946055,-0.137234,3.91264,46.1213,1007.319
21.365070343,-0.4226596,0.1048246,0.07159507,0.01961115,0.1366049,-0.9945632,-0.1006165,3.565027,47.4331,1007.319
21.399834156,0.07312971,0.3396357,0.1325358,0.02300117,0.1327268,-0.9994269,-0.1006165,3.565027,47.4331,1007.317
21.432114601,0.568919,0.3396357,-0.05028634,0.02010262,0.1322411,-0.9974897,-0.4880254,3.922263,46.56255,1007.317
21.466874600,0.568919,-0.01258095,0.01065436,0.01479246,0.1293305,-0.9950776,-0.1132631,3.923908,46.99276,1007.317
21.499155522,0.3210244,-0.01258095,0.1934765,0.02350315,0.1264518,-0.9951128,-0.1132631,3.923908,46.99276,1007.317
21.531435967,0.5069454,0.2222302,-0.05028634,0.02203941,0.1303027,-0.999922,-0.12591,4.282789,46.55241,1007.317
21.566199780,1.498524,0.6331496,0.2544172,0.03364415,0.1308231,-0.9989772,-0.1019394,4.294058,47.42387,1007.317
21.598480702,-1.352264,-0.7170143,-0.2940492,0.02786582,0.1274862,-0.9791627,-0.1019394,4.294058,47.42387,1007.319
21.633244515,-1.538185,-0.9518253,-0.1112271,0.0181884,0.1298749,-0.9800951,-0.1365724,3.548123,46.12592,1007.32
21.665521622,-0.9184489,-0.5996087,0.07159507,0.01138042,0.1345834,-1.012928,-0.488687,4.286778,46.55793,1007.32
21.697802067,-0.7945015,0.4570413,0.1934765,0.007999434,0.1331236,-1.012445,-0.488687,4.286778,46.55793,1007.32
21.732565880,-0.3606859,0.9266635,0.1325358,0.01286197,0.1308062,-0.9863631,0.2488523,4.284435,46.98262,1007.32
21.764846325,1.374577,0.4570413,0.2544172,0.02157717,0.1299009,-0.9752679,-0.5006723,4.281144,46.1222,1007.32
21.799610138,1.93234,0.5157441,0.1934765,0.03363803,0.1332411,-0.9994469,0.250175,3.555404,46.99186,1007.32
21.831891537,-1.166343,0.5744469,-0.1112271,0.03314599,0.1356479,-1.002816,0.250175,3.555404,46.99186,1007.318
21.866651058,-3.087527,-0.1886893,-0.2940492,0.02880216,0.1376236,-0.9873255,-0.1132631,3.923908,46.99276,1007.32
21.898931504,-1.10437,-0.540906,-0.1112271,0.02299391,0.1356287,-0.9998937,0.2375283,3.914286,46.55151,1007.32
21.931212425,1.93234,-0.3060949,0.01065436,0.0167091,0.1321954,-1.008118,0.2375283,3.914286,46.55151,1007.32
21.965976238,3.171813,-0.1886893,0.1325358,0.01624302,0.128357,-0.9979869,0.2248814,4.273167,46.11117,1007.32
21.998256683,2.118261,0.1048246,0.1934765,0.02156993,0.1284049,-0.9883292,-0.1132631,3.923908,46.99276,1007.32
22.033020973,0.197077,-0.01258095,0.1325358,0.02398046,0.1274047,-0.9999427,-0.1132631,3.923908,46.99276,1007.32
22.065297604,-1.414238,0.1635274,-0.05028634,0.02349814,0.127897,-0.9970382,-0.12591,4.282789,46.55241,1007.32
22.100061417,-2.343843,0.04612182,-0.1112271,0.02156052,0.1293433,-0.9970258,-0.488687,4.286778,46.55793,1007.323
22.132341862,-2.157922,-0.1886893,0.07159507,0.02010042,0.1341866,-0.9945779,-0.488687,4.286778,46.55793,1007.323
22.164622307,-1.166343,-0.01258095,0.07159507,0.02010653,0.1317686,-0.9941083,-0.1245871,3.553758,46.56165,1007.325
22.199386120,-0.7325279,-0.1886893,0.01065436,0.01962106,0.1322479,-0.9950714,-0.8514638,4.290767,46.56344,1007.321
22.231667519,-0.9184489,-0.01258095,-0.2331085,0.02299562,0.1371018,-0.9936008,-0.8514638,4.290767,46.56344,1007.321
22.266427040,-0.7325279,0.1048246,0.07159507,0.02300319,0.1332238,-0.9955565,-0.1252484,3.918274,46.55703,1007.323
22.298707962,0.2590507,-0.1886893,0.01065436,0.02203196,0.1356472,-0.993607,0.2508366,3.190888,46.99647,1007.325
22.333471775,1.188656,-0.4235004,0.01065436,0.02591318,0.1288702,-0.9975213,0.2508366,3.190888,46.99647,1007.326
22.365752220,1.250629,-0.1886893,0.01065436,0.02493979,0.133728,-0.9912069,0.225543,3.908651,46.11579,1007.328
22.398033142,0.4449717,-0.1886893,0.07159507,0.01720755,0.1307925,-0.9941075,0.2495136,3.91992,46.98724,1007.33
22.432796955,-0.4226596,0.2222302,0.01065436,0.01478516,0.1317436,-0.9969975,0.2495136,3.91992,46.98724,1007.33
22.465073586,-0.7945015,0.5157441,0.1325358,0.02058336,0.1317422,-1.002328,0.2488523,4.284435,46.98262,1007.33
22.499837399,-0.7945015,0.5157441,0.01065436,0.02157016,0.1264512,-0.9936582,-0.4880254,3.922263,46.56255,1007.331
22.532117844,-0.8564752,0.5744469,0.01065436,0.02302937,0.1250249,-0.9873847,-0.4880254,3.922263,46.56255,1007.331
22.566881657,-1.10437,-0.01258095,0.07159507,0.02347881,0.1375904,-0.9926321,0.2495136,3.91992,46.98724,1007.333
22.599162102,-1.600159,-0.07128373,-0.1721677,0.02395026,0.1394963,-1.001808,0.2495136,3.91992,46.98724,1007.333
22.631443501,-1.662133,-0.07128373,0.1934765,0.01911824,0.1380307,-1.001806,0.2495136,3.91992,46.98724,1007.333
22.666203022,-0.2987123,-0.07128373,0.1325358,0.0167162,0.1366228,-0.9868217,0.2375283,3.914286,46.55151,1007.333
22.698483944,0.6928663,-0.1299865,0.1934765,0.02301216,0.1317949,-0.9887965,-0.1132631,3.923908,46.99276,1007.329
22.733247757,-0.2987123,-0.1886893,0.1325358,0.01816043,0.1356231,-0.9974663,-0.4753785,3.563381,47.00289,1007.33
22.765528202,-0.6085805,0.1635274,0.1325358,0.02200882,0.1423927,-1.00227,-0.4753785,3.563381,47.00289,1007.33
22.797809124,0.5069454,0.1048246,0.3153579,0.02301537,0.1322969,-0.9834759,-0.8381555,3.567369,47.0084,1007.33
22.832572937,-0.5466069,-0.1886893,-0.2940492,0.02248852,0.1482422,-0.9901523,-0.4767017,4.292413,46.99366,1007.332
22.864849568,0.6308927,0.1635274,-0.1112271,0.0166987,0.139971,-0.9984052,-0.4767017,4.292413,46.99366,1007.334
22.899613381,1.43655,-0.2473921,0.01065436,0.02060719,0.1284202,-0.9830093,-0.1232641,2.824726,46.57088,1007.336
22.931893826,1.560498,-0.1886893,0.01065436,0.02154872,0.1346698,-0.9960287,0.2495136,3.91992,46.98724,1007.336
22.966657639,1.250629,0.1048246,0.07159507,0.01717935,0.1384944,-1.00615,0.2495136,3.91992,46.98724,1007.33
22.998938084,-0.1747649,-0.07128373,0.1325358,0.01962143,0.1366475,-0.9819936,0.5883198,3.904663,46.11027,1007.33
23.031219482,-0.2987123,-0.5996087,-0.1721677,0.01963038,0.1303318,-0.989281,0.2375283,3.914286,46.55151,1007.33
23.065979481,-0.2367386,0.1048246,0.01065436,0.0230014,0.130773,-1.004756,0.2375283,3.914286,46.55151,1007.33
23.098259926,-0.7325279,-0.1886893,-0.05028634,0.02203951,0.1361672,-0.9829683,0.2495136,3.91992,46.98724,1007.33
23.133023739,-1.228317,-0.2473921,-0.05028634,0.01718932,0.139513,-0.9911574,0.2381897,3.549769,46.55613,1007.332
23.165304184,-0.7325279,0.2222302,0.1325358,0.0234756,0.1370884,-0.9979528,0.2381897,3.549769,46.55613,1007.332
23.200067997,-0.2987123,0.1635274,0.01065436,0.0205793,0.1351461,-0.9974742,-0.1126018,3.559392,46.99737,1007.332
23.232348442,0.197077,-0.1886893,0.01065436,0.02058255,0.1361368,-0.9907003,0.2375283,3.914286,46.55151,1007.332
23.264625549,0.6928663,0.1635274,0.01065436,0.0229977,0.1336897,-1.000872,0.2375283,3.914286,46.55151,1007.332
23.299389362,0.197077,-0.2473921,0.1325358,0.01768696,0.1332201,-0.992161,-0.12591,4.282789,46.55241,1007.332
23.331669808,-0.1127913,-0.01258095,0.01065436,0.02832223,0.1337278,-0.9941148,0.2495136,3.91992,46.98724,1007.333
23.366433621,-0.6085805,0.1635274,-0.1112271,0.01865163,0.1327241,-0.9965169,0.2495136,3.91992,46.98724,1007.329
23.398714542,-0.2367386,0.1635274,0.1325358,0.01815928,0.136107,-0.9974635,-0.1252484,3.918274,46.55703,1007.331
23.433478356,0.01115606,-0.01258095,0.07159507,0.01815159,0.1385185,-0.9998669,0.2375283,3.914286,46.55151,1007.331
23.465755463,-0.05081761,-0.07128373,0.01065436,0.01670434,0.1365737,-1.001325,0.2375283,3.914286,46.55151,1007.331
23.498035908,-0.1127913,-0.1299865,0.01065436,0.02056861,0.1394998,-0.9979329,-0.4880254,3.922263,46.56255,1007.329
23.532799721,-0.05081761,-0.1299865,0.1934765,0.0210628,0.1346586,-0.9989282,0.250175,3.555404,46.99186,1007.331
23.565080166,-0.1127913,-0.1299865,0.07159507,0.02300213,0.1346854,-0.9926476,0.250175,3.555404,46.99186,1007.331
23.599843979,0.197077,0.1048246,0.01065436,0.01816975,0.133707,-0.9916759,0.2375283,3.914286,46.55151,1007.333
23.632124424,-0.05081761,0.04612182,-0.05028634,0.02203866,0.1307883,-0.9994358,-0.1132631,3.923908,46.99276,1007.333
23.666884422,-0.2987123,-0.1299865,0.01065436,0.02105598,0.138051,-0.9974587,0.2381897,3.549769,46.55613,1007.33
23.699165344,-0.4226596,-0.07128373,0.1325358,0.02155224,0.1341957,-0.9931307,0.2381897,3.549769,46.55613,1007.329
23.731445790,-0.1747649,-0.3647976,-0.1112271,0.01525809,0.1370764,-0.9945511,-0.1139247,4.288424,46.98814,1007.329
23.766210079,0.07312971,-0.1886893,0.01065436,0.02057828,0.1370965,-0.9931121,-0.4867024,3.193232,46.57178,1007.329
23.798490524,0.197077,0.1635274,-0.1112271,0.01962426,0.1327498,-0.9897507,-0.4867024,3.193232,46.57178,1007.329
23.833254338,0.3210244,-0.07128373,-0.05028634,0.02154872,0.1346698,-0.9960287,-0.1132631,3.923908,46.99276,1007.329
23.865530491,0.1351034,0.2809329,0.01065436,0.02009817,0.1356433,-0.9931194,0.2488523,4.284435,46.98262,1007.329
23.897811890,0.197077,-0.01258095,0.1325358,0.02299809,0.1336913,-1.000388,0.2488523,4.284435,46.98262,1007.329
23.932575703,0.1351034,-0.07128373,0.07159507,0.01816359,0.1356362,-0.9935987,-0.1139247,4.288424,46.98814,1007.326
23.964856148,-0.1127913,-0.07128373,0.07159507,0.01575541,0.1317595,-0.9931321,-0.1119404,3.194877,47.00199,1007.326
23.999619961,-0.05081761,0.04612182,0.01065436,0.01912871,0.1356307,-0.996018,-0.1119404,3.194877,47.00199,1007.326
24.031900406,-0.4226596,0.1048246,0.07159507,0.02009848,0.1346673,-0.9955421,-0.1245871,3.553758,46.56165,1007.326
24.066660404,-0.1747649,-0.1299865,0.01065436,0.01477996,0.1356314,-0.992141,-0.1139247,4.288424,46.98814,1007.326
24.098940849,0.3210244,-0.07128373,0.07159507,0.02348022,0.1356415,-0.9965108,-0.1139247,4.288424,46.98814,1007.328
24.131222248,0.382998,0.04612182,0.07159507,0.01864477,0.1356277,-0.9965004,0.236867,4.278801,46.5469,1007.328
24.165986061,0.1351034,-0.1886893,0.1934765,0.01960772,0.1380567,-0.9945549,0.250175,3.555404,46.99186,1007.33
24.198266506,-0.2987123,-0.1886893,-0.1112271,0.02203649,0.1332227,-0.9950711,0.250175,3.555404,46.99186,1007.33
24.233030319,-0.2367386,-0.07128373,0.01065436,0.02106104,0.1370946,-0.99408,-0.1139247,4.288424,46.98814,1007.327
24.265306950,-0.05081761,-0.07128373,-0.1112271,0.02106557,0.13467,-0.9955441,0.2381897,3.549769,46.55613,1007.327
24.300070763,0.2590507,-0.01258095,0.07159507,0.02301041,0.129833,-0.9965428,0.2381897,3.549769,46.55613,1007.327
24.332351208,0.5069454,-0.1299865,0.1325358,0.02154656,0.1371042,-0.9916639,-0.1252484,3.918274,46.55703,1007.327
24.364632130,0.6308927,-0.1886893,0.01065436,0.0171954,0.1366062,-0.9921407,-0.1132631,3.923908,46.99276,1007.327
24.399395943,0.4449717,0.04612182,0.01065436,0.01961202,0.1375859,-0.99069,-0.1132631,3.923908,46.99276,1007.329
24.431676388,0.3210244,0.04612182,0.07159507,0.02107173,0.1327409,-0.9936214,-0.1245871,3.553758,46.56165,1007.329
24.466436386,-0.1747649,0.1048246,-0.05028634,0.01865511,0.1317612,-0.9950721,0.2381897,3.549769,46.55613,1007.331
24.498716831,-0.2367386,-0.4235004,-0.05028634,0.02009804,0.1341768,-0.9974787,0.6122904,3.915932,46.98172,1007.331
24.533480644,0.2590507,-0.07128373,0.01065436,0.0210705,0.1322471,-0.9965249,0.6122904,3.915932,46.98172,1007.331
24.565761089,0.8168136,-0.1299865,-0.05028634,0.02010081,0.1341883,-0.9940945,-0.1252484,3.918274,46.55703,1007.334
24.598042488,0.8787873,-0.3647976,0.01065436,0.02106826,0.1337038,-0.9950663,0.2375283,3.914286,46.55151,1007.334
24.632806301,1.250629,-0.5996087,0.1325358,0.01865053,0.1336969,-0.9950611,0.2375283,3.914286,46.55151,1007.334
24.665082932,1.498524,-0.6583115,-0.1112271,0.02011609,0.1278988,-0.9936469,-0.1265717,4.647305,46.5478,1007.334
24.699846745,1.746418,-0.4235004,-0.05028634,0.01623975,0.1317641,-0.9921662,-0.1132631,3.923908,46.99276,1007.336
24.732127190,1.994313,-0.3060949,0.01065436,0.01817499,0.130308,-0.9950793,-0.1132631,3.923908,46.99276,1007.336
24.766891003,1.250629,-0.3060949,0.07159507,0.01865014,0.1336953,-0.9955445,0.236867,4.278801,46.5469,1007.336
24.799171448,0.6308927,-0.3647976,0.1325358,0.01818767,0.1259625,-0.9922034,0.2488523,4.284435,46.98262,1007.332
24.831452847,0.3210244,-0.2473921,0.07159507,0.02010755,0.1298182,-0.9984703,0.2488523,4.284435,46.98262,1007.332
24.866212368,0.568919,-0.2473921,-0.05028634,0.01431323,0.1288583,-0.9912117,0.236867,4.278801,46.5469,1007.334
24.898492813,1.498524,-0.7170143,0.2544172,0.01722172,0.1254758,-0.9922041,-0.1139247,4.288424,46.98814,1007.334
24.933256626,2.366155,-0.540906,0.2544172,0.01237887,0.1268974,-0.9970199,-0.1139247,4.288424,46.98814,1007.336
24.965537071,3.233787,-0.6583115,0.4372393,0.01964311,0.1220772,-0.9975465,-0.1245871,3.553758,46.56165,1007.337
24.997817993,3.729576,-1.069231,0.2544172,0.01963395,0.1259486,-0.9975244,0.6109676,4.644963,46.97249,1007.337
25.032581806,4.969049,-2.125881,0.07159507,0.009984515,0.1181912,-0.9936802,0.6109676,4.644963,46.97249,1007.337
25.064858913,5.898654,-2.830314,0.1325358,0.01289977,0.1153254,-0.9850009,0.236867,4.278801,46.5469,1007.339
25.099622726,7.69589,-5.002317,-0.05028634,0.01244567,0.103718,-0.9826486,0.247529,5.013467,46.97339,1007.339
25.131903172,12.59181,-7.996158,-0.1721677,0.01005085,0.09891927,-0.9686512,0.247529,5.013467,46.97339,1007.339
25.166666985,11.78615,-12.28146,-0.4159306,-0.00251037,0.09306472,-0.9720413,0.5996437,4.274813,46.54138,1007.335
25.198947430,4.473259,-12.22276,-0.6596934,-0.01457879,0.07063513,-1.011785,0.5856738,5.362726,46.09181,1007.335
25.231227875,-4.698843,-9.170215,-1.390982,-0.01027622,0.08998997,-1.016035,0.5856738,5.362726,46.09181,1007.337
25.265987873,-14.9245,-7.409131,-2.609796,-0.005490074,0.114233,-1.006239,0.9491122,4.994222,46.09091,1007.335
25.298268795,-13.68502,-7.056914,-2.670737,-0.01854643,0.1161477,-1.001365,1.674005,5.35076,46.07526,1007.337
25.333032131,-11.70187,-6.469886,-2.366033,-0.01618018,0.1335335,-1.013841,1.674005,5.35076,46.07526,1007.337
25.365313530,-3.025553,-5.295831,-1.451923,-0.02105534,0.1406852,-1.041346,1.687974,4.262847,46.52483,1007.337
25.400077343,9.926941,-2.243287,-0.2940492,-0.02247219,0.129093,-1.033674,1.687974,4.262847,46.52483,1007.338
25.432357788,16.3722,-1.010528,0.3762986,-0.02626516,0.1093588,-0.9989702,1.674666,4.986244,46.07988,1007.338
25.464633942,23.4372,-2.008476,0.3762986,-0.04075337,0.1045059,-0.990748,1.674666,4.986244,46.07988,1007.34
25.499398232,29.0768,-2.125881,0.3762986,-0.03587726,0.08074336,-1.009748,2.411543,5.348418,46.49996,1007.338
25.531678677,28.70496,-1.832367,0.3153579,-0.0382831,0.07638764,-1.007833,2.035459,6.075804,46.06051,1007.338
25.566442490,33.35299,-1.773664,0.5591207,-0.0382296,0.0502211,-1.018135,2.035459,6.075804,46.06051,1007.338
25.598723412,34.46851,-1.48015,0.924765,-0.04300728,0.02796785,-1.011966,2.033474,7.169351,46.04667,1007.34
25.633487225,35.89391,-1.186637,1.229468,-0.02506574,0.006726148,-1.012126,2.382942,7.888759,45.59619,1007.34
25.665763855,28.02325,-2.654206,0.4372393,-0.03224295,-0.01545866,-0.9837134,2.382942,7.888759,45.59619,1007.338
25.698044300,28.95286,-3.299937,0.6200615,-0.03761237,-0.008841375,-1.025723,2.005534,9.345175,45.14751,1007.338
25.732808113,35.46009,-2.478098,1.046646,-0.01964188,-0.03827055,-1.014327,2.740427,10.8009,45.55375,1007.336
25.765088558,34.46851,-4.180478,0.01065436,-0.0403652,-0.05710165,-0.9844162,2.740427,10.8009,45.55375,1007.336
25.799852371,33.47693,-4.6501,-0.1112271,-0.05735778,-0.03984163,-1.017639,2.737782,12.25896,45.53528,1007.334
25.832132817,48.35061,-2.771612,-0.4768713,-0.07256825,-0.1536336,-1.025504,2.698518,14.06464,44.20502,1007.33
25.864410401,55.41561,-4.121775,-1.756626,-0.06138723,-0.179255,-1.027125,2.698518,14.06464,44.20502,1007.33
25.899174214,59.01008,-3.476045,-2.305093,-0.06470957,-0.1975753,-1.004017,2.68521,14.78803,43.76007,1007.33
25.931454658,53.61837,-4.532695,-2.853559,-0.06176272,-0.2100836,-0.9847565,3.0074,17.31875,42.41506,1007.33
25.966218472,37.75312,-7.17432,-3.523906,-0.02409022,-0.1705761,-0.92515,3.0074,17.31875,42.41506,1007.332
25.998498917,21.45404,-8.935403,-3.645788,-0.007991066,-0.2461741,-0.9700909,3.366208,19.50185,42.38185,1007.334
26.033262730,11.53826,-8.700592,-3.158262,-0.04327689,-0.2467098,-0.9555147,4.076469,21.31082,41.91201,1007.337
26.065539360,19.28497,-8.817998,-1.147219,-0.08528107,-0.2758838,-0.9609079,4.076469,21.31082,41.91201,1007.337
26.097819805,19.84273,-7.233023,-1.878507,-0.1089073,-0.2996165,-0.9469722,3.678125,22.02774,40.66336,1007.335
26.132584095,12.96365,-4.473992,-3.889551,-0.1157523,-0.2662301,-0.9424167,3.688398,22.03257,41.03684,1007.338
26.164864540,15.69049,-6.000264,-9.983621,-0.1317355,-0.2717594,-0.9897907,3.688398,22.03257,41.03684,1007.34
26.199628353,28.51904,-8.64189,-15.28546,-0.1215442,-0.2901475,-0.9981357,3.314025,22.76076,40.65965,1007.34
26.231909275,32.73325,-9.170215,-15.46828,-0.03972508,-0.3276161,-0.9854722,4.389709,23.10768,40.20275,1007.34
26.266668797,32.6093,-6.704698,-11.50714,-0.0643319,-0.3616697,-1.01752,3.636878,24.92697,39.31926,1007.34
26.298949242,50.64364,-8.172267,-10.83679,-0.05027037,-0.3712426,-0.998267,3.636878,24.92697,39.31926,1007.342
26.331229687,71.59074,-12.10535,-9.922681,-0.1059234,-0.3510652,-0.9946482,3.986346,25.64638,38.86878,1007.342
26.365993500,122.1612,-12.04665,-14.79794,-0.1154525,-0.4536145,-1.117037,3.934436,27.81093,37.09818,1007.337
26.398274899,195.2282,-18.38655,-12.96972,-0.07554694,-0.5149952,-0.9850101,3.934436,27.81093,37.09818,1007.337
26.433038235,207.1891,-31.77078,-9.557036,-0.09948166,-0.5629265,-0.8285969,4.186426,30.30865,33.20106,1007.337
26.465315342,31.92759,-25.43089,14.33172,-0.1108406,-0.3528364,-0.5131427,5.09754,36.35462,27.06888,1007.337
26.500079155,-251.478,10.26041,23.16812,-0.1357981,-0.3458284,-0.8519396,5.09754,36.35462,27.06888,1007.339
26.532359600,-352.8049,29.98454,17.7444,-0.1241911,-0.4669774,-1.197345,5.817412,38.53293,26.96791,1007.339
26.564640045,59.01008,6.033805,8.907997,-0.09621964,-0.6445446,-1.211468,6.402812,33.89085,34.80323,1007.339
26.599403858,20.02865,16.77641,13.47855,-0.2249289,-0.1024516,-0.9301311,6.402812,33.89085,34.80323,1007.341
26.631684303,9.617073,11.43446,15.48959,-0.165159,-0.2442447,-0.9818272,6.061832,28.49349,35.31295,1007.339
26.666444302,-1.538185,10.73003,18.0491,-0.2008834,-0.2822228,-1.020158,6.024943,29.93546,34.04955,1007.337
26.698724747,3.543655,6.327319,19.75544,-0.2365778,-0.3122582,-0.9994639,6.024943,29.93546,34.04955,1007.337
26.731006146,23.18931,2.33553,28.5309,-0.1962934,-0.1713205,-0.9992328,6.026266,29.20642,34.05878,1007.337
26.765769959,13.21154,4.85975,34.74685,-0.2021502,-0.1266044,-0.9366022,7.088913,29.18239,33.10853,1007.333
26.798050404,0.568919,8.910241,40.96281,-0.2377158,-0.2352705,-0.9854873,7.088913,29.18239,33.10853,1007.332
26.832814217,12.03405,9.262458,46.69123,-0.2599917,-0.2169006,-0.972282,7.077979,29.54208,32.73044,1007.333
26.865090847,21.51602,10.26041,52.35872,-0.2140274,-0.2054161,-0.9065681,8.143662,28.78981,31.85167,1007.332
26.899854660,13.02562,17.83306,59.42784,-0.2690096,-0.2465225,-0.8520547,8.143662,28.78981,31.85167,1007.332
26.932135105,11.10444,17.36344,65.52191,-0.3050744,-0.3156724,-0.8064436,8.119692,28.77854,30.98022,1007.332
26.964415550,19.34694,21.06172,70.03152,-0.3543264,-0.352664,-0.827819,9.196037,28.76094,30.52794,1007.326
26.999179363,19.28497,16.18938,70.51905,-0.3884647,-0.4101122,-0.7579735,9.196037,28.76094,30.52794,1007.326
27.031460285,29.63457,15.30884,69.42212,-0.421631,-0.4670491,-0.6808755,9.885634,28.73606,29.20973,1007.324
27.066220284,27.21759,11.37576,65.88756,-0.514286,-0.5325155,-0.6428564,11.67555,28.70485,28.3107,1007.324
27.098500729,31.92759,1.924611,61.19512,-0.4970767,-0.6358607,-0.5941703,11.67555,28.70485,28.3107,1007.324
27.133264542,42.58706,-10.28557,55.7714,-0.4388605,-0.6798624,-0.4901233,13.10268,28.67762,27.41718,1007.324
27.165544987,34.65443,-23.08277,49.55545,-0.3472948,-0.7199218,-0.3933772,14.87929,29.36981,26.07319,1007.324
27.197825432,42.89693,-32.88614,42.85197,-0.3055779,-0.7847378,-0.4199414,14.87929,29.36981,26.07319,1007.323
27.232589245,45.93364,-48.38367,30.60289,-0.2729626,-0.8785454,-0.4258629,16.66092,28.24022,24.81453,1007.323
27.264865875,62.48061,-62.12012,25.84951,-0.1706804,-0.7785368,-0.4177797,18.77567,29.28166,22.58896,1007.323
27.299629688,51.51127,-76.4436,17.92722,-0.1522674,-0.8022705,-0.439709,21.6406,29.96188,21.22842,1007.318
27.331911087,59.31995,-95.522,8.725176,-0.1858198,-0.9267304,-0.4384106,21.6406,29.96188,21.22842,1007.318
27.366673946,103.0114,-102.0967,8.907997,-0.2172068,-0.7566299,-0.4828191,23.00715,30.271,18.15165,1007.318
27.398955345,112.8652,-104.0339,13.23479,-0.3455298,-0.6781029,-0.4782284,24.34012,30.19951,13.83457,1007.317
27.431235790,549.9034,-21.85002,9.578345,-0.3521996,-2.357124,-3.417883,24.34012,30.19951,13.83457,1007.317
27.465995789,195.4761,-74.91732,45.41148,-0.3306591,-0.7855254,-0.3454422,26.3475,31.85933,7.741239,1007.317
27.498276234,24.55273,-58.30444,63.93745,-0.2547477,-0.4662766,-0.02230388,26.96023,32.35342,-9.526873,1007.32
27.533040047,-55.76514,52.81992,85.32764,-0.4483983,-0.3143967,-0.4512834,26.96023,32.35342,-9.526873,1007.322
27.565320492,-73.86145,-18.68007,45.899,-0.9042782,-0.3860806,0.05883593,28.04055,30.14872,-9.95145,1007.322
27.600084305,-123.8742,-28.89435,67.47202,-0.831783,-0.8530989,-0.1552385,29.92954,28.40076,-7.342357,1007.322
27.632364750,58.76219,-27.8964,103.8536,-0.7707596,-1.150077,-0.3054743,29.92954,28.40076,-7.342357,1007.322
27.664641857,150.6071,-17.3299,109.4602,-0.8831212,-0.4773582,0.2381105,30.78351,28.45316,-2.684886,1007.32
27.699405670,48.41259,-37.46495,103.3052,-0.8699458,-0.6668707,0.4245788,31.527,25.17017,-2.218647,1007.324
27.731686115,-51.24106,-28.18991,100.1972,-1.011059,-1.027527,0.07572328,31.527,25.17017,-2.218647,1007.32
27.766450405,-30.10804,-33.12095,86.9121,-0.9192938,-0.9671161,0.1174447,30.06714,16.791,-2.961874,1007.32
27.798730850,-21.24581,-35.76257,72.8348,-0.9424824,-1.025734,-0.02448613,28.19601,10.58198,-5.345694,1007.32
27.831011296,-10.71029,-26.25272,58.94032,-0.8967372,-0.7356853,-0.01036612,28.19601,10.58198,-5.345694,1007.323
27.865770817,-42.4408,-13.80773,37.48919,-0.9067832,-0.5774716,-0.01041176,27.37053,6.165051,-9.200813,1007.325
27.898051739,-49.44382,-6.293778,23.89941,-0.993704,-0.6505342,-0.07687096,27.33854,3.961053,-10.4803,1007.327
27.932815552,-52.66645,0.6918524,15.91618,-1.018773,-0.4563413,-0.01431604,27.33854,3.961053,-10.4803,1007.327
27.965095997,-43.18449,1.337583,14.88019,-0.9942141,-0.4307913,-0.06401788,28.77898,3.210433,-10.92886,1007.327
27.999859810,-11.94976,6.386022,17.86628,-1.087072,-0.2049215,-0.02144118,28.7454,2.829819,-12.16917,1007.328
28.032140732,-10.09055,3.39218,19.9992,-1.028353,-0.0846943,-0.00783129,28.7454,2.829819,-12.16917,1007.332
28.064417362,0.197077,0.9266635,26.03233,-0.9555417,-0.008123129,-0.03655916,28.75567,2.834648,-11.79569,1007.335
28.099181175,9.679047,-1.949773,33.40616,-1.015612,0.05086595,-0.0003198225,29.12016,2.831465,-11.73896,1007.339
28.131461620,21.20615,-3.182531,40.96281,-0.9412442,0.1107773,0.05158849,29.12016,2.831465,-11.73896,1007.339
28.166225433,2.118261,-4.473992,47.30064,-0.9667937,0.05825303,-0.003767105,29.47426,0.9992619,-12.15713,1007.344
28.198505878,20.40049,-9.581134,56.80739,-0.974705,-0.1061499,-0.1013726,28.70275,-0.1088462,-13.87515,1007.347
28.233269692,23.99496,-8.817998,65.88756,-0.992461,0.09075695,0.04191627,29.02156,-2.322467,-15.59588,1007.349
28.265546322,-10.40042,-13.27941,60.40289,-1.147171,-0.05760257,0.2333313,29.02156,-2.322467,-15.59588,1007.348
28.297826767,-110.6118,-49.26421,58.33091,-1.104742,-0.09024249,-0.009631956,27.5278,-5.245178,-17.2798,1007.348
28.332590580,16.6201,-14.27736,63.63275,-1.056803,-0.1587278,-0.1246997,27.81104,-6.745866,-20.25469,1007.355
28.364871025,-32.64896,-23.55239,66.13132,-1.135095,-0.07570269,0.1655209,27.81104,-6.745866,-20.25469,1007.359
28.399634838,33.35299,-12.86849,65.76568,-1.006265,-0.041295,-0.07192948,27.39087,-8.16736,-22.41012,1007.364
28.431916237,-5.876342,-12.80979,66.13132,-1.172034,0.0221178,0.2169178,26.99346,-8.909307,-23.70255,1007.365
28.466676235,-9.904631,-14.04255,51.99307,-1.277195,-0.135955,0.07024719,26.99346,-8.909307,-23.70255,1007.365
28.498956680,-13.56108,-19.97153,36.7579,-1.326915,-0.1508944,0.1306992,26.21261,-11.48111,-25.83784,1007.365
28.531237126,-28.37278,-17.56471,19.75544,-1.301468,-0.316693,0.02141141,26.52982,-11.87135,-27.5194,1007.368
28.566000939,5.526812,-26.48754,17.19593,-1.103631,-0.1419316,0.01617744,26.52982,-11.87135,-27.5194,1007.37
28.598281384,9.555099,-19.5019,19.14603,-0.9172586,0.001125961,0.09007186,26.15506,-11.873,-27.94961,1007.375
28.633045197,17.36378,-12.9859,27.12927,-0.8424538,0.05205117,0.060227,25.05606,-12.5957,-28.35956,1007.377
28.665321827,7.262074,-2.419395,26.21516,-0.9386846,0.07814245,0.1297145,25.05606,-12.5957,-28.35956,1007.377
28.700085640,-12.38358,6.327319,21.40084,-1.170116,-0.04342417,0.009629255,25.03276,-12.97148,-29.2264,1007.379
28.732366085,13.14957,-2.771612,15.7943,-1.047676,0.1112363,-0.008609352,24.68395,-14.05541,-28.77131,1007.378
28.764647484,15.69049,4.214019,14.08796,-0.8761339,0.1767258,0.03635311,24.68395,-14.05541,-28.77131,1007.381
28.799410343,25.91615,1.983313,15.12395,-1.050438,0.3546276,0.273175,24.3225,-14.78045,-28.75656,1007.383
28.831691742,12.90168,-2.30199,9.212701,-0.9415541,0.2815051,0.166168,24.71057,-15.5022,-27.88139,1007.383
28.866451264,-6.496078,4.977155,6.226606,-0.9996407,0.2517662,0.007556203,24.71057,-15.5022,-27.88139,1007.385
28.898731709,-0.4846332,0.9853663,3.05769,-0.9628027,0.2644543,0.1506468,23.99766,-15.8531,-27.43002,1007.388
28.931012630,9.802994,1.396286,-2.366033,-0.9564937,0.2411111,0.1113419,24.3611,-16.22161,-27.43092,1007.386
28.965776443,9.802994,5.50548,-7.728815,-1.011974,0.1852823,0.1058263,24.3611,-16.22161,-27.43092,1007.388
28.998056889,13.21154,5.035858,-11.93372,-1.005148,0.1723437,0.1376449,24.3611,-16.22161,-27.43092,1007.388
29.032853127,22.75549,10.26041,-12.72595,-0.9565296,0.2522021,0.09980255,24.38441,-15.84582,-26.56408,1007.389
29.065129757,12.21997,11.08224,-13.51818,-1.026834,0.1168745,0.06679422,24.38441,-15.84582,-26.56408,1007.391
29.099893570,26.04009,9.321161,-10.1055,-0.9920321,0.1306026,0.09000233,25.0993,-16.58847,-27.00161,1007.395
29.132174015,26.04009,11.19965,-8.521044,-0.9867212,0.1564839,0.1544354,25.48367,-16.21748,-26.20253,1007.392
29.164454460,19.47089,13.19554,-6.814704,-1.016764,0.158582,0.08489689,25.48671,-16.9457,-26.13105,1007.392
29.199218273,15.25668,16.13068,-5.352128,-0.9467003,0.13365,-0.04882495,25.48671,-16.9457,-26.13105,1007.392
29.231499195,5.278917,18.77231,-3.82861,-0.9897003,0.1488236,0.03837297,26.59597,-16.21817,-25.34763,1007.394
29.266258717,2.861944,17.01122,-1.025338,-1.022532,0.1254781,0.03154285,26.24783,-17.66661,-24.88792,1007.397
29.298539162,-1.848054,13.13684,-1.390982,-1.033209,0.1472752,0.0466764,26.24783,-17.66661,-24.88792,1007.399
29.333302975,1.374577,11.78668,-0.1112271,-1.004246,0.172565,0.05932717,27.3355,-17.31406,-24.90908,1007.399
29.365584374,-10.15252,6.503428,-0.5987527,-0.9768708,0.2119394,-0.05459948,27.69893,-17.68257,-24.90998,1007.401
29.397864819,-18.14713,2.629044,-2.792618,-1.008156,0.1323083,-0.1071962,27.69893,-17.68257,-24.90998,1007.399
29.432628632,-8.975025,-3.182531,-3.767669,-1.001456,0.1862846,-0.03583825,27.69893,-17.68257,-24.90998,1007.4
29.464905262,-12.07371,-11.75314,-5.717772,-1.037233,0.195485,-0.003801878,27.69761,-16.95354,-24.91921,1007.402
29.499669075,-18.2091,-18.03433,-9.86174,-0.9786607,0.1519365,-0.05203616,27.69761,-16.95354,-24.91921,1007.402
29.531949520,-21.67962,-21.5565,-10.71491,-1.026937,0.1560334,0.05541457,27.67496,-17.69384,-25.78143,1007.402
29.566713333,-14.80055,-23.84591,-9.86174,-1.009895,0.08961976,0.006656351,27.29927,-16.23661,-26.16786,1007.402
29.598993778,-9.284894,-28.30732,-9.739859,-0.9926656,0.1842223,0.06226913,27.29927,-16.23661,-26.16786,1007.4
29.631274223,-20.13028,-29.18786,-11.08055,-0.9813707,0.1097177,0.05843709,26.17432,-15.87704,-27.46311,1007.403
29.666034222,-11.02016,-31.00765,-11.4462,-0.9800687,0.1511316,-0.002726955,26.52379,-15.15763,-27.91359,1007.403
29.698314667,-14.86252,-31.24246,-14.24947,-0.9809329,0.1525324,0.1258776,26.52379,-15.15763,-27.91359,1007.403
29.733078480,-32.52502,-29.54008,-16.62616,-0.9930211,0.1656934,0.1641701,25.41017,-14.4279,-28.77773,1007.405
29.765358925,-36.42936,-30.42062,-19.06379,-0.9953929,0.1404665,0.1475949,24.67064,-13.33201,-29.21627,1007.402
29.797640324,-52.23264,-33.12095,-25.82821,-1.020938,0.1192347,0.1871712,24.67064,-13.33201,-29.21627,1007.404
29.832403183,-50.49738,-40.75231,-31.55663,-1.078287,0.01040807,0.1093258,23.90715,-12.24739,-30.52627,1007.406
29.864680767,-29.7362,-64.70304,-45.8777,-1.149239,-0.000501257,0.2346273,23.14233,-10.43374,-31.8455,1007.406
29.899444580,41.28561,-110.139,-54.77504,-1.599933,0.2980373,-0.1107797,23.14233,-10.43374,-31.8455,1007.406
29.931725025,-21.18384,-165.9653,-61.17382,-2.449646,0.6087764,0.0547704,22.39016,-8.978966,-32.72438,1007.402
29.966488838,-152.9398,-237.1718,-101.5775,-2.106641,-0.5269675,-0.6577637,19.78931,-7.216588,-34.82447,1007.403
29.998769283,7.633916,-220.735,-147.8315,-1.026818,-0.7908656,-0.7616632,19.78931,-7.216588,-34.82447,1007.402
30.031049728,140.2576,-140.1361,-148.9284,-0.4535559,-0.575181,-1.003875,15.37077,-4.280773,-36.97385,1007.402
30.065809727,594.0906,-76.97192,-79.21226,0.7266511,0.2742446,-2.246927,8.807553,0.8829708,-37.81064,1007.4
30.098090172,440.272,-0.01258095,-55.20163,0.2662003,1.361789,1.90912,6.286715,-2.728632,-37.29015,1007.402
30.132853985,491.5862,-174.8882,2.813927,-1.046403,2.549706,3.844723,6.286715,-2.728632,-37.29015,1007.409
30.165134430,43.45469,-169.8397,46.38653,1.114902,2.845276,0.9831725,5.711333,-19.37128,-32.71029,1007.413
30.199898243,-373.0083,-107.967,37.0626,1.045968,-0.6595345,-0.03104046,1.045353,-28.05171,-31.28287,1007.413
30.232178688,-103.4849,-70.51462,44.31454,-0.462445,0.1135387,0.7476909,1.045353,-28.05171,-31.28287,1007.415
30.264455319,-109.1864,-112.9567,-3.280144,-0.6090807,-0.27813,1.820464,-2.761728,-20.79959,-37.35796,1007.417
30.299219132,198.8846,-194.4949,37.30637,-0.759909,0.8994486,1.148253,-6.711072,-16.75234,-37.78471,1007.418
30.331499577,-404.243,-186.6287,24.44788,0.1423771,0.8497922,2.154963,-6.711072,-16.75234,-37.78471,1007.42
30.366263390,-146.2467,-214.2777,-53.92187,-0.7756346,-1.255177,1.101712,-11.74201,-16.67397,-35.96459,1007.418
30.398544788,-44.05212,-220.3828,-87.86584,-0.4898617,-0.8307422,1.727629,-17.94708,-8.962599,-36.83921,1007.418
30.433307648,33.35299,-177.295,-59.34559,-0.7675753,-0.843825,2.672309,-17.94708,-8.962599,-36.83921,1007.418
30.465584755,219.3359,-233.18,10.5534,0.8688837,1.315949,2.581474,-24.03689,-5.270947,-33.74075,1007.411
30.497865200,-136.8267,-161.9148,36.81884,-0.453322,-0.8305758,0.8883016,-30.75839,-7.97246,-27.56187,1007.401
30.532629013,151.041,-200.5413,70.70187,-0.3245374,0.2623544,0.7052138,-30.75839,-7.97246,-27.56187,1007.394
30.564909935,175.8304,-158.4514,111.715,0.7146859,1.679993,0.179252,-35.7431,-7.87235,-24.06108,1007.394
30.599673748,-319.587,-27.54419,103.3661,0.7415957,0.5747256,-0.2689534,-39.59235,-6.363551,-18.78939,1007.387
30.631954193,-444.278,64.38437,11.22374,0.96341,-1.142046,-1.259607,-39.59235,-6.363551,-18.78939,1007.382
30.666713715,-31.59541,98.02106,-5.169305,1.363549,-2.032586,-2.348919,-42.04172,-3.768587,-17.53907,1007.38
30.698994637,457.5627,113.3425,9.15176,0.7759072,0.08900265,-1.687298,-41.00284,4.587212,-18.90672,1007.374
30.731275082,566.2025,179.0309,8.115768,-0.07236872,0.6801859,-0.7336013,-41.00284,4.587212,-18.90672,1007.374
30.766038895,319.7953,154.0822,-3.097322,-0.2369303,1.471597,0.1786677,-40.0437,3.055202,-23.6978,1007.372
30.798319340,-66.23869,193.4131,1.473231,-0.2615625,0.8995073,-0.2567262,-36.90228,-7.528871,-26.60127,1007.371
30.833083153,15.13273,195.9373,-9.739859,-0.3699583,0.004341565,0.004792256,-36.90228,-7.528871,-26.60127,1007.372
30.865359783,19.84273,195.7025,-28.20489,-0.1062503,0.1704567,0.1057237,-32.64558,-13.82421,-30.51053,1007.374
30.897640228,-543.9937,131.8926,-72.56973,-1.470639,-2.127255,8.964283,-29.12728,-12.09142,-34.44806,1007.374
30.932404041,396.4567,-353.5794,-4.133313,1.091272,1.476109,1.816138,-25.18137,-13.98042,-36.22855,1007.398
30.964684486,-24.03462,96.43609,40.04869,0.7191961,3.056031,1.391312,-25.18137,-13.98042,-36.22855,1007.389
30.999448299,-532.5286,54.69841,8.054828,-0.6236883,0.02703392,-0.9391711,-29.61492,-18.53848,-26.13737,1007.387
31.031766891,-45.72541,29.1627,-10.59303,-0.4661871,-0.4952256,0.3250962,-28.75524,-17.19863,-34.38895,1007.387
31.066526413,-3.831211,7.501375,-9.496096,0.0643722,-0.2719348,0.5074788,-28.75524,-17.19863,-34.38895,1007.387
31.098807335,93.03362,25.87534,4.520267,-0.07548705,-0.1281627,0.7827075,-27.70544,-9.202521,-35.37849,1007.387
31.131087780,76.92047,10.67132,-0.05028634,-0.2548956,0.07357912,1.347447,-28.0549,-9.921929,-34.92802,1007.391
31.165851593,49.83798,-13.22071,-3.462966,-0.09337067,0.09416203,1.429884,-28.0549,-9.921929,-34.92802,1007.388
31.198132038,68.86389,-12.86849,5.556259,0.1222512,0.6178388,1.125897,-26.96128,-12.85002,-34.90764,1007.39
31.232895851,-3.521343,3.803099,8.786117,0.01262707,0.4509829,0.8186843,-26.92268,-14.29118,-33.582,1007.39
31.265172482,-2.46779,0.9266635,5.373436,-0.01973515,0.2463313,0.860133,-26.92268,-14.29118,-33.582,1007.39
31.299936295,4.597207,-2.830314,0.924765,0.007819397,0.2874271,0.9685975,-27.27281,-14.64607,-33.13614,1007.388
31.332216740,6.642338,-2.419395,1.35135,0.04422735,0.2197054,0.9458959,-27.28479,-14.65171,-33.57187,1007.392
31.364497185,12.65378,1.924611,1.716994,0.02658378,0.3310722,0.9799244,-27.28479,-14.65171,-33.57187,1007.388
31.399260998,-2.281869,0.1048246,0.1325358,0.007107178,0.3866555,0.976415,-27.27281,-14.64607,-33.13614,1007.388
31.431541443,-14.30476,-1.832367,-2.000389,0.02172539,0.3309633,0.9518948,-27.9977,-15.00261,-33.12049,1007.388
31.466301441,-19.1387,-1.832367,-2.366033,0.03307495,0.2332285,0.9474471,-27.9977,-15.00261,-33.12049,1007.39
31.498581886,-8.851078,0.2809329,-1.878507,0.02551397,0.1577021,0.9436499,-27.6236,-14.63645,-32.6949,1007.391
31.533345699,1.622471,0.4570413,-0.9643969,0.00514488,0.1842715,0.947229,-27.64691,-15.01224,-33.56174,1007.387
31.565626145,7.633916,0.809258,-0.1721677,0.004484341,0.249996,0.9214984,-27.64691,-15.01224,-33.56174,1007.387
31.597906590,9.121284,-1.127934,-0.5987527,0.01114129,0.3096548,0.9561474,-27.27347,-14.28156,-33.14075,1007.387
31.632670403,0.940761,-0.4235004,-0.05028634,0.01251324,0.3508699,0.9791005,-27.98638,-14.63246,-32.68938,1007.387
31.664947033,-5.442526,-1.714962,-0.1112271,0.02377801,0.2830813,0.9579028,-27.98638,-14.63246,-32.68938,1007.389
31.699710846,-4.636868,-0.3647976,0.1934765,0.01616312,0.228833,0.9498758,-27.63493,-15.0066,-33.12601,1007.383
31.731991291,0.4449717,-0.1886893,0.8028836,0.02007283,0.2084911,0.9415333,-27.28413,-15.01622,-33.56725,1007.385
31.766755104,3.791549,-0.07128373,0.9857057,0.01368205,0.2554404,0.949549,-27.28413,-15.01622,-33.56725,1007.385
31.799035549,3.29576,-0.01258095,0.6810021,0.01503739,0.2965867,0.9521972,-27.63559,-14.64208,-33.13062,1007.385
31.831316948,1.126682,0.3396357,-0.2940492,0.02227901,0.2999802,0.9478499,-27.98572,-14.99698,-32.68477,1007.385
31.866075993,-2.46779,-0.3647976,-0.7815748,0.01799866,0.2724101,0.9554374,-27.99836,-14.6381,-33.12511,1007.387
31.898357392,-2.095948,-0.4235004,-0.4768713,0.02335478,0.2535209,0.9461331,-27.99836,-14.6381,-33.12511,1007.384
31.933120251,-0.05081761,-0.1886893,-0.05028634,0.01757304,0.2472378,0.9533614,-27.27347,-14.28156,-33.14075,1007.384
31.965401649,0.568919,0.1048246,0.2544172,0.01897012,0.2680329,0.9481589,-27.99836,-14.6381,-33.12511,1007.384
31.997682095,0.5069454,0.4570413,0.1934765,0.01412105,0.2752927,0.9525615,-27.99836,-14.6381,-33.12511,1007.388
32.032445908,-0.2367386,0.1048246,0.07159507,0.01509408,0.2753201,0.9598112,-27.63625,-14.27757,-33.13524,1007.39
32.064722538,-1.724107,-0.1886893,-0.4159306,0.02187864,0.2695372,0.9612139,-27.64691,-15.01224,-33.56174,1007.387
32.099486351,-0.6705542,-0.3647976,0.3762986,0.03545189,0.2462605,0.9354302,-27.64691,-15.01224,-33.56174,1007.387
32.131766796,0.8787873,0.6331496,0.1325358,0.01802725,0.255425,0.9413211,-27.29744,-14.29283,-34.01221,1007.387
32.166530609,2.118261,1.220177,0.01065436,0.01559572,0.2651344,0.9525006,-27.64823,-14.2832,-33.57097,1007.389
32.198811054,2.118261,0.5744469,0.2544172,0.0204266,0.2670839,0.9525012,-27.64823,-14.2832,-33.57097,1007.389
32.231091499,0.8168136,0.3983385,0.3153579,0.0136354,0.2738166,0.945786,-27.64757,-14.64772,-33.56635,1007.389
32.265851498,0.3210244,-0.01258095,-0.05028634,0.01847169,0.2743226,0.9481957,-27.63493,-15.0066,-33.12601,1007.386
32.298131943,0.6308927,0.2809329,0.01065436,0.02379954,0.2714424,0.950585,-27.63493,-15.0066,-33.12601,1007.386
32.332895756,0.5069454,0.2222302,0.01065436,0.0117222,0.2695,0.9588185,-27.99903,-14.27358,-33.12972,1007.388
32.365176201,0.2590507,0.04612182,0.07159507,0.02042475,0.2685423,0.9544433,-27.27215,-15.01059,-33.13152,1007.388
32.399940014,0.382998,-0.07128373,0.1934765,0.01219923,0.2719177,0.9578642,-27.27215,-15.01059,-33.13152,1007.388
32.432220459,-0.4226596,-0.3647976,0.07159507,0.0194515,0.2704687,0.9525226,-27.28413,-15.01622,-33.56725,1007.384
32.464497089,-0.05081761,0.04612182,0.07159507,0.01992972,0.2728913,0.9530188,-27.27281,-14.64607,-33.13614,1007.384
32.499260903,-0.2367386,0.1048246,-0.05028634,0.01510109,0.2694851,0.9515595,-27.27281,-14.64607,-33.13614,1007.384
32.531541348,-0.05081761,-0.07128373,0.1934765,0.01801014,0.2680596,0.956863,-28.00969,-15.00825,-33.55622,1007.384
32.566305161,0.568919,-0.07128373,0.2544172,0.02089527,0.2733763,0.952536,-27.64625,-15.37675,-33.55712,1007.386
32.598585606,0.2590507,-0.01258095,0.2544172,0.01412717,0.2728747,0.9530312,-27.64625,-15.37675,-33.55712,1007.384
32.633349419,-0.3606859,-0.1299865,0.07159507,0.01895229,0.2767551,0.9515926,-27.9977,-15.00261,-33.12049,1007.384
32.665626049,-0.7945015,-0.3647976,-0.1112271,0.01171252,0.2719032,0.9539978,-27.63559,-14.64208,-33.13062,1007.384
32.697906494,-4.760816,-1.949773,0.3762986,0.01699232,0.2942349,0.9705502,-27.63559,-14.64208,-33.13062,1007.384
32.732670307,-10.02858,-2.30199,1.168528,0.03006418,0.2840769,0.9607956,-27.63493,-15.0066,-33.12601,1007.38
32.764950752,-8.293315,-1.304042,0.8028836,0.02432098,0.2569407,0.9548523,-27.63559,-14.64208,-33.13062,1007.38
32.799714565,-9.594762,-1.773664,0.3153579,0.01562109,0.2613301,0.9722999,-27.99903,-14.27358,-33.12972,1007.38
32.831995487,-9.160947,-2.30199,1.656053,0.01995407,0.2710375,0.9771801,-27.99903,-14.27358,-33.12972,1007.382
32.864271641,-11.88779,-2.125881,1.473231,0.03446618,0.2642614,0.964541,-27.63625,-14.27757,-33.13524,1007.38
32.899035454,-10.89621,-0.4235004,1.168528,0.03694298,0.2386135,0.962456,-28.01233,-13.55018,-33.57468,1007.378
32.931315899,-9.284894,0.6331496,1.899816,0.02970513,0.2283943,0.9517778,-28.01233,-13.55018,-33.57468,1007.376
32.966079712,-9.098972,-0.07128373,1.899816,0.02724843,0.2394653,0.9363761,-28.35048,-13.89944,-32.6931,1007.376
32.998360634,-7.673578,0.9853663,1.168528,0.02829809,0.2158653,0.96863,-28.01233,-13.55018,-33.57468,1007.376
33.033124447,-6.620026,-0.1886893,1.899816,0.01376496,0.2357485,0.9934297,-28.01233,-13.55018,-33.57468,1007.379
33.065400600,-9.470815,-2.889017,2.813927,0.03599352,0.2367291,0.9784008,-27.65088,-12.82514,-33.58943,1007.381
33.097681522,-6.805947,-0.3647976,3.179571,0.05776584,0.2197408,0.9449,-28.40106,-12.46392,-34.45447,1007.381
33.132445335,-12.44555,1.924611,2.570164,0.01961852,0.2037242,0.9632619,-28.40106,-12.46392,-34.45447,1007.377
33.164725781,-7.425683,2.922558,2.692045,0.03124129,0.2023646,0.9806328,-28.02696,-12.09776,-34.02887,1007.377
33.199489594,-13.37516,0.2809329,3.179571,0.01192154,0.1970254,0.9922466,-28.39106,-11.36473,-34.03259,1007.379
33.231770039,-18.58094,-2.008476,3.9718,0.01767432,0.2251786,1.012699,-28.39106,-11.36473,-34.03259,1007.381
33.266530037,-27.31923,-3.886965,4.703089,0.01817014,0.2115481,0.9884483,-28.02829,-11.36872,-34.03811,1007.379
33.298810482,-31.78133,-4.943614,4.581207,0.02019051,0.1840565,1.01391,-28.0416,-10.64533,-34.48307,1007.379
33.331090927,-36.05751,-5.237128,4.215563,0.04257079,0.1196954,0.9951249,-28.0416,-10.64533,-34.48307,1007.379
33.365854740,-31.16159,-4.121775,5.495318,0.003927336,0.09971584,0.9868762,-28.41768,-9.917941,-34.92251,1007.375
33.398135185,-26.88541,-6.587292,5.129674,0.006384886,0.07545426,0.9654617,-28.05755,-8.463866,-34.94649,1007.377
33.432898998,-27.07133,-6.704698,4.215563,0.011818,0.03245059,0.980192,-28.05755,-8.463866,-34.94649,1007.377
33.465175629,-11.51595,-4.180478,2.874867,0.09359566,-0.01887264,0.9028572,-28.78443,-7.726858,-34.94469,1007.375
33.499939442,-7.983447,0.2809329,2.570164,0.03549311,0.03195251,0.9559663,-28.81027,-6.705333,-35.82922,1007.375
33.532358647,-7.673578,2.511638,2.387342,0.05577551,0.05926618,1.002004,-28.81027,-6.705333,-35.82922,1007.377
33.564639092,-11.33002,1.220177,-0.05028634,0.09296566,0.07580981,0.997184,-29.16106,-6.69571,-35.38798,1007.374
33.599402905,-16.34989,1.865908,-1.512863,0.1118533,0.05888201,0.9839942,-28.41286,-5.963386,-34.53679,1007.372
33.631683350,-14.49068,1.924611,-2.731677,0.05720809,0.06994624,1.010764,-28.41286,-5.963386,-34.53679,1007.374
33.666443348,-18.02318,1.220177,-3.219203,0.04562461,0.05925189,1.006377,-28.43749,-5.610139,-35.41286,1007.374
33.698723793,-20.81199,-2.654206,-3.950491,0.03982672,0.04899254,0.9826429,-28.43749,-5.610139,-35.41286,1007.374
33.733487606,-17.9612,-0.775717,-2.000389,0.07469371,0.02047477,0.9630681,-28.80226,-4.512603,-35.42119,1007.37
33.765768051,-11.26805,0.5744469,0.924765,-0.02382347,-0.0208216,0.9983366,-28.80226,-4.512603,-35.42119,1007.372
33.798048496,-10.77226,-4.180478,2.509223,0.03136815,-0.06436499,0.9544606,-28.43882,-4.881108,-35.42209,1007.372
33.832812309,-1.972001,-1.304042,3.05769,0.06240702,-0.1215586,0.9013737,-28.45345,-3.428679,-35.87628,1007.372
33.865088940,11.35233,1.513691,3.11863,0.03387528,-0.1143207,0.9193636,-28.45345,-3.428679,-35.87628,1007.374
33.899852753,21.70194,-0.540906,4.215563,0.01571481,0.01840807,0.9743026,-28.80358,-3.783572,-35.43042,1007.375
33.932133198,19.84273,-0.9518253,3.362393,0.09688565,0.03694115,0.9481273,-28.41617,-4.140807,-34.55987,1007.377
33.964413643,16.92997,4.918452,1.473231,0.07417775,0.04819327,1.003352,-28.41617,-4.140807,-34.55987,1007.377
33.999177456,15.25668,3.803099,2.874867,0.02758371,0.1157549,0.9873998,-28.78895,-5.236,-34.97623,1007.379
34.031516552,15.07076,-0.3060949,4.76403,0.04142394,0.185407,0.9660114,-27.7126,-5.2536,-35.4285,1007.379
34.066276550,-22.23739,1.27888,2.20452,0.1207029,0.01601907,1.037393,-27.7126,-5.2536,-35.4285,1007.375
34.098556995,-24.03462,0.2222302,1.290409,0.0145271,-0.04549992,1.109304,-28.06339,-5.243978,-34.98726,1007.376
34.133320808,-16.34989,-7.233023,4.459326,0.04369517,0.04069655,0.958899,-28.43882,-4.881108,-35.42209,1007.376
34.165601254,-8.169368,-3.476045,3.91086,0.1188018,-0.02734112,0.9530323,-28.43882,-4.881108,-35.42209,1007.378
34.197881699,-11.82581,0.2222302,1.899816,0.04927237,-0.05986184,0.9829705,-28.4508,-4.886743,-35.85781,1007.378
34.232645512,-9.904631,-8.935403,-0.1721677,0.04692331,-0.070335,1.036094,-29.52847,-4.14011,-35.41477,1007.374
34.264922142,-10.02858,-9.228917,0.3153579,0.09481821,-0.08671395,1.017527,-29.52847,-4.14011,-35.41477,1007.376
34.299685955,-1.228317,-7.291725,-1.2691,0.01302376,-0.0515864,1.028055,-29.16636,-3.779583,-35.4249,1007.376
34.331966400,-5.070684,-7.350428,-5.291187,0.05309466,-0.02094813,1.038779,-28.78159,-2.678756,-34.57281,1007.376
34.366729736,-15.48226,-5.002317,-5.595891,0.07571185,0.03046242,1.053526,-28.78159,-2.678756,-34.57281,1007.376
34.399011135,-21.67962,-5.237128,-3.706729,0.04226555,0.04615485,1.000025,-29.51781,-3.405445,-34.98828,1007.374
34.431291580,-26.63752,-9.69854,-2.305093,0.06389108,0.1013702,0.9959416,-29.88058,-3.401456,-34.98277,1007.374
34.466051102,-38.66041,-11.92924,0.1325358,0.1151213,0.1067859,0.9799086,-29.88058,-3.401456,-34.98277,1007.372
34.498331547,-49.38185,-8.994106,3.545215,0.1098578,0.07230525,0.9483004,-29.87058,-2.302274,-34.56088,1007.372
34.533094883,-64.50343,-5.530642,4.946852,0.1148959,-0.01333627,0.9478026,-29.87257,-1.208727,-34.57473,1007.372
34.565376282,-75.59671,-8.524484,1.229468,0.1284503,-0.2174513,0.9659503,-29.87257,-1.208727,-34.57473,1007.372
34.600139141,-51.73685,-14.39476,5.068733,0.1516038,-0.1966071,0.9568336,-29.86389,0.6194859,-34.16208,1007.372
34.632420540,-44.05212,-8.524484,5.982844,0.1665421,-0.1850499,0.9273774,-30.19468,2.827473,-32.87708,1007.374
34.664696694,-46.03527,-7.878753,4.946852,0.1226347,-0.2321823,0.9078665,-30.19468,2.827473,-32.87708,1007.37
34.699460030,-34.75607,-5.471939,5.007792,0.1299765,-0.3090039,0.7947726,-30.57275,4.648406,-33.33037,1007.37
34.731741429,-16.22594,-1.832367,7.689183,0.12749,-0.2995223,0.738753,-30.56407,6.476619,-32.91772,1007.37
34.766504288,-2.46779,2.687747,6.714132,0.1335492,-0.4098594,0.7327948,-30.55209,6.482253,-32.482,1007.372
34.798784733,16.24825,10.43651,4.581207,0.1218025,-0.3640553,0.6929551,-30.55209,6.482253,-32.482,1007.374
34.833548546,11.9101,32.03913,3.11863,0.1542027,-0.388874,0.6245793,-30.57804,7.564532,-33.3673,1007.375
34.865825176,23.93299,52.23289,3.179571,0.1327565,-0.3217146,0.6114711,-30.59003,7.558897,-33.80303,1007.375
34.898105622,20.40049,39.7292,-1.390982,0.01042878,-0.4973642,1.290934,-30.59003,7.558897,-33.80303,1007.375
34.932869434,74.06968,8.968945,-9.739859,-0.1586694,-0.4733116,1.534605,-29.52435,6.806632,-34.6818,1007.377
34.965150356,41.22364,5.446777,-2.366033,0.1742616,-0.1054463,1.134725,-28.44668,6.06,-35.12484,1007.373
34.999914169,31.80365,8.205808,4.215563,0.00556529,-0.007011291,0.9074653,-28.44668,6.06,-35.12484,1007.373
35.032194614,34.84035,4.801047,-3.280144,0.03143816,-0.1192946,0.8816323,-28.82879,3.501108,-35.95847,1007.373
35.064470768,32.23746,2.629044,-7.424111,0.08477471,-0.1713118,0.909261,-28.45271,2.773723,-35.51902,1007.373
35.099234581,34.15864,5.094561,-5.53495,-0.008231463,-0.223037,1.147019,-28.45271,2.773723,-35.51902,1007.374
35.131515503,31.36983,-13.98384,-1.512863,0.1341433,-0.1265076,1.094083,-28.82549,1.67853,-35.93539,1007.374
35.166279316,28.64299,7.031753,2.20452,0.2174688,-0.04504145,0.9299975,-28.4594,-0.1480374,-35.91782,1007.373
35.198559761,26.10207,26.05145,1.35135,0.002396288,-0.04864117,1.049366,-28.4594,-0.1480374,-35.91782,1007.374
35.233323574,8.997336,15.25014,2.20452,-0.05157453,0.05748128,0.9944906,-28.07133,-0.8697886,-35.04265,1007.374
35.265600205,5.092996,17.18733,3.849919,0.1325597,0.009718115,0.7385666,-27.38041,-1.623701,-36.35163,1007.374
35.297880650,23.31325,25.69924,10.00493,-0.09845214,0.05550157,1.02117,-27.38041,-1.623701,-36.35163,1007.376
35.332644463,-20.68805,18.18528,14.27078,-0.1840726,0.1010557,1.112983,-27.39173,-1.993851,-36.78274,1007.378
35.364924908,-42.19291,-4.767506,19.93826,-0.08920215,-0.007251124,0.9168535,-26.66618,-2.001828,-36.79377,1007.374
35.399688721,-38.10265,11.78668,32.55299,0.08203563,-0.1467034,1.176265,-26.66618,-2.001828,-36.79377,1007.374
35.431969166,-83.03355,0.9266635,49.37262,-0.00217182,-0.08859573,1.258478,-26.66684,-1.637312,-36.79839,1007.372
35.466729164,-137.7563,1.631097,54.4307,-0.0791508,-0.1898758,0.8534299,-25.94592,0.9063215,-36.84173,1007.372
35.499009609,-102.0595,2.511638,47.30064,-0.2305739,-0.3938515,0.7665444,-25.94592,0.9063215,-36.84173,1007.376
35.531290054,-66.17671,-6.704698,37.85483,-0.299418,-0.4939488,0.8468578,-25.93989,4.192597,-36.44755,1007.377
35.566053867,-21.80357,-15.2753,23.96035,-0.2233696,-0.3510304,0.8301027,-25.92518,9.307087,-35.64072,1007.377
35.598334313,14.14115,-18.32785,5.800022,-0.2202517,-0.4429719,0.8286064,-25.92518,9.307087,-35.64072,1007.376
35.633098126,52.31693,-34.06019,-15.89487,-0.1798074,-0.3096794,1.000414,-25.90451,11.14093,-34.79234,1007.372
35.665374756,26.53588,-41.04582,-33.08015,-0.1529669,0.03387652,1.112051,-27.00615,11.8763,-35.22075,1007.373
35.700138569,-38.10265,-38.81512,-53.31247,-0.07043434,-0.1252942,1.053922,-26.97821,9.700472,-34.3216,1007.375
35.732419014,-37.04909,-35.76257,-61.72228,-0.04679986,-0.3081873,1.042679,-26.97821,9.700472,-34.3216,1007.375
35.764699459,-26.01778,-42.86561,-56.54232,0.08050177,-0.4108866,0.9030737,-28.75482,9.008287,-32.97762,1007.377
35.799463272,-31.40949,-41.98507,-36.98035,0.2734441,-0.4230089,0.8755163,-30.1946,9.394392,-32.52444,1007.377
35.831743717,-16.53581,-37.93458,-22.35459,0.3731036,-0.4870254,0.7502103,-30.1946,9.394392,-32.52444,1007.373
35.866503716,6.51839,-28.13121,-15.77299,0.3163037,-0.4245926,0.6573841,-32.33636,9.069906,-31.2418,1007.374
