Time (s),Gyroscope X (deg/s),Gyroscope Y (deg/s),Gyroscope Z (deg/s),Accelerometer X (g),Accelerometer Y (g),Accelerometer Z (g),Magnetometer X (uT),Magnetometer Y (uT),Magnetometer Z (uT),Barometer (hPa)
0.001039505,0.1488848,0.4602178,0.2606398,0.3167533,-0.1894011,0.9339097,-28.06524,18.59328,-34.26118,1008.135
0.033212185,0.2717456,0.3418477,0.1380658,0.3123089,-0.1884599,0.927211,-28.45499,18.20615,-35.14995,1008.135
0.067858696,0.02602394,-0.2500024,0.07677877,0.3162425,-0.1792645,0.9262861,-28.07101,18.5876,-34.70746,1008.133
0.100030899,0.2103152,-0.4275574,0.07677877,0.3098873,-0.1879474,0.9291658,-28.07101,18.5876,-34.70746,1008.135
0.132199764,-0.5268497,0.3418477,-0.1070823,0.3191643,-0.1836367,0.9276688,-28.44921,18.21184,-34.70367,1008.135
0.166846275,-0.5268497,0.4010328,-0.3522304,0.3168198,-0.1772514,0.9359372,-28.44921,18.21184,-34.70367,1008.135
0.199018478,-0.4654194,-0.3683724,-0.4135174,0.3148823,-0.1796464,0.9388276,-28.44921,18.21184,-34.70367,1008.135
0.233665943,0.2717456,-0.5459274,-0.2296564,0.312742,-0.1880286,0.9204625,-28.82163,17.84175,-34.25359,1008.133
0.265837669,0.7631888,-0.01326232,0.07677877,0.3254387,-0.1846986,0.9198895,-28.82741,17.83607,-34.69987,1008.135
0.300485134,-0.03540648,0.1642927,0.3219268,0.3196297,-0.1793075,0.9228801,-28.82741,17.83607,-34.69987,1008.135
0.332653522,0.02602394,0.4602178,0.1993528,0.3182106,-0.1792595,0.9281958,-28.44921,18.21184,-34.70367,1008.135
0.367300987,1.807506,0.2826627,0.750936,0.3104098,-0.1864678,0.9325472,-28.44947,17.8307,-34.70181,1008.135
0.399472713,-1.202584,-0.01326232,0.4445009,0.3163255,-0.1729026,0.9330857,-28.44947,17.8307,-34.70181,1008.135
0.434119701,-1.079723,0.04592269,0.01549174,0.3210599,-0.1953034,0.9265909,-28.45473,18.58728,-35.15181,1008.137
0.466292381,1.193202,-0.1316323,-0.2296564,0.3167307,-0.1841024,0.9286516,-28.45473,18.58728,-35.15181,1008.137
0.500938892,-0.403989,-0.01326232,-0.4135174,0.3138373,-0.1787372,0.9301689,-28.45473,18.58728,-35.15181,1008.137
0.533107281,-0.2811281,-0.07244733,-0.1070823,0.3167265,-0.1821719,0.9272216,-28.82741,17.83607,-34.69987,1008.141
0.567754745,-0.4654194,0.1642927,-0.1683693,0.3186723,-0.1826708,0.9267173,-28.44921,18.21184,-34.70367,1008.142
0.599927425,-0.4654194,0.4010328,-0.04579528,0.3137951,-0.1879634,0.9296111,-28.44344,18.21752,-34.25739,1008.141
0.634573936,0.5788977,0.1642927,0.01549174,0.309456,-0.1820906,0.9330741,-28.44344,18.21752,-34.25739,1008.141
0.666746139,-0.09683689,-0.2500024,0.01549174,0.3123835,-0.178237,0.9311506,-28.82137,18.22289,-34.25546,1008.141
0.698918819,0.1488848,-0.1908174,0.1380658,0.3171518,-0.1875506,0.9223533,-28.44921,18.21184,-34.70367,1008.141
0.733561516,0.02602394,0.3418477,0.01549174,0.3181782,-0.1821903,0.9257619,-28.44921,18.21184,-34.70367,1008.139
0.765733719,0.02602394,0.2826627,-0.5360914,0.3177468,-0.1753665,0.9291962,-28.44896,18.59297,-34.70553,1008.139
0.800381184,-0.8340019,-0.3091874,-0.2909434,0.3104827,-0.1815658,0.9388528,-28.44921,18.21184,-34.70367,1008.137
0.832552910,-0.5882802,-0.6642975,-0.1683693,0.3186303,-0.1967325,0.9285297,-28.44921,18.21184,-34.70367,1008.137
0.867201805,0.9474802,0.04592269,0.1993528,0.3210375,-0.1948401,0.923703,-28.44947,17.8307,-34.70181,1008.137
0.899372578,0.3946064,0.2234777,0.07677877,0.3176823,-0.1850966,0.9262245,-28.44921,18.21184,-34.70367,1008.141
0.934016228,0.2717456,0.2234777,0.07677877,0.3157609,-0.1836084,0.9291468,-28.44921,18.21184,-34.70367,1008.141
0.966187954,-0.4654194,0.3418477,0.3219268,0.3148031,-0.180202,0.9296657,-28.45473,18.58728,-35.15181,1008.139
1.000834942,-1.141154,0.3418477,0.07677877,0.3098122,-0.1884993,0.9204859,-28.44344,18.21752,-34.25739,1008.139
1.033007622,-0.3425585,0.04592269,-0.2909434,0.3157247,-0.1913784,0.928601,-28.44344,18.21752,-34.25739,1008.139
1.067654610,0.8246193,-0.1316323,-0.1683693,0.313254,-0.1822064,0.9205057,-28.82689,18.59834,-34.70359,1008.137
1.099826813,0.8246193,-0.1908174,-0.1683693,0.3152503,-0.1792743,0.9243672,-28.05972,18.21784,-33.81304,1008.137
1.134469986,0.2099738,-0.01309696,-0.1070055,0.3196621,-0.1754096,0.9248399,-28.05972,18.21784,-33.81304,1008.137
1.166642666,-1.078049,0.2234363,-0.04557078,0.317666,-0.1841442,0.9238226,-28.45525,17.82502,-35.14809,1008.139
1.198814392,-0.33782,0.45856,0.2605118,0.3128152,-0.1898963,0.9300864,-28.06549,18.21215,-34.25932,1008.139
1.233461380,0.3382408,0.1017347,0.3208669,0.3104016,-0.1864752,0.9315831,-28.06549,18.21215,-34.25932,1008.137
1.265634060,-0.09301573,-0.3712871,0.258541,0.3177896,-0.1787125,0.9359161,-28.45473,18.58728,-35.15181,1008.137
1.300280571,0.2145633,-0.3702145,0.1348129,0.3126894,-0.191945,0.9160927,-28.05972,18.21784,-33.81304,1008.141
1.332449436,-0.0317051,0.5180851,-0.110846,0.3166314,-0.1875777,0.9185019,-28.05972,18.21784,-33.81304,1008.141
1.367096424,-0.6455228,0.3971069,-0.2938938,0.3172671,-0.179225,0.9320608,-28.05946,18.59897,-33.8149,1008.141
1.399269104,-1.378957,-0.01832372,-0.4759994,0.3084881,-0.1801441,0.9330992,-28.07101,18.5876,-34.70746,1008.141
1.433915615,-0.6978646,-0.3129801,-0.04622703,0.3097599,-0.1991853,0.9194344,-28.07101,18.5876,-34.70746,1008.14
1.466087818,1.573009,0.1024232,0.2600886,0.320116,-0.1855979,0.9257157,-28.44896,18.59297,-34.70553,1008.14
1.500735283,0.7067742,0.3384164,0.3200607,0.3255052,-0.173516,0.9223911,-28.07731,17.81965,-35.15002,1008.141
1.532903194,-0.4604707,0.6325719,0.2580073,0.3118793,-0.1772823,0.9287531,-28.07731,17.81965,-35.15002,1008.141
1.567550182,-0.9488713,0.3940578,0.07328291,0.3118652,-0.1797129,0.9282512,-28.83871,18.20584,-35.5943,1008.141
1.599722862,-0.8215069,0.2156389,-0.04983968,0.316239,-0.1899062,0.9310184,-28.82715,18.21721,-34.70174,1008.141
1.634370327,0.3477345,0.03793584,-0.2332895,0.3103209,-0.1952529,0.9262095,-28.82689,18.59834,-34.70359,1008.143
1.666542053,1.511355,0.09782014,-0.2323383,0.313307,-0.1869938,0.9291418,-28.82689,18.59834,-34.70359,1008.141
1.701189041,0.4622163,-0.07938495,-0.2313186,0.3152891,-0.182624,0.9306053,-28.44896,18.59297,-34.70553,1008.145
1.733357906,-0.8275281,-0.07921003,-0.04712985,0.3167628,-0.1763361,0.9287153,-28.44947,17.8307,-34.70181,1008.145
1.765529633,-0.5172918,-0.02003626,0.1364426,0.3191139,-0.190936,0.925199,-28.44947,17.8307,-34.70181,1008.145
1.800176620,-0.208852,0.3928804,0.1360359,0.3113875,-0.1830861,0.9311199,-28.07101,18.5876,-34.70746,1008.145
1.832349300,-0.08527482,0.09618926,0.1964224,0.3143114,-0.1869729,0.9325066,-28.44344,18.21752,-34.25739,1008.144
1.866996765,-0.4525194,-0.140119,0.1336969,0.3127867,-0.1889551,0.9262384,-28.44344,18.21752,-34.25739,1008.144
1.899168491,0.5916374,0.03809986,-0.0508628,0.3186116,-0.1875617,0.9218576,-28.44921,18.21184,-34.70367,1008.142
1.933811665,-0.4525983,0.5096306,0.07191546,0.3133007,-0.1826475,0.9262856,-27.31539,18.19573,-34.70947,1008.142
1.965984344,-1.493027,0.03515023,-0.6014004,0.3046253,-0.1839559,0.9398518,-27.31539,18.19573,-34.70947,1008.146
2.000631332,-0.3210892,-0.7917559,-0.415361,0.3079259,-0.1990684,0.9334304,-28.45499,18.20615,-35.14995,1008.144
2.032803535,2.132733,-0.6112333,0.01482178,0.3215095,-0.1996928,0.9241405,-28.44921,18.21184,-34.70367,1008.142
2.067450523,1.141006,0.1592021,0.3205961,0.3274508,-0.1720808,0.9209387,-28.44921,18.21184,-34.70367,1008.141
2.099623203,-0.9473448,0.3945133,0.1970998,0.3147481,-0.1778341,0.9219738,-28.44921,18.21184,-34.70367,1008.141
2.134265423,-0.6979858,0.3333744,0.2575215,0.3070023,-0.1874103,0.9340171,-28.82112,18.60402,-34.25731,1008.139
2.166438103,-0.3884317,0.1548317,-0.04952116,0.3103959,-0.1927668,0.9339412,-28.82112,18.60402,-34.25731,1008.141
2.201085568,-0.07940225,-0.3776588,-0.2333759,0.316154,-0.1967534,0.9242147,-28.44921,18.21184,-34.70367,1008.141
2.233257771,0.9627904,-0.5535068,-0.3551907,0.3127848,-0.1904076,0.9267085,-28.07101,18.5876,-34.70746,1008.139
2.265429973,1.203778,-0.3149191,-0.1699776,0.3151999,-0.1846395,0.9209495,-28.07101,18.5876,-34.70746,1008.137
2.300076961,0.2780211,-0.1365761,-0.1077718,0.3177285,-0.1748996,0.9267902,-28.07731,17.81965,-35.15002,1008.137
2.332245350,-1.317469,0.04099716,0.1983336,0.317672,-0.1826881,0.9238346,-28.44344,18.21752,-34.25739,1008.135
2.366891861,-0.6365304,0.4541655,0.07475426,0.318122,-0.1948143,0.9251763,-28.44344,18.21752,-34.25739,1008.136
2.399064541,0.3467152,0.1567976,0.0127781,0.3123861,-0.1883897,0.9363689,-29.20509,18.22257,-34.6998,1008.136
2.433712005,0.4054105,-0.5524028,-0.110044,0.3162791,-0.1792312,0.9306241,-28.44947,17.8307,-34.70181,1008.136
2.465884209,0.649518,-0.6096881,-0.04863523,0.3113266,-0.1831415,0.92389,-28.44947,17.8307,-34.70181,1008.136
2.500530720,-0.3344077,0.5743113,-0.1709382,0.3172041,-0.1778317,0.923879,-28.44369,17.83639,-34.25552,1008.136
2.532699585,-0.8240442,0.2764909,-0.5991735,0.3109279,-0.1811235,0.9335503,-28.44921,18.21184,-34.70367,1008.134
2.567346573,-0.57434,-0.6108819,-0.3520298,0.3079985,-0.1883638,0.936892,-28.44921,18.21184,-34.70367,1008.133
2.599519253,1.513319,-0.2538026,-0.1056583,0.3102418,-0.1996769,0.9189438,-28.06575,17.83102,-34.25746,1008.133
2.634165764,1.811844,-0.3696674,0.2007791,0.3260216,-0.1715584,0.9248123,-28.83267,18.59265,-35.14988,1008.133
2.666338444,-0.4637446,0.3993694,0.3837061,0.324995,-0.1759516,0.9209297,-28.83267,18.59265,-35.14988,1008.133
2.700985432,-0.5225618,0.3977088,0.260178,0.3148173,-0.1806726,0.9315897,-28.44921,18.21184,-34.70367,1008.133
2.733153343,-1.011874,0.1594032,0.1366781,0.3104198,-0.1840408,0.9325671,-28.83267,18.59265,-35.14988,1008.133
2.767800808,-0.8843027,-0.07790624,-0.0474752,0.3142244,-0.1933384,0.9252249,-28.44896,18.59297,-34.70553,1008.131
2.799973011,0.8974878,-0.1959398,-0.04710867,0.3186586,-0.1928382,0.9300076,-28.44896,18.59297,-34.70553,1008.131
2.832145691,0.954566,-0.07688243,-0.2303547,0.316745,-0.1865072,0.9315236,-28.06549,18.21215,-34.25932,1008.131
2.866792202,0.3378643,-0.01715582,-0.2904383,0.3168055,-0.1777479,0.9344873,-27.69308,18.58223,-34.7094,1008.131
2.898964882,-0.3380137,-0.07610399,-0.04483678,0.3205977,-0.1822211,0.9233291,-27.69308,18.58223,-34.7094,1008.129
2.933608055,-1.072134,0.1605614,0.1387406,0.3196384,-0.1899382,0.9290584,-28.82163,17.84175,-34.25359,1008.135
2.965780735,-0.3323138,0.3960157,-0.04535923,0.3143196,-0.1879326,0.9339445,-28.07101,18.5876,-34.70746,1008.133
3.000427246,0.1598939,0.0395019,-0.04562107,0.3089439,-0.1859787,0.9320828,-28.07101,18.5876,-34.70746,1008.133
3.032599449,0.03616974,-0.3145994,-0.04587744,0.315759,-0.186028,0.9300908,-28.07127,18.20647,-34.7056,1008.133
3.067246914,0.3424304,-0.1952938,0.3214692,0.3123208,-0.1836133,0.9262868,-27.68781,17.82565,-34.25939,1008.131
3.099418640,0.09641167,0.3958484,-0.1078506,0.3162002,-0.1855893,0.9243063,-27.68781,17.82565,-34.25939,1008.13
3.134061813,-0.8858956,0.2167235,-0.5357516,0.3192515,-0.1792053,0.9358984,-27.69359,17.81997,-34.70567,1008.132
3.166234493,-0.8826311,-0.2566,-0.2886122,0.3113917,-0.1850166,0.93255,-28.07705,18.20078,-35.15189,1008.132
3.200881481,0.1638059,-0.2545271,-0.1040803,0.3122484,-0.1972191,0.9242473,-28.07705,18.20078,-35.15189,1008.132
3.233053684,0.8368877,0.1601926,0.2019138,0.3190832,-0.1856447,0.9189769,-28.07153,17.82533,-34.70374,1008.132
3.267700672,0.03689283,-0.01810305,0.2009314,0.3177085,-0.1807206,0.9272244,-28.44947,17.8307,-34.70181,1008.132
3.299873352,0.2203977,0.21756,0.2611878,0.3104134,-0.1767932,0.9282888,-28.44947,17.8307,-34.70181,1008.132
3.334516525,-0.7621065,0.2166425,0.3211556,0.3157711,-0.1850498,0.9310628,-28.07127,18.20647,-34.7056,1008.132
3.366688251,-0.696606,0.09776096,0.01410342,0.3152227,-0.1957407,0.9290518,-28.44318,18.59865,-34.25925,1008.132
3.398860931,0.2254153,-0.5528553,0.07550597,0.3128845,-0.1956361,0.9411244,-28.44318,18.59865,-34.25925,1008.132
3.433508396,-1.310222,-3.387452,-0.1699501,0.3012811,-0.1920943,0.9523479,-28.82715,18.21721,-34.70174,1008.134
3.465680599,-9.419036,-9.010028,-3.173014,0.2865191,-0.2095786,1.004397,-28.45473,18.58728,-35.15181,1008.134
3.500327110,-17.09784,-24.98998,-3.418162,0.289712,-0.2408215,1.109186,-28.45473,18.58728,-35.15181,1008.134
3.532495975,-22.44228,-36.41269,-13.04023,0.3148637,-0.4533634,1.069121,-28.82112,18.60402,-34.25731,1008.132
3.567142963,87.02671,-37.12291,-45.52235,0.1874257,-0.8774792,0.6850702,-29.19328,18.61507,-33.8091,1008.132
3.599315643,171.1864,-73.22577,-64.70519,0.1951283,-0.2601731,1.245351,-29.19328,18.61507,-33.8091,1008.131
3.633962154,31.67791,-125.5453,-93.14237,0.3795162,0.1254745,1.398157,-30.31662,18.2606,-32.97263,1008.129
3.666134834,-58.25622,-149.5152,-109.1996,0.4594353,-0.188637,1.188044,-32.57079,12.59287,-31.59427,1008.129
3.700781822,57.35582,-180.1731,-114.7154,0.3997199,-0.4082673,0.8662612,-32.57079,12.59287,-31.59427,1008.127
3.732949734,182.9196,-208.2268,-105.6449,0.4478639,0.0037874,0.7048472,-36.67348,9.277757,-27.1572,1008.127
3.767596722,181.1995,-222.7271,-90.75217,0.5392062,0.3747946,0.5354617,-40.75307,5.985385,-20.93501,1008.127
3.799769402,94.88981,-214.5004,-81.74298,0.6490915,0.501544,0.4260674,-44.42926,-1.1596,-12.52818,1008.125
3.834416866,-11.44624,-192.8387,-89.83287,0.7181675,0.4189432,0.2073601,-44.42926,-1.1596,-12.52818,1008.128
3.866589069,-16.48353,-169.1055,-102.887,0.7476637,0.3403224,0.03870094,-45.46432,-6.378661,-4.59079,1008.126
3.898761272,19.9447,-147.4438,-114.409,0.7578261,0.3504609,-0.1507361,-45.74666,-8.945396,2.947186,1008.126
3.933404446,59.9359,-121.4615,-110.0576,0.8748873,0.5814938,-0.3277815,-45.74666,-8.945396,2.947186,1008.124
3.965577126,34.688,-75.11969,-102.029,0.8601333,0.6936508,-0.3956452,-44.18078,-13.1033,7.358971,1008.122
4.000223637,23.81482,-30.67174,-89.7103,0.8215236,0.6706153,-0.4494588,-41.1147,-17.29405,10.87046,1008.121
4.032395840,13.92452,16.73545,-82.96873,0.7443605,0.7289346,-0.426568,-41.1147,-17.29405,10.87046,1008.121
4.067043304,-28.40103,64.02428,-75.43042,0.7289214,0.753835,-0.4175426,-39.96008,-20.71762,12.66652,1008.119
4.099215508,-42.96004,118.2377,-67.34053,0.7093192,0.7379366,-0.4777408,-38.47298,-23.04863,10.88483,1008.119
4.133858204,-61.26631,192.3966,-63.72459,0.5635067,0.6879755,-0.4416061,-38.47298,-23.04863,10.88483,1008.117
4.166030884,14.84598,247.7937,-40.19038,0.5740209,0.9143276,-0.2870443,-37.40369,-25.79439,6.046722,1008.117
4.200677872,-371.8585,43.66463,110.3918,-3.485083,0.1201529,-0.5878136,-37.49655,-28.9328,-0.9513721,1008.119
4.232850552,-0.08161395,-170.5851,-5.195486,0.1235755,-0.3528281,0.3241536,-37.49655,-28.9328,-0.9513721,1008.118
4.267497063,301.4189,-44.10674,2.771827,1.498516,0.9637357,0.2961499,-36.44857,-29.03336,-7.587628,1008.118
4.299669742,36.83806,-7.471218,30.2897,0.5194425,1.517939,-0.2213089,-37.85194,-28.52437,0.7700691,1008.118
4.334312916,-95.7902,20.99677,56.70441,0.7232302,1.274928,-0.06904598,-37.85194,-28.52437,0.7700691,1008.118
4.366485596,-68.08508,47.80758,86.30603,0.5146302,0.6739001,-0.09519042,-38.59601,-28.12113,1.664637,1008.114
4.401132583,60.24305,64.7345,108.3694,0.4428824,0.6311699,-0.0177533,-39.00073,-26.2377,-0.5103817,1008.112
4.433304310,49.92274,79.41238,117.685,0.5359189,0.6899189,0.1076648,-39.00073,-26.2377,-0.5103817,1008.112
4.465476990,2.621324,99.06181,118.972,0.5017621,0.5314803,0.1847612,-41.28891,-22.41689,-2.302508,1008.112
4.500124454,-54.01752,99.41692,114.9271,0.5754317,0.4681971,0.271276,-42.82698,-18.61251,-4.544783,1008.111
4.532292366,-78.71254,115.3969,118.2979,0.8009365,0.3375649,0.2820729,-42.82698,-18.61251,-4.544783,1008.111
4.566939354,-93.21012,120.6643,122.4654,0.5870305,0.2736414,0.3519858,-44.39838,-14.07916,-9.404709,1008.111
4.599112034,-145.4874,106.4599,101.9342,0.7072427,0.2093273,0.4607117,-44.07405,-9.185827,-13.82988,1008.111
4.633759022,-181.7313,115.4561,107.5726,0.6148903,0.07185774,0.5129781,-44.07405,-9.185827,-13.82988,1008.111
4.665931225,-187.5672,100.719,97.27641,0.4894367,0.003778354,0.5415435,-44.49849,-3.512995,-17.74488,1008.112
4.700578213,-198.6247,113.5621,68.71666,1.107489,-0.2162961,0.8511177,-42.27818,3.327555,-21.80681,1008.111
4.732746601,-189.963,183.9331,76.13239,0.9161128,-0.5003178,1.095417,-42.27818,3.327555,-21.80681,1008.111
4.767394066,-190.9459,119.9541,59.40104,0.2319583,-0.4069261,0.9950855,-40.03976,10.12245,-24.46584,1008.111
4.799565792,-253.2363,71.06729,54.55936,0.2402539,-0.27778,0.8162871,-35.52348,16.13342,-26.30394,1008.115
4.834213257,-293.9647,58.63844,61.23965,0.3225136,-0.5929236,0.5367357,-32.46644,22.9793,-24.1215,1008.115
4.866385460,-176.4483,66.27331,65.16201,0.2498336,-1.261495,0.3993523,-32.46644,22.9793,-24.1215,1008.113
4.901032925,63.5603,34.49096,18.21616,-0.2217104,-1.769709,1.036284,-30.50886,30.63685,-19.32305,1008.115
4.933200836,188.3255,-20.61029,-12.05963,0.1561713,-0.9722738,0.9607661,-28.24469,34.02916,-19.79768,1008.116
4.965373039,162.8933,-26.52879,-17.57546,0.327375,-0.4369587,0.7495739,-28.24469,34.02916,-19.79768,1008.116
5.000020504,147.5971,-18.71637,-26.4008,0.3837245,-0.475118,0.6210037,-27.91318,32.45459,-23.29866,1008.116
5.032193184,158.7774,-11.91009,-23.45902,0.425921,-0.3803761,0.6604329,-28.72415,27.84056,-27.28899,1008.118
5.066839695,157.4874,-4.926262,-11.32419,0.449036,-0.10049,0.7786865,-28.72415,27.84056,-27.28899,1008.118
5.099011898,100.91,0.5187593,0.8106423,0.4289012,0.08116632,0.9081019,-29.90594,24.00066,-30.77107,1008.118
5.133655071,1.024133,6.200521,10.12627,0.3457383,0.1325766,0.9753357,-30.30982,19.79082,-32.53379,1008.118
5.165827751,-68.76082,9.751621,12.51646,0.2993021,-0.09684609,0.9030237,-30.30982,19.79082,-32.53379,1008.118
5.200474262,-49.84025,9.574066,15.02923,0.312878,-0.3623612,0.846724,-29.93894,17.8741,-32.9727,1008.118
5.232646942,-12.42913,7.14748,19.01289,0.3219641,-0.3336369,0.926888,-29.92006,20.17796,-31.64503,1008.118
5.267293930,-28.58533,2.708605,11.47458,0.3170571,-0.3549143,0.9339884,-29.92006,20.17796,-31.64503,1008.118
5.299466610,0.5941206,0.5187593,10.61657,0.3252138,-0.4512375,0.8478042,-29.1629,22.07289,-31.6582,1008.118
5.334109783,24.06054,2.76779,4.181429,0.3274945,-0.3658402,0.8455951,-28.78496,22.06752,-31.66013,1008.116
5.366281986,16.32031,5.786225,-1.089255,0.3196506,-0.3329888,0.883535,-28.78496,22.06752,-31.66013,1008.116
5.400928974,25.28915,4.010675,-0.7215333,0.3182745,-0.3102112,0.9410936,-28.7847,22.44865,-31.66199,1008.116
5.433101654,31.55505,1.524905,0.3816331,0.3232329,-0.2637414,0.9279344,-28.80281,21.2882,-32.99525,1008.118
5.467748642,28.79068,2.29431,-1.8247,0.3170911,-0.2634888,0.8937718,-28.80281,21.2882,-32.99525,1008.116
5.499920368,28.05352,3.773935,-4.521328,0.3157354,-0.2334018,0.8921045,-28.43116,20.51488,-33.43974,1008.118
5.532089233,12.81877,4.720895,-5.134199,0.3213649,-0.1606926,0.9461533,-28.43611,20.51001,-33.82227,1008.118
5.566736221,-2.354539,3.59638,-3.908458,0.3071624,-0.2201474,0.9689318,-28.43611,20.51001,-33.82227,1008.118
5.598908424,9.931544,1.051425,-2.069848,0.3002385,-0.2704509,0.9242376,-28.44241,19.74205,-34.26483,1008.118
5.633555412,18.83895,-0.3098308,-1.334404,0.292609,-0.2098037,0.9161329,-27.68101,19.35587,-33.82056,1008.122
5.665728092,9.747252,0.1044642,-1.150542,0.3006399,-0.1743392,0.9255083,-27.68101,19.35587,-33.82056,1008.122
5.700375080,-0.5730572,1.46572,-0.8441073,0.3047485,-0.1698204,0.9476792,-28.07654,18.96305,-35.15561,1008.122
5.732543945,-11.44624,1.643275,-1.395691,0.318266,-0.1903312,0.940154,-28.44896,18.59297,-34.70553,1008.122
5.767190456,-3.706008,0.4003893,0.2590591,0.30823,-0.2171302,0.9202647,-28.44896,18.59297,-34.70553,1008.122
5.799362659,7.290036,-1.256791,1.975096,0.3096832,-0.2079594,0.9145427,-28.44318,18.59865,-34.25925,1008.12
5.834010124,11.4673,-0.842496,3.32341,0.3112313,-0.1875802,0.9146963,-28.44896,18.59297,-34.70553,1008.12
5.866182804,9.624392,-0.5465709,4.242716,0.3127116,-0.189507,0.9175586,-28.44896,18.59297,-34.70553,1008.12
5.900829315,6.43001,1.406535,4.058855,0.2997136,-0.1916976,0.9398338,-28.44896,18.59297,-34.70553,1008.12
5.932997704,7.84291,-0.5465709,4.304003,0.3151946,-0.2006021,0.928048,-28.83293,18.21152,-35.14802,1008.123
5.967644691,17.30319,0.1636492,4.242716,0.3346398,-0.2056025,0.9215593,-28.07705,18.20078,-35.15189,1008.123
5.999817371,22.52478,0.9330544,5.407169,0.3257838,-0.171291,0.8963788,-28.07705,18.20078,-35.15189,1008.123
6.034464836,14.10881,3.182085,3.507272,0.31501,-0.1340748,0.9319721,-28.44921,18.21184,-34.70367,1008.121
6.066636562,-0.6959181,1.524905,2.281531,0.279495,-0.1439914,1.007896,-28.0836,17.0517,-35.59258,1008.121
6.098809242,1.269855,-4.748707,3.078262,0.2767154,-0.1723351,0.981178,-28.0836,17.0517,-35.59258,1008.121
6.133452415,5.938567,-5.754852,2.955688,0.2776553,-0.1830113,0.9820452,-27.70541,17.42746,-35.59637,1008.119
6.165624142,17.42605,-10.25291,3.262123,0.24279,-0.1680839,1.007076,-28.08309,17.81396,-35.5963,1008.119
6.200271130,56.06578,-4.156857,-0.6602463,0.3201573,-0.2000674,0.937646,-28.08309,17.81396,-35.5963,1008.117
6.232443810,111.4146,11.70473,-4.031033,0.2055925,-0.184441,1.001986,-27.69988,17.05201,-35.14824,1008.116
6.267091274,157.0574,-1.197606,-4.582616,0.02147069,-0.03628537,1.087347,-28.85784,15.52085,-36.92011,1008.116
6.299263477,165.7805,-20.19599,-4.827764,0.1329676,0.1635352,1.076386,-28.85784,15.52085,-36.92011,1008.118
6.333906174,127.8779,-30.73093,-3.111727,0.2550611,0.2950299,1.023793,-27.7447,10.53295,-38.24057,1008.118
6.366078853,81.19083,-32.74322,5.223308,0.279544,0.3472472,0.9502491,-28.13729,5.953346,-39.10886,1008.116
6.400725841,40.58532,-39.78624,17.35814,0.2805608,0.390838,0.875889,-28.13729,5.953346,-39.10886,1008.116
6.432898521,18.22465,-51.56405,33.96692,0.3365247,0.3609202,0.8717461,-29.25609,2.556305,-37.74747,1008.114
6.467545509,-9.787619,-80.32797,65.10072,0.5067397,0.3150159,0.8823115,-29.61776,0.9906716,-36.39894,1008.114
6.499717712,-58.50194,-96.18955,92.92503,0.7532582,0.2099733,0.8261253,-29.61776,0.9906716,-36.39894,1008.117
6.534360886,-88.41855,-94.23645,106.7146,0.7952227,0.0735452,0.6592832,-31.0943,1.872044,-33.71756,1008.117
6.566533565,-101.8104,-97.49162,97.03127,0.6576427,-0.06534208,0.4984342,-33.70898,6.129704,-31.55684,1008.117
6.598705292,-88.78713,-89.91594,69.08438,0.6857911,-0.1676195,0.4713003,-33.70898,6.129704,-31.55684,1008.117
6.633352280,-41.8543,-38.01068,30.53485,0.7538107,-0.2678838,0.5421389,-34.7825,11.15658,-27.17618,1008.117
6.665524959,19.45326,-14.86934,11.84231,0.692359,-0.1723951,0.6746034,-35.87252,16.16722,-24.0706,1008.115
6.700172424,51.51993,13.0068,3.200836,0.5457023,-0.001836056,0.7940218,-35.87252,16.16722,-24.0706,1008.113
6.732340813,41.93679,8.745476,-3.66331,0.576194,0.06254294,0.790894,-35.85994,17.70312,-23.18548,1008.113
6.766987801,17.61035,14.90072,-5.869643,0.7503604,-0.02581692,0.7114206,-35.49433,16.54298,-24.07439,1008.111
6.799160004,22.40192,26.97446,-6.359939,0.7383171,-0.07437959,0.6373867,-35.49433,16.54298,-24.07439,1008.111
6.833806992,13.86309,28.09898,-3.602023,0.631812,0.05946521,0.616348,-35.89012,15.76903,-25.40758,1008.114
6.865979671,-27.54101,28.69083,-3.602023,0.730443,0.09812097,0.7203402,-35.14605,15.36579,-26.30215,1008.114
6.900626659,-51.80603,36.20732,5.345882,0.6797318,-0.04420582,0.736028,-35.14605,15.36579,-26.30215,1008.114
6.932794571,-37.24702,35.4971,6.387762,0.6815145,-0.152689,0.768375,-34.77993,14.96792,-27.19478,1008.114
6.967442036,-2.53883,38.04206,9.513399,0.5500099,-0.1691748,0.7487402,-34.02957,15.33263,-27.64679,1008.112
6.999614239,15.64457,40.11353,6.571622,0.5119212,-0.1317738,0.7277139,-32.52148,17.21195,-28.04636,1008.112
7.034261703,30.63359,48.34025,-4.582616,0.5331798,-0.09922893,0.7446538,-32.52148,17.21195,-28.04636,1008.116
7.066433430,43.34969,50.53009,-16.04329,0.5305257,-0.05403086,0.8134952,-31.78293,17.18416,-29.38907,1008.114
7.101080894,54.10001,41.65234,-25.23634,0.4779907,-0.006226103,0.8105235,-31.05646,16.38273,-31.62062,1008.114
7.133249283,60.48877,37.74613,-30.13931,0.4601951,0.06131621,0.8088364,-31.05646,16.38273,-31.62062,1008.112
7.165421963,69.76476,36.56243,-23.70417,0.4234429,0.1802051,0.9075233,-30.32523,14.06245,-33.39845,1008.112
7.200068951,22.89336,27.09283,-10.95647,0.4042436,0.4372565,0.9956174,-29.605,11.35048,-36.00322,1008.112
7.232240677,-42.22288,29.34186,4.733012,0.4288323,0.3241894,1.0147,-29.605,11.35048,-36.00322,1008.112
7.266888141,-75.14958,29.75616,23.60942,0.3426924,0.2348884,1.086103,-29.23412,9.433762,-36.44212,1008.116
7.299060821,-92.90297,24.8438,27.28664,0.3271581,0.07118495,1.058871,-28.09927,10.94219,-36.45537,1008.116
7.333703995,-67.1022,20.58248,25.44802,0.3135154,-0.2017576,0.9029901,-28.09927,10.94219,-36.45537,1008.116
7.365875721,-1.740235,19.69471,20.91278,0.3036707,-0.2268945,0.8469628,-26.5852,14.35092,-36.47985,1008.116
7.400523186,34.99515,12.88843,15.09052,0.3206606,-0.1014079,0.8917007,-26.19416,16.64372,-35.60039,1008.115
7.432695389,28.72925,8.863846,12.3326,0.3725562,0.01499091,0.9133841,-26.19416,16.64372,-35.60039,1008.116
7.467342853,6.061428,10.58021,13.55834,0.4253426,0.04619927,0.9661688,-25.45009,16.24048,-36.49496,1008.116
7.499515056,-2.53883,13.89457,17.97101,0.3968925,0.006033138,1.026353,-24.70051,15.46179,-36.94138,1008.116
7.534158707,9.132949,8.982216,16.00982,0.3297276,-0.05964442,0.9632964,-24.70051,15.46179,-36.94138,1008.116
7.566330433,27.37778,9.514881,12.88419,0.3179887,-0.05812284,0.9012405,-24.31653,15.84324,-36.4989,1008.115
7.600977421,32.10792,14.1905,10.55528,0.3310093,0.009816369,0.9079452,-23.56643,15.82682,-36.94905,1008.115
7.633150101,19.69898,19.57634,13.25191,0.3745299,0.02322169,0.9119875,-23.56643,15.82682,-36.94905,1008.115
7.665321827,23.13908,29.93371,19.56447,0.3879652,-0.02641545,0.9668829,-22.82789,15.79903,-38.29176,1008.117
7.699969292,39.35671,28.45409,23.05783,0.3482248,-0.02016363,0.9967071,-22.08351,14.63433,-39.11885,1008.117
7.732137680,49.55416,37.80532,19.50318,0.3774729,-0.01312165,1.047584,-22.08351,14.63433,-39.11885,1008.117
7.766785145,67.43041,34.3134,13.31319,0.2797006,-0.007996291,1.082761,-21.34496,14.60654,-40.46156,1008.117
7.798957348,65.09605,24.01521,1.791235,0.2014425,0.07439814,1.079832,-19.46182,13.43061,-40.91193,1008.117
7.833604813,41.5682,2.235125,-16.65616,0.1423172,0.07369074,1.012898,-19.46182,13.43061,-40.91193,1008.115
7.865776539,49.24701,-14.45505,-31.97791,0.1634535,-0.01804081,0.9010849,-19.09723,10.74594,-41.7934,1008.113
7.900424004,95.99555,-26.17368,-39.20978,0.1629361,0.01876084,0.7635413,-18.34816,9.204985,-42.2361,1008.113
7.932592392,116.8819,-30.79011,-39.27107,0.1512101,0.2271871,0.719097,-18.34816,9.204985,-42.2361,1008.117
7.967239380,101.1557,-29.42886,-34.8584,0.1712368,0.3353869,0.7270322,-19.1111,7.304369,-42.66921,1008.117
7.999411583,94.76694,-26.52879,-22.84615,0.1959811,0.5009224,0.7459999,-20.99863,2.001028,-42.18721,1008.116
8.034058571,55.82006,-7.589588,-5.440634,0.274107,1.044368,0.836993,-21.75738,-2.244226,-42.16256,1008.114
8.066231251,34.81086,-22.97769,16.07111,0.2171289,0.7180898,0.660351,-21.75738,-2.244226,-42.16256,1008.114
8.100878239,-21.64369,9.041401,39.66662,0.1895976,0.7938861,0.7156988,-22.5098,-5.658006,-41.69567,1008.114
8.133047104,-90.87576,13.42109,47.63393,0.1787186,0.6391044,0.7154883,-23.63835,-6.398483,-41.23986,1008.112
8.167694092,-121.8367,18.21508,61.42351,0.1520011,0.4435408,0.7666633,-23.63835,-6.398483,-41.23986,1008.116
8.199865818,-118.3966,17.26812,73.61962,0.3153372,0.3260222,0.8644263,-22.12453,-3.370888,-41.26249,1008.118
8.232038498,-112.1307,34.3134,88.20593,0.4350661,0.3530346,1.045727,-20.99285,2.006712,-41.74093,1008.118
8.266685963,-126.6283,33.66236,95.13136,0.3749552,0.2062107,1.164614,-20.99285,2.006712,-41.74093,1008.118
8.298858166,-116.738,19.04367,107.1436,0.2509601,-0.04891012,1.10872,-20.22733,7.718663,-41.32643,1008.12
8.333500862,-64.21497,-3.683377,107.3888,0.1742455,-0.29364,0.983062,-17.93824,13.80164,-40.02896,1008.12
8.365741253,28.23781,-8.950843,121.2396,0.245937,-0.3243888,0.8182598,-17.93824,13.80164,-40.02896,1008.122
8.400387764,117.0662,14.42724,128.4102,0.3506496,-0.08238317,0.7344459,-15.58776,18.73951,-38.78999,1008.12
8.432560444,128.8608,45.14426,138.5226,0.3382283,0.2645291,0.7726078,-13.71432,19.07756,-40.07661,1008.12
8.467207909,21.66475,72.48773,147.2253,0.1370799,0.5525694,0.7966213,-13.71432,19.07756,-40.07661,1008.124
8.499380112,-90.56861,72.36936,142.5062,-0.005172877,0.4031816,0.7817751,-11.0934,16.73044,-41.8641,1008.126
8.534023285,-162.4422,58.04659,139.1355,-0.1594076,0.2323293,0.7451738,-6.168882,16.29089,-40.99482,1008.126
8.566195488,-221.1082,45.08508,102.5471,0.02195287,-0.0003221557,0.7786775,-6.168882,16.29089,-40.99482,1008.126
8.600842476,-190.7002,54.96897,105.7953,0.1129306,-0.2819437,0.8237068,-1.224772,20.44118,-38.87278,1008.124
8.633015156,-242.6089,50.58928,117.1947,-0.1313132,-0.2452468,0.8932863,3.389165,26.92912,-33.18973,1008.124
8.667662144,-351.2793,20.28655,121.2396,-0.2181316,-0.6376173,0.623834,3.389165,26.92912,-33.18973,1008.124
8.699834824,-378.5544,6.022965,70.06497,-0.1739644,-1.334022,0.3511349,8.025187,31.91526,-25.71411,1008.124
8.734477997,-141.6173,4.602525,71.90358,-0.1521575,-1.512186,0.3610306,12.33991,37.72427,-13.90498,1008.122
8.766649723,-78.77397,-1.730271,49.41125,-0.0872864,-1.034029,0.4742631,12.33991,37.72427,-13.90498,1008.122
8.798822403,-107.5234,-2.913971,39.05375,-0.2082245,-0.8288386,0.4433433,15.45056,39.67145,-7.299297,1008.122
8.833469868,-151.2004,-11.79172,27.10278,-0.1186195,-0.7931859,0.4037591,17.75756,39.29708,-4.24883,1008.124
8.865642071,-163.0565,-14.09994,21.64823,-0.1375865,-0.861141,0.328184,17.75756,39.29708,-4.24883,1008.13
8.900288582,-145.9174,-21.49806,26.42862,-0.2104734,-0.8739587,0.2554945,18.57618,39.34807,0.5926361,1008.128
8.932457447,-143.8288,-28.77782,27.83822,-0.208866,-0.8843992,0.1614035,19.77196,38.25029,5.437748,1008.128
8.967104435,-120.4238,-32.15137,33.78306,-0.3166281,-0.9194961,0.0724678,19.77196,38.25029,5.437748,1008.13
8.999277115,-89.27857,-42.15364,40.46335,-0.2938623,-0.8085437,-0.001539845,21.34021,36.37999,9.902122,1008.13
9.033924103,-94.86874,-38.60254,44.63087,-0.2296799,-0.5528959,0.02117682,22.50107,34.86697,12.07141,1008.13
9.066096306,-215.2724,-59.19892,28.75752,-0.4018139,-0.3212989,-0.01724164,22.50107,34.86697,12.07141,1008.13
9.100743294,-384.1445,-80.50552,20.23863,-0.3738512,-0.5231736,-0.3088485,24.42966,32.59312,15.19687,1008.135
9.132912159,-412.7097,-81.80759,21.89338,-0.4978406,-0.9540468,-0.6857573,25.99632,29.57861,19.60307,1008.135
9.167559147,-205.4435,-116.0165,13.12933,-0.5179201,-1.139666,-0.6625182,28.40239,22.76388,25.80882,1008.135
9.199731827,-30.05965,-129.6291,-0.3538111,-0.5975848,-1.011572,-0.2158333,28.40239,22.76388,25.80882,1008.137
9.234378815,139.8569,-176.8587,18.82903,-0.6984949,-0.6407851,-0.03397715,31.02471,13.94317,24.49923,1008.139
9.266551018,237.4084,-209.8248,74.6615,-0.65947,-0.3169264,-0.3088211,33.59548,13.07023,18.75152,1008.141
9.298723221,103.2443,-218.0515,135.2131,-0.4241963,-0.3157339,-0.1283288,33.59548,13.07023,18.75152,1008.144
9.333366394,-36.26413,-184.7303,155.0088,-0.2747705,-0.8303816,0.0742579,38.01839,15.18054,9.91905,1008.144
9.365539074,-130.4984,-137.6191,152.6186,0.07552347,-0.8816692,-1.190344,40.5527,11.60556,1.506683,1008.144
9.400186062,214.6177,-1.197606,106.5308,-0.5988019,-2.29759,-1.888358,40.5527,11.60556,1.506683,1008.144
9.432358265,581.1729,36.85836,88.32851,-0.9648141,0.3362728,-0.8982663,42.02071,5.446967,-1.53149,1008.146
9.467005253,44.33257,-66.89297,-5.563208,-3.623447,1.976273,0.4004905,42.7842,0.8096633,-0.6839123,1008.15
9.499177933,-36.32556,-55.35189,-141.4365,-2.790747,-1.312801,0.8504966,42.7842,0.8096633,-0.6839123,1008.153
9.533821106,-256.615,-92.4609,-172.4478,-0.504541,-0.8254176,1.01104,43.14203,-4.547817,-1.934882,1008.153
9.565992832,80.63795,-77.54627,20.17734,0.4684215,-1.122484,-1.00898,42.34961,1.203651,-5.0832,1008.157
9.600640297,-48.36592,-16.05304,108.6145,-0.1216691,-2.419223,-0.04389911,42.34961,1.203651,-5.0832,1008.159
9.632812977,206.8774,117.6459,269.7381,-0.1658074,1.176456,1.443722,41.57427,5.384929,-6.821169,1008.155
9.667459965,-141.4944,18.1559,273.354,0.07345834,-2.453845,-0.4426908,42.33805,1.192281,-5.975761,1008.15
9.699632645,343.253,112.6152,235.2335,-2.563045,1.475636,0.9301639,42.33805,1.192281,-5.975761,1008.15
9.734275818,25.28915,87.81665,216.97,-2.468584,0.330556,0.4132609,41.58622,-9.902006,-5.025061,1008.152
9.766447544,-32.27115,58.69763,216.2958,-1.315973,0.1510541,-0.02891747,39.37437,-20.09868,-0.1178856,1008.157
9.798620224,31.37076,-6.938553,178.972,-0.6406868,0.6283876,0.3080442,39.37437,-20.09868,-0.1178856,1008.157
9.833267212,3.788502,-19.95925,108.7371,-0.4029017,0.3272176,0.1785047,35.22948,-27.26411,1.277584,1008.157
9.865439892,4.218515,-20.19599,67.55221,-0.7027422,0.37858,0.4776736,31.06855,-32.54092,1.324905,1008.156
9.900087357,123.3935,-103.9428,57.19471,-0.9547998,0.5068522,1.025261,31.06855,-32.54092,1.324905,1008.156
9.932254791,78.24216,-150.4622,47.81779,-0.6104254,0.2723732,0.4229167,28.41539,-35.17696,0.9051895,1008.157
9.966902256,75.41637,-139.3354,4.36529,-0.6224304,0.2249619,0.1204242,27.27451,-37.0722,0.4740124,1008.157
9.999074936,-98.12455,-165.9687,-98.47434,-0.3372342,-0.06748565,0.4604637,27.27451,-37.0722,0.4740124,1008.157
10.033721924,169.7735,-50.73546,-31.1199,-0.8195021,0.7910821,-0.550761,26.49005,-37.85135,-1.686046,1008.157
10.065894604,59.44445,-36.47187,-91.48762,-1.454068,0.3004634,-0.5069506,28.35137,-37.14435,-3.93084,1008.157
10.100541592,-62.92493,19.75389,-94.24554,-0.9564527,0.2923215,-0.1718514,28.35137,-37.14435,-3.93084,1008.16
10.132709503,-45.60155,15.96605,-94.55197,-0.9087137,0.2824831,0.3457715,29.1251,-36.37576,-2.599588,1008.16
10.167356968,-40.25711,41.47479,-82.29456,-0.9947032,0.03083973,0.5136811,31.76618,-34.51336,-3.068709,1008.16
10.199529171,18.16322,30.70312,-79.84309,-1.131712,0.1997974,0.6204643,31.76618,-34.51336,-3.068709,1008.16
10.234176636,-18.87932,53.01587,-72.7338,-1.103834,0.07897317,0.4538823,34.40778,-31.88869,-3.541553,1008.161
10.266349315,-6.90039,70.35707,-65.6245,-0.9320261,-0.004910826,0.3238578,36.31687,-28.84941,-2.227265,1008.161
10.300996303,12.81877,86.4554,-61.02796,-0.8500326,0.03103399,0.1913211,37.85246,-26.56216,-0.5247974,1008.161
10.333164215,13.18736,90.42079,-63.11172,-0.8675374,0.02879799,0.1418201,37.85246,-26.56216,-0.5247974,1008.16
10.365336895,12.2659,92.55145,-65.07291,-0.8871593,-0.07170556,0.06212671,38.65585,-24.62175,3.032274,1008.164
10.399983883,22.52478,89.29628,-64.39876,-0.9720248,-0.03062261,0.0478333,39.8248,-22.69889,5.6311,1008.164
10.432156563,8.702936,82.72675,-60.96667,-1.039478,-0.1637414,-0.0750626,39.8248,-22.69889,5.6311,1008.164
10.466803551,23.81482,69.17338,-48.70927,-1.020032,-0.1585855,-0.08628754,40.62896,-19.61508,9.18259,1008.164
10.498975754,5.078541,61.1834,-35.77771,-1.005603,-0.2811188,-0.1684082,40.6646,-16.91385,11.78349,1008.162
10.533618927,7.351466,55.73838,-24.56219,-0.9663721,-0.2371336,-0.1669657,40.6646,-16.91385,11.78349,1008.162
10.565791130,4.402806,48.75454,-17.51418,-0.9458374,-0.1960967,-0.182243,40.68849,-15.74771,13.56304,1008.168
10.600438595,2.314172,40.58701,-11.69191,-0.951793,-0.2169143,-0.242127,40.71733,-14.57669,15.7251,1008.168
10.632611275,10.91443,28.57246,-5.747069,-0.9377154,-0.2170521,-0.2509355,40.71733,-14.57669,15.7251,1008.168
10.667258263,0.2869685,13.7762,-1.273116,-0.9490758,-0.2625387,-0.3032604,40.35094,-14.55996,16.6196,1008.168
10.699429989,-0.08161395,0.1044642,4.058855,-0.9420301,-0.2420683,-0.2877334,39.23471,-14.14566,17.96238,1008.166
10.734073639,-4.381743,-13.33053,10.73914,-0.9586835,-0.2125815,-0.2511849,39.23471,-14.14566,17.96238,1008.168
10.766245842,-6.593238,-20.49192,15.27438,-0.9668688,-0.2163083,-0.2361973,39.61266,-14.15103,17.96045,1008.168
10.800893307,-6.286086,-24.69406,17.48071,-0.9506391,-0.169405,-0.1858341,39.22342,-13.7759,17.06796,1008.168
10.833065510,-8.43615,-24.87161,17.90972,-0.9602843,-0.1702194,-0.1717729,39.22342,-13.7759,17.06796,1008.173
10.867712021,-5.610351,-23.92465,16.62269,-0.9605477,-0.155022,-0.1523651,39.58928,-14.5549,16.17719,1008.173
10.899884701,-3.8903,-21.7348,15.45824,-0.960639,-0.1246776,-0.1198201,39.95598,-15.3331,15.35017,1008.172
10.932053566,-4.750325,-17.17756,14.7228,-0.9818729,-0.16397,-0.1305499,39.95598,-15.3331,15.35017,1008.173
10.966700554,-3.8903,-12.56113,14.17121,-0.9785634,-0.1235012,-0.1047012,39.56571,-16.4825,14.46512,1008.173
10.998873234,0.5941206,-8.832473,13.55834,-0.9813903,-0.1079206,-0.1002084,39.94314,-17.25014,14.46691,1008.173
11.033520222,-2.354539,-6.405888,11.16815,-0.9776608,-0.1177701,-0.1162304,39.94314,-17.25014,14.46691,1008.173
11.065691948,2.068451,-6.109962,8.410233,-0.9867248,-0.07836578,-0.110519,39.55942,-17.25045,14.02256,1008.173
11.100339413,-3.153135,-5.873222,4.97816,-0.9782686,-0.1202943,-0.1292595,39.5589,-18.01272,14.02628,1008.173
11.132507801,-0.2659052,-6.701813,3.139549,-0.967324,-0.08534098,-0.1213615,39.5589,-18.01272,14.02628,1008.173
11.167155266,-1.248792,-11.14069,2.955688,-0.9630618,-0.09708647,-0.1311381,39.55313,-18.0184,13.58,1008.173
11.199327469,0.2255381,-16.17141,4.487864,-0.9779003,-0.1228235,-0.1422978,39.16915,-18.39985,13.13751,1008.172
11.233974934,-2.170248,-27.17982,9.574686,-0.980635,-0.08491477,-0.1376218,39.54735,-18.02409,13.13372,1008.176
11.266146660,-4.750325,-37.35965,15.94854,-0.9889479,-0.1670585,-0.1579833,39.54735,-18.02409,13.13372,1008.176
11.300794124,-6.101794,-48.19051,19.38061,-0.9987903,-0.06464305,-0.1011352,39.90166,-18.81446,11.35039,1008.176
11.332962513,-9.173314,-58.13359,20.23863,-0.9819796,-0.08000069,-0.06767876,39.87912,-19.21753,9.630878,1008.176
11.367609978,-8.62044,-65.41335,18.64517,-0.9899037,-0.03468689,0.01278066,39.87912,-19.21753,9.630878,1008.177
11.399782181,-12.30627,-67.54401,14.35507,-0.9692853,-0.01198675,0.07447135,40.60611,-19.25669,7.395607,1008.183
11.431954384,-13.10486,-64.4072,9.574686,-0.964437,-0.005307156,0.1255731,40.58223,-20.42282,5.616068,1008.183
11.466601372,-13.47344,-58.07441,5.223308,-0.9505928,-0.02116868,0.1547152,40.58223,-20.42282,5.616068,1008.183
11.498774052,-9.111884,-49.43339,2.71054,-0.9551729,-0.03586249,0.1975347,40.17018,-20.83189,3.005932,1008.183
11.533417225,-8.067567,-38.60254,0.6267812,-0.9586421,-0.02964493,0.2463003,40.90847,-21.24081,1.665085,1008.183
11.565589905,-4.074591,-28.4819,-0.4763852,-0.9586172,-0.04122789,0.2548805,40.90847,-21.24081,1.665085,1008.183
11.600236893,-2.907413,-18.47963,-2.131135,-0.9613386,-0.02458412,0.2714311,40.1237,-21.2585,-0.5624504,1008.182
11.632408619,-3.95173,-11.43661,-4.337468,-0.9623891,-0.03576913,0.2679747,40.119,-20.88224,-0.9468384,1008.18
11.667056084,0.5941206,-5.754852,-6.176078,-0.9473114,-0.03298844,0.260627,40.119,-20.88224,-0.9468384,1008.18
11.699228764,1.761298,-1.552716,-10.40488,-0.9449454,-0.01952794,0.2452919,40.49065,-21.65556,-1.391331,1008.18
11.733871937,-0.08161395,-1.138421,-17.20774,-0.9515046,-0.01002083,0.2150655,40.11348,-20.50679,-1.394979,1008.178
11.766044140,3.665641,-13.38972,-25.54278,-0.6231553,0.02023646,0.1332032,40.11348,-20.50679,-1.394979,1008.182
11.800691605,10.42299,-9.897803,-30.26188,-0.9561896,-0.1213368,0.001629737,40.49142,-20.51216,-1.396914,1008.182
11.867510796,8.641505,-37.06372,-45.46106,-1.065209,0.03986679,0.1909918,40.8641,-19.76095,-1.848849,1008.18
11.899682999,-24.1009,-40.61483,-56.79916,-1.01114,-0.1249801,0.3751801,41.98713,-18.64502,-2.752795,1008.18
11.934326172,-11.75339,-41.02912,-48.46412,-0.8265187,-0.1518268,0.348654,41.58711,-17.13786,-4.543427,1008.18
11.966498852,-13.16629,-17.35511,-43.56116,-0.9988372,-0.3197882,0.4235872,41.58711,-17.13786,-4.543427,1008.18
11.998670578,-8.743301,-18.00615,-42.458,-0.9152433,-0.2756181,0.4776373,42.34454,-14.8618,-4.558458,1008.178
12.033318043,2.068451,-7.944698,-34.91969,-0.9008067,-0.2550822,0.4434499,42.32353,-12.97805,-6.28913,1008.178
12.065490723,-2.41597,3.892305,-25.84921,-0.9347408,-0.305891,0.3787597,42.32353,-12.97805,-6.28913,1008.178
12.100137711,-1.00307,-2.440491,-13.1628,-0.9175685,-0.3455071,0.3507989,42.32456,-11.45352,-6.296573,1008.177
12.132306099,-1.00307,3.892305,-0.2925241,-0.8761485,-0.3602743,0.3507727,42.33632,-9.918427,-5.475209,1008.177
12.166953564,5.754275,2.64942,10.18756,-0.8591657,-0.3198275,0.3196177,42.33632,-9.918427,-5.475209,1008.177
12.199126244,17.36462,4.720895,14.41636,-0.8730468,-0.2765107,0.3890302,42.32585,-9.547852,-6.305877,1008.177
12.233773232,-2.047387,15.90686,10.12627,-0.8714746,-0.2092035,0.3693265,42.70353,-9.934355,-6.30595,1008.177
12.265944958,9.194379,16.79464,16.1324,-0.9087616,-0.2928208,0.3280151,42.70353,-9.934355,-6.30595,1008.175
12.300592422,-4.443173,19.63552,16.80655,-1.015182,-0.3464859,0.3497737,42.33055,-9.924112,-5.92149,1008.175
12.332760811,7.167175,19.57634,11.84231,-0.8418728,-0.1293043,0.4270669,42.34762,-10.28819,-4.580788,1008.175
12.367408275,24.24483,20.52329,15.94854,-1.000588,-0.2435635,0.2362521,42.34711,-11.05046,-4.577065,1008.175
12.399580479,9.931544,15.31501,15.27438,-0.9045375,-0.2045393,0.3234015,42.34711,-11.05046,-4.577065,1008.179
12.434227943,26.2106,-4.216042,18.52259,-0.8490263,-0.1270704,0.2714662,43.11403,-11.81209,-3.684651,1008.179
12.466399670,15.89029,-0.7833109,19.31932,-1.051959,-0.3033906,0.2497342,41.98573,-12.17144,-3.230708,1008.179
12.498572349,19.76041,-15.46119,12.51646,-0.8124149,-0.004526984,0.3878148,41.98573,-12.17144,-3.230708,1008.179
12.533215523,12.2659,-10.66721,9.574686,-1.135412,-0.3033909,0.1329051,41.97918,-13.32052,-3.671407,1008.181
12.565388203,4.648528,-17.47348,1.975096,-0.6885452,0.02669939,0.3628164,41.6128,-13.30378,-2.776912,1008.181
12.600035190,28.05352,-24.45732,5.407169,-1.099496,-0.2584046,0.2621167,41.6128,-13.30378,-2.776912,1008.181
12.632206917,11.59017,-37.30046,1.913809,-0.7781465,-0.06593622,0.3142068,41.97289,-14.08847,-4.113965,1008.181
12.666854381,9.440101,-39.25357,4.855586,-1.009115,-0.2867698,0.2297095,41.58365,-13.71334,-5.006454,1008.181
12.699027061,17.42605,-45.34962,2.281531,-0.8385266,-0.1022303,0.289407,41.58365,-13.71334,-5.006454,1008.183
12.733670235,16.25888,-51.14976,0.5654942,-0.9703751,-0.2582594,0.238259,41.94508,-13.73495,-6.283475,1008.183
12.765842438,5.201402,-49.07828,-6.666374,-0.8567411,-0.1168293,0.3357286,41.54352,-14.51459,-8.062942,1008.183
12.800489902,9.194379,-54.64167,-0.1699501,-0.8981808,-0.2659725,0.3546477,41.54352,-14.51459,-8.062942,1008.183
12.832662582,-0.7573485,-51.68242,-7.340532,-0.7798849,-0.07027125,0.632307,40.77107,-13.37751,-9.403498,1008.187
12.867472172,11.52874,-39.19439,-2.989153,-0.6976742,-0.207805,0.7258419,40.74744,-14.16251,-11.1849,1008.188
12.899643898,50.41418,-25.64101,0.8106423,-0.787819,0.01907566,0.6321535,40.74744,-14.16251,-11.1849,1008.188
12.934287548,3.235628,-28.0676,0.9945034,-0.8130169,-0.3208823,0.5274022,39.6029,-14.15697,-12.0079,1008.187
12.966459751,60.24305,-26.82471,7.061919,-0.7397421,-0.04085658,0.6331388,39.59686,-14.54379,-12.45232,1008.187
13.001107216,58.27728,-41.38423,12.76161,-0.8557023,-0.2420589,0.4619344,39.59686,-14.54379,-12.45232,1008.187
13.033279419,56.43436,-41.44342,17.84843,-0.7828655,-0.1413518,0.6023468,39.96299,-14.94166,-13.34496,1008.187
13.065451622,65.89465,-42.92304,30.59614,-0.7624279,-0.190347,0.6191041,39.20056,-16.08001,-13.78179,1008.187
13.100098610,46.17548,-34.34121,34.02821,-0.7758882,0.06407639,0.810753,39.20056,-16.08001,-13.78179,1008.187
13.132267475,66.01751,-44.16592,56.45926,-0.7335668,-0.2127084,0.6962524,38.43287,-16.46177,-14.66862,1008.187
13.166914463,48.75556,-31.32278,82.01595,-0.7322465,-0.0736158,0.6699128,37.6757,-18.3567,-14.65545,1008.188
13.199087143,111.476,-14.75097,85.81573,-0.7069422,0.06679969,0.7677162,37.6757,-18.3567,-14.65545,1008.191
13.233734131,130.7652,0.9330544,101.3214,-0.6805273,0.09183447,0.821178,36.16792,-20.99748,-14.18841,1008.189
13.265906811,198.0315,7.206666,112.2917,-1.152174,0.1248276,0.8933309,34.67722,-24.00233,-12.38066,1008.189
13.300553799,282.2526,-60.02751,27.28664,-1.016671,0.6621106,0.03275287,34.67722,-24.00233,-12.38066,1008.187
13.332721710,135.8025,-42.80467,-25.97179,-1.131178,0.8290726,0.1470217,31.71283,-29.23353,-7.493812,1008.187
13.367369175,77.07499,-58.42952,-24.92991,-0.6189457,0.120741,0.6439479,30.25597,-32.20509,-3.072139,1008.185
13.399541855,159.6989,-8.773288,-18.92378,-0.8621002,0.3382789,0.813818,30.25597,-32.20509,-3.072139,1008.185
13.434188843,65.64893,-31.20441,-28.36198,-0.8436027,0.5234638,0.5442883,31.03496,-32.19308,-1.290883,1008.188
13.466361523,-43.20577,-9.010028,-48.40284,-0.9691396,0.7890085,0.3432811,31.06957,-31.01639,1.317463,1008.188
13.501008510,-159.0021,-6.583443,-57.84104,-0.8272946,1.350138,-0.06407996,32.94798,-30.67347,0.413372,1008.188
13.533176422,-292.4289,14.60479,-102.887,-0.649925,0.7866288,0.1773671,32.94798,-30.67347,0.413372,1008.186
13.567823887,-276.3956,19.87226,-110.364,-0.853222,0.9084489,0.548998,34.39803,-29.23213,-4.447139,1008.186
13.599996090,-112.8679,-5.399742,-111.7736,-0.8948587,-0.03601035,1.161934,36.2336,-25.12254,-8.876328,1008.186
13.632168770,152.2658,-37.77394,-87.87169,-0.7632257,0.4993123,1.178133,36.2336,-25.12254,-8.876328,1008.184
13.666815758,-42.03859,-44.10674,-61.39568,-0.4810106,1.087373,1.143715,37.71455,-19.46112,-11.58966,1008.182
13.698988438,-141.7401,-81.98515,-59.86351,-0.5763683,-0.0004753545,1.065747,38.83969,-16.43871,-12.43915,1008.182
13.733631611,51.76565,-82.10352,-15.67557,-0.6824229,0.07872701,1.008585,38.83969,-16.43871,-12.43915,1008.182
13.765803814,68.16757,-97.5508,-7.830828,-0.7624436,0.4379047,0.8942034,38.41759,-13.42976,-16.02235,1008.181
13.800450802,28.85211,-117.4962,13.31319,-1.003577,0.5352738,0.8398982,37.23971,-12.69524,-19.46301,1008.183
13.832623482,-56.41331,-159.8134,25.14159,-1.011597,0.5449034,0.6356846,37.23971,-12.69524,-19.46301,1008.179
13.867272377,-118.028,-181.9486,35.86682,-0.7630256,0.2766085,0.4961935,35.29255,-13.4867,-23.84867,1008.179
13.899443150,-139.0372,-194.555,49.77898,-0.610978,0.1451382,0.4768209,31.81731,-12.74921,-29.57288,1008.179
13.934086323,-109.612,-204.4389,95.25394,-0.2458499,0.1889165,0.4096688,31.81731,-12.74921,-29.57288,1008.176
13.966258049,-275.8427,-193.1938,128.2264,0.1697703,0.8035614,0.3838659,26.43633,-10.09626,-36.63556,1008.174
14.000905514,-523.223,-190.1754,176.1528,0.04501656,0.4225811,0.1823414,20.26486,-8.165524,-41.45893,1008.172
14.033078194,-638.5279,-262.1443,170.8208,-0.4958175,0.03464316,0.006331896,20.26486,-8.165524,-41.45893,1008.169
14.067725182,-453.6223,-339.6767,137.8484,-0.3163453,-0.9756275,-0.9127226,13.08548,2.666053,-41.92088,1008.169
14.099897862,-175.5269,-254.5686,113.0272,0.3711022,-1.332693,-0.699397,6.044242,23.85384,-32.29581,1008.165
14.132066250,31.37076,-148.7458,124.5491,-0.1384515,-1.263697,-0.4516278,6.044242,23.85384,-32.29581,1008.166
14.166713715,181.1381,-129.9842,124.5491,0.4687027,-1.158274,-0.551378,2.335811,36.16552,-27.49069,1008.164
14.198885441,148.3957,5.904595,133.8648,0.690844,-0.9369547,0.2831969,1.534789,36.51273,-30.99517,1008.162
14.233532429,30.32644,5.667855,95.00879,-0.4687784,-1.260937,0.1342146,1.534789,36.51273,-30.99517,1008.162
14.265705108,-75.64102,9.159771,25.38674,-0.8310865,-0.8568965,0.4947139,2.993312,33.39183,-34.94079,1008.162
14.300352096,-318.9055,-36.3535,-33.08108,-0.2802322,-0.5597536,0.1064239,6.39849,30.30013,-34.49703,1008.161
14.332520962,-413.1397,-8.299808,-44.60304,-0.1957535,-1.194822,-0.6838131,6.39849,30.30013,-34.49703,1008.159
14.367167950,-234.2543,6.259706,-23.15258,-0.2204036,-0.8828046,-0.457845,5.747279,33.84177,-26.60437,1008.155
14.399340629,-202.6177,33.36644,-12.05963,-0.2875337,-1.297513,-0.4640115,4.40631,42.47413,-13.887,1008.155
14.466159820,-132.0956,-6.583443,-29.83287,-0.6481869,-0.3673316,-0.1030461,3.744111,45.62408,-6.821287,1008.155
14.500806808,-77.17678,127.7665,-8.995282,-0.1898341,-1.511349,0.6973427,4.127572,45.24327,-6.37508,1008.154
14.532975674,164.429,-33.27588,-26.58466,-0.1865413,-1.310091,0.9920268,4.179263,46.05589,-2.42603,1008.152
14.567622661,-68.08508,27.86224,-12.48864,-0.2261491,-1.028491,0.03264702,4.179263,46.05589,-2.42603,1008.15
14.599795341,84.5695,70.88974,-26.4008,-0.5315835,-1.259934,0.035035,3.766141,45.26487,-5.098059,1008.15
14.634442329,-13.84203,83.02267,-54.16381,-0.5650766,-0.6809587,0.06663062,4.128087,46.00554,-6.378801,1008.15
14.666615009,-127.5497,125.1624,-42.15156,-0.4572153,-1.102483,-0.01834483,4.128087,46.00554,-6.378801,1008.15
14.698786735,-38.78278,92.31471,-12.48864,-0.5778378,-1.293754,-0.2265379,2.255155,46.42974,-5.095905,1008.15
14.733429909,62.27025,108.2947,-1.211829,-0.5862895,-1.11114,-0.2172416,2.663014,47.97734,-2.873879,1008.15
14.765602589,12.75734,55.91593,1.300938,-0.6539718,-0.939522,-0.2243532,2.663014,47.97734,-2.873879,1008.15
14.800250053,109.4488,18.62938,29.98326,-0.002170348,-1.05777,-0.5360337,3.024135,48.71719,-4.218376,1008.15
14.832422256,126.7108,6.674,54.74323,-0.0500598,-0.9516535,-0.6532839,5.235074,49.01007,-8.630892,1008.154
14.867069721,158.6546,-2.203751,75.5808,0.1693241,-1.054451,-0.6875083,5.235074,49.01007,-8.630892,1008.154
14.899241924,173.8893,-12.02846,95.31522,0.1655229,-1.008957,-0.581058,8.939408,47.73989,-14.38254,1008.15
14.933884621,148.7029,-22.20828,117.5011,0.3507749,-0.9061543,-0.5371131,12.9976,43.77448,-21.84447,1008.154
14.966057301,90.65111,-24.75324,151.9444,0.5175511,-0.8980895,-0.2648271,12.9976,43.77448,-21.84447,1008.154
15.000704288,13.86309,-28.30434,171.0047,0.4607865,-1.1596,-0.09871752,17.09356,37.11661,-26.23285,1008.154
15.032876968,36.03947,-10.07536,177.0721,0.4078391,-1.166404,-0.008145669,21.98481,30.16935,-27.56334,1008.154
15.067523956,12.8802,41.35642,185.9587,0.1263294,-0.8428189,0.4825222,21.98481,30.16935,-27.56334,1008.151
15.099696636,-234.8687,49.34639,96.17324,-0.2804743,-1.09004,0.4505401,25.07195,22.50853,-27.09564,1008.149
15.134339809,-304.1621,38.57472,37.27642,0.1038722,-1.66281,0.06482618,28.12076,17.15813,-24.85365,1008.149
15.166512013,-38.65992,57.04045,-26.95238,-0.177117,-1.95753,-0.1292274,28.12076,17.15813,-24.85365,1008.145
15.198684216,92.92403,18.86612,-31.18118,-0.09784974,-0.2925073,0.1358453,29.70758,18.35315,-19.12908,1008.147
15.233331680,-55.61471,25.96832,-0.5989593,0.1255389,-0.04278499,0.05918162,29.7149,20.64564,-18.69396,1008.147
15.265503883,-75.57959,28.15816,40.09563,-0.4871514,-0.5614867,-0.1259114,29.7149,20.64564,-18.69396,1008.147
15.300151348,-111.5778,12.29658,-11.01775,-1.004753,-1.633183,-0.4586404,30.10986,21.41878,-17.42453,1008.145
15.332319736,53.66999,-15.52038,-55.08312,-1.097436,-1.532554,-0.5610578,32.40004,21.78963,-15.71663,1008.145
15.366967201,89.79108,-24.04302,-82.17199,-0.3087591,-0.6591697,-0.2787651,32.40004,21.78963,-15.71663,1008.145
15.399138927,10.97586,-13.27135,-67.70825,-0.08742803,-0.2749169,0.03178113,32.77901,23.30879,-15.726,1008.144
15.433786392,-18.81789,-41.85771,-10.58874,-0.5711315,-0.4037662,0.2574341,30.86831,25.21938,-17.44701,1008.142
15.465958595,-11.81482,-88.02202,6.265187,-0.9073633,-0.8698582,-0.03970069,30.86831,25.21938,-17.44701,1008.14
15.500606060,154.6616,-124.2432,57.99144,-0.3641591,-0.7738098,-0.1374854,29.3534,27.90391,-17.83482,1008.14
15.532774448,140.6555,-84.11581,75.88724,0.2505277,-0.755123,-0.4023827,28.55156,28.2503,-21.40306,1008.138
15.567421913,82.72659,26.91528,90.84127,-0.3119493,-1.222492,0.311408,28.47418,23.60361,-27.11862,1008.138
15.599594116,106.2544,-42.6863,99.36017,-1.116881,-0.6062464,0.3360492,28.47418,23.60361,-27.11862,1008.138
15.634241581,-73.79811,-63.40105,66.51032,-1.196297,-1.307058,0.1676148,30.71118,19.73245,-29.27927,1008.138
15.666413307,67.18469,-35.05143,66.81676,-0.8589258,-0.8968788,0.4531921,32.95313,15.86617,-31.05739,1008.138
15.701060295,-35.52697,-42.27201,86.24474,-0.5160277,-0.4999349,0.4735089,32.95313,15.86617,-31.05739,1008.138
15.733229160,2.437033,-30.55337,93.17018,-0.6621507,-1.078383,0.2054859,32.56236,13.9545,-31.93871,1008.138
15.765401840,44.76258,-30.25745,89.06395,-0.8666534,-0.74619,0.09927282,32.16579,12.03714,-33.26631,1008.138
15.800048828,21.9719,-50.85383,95.80552,-0.9236225,-0.612476,0.2821386,32.16579,12.03714,-33.26631,1008.14
15.832221508,30.69502,-48.84154,93.29276,-0.7776221,-0.7020956,0.3359493,32.90336,9.34223,-34.53224,1008.14
15.866868496,12.08161,-51.74161,96.11195,-0.9986497,-0.4022706,0.4277254,31.37824,6.6844,-35.40405,1008.14
15.899040699,-58.37908,-58.07441,89.92197,-1.305632,-0.4815327,0.4627124,31.37824,6.6844,-35.40405,1008.138
15.933683872,-124.6011,-54.40493,54.49808,-1.41481,-0.3923762,0.4355462,29.85313,4.026569,-36.27584,1008.137
15.965856075,-152.7976,-61.74387,21.15793,-1.121131,-0.3919859,0.4236511,28.32981,4.036674,-37.16067,1008.137
16.000503540,-159.8007,-58.42952,-7.830828,-0.8131337,-0.4730139,0.1222335,28.32981,4.036674,-37.16067,1008.137
16.032675743,-87.12851,-45.29044,-7.463106,-0.4999007,-0.4358636,-0.01968087,25.69888,8.659225,-36.2769,1008.137
16.067323208,-95.42162,-22.26747,-20.76239,-0.5653018,-0.7533274,0.2491959,23.7679,15.18329,-34.9597,1008.135
16.099495888,-117.3523,-13.68564,-33.69395,-0.837791,-0.7207143,0.2115194,23.7679,15.18329,-34.9597,1008.135
16.134139061,-124.7854,-4.097672,-47.54482,-0.9356281,-0.7195164,0.2408802,22.28075,18.65689,-33.24734,1008.135
16.166310787,-115.1408,11.64554,-56.24757,-0.8386075,-0.7583574,0.3649745,20.80623,22.52381,-30.58053,1008.135
16.200958252,-34.72837,35.02362,-51.22204,-0.7850835,-0.6649531,0.3011392,20.80623,22.52381,-30.58053,1008.133
16.233130455,-4.443173,35.61547,-49.75115,-0.7957141,-0.2897786,0.4807432,19.70934,27.14681,-27.98313,1008.133
16.267777920,-86.45277,41.59316,-59.18935,-0.8375274,-0.3052382,0.2742281,18.98415,29.85391,-25.76089,1008.133
16.299950123,-69.86656,29.16431,-67.40182,-0.7998845,-0.7380086,0.2592231,18.98415,29.85391,-25.76089,1008.131
16.332118988,-9.97191,5.96378,-73.71439,-0.6090598,-0.7640098,0.1574542,17.88572,32.19011,-23.15232,1008.131
16.366765976,-12.79771,-2.381306,-71.56934,-0.5897586,-0.4525904,0.2711834,16.4044,34.52681,-20.92435,1008.133
16.398938179,-50.946,-8.595733,-71.81448,-0.6864942,-0.5328568,0.1224865,16.4044,34.52681,-20.92435,1008.133
16.433585167,-30.5511,-27.00227,-72.05963,-0.4529999,-0.7938516,0.1017681,14.5215,36.08387,-20.47584,1008.132
16.465757847,-10.89337,-32.68403,-53.91867,-0.3582036,-0.6729067,0.1741805,11.51083,38.04386,-19.57711,1008.128
16.500404835,8.641505,-67.30727,-27.8104,-0.4637372,-0.5497841,0.2740262,11.51083,38.04386,-19.57711,1008.126
16.532573700,-1.494514,-81.33411,-9.975874,-0.3957413,-0.709883,0.138558,8.87732,38.85508,-18.67473,1008.125
16.599393368,25.53487,-96.54466,15.21309,-0.6191807,-0.9837552,0.1046451,6.982358,39.6385,-19.11506,1008.123
16.634040356,6.49144,-119.8636,12.3326,-0.4865686,-0.8387122,0.3682572,4.714463,39.28958,-19.1016,1008.121
16.666212082,21.91047,-119.2717,18.33873,-0.2652822,-0.9628035,0.2803375,3.19115,39.29968,-19.98643,1008.12
16.700859547,4.157084,-134.1863,22.93526,-0.3046163,-0.8131205,0.4053303,2.05733,39.31578,-19.98063,1008.118
16.733027935,11.52874,-142.7682,30.2897,-0.2580921,-0.7643231,0.3431206,2.05733,39.31578,-19.98063,1008.118
16.767675400,19.76041,-134.6006,40.95364,-0.1993934,-0.7165765,0.2783785,0.1618538,39.33694,-20.41724,1008.118
16.799847603,-11.38481,-124.0657,44.99859,-0.2010833,-0.6593794,0.4562417,-1.727844,39.36379,-20.40757,1008.116
16.832020283,-3.460287,-132.6475,46.59205,-0.1229112,-0.8465997,0.209113,-1.727844,39.36379,-20.40757,1008.116
16.866668701,40.3396,-106.251,61.30093,-0.2343497,-0.7491217,0.3155504,-1.722323,38.98834,-19.95942,1008.113
16.898839951,8.580075,-113.2348,77.0517,-0.3782054,-0.6332986,0.3882195,-2.855885,39.38558,-19.95548,1008.111
16.933483124,27.93065,-102.5815,82.56753,-0.1967128,-0.753009,0.1503233,-2.855885,39.38558,-19.95548,1008.111
16.965655327,25.90345,-71.98288,81.28049,-0.3928147,-0.8338045,0.3727248,-1.722581,38.6072,-19.95757,1008.108
17.000302315,28.66782,-65.5909,72.7616,-0.4892341,-0.8829473,0.4209373,-1.728359,38.60152,-20.40384,1008.106
17.032474995,37.69809,-41.14749,65.71359,-0.514134,-0.8915763,0.4818305,-1.728359,38.60152,-20.40384,1008.102
17.067121983,91.32684,-23.7471,57.01085,-0.5693749,-0.767448,0.1777816,0.9116983,38.93939,-20.86552,1008.099
17.099294662,73.75774,14.90072,31.33158,-0.5512952,-0.6756752,0.1942754,2.021373,37.37601,-22.64901,1008.101
17.133937836,124.5607,45.55856,21.15793,-0.5988181,-0.777903,-0.1271356,2.021373,37.37601,-22.64901,1008.101
17.166110516,170.3878,57.86904,14.17121,-0.999991,-0.3682646,0.3677684,3.881978,35.79702,-24.81888,1008.098
17.200757504,69.27332,17.3273,-1.885987,-1.199868,0.2802239,0.3687136,4.962253,33.44295,-28.83004,1008.098
17.232929707,-130.9284,16.43953,-28.79099,-0.8912037,0.2500189,0.2383366,4.962253,33.44295,-28.83004,1008.096
17.267576694,-156.852,28.27653,-18.31091,-0.8164866,-0.2926805,0.2167774,6.454673,29.21276,-30.0924,1008.094
17.299749374,-198.9319,41.94827,-2.069848,-0.688924,-0.005597878,0.3914736,5.373315,31.18489,-26.14313,1008.094
17.334392547,-344.2148,53.31179,29.00267,-0.5056343,-0.2074062,0.5235415,5.373315,31.18489,-26.14313,1008.092
17.366565227,-334.9388,49.81987,87.28663,-0.3562369,-0.6241372,0.2685542,5.467511,35.08637,-19.085,1008.094
17.398737430,-243.5303,51.65461,123.875,-0.4691868,-0.9234062,0.09651308,6.379497,39.03802,-7.249163,1008.092
17.433384895,-188.5501,11.88228,129.8198,-0.681895,-0.9861286,0.1341307,6.379497,39.03802,-7.249163,1008.092
17.465556621,-218.2824,-31.38196,120.5042,-0.6985371,-0.6602035,0.02852308,9.529765,41.02419,2.416727,1008.092
17.500204086,-218.651,-34.04529,115.0496,-0.7173976,-1.026571,-0.4129408,13.02708,38.7849,9.933504,1008.092
17.532372475,-99.16887,-24.16139,81.83208,-0.9157472,-1.385417,-0.4979163,13.02708,38.7849,9.933504,1008.096
17.567019462,-17.09784,3.418825,6.142613,-1.148889,-1.470187,-0.5002956,17.26764,36.14156,16.49196,1008.096
17.599192142,22.52478,58.99355,-83.70417,-1.044967,-1.446283,-0.9213718,18.80545,31.95604,18.73609,1008.096
17.633839607,128.1237,119.0663,-57.71846,-1.79248,0.2010486,0.7346082,18.04932,31.58565,18.74182,1008.095
17.666011810,0.9627031,36.20732,-89.34258,-1.205056,-0.07738989,0.5051117,18.04932,31.58565,18.74182,1008.095
17.700659275,-25.39094,20.93759,-76.4723,-0.6546732,-0.825332,0.04362244,13.88723,33.16355,18.30937,1008.096
17.732827663,45.06974,30.34801,-75.24656,-0.6673665,-1.247019,-0.392089,11.62589,33.96371,18.76353,1008.098
17.767474174,153.6787,49.58313,-24.62347,-0.4203546,-0.9180753,-0.2509382,11.62589,33.96371,18.76353,1008.098
17.799646854,82.66515,17.14975,-5.256773,-0.5891461,-0.5446544,0.04002294,8.573739,34.35937,16.54574,1008.096
17.834293842,41.44534,-56.29885,45.36631,-0.4214695,-0.1989077,-0.208849,7.024159,37.0098,13.48024,1008.096
17.866466522,68.84331,-36.64943,101.6891,-0.3817534,-0.3737977,-0.3923752,7.024159,37.0098,13.48024,1008.096
17.901113987,147.2285,-15.99386,125.9587,-0.8554598,-0.2247639,0.2499949,8.129655,36.58495,11.30865,1008.098
17.933282375,43.34969,16.49871,40.2182,-1.197415,-0.8811573,-0.05540334,11.11221,35.73993,8.172937,1008.102
17.965455055,175.0565,2.590235,32.12831,-1.001804,-0.3181709,0.1276805,11.11221,35.73993,8.172937,1008.102
18.000102043,47.71124,-14.04075,25.14159,-1.322879,0.2808391,0.3062426,12.96177,34.91184,5.106777,1008.1
18.032273769,-64.03067,-7.826328,14.60022,-1.079384,-0.5192374,-0.06412498,14.43835,34.09399,2.425081,1008.1
18.066921234,29.77357,-13.74483,21.46437,-0.9466597,-0.6528875,-0.0009133285,14.43835,34.09399,2.425081,1008.102
18.099093914,20.86616,-9.305953,12.94547,-0.762121,-0.5546394,0.01841868,15.20001,34.08894,2.867493,1008.102
18.133737087,24.73627,-11.0815,15.21309,-0.9702059,-0.6200745,0.08489081,15.56639,34.0722,1.972998,1008.102
18.165909290,7.228605,-13.8632,7.429641,-0.9343827,-0.6011733,0.0413324,15.56639,34.0722,1.972998,1008.102
18.200556755,9.685822,-5.163002,-1.211829,-1.0266,-0.6089231,0.04694899,15.93855,34.06115,1.524784,1008.108
18.232729435,22.27906,-4.038487,-20.08823,-1.103195,-0.6882014,-0.08650372,15.92096,33.66296,0.1878033,1008.108
18.267376423,82.05085,3.83312,-34.12296,-1.010715,-0.5564557,-0.06266256,15.92096,33.66296,0.1878033,1008.11
18.299548149,161.9718,2.471865,-37.55503,-0.9329383,-0.5846076,-0.2014722,16.29395,33.65272,-0.1966572,1008.11
18.334191322,250.4316,-1.967011,-31.18118,-1.21159,-0.4812343,-0.1936819,15.48658,34.37456,-4.213037,1008.11
18.366364002,297.1802,3.83312,-47.29967,-1.228582,-0.4008341,-0.1639406,15.48658,34.37456,-4.213037,1008.11
18.401011467,181.9981,37.0951,-92.28436,-0.8476524,-0.4241435,-0.2346851,14.63278,33.5272,-11.72846,1008.11
18.433183670,131.4409,94.97804,-125.1955,-0.7341036,-0.9773807,-0.2759736,13.40167,31.1623,-19.107,1008.11
18.465356350,248.1587,156.8856,-142.601,-0.6743991,-0.9257807,-0.2809252,13.40167,31.1623,-19.107,1008.108
18.500003815,256.6361,188.3128,-158.8421,-0.694916,-0.5595264,0.1204172,11.46498,30.00026,-22.662,1008.106
18.532171249,197.7243,172.2737,-160.6807,-0.6015344,-0.5749333,0.3228226,11.01095,27.2646,-28.38493,1008.104
18.566819191,178.3123,175.6472,-139.6592,-0.4717325,-0.5595496,0.1983464,11.01095,27.2646,-28.38493,1008.104
18.598991394,165.4733,165.1715,-116.125,-0.7996737,-0.5242286,0.4132954,12.85768,22.24404,-31.43062,1008.104
18.633638382,198.7686,127.9441,-105.0933,-0.8655484,-0.6568415,0.4200467,16.23949,18.74847,-32.77012,1008.107
18.665811062,254.486,114.154,-89.40386,-0.7493137,-0.3773482,0.2954645,16.23949,18.74847,-32.77012,1008.105
18.700458050,250.1859,83.67371,-64.82777,-0.9013509,-0.1883984,0.4044808,19.99949,15.62866,-34.11342,1008.103
18.732626915,223.1565,51.35868,-40.0678,-0.8007718,-0.1317516,0.3249613,24.14301,10.98545,-34.94117,1008.102
18.767273903,182.7967,40.2319,-7.279244,-0.7068152,-0.03671595,0.3099261,26.84823,5.99224,-34.93084,1008.102
18.799446583,126.2807,40.11353,16.74527,-0.7901644,0.01021021,0.2990407,26.84823,5.99224,-34.93084,1008.103
18.834093571,80.20794,39.64005,31.94445,-0.8745626,-0.08501983,0.2320452,29.4965,1.386743,-34.47576,1008.103
18.866265774,130.5809,46.03204,41.6278,-0.905112,-0.3060157,0.1297705,30.63869,-2.112529,-33.6357,1008.103
18.900912762,225.6752,61.89362,52.84333,-1.033115,-0.1151018,0.1942347,30.63869,-2.112529,-33.6357,1008.105
18.933081150,251.5988,64.67532,49.84026,-1.055915,0.08923948,0.05346023,32.17125,-5.541464,-31.84157,1008.105
18.967728615,256.1447,62.3671,41.26008,-0.8658432,-0.002319783,0.00996189,34.49121,-12.37804,-27.42063,1008.105
18.999901295,366.5965,65.32635,41.81166,-0.6815108,0.04031701,-0.2589163,34.49121,-12.37804,-27.42063,1008.105
19.032073498,467.5881,97.87811,16.99042,-0.8040246,0.04811673,-0.2075809,35.31726,-18.41382,-21.65683,1008.105
19.066720963,497.689,136.5259,59.46233,-1.370757,1.282201,-0.4755345,36.58791,-25.91291,-10.65966,1008.103
19.098893166,116.0219,73.7898,3.507272,-1.578549,0.9456384,-0.0685987,36.58791,-25.91291,-10.65966,1008.103
19.133536816,-53.64894,57.39556,-22.78486,-1.093369,0.5342701,0.08495256,37.13497,-29.5607,2.61792,1008.103
19.165708542,2.928476,38.10124,-29.58772,-1.177056,-0.1069303,-0.09789247,36.41871,-29.51098,5.681997,1008.103
19.200355530,88.56247,30.17045,-5.256773,-0.862723,0.731562,0.2005887,36.41871,-29.51098,5.681997,1008.105
19.232528210,32.16935,17.56404,-5.563208,-0.9830599,0.4504945,0.2442204,36.81425,-29.11816,7.017046,1008.105
19.267175674,101.8314,9.574066,-8.19855,-1.052354,0.3448659,-0.3435612,37.59401,-27.96276,8.792717,1008.105
19.299347877,86.04382,2.88616,-24.56219,-0.8811309,0.6507248,-0.03463966,37.59401,-27.96276,8.792717,1008.105
19.333991051,104.473,-18.598,-35.53256,-0.9750442,0.35754,-0.03473439,37.25042,-27.16182,11.40486,1008.109
19.366163730,132.3624,-15.40201,-21.06882,-0.7334911,0.8290054,0.1428283,38.40787,-26.39292,13.18046,1008.109
19.400810718,64.9732,-41.97608,-26.46208,-0.9274436,0.06647489,0.07954776,38.40787,-26.39292,13.18046,1008.109
19.432982921,146.3685,-51.74161,-49.87373,-0.9208869,-0.01006384,-0.1486482,38.81098,-23.32648,14.94876,1008.107
19.467629909,117.5576,-69.49711,-73.1628,-0.8817503,0.1981741,-0.1217506,39.94635,-21.05579,14.93179,1008.111
19.499802589,118.6634,-59.61321,-51.34461,-0.439336,0.4693101,0.01324429,39.94635,-21.05579,14.93179,1008.111
19.531970978,-13.5963,-105.5408,-70.15974,-1.678881,0.0643967,0.2070422,42.22811,-17.26529,15.79415,1008.111
19.566618442,31.61648,-147.503,-114.9605,-1.090773,-0.1055092,-0.1097718,44.09726,-13.50354,13.98075,1008.111
19.598791122,44.51686,-138.3885,-111.9575,-0.7395701,0.1525054,0.1532139,44.09726,-13.50354,13.98075,1008.111
19.633438110,49.98417,-160.5237,-95.53256,-0.8577649,0.1249912,0.09673198,46.67639,-10.55946,8.660709,1008.109
19.665610790,-13.65773,-135.7251,-94.12296,-0.5836365,-0.2009962,0.2973004,48.11772,-4.937019,2.887169,1008.109
19.700257778,-18.32645,-133.7128,-76.65616,-0.9559117,-0.09865537,0.4886336,48.11772,-4.937019,2.887169,1008.109
19.732425690,-63.60066,-110.394,-43.8676,-0.7030669,-0.06172566,0.5940646,49.9357,-1.225618,-2.879001,1008.109
19.767073154,-98.80029,-72.04207,-23.58159,-0.9809095,-0.4403304,1.105901,49.50393,3.360838,-7.298758,1008.109
19.799245357,-121.7753,-93.2303,-21.43655,-0.9198279,-0.4792441,1.134413,49.46529,5.988978,-10.43575,1008.109
19.833892822,-131.5427,-98.26102,-15.982,-0.5819193,-0.3924533,0.7107075,49.46529,5.988978,-10.43575,1008.109
19.866065025,-154.3948,-81.80759,-15.73685,-0.3946683,-0.2648063,0.5157669,48.29866,7.496321,-13.05132,1008.109
19.900712490,-158.0806,-57.95604,-11.01775,-0.2546122,-0.3094304,0.4210662,47.51517,9.384301,-15.28816,1008.108
19.932880878,-129.5155,-41.14749,-17.08517,-0.4270645,-0.4596961,0.5877264,47.51517,9.384301,-15.28816,1008.109
19.967528343,-101.4418,-50.14361,-39.88394,-0.7339227,-0.8356447,0.6067703,46.3716,12.05697,-16.18794,1008.109
19.999700069,-41.0557,-59.73158,-60.78281,-0.9024861,-0.9162349,0.6216567,46.36788,15.10036,-16.64911,1008.109
20.034347534,-74.53527,-70.02978,-67.21796,-0.8594341,-0.4122113,0.7391621,46.36788,15.10036,-16.64911,1008.109
20.066519737,-147.4532,-90.33024,-70.71132,-0.8593352,-0.4144271,0.5776731,44.84719,17.7792,-17.4832,1008.111
20.098692417,-140.2658,-106.0143,-63.60202,-0.8285645,-0.8204916,0.3706346,42.19872,20.86098,-17.86708,1008.113
20.133335590,-25.02236,-107.9674,-50.4866,-0.872253,-1.102318,0.3022029,42.19872,20.86098,-17.86708,1008.113
20.165508270,80.02364,-115.0104,-35.53256,-0.834566,-0.8801485,0.4984106,39.92839,25.46111,-18.32409,1008.119
20.200155258,63.19171,-126.729,-19.04635,-0.5790407,-0.4794431,0.5725936,36.84812,26.97174,-22.77886,1008.119
20.232327938,-12.79771,-128.6821,-3.356875,-0.3101016,-0.4241517,0.5517421,36.84812,26.97174,-22.77886,1008.119
20.266974926,-48.9188,-125.4861,16.07111,-0.1709951,-0.6195831,0.475087,33.40075,26.21312,-26.26423,1008.119
20.299147129,-27.17243,-127.9127,29.86069,-0.1002895,-0.7731626,0.3685672,30.72551,25.07888,-28.47651,1008.121
20.333790302,13.92452,-129.5107,42.24067,0.03081581,-0.7029175,0.372743,30.72551,25.07888,-28.47651,1008.121
20.365962982,8.272923,-127.5576,45.79532,0.06101944,-0.7277771,0.3785222,28.05162,24.70771,-30.62876,1008.121
20.400609970,6.982884,-124.0657,42.66968,0.07253563,-0.7739522,0.3775521,24.99215,22.81088,-33.28167,1008.121
20.432782650,5.324263,-112.7614,38.93117,0.1202758,-0.7893309,0.4912136,24.99215,22.81088,-33.28167,1008.121
20.467429638,7.228605,-98.7345,40.46335,0.1641709,-0.7881578,0.5457617,22.63794,20.9164,-34.98181,1008.119
20.499602318,5.999997,-85.3587,41.38265,0.2753111,-0.6844084,0.5388319,18.84622,19.81531,-35.84945,1008.119
20.534245491,-20.72223,-76.95442,38.07315,0.3743629,-0.6278493,0.509936,18.84622,19.81531,-35.84945,1008.123
20.566418171,-53.52608,-72.27881,32.49604,0.4690222,-0.6949879,0.4246314,16.56021,18.30593,-37.16925,1008.123
20.598589897,-55.73757,-67.12971,36.60226,0.4354402,-0.7575657,0.4075589,14.3094,17.59293,-35.81508,1008.121
20.633236885,-53.40322,-70.74,26.91891,0.3156223,-0.9704242,0.421864,14.3094,17.59293,-35.81508,1008.121
20.665409565,-91.12148,-48.19051,23.85456,0.2670079,-0.9609379,0.6137496,12.04831,18.77423,-35.36278,1008.121
20.700057030,-75.57959,10.34347,43.0374,0.1197217,-1.430043,0.6772906,10.92682,19.9451,-34.46999,1008.121
20.732225418,-45.54012,13.95376,4.916873,-0.1609733,-0.7384635,0.7381491,10.92682,19.9451,-34.46999,1008.121
20.766872406,-166.2509,2.945345,-5.624495,0.2501673,-0.9280869,0.3939039,10.56667,21.87238,-33.20228,1008.125
20.799045086,-75.3953,8.863846,-23.76546,0.1632587,-1.232084,0.1290369,11.36929,22.66939,-29.63963,1008.125
20.833692551,-50.27026,3.773935,-27.50396,-0.05743793,-0.8565586,0.2816839,11.77209,26.49728,-27.9388,1008.126
20.865864277,-115.0179,-4.807892,-27.8104,0.007641034,-1.028722,0.1533735,11.77209,26.49728,-27.9388,1008.126
20.900511265,-78.40539,-11.55498,-37.30988,-0.05519668,-1.034072,0.1114998,11.04562,27.29871,-25.70725,1008.125
20.932680130,-49.10309,-25.99612,-44.48046,0.03872547,-1.060927,0.1513719,9.942746,30.39231,-23.48493,1008.125
20.967327118,-8.251859,-29.84315,-58.39262,0.0137764,-1.1957,0.09313572,9.942746,30.39231,-23.48493,1008.121
20.999499798,41.99821,-22.74095,-51.83491,0.05169227,-1.166117,0.1773757,8.064292,31.19198,-22.65018,1008.119
21.034146786,60.61163,-23.51035,-39.82265,0.2059906,-0.8868873,0.16908,6.1699,31.59508,-23.02489,1008.123
21.066319466,30.94074,-24.10221,-23.70417,0.41572,-0.6512285,0.2741416,6.1699,31.59508,-23.02489,1008.123
21.100966930,-54.57039,-18.53881,-14.0821,0.3914347,-0.6723177,0.3561343,3.506474,30.85334,-24.34648,1008.123
21.133135319,-85.03987,-23.3328,-12.36607,0.2624411,-1.042016,0.1672743,2.383439,29.73741,-23.44253,1008.123
21.165307045,-35.15838,-33.2167,-20.7011,0.3289568,-1.129141,0.05266552,2.383439,29.73741,-23.44253,1008.125
21.199954510,11.28301,-31.6187,-25.66535,0.3777873,-0.9563118,0.08882067,1.27897,31.6868,-21.27839,1008.125
21.232126713,4.771389,-25.81857,-22.47843,0.3252499,-0.9776598,0.1190189,-0.6107264,31.71364,-21.26871,1008.125
21.266774177,-2.108818,-23.7471,-18.00447,0.2954689,-0.8750448,0.1259267,-0.6107264,31.71364,-21.26871,1008.125
21.298946857,-13.35058,-17.47348,-16.28844,0.32794,-0.8197635,0.01425558,-1.73851,32.11657,-20.81849,1008.125
21.333590031,-52.66605,-15.63875,-16.10458,0.3622446,-0.7622192,-0.05451604,-2.86103,31.76291,-19.91827,1008.125
21.365762234,-54.32467,-6.938553,-12.91765,0.4126976,-0.8894377,-0.02856165,-2.86103,31.76291,-19.91827,1008.125
21.400409698,8.887227,-11.0815,-13.10151,0.4758862,-1.167996,0.01819823,-3.599319,32.17183,-18.57742,1008.125
21.432582378,44.94688,-1.552716,3.139549,0.3548138,-0.79141,0.1207605,-3.582552,32.56921,-17.30419,1008.129
21.467229366,-10.03334,0.4595743,-6.482513,0.4697013,-1.024758,0.08402473,-3.582552,32.56921,-17.30419,1008.129
21.499401092,-22.8723,-8.240623,-8.014689,0.4123286,-0.9580314,0.0769162,-4.349676,31.80712,-18.12541,1008.129
21.534044266,-19.61649,-12.91624,-14.5724,0.4579016,-1.130086,-0.04976534,-5.111334,31.81217,-18.56783,1008.123
21.566216946,37.08378,-19.18985,-20.39467,0.4866715,-1.174365,0.143365,-5.111334,31.81217,-18.56783,1008.127
21.600864410,47.89553,-23.62873,-16.59487,0.4350129,-0.9110962,0.1985553,-5.473022,31.45265,-17.28894,1008.127
21.633036613,24.49055,-28.42271,-5.869643,0.4358015,-0.8633981,0.1531513,-6.24541,31.44714,-18.56016,1008.127
21.665209293,41.5682,-26.29205,0.07519802,0.417336,-0.8679584,-0.009629872,-6.24541,31.44714,-18.56016,1008.127
21.699856758,27.0092,-25.75938,-0.7828203,0.4338785,-0.7806345,0.05841561,-7.391042,31.07075,-19.44506,1008.126
21.732025146,-36.81701,-7.707958,-12.48864,0.3471924,-0.7451505,-0.05375287,-8.53616,31.45662,-20.33368,1008.124
21.766672134,-121.2838,5.667855,-15.43042,0.3574846,-0.8422089,-0.2339529,-8.53616,31.45662,-20.33368,1008.124
21.798844337,-145.856,22.4764,-6.482513,0.4233066,-0.9030343,-0.2114505,-8.908579,31.08653,-19.88361,1008.124
21.833491325,-121.6524,28.8092,-7.769541,0.4780266,-1.055534,-0.1881544,-9.612563,33.43361,-16.00189,1008.124
21.865664005,-53.71037,35.9114,-4.398755,0.5032393,-1.085789,-0.1929771,-9.612563,33.43361,-16.00189,1008.126
21.900310993,-14.02632,38.81146,-1.150542,0.5412319,-1.07931,-0.1465242,-8.809687,34.61176,-12.44109,1008.126
21.932479858,25.71916,47.03818,-4.582616,0.4731626,-1.048279,-0.1316552,-8.419677,35.38002,-11.55419,1008.124
21.967126846,50.6599,37.80532,-11.87577,0.3667377,-0.9125017,-0.02784093,-8.053036,35.74442,-12.45054,1008.124
21.999299526,68.90474,28.8092,-17.14646,0.358098,-0.8983034,-0.01752128,-8.053036,35.74442,-12.45054,1008.124
22.033946514,95.50411,17.68242,-17.26903,0.3945196,-0.8208297,-0.01818643,-8.459866,35.72136,-14.68001,1008.123
22.066118717,100.7871,19.28041,-14.63369,0.4612181,-0.7082614,0.08285712,-8.877115,34.9263,-17.67081,1008.123
22.100766182,65.03462,17.26812,-15.61428,0.4461712,-0.6927131,0.2012156,-8.877115,34.9263,-17.67081,1008.121
22.132934094,27.86922,12.53332,-13.59181,0.5016511,-0.7299158,0.2591951,-8.162455,33.73236,-20.79306,1008.119
22.167581558,2.498464,7.916886,-7.708254,0.534734,-0.7915482,0.2188544,-9.320158,32.58233,-22.5668,1008.119
22.199754238,-9.296175,1.406535,-2.927866,0.5142664,-0.895797,0.15649,-9.320158,32.58233,-22.5668,1008.119
22.231926441,-6.654668,-2.677232,1.913809,0.5006357,-0.8889288,0.1571558,-8.936697,32.20151,-22.12059,1008.119
22.266573906,-12.42913,-6.938553,5.59103,0.4924615,-0.8302652,0.1432557,-9.314636,32.20688,-22.11866,1008.117
22.298746109,-15.56208,-5.695667,9.513399,0.5174878,-0.8012485,0.1456714,-9.314636,32.20688,-22.11866,1008.117
22.333389759,-25.14522,-5.044632,14.17121,0.4951541,-0.7280145,0.1238296,-8.558758,32.19614,-22.12252,1008.117
22.365561485,-43.82007,-6.879368,22.2611,0.5098761,-0.7642426,0.09302757,-8.924626,32.97515,-21.23175,1008.117
22.400208473,-40.68712,-4.630337,31.57673,0.4553631,-0.8599974,0.04020888,-8.924626,32.97515,-21.23175,1008.117
22.432381153,-29.7525,-8.595733,36.72484,0.4472134,-0.8854523,0.06995904,-8.529352,32.98684,-19.89484,1008.117
22.467028141,-26.86527,-9.483508,34.39593,0.4137298,-0.8933348,0.09623446,-6.999489,34.12582,-18.56932,1008.121
22.499200821,-32.20972,-14.04075,31.94445,0.3726833,-0.9052704,0.09555507,-6.999489,34.12582,-18.56932,1008.117
22.533843994,-32.7626,-18.77555,30.47356,0.3460911,-0.9575463,0.0341583,-6.237316,34.88303,-18.13063,1008.119
22.566016674,-24.2852,-25.34509,29.61554,0.3647722,-0.9627955,-0.005101245,-5.081779,35.26917,-16.48068,1008.119
22.600663662,-26.98813,-31.08604,27.10278,0.4169647,-0.9558221,-0.01131476,-5.081779,35.26917,-16.48068,1008.123
22.632836342,-27.54101,-28.4819,17.0517,0.4532852,-1.073244,-0.04587966,-4.691769,36.03744,-15.59377,1008.119
22.667483807,-6.408947,-19.60414,4.549151,0.3750601,-1.094191,-0.1691963,-3.534838,36.04408,-13.81445,1008.117
22.699655533,13.0645,-14.09994,-6.359939,0.3055406,-1.084863,-0.2002827,-3.534838,36.04408,-13.81445,1008.117
22.734298706,26.70205,-12.56113,-16.41101,0.2857045,-1.031899,-0.2054449,-3.91252,36.43058,-13.81438,1008.117
22.766471386,23.50767,-9.779433,-21.74298,0.4311664,-1.008407,-0.2123926,-4.302015,36.42458,-14.705,1008.119
22.798644066,19.57612,4.66171,-26.89109,0.5275741,-1.009082,-0.2378797,-4.302015,36.42458,-14.705,1008.123
22.833291054,3.604211,17.80079,-32.77464,0.7854728,-0.9930714,-0.4503059,-5.063673,36.42963,-15.14742,1008.123
22.865489483,12.81877,40.88294,-39.5775,0.8773807,-1.150537,-0.3546158,-6.209305,36.05323,-16.03232,1008.121
22.900136948,25.35058,20.64166,-96.39058,0.7919191,-1.125136,-0.1998511,-6.602983,37.18576,-17.31105,1008.121
22.932305336,47.03551,75.97965,-113.4284,0.6337236,-1.061714,-0.00794433,-6.602983,37.18576,-17.31105,1008.121
22.966952324,67.92185,57.09963,-130.7726,0.4644088,-1.052189,0.04818002,-8.143063,36.79849,-19.4691,1008.123
22.999125004,84.13948,42.00745,-138.556,0.407488,-0.8859195,0.04670789,-10.82382,36.03969,-22.12953,1008.123
23.033772469,82.29657,35.31955,-136.1046,0.3099034,-0.7036746,0.07659486,-10.82382,36.03969,-22.12953,1008.121
23.065944672,62.20882,30.34801,-128.8727,0.2396454,-0.5960733,0.2005654,-14.65016,33.76191,-25.60552,1008.121
23.100592136,30.32644,27.15202,-111.4059,0.2858675,-0.5114325,0.3174758,-17.77886,29.95543,-28.63132,1008.121
23.132760525,7.84291,22.29885,-88.91357,0.4207931,-0.4882264,0.392564,-17.77886,29.95543,-28.63132,1008.121
23.167407990,6.982884,20.58248,-60.8441,0.4939144,-0.5921446,0.4334409,-20.06011,26.9272,-29.4974,1008.12
23.199579716,34.01226,14.13131,-40.19038,0.6307851,-0.5897105,0.4596578,-21.95662,25.42383,-29.92657,1008.12
23.234226704,51.70422,10.10673,-22.35585,0.7233306,-0.4289289,0.5353117,-21.95662,25.42383,-29.92657,1008.118
23.266399383,31.73934,0.1636492,-13.71438,0.8104807,-0.3846108,0.5478778,-21.9692,23.88792,-30.81168,1008.118
23.298572063,9.562962,-7.767143,-9.546865,0.8710635,-0.4022174,0.5066795,-22.36024,21.59512,-31.69115,1008.116
23.333215237,24.12197,-11.67335,-5.440634,0.8433372,-0.5015385,0.4492434,-22.36024,21.59512,-31.69115,1008.116
23.365387916,68.229,-25.34509,0.2590591,0.8497034,-0.5015123,0.3937543,-22.7387,20.83822,-31.68549,1008.114
23.400034904,79.10219,-23.21443,2.281531,0.7970946,-0.3271171,0.3788129,-23.87329,19.71093,-31.67411,1008.114
23.432207584,61.59452,-29.54723,2.281531,0.7280751,-0.2438318,0.3714676,-23.87329,19.71093,-31.67411,1008.113
23.466854572,31.8622,-34.93306,1.117077,0.7857006,-0.2299813,0.2534361,-24.25855,17.42381,-32.10729,1008.113
23.499026775,8.272923,-33.63099,3.384697,0.8416566,-0.2246058,0.2312684,-24.63803,15.14238,-32.09419,1008.113
23.533669948,-4.320313,-34.28203,2.587966,0.8006904,-0.2490038,0.1880695,-24.63803,15.14238,-32.09419,1008.109
23.565842152,-1.863096,-40.02298,-0.04737603,0.7728423,-0.244543,0.1821002,-26.13875,14.41296,-31.19017,1008.107
23.600489616,-6.470377,-56.59478,-2.192422,0.926715,-0.2558045,0.2056355,-26.88834,15.19164,-30.74375,1008.106
23.632662296,-3.767439,-61.27039,6.265187,1.272293,-0.3410699,0.19737,-26.88834,15.19164,-30.74375,1008.106
23.667309284,0.1026773,-37.30046,28.08337,1.162764,-0.3822748,0.1334644,-28.37775,14.09246,-28.94531,1008.106
23.699481964,-4.443173,-35.1698,34.64108,0.8833619,-0.4570163,0.08002537,-29.10505,14.89307,-26.77751,1008.104
23.734125137,-4.627464,-38.01068,33.23148,0.7279565,-0.529951,0.08906817,-29.10505,14.89307,-26.77751,1008.106
23.766297817,-1.678805,-44.28429,30.04455,0.8168235,-0.5375984,0.0987799,-30.22706,15.30168,-25.88101,1008.102
23.800944805,-0.08161395,-39.49031,22.32239,0.9044178,-0.5817784,0.09085034,-30.97061,16.46719,-24.99016,1008.102
23.833116531,24.24483,-35.64328,18.52259,0.9223503,-0.5839145,0.07716941,-30.97061,16.46719,-24.99016,1008.102
23.865289211,39.97101,-29.01456,13.55834,0.8877769,-0.5478908,0.06863102,-31.33622,17.62733,-24.10125,1008.102
23.899936676,44.57829,-26.35123,8.532806,0.8752342,-0.5051417,0.06524447,-32.08632,17.64375,-23.6511,1008.102
23.932105064,37.02235,-26.23286,5.345882,0.8672092,-0.4661687,0.07865464,-32.08632,17.64375,-23.6511,1008.102
23.966752052,12.81877,-25.99612,4.97816,0.894112,-0.4338454,0.07047609,-32.84246,17.27336,-23.64537,1008.106
23.998924732,-9.357606,-22.26747,5.652317,0.8963125,-0.4418124,0.04580791,-32.08132,16.50603,-23.19924,1008.106
24.033572197,-20.10793,-19.3674,5.713604,0.8968064,-0.4703027,0.002188467,-33.20466,16.15157,-22.36277,1008.104
24.065744400,-16.85212,-14.15912,5.836178,0.8907461,-0.4748116,-0.01996413,-33.20466,16.15157,-22.36277,1008.104
24.100391865,-12.55199,-7.412033,10.86171,0.8951163,-0.4555104,-0.03189578,-33.57104,16.1683,-21.46827,1008.103
24.132559776,-13.53487,-1.434346,17.97101,0.8761343,-0.4447321,-0.0311478,-33.57027,17.3117,-21.47386,1008.103
24.167207241,-11.38481,6.022965,24.77387,0.8532407,-0.5078901,-0.05362683,-33.57027,17.3117,-21.47386,1008.101
24.199379444,-0.7573485,9.692436,28.94139,0.8558176,-0.5604493,-0.06999016,-33.5582,18.08534,-20.58502,1008.101
24.234026432,7.290036,17.09056,32.31217,0.8994647,-0.4836189,-0.02349209,-32.42439,18.06923,-20.59082,1008.099
24.266199112,-1.125931,28.21735,40.52464,0.8646759,-0.41688,-0.01442328,-32.42439,18.06923,-20.59082,1008.099
24.300846100,-20.72223,37.0951,49.84026,0.8236526,-0.4017148,-0.02548346,-32.44094,19.19558,-21.93524,1008.101
24.333014965,-23.97804,43.42789,65.46844,0.7892643,-0.4065886,-0.05026674,-30.556,20.68759,-22.39864,1008.099
24.365187645,-8.866162,54.96897,84.28356,0.8004205,-0.5139835,-0.1225921,-30.556,20.68759,-22.39864,1008.099
24.399834633,64.05173,101.3108,108.0629,0.931937,-0.6633489,-0.776714,-29.80982,22.19083,-23.23875,1008.099
24.432007313,135.8639,160.555,149.3091,0.6750548,-0.5210907,-0.054965,-25.6851,25.14673,-25.95259,1008.099
24.466654301,182.4281,123.2093,175.1109,0.01520449,-0.1903648,0.2995122,-25.6851,25.14673,-25.95259,1008.101
24.498826027,158.1631,104.8619,188.2264,0.1359295,-0.4784392,0.3451748,-19.71787,25.36319,-32.16957,1008.101
24.533469677,244.5343,134.5728,207.1028,0.05195075,-0.7541425,0.4155034,-11.40449,22.89567,-37.04661,1008.101
24.565641880,360.0849,156.1162,199.1967,-0.001082752,-0.7703256,0.6746985,-11.40449,22.89567,-37.04661,1008.101
24.600289345,468.571,105.0987,128.2264,-0.1605991,-0.4826163,1.87922,-2.777182,18.89914,-41.91781,1008.101
24.632461548,177.9437,0.8738694,-27.07495,-1.693589,-0.483931,3.428199,6.261769,6.170148,-43.68794,1008.107
24.667109013,398.5403,-30.49419,-63.2343,0.5674466,0.3684596,0.2984842,6.261769,6.170148,-43.68794,1008.108
24.699281692,-52.29747,-55.94374,-66.66637,-0.2353754,0.9629668,0.5268123,10.42982,-12.2241,-41.83447,1008.11
24.733928680,-203.5391,-60.8561,-56.00243,0.1052463,0.07255143,0.841161,9.313918,-18.66533,-40.07566,1008.11
24.766097069,-75.45673,-21.26132,-15.0627,0.4106766,-0.3723358,0.8751312,9.313918,-18.66533,-40.07566,1008.112
24.800744533,23.87625,-4.689522,26.12218,0.2120361,-0.05857927,0.8366734,7.759078,-15.25832,-43.59116,1008.112
24.832916260,-33.13118,4.89845,30.90257,0.3152523,-0.008051781,0.783589,6.633866,-11.04407,-43.15955,1008.114
24.867563724,-93.27155,15.67012,42.42453,0.1332777,-0.09273376,0.8887007,6.633866,-11.04407,-43.15955,1008.115
24.899735928,-149.7261,4.957635,41.93423,0.02812982,-0.3719239,0.996794,7.006028,-11.05512,-43.60777,1008.115
24.931908607,-133.2013,-12.73868,31.02514,0.04996723,-0.8057562,0.9597558,6.251693,-8.757582,-43.61506,1008.114
24.966551781,-33.68405,-10.90395,14.96794,0.09838058,-0.794223,0.8499853,6.251693,-8.757582,-43.61506,1008.114
24.998724461,8.272923,-7.885513,2.833114,0.1036391,-0.5753298,0.7890808,6.627454,-3.432765,-44.08932,1008.115
25.033371449,3.112768,-1.730271,-0.9053944,0.1368611,-0.5067929,0.7604159,5.879157,-0.7484086,-43.65221,1008.115
25.065544128,2.989907,4.3066,-1.947274,0.09892181,-0.5712891,0.8065102,5.879157,-0.7484086,-43.65221,1008.115
25.100191593,38.1281,8.745476,-1.702126,0.1335957,-0.523155,0.9025013,5.111463,-1.130175,-44.53904,1008.115
25.132363319,41.93679,17.03138,-6.666374,0.1854604,-0.3975966,0.9160665,5.495692,-0.3675914,-44.09841,1008.119
25.167006493,23.26194,17.38649,-12.24349,0.1032029,-0.3809976,0.8755189,5.494407,-2.273259,-44.08911,1008.119
25.199179173,18.59323,12.00065,-4.337468,0.04616515,-0.3414926,0.8633628,5.494407,-2.273259,-44.08911,1008.119
25.233826160,-6.654668,5.72704,5.836178,0.07388691,-0.3054858,0.892803,6.633233,-3.42708,-43.64305,1008.119
25.265998840,-34.1755,8.686291,10.55528,0.1025142,-0.3957222,0.9168559,7.383077,-3.824635,-44.09133,1008.119
25.300645828,-21.21368,6.55563,12.02617,0.06793755,-0.5284296,0.9315085,7.383077,-3.824635,-44.09133,1008.119
25.332818508,-8.313289,1.34735,13.19062,0.03550105,-0.4491725,0.8659486,7.761273,-3.448871,-44.09513,1008.121
25.367461681,-6.96182,6.614815,14.41636,0.02875854,-0.4702969,0.8287234,7.384105,-2.300101,-44.09878,1008.119
25.399634361,7.351466,4.720895,18.40002,0.04122975,-0.5450267,0.8390769,7.384105,-2.300101,-44.09878,1008.121
25.434281349,-2.661691,12.94761,37.46029,0.01487723,-0.6145678,0.9308114,8.139985,-2.310838,-44.10265,1008.121
25.466453552,7.781479,10.40266,50.88214,-0.08947957,-0.6134608,0.8811844,8.145764,-2.305154,-43.65636,1008.121
25.498625755,-28.95391,1.58409,50.02412,-0.06181997,-0.4648017,0.7905719,8.145764,-2.305154,-43.65636,1008.119
25.533273220,-78.34396,-7.589588,40.03434,-0.01569894,-0.4536805,0.8148152,8.523189,-3.072789,-43.65458,1008.119
25.565441608,-113.7279,-17.82859,31.20901,-0.01789301,-0.5950558,0.7963182,8.90087,-3.459291,-43.65465,1008.119
25.600089073,-78.09824,-20.78784,26.85763,0.002699229,-0.7516714,0.767361,8.90087,-3.459291,-43.65465,1008.118
25.632261276,-25.39094,-23.86547,20.05477,0.06537199,-0.6178426,0.7273915,8.525247,-0.02372098,-43.66946,1008.118
25.666908741,-34.66694,-26.8839,6.326475,0.05153034,-0.4308699,0.731954,7.771983,3.861873,-43.68451,1008.119
25.699081421,-22.50371,-28.36353,-7.401819,0.102617,-0.5473199,0.7700413,7.771983,3.861873,-43.68451,1008.123
25.733728409,73.02058,-19.24903,-13.89824,0.2211012,-0.7067211,1.009585,6.626864,4.247743,-44.57314,1008.123
25.765896797,154.9073,5.01682,-5.685782,0.1167613,-0.3673247,1.146871,6.243663,5.009693,-45.0212,1008.125
25.800543308,-7.207542,6.259706,-16.22715,-0.07186132,0.09023795,1.069499,6.243663,5.009693,-45.0212,1008.125
25.832715988,-100.6432,0.1636492,-35.28741,-0.1694948,-0.1557795,0.9522201,4.718043,0.3834852,-45.81963,1008.125
25.867363453,-109.8578,-12.50194,-38.35176,-0.08688154,-0.5147933,1.026573,5.105685,-1.13586,-44.98532,1008.127
25.899535656,-90.56861,-24.75324,-47.54482,0.09992591,-0.6632213,0.9705867,5.105685,-1.13586,-44.98532,1008.125
25.934183121,-37.67703,-37.06372,-72.7338,0.5379035,-0.6877866,0.8366395,5.119855,2.750367,-44.11167,1008.127
25.966351509,-52.29747,-29.60641,-58.14747,0.2627533,-0.5609917,0.6108205,4.372329,6.578124,-43.68013,1008.127
25.998524189,-159.3092,-54.70086,-37.86147,0.2004041,-0.5767949,0.2835124,4.372329,6.578124,-43.68013,1008.127
26.065343857,19.69898,1.643275,-18.86249,0.3570044,-1.246204,0.3112364,0.2658472,13.54306,-40.12211,1008.123
26.099990845,60.12019,19.16204,-12.6725,0.2561817,-0.9149903,0.5226496,-1.2389,16.61847,-39.74673,1008.125
26.132163048,67.12326,21.94374,-11.63062,0.1920719,-0.8419319,0.6400119,-1.2389,16.61847,-39.74673,1008.125
26.166806221,70.56336,16.20279,6.265187,0.1408197,-0.7242565,0.6978543,-0.5000458,15.82923,-41.02197,1008.125
26.198978901,78.67218,6.674,8.165085,0.08024739,-0.7037016,0.6807549,-0.5134029,13.14992,-41.9015,1008.125
26.233625889,93.41547,2.945345,6.63291,0.2863239,-0.5793875,0.6952808,-0.5134029,13.14992,-41.9015,1008.127
26.265798569,61.71738,3.35964,5.529743,0.281588,-0.4878377,0.6681238,0.2291203,10.45988,-42.78491,1008.127
26.300445556,40.64675,13.12517,0.8719293,0.2370271,-0.6279543,0.6596725,-0.1621771,7.785947,-43.66251,1008.129
26.332618236,70.19478,20.16819,-1.395691,0.2553449,-0.6563362,0.7045755,-0.1621771,7.785947,-43.66251,1008.13
26.367261410,81.49798,23.36418,-2.866579,0.2235151,-0.4997147,0.7900317,0.2087002,5.869226,-44.10142,1008.13
26.399434090,59.81303,21.23351,-9.424291,0.2144806,-0.4487153,0.8517504,1.328904,2.792683,-44.98489,1008.13
26.434081077,78.3036,23.71929,-10.77261,0.1220739,-0.518051,0.8645729,1.328904,2.792683,-44.98489,1008.13
26.466253281,93.35404,9.869991,-12.73379,-0.04742956,-0.3792128,1.009971,2.466914,0.4319387,-44.53294,1008.129
26.500900745,81.49798,-2.677232,-22.04942,0.2443039,-0.2024166,1.087754,3.592639,-3.020053,-44.96828,1008.129
26.533072948,29.15926,-5.873222,-10.58874,0.2862554,-0.04358272,1.066982,3.592639,-3.020053,-44.96828,1008.129
26.565241337,-52.9732,-12.08765,-1.211829,0.1804146,-0.1081774,0.9305495,2.840222,-6.433833,-44.50138,1008.129
26.599888325,-78.58968,-7.471218,5.468456,0.3265013,-0.3783863,0.7915169,3.589295,-7.974789,-44.94409,1008.133
26.632061005,-56.41331,3.35964,13.49706,0.07114704,-0.4913249,0.7727246,3.589295,-7.974789,-44.94409,1008.133
26.666708469,-26.68098,5.549485,1.546087,0.3425105,-0.6120789,0.8352309,2.457536,-4.909615,-44.95317,1008.131
26.698880672,-8.681871,3.83312,-6.421227,0.1633558,-0.5730801,0.8675901,2.464599,-2.998263,-44.5162,1008.131
26.733528137,3.542781,-3.742562,-24.74605,0.260211,-0.6158655,0.8576576,2.464599,-2.998263,-44.5162,1008.129
26.765696526,36.03947,-5.458927,-21.49784,0.1790559,-0.5387476,0.8609786,2.459079,-2.622814,-44.96434,1008.129
26.800343990,32.90651,-14.75097,-27.68782,0.1605241,-0.575842,0.8222858,2.837018,-2.628183,-44.96627,1008.128
26.832515717,89.11535,-10.48965,-28.79099,0.1402458,-0.5769557,0.7906538,2.837018,-2.628183,-44.96627,1008.128
26.867162704,111.1074,-10.43047,-30.87475,0.1988059,-0.3593058,0.9177036,2.075929,-3.003452,-45.34307,1008.128
26.899335384,96.91701,-11.96928,-30.13931,0.2191796,-0.2464381,0.9647159,2.079082,-5.666513,-44.94752,1008.128
26.933982849,72.65199,-15.28364,-34.18425,0.3817132,-0.219207,1.01307,2.079082,-5.666513,-44.94752,1008.128
26.966151237,68.229,-14.45505,-22.78486,0.3068461,-0.2001625,0.9797035,2.076253,-9.858982,-44.92705,1008.128
27.000798225,68.72045,-4.452782,-26.95238,0.4321951,-0.2245025,0.9253131,1.713843,-12.50449,-43.57325,1008.128
27.032970905,86.53527,10.75777,-15.24656,0.3228442,-0.2408462,0.8124469,1.713843,-12.50449,-43.57325,1008.126
27.065143585,110.0631,25.61321,19.68704,0.3847381,-0.1557111,0.8776411,0.9559069,-15.54283,-43.5545,1008.126
27.099790573,74.49491,31.82763,94.51849,0.4063534,0.2536715,1.045176,1.34938,-18.19907,-42.20456,1008.126
27.131962776,-87.68138,39.4625,104.0793,0.3167532,0.3229578,1.034534,1.34938,-18.19907,-42.20456,1008.13
27.166605949,-253.7278,42.5993,83.79327,-0.09742935,-0.1745078,0.7099115,2.108979,-21.25319,-41.74726,1008.13
27.198778153,-209.0065,17.56404,55.47867,0.1552577,-0.5648977,0.5385274,0.945756,-22.02778,-43.96914,1008.13
27.233425617,-108.9977,43.30952,14.7228,0.1922171,-0.4510388,0.4099454,1.29577,-13.30037,-46.6278,1008.13
27.265598297,-12.3677,66.27331,-29.58772,0.02264002,-0.2643942,0.5234443,1.29577,-13.30037,-46.6278,1008.13
27.300245285,-15.50065,70.00196,-51.77362,0.05678821,0.1752494,0.657854,2.422406,-6.84858,-47.5578,1008.13
27.332417965,40.9539,112.4376,-33.4488,0.2947311,-0.3110236,1.450298,5.446435,-6.129261,-47.57699,1008.13
27.367270470,188.1412,14.54561,41.44394,-0.2573484,0.04412897,2.713504,5.446435,-6.129261,-47.57699,1008.13
27.399443149,-177.9227,-48.42725,-42.64186,-0.2625358,0.2294937,1.192444,9.981711,-6.193683,-47.6002,1008.131
27.434090137,-185.11,-48.48643,-26.89109,0.09937225,-0.06517836,0.7894704,10.73425,-11.15915,-47.57988,1008.131
27.466261864,-181.4856,-39.49031,-11.38548,0.08502998,-0.3223158,0.5426286,10.73425,-11.15915,-47.57988,1008.131
27.500909328,-119.8709,-19.07148,12.63904,0.3194904,-0.4093142,0.5527377,8.843659,-3.896461,-48.05184,1008.131
27.533082008,-140.7573,-7.589588,41.38265,0.290018,-0.5249171,0.5857995,7.732619,4.204025,-46.74658,1008.131
27.567725181,-186.2158,-14.45505,37.58286,0.1234477,-0.9090114,0.5200814,7.732619,4.204025,-46.74658,1008.131
27.599897385,-165.2066,-12.97542,25.50931,0.0164503,-1.360062,0.4330114,7.374017,8.418104,-45.49003,1008.131
27.632070064,-73.79811,-12.38357,3.568558,0.05736426,-1.115725,0.4216299,7.407023,14.54466,-43.2884,1008.131
27.666717529,-32.5783,-8.595733,-4.70519,0.06104168,-0.8776259,0.3956026,7.407023,14.54466,-43.2884,1008.131
27.698889732,-5.057477,-2.203751,1.178364,0.04866607,-0.8453634,0.417192,7.421666,19.12963,-42.41817,1008.131
27.733537197,28.91354,-1.552716,0.5042072,0.1012033,-0.9067433,0.4851217,6.678374,20.67628,-41.52918,1008.131
27.765705585,53.05569,-0.0139058,-2.498857,0.1128301,-0.9402825,0.5493246,6.678374,20.67628,-41.52918,1008.133
27.800353050,61.9631,3.655565,-1.579552,0.1237888,-0.8028742,0.6255471,7.044499,20.27841,-42.42181,1008.133
27.832524776,39.72529,3.35964,-0.1699501,0.1215432,-0.6731262,0.6439897,7.41011,19.11827,-43.31073,1008.133
27.867171764,9.501531,2.116755,2.158957,0.1069996,-0.6647454,0.6514245,7.41011,19.11827,-43.31073,1008.131
27.899344444,-18.75646,0.04527921,3.874994,0.1146286,-0.7137873,0.653841,7.402789,16.82578,-43.74585,1008.131
27.933991432,-33.49976,-0.724126,2.955688,0.08006318,-0.8198509,0.5988232,7.018813,16.44433,-44.18833,1008.131
27.966160297,-28.09388,-0.7833109,-0.108663,0.08577494,-0.8620443,0.5439561,7.018813,16.44433,-44.18833,1008.131
28.000807285,-5.42606,0.3412043,-1.334404,0.07869009,-0.870461,0.5179248,7.408824,17.2126,-43.30142,1008.131
28.032979965,11.09872,0.1044642,-2.43757,0.1011728,-0.8434982,0.5671012,7.415116,17.98055,-42.85886,1008.133
28.067626953,17.1189,1.406535,-1.885987,0.1108016,-0.806952,0.5918947,7.415116,17.98055,-42.85886,1008.133
28.099799633,8.088632,2.116755,-0.6602463,0.1048194,-0.7596853,0.6121022,7.0314,17.98023,-43.30322,1008.133
28.131972313,-6.101794,0.2228343,0.5654942,0.1048474,-0.7499886,0.6107359,6.647168,17.21765,-43.74384,1008.135
28.166615486,-14.88634,-0.07309081,1.607374,0.08629064,-0.8166034,0.5833678,6.647168,17.21765,-43.74384,1008.135
28.198787212,-15.0092,-0.724126,0.8106423,0.08785984,-0.8425903,0.550363,7.414344,16.83715,-42.85329,1008.133
28.233434677,-3.767439,0.1636492,0.5042072,0.1008747,-0.8539243,0.5366521,7.03692,17.60479,-42.85507,1008.135
28.265606880,7.90434,0.04527921,0.01391099,0.09481861,-0.8313868,0.5600305,7.03692,17.60479,-42.85507,1008.135
28.300254345,8.887227,-0.724126,-0.6602463,0.1034113,-0.8084304,0.5842395,7.0314,17.98023,-43.30322,1008.135
28.332427025,7.597188,-0.842496,-0.5989593,0.1083796,-0.7958015,0.5886353,7.409339,17.97486,-43.30515,1008.135
28.367070198,6.122858,0.3412043,0.01391099,0.1029411,-0.7982568,0.5814358,7.409081,17.59373,-43.30328,1008.135
28.399242401,6.307149,1.22898,1.178364,0.09548718,-0.8278401,0.5798154,7.409081,17.59373,-43.30328,1008.135
28.433889866,8.272923,1.9392,0.7493553,0.0906857,-0.8050167,0.5781204,6.653203,17.60447,-43.29942,1008.133
28.466062546,6.798593,1.46572,-0.2312371,0.0804363,-0.7668025,0.617573,7.0314,17.98023,-43.30322,1008.135
28.500709534,-5.610351,-2.322121,-2.682718,0.09303593,-0.7703308,0.6087504,7.0314,17.98023,-43.30322,1008.135
28.532881260,-6.470377,-1.671086,-2.069848,0.111693,-0.822508,0.5893481,6.652946,17.22334,-43.29755,1008.135
28.567525387,5.938567,1.051425,-1.395691,0.11188,-0.8880286,0.5271103,7.030885,17.21797,-43.29949,1008.135
28.599697113,48.20269,7.680146,-1.273116,0.09169424,-0.9108188,0.5169888,7.030885,17.21797,-43.29949,1008.135
28.634344578,67.799,12.47413,0.5654942,0.09374294,-0.7952423,0.5887764,7.403304,17.58805,-43.74957,1008.133
28.666516781,64.48175,9.929176,-0.6602463,0.1122262,-0.7301824,0.6662602,7.012778,16.05751,-44.63275,1008.137
28.698689461,50.35275,8.567921,-1.089255,0.07532735,-0.6428589,0.7627603,7.012778,16.05751,-44.63275,1008.137
28.733336925,11.95875,0.1044642,-1.702126,0.07059326,-0.5552133,0.795821,7.761905,13.37397,-45.00612,1008.137
28.765505314,-24.59235,-3.624192,-0.1699501,0.1199319,-0.5945433,0.7627424,7.755099,11.84375,-45.44495,1008.137
28.800152302,-46.58444,-2.558861,2.833114,0.111927,-0.6546089,0.710266,7.755099,11.84375,-45.44495,1008.137
28.832324982,-57.33476,-3.387452,4.671725,0.1014162,-0.7326143,0.658629,7.754842,11.46262,-45.4431,1008.136
28.866972446,-54.57039,-3.801747,4.058855,0.07867118,-0.8347688,0.6146191,7.760823,12.99202,-45.06801,1008.136
28.899144173,-39.39708,-4.985447,1.668661,0.0906793,-0.8707505,0.5510686,7.760823,12.99202,-45.06801,1008.136
28.933791161,-11.87625,-1.848641,0.5042072,0.09059947,-0.858734,0.5357444,7.77996,15.67701,-43.7422,1008.136
28.965960026,5.447124,-0.1322758,0.4429201,0.0939684,-0.8264319,0.5726112,8.158669,16.81504,-43.74971,1008.13
29.000607014,5.385693,-0.3690159,0.01391099,0.09061095,-0.7814272,0.6159115,8.158669,16.81504,-43.74971,1008.134
29.032779694,-2.170248,-0.6057559,-0.04737603,0.08775537,-0.7620041,0.6151343,7.402789,16.82578,-43.74585,1008.132
29.067426682,-8.006137,-0.842496,0.8106423,0.09291273,-0.7844664,0.600923,7.786508,16.8261,-43.3015,1008.132
29.099599361,-7.084681,-0.5465709,1.05579,0.08883961,-0.8068449,0.5916185,7.786508,16.8261,-43.3015,1008.128
29.134246826,-8.006137,-0.4873859,0.5042072,0.08488497,-0.8025196,0.583497,7.403047,17.20691,-43.7477,1008.13
29.166415215,-6.96182,-0.7833109,0.136485,0.09255259,-0.8128409,0.5717725,7.403304,17.58805,-43.74957,1008.13
29.198587894,-3.091704,-0.7833109,-0.108663,0.09446218,-0.8211098,0.5707225,7.403304,17.58805,-43.74957,1008.128
29.233234882,1.454146,-0.3690159,-0.04737603,0.09754173,-0.8108315,0.5837924,7.78728,17.9695,-43.30708,1008.128
29.265406608,1.085564,0.1636492,0.3203461,0.09616876,-0.8005866,0.5896737,7.787023,17.58837,-43.30522,1008.128
29.300054073,-1.00307,0.6963143,0.5654942,0.09865122,-0.8010436,0.5949488,7.787023,17.58837,-43.30522,1008.128
29.332226753,-3.583147,-0.07309081,0.3816331,0.08737971,-0.8048998,0.5911661,7.409596,18.356,-43.30701,1008.128
29.366869926,-4.258882,-0.724126,0.01391099,0.08670742,-0.8152198,0.5742174,7.793057,17.97518,-42.8608,1008.128
29.399042129,-0.5730572,-0.5465709,-0.3538111,0.09491753,-0.8192077,0.5659139,7.414859,17.59942,-42.85701,1008.128
29.433689594,3.235628,-0.3098308,-0.4150982,0.0964807,-0.8147725,0.5755759,7.414859,17.59942,-42.85701,1008.128
29.465862274,2.314172,0.1044642,-0.1699501,0.09420084,-0.8034928,0.5891861,8.171254,18.35095,-42.86459,1008.128
29.500509262,-2.661691,-0.4873859,0.6267812,0.091785,-0.7947544,0.5878347,7.787023,17.58837,-43.30522,1008.126
29.532681942,-4.627464,-0.960866,0.4429201,0.09110308,-0.8152383,0.5746582,7.787023,17.58837,-43.30522,1008.128
29.567325115,-0.6344877,-1.138421,-0.1699501,0.09492967,-0.8182294,0.5668858,7.7928,17.59405,-42.85894,1008.126
29.599497795,3.542781,-0.07309081,-0.5376722,0.09740805,-0.8186902,0.5716789,7.787538,18.35063,-43.30894,1008.126
29.634144783,3.727072,0.04527921,-0.2312371,0.0956929,-0.7986388,0.5901763,7.787538,18.35063,-43.30894,1008.126
29.666316509,-0.6344877,0.04527921,0.01391099,0.09670727,-0.7961909,0.5935609,7.409339,17.97486,-43.30515,1008.126
29.700963974,-3.398856,0.04527921,0.3816331,0.09265185,-0.8074314,0.5809741,7.409081,17.59373,-43.30328,1008.128
29.733136177,-2.723122,0.04527921,0.07519802,0.08964729,-0.8142564,0.5751619,7.409081,17.59373,-43.30328,1008.128
29.765305042,-0.5730572,0.1636492,0.07519802,0.08366227,-0.823049,0.5640593,7.403562,17.96918,-43.75143,1008.128
29.799952030,1.454146,0.4595743,0.01391099,0.09354085,-0.815736,0.5746313,7.409339,17.97486,-43.30515,1008.128
29.832124710,1.761298,0.2228343,-0.2312371,0.09662446,-0.8054541,0.5881834,7.409339,17.97486,-43.30515,1008.128
29.866771698,-0.5730572,0.5187593,0.6880682,0.09035379,-0.7976187,0.5931264,7.781503,17.96381,-43.75336,1008.126
29.898944378,-2.354539,-0.07309081,0.3203461,0.08923417,-0.8078995,0.5810021,7.409339,17.97486,-43.30515,1008.128
29.933591843,-1.125931,-0.07309081,0.07519802,0.08812468,-0.8176875,0.5698458,7.409339,17.97486,-43.30515,1008.126
29.965760231,1.392716,0.2228343,-0.04737603,0.09548658,-0.8162349,0.5741271,7.409339,17.97486,-43.30515,1008.126
30.000407219,1.94559,-0.0139058,-0.04737603,0.09265792,-0.8069423,0.5814601,7.78728,17.9695,-43.30708,1008.13
30.032579422,1.392716,0.1044642,0.01391099,0.08974435,-0.805464,0.5824635,7.78728,17.9695,-43.30708,1008.13
30.067226410,-0.1430444,-0.07309081,0.136485,0.09416447,-0.8073944,0.5867443,7.409339,17.97486,-43.30515,1008.132
30.099399090,-0.8802093,-0.0139058,0.136485,0.0907041,-0.8074179,0.5814744,7.409596,18.356,-43.30701,1008.13
30.134046078,-0.08161395,0.2820193,-0.04737603,0.0892122,-0.8151731,0.5819064,7.409596,18.356,-43.30701,1008.132
30.166214943,0.8398423,0.1044642,-0.1699501,0.09114751,-0.8103622,0.57759,7.415374,18.36168,-42.86073,1008.132
30.200861931,-0.6959181,-0.1322758,-0.04737603,0.09222479,-0.8064064,0.5877346,7.409081,17.59373,-43.30328,1008.132
30.233034611,-1.310222,-0.0139058,0.1977721,0.09557166,-0.8113219,0.5818788,7.409081,17.59373,-43.30328,1008.136
30.267681598,-0.6344877,-0.1322758,0.01391099,0.0920851,-0.8157212,0.5756091,8.164962,17.583,-43.30715,1008.136
30.299854278,0.1641077,-0.0139058,-0.04737603,0.09158692,-0.8142774,0.5736976,7.0314,17.98023,-43.30322,1008.132
30.332026958,0.5326902,-0.07309081,-0.2312371,0.08629245,-0.8122497,0.5814757,7.0314,17.98023,-43.30322,1008.132
30.366670132,0.5941206,-0.07309081,-0.04737603,0.09068193,-0.810823,0.5804825,7.793315,18.35632,-42.86266,1008.137
30.398841858,0.5941206,-0.07309081,0.01391099,0.09763683,-0.8034915,0.591564,7.415116,17.98055,-42.85886,1008.136
30.433489323,0.1026773,0.3412043,0.4429201,0.09123469,-0.8068979,0.5862938,7.7928,17.59405,-42.85894,1008.137
30.465661526,-1.985957,0.1636492,0.136485,0.08922826,-0.8112899,0.5819383,7.7928,17.59405,-42.85894,1008.139
30.500308990,-0.8187789,-0.07309081,-0.2925241,0.09008874,-0.8186533,0.5717475,7.409339,17.97486,-43.30515,1008.139
30.532481670,1.085564,-0.1914608,-0.4150982,0.09253047,-0.8172131,0.5712547,7.409339,17.97486,-43.30515,1008.139
30.567124843,2.682755,0.1044642,-0.108663,0.09355298,-0.8147578,0.5756033,7.409339,17.97486,-43.30515,1008.139
30.599297047,2.252742,0.1636492,0.01391099,0.09275097,-0.7991205,0.5887537,7.03692,17.60479,-42.85507,1008.141
30.633944511,-0.1430444,0.1044642,-0.04737603,0.09029897,-0.7981522,0.5868565,7.787023,17.58837,-43.30522,1008.141
30.666117191,-1.678805,-0.0139058,-0.108663,0.09162334,-0.8113428,0.5766134,7.787023,17.58837,-43.30522,1008.141
30.700764179,-0.08161395,0.04527921,-0.1699501,0.0862501,-0.8185745,0.579496,7.403304,17.58805,-43.74957,1008.141
30.732936859,1.146994,0.1636492,0.01391099,0.09411367,-0.8069571,0.5804824,8.159184,17.57731,-43.75343,1008.141
30.767580032,-0.6344877,-0.1322758,-0.2925241,0.09026049,-0.8006051,0.5834627,8.159184,17.57731,-43.75343,1008.139
30.799751759,-1.678805,0.04527921,-0.108663,0.0950491,-0.8099002,0.5770754,7.403819,18.35031,-43.75329,1008.136
30.831924438,0.1641077,0.1044642,-0.2925241,0.09456134,-0.8137661,0.5789761,7.414601,17.21828,-42.85514,1008.136
30.866571426,1.208425,0.1636492,-0.108663,0.09455928,-0.8132845,0.578498,7.414601,17.21828,-42.85514,1008.136
30.898744106,0.2869685,0.1636492,-0.04737603,0.09018585,-0.8108279,0.5795231,7.78728,17.9695,-43.30708,1008.134
30.933391571,-0.3273356,-0.1322758,-0.1699501,0.09416829,-0.8025553,0.5848562,7.414859,17.59942,-42.85701,1008.132
30.965559959,0.04124688,0.4003893,0.01391099,0.09408361,-0.8152051,0.5808967,7.414859,17.59942,-42.85701,1008.132
31.000206947,0.1641077,0.3412043,0.01391099,0.09164952,-0.8069668,0.5776133,7.787023,17.58837,-43.30522,1008.13
31.032379627,-1.00307,0.04527921,-0.108663,0.08680434,-0.803526,0.5800969,7.409339,17.97486,-43.30515,1008.13
31.067026615,-0.8802093,-0.6057559,-0.4763852,0.09057283,-0.8225279,0.5731571,7.409339,17.97486,-43.30515,1008.13
31.099199295,2.129881,-0.1914608,-0.4763852,0.09204868,-0.8186557,0.5726932,7.403304,17.58805,-43.74957,1008.129
31.133846760,2.744185,0.1044642,-0.108663,0.09364999,-0.8049982,0.5824309,7.408566,16.83146,-43.29956,1008.129
31.166015148,1.146994,0.04527921,-0.04737603,0.09082349,-0.7981215,0.5911899,7.408566,16.83146,-43.29956,1008.129
31.200662136,-1.00307,0.1636492,0.07519802,0.09367824,-0.8011039,0.5839087,7.78728,17.9695,-43.30708,1008.133
31.232834339,-1.248792,-0.07309081,0.01391099,0.09556338,-0.808428,0.5794927,7.415116,17.98055,-42.85886,1008.133
31.267481327,-0.3273356,0.04527921,-0.04737603,0.08869174,-0.8152001,0.578055,7.415116,17.98055,-42.85886,1008.133
31.299654007,0.4712598,0.04527921,-0.04737603,0.09118001,-0.8103327,0.5814459,7.787023,17.58837,-43.30522,1008.133
31.334300995,-0.08161395,0.1044642,0.01391099,0.09756561,-0.8011384,0.5819442,7.78728,17.9695,-43.30708,1008.133
31.366469860,-1.310222,-0.07309081,0.136485,0.09459159,-0.8093865,0.5804579,7.78728,17.9695,-43.30708,1008.133
31.398642063,-0.6959181,-0.07309081,-0.108663,0.08873011,-0.8108131,0.5805008,8.170482,17.20755,-42.85901,1008.133
31.433289528,0.7784118,0.1044642,0.07519802,0.09165784,-0.8108279,0.5804734,7.02588,18.35568,-43.75135,1008.133
31.465462208,-0.388766,-0.0139058,0.1977721,0.09706566,-0.8050154,0.5823989,7.02588,18.35568,-43.75135,1008.133
31.500109196,-1.125931,-0.07309081,0.136485,0.09219415,-0.8030493,0.5824605,7.414859,17.59942,-42.85701,1008.134
31.532281876,-0.6959181,0.2228343,0.3203461,0.09258945,-0.8186103,0.5789545,7.415116,17.98055,-42.85886,1008.134
31.566925049,-1.125931,0.4003893,0.3203461,0.09361622,-0.8200196,0.5856813,7.787023,17.58837,-43.30522,1008.134
31.599096775,-1.617374,0.3412043,1.239651,0.09136905,-0.7724424,0.5856125,7.787023,17.58837,-43.30522,1008.134
31.633744717,-0.388766,-0.5465709,-0.6602463,0.08097228,-0.8242688,0.5929943,7.7928,17.59405,-42.85894,1008.136
31.665916443,-0.8802093,-0.1322758,0.3203461,0.1063102,-0.8007342,0.5770459,7.414859,17.59942,-42.85701,1008.138
31.700563908,1.638438,-0.3690159,0.3816331,0.09269223,-0.802559,0.5834239,7.414859,17.59942,-42.85701,1008.136
31.732736587,-1.310222,-0.1914608,0.3816331,0.08976075,-0.8083504,0.5858135,7.415116,17.98055,-42.85886,1008.137
31.767379761,-1.371653,0.04527921,0.5042072,0.09160332,-0.8171638,0.5770477,7.420896,17.98623,-42.41258,1008.137
31.799551964,-1.863096,-0.07309081,0.07519802,0.09114522,-0.805045,0.5747418,7.420896,17.98623,-42.41258,1008.137
31.834199429,-1.00307,0.04527921,0.01391099,0.0895867,-0.8210815,0.5712503,7.415374,18.36168,-42.86073,1008.141
31.866372108,-0.1430444,-0.07309081,-0.2312371,0.08819566,-0.815205,0.5770957,7.037435,18.36705,-42.8588,1008.141
31.898544311,0.4712598,0.04527921,-0.2925241,0.09508766,-0.8093815,0.5814173,7.037435,18.36705,-42.8588,1008.141
31.933191776,-0.5730572,0.04527921,-0.04737603,0.09410383,-0.8132524,0.5823586,7.415374,18.36168,-42.86073,1008.14
31.965360165,-0.6344877,-0.1322758,-0.04737603,0.09302024,-0.8128618,0.5693579,6.659495,18.37242,-42.85686,1008.14
32.000007629,0.348399,-0.0139058,0.01391099,0.09402272,-0.8162276,0.5741408,6.659495,18.37242,-42.85686,1008.14
32.032179356,-0.02018354,-0.1322758,0.01391099,0.09455728,-0.8137698,0.5784941,7.409596,18.356,-43.30701,1008.141
32.066826344,0.5326902,-0.3098308,0.136485,0.08921812,-0.8117827,0.5809703,7.415116,17.98055,-42.85886,1008.141
32.098999023,-0.6959181,0.1636492,0.07519802,0.09103049,-0.8259429,0.5711967,7.415116,17.98055,-42.85886,1008.14
32.133646488,2.621324,-0.1322758,0.9332163,0.1069714,-0.7734993,0.5844943,7.409339,17.97486,-43.30515,1008.14
32.165814877,-9.541897,-0.4873859,-0.8441073,0.08367682,-0.8293222,0.5688274,7.415374,18.36168,-42.86073,1008.144
32.200461865,-4.934617,-0.07309081,0.3816331,0.09045052,-0.8139349,0.554431,7.415374,18.36168,-42.86073,1008.144
32.232634544,-0.3273356,-0.664941,-0.1699501,0.08992302,-0.8352453,0.5600443,7.7928,17.59405,-42.85894,1008.142
32.267282009,2.375603,-0.1914608,0.07519802,0.09348817,-0.8186853,0.5697876,7.793057,17.97518,-42.8608,1008.142
32.299454212,2.498464,0.04527921,-0.1699501,0.09452086,-0.8167043,0.5755783,7.793057,17.97518,-42.8608,1008.142
32.334101677,0.1641077,0.04527921,0.01391099,0.09456315,-0.8094123,0.577084,7.415631,18.74282,-42.86259,1008.142
32.366270065,0.04124688,0.2228343,0.136485,0.09600078,-0.8128285,0.5755964,7.409596,18.356,-43.30701,1008.142
32.400917053,-0.9416397,-0.07309081,0.1977721,0.08764079,-0.8176813,0.5703323,7.409596,18.356,-43.30701,1008.14
32.433089733,1.024133,-0.1322758,-0.04737603,0.08659592,-0.8196734,0.5630957,7.031657,18.36137,-43.30507,1008.138
32.465261936,1.392716,0.1636492,-0.108663,0.08817124,-0.8142601,0.5737296,7.781503,17.96381,-43.75336,1008.138
32.499908924,-0.2044748,0.04527921,0.01391099,0.0955531,-0.8060194,0.5771027,7.781503,17.96381,-43.75336,1008.138
32.532081604,-0.8802093,-0.2506458,-0.108663,0.08375126,-0.815231,0.5708709,7.415116,17.98055,-42.85886,1008.142
32.566724777,1.208425,-0.3098308,-0.3538111,0.09049965,-0.8216273,0.5640072,7.031142,17.5991,-43.30135,1008.141
32.598897457,1.761298,-0.1322758,-0.1699501,0.09355082,-0.8123419,0.5741773,8.165477,18.34526,-43.31087,1008.142
32.633544445,0.04124688,-0.07309081,0.2590591,0.09262121,-0.8040742,0.5757001,8.165477,18.34526,-43.31087,1008.144
32.665717125,-0.388766,-0.07309081,-0.1699501,0.09307922,-0.8142589,0.5770579,7.793315,18.35632,-42.86266,1008.144
32.700364113,0.655551,-0.1914608,-0.04737603,0.0905766,-0.8167216,0.5707949,7.037177,17.98592,-42.85693,1008.144
32.732536793,0.4098293,0.4595743,0.01391099,0.09352473,-0.818652,0.5741255,7.037177,17.98592,-42.85693,1008.144
32.767179966,-1.617374,0.2820193,0.2590591,0.08966936,-0.8089171,0.5752057,6.647941,18.36105,-43.74942,1008.146
32.799352646,-1.985957,-0.1914608,-0.2312371,0.09640165,-0.8182294,0.5678361,7.793572,18.73745,-42.86452,1008.146
32.833999634,0.5326902,-0.07309081,-0.3538111,0.09399258,-0.8225414,0.5736071,7.793572,18.73745,-42.86452,1008.146
32.866172314,1.638438,-0.0139058,-0.1699501,0.09595437,-0.8191572,0.5731347,7.043214,18.37274,-42.41251,1008.146
32.900819302,1.577007,-0.0139058,0.01391099,0.09452669,-0.8113797,0.5736941,7.043214,18.37274,-42.41251,1008.146
32.932991505,0.1641077,-0.1914608,0.3203461,0.09312347,-0.8055144,0.5780935,7.043214,18.37274,-42.41251,1008.146
32.967634678,-1.00307,-0.1322758,0.2590591,0.08962271,-0.8104102,0.5703738,6.653461,17.9856,-43.30128,1008.148
32.999806881,-0.1430444,-0.0139058,0.1977721,0.09345371,-0.8201674,0.5664017,7.799352,18.74314,-42.41824,1008.146
33.031979561,1.331286,0.04527921,-0.108663,0.09299199,-0.8167561,0.5678801,7.799352,18.74314,-42.41824,1008.146
33.066627026,1.454146,0.1636492,-0.1699501,0.09214163,-0.8088999,0.5790387,7.0314,17.98023,-43.30322,1008.146
33.098799229,-0.5730572,-0.1914608,0.01391099,0.09456114,-0.8098977,0.57708,7.025622,17.97455,-43.7495,1008.146
33.133446693,-0.6959181,0.04527921,0.01391099,0.08865107,-0.81427,0.5727611,7.025622,17.97455,-43.7495,1008.144
33.165615082,0.9012727,0.04527921,-0.2312371,0.09155241,-0.8147923,0.5698377,7.415116,17.98055,-42.85886,1008.144
33.200262547,0.7784118,0.1044642,-0.108663,0.08870784,-0.8122841,0.5785609,7.7928,17.59405,-42.85894,1008.142
33.232434750,-0.08161395,0.1044642,-0.04737603,0.09265998,-0.807424,0.5819381,7.7928,17.59405,-42.85894,1008.142
33.267082214,-0.3273356,-0.0139058,0.01391099,0.08618525,-0.8215349,0.5732062,7.409596,18.356,-43.30701,1008.142
33.299254894,-0.08161395,-0.2506458,-0.04737603,0.09495007,-0.8201452,0.5702438,7.409596,18.356,-43.30701,1008.142
33.333901882,0.7169814,0.2228343,-0.04737603,0.09495389,-0.815306,0.5683557,7.409596,18.356,-43.30701,1008.142
33.366104603,0.7784118,0.3412043,0.07519802,0.09173263,-0.8035063,0.585835,7.793315,18.35632,-42.86266,1008.141
33.400751591,-1.617374,0.04527921,0.01391099,0.08770125,-0.8079549,0.572822,7.415116,17.98055,-42.85886,1008.141
33.432924270,-0.3273356,-0.4282009,-0.4150982,0.0949261,-0.8279041,0.5711442,7.415116,17.98055,-42.85886,1008.141
33.467571258,2.191311,-0.0139058,-0.3538111,0.09293526,-0.8197091,0.5625543,7.415116,17.98055,-42.85886,1008.145
33.499743938,2.621324,0.04527921,0.07519802,0.09407505,-0.8065086,0.5756665,7.415374,18.36168,-42.86073,1008.145
33.531916618,0.655551,0.04527921,-0.04737603,0.09267202,-0.8045116,0.581962,7.415374,18.36168,-42.86073,1008.137
33.566559791,-0.8802093,0.1636492,0.3816331,0.09410206,-0.8185733,0.5847247,8.170997,17.96981,-42.86273,1008.141
33.598731995,-1.125931,0.3412043,0.07519802,0.09013946,-0.8171564,0.5770614,7.415374,18.36168,-42.86073,1008.141
33.633379459,-0.2659052,-0.1914608,0.01391099,0.09104228,-0.818195,0.5688504,7.793315,18.35632,-42.86266,1008.143
33.665552139,0.9627031,-0.1322758,-0.04737603,0.0911111,-0.8132967,0.5746741,7.793315,18.35632,-42.86266,1008.141
33.700199127,-0.1430444,0.04527921,0.07519802,0.09364578,-0.8021007,0.5805268,7.793572,18.73745,-42.86452,1008.141
33.732370853,-1.310222,-0.3690159,0.01391099,0.09749331,-0.8176455,0.5813268,7.415116,17.98055,-42.85886,1008.14
33.767014980,0.04124688,-0.07309081,-0.1699501,0.09054817,-0.8167475,0.5674209,7.415116,17.98055,-42.85886,1008.14
33.799186706,0.5941206,0.1636492,-0.108663,0.09066549,-0.8069693,0.5766584,7.420896,17.98623,-42.41258,1008.141
33.833834171,-0.8802093,-0.3098308,0.2590591,0.08825845,-0.811763,0.5829074,7.793572,18.73745,-42.86452,1008.141
33.866006374,-0.9416397,-0.1322758,0.136485,0.08718525,-0.8157151,0.5732449,7.793572,18.73745,-42.86452,1008.141
33.900653839,-0.2044748,0.04527921,0.07519802,0.09201632,-0.8215865,0.5702593,7.78728,17.9695,-43.30708,1008.141
33.932826519,0.7784118,0.3412043,-0.04737603,0.08964719,-0.8123223,0.5742138,7.793057,17.97518,-42.8608,1008.141
33.967469692,-0.5730572,0.04527921,0.2590591,0.08831876,-0.7991353,0.583975,7.793057,17.97518,-42.8608,1008.141
33.999641895,-2.41597,-0.2506458,-0.04737603,0.08915346,-0.8186114,0.5765765,7.415374,18.36168,-42.86073,1008.145
34.034289360,-0.1430444,-0.3098308,-0.2312371,0.09584312,-0.8284461,0.5643831,7.78728,17.9695,-43.30708,1008.145
34.066462040,1.454146,0.1044642,0.3203461,0.0934475,-0.8177552,0.5644936,7.78728,17.9695,-43.30708,1008.145
34.098634243,0.4712598,0.1044642,0.5654942,0.09211099,-0.8055427,0.5737647,7.415631,18.74282,-42.86259,1008.145
34.133281708,-1.617374,-0.1914608,0.2590591,0.08873217,-0.8112948,0.5809788,7.793057,17.97518,-42.8608,1008.145
34.165450096,-1.555944,-0.07309081,0.01391099,0.09248,-0.8235455,0.5683109,7.793057,17.97518,-42.8608,1008.145
34.200097561,-0.08161395,-0.07309081,0.01391099,0.09199783,-0.8172513,0.5659572,7.421153,18.36737,-42.41444,1008.143
34.232269287,0.9012727,0.04527921,0.01391099,0.09056422,-0.8128643,0.5674528,7.409596,18.356,-43.30701,1008.14
34.266916275,0.4098293,0.1044642,-0.2312371,0.09067366,-0.807929,0.5780964,7.409596,18.356,-43.30701,1008.143
34.299088955,-1.371653,0.04527921,0.07519802,0.09404485,-0.8118553,0.5746586,7.793315,18.35632,-42.86266,1008.143
34.333736420,-1.00307,-0.07309081,0.07519802,0.08809233,-0.8206183,0.567412,7.793315,18.35632,-42.86266,1008.143
34.365904808,0.9012727,-0.1322758,-0.04737603,0.09438298,-0.8216654,0.5615606,7.793315,18.35632,-42.86266,1008.143
34.400551796,0.9012727,0.1636492,0.1977721,0.09159274,-0.8089528,0.5718135,7.031657,18.36137,-43.30507,1008.143
34.432724476,-0.388766,-0.0139058,0.1977721,0.08816707,-0.8123296,0.5722996,7.409854,18.73713,-43.30887,1008.143
34.467371940,0.4712598,-0.3098308,-0.3538111,0.09060298,-0.816214,0.5736908,7.409854,18.73713,-43.30887,1008.143
34.499544144,1.822729,-0.0139058,-0.4150982,0.09102838,-0.8244941,0.5702446,7.793057,17.97518,-42.8608,1008.143
34.534191608,1.392716,0.2228343,-0.2312371,0.0979874,-0.818126,0.5822822,7.409339,17.97486,-43.30515,1008.145
34.566359997,-1.064501,0.2820193,0.3816331,0.0888187,-0.7952583,0.5835202,7.409339,17.97486,-43.30515,1008.145
34.598532677,-3.95173,-0.0139058,0.5654942,0.09356502,-0.8118454,0.5756272,7.78728,17.9695,-43.30708,1008.145
34.633179665,-1.924526,0.1636492,0.3816331,0.08601125,-0.835233,0.5591169,7.409339,17.97486,-43.30515,1008.143
34.665352344,2.498464,-0.07309081,-0.108663,0.09041473,-0.8294417,0.5576776,7.409339,17.97486,-43.30515,1008.143
34.699999332,4.464237,0.1044642,-0.108663,0.09512599,-0.8040274,0.583389,7.793315,18.35632,-42.86266,1008.145
34.732171535,-0.2044748,-0.1322758,0.07519802,0.09133752,-0.7918138,0.5912371,7.415116,17.98055,-42.85886,1008.145
34.766814709,-4.01316,0.04527921,0.5042072,0.09458576,-0.814711,0.5823421,7.409339,17.97486,-43.30515,1008.145
34.798987389,-1.678805,0.04527921,0.7493553,0.09287682,-0.82895,0.5600687,7.409339,17.97486,-43.30515,1008.145
34.833634376,1.208425,0.1044642,0.3816331,0.08959854,-0.8143008,0.569378,7.415116,17.98055,-42.85886,1008.145
34.865807056,1.699868,-0.0139058,-0.108663,0.08779067,-0.8088408,0.5838999,6.659495,18.37242,-42.85686,1008.145
34.900454044,-1.310222,0.04527921,-0.04737603,0.0920644,-0.8080029,0.5694069,6.659495,18.37242,-42.85686,1008.145
34.932626724,-1.371653,-0.0139058,0.07519802,0.090042,-0.8182122,0.5659676,7.415116,17.98055,-42.85886,1008.147
34.967269897,0.5326902,-0.0139058,-0.04737603,0.0939175,-0.8240604,0.5654012,7.031657,18.36137,-43.30507,1008.145
34.999442577,1.085564,0.2228343,0.07519802,0.09159073,-0.8094382,0.5718095,7.031657,18.36137,-43.30507,1008.149
35.034089565,-0.5116268,0.04527921,0.07519802,0.09019981,-0.805496,0.5786029,7.037435,18.36705,-42.8588,1008.149
35.066262245,-1.433083,-0.1322758,0.1977721,0.08620127,-0.8166847,0.572764,7.409339,17.97486,-43.30515,1008.149
35.100909233,-0.5730572,-0.07309081,-0.04737603,0.08809865,-0.8249646,0.570268,7.409339,17.97486,-43.30515,1008.147
35.133081913,0.1026773,-0.07309081,-0.1699501,0.0871733,-0.8205616,0.574169,7.415374,18.36168,-42.86073,1008.147
35.165250301,0.7169814,0.4003893,0.3203461,0.09066353,-0.8084219,0.5771285,7.0314,17.98023,-43.30322,1008.149
35.199897766,-1.187361,0.04527921,0.136485,0.08862463,-0.8138104,0.5693911,7.0314,17.98023,-43.30322,1008.149
35.232069492,0.2869685,-0.2506458,-0.2312371,0.09250027,-0.8225599,0.5702468,7.415374,18.36168,-42.86073,1008.149
35.266716957,1.331286,0.04527921,-0.2312371,0.09152598,-0.8143328,0.5664678,7.421153,18.36737,-42.41444,1008.149
35.298889160,0.8398423,-0.0139058,-0.04737603,0.09062295,-0.8094259,0.5727826,7.421153,18.36737,-42.41444,1008.145
35.333536625,-0.3273356,0.1044642,0.136485,0.08823389,-0.8079167,0.5781193,7.0314,17.98023,-43.30322,1008.145
35.365705013,-0.6344877,0.04527921,-0.04737603,0.08715676,-0.8147739,0.5693969,7.787538,18.35063,-43.30894,1008.145
35.400352478,-0.4501964,-0.1914608,0.136485,0.08564635,-0.8181938,0.5655267,7.787538,18.35063,-43.30894,1008.145
35.432524681,0.8398423,-0.07309081,-0.1699501,0.09105246,-0.8186693,0.5702924,7.793315,18.35632,-42.86266,1008.147
35.467172146,2.00702,0.1636492,-0.4150982,0.09311372,-0.8137439,0.5809178,6.665017,17.99697,-42.40872,1008.151
35.499344826,0.1026773,-0.0139058,-0.108663,0.0921965,-0.8093335,0.5857827,6.665017,17.99697,-42.40872,1008.151
35.533991814,-0.8187789,0.1044642,-0.1699501,0.0964643,-0.8118861,0.5722258,7.415374,18.36168,-42.86073,1008.151
35.566160202,0.1026773,0.1636492,-0.04737603,0.09491944,-0.8167881,0.5649698,7.799094,18.362,-42.41638,1008.151
35.600807667,0.2869685,0.4003893,-0.108663,0.0891958,-0.8122866,0.5785563,7.799094,18.362,-42.41638,1008.151
35.632979870,0.1026773,0.2228343,-0.108663,0.09309115,-0.8094123,0.5761337,7.408824,17.2126,-43.30142,1008.149
35.667627335,-0.5116268,0.1044642,-0.04737603,0.08421092,-0.8181605,0.5689144,7.78728,17.9695,-43.30708,1008.147
35.699800014,0.7169814,-0.3098308,-0.4150982,0.08960059,-0.8147824,0.569856,7.787538,18.35063,-43.30894,1008.146
35.731971741,1.699868,0.1044642,-0.3538111,0.09409159,-0.8122965,0.5804386,7.787538,18.35063,-43.30894,1008.146
35.766615391,1.94559,0.4003893,-0.2312371,0.09458531,-0.8060071,0.5780758,7.415374,18.36168,-42.86073,1008.146
35.798787594,-0.6959181,-0.07309081,-0.1699501,0.0858507,-0.8020502,0.5820459,7.793057,17.97518,-42.8608,1008.144
35.833434582,-1.125931,-0.1914608,-0.3538111,0.09250218,-0.8201403,0.5693028,7.793057,17.97518,-42.8608,1008.144
35.865607262,1.331286,0.1044642,-0.3538111,0.08756982,-0.8201637,0.5630826,7.415116,17.98055,-42.85886,1008.142
35.900254250,2.559894,0.2820193,-0.108663,0.09451655,-0.8118725,0.5727261,7.409339,17.97486,-43.30515,1008.14
35.932426929,1.208425,0.2228343,0.136485,0.0921637,-0.8035605,0.5790825,7.409339,17.97486,-43.30515,1008.14
35.967070103,-0.3273356,0.04527921,-0.04737603,0.08967543,-0.808428,0.5756917,7.414859,17.59942,-42.85701,1008.14
35.999242783,0.1641077,0.1636492,-0.04737603,0.08967763,-0.811811,0.5775918,7.403819,18.35031,-43.75329,1008.139
36.033889771,0.9627031,-0.0139058,-0.2925241,0.09206469,-0.8138055,0.572251,7.403819,18.35031,-43.75329,1008.139
36.066062450,1.822729,0.2228343,-0.4763852,0.08826658,-0.8117556,0.5838714,7.7928,17.59405,-42.85894,1008.143
36.100709915,1.208425,0.04527921,-0.4763852,0.09900745,-0.8074523,0.5823607,7.7928,17.59405,-42.85894,1008.14
36.132882118,-0.2044748,-0.07309081,-0.04737603,0.09357095,-0.808455,0.5746911,7.7928,17.59405,-42.85894,1008.14
36.167525291,0.1641077,0.1044642,-0.1699501,0.09208104,-0.8157249,0.5751271,7.798837,17.98087,-42.41452,1008.145
36.199697971,0.8398423,0.1636492,-0.108663,0.09509163,-0.8074437,0.5809513,7.037435,18.36705,-42.8588,1008.146
36.231870651,-0.6344877,-0.5465709,-0.5376722,0.08343775,-0.8102341,0.589231,7.037435,18.36705,-42.8588,1008.145
36.266517639,-6.593238,-4.867077,-5.747069,0.04744647,-0.8404102,0.618238,7.415374,18.36168,-42.86073,1008.145
