Time (s),Gyroscope X (deg/s),Gyroscope Y (deg/s),Gyroscope Z (deg/s),Accelerometer X (g),Accelerometer Y (g),Accelerometer Z (g),Magnetometer X (uT),Magnetometer Y (uT),Magnetometer Z (uT),Barometer (hPa)
0.000674725,-0.287866,0.02666957,0.0021429,0.00897874,-0.2399608,0.9768527,-10.32991,25.55092,-41.78357,1008.385
0.035319805,-0.4099256,0.02608865,0.002268295,0.007939789,-0.2385626,0.96868,-10.33016,25.16979,-41.78171,1008.385
0.067494392,-0.5317891,-0.03318404,-0.1812943,0.007500585,-0.2385157,0.9744684,-10.70785,25.55629,-41.78163,1008.385
0.102143765,-0.5296862,-0.0327972,-0.1195958,0.003611293,-0.2409009,0.9773771,-10.71362,25.55061,-42.22791,1008.385
0.134317398,0.02442145,-0.09184846,0.0645797,0.007431964,-0.2472824,0.9705408,-10.71362,25.55061,-42.22791,1008.385
0.168966770,0.146385,0.02672065,0.003354975,0.004086717,-0.2341448,0.9726083,-10.7081,25.17516,-41.77977,1008.383
0.201141357,0.02296615,-0.150795,0.003418314,0.005998056,-0.2370929,0.9691922,-10.70759,25.93743,-41.78349,1008.381
0.235786438,0.08431488,-0.09167193,-0.1806115,0.007500438,-0.2356145,0.9730463,-10.70759,25.93743,-41.78349,1008.378
0.267960548,-0.03846591,0.02688632,-0.05785879,0.005979799,-0.237593,0.9672602,-10.70733,26.31856,-41.78535,1008.378
0.302609444,0.02313329,0.08586042,0.0647194,-0.0003494602,-0.2360974,0.9682956,-10.71337,25.93174,-42.22977,1008.38
0.334784031,-0.345235,-0.09165464,0.06464776,0.01045058,-0.2370596,0.9763809,-10.71337,25.93174,-42.22977,1008.38
0.369433403,-0.2203963,0.1451907,0.00323074,0.01034921,-0.2410203,0.9662272,-11.09182,25.17484,-42.22412,1008.38
0.401607513,0.1481013,0.1443203,-0.1191064,0.004095185,-0.240907,0.9768904,-10.7194,25.54492,-42.67419,1008.378
0.433777809,-0.4053179,0.1439363,-0.1183519,0.002626965,-0.2351008,0.973578,-10.7194,25.54492,-42.67419,1008.378
0.468427181,-0.5259376,-0.3292846,-0.1795807,0.0005903752,-0.2458066,0.9686888,-11.08553,25.94279,-41.78156,1008.378
0.500600815,-0.1569069,-0.3280168,-0.0562939,0.01185977,-0.2405017,0.9715194,-10.70785,25.55629,-41.78163,1008.38
0.535250187,-0.4627918,-0.2087456,0.06641196,0.006004614,-0.2462747,0.9744183,-10.70785,25.55629,-41.78163,1008.38
0.567424774,0.1530511,0.08760317,0.0662565,0.008403614,-0.2434227,0.9681536,-10.71337,25.93174,-42.22977,1008.378
0.602073669,0.2743923,0.264402,-0.0560126,0.006048567,-0.2317276,0.9726099,-10.71337,25.93174,-42.22977,1008.378
0.634243965,-0.646062,0.02743837,-0.1783584,0.008486724,-0.2399621,0.9763753,-10.71337,25.93174,-42.22977,1008.378
0.668892860,-0.5820851,-0.2093662,0.06691919,0.002588593,-0.2394878,0.9711323,-10.33016,25.16979,-41.78171,1008.378
0.701067448,0.2176302,0.08637293,0.06666569,0.007895395,-0.2444058,0.9662222,-11.07975,25.94848,-41.33528,1008.378
0.735716820,0.5837733,0.1448074,-0.1171419,0.004560624,-0.237545,0.9725758,-11.07975,25.94848,-41.33528,1008.378
0.767890453,-0.2163337,-0.0921513,0.1280029,-0.001266487,-0.2355554,0.9750566,-10.70836,24.79402,-41.77791,1008.378
0.802539825,-0.1533184,-0.2683924,0.06667313,0.008403515,-0.2414885,0.9672055,-11.08579,25.56166,-41.7797,1008.378
0.834710598,0.09233443,0.1463839,0.06667052,0.009446284,-0.2380476,0.9734901,-11.08579,25.56166,-41.7797,1008.38
0.869359493,-0.03054617,0.08683471,0.005417688,0.0104102,-0.241932,0.9739311,-11.46347,25.94816,-41.77962,1008.379
0.901533604,-0.153167,0.2048135,-0.05575697,0.005501977,-0.2370978,0.9682328,-10.70759,25.93743,-41.78349,1008.379
0.936182499,-0.3982734,-0.09145324,0.006024677,0.008474389,-0.2370719,0.9735072,-10.70759,25.93743,-41.78349,1008.377
0.968357086,-0.5805748,-0.150284,0.1289392,0.005069283,-0.2452657,0.9787735,-10.33568,25.54524,-42.22985,1008.377
1.000531673,-0.02645297,-0.1500428,-0.1164653,0.005022539,-0.2448247,0.9729935,-11.09105,26.31824,-42.22971,1008.375
1.035176277,0.2184213,0.08666908,0.1287519,0.003613005,-0.2346129,0.9745368,-11.09105,26.31824,-42.22971,1008.375
1.067350864,0.09495928,-0.09073818,0.006133485,0.007986435,-0.2370694,0.9735118,-10.70759,25.93743,-41.78349,1008.375
1.102000237,0.09533214,0.02769585,0.06737456,0.007498628,-0.2399682,0.9749385,-10.33491,26.68864,-42.23543,1008.379
1.134174824,0.03416824,0.08652688,-0.1777213,0.005032378,-0.2385293,0.9711174,-10.33491,26.68864,-42.23543,1008.379
1.168823719,0.03388371,0.1454805,0.006400962,0.01188194,-0.2370965,0.9725112,-10.32965,25.93206,-41.78543,1008.377
1.200997829,-0.08919203,-0.03225949,0.1901205,0.009448192,-0.235628,0.972546,-10.32939,26.31319,-41.78729,1008.377
1.235642910,-0.5180615,-0.2092087,0.006097663,0.004556708,-0.24045,0.9735159,-11.08579,25.56166,-41.7797,1008.376
1.267817497,-0.08653463,-0.03137669,0.0672828,0.006453853,-0.2438945,0.9686499,-11.08579,25.56166,-41.7797,1008.374
1.302466869,0.3422202,0.2637767,-0.05506715,0.007004604,-0.2404549,0.974457,-10.33491,26.68864,-42.23543,1008.374
1.334640503,-0.5790113,-0.1510364,0.1293067,0.00160451,-0.2385232,0.9697034,-10.71311,26.31287,-42.23164,1008.374
1.369289875,0.09872411,-0.2091126,-0.1771765,0.007927798,-0.242442,0.9691301,-10.71311,26.31287,-42.23164,1008.372
1.401464462,0.2204888,-0.08987197,-0.05393793,0.01289265,-0.242389,0.9792062,-11.09156,25.55597,-42.22598,1008.37
1.436109543,-0.1478473,-0.2078105,0.007566495,0.008925781,-0.2371076,0.9691648,-10.70759,25.93743,-41.78349,1008.372
1.468283176,0.2214529,0.02903366,-0.05369389,0.01130892,-0.2420071,0.9647642,-10.70759,25.93743,-41.78349,1008.372
1.500457764,0.2815951,0.2648757,0.06911809,0.006982237,-0.2399916,0.9715692,-11.09156,25.55597,-42.22598,1008.372
1.535107136,0.2803401,0.2043982,0.007450969,0.004113295,-0.2375056,0.9774004,-11.09105,26.31824,-42.22971,1008.371
1.567280769,0.1567029,0.2035095,0.3138363,0.000162771,-0.2341436,0.9702349,-11.09105,26.31824,-42.22971,1008.371
1.601930141,0.4016786,0.1436354,0.06827157,0.002554429,-0.2467724,0.9705905,-10.32991,25.55092,-41.78357,1008.369
1.634100914,0.8899428,0.02477272,0.007109659,0.006571176,-0.2341164,0.9778873,-9.945675,26.31351,-41.34294,1008.371
1.668749809,0.2117479,-0.0935199,-0.1766867,0.01038935,-0.2313124,0.9663068,-9.945675,26.31351,-41.34294,1008.37
1.700923920,-0.09536153,-0.09297134,0.1910253,0.01137382,-0.2400138,0.971528,-10.70702,25.5571,-41.71788,1008.37
1.735573292,-0.156123,0.2624164,-0.1155178,0.006051015,-0.2399461,0.9768801,-9.95171,25.92669,-41.78736,1008.368
1.767747402,0.3964038,0.4393099,-0.1154121,0.004544424,-0.2385269,0.971122,-9.95171,25.92669,-41.78736,1008.368
1.802396774,0.210007,0.02379199,-0.1153859,0.001693591,-0.2326394,0.9774631,-11.4695,25.56134,-42.22404,1008.368
1.834566593,-0.2811549,-0.03534147,-0.1765099,0.007022616,-0.2351192,0.9740189,-11.09022,26.31905,-42.16595,1008.368
1.869215965,0.08864188,-0.2127597,-0.1763503,0.008476543,-0.2394878,0.9749333,-11.09022,26.31905,-42.16595,1008.368
1.901390552,0.2727061,0.02408651,0.007672329,0.007008667,-0.2404512,0.9749391,-11.08553,25.94279,-41.78156,1008.366
1.936039448,0.70025,0.08266452,0.1299823,0.005034385,-0.2380439,0.9711214,-11.09734,25.55029,-42.67226,1008.366
1.968213558,0.328775,0.1412342,0.007128038,0.007522512,-0.2302752,0.9730901,-11.09734,25.55029,-42.67226,1008.364
2.000388145,-0.1019036,-0.09569173,0.1295961,0.008433666,-0.2351746,0.9677393,-9.951967,25.54556,-41.7855,1008.366
2.035033226,0.2052716,0.2000407,-0.1772156,0.00845623,-0.2395062,0.9725233,-10.70785,25.55629,-41.78163,1008.366
2.067207336,0.3886294,0.1404116,0.06790525,0.009910058,-0.2419406,0.9724897,-10.70785,25.55629,-41.78163,1008.364
2.101856232,0.2030948,0.3766095,-0.1160041,0.007018504,-0.2341558,0.9730628,-10.33042,24.78865,-41.77985,1008.364
2.134030819,0.01822623,0.1391138,0.06775322,0.0006367266,-0.2385109,0.9706764,-10.71337,25.93174,-42.22977,1008.368
2.168680191,-0.04309146,0.08007892,0.006495452,0.004522153,-0.2399978,0.969182,-10.70759,25.93743,-41.78349,1008.368
2.200853825,0.3254736,0.3169007,0.006314954,0.002167547,-0.2370067,0.9779046,-10.70759,25.93743,-41.78349,1008.368
2.235499382,0.2015115,0.07949363,0.06726696,0.003141497,-0.2384641,0.9783655,-10.70785,25.55629,-41.78163,1008.368
2.267673969,-0.2286485,0.07935502,0.06705044,0.007435487,-0.2366407,0.9658085,-10.71388,25.16947,-42.22606,1008.366
2.302322864,0.6303579,0.1967271,-0.1167203,0.004141537,-0.2336114,0.9788783,-10.71388,25.16947,-42.22606,1008.365
2.334496975,-0.04692478,0.1369076,0.06742439,0.003645408,-0.2326492,0.9774448,-11.09156,25.55597,-42.22598,1008.363
2.369145870,-0.3526953,-0.04022741,0.006129633,0.004062684,-0.2409366,0.9730345,-10.33594,25.1641,-42.22799,1008.363
2.401320457,-0.1676218,-0.09882179,0.006200771,0.006988158,-0.2366013,0.9706329,-10.33594,25.1641,-42.22799,1008.363
2.435966015,-0.0442179,0.01987076,0.006115641,0.009981128,-0.2413924,0.9806876,-10.70785,25.55629,-41.78163,1008.363
2.468140602,0.262594,0.1973075,0.005937068,0.01287014,-0.2390245,0.9748961,-11.09022,26.31905,-42.16595,1008.367
2.502789497,0.2603242,0.3148298,0.06708266,0.006574993,-0.2292773,0.9759992,-11.09022,26.31905,-42.16595,1008.365
2.534963608,-0.5374818,-0.1000059,0.2509006,0.00305829,-0.2399904,0.9691957,-10.70759,25.93743,-41.78349,1008.363
2.567138195,-0.7192546,-0.04076579,0.005710096,0.003572529,-0.2375512,0.9711391,-10.32965,25.93206,-41.78543,1008.363
2.601787090,0.4482473,0.01839369,0.005396847,0.006943716,-0.2414774,0.9677013,-10.32965,25.93206,-41.78543,1008.362
2.633956909,0.6294203,-0.04138612,-0.2396771,0.006566966,-0.2312189,0.9759833,-11.07918,25.56816,-41.26966,1008.36
2.668606281,-0.660702,-0.4555545,0.18925,0.002671703,-0.2360272,0.979354,-11.08496,25.56247,-41.71594,1008.36
2.700780868,-0.04476456,-0.2175516,0.06648112,0.009895816,-0.24147,0.9705657,-11.08496,25.56247,-41.71594,1008.362
2.735430241,0.01630379,-0.09900659,-0.05596193,0.009974569,-0.2322106,0.9754614,-10.32965,25.93206,-41.78543,1008.358
2.767603874,-0.3507648,0.01935865,-0.1171746,0.00600021,-0.2395087,0.9706182,-10.33568,25.54524,-42.22985,1008.358
2.802253246,0.08015112,-0.03985574,-0.2395991,0.00994016,-0.2346597,0.9725494,-10.33568,25.54524,-42.22985,1008.36
2.834423542,-0.165685,0.07821313,0.06708228,0.008466069,-0.2332109,0.9706471,-11.08579,25.56166,-41.7797,1008.358
2.869072914,-0.3488441,0.01894487,0.005808289,0.006510384,-0.2370731,0.9720796,-10.32991,25.55092,-41.78357,1008.36
2.901246548,0.08181973,-0.03998308,0.005861349,0.0084623,-0.2390172,0.9730093,-10.32991,25.55092,-41.78357,1008.364
2.935895920,0.08120988,-0.0399374,-0.05547062,0.0002055494,-0.2365225,0.976481,-10.70785,25.55629,-41.78163,1008.364
2.968070507,-0.04209743,-0.2169955,-0.1168583,0.006937499,-0.2390652,0.9657931,-10.71254,25.93255,-42.16602,1008.362
3.002719879,0.1427058,-0.09793314,0.06692012,0.00504476,-0.2423866,0.9744594,-10.71254,25.93255,-42.16602,1008.36
3.034889698,0.2646382,-0.03911016,-0.05563838,0.00948686,-0.2370436,0.977836,-10.7081,25.17516,-41.77977,1008.36
3.067064285,-0.1042326,-0.1575433,0.06681656,0.009474134,-0.2264166,0.9711758,-11.4695,25.56134,-42.22404,1008.359
3.101713181,-0.1645888,-0.09816799,-0.1170687,0.005485824,-0.2390467,0.9672528,-11.4695,25.56134,-42.22404,1008.359
3.133887768,-0.2866053,0.0204907,-0.1169375,0.005569081,-0.2384875,0.9768966,-10.7128,25.55142,-42.16416,1008.359
3.168536663,-0.5306834,0.07975279,0.005630941,0.006939604,-0.240514,0.9667452,-9.950884,25.9275,-41.72361,1008.364
3.200711250,0.3285957,0.1975193,-0.05554452,0.003121381,-0.2423509,0.9778516,-9.950884,25.9275,-41.72361,1008.363
3.235356331,-0.2256811,-0.03995745,0.06738884,-0.0002523521,-0.228272,0.9760712,-10.33594,25.1641,-42.22799,1008.364
3.267530918,-0.5307947,-0.5125318,0.1287663,0.00164724,-0.239935,0.9754754,-10.33543,25.92637,-42.23171,1008.364
3.302179813,-0.2831675,-0.4515794,-0.1771383,0.008984368,-0.2307679,0.9730724,-10.70759,25.93743,-41.78349,1008.364
3.334353924,-0.5888763,-0.09514859,0.06821264,0.0113657,-0.2400212,0.9705639,-10.70759,25.93743,-41.78349,1008.364
3.369003296,0.1492353,0.08254546,0.1292195,0.009889698,-0.240992,0.9696057,-10.70181,25.94311,-41.33722,1008.364
3.401177406,0.5159182,0.1412083,-0.2998357,0.007571361,-0.232165,0.9798222,-10.33486,25.54605,-42.16609,1008.364
3.435822964,-0.7118707,0.08190508,-0.1154466,0.003133127,-0.233636,0.9750314,-10.33486,25.54605,-42.16609,1008.363
3.467996597,-0.5244272,-0.03605638,0.007232752,0.00499787,-0.2390443,0.9672574,-10.32882,25.93287,-41.72167,1008.363
3.502645969,0.02988065,0.02332365,0.1296595,0.001596728,-0.2453002,0.9720576,-11.09734,25.55029,-42.67226,1008.364
3.534820557,1.009697,0.1411714,0.06836303,0.0080391,-0.2341201,0.9783556,-11.09734,25.55029,-42.67226,1008.363
3.566994190,0.1467892,-0.09593967,0.06831481,0.00415578,-0.234082,0.9808022,-10.3346,25.92718,-42.16795,1008.361
3.601643562,-0.404725,-0.3313486,-0.1768831,0.003602825,-0.2341386,0.9730949,-9.95171,25.92669,-41.78736,1008.359
3.633813858,-0.2192657,-0.09375913,0.06852478,0.01089796,-0.2380661,0.9720305,-9.95171,25.92669,-41.78736,1008.359
3.668463230,0.2725616,0.08352056,-0.05438841,0.01135151,-0.2405177,0.969114,-10.70759,25.93743,-41.78349,1008.359
3.700637340,0.5777927,0.3190849,0.007062648,0.006081313,-0.2365336,0.9788361,-10.70759,25.93743,-41.78349,1008.359
3.735286236,0.02321204,0.08140864,0.00703191,0.005542601,-0.2370608,0.9730527,-10.70759,25.93743,-41.78349,1008.359
3.767460823,-0.09953134,-0.2145141,-0.1153211,0.006982089,-0.2370904,0.970147,-11.08527,26.32393,-41.78342,1008.359
3.802110195,-0.1596965,-0.1549442,0.1913318,0.006004223,-0.2385379,0.9706261,-10.70759,25.93743,-41.78349,1008.357
3.834280491,0.454256,-0.09588879,0.1297645,0.00988774,-0.2424445,0.9700757,-10.70759,25.93743,-41.78349,1008.357
3.868929863,0.819881,0.02184433,0.007120565,0.004066503,-0.2360974,0.9711465,-10.71337,25.93174,-42.22977,1008.356
3.901103973,0.3874897,0.08056901,0.006880211,0.003606887,-0.2341349,0.9735769,-10.70785,25.55629,-41.78163,1008.356
3.935752869,0.07965806,0.08047525,0.1292702,0.009984897,-0.2355862,0.9783254,-10.70785,25.55629,-41.78163,1008.36
3.967927456,0.01817266,0.1984984,0.1292433,0.007040971,-0.2365533,0.9768988,-10.70759,25.93743,-41.78349,1008.358
4.002576828,0.3246856,-0.03855613,0.06790797,0.004056175,-0.2327218,0.9682823,-10.70785,25.55629,-41.78163,1008.358
4.034746647,-1.271033,0.5528941,0.3128556,0.007943754,-0.2366247,0.9682139,-10.70785,25.55629,-41.78163,1008.358
4.069396019,-0.345773,0.5506532,-0.05579693,0.005518374,-0.2399843,0.9715829,-10.33568,25.54524,-42.22985,1008.356
4.101570606,-1.26686,-0.1010853,0.1276952,0.0050685,-0.2297922,0.9711891,-9.957488,25.921,-42.23364,1008.358
4.133744240,1.31676,-0.5151359,0.6785847,-0.01171926,-0.2328268,1.007471,-9.957488,25.921,-42.23364,1008.354
4.168393612,1.623598,1.201473,-0.1189592,0.01631675,-0.2482015,0.9829823,-10.7081,25.17516,-41.77977,1008.354
4.200568199,0.2721289,-0.4557072,0.1261889,0.01734253,-0.2302689,0.9802286,-10.33517,26.3075,-42.23357,1008.354
4.235213280,-0.2193144,-0.5148922,-0.2415333,0.005963647,-0.239542,0.9662803,-10.71337,25.93174,-42.22977,1008.358
4.267386913,-0.465036,-0.1005972,-0.1802462,0.01046463,-0.2336618,0.9764088,-10.71337,25.93174,-42.22977,1008.358
4.302036285,-0.2193144,0.07695788,0.06490185,0.01373088,-0.2512234,0.9670755,-10.70733,26.31856,-41.78535,1008.358
4.334210872,1.86932,0.7871781,0.003614825,0.006012348,-0.2385305,0.9715902,-10.70733,26.31856,-41.78535,1008.357
4.368884086,0.7021418,0.1953279,0.003614825,0.003169151,-0.2229647,0.974155,-10.70733,26.31856,-41.78535,1008.357
4.401058674,-0.5878968,-0.1005972,0.06490185,0.002605039,-0.2433414,0.9749563,-10.33543,25.92637,-42.23171,1008.355
4.435703754,0.02640729,-0.1005972,-0.1189592,0.008381441,-0.2468278,0.9671617,-11.46925,25.94248,-42.22591,1008.355
4.467877865,1.500737,0.2545129,-0.1802462,0.005994091,-0.2390307,0.9696583,-11.46925,25.94248,-42.22591,1008.353
4.502526760,-0.5878968,-0.3965222,0.1874759,0.001727952,-0.2292231,0.979901,-10.33543,25.92637,-42.23171,1008.353
4.534701347,-1.202201,0.01777287,0.6164851,6.360654E-05,-0.2414873,0.9619813,-10.71337,25.93174,-42.22977,1008.353
4.569350719,2.852206,1.201473,0.3100499,0.007430496,-0.2584059,0.9757512,-10.71337,25.93174,-42.22977,1008.351
4.601525307,3.159359,0.3136979,-0.3028203,0.01201087,-0.2157022,0.9775064,-10.70207,25.56198,-41.33535,1008.351
4.633695125,-2.000796,-0.8108172,-0.4253944,0.008582607,-0.2079593,0.9723003,-10.70785,25.55629,-41.78163,1008.349
4.668344498,-4.642304,-0.8108172,-0.0576722,0.003131513,-0.2418581,0.9788197,-10.70785,25.55629,-41.78163,1008.354
4.700519085,-1.140771,0.1361429,0.003614825,0.007762411,-0.2658037,0.9607451,-10.33016,25.16979,-41.78171,1008.348
4.735167980,3.589371,0.8463631,0.003614825,0.006419297,-0.2434424,0.964316,-10.70785,25.55629,-41.78163,1008.348
4.767342091,1.255016,0.1953279,0.2487629,-0.003530493,-0.2165241,0.9868026,-10.70785,25.55629,-41.78163,1008.348
4.801990986,-2.307948,-0.5148922,-0.0576722,-0.002305684,-0.2293217,0.9645137,-10.32939,26.31319,-41.78729,1008.348
4.834161758,-1.509353,-0.3965222,0.003614825,0.007355119,-0.2541223,0.9647012,-10.33568,25.54524,-42.22985,1008.352
4.868844032,0.9478635,0.01777287,-0.0576722,0.01090858,-0.2472442,0.9777386,-10.33568,25.54524,-42.22985,1008.352
4.901018620,1.255016,0.3136979,-0.1189592,0.007016448,-0.2336742,0.9725848,-10.33568,25.54524,-42.22985,1008.352
4.935667992,0.02640729,0.1361429,0.1261889,0.00361046,-0.2244603,0.9693186,-10.32991,25.55092,-41.78357,1008.352
4.967842102,-1.01791,-0.2189672,-0.0576722,0.008492499,-0.2336704,0.9740171,-10.32991,25.55092,-41.78357,1008.352
5.002490997,-1.386492,-0.04141214,0.1874759,0.008415458,-0.2366419,0.9662813,-10.32991,25.55092,-41.78357,1008.352
5.034661770,-10.53962,-2.467998,1.658365,0.007262998,-0.07350069,1.098741,-9.957488,25.921,-42.23364,1008.354
5.069310665,-87.75765,0.9647331,0.4939111,0.04359727,0.1547297,1.072809,-9.957488,25.921,-42.23364,1008.354
5.101484776,-229.8462,-7.972204,-10.35389,-0.1256059,-0.2034899,1.087823,-11.45743,26.33498,-41.33521,1008.354
5.133659363,-291.0923,-42.18114,-30.21089,-0.1365882,-0.7877,1.166977,-11.03224,27.89962,-37.77434,1008.355
5.168308258,-309.3986,-72.7206,-86.77881,-0.04270553,-1.133151,1.182051,-11.03224,27.89962,-37.77434,1008.354
5.200482369,-427.5907,-81.59836,-172.6419,0.1065914,-1.658627,0.7352966,-10.91783,34.86804,-29.3285,1008.355
5.235127449,-335.1994,-57.62843,-231.9065,0.3819488,-1.962255,0.3740264,-14.8974,41.64043,-15.95075,1008.355
5.267302036,-227.2047,-14.77848,-264.5725,0.2214988,-1.536234,0.06380809,-14.8974,41.64043,-15.95075,1008.355
5.301951408,-73.19865,37.95536,-263.4693,0.3428771,-1.310089,-0.1779059,-21.93798,43.46684,-0.3013077,1008.354
5.334125995,27.05579,68.02135,-261.8145,0.429585,-0.861055,-0.239601,-30.17669,36.35947,6.024828,1008.354
5.368774891,41.18478,91.99129,-251.3345,0.4721255,-0.5586237,-0.1435148,-37.06585,27.67387,4.763916,1008.351
5.400949001,31.66307,101.5201,-233.1322,0.4785137,-0.2415805,-0.001180822,-37.06585,27.67387,4.763916,1008.347
5.435594082,-1.570783,114.0081,-201.0178,0.5808927,-0.09037703,-0.02836356,-41.26959,18.86354,1.704332,1008.347
5.467768669,-31.24167,129.5146,-165.2262,0.6877005,0.3098016,-0.05546305,-44.36232,10.45902,-3.148347,1008.345
5.502418041,-79.34168,181.3607,-111.9678,0.7006249,0.1612387,-0.3040741,-44.36232,10.45902,-3.148347,1008.344
5.534591675,-70.24998,248.8908,-51.78392,0.7095981,0.404044,-0.2828762,-45.19294,2.397731,-8.460771,1008.34
5.569241047,-144.8879,302.8675,-23.22417,0.1346067,-0.1276786,0.1340711,-43.79936,-1.612298,-17.3752,1008.338
5.601415634,766.1251,100.0996,-239.1996,-1.38626,-0.921561,-4.915903,-43.79936,-1.612298,-17.3752,1008.336
5.636060715,-259.8242,73.70312,-31.31405,-0.1213111,-0.5566406,0.5498522,-38.9673,-2.14281,-23.64641,1008.336
5.668234825,176.2703,6.173014,-2.386579,0.6497925,0.9700125,1.445014,-38.60849,-4.833168,-24.97416,1008.336
5.700409412,13.90968,-46.91594,46.33661,0.3280279,0.1681314,1.231736,-38.60849,-4.833168,-24.97416,1008.335
5.735058308,157.9026,-64.02041,123.2518,0.09722913,-0.03495238,0.8683054,-37.84812,-6.743887,-24.52244,1008.339
5.767232895,386.3623,-54.01815,176.2038,0.359685,0.03356173,0.4176798,-39.33022,-5.550589,-22.28889,1008.337
5.801881313,344.0981,-14.54174,226.214,0.1324106,0.9323869,0.6378443,-39.33022,-5.550589,-22.28889,1008.337
5.834052086,273.3918,6.054644,247.358,0.1504249,0.1951531,0.4667546,-40.80153,-5.48932,-19.15719,1008.337
5.868775368,261.1671,48.19437,279.166,0.5504434,0.2486889,0.3656175,-41.16085,-3.561229,-17.82571,1008.335
5.900949955,134.129,92.93825,299.9423,0.3398492,0.3751051,0.4471906,-41.16085,-3.561229,-17.82571,1008.333
5.935598850,-7.468103,108.9182,307.787,0.4103824,-0.04225096,0.5640736,-41.5583,1.757269,-19.63495,1008.333
5.967773437,-26.26581,138.7475,304.8453,0.1094714,-0.4976005,0.8648592,-39.7099,8.990005,-23.25053,1008.333
6.002422810,12.7425,128.7452,264.3958,-0.2361766,-1.128156,1.327533,-39.7099,8.990005,-23.25053,1008.33
6.034592628,46.71352,139.9903,213.3437,-0.1284112,-0.8922629,1.145313,-32.51663,19.502,-27.80251,1008.328
6.069242001,-25.09863,113.3571,156.2242,-0.2731573,-0.6269717,1.213921,-24.24929,26.25665,-31.89538,1008.326
6.101416588,18.45553,80.39102,115.1619,-0.1678259,-1.0598,1.298057,-24.24929,26.25665,-31.89538,1008.328
6.136065483,82.28173,57.72316,86.17316,0.1903192,-0.6113423,1.714378,-15.97275,29.52895,-35.07864,1008.326
6.168239594,-257.9199,-0.04141214,46.09146,0.01066911,-0.07048008,2.374587,-9.512646,30.9329,-37.35068,1008.326
6.200414181,-102.3167,-12.05597,-6.125088,0.04699375,-2.090325,0.3558521,-9.512646,30.9329,-37.35068,1008.328
6.235059261,172.4616,27.9531,-11.33448,-0.03188148,-0.41811,0.38146,-5.315635,29.77024,-34.24241,1008.33
6.267232895,31.47878,14.9324,-12.25379,0.03440709,-0.09857531,0.5078315,-5.67161,36.65307,-32.93512,1008.33
6.301882267,25.4586,22.98156,-6.247662,-0.01609669,-0.7377499,1.42799,-4.574774,33.17265,-35.60186,1008.33
6.334056854,32.21594,-20.75617,-16.85032,-0.00243701,0.0898991,1.259238,-4.574774,33.17265,-35.60186,1008.33
6.368768692,-87.75765,-6.315024,-13.11181,0.08812784,-0.3608987,0.6396455,-4.587103,32.01788,-36.48884,1008.333
6.400942802,-21.41281,2.444358,-4.83806,-0.1174092,-0.5322241,0.8864527,-6.081269,32.43755,-35.14413,1008.335
6.435587883,-8.758142,1.911693,-4.654199,-0.07614645,-0.3963729,0.9691275,-6.081269,32.43755,-35.14413,1008.333
6.467762470,-8.082407,0.2545129,-3.244597,0.03175968,-0.4843058,0.9023259,-6.446624,33.97882,-34.25707,1008.337
6.502411365,-0.2807448,4.101539,-2.815588,-0.0111824,-0.402368,0.8629141,-6.452145,34.35427,-34.70522,1008.335
6.534585953,0.8250027,2.917839,-4.776773,-0.003502049,-0.4634525,0.8772808,-6.452145,34.35427,-34.70522,1008.335
6.569235325,39.52616,-5.190508,-3.61232,-0.04967559,-0.5925749,0.8457992,-6.074205,34.3489,-34.70715,1008.336
6.601409435,52.24226,3.746429,-4.470338,-0.05315352,-0.431698,0.9348818,-6.45818,33.96745,-35.14964,1008.336
6.636054516,26.99436,0.2545129,-4.960634,-0.02550226,-0.3275721,0.9229502,-6.45818,33.96745,-35.14964,1008.338
6.668229103,2.176472,0.9647331,-0.8544035,0.007206864,-0.2948769,0.9667765,-6.476028,33.18813,-36.48476,1008.34
6.702877998,-20.36849,-0.9883723,-3.367172,-0.03965851,-0.3057826,0.9700159,-6.482321,32.42017,-36.92731,1008.34
6.735052109,-26.88011,0.550438,-1.3447,-0.01126476,-0.3256676,0.9903129,-6.482321,32.42017,-36.92731,1008.342
6.767226696,-53.1109,-1.757777,0.2487629,0.09269187,-0.3904112,0.9068694,-6.848963,32.05578,-36.03096,1008.342
6.801875591,-30.25879,-5.249693,0.555198,0.04352299,-0.4848381,0.9667996,-6.831114,32.8351,-34.69584,1008.342
6.834045887,-28.84589,-7.794649,1.474503,0.1112103,-0.4722122,0.8852962,-6.831114,32.8351,-34.69584,1008.342
6.868694782,-15.08547,-4.598659,9.625677,-0.1152349,-0.5219141,0.9660473,-6.818528,34.37101,-33.81072,1008.342
6.900869369,20.35987,-23.89297,3.067966,-0.1972086,-0.6849073,0.9881224,-6.423254,34.38269,-32.47381,1008.344
6.935518742,-0.3421752,-11.46412,-2.999449,-0.03831141,-0.3415682,0.7990806,-6.423254,34.38269,-32.47381,1008.345
6.967693329,-28.60016,4.397463,-2.386579,-0.005506726,-0.3338569,0.750156,-6.434811,34.37132,-33.36637,1008.345
7.002342224,-34.9275,11.79559,-0.9769775,-0.0217619,-0.5592203,0.7831538,-7.177794,35.15651,-32.40991,1008.345
7.034512520,-31.85598,20.8509,10.85142,-0.001990136,-0.5044075,0.7284732,-7.177794,35.15651,-32.40991,1008.347
7.069161415,-8.328129,19.96312,20.04447,0.06395806,-0.5463337,0.873076,-7.545003,35.17243,-31.57917,1008.347
7.101336002,-14.65546,17.65491,23.78298,0.0006464557,-0.6202974,0.8079872,-6.020349,35.92541,-30.63431,1008.349
7.135985374,9.793843,21.38356,28.74723,0.02607012,-0.5827361,0.9116895,-6.020349,35.92541,-30.63431,1008.349
7.168159008,25.39717,24.22444,30.09554,-0.03891786,-0.4969365,0.9183052,-4.887354,35.90849,-30.70387,1008.345
7.202808380,-9.433876,34.99611,36.65326,-0.1669785,-0.4703762,0.8811591,-3.374825,37.03042,-30.71719,1008.349
7.234978676,26.50292,30.55724,37.3887,-0.5537794,-0.8474472,1.143867,-3.374825,37.03042,-30.71719,1008.349
7.267153263,58.9996,18.30594,32.1793,-0.4444559,-0.3417938,1.074716,-1.485898,35.86017,-30.72127,1008.345
7.301802635,1.316446,6.409754,33.28247,-0.4690931,-0.2489686,0.8853214,0.769927,35.43546,-31.62358,1008.351
7.333976745,9.24097,11.85478,42.41424,-0.2778533,-0.4465562,0.6254843,0.769927,35.43546,-31.62358,1008.352
7.368625641,52.91799,32.21442,50.32026,-0.2039497,-0.4592608,0.599144,1.90323,34.65709,-31.62566,1008.354
7.400800228,70.42566,38.6064,54.91679,-0.1935319,-0.3664241,0.7487501,2.658595,33.88409,-31.6258,1008.354
7.435445309,21.15847,31.38583,53.62976,-0.03626842,-0.4802047,0.7608046,5.720447,31.5307,-33.41555,1008.354
7.467619419,-30.38165,26.53266,54.12006,0.1791981,-0.3296791,0.718583,5.720447,31.5307,-33.41555,1008.354
7.502268791,-93.53211,11.3813,45.66245,0.2482577,-0.3940313,0.6634242,7.992833,29.97964,-32.97343,1008.354
7.534442902,-104.5282,0.6096231,37.14355,0.3578695,-0.4759114,0.5643625,10.66127,29.58367,-31.19999,1008.354
7.569092274,-85.73045,-22.05824,65.94845,0.1246823,-0.8838223,0.8292392,10.66127,29.58367,-31.19999,1008.354
7.601266861,107.9596,-65.61841,64.96786,-0.2069698,-0.2327251,1.524551,11.83682,31.51302,-28.09113,1008.354
7.635911941,-46.04641,-50.82215,52.58788,-0.2561709,-0.3967011,0.684497,12.96011,33.01008,-28.99693,1008.354
7.668086052,26.99436,-24.60319,14.34478,-0.7109843,-0.3361569,1.004467,12.96011,33.01008,-28.99693,1008.352
7.702734947,-25.46721,-1.935333,-5.818653,-0.2496664,-0.2429611,0.8616335,13.3202,32.22539,-30.33399,1008.352
7.734909534,-2.49224,39.90847,4.906577,-0.02447959,-0.4000325,0.9054733,12.93545,30.70054,-30.77089,1008.351
7.767083645,-6.97666,58.25583,-2.325292,-0.4192089,-0.719667,1.184153,12.93545,30.70054,-30.77089,1008.351
7.801733017,-10.2939,65.94988,-3.367172,-0.2723317,-0.4746396,0.889819,13.32521,31.08768,-29.88213,1008.351
7.833903313,13.23395,51.21281,12.38359,-0.444469,-0.6650519,0.8228576,14.86033,31.47007,-28.1066,1008.351
7.868552685,20.29844,41.15136,18.38972,-0.3402721,-0.3490455,0.6418126,14.86033,31.47007,-28.1066,1008.352
7.900726318,7.582348,32.09605,22.2508,-0.372356,-0.403379,0.6247941,16.37896,31.83623,-27.60616,1008.354
7.935375690,-1.509353,37.48188,28.44079,-0.4408817,-0.4042693,0.7170061,18.64525,31.04094,-27.6778,1008.354
7.967550278,6.169449,22.0346,27.39891,-0.5314702,-0.5763278,0.8798308,18.64525,31.04094,-27.6778,1008.354
8.002199173,12.80393,11.20374,23.66041,-0.4947556,-0.2146579,0.660268,19.78459,30.64939,-27.23546,1008.356
8.034369946,-24.36147,4.219909,29.72782,-0.5219285,-0.5997112,0.7489271,21.30187,30.25246,-26.79505,1008.358
8.069019318,25.70432,-2.290443,29.29881,-0.554435,-0.5298176,0.8539185,21.30187,30.25246,-26.79505,1008.358
8.101192951,-2.799392,-8.268128,27.39891,-0.5368508,-0.3302132,0.817322,22.05724,29.47946,-26.7952,1008.356
8.135842323,-21.71996,-11.5233,34.5695,-0.4538827,-0.6975339,0.8217136,23.1908,29.08222,-26.79914,1008.356
8.202665806,-32.16313,4.279094,32.36316,-0.4999977,-0.3016339,0.8336018,23.63095,27.93256,-26.79581,1008.356
8.234836102,5.002271,-0.9883723,36.46939,-0.5252883,-0.5019622,0.7083123,23.61311,27.15323,-28.13093,1008.356
8.269484997,-1.509353,-3.296588,39.41117,-0.5347275,-0.235325,0.8498964,23.61311,27.15323,-28.13093,1008.36
8.301659584,6.599462,-7.261984,40.63691,-0.6822793,-0.4494219,0.8745721,25.11857,26.36381,-28.58123,1008.36
8.333834171,30.98734,-9.333459,41.74008,-0.564658,-0.2009172,0.6976656,25.87946,25.21536,-28.13323,1008.36
8.368483543,-16.80552,0.2545129,52.71046,-0.4637852,-0.3873132,0.8870234,27.39122,25.19388,-28.14097,1008.36
8.400657177,16.73548,0.01777287,62.8841,-0.5713067,-0.3264819,0.8384002,27.39122,25.19388,-28.14097,1008.358
8.435302257,4.203675,8.895525,61.35193,-0.4011696,-0.1839771,0.9228194,28.13425,23.26611,-29.02809,1008.36
8.467476845,4.633688,9.842485,60.9842,-0.5857978,-0.3349035,0.7439942,28.88358,22.10629,-29.47266,1008.36
8.502126217,16.9812,18.24676,56.08124,-0.5624503,-0.09486751,0.7929912,28.88358,22.10629,-29.47266,1008.36
8.534300327,5.432284,17.00387,53.75233,-0.5736588,-0.1823237,0.8372006,30.39402,20.11562,-29.47078,1008.36
8.568949222,6.968044,20.8509,51.79115,-0.5796164,-0.08128379,0.7180714,31.53861,18.96749,-28.57844,1008.36
8.601123810,-3.106544,29.78783,46.45918,-0.6027293,-0.1650257,0.7956806,31.53861,18.96749,-28.57844,1008.358
8.635768890,3.650802,31.80012,45.23344,-0.4707883,0.06708253,0.704783,33.04909,17.04034,-28.57687,1008.358
8.667943001,-6.669508,41.62484,39.90147,-0.6754972,-0.1773264,0.8531341,34.96113,15.89284,-26.79584,1008.358
8.702592850,3.650802,22.27134,42.53681,-0.7818404,-0.1089129,0.5924826,34.96113,15.89284,-26.79584,1008.356
8.734766960,-9.003863,23.92852,40.14662,-0.5613781,-0.1537802,0.8329833,36.10573,14.74471,-25.90349,1008.356
8.769415855,6.845183,33.39812,47.07205,-0.6620805,-0.03020516,0.8686818,36.87214,13.2208,-25.00736,1008.356
8.801590443,-13.24256,23.45504,54.30392,-0.7585844,0.07390402,0.7745226,36.87214,13.2208,-25.00736,1008.356
8.833760261,-42.54487,14.45892,59.08431,-0.9647499,-0.1448244,0.853209,38.39494,12.44843,-24.11881,1008.356
8.868409634,15.44544,-6.315024,53.38461,-0.798001,0.160314,0.6878789,39.16712,10.93022,-22.77639,1008.358
8.900584221,-36.3404,3.213763,41.37236,-0.5700729,0.1950351,0.6166304,39.16712,10.93022,-22.77639,1008.358
8.935233116,-37.26186,8.303675,41.74008,-0.76952,-0.2461228,0.5570146,39.91067,9.764709,-23.66724,1008.358
8.967407227,13.84825,11.02619,34.93722,-0.8184264,0.06529135,0.6260722,39.92197,9.394945,-22.77282,1008.364
9.002057076,-5.993773,2.799469,9.686964,-0.7979503,0.2542096,0.5903246,39.92197,9.394945,-22.77282,1008.362
9.034226894,-15.08547,2.030063,14.58993,-0.8586648,0.03917468,0.6122544,41.44451,8.241441,-21.88241,1008.362
9.068876266,-26.94154,-1.698592,16.06081,-0.7680572,0.1425089,0.6011748,40.69416,7.876729,-21.4304,1008.36
9.101050854,-40.45624,-3.296588,10.05469,-0.6985536,0.05244784,0.6113517,40.69416,7.876729,-21.4304,1008.359
9.135699749,-57.22674,-2.763923,28.99238,-0.8842254,0.2016118,0.5116481,40.69364,7.114462,-21.42668,1008.357
9.167873859,-72.21576,-8.149758,43.27225,-1.037585,0.3144056,0.500031,41.07813,8.258179,-20.98792,1008.355
9.202523232,-95.55932,-19.69084,46.39789,-1.013833,0.170522,0.5506791,41.07813,8.258179,-20.98792,1008.355
9.234693527,-105.2039,-17.20507,43.33354,-0.8018585,-0.1054006,0.5314845,41.07788,7.877046,-20.98605,1008.352
9.269342899,-66.19558,1.083103,46.33661,-0.5217699,-0.1855572,0.4510902,41.46159,7.877362,-20.54171,1008.352
9.301516533,-54.46237,25.94081,33.34376,-0.2884096,-0.1870719,0.4050383,41.46159,7.877362,-20.54171,1008.353
9.333691120,-63.6155,49.91074,29.17624,-0.2549652,-0.09724257,0.6830985,40.71175,8.274918,-20.09342,1008.353
9.368340492,-72.95292,52.69243,28.01178,-0.14848,-0.2799459,0.7254246,40.72305,7.905153,-19.199,1008.353
9.400515079,-8.758142,61.98448,22.12823,-0.1917528,-0.4123805,0.5179588,40.72305,7.905153,-19.199,1008.353
9.435160160,-89.41628,32.92464,18.022,-0.8696278,-0.4763532,1.415938,41.89153,7.923157,-16.52711,1008.353
9.467334270,-23.13286,-14.24582,-5.818653,-0.9713356,-0.2923145,0.6052709,43.10542,7.542078,-15.19254,1008.352
9.501983166,-80.20171,34.40426,12.8126,-1.117596,0.3996333,0.1708286,43.48336,7.53671,-15.19447,1008.352
9.534157753,-38.06045,34.40426,-20.83397,-0.9638794,-0.6457906,0.9088389,43.48336,7.53671,-15.19447,1008.352
9.568807125,3.097928,48.54948,1.719652,-0.574993,-0.09110066,0.5179175,43.50043,7.172631,-13.85377,1008.352
9.600980759,-8.635281,51.50873,10.54498,-0.9061283,-0.3604314,0.4999889,43.89045,7.940898,-12.96686,1008.35
9.635626316,-20.24563,41.21054,6.132317,-0.9799224,0.03282941,0.5294656,43.89045,7.940898,-12.96686,1008.352
9.667800426,5.002271,48.01682,19.98318,-0.7936806,-0.3704328,0.4713833,43.53536,7.587874,-11.17794,1008.354
9.702449799,10.96102,44.88001,34.32435,-0.9317825,-0.1221965,0.4096484,44.69177,6.832241,-9.394903,1008.355
9.734624386,-17.60412,47.24741,23.66041,-0.9767151,-0.1684672,0.4858422,44.69177,6.832241,-9.394903,1008.355
9.769273758,-3.966569,51.6271,20.77991,-0.9754261,-0.1976104,0.421002,45.46473,6.457425,-8.058067,1008.355
9.801447391,-1.755075,46.77393,20.41219,-1.086958,-0.04795469,0.4329165,45.85897,4.944576,-6.713717,1008.354
9.836092472,4.203675,45.05757,12.13844,-1.004075,0.005761093,0.33956,45.85897,4.944576,-6.713717,1008.354
9.868267059,-4.212291,40.85543,13.91577,-0.8555956,-0.09540302,0.3455345,45.50364,4.210418,-4.922939,1008.352
9.900441170,-1.447923,45.64942,23.96684,-0.9124473,-0.04025458,0.3479656,45.52623,3.47089,-3.134095,1008.352
9.935090542,-3.352265,48.90459,19.67675,-0.9744638,-0.05743004,0.4096166,45.52623,3.47089,-3.134095,1008.352
9.967264652,-18.09556,66.00906,17.10269,-0.9633604,-0.2534035,0.4319974,46.30414,3.100947,-1.414734,1008.354
10.001914024,-0.8336185,76.95829,25.92803,-0.9920758,-0.1327077,0.2664886,46.33309,1.986783,0.8860054,1008.354
10.034084797,12.68107,74.59089,30.89227,-1.177867,-0.02278413,0.1134426,46.33309,1.986783,0.8860054,1008.354
10.068733692,13.72539,90.80759,48.48165,-1.070757,-0.01591802,0.2546896,45.9893,1.263994,3.569345,1008.354
10.100907803,10.83816,96.6669,46.58175,-1.240962,0.1456423,0.07300389,46.02842,-0.6654017,6.702923,1008.354
10.135556698,-0.5878968,91.1627,52.34274,-1.14478,-0.09698499,0.07974616,46.02842,-0.6654017,6.702923,1008.354
10.167731285,3.097928,82.69924,55.83609,-1.296409,0.1094472,-0.06173698,45.31773,-2.13372,10.28448,1008.354
10.202380657,9.609551,71.86838,56.20382,-1.222205,0.2043311,-0.04622318,43.4785,-4.342515,14.32184,1008.354
10.234550476,34.12029,68.73158,60.00361,-1.130282,0.1369351,-0.1666904,43.4785,-4.342515,14.32184,1008.354
10.269199848,71.28569,78.9114,52.83303,-1.135938,0.170958,-0.1012872,41.94291,-6.186018,17.46316,1008.354
10.301374435,103.8438,87.49323,39.10474,-1.245707,0.2314935,-0.1267559,40.47635,-7.6436,21.04858,1008.352
10.336023331,64.46691,31.80012,10.29983,-1.312342,0.3716655,0.00612535,40.47635,-7.6436,21.04858,1008.356
10.368197918,-44.44921,-37.26879,-9.55716,-1.010318,0.381172,0.1118354,37.87648,-8.322809,24.63609,1008.358
10.400372028,-70.43427,-56.20799,-8.453995,-1.034241,0.1657955,-0.07576873,35.61616,-5.998111,25.08281,1008.358
10.435017109,-11.0925,-52.95282,-1.160839,-0.8938833,0.142685,-0.08690893,36.35496,-5.64477,23.73824,1008.355
10.467191696,2.852206,-54.96511,1.351929,-0.95705,0.07019164,0.0388847,36.35496,-5.64477,23.73824,1008.355
10.501841068,39.34187,-57.7468,-13.05052,-0.8935221,0.04685794,-0.1137303,37.10429,-6.804592,23.29367,1008.358
10.534014702,-3.843709,-58.45702,-4.960634,-1.001186,0.376387,-0.2512348,38.21526,-6.462304,21.50089,1008.356
10.568664074,-34.3132,-64.02041,-6.431523,-0.9253135,0.3253739,-0.08269955,38.21526,-6.462304,21.50089,1008.35
10.600838661,-31.91741,-69.76135,-12.13122,-0.9157019,0.1671382,-0.1400057,38.58241,-5.335641,20.60081,1008.354
10.635483742,9.118109,-68.93276,-25.30793,-0.9205685,0.2144897,-0.04509801,39.69312,-5.374486,18.80989,1008.354
10.667658329,-6.853799,-78.93504,-39.34265,-0.9764557,0.134707,0.02128167,39.69312,-5.374486,18.80989,1008.352
10.702307701,-28.78446,-83.96576,-40.93612,-0.942767,0.2636683,-0.03918345,40.41484,-4.657066,16.12461,1008.351
10.734481335,-62.2026,-83.61065,-47.49383,-0.9520948,0.1002171,0.033302,41.89848,-3.563563,13.87989,1008.349
10.769130707,-28.66159,-85.14946,-50.49689,-0.935135,0.003346741,0.007763172,41.89848,-3.563563,13.87989,1008.347
10.801305294,-27.863,-76.15334,-44.67462,-0.8562855,0.2188103,0.05314767,43.43382,-2.101192,10.74043,1008.347
10.835950375,-74.85727,-75.26556,-43.75532,-0.9176322,0.1408681,0.1658654,43.77208,-1.002954,7.608948,1008.344
10.868153572,-104.7739,-80.29629,-48.90343,-0.9198293,0.07481472,0.2848772,43.77208,-1.002954,7.608948,1008.342
10.902802944,-122.0358,-79.58607,-50.06788,-0.9256458,0.06665905,0.2935403,44.87829,0.8581831,5.36244,1008.342
10.934976578,-130.8204,-77.21867,-45.83908,-0.9038332,0.01616238,0.2423105,44.46072,2.03068,2.234516,1008.342
10.967151165,-129.8989,-64.90819,-40.93612,-0.8310164,-0.01162886,0.210072,44.46072,2.03068,2.234516,1008.338
11.001800537,-135.7962,-53.24874,-33.52039,-0.7854913,-0.06729846,0.1956922,44.81657,3.527106,0.4400177,1008.338
11.033970833,-126.2745,-38.92597,-25.36921,-0.8139151,-0.1369011,0.2151456,44.41681,5.415402,-1.352475,1008.341
11.068620205,-100.1666,-28.74614,-14.95042,-0.7793878,-0.2222908,0.2420755,44.41681,5.415402,-1.352475,1008.339
11.100793839,-78.23594,-14.36419,-2.264005,-0.7722266,-0.1973632,0.2692061,45.16769,6.542382,-1.808205,1008.337
11.135443211,-69.45139,-2.527183,11.28043,-0.7953612,-0.2066179,0.2500657,44.39391,6.916385,-3.208795,1008.335
11.167617798,-60.29826,10.967,22.49595,-0.7792045,-0.2254716,0.2073436,44.39391,6.916385,-3.208795,1008.335
11.202267170,-35.78753,27.12451,37.08226,-0.817155,-0.2682174,0.2415672,44.78448,7.304332,-2.256273,1008.332
11.234436989,-6.055203,36.17981,49.52353,-0.8308281,-0.3039421,0.2577883,44.8013,6.55912,-0.9137096,1008.328
11.269085884,20.97418,40.91462,62.33252,-0.8195225,-0.2928014,0.2621126,44.8013,6.55912,-0.9137096,1008.327
11.301260471,33.81313,41.32891,74.34477,-0.835079,-0.275745,0.2609524,44.81208,5.427089,-0.01556778,1008.325
11.335909843,37.86754,42.51261,85.07,-0.924998,-0.2556265,0.2942513,44.83339,2.781894,1.782579,1008.327
11.368084431,39.58759,37.36351,88.68594,-0.938038,-0.2390335,0.3605437,44.83339,2.781894,1.782579,1008.327
11.402733803,28.77584,34.93693,89.42138,-0.9975566,-0.1898822,0.3388503,44.4646,0.4474969,2.624796,1008.325
11.434903622,15.99831,29.9062,83.59911,-1.047419,-0.2013572,0.3922409,44.86391,-3.345655,4.490347,1008.324
11.467078209,15.5683,23.81015,66.13231,-1.113713,-0.2251768,0.470747,44.86391,-3.345655,4.490347,1008.322
11.501727104,4.81798,13.68951,38.61444,-1.105374,-0.2406156,0.425234,44.12356,-5.985798,5.846081,1008.316
11.533901214,14.76971,7.534269,10.79013,-1.053421,-0.2710952,0.408592,43.74934,-9.023813,6.309181,1008.316
11.568550110,33.81313,1.319843,-15.31814,-0.9950935,-0.2909391,0.3905321,42.99217,-10.91874,6.322353,1008.318
11.600724697,45.54634,-6.196654,-34.50098,-1.016894,-0.2379759,0.3839422,42.99217,-10.91874,6.322353,1008.317
11.635370254,39.89474,-17.26425,-51.17105,-1.004823,-0.1907643,0.3456588,43.76616,-9.769026,7.651745,1008.315
11.667544842,14.58541,-24.24808,-64.47034,-0.9935544,-0.1617279,0.2787951,43.37744,-8.631626,6.755537,1008.315
11.702193737,-0.2807448,-25.43178,-76.60516,-0.9951363,-0.1971284,0.281892,43.37744,-8.631626,6.755537,1008.315
11.734367847,-3.167974,-28.15429,-82.73387,-1.001989,-0.1864744,0.2743318,44.12934,-5.980114,6.292362,1008.315
11.769016743,-10.23247,-31.46866,-83.5306,-0.9853031,-0.179218,0.2819479,44.49727,-3.71005,5.386703,1008.313
11.801191330,-23.01,-32.35643,-81.44684,-0.9472034,-0.1832055,0.2299856,44.49727,-3.71005,5.386703,1008.313
11.835836887,-21.47424,-25.66852,-76.66645,-0.9390608,-0.218203,0.2286571,44.48803,-0.2912185,4.477394,1008.313
11.868010521,-9.679598,-20.93372,-70.53775,-0.9402387,-0.210682,0.2590961,44.85651,2.804634,3.567703,1008.307
11.902659893,-3.659417,-14.36419,-62.87687,-0.9216222,-0.1889475,0.2571735,44.85651,2.804634,3.567703,1008.307
11.934834480,3.589371,-7.380354,-53.80639,-0.9080766,-0.2045971,0.2506521,44.46881,5.466567,2.664049,1008.307
11.967009068,9.732412,-1.106742,-42.22314,-0.9020938,-0.1933886,0.2603287,44.46484,8.128817,2.204744,1008.305
12.001657963,11.5139,3.628059,-27.88198,-0.8922421,-0.1769123,0.2632646,44.46484,8.128817,2.204744,1008.305
12.033827782,11.26817,5.403609,-13.66339,-0.8856758,-0.1632017,0.2830783,43.70999,9.664087,2.20117,1008.305
12.068477154,2.852206,5.581164,1.658365,-0.8778132,-0.1351437,0.2760063,43.71076,10.80749,2.195587,1008.305
12.100651741,-9.556737,6.350569,15.50923,-0.876821,-0.1341667,0.2774511,43.71076,10.80749,2.195587,1008.305
12.135301113,-19.81561,7.830194,30.15683,-0.883821,-0.1749054,0.2771806,44.08921,11.56439,2.189932,1008.305
12.167474747,-23.25572,9.66493,43.70126,-0.8984726,-0.1995054,0.2877184,44.08895,11.18325,2.191793,1008.305
12.202124119,-21.16708,12.09152,56.57154,-0.8853679,-0.2194619,0.2888776,44.08895,11.18325,2.191793,1008.305
12.234294415,-18.34129,16.53039,67.35806,-0.9059184,-0.2290812,0.2870621,44.09948,9.670088,3.091797,1008.305
12.268943786,-12.93541,19.96312,77.16398,-0.9351709,-0.234714,0.2930726,44.48191,7.764738,3.545448,1008.304
12.301118374,-9.126724,21.79786,82.55724,-0.9580085,-0.2504686,0.3124358,44.48191,7.764738,3.545448,1008.305
12.335767746,1.623598,23.33667,84.82485,-0.964142,-0.2633021,0.3437172,45.24781,5.478569,4.445305,1008.305
12.367941379,9.24097,23.04074,82.80238,-1.003589,-0.2698023,0.3565637,44.87885,1.683972,5.358408,1008.305
12.402590752,11.94391,18.24676,75.87695,-1.025418,-0.2444289,0.3598686,44.89383,-1.792697,6.714308,1008.307
12.434761047,5.002271,11.61804,64.04855,-1.023972,-0.223175,0.3474983,44.89383,-1.792697,6.714308,1008.307
12.469410419,-10.66248,5.166869,47.37849,-1.014674,-0.1903147,0.3346684,43.75269,-4.069077,6.284992,1008.309
12.501584053,-21.84282,-1.225112,30.64713,-0.9934005,-0.1930199,0.3122757,44.1346,-6.736696,6.742365,1008.307
12.533758640,-28.78446,-5.308878,13.91577,-0.9779147,-0.2183612,0.3090302,44.1346,-6.736696,6.742365,1008.307
12.568408012,-33.33031,-8.504869,-2.938162,-0.9668997,-0.243269,0.2961901,43.3777,-8.250492,6.753675,1008.307
12.600582600,-32.28599,-10.87227,-15.74715,-0.962194,-0.258926,0.2830032,43.74382,-8.648365,5.86104,1008.307
12.635227680,-26.08152,-11.70086,-27.82069,-0.9450286,-0.2536136,0.2905988,43.74382,-8.648365,5.86104,1008.309
12.667401791,-22.2114,-12.17434,-37.32018,-0.9388902,-0.2581841,0.2683318,43.7383,-8.272915,5.412899,1008.309
12.702050686,-12.93541,-10.45797,-45.59393,-0.941816,-0.2557498,0.2674152,44.49469,-7.521386,5.40531,1008.307
12.734225273,-3.843709,-9.511014,-50.80333,-0.9567747,-0.238596,0.2792642,44.49469,-7.521386,5.40531,1008.309
12.768874645,2.053611,-8.149758,-54.66441,-0.9582912,-0.2434721,0.2753822,44.86159,-6.775856,4.507093,1008.309
12.801048279,7.889501,-6.966059,-56.50302,-0.9712926,-0.2181024,0.2839066,44.8571,-4.875874,4.051508,1008.309
12.835693836,10.101,-6.610949,-57.72876,-0.9579523,-0.1986755,0.2940643,44.8571,-4.875874,4.051508,1008.311
12.867869377,11.02245,-5.368063,-56.44173,-0.9516739,-0.1977995,0.2858189,44.86442,-2.583388,4.486626,1008.311
12.902518749,12.86536,-4.125178,-52.09035,-0.9438668,-0.1939705,0.2838496,45.22631,-0.7001438,3.136545,1008.309
12.934693336,13.29538,-3.119033,-45.41007,-0.925851,-0.1955473,0.2798126,45.22631,-0.7001438,3.136545,1008.309
12.969342709,12.61964,-2.290443,-36.46216,-0.915525,-0.1902079,0.2865082,44.86152,1.666918,4.019566,1008.309
13.001516342,10.96102,-1.521037,-27.20782,-0.9008219,-0.1805516,0.2893426,44.85176,4.323483,3.113979,1008.307
13.033687115,8.995248,0.1361429,-16.78903,-0.8907148,-0.1860498,0.275225,44.85176,4.323483,3.113979,1008.307
13.068336010,8.995248,1.852508,-5.021921,-0.9033867,-0.1980615,0.2829562,45.23574,4.704932,3.556467,1008.311
13.100510597,8.135221,2.740283,4.41628,-0.8971425,-0.2054372,0.2746432,44.85304,6.22915,3.104675,1008.311
13.135159969,6.906614,4.338279,13.24161,-0.9142148,-0.2058291,0.2757632,44.85304,6.22915,3.104675,1008.311
13.167333603,4.449397,5.107684,19.86061,-0.918134,-0.2193635,0.2805082,44.48088,6.240203,3.552891,1008.307
13.201982975,2.790776,6.054644,25.98931,-0.9172615,-0.2218804,0.2693933,44.48589,5.102488,4.004753,1008.311
13.234153748,1.746459,7.119974,30.64713,-0.9280083,-0.2295741,0.2718402,44.48589,5.102488,4.004753,1008.307
13.268802643,-0.03502312,8.185305,34.20177,-0.92272,-0.232091,0.2635761,45.24152,4.710617,4.002747,1008.307
13.300976753,-0.8336185,9.250635,36.83712,-0.9383101,-0.2319901,0.2666144,44.8628,3.572585,4.010262,1008.309
13.335625648,-0.6493273,10.1976,37.69514,-0.9573299,-0.238171,0.2710789,44.8628,3.572585,4.010262,1008.309
13.367800236,-2.55367,10.67108,36.77583,-0.9549592,-0.2363119,0.2619141,44.48461,3.19682,4.014057,1008.309
13.402449608,-3.229404,11.3813,33.77277,-0.971635,-0.2363058,0.2519478,44.87307,1.678288,4.912127,1008.31
13.434620380,-2.307948,12.09152,29.60525,-0.9769213,-0.2352378,0.2611639,44.87307,1.678288,4.912127,1008.308
13.469269276,0.2106985,12.74255,22.80239,-0.9580169,-0.2364154,0.2465178,44.87174,-0.2909023,4.92174,1008.308
13.501443386,4.449397,14.9324,16.55111,-0.9414007,-0.2234192,0.2430959,44.87071,-1.815436,4.929184,1008.308
13.536092281,0.3949898,9.07308,13.11904,-0.9307413,-0.1761523,0.2110922,44.50408,-2.179831,5.825539,1008.308
13.568266868,18.08695,7.652639,13.85448,-0.8815618,-0.2103451,0.2146894,44.50408,-2.179831,5.825539,1008.306
13.600440979,33.32169,15.82017,15.14151,-0.9135744,-0.1186132,0.1935723,45.26522,-2.947151,6.271675,1008.306
13.635086059,25.02859,18.83861,15.44794,-0.8904175,-0.07065266,0.1966437,44.13692,-3.306494,6.725618,1008.306
13.667260647,29.32872,19.6672,19.98318,-0.8515316,-0.0680849,0.177022,44.13692,-3.306494,6.725618,1008.306
13.701910019,31.84736,28.24902,25.19258,-0.9108605,-0.03471885,0.1855627,44.51434,-4.074129,6.727406,1008.308
13.734084606,24.16856,29.43272,26.11189,-0.9255248,-0.0506261,0.1903883,44.15977,-3.664887,8.5126,1008.308
13.768733501,31.47878,32.09605,28.13436,-0.9004278,-0.04230142,0.1531088,44.15977,-3.664887,8.5126,1008.308
13.800907612,40.07903,35.94307,28.56337,-0.8951873,-0.02213404,0.1281622,44.17056,-4.796918,9.410744,1008.308
13.835552692,44.74775,39.84929,29.3601,-0.8454213,0.0008215562,0.1158371,42.61841,-5.514077,11.20765,1008.308
13.867727280,42.90483,42.09832,32.85346,-0.8586037,0.07148211,0.08087469,42.61841,-5.514077,11.20765,1008.308
13.902376652,57.64813,43.3412,35.9791,-0.8701875,0.02772659,0.001092141,43.07616,-6.265553,12.54795,1008.313
13.934550285,63.72975,43.3412,38.43058,-0.8520322,0.1186384,-0.03110375,41.90798,-6.601262,14.78734,1008.312
13.969199657,75.83154,43.93305,36.71454,-0.9441503,0.1269362,-0.02149979,41.90798,-6.601262,14.78734,1008.308
14.036019325,63.36116,40.2044,37.57256,-0.9064781,0.1224853,-0.007910023,40.8078,-8.075581,17.47827,1008.31
14.068193913,61.45682,37.65944,39.84018,-0.9766234,0.2361041,-0.04777077,40.8078,-8.075581,17.47827,1008.308
14.100367546,52.1194,44.05142,35.61138,-0.9598158,0.1293865,-0.02856341,39.31363,-7.655919,18.82298,1008.308
14.135016918,68.76704,44.88001,25.74417,-0.9447323,0.09832257,-0.01883826,39.32519,-7.644549,19.71555,1008.308
14.167191505,50.76793,39.07988,20.28962,-1.010397,0.2221927,-0.1111942,39.32519,-7.644549,19.71555,1008.31
14.201840878,47.8807,34.04915,22.55724,-1.120902,0.0789588,-0.1258039,38.21949,-8.74342,21.95833,1008.311
14.234010696,18.88555,26.71021,13.18032,-1.038572,0.1334736,-0.05285881,36.71981,-7.948308,22.85491,1008.311
14.268659592,-2.55367,15.76099,5.090438,-1.059008,0.1728733,-0.1810372,36.71981,-7.948308,22.85491,1008.311
14.300834179,-25.16006,12.26907,-4.776773,-1.222,0.03630969,-0.05676825,37.10955,-7.561174,23.74368,1008.313
14.335483551,-0.3421752,2.207618,-6.308949,-0.9931473,0.3122806,-0.2508743,36.35342,-7.931571,23.7494,1008.315
14.367720127,6.722322,1.497398,3.619549,-0.9830909,0.4512486,-0.2247586,36.35342,-7.931571,23.7494,1008.315
14.402369499,-20.12277,-0.6924472,6.6839,-0.9719587,0.3228143,0.05894044,37.8594,-7.958729,23.29539,1008.315
14.434539795,-24.60719,-7.617094,-3.857468,-0.8565072,0.04898814,-0.06537616,37.09748,-8.33481,22.85484,1008.317
14.469189167,-32.53172,-22.70927,-3.857468,-1.107524,0.2313639,-0.1174423,37.84733,-8.732367,22.40655,1008.317
14.501362800,-54.40094,-29.45636,-15.74715,-1.052867,0.09342674,-0.2829693,37.84733,-8.732367,22.40655,1008.318
14.536012649,-38.73619,-35.90753,-21.38556,-1.090629,0.3746191,-0.03447906,38.57932,-9.909243,20.62314,1008.32
14.568186760,-69.32853,-54.61,-27.26911,-1.007292,0.3688607,-0.161106,39.69504,-11.0858,19.28408,1008.32
14.600361347,-56.61244,-53.13037,-36.21701,-1.038324,0.03218637,-0.03248817,39.69504,-11.0858,19.28408,1008.32
14.635006428,-36.77041,-59.81828,-37.44275,-1.220417,0.1041852,-0.1916653,40.41098,-10.37407,16.15253,1008.32
14.667180538,-40.82482,-75.26556,-43.51017,-1.054093,0.1761535,-0.004162177,41.13771,-10.79436,13.91912,1008.322
14.701829433,-27.43299,-71.41853,-41.24255,-1.062195,0.03807092,0.08587296,41.13771,-10.79436,13.91912,1008.322
14.734004021,-13.61114,-66.68373,-44.18433,-0.9888965,0.1223846,0.1148041,43.42892,-9.34273,10.77578,1008.322
14.768653393,-7.468103,-62.18568,-41.30384,-1.056442,-0.04239891,0.2287917,43.77266,-7.477352,8.023108,1008.322
14.800827026,-3.536557,-73.1349,-35.17513,-1.003142,0.1141488,0.1076391,43.77266,-7.477352,8.023108,1008.322
14.835473061,-2.922252,-66.56536,-27.75941,-1.06246,-0.08369599,0.3456333,44.86814,-5.626771,4.94779,1008.322
14.867646694,-8.143838,-60.58768,-29.04643,-0.8945926,0.1606003,0.284867,45.58987,-4.90935,2.26252,1008.324
14.902296066,6.968044,-54.13652,-26.77881,-1.156786,-0.08581334,0.3879479,45.58987,-4.90935,2.26252,1008.324
14.934470654,-15.02404,-56.74066,-28.00455,-0.8591602,0.1017001,0.3486387,46.31763,-3.805111,0.02166557,1008.324
14.969120026,14.27826,-50.17112,-12.74409,-1.192717,-0.08405583,0.4668636,46.28951,-2.690135,-2.215319,1008.325
15.001293659,-11.64537,-58.27947,-24.0209,-0.9581731,0.04521391,0.324033,46.28951,-2.690135,-2.215319,1008.325
15.035938740,19.31556,-51.35482,-20.2211,-1.194212,-0.1639406,0.6180488,46.26691,-1.950608,-4.004164,1008.325
15.068113327,-13.05827,-46.85676,-24.81763,-0.8101144,0.05042352,0.4027063,45.47688,-1.211713,-6.681701,1008.325
15.102762699,19.49985,-43.36485,-16.97289,-0.9322808,-0.2083161,0.5082351,45.47688,-1.211713,-6.681701,1008.325
15.134936810,44.13344,-50.70378,-21.50813,-1.064645,0.04997575,0.3694097,45.82696,0.2790282,-8.922481,1008.327
15.167110920,-28.41587,-44.01588,-28.06584,-0.8353706,-0.1205998,0.6160218,45.8154,0.2676584,-9.815042,1008.325
15.201760292,40.26332,-37.32797,-35.72672,-1.048187,-0.186359,0.7003694,45.8154,0.2676584,-9.815042,1008.327
15.233931065,15.69116,-48.63231,-41.91671,-0.5461708,0.4661898,0.4841649,45.03119,1.07576,-12.04661,1008.327
15.268579960,-1.07934,-42.59544,-35.42028,-0.7766287,-0.3938665,0.6537088,45.392,2.577059,-13.45858,1008.325
15.300754070,21.46562,-52.65689,-45.22621,-1.098853,-0.2459172,0.6232312,45.392,2.577059,-13.45858,1008.325
15.335402965,-15.1469,-85.85968,-47.92284,-0.949418,-0.0347943,0.5917654,43.49177,4.117065,-14.34892,1008.327
15.367577553,-19.44703,-95.80276,-50.68075,-0.7467077,-0.2294988,0.6504467,43.45813,5.607491,-17.03404,1008.325
15.402226925,-18.21842,-93.55373,-46.26809,-0.5015358,-0.1744033,0.5888452,43.45813,5.607491,-17.03404,1008.325
15.434396744,-24.66862,-77.86971,-26.71753,-0.4311082,-0.166873,0.6036742,41.85109,7.883363,-19.65108,1008.325
15.469046116,-13.1197,-56.74066,-15.9923,-0.4916603,-0.3141355,0.728345,39.54454,10.16258,-22.7746,1008.325
15.501220703,26.62578,-26.61548,-17.64705,-0.4464306,-0.2329271,0.9030762,39.54454,10.16258,-22.7746,1008.325
15.535869598,27.05579,-13.35804,-28.00455,-0.5325724,-0.1115057,1.046589,38.01076,10.54326,-24.4901,1008.324
15.568044186,20.35987,-12.05597,-46.14551,-0.5148666,-0.303295,0.9233786,37.62203,11.68066,-25.38631,1008.324
15.602693558,67.66129,10.67108,-57.60619,-0.614902,-0.02385044,0.9049258,36.85981,12.06603,-25.89434,1008.325
15.634863377,80.07024,10.37515,-56.1353,-0.4939854,-0.08447314,0.8632919,36.85981,12.06603,-25.89434,1008.325
15.667037964,134.129,1.023918,-40.93612,-0.4457661,0.04848138,1.078428,36.10501,12.45872,-25.82858,1008.325
15.701687336,96.71788,-6.255839,-40.9974,-0.3977836,0.1838999,0.8573767,35.71443,12.07077,-26.7811,1008.327
15.733860969,86.95044,7.593454,-40.26196,-0.3735134,0.0396695,0.7373893,35.71443,12.07077,-26.7811,1008.325
15.768510342,89.22337,25.52651,-41.36512,-0.4226688,0.08162122,0.7328918,34.56886,10.55178,-27.59666,1008.327
15.800684929,113.857,55.71087,-44.24561,-0.4964731,-0.05965553,0.55504,33.80586,9.793756,-28.0991,1008.325
15.835330009,141.8692,80.74613,-59.50608,-0.5412991,-0.1149798,0.5901881,33.80586,9.793756,-28.0991,1008.325
15.867504597,137.3848,83.88294,-73.1731,-0.6476846,-0.1218569,0.8258579,34.58413,7.51977,-26.24293,1008.325
15.902153969,101.8166,82.69924,-82.42744,-0.6029447,-0.06746592,0.6065791,35.35549,6.000741,-24.96427,1008.325
15.934327602,93.5235,84.77071,-86.28851,-0.5836362,-0.1760746,0.6339415,35.35549,6.000741,-24.96427,1008.324
15.968976974,50.33791,79.97673,-87.39169,-0.6555429,-0.02169035,0.6551652,36.14578,5.64298,-22.28859,1008.324
16.001151562,-30.56594,65.00292,-97.87177,-0.74988,-0.1998372,0.7813427,37.3203,6.047802,-19.17229,1008.324
16.035796642,7.82807,30.26131,-78.99536,-0.7521953,-0.2643979,0.6531022,37.3203,6.047802,-19.17229,1008.322
16.067970276,-54.89238,26.3551,-77.27932,-0.963049,-0.2095243,0.3316184,36.97305,8.74953,-16.95198,1008.322
16.102619648,-40.08765,31.26746,-59.81252,-0.7856638,-0.3045536,0.5224615,37.37565,11.0537,-15.17995,1008.32
16.134794235,3.589371,5.048499,-52.45808,-0.9313631,-0.01770047,0.9320294,37.37565,11.0537,-15.17995,1008.32
16.166968823,-90.2763,1.852508,-45.53264,-0.4704646,0.08121572,0.271579,37.00472,14.11301,-14.81038,1008.32
16.201618195,-55.44526,23.39585,-26.90139,-0.7808127,-0.5350423,0.2819264,35.51215,15.67689,-13.40749,1008.32
16.233788014,41.00049,34.93693,-28.55614,-0.6654961,-0.03941308,0.9312976,35.51215,15.67689,-13.40749,1008.324
16.268436909,-15.76121,14.45892,-11.57963,-0.9604563,-0.1103032,0.3598861,35.15835,17.22953,-11.62788,1008.326
16.300611496,-59.00822,12.44663,-10.29261,-0.7789146,-0.5167254,0.2666357,34.78619,17.24058,-11.17966,1008.328
16.335260868,20.54417,35.35122,-11.70221,-1.044591,-0.3907991,0.8789182,34.78619,17.24058,-11.17966,1008.329
16.367583275,13.5411,23.75096,-14.27626,-0.9600767,-0.3331428,0.1642817,34.79826,18.01422,-10.29082,1008.329
16.402232647,18.27124,-0.7516323,-3.734894,-0.6597364,-0.548651,0.2946624,34.43188,18.03095,-9.396328,1008.329
16.434402466,13.35681,12.26907,8.767659,-0.6469657,-0.1398007,0.5133676,34.43188,18.03095,-9.396328,1008.329
16.469051838,36.63893,30.43887,16.18339,-0.8840374,-0.1332932,0.6380612,34.43791,18.41777,-8.951907,1008.329
16.501226425,17.71837,32.6879,9.135381,-0.9774847,-0.2053974,0.3539591,34.80956,17.64445,-9.3964,1008.329
16.535875320,30.49589,35.35122,19.30903,-0.8386294,-0.7120669,0.5142942,35.19276,16.8825,-8.948332,1008.329
16.568049431,49.96933,38.54721,14.28349,-1.398953,-0.2589935,0.7483515,35.19276,16.8825,-8.948332,1008.329
16.602698326,88.97765,17.71409,-5.512218,-0.776987,0.2624944,0.2932856,35.19173,15.35797,-8.940889,1008.331
16.634869099,58.93817,24.63874,14.34478,-0.7660988,-0.3471635,0.5484377,36.33107,14.96642,-8.498549,1008.333
16.669518471,77.55159,31.56338,-15.31814,-1.36321,-0.2917206,0.4296286,36.33107,14.96642,-8.498549,1008.335
16.701693058,122.5801,25.23059,-35.48157,-0.3466139,0.7006294,0.4244677,36.33659,14.59097,-8.050408,1008.335
16.733866692,70.85567,27.06532,-18.07606,-0.8758531,-0.3469866,0.4376394,36.33056,14.20415,-8.494828,1008.335
16.768516064,110.1097,11.49967,-38.05563,-0.4394507,0.5657328,0.243472,36.33056,14.20415,-8.494828,1008.335
16.800690651,50.82936,22.92237,-10.96676,-0.7695491,-0.7583961,0.2785339,35.95834,15.35779,-8.115951,1008.335
16.835335731,-11.58394,6.291384,-27.26911,-1.19968,-0.2180158,0.3997903,35.58752,16.13192,-7.607703,1008.335
16.867509365,29.51301,-1.521037,-20.28239,-0.9444265,-0.2220802,0.2889251,35.58752,16.13192,-7.607703,1008.335
16.902158737,6.230879,-3.888438,-6.308949,-1.05047,-0.6138635,0.4611686,35.58226,16.8885,-8.057705,1008.335
16.934333324,29.63587,0.3136979,-20.15982,-1.321451,-0.2990375,0.6407763,35.9602,16.88313,-8.059639,1008.336
16.968982697,29.63587,22.86319,-25.98208,-0.676447,-0.007378253,0.4834044,35.9602,16.88313,-8.059639,1008.338
17.001157284,57.83242,36.41655,-21.87585,-1.085011,-0.5000688,0.5930508,35.20483,17.65614,-8.059492,1008.338
17.035802364,118.5871,41.56565,-37.44275,-0.6856094,0.2592513,0.3092762,34.44395,18.80459,-8.507487,1008.338
17.067975998,35.34889,52.92917,-15.44071,-0.7748007,-0.4755251,0.3879188,34.44395,18.80459,-8.507487,1008.338
17.102625370,61.45682,59.5579,-44.00047,-1.180121,-0.5583975,0.3948736,34.45024,19.57254,-8.064928,1008.336
17.134799957,71.96143,35.41041,-53.56124,-1.036442,0.1066556,0.5624135,34.07889,20.79052,-7.622606,1008.336
17.169449329,55.92808,-16.08055,-58.28034,-0.9596281,-0.3193444,0.443469,34.07889,20.79052,-7.622606,1008.336
17.201622963,25.21288,-70.41239,-50.49689,-0.2921645,-0.3032725,0.9439548,34.06811,21.92255,-8.52075,1008.332
17.233793736,-102.5624,-151.6142,-65.45093,-0.3379327,-0.5978157,0.9246017,32.53453,23.82695,-10.30744,1008.336
17.268442631,63.66832,-215.0606,-107.4938,-0.5365189,-1.34001,0.4740044,32.53453,23.82695,-10.30744,1008.336
17.300616741,103.0452,-232.3426,-119.0771,-0.5115718,-0.7415709,0.4237573,30.23402,26.49299,-12.98655,1008.336
17.335265636,52.18082,-222.5179,-126.0025,-0.4925957,-0.4285128,0.497979,24.84092,29.51489,-21.00741,1008.335
17.367440224,-33.14602,-207.4257,-126.1864,-0.5917394,-0.5572072,0.5508631,24.84092,29.51489,-21.00741,1008.331
17.402089596,-52.25088,-164.1023,-111.2323,-0.6808225,-0.4582124,0.2387288,18.26706,30.66517,-27.674,1008.329
17.434260368,-64.16837,-113.9134,-95.60414,-0.571337,-0.3832717,0.3973848,9.948663,33.82667,-28.09262,1008.329
17.468909263,-35.84896,-73.31245,-71.45705,-0.5869856,-0.4016369,0.4605213,9.948663,33.82667,-28.09262,1008.327
17.501083374,7.643779,-45.85061,-36.15573,-0.3873228,-0.3561018,0.3886618,2.717406,35.46547,-27.17044,1008.327
17.535732269,14.46255,-17.38262,-0.7318295,-0.4101022,-0.1427038,0.4783575,-2.950145,37.83279,-27.1526,1008.325
17.567906856,-52.98804,-8.445683,3.925984,-0.4813969,-0.4693605,0.7472135,-2.950145,37.83279,-27.1526,1008.325
17.602556229,53.348,-5.131323,19.18645,-0.2789027,-0.4945663,0.7562022,-4.47346,37.8429,-28.03742,1008.325
17.634726047,158.2712,7.830194,29.72782,-0.2632785,-0.6686463,0.7252193,-4.467168,38.61085,-27.59486,1008.325
17.669375420,316.5773,-27.62163,2.026087,-0.1722957,-1.789073,2.397312,-3.391076,37.39531,-31.99413,1008.327
17.701550007,-15.45406,-79.29015,4.048558,0.2943293,0.4918565,0.9556413,-3.391076,37.39531,-31.99413,1008.325
17.736198902,-80.69315,-14.77848,6.867761,-0.1366446,-0.3465121,0.5979996,-3.075087,32.37754,-36.49844,1008.327
17.768373489,43.27341,-12.35189,10.42241,-0.2346929,-0.4690033,0.9526561,-4.954257,30.89122,-35.58876,1008.327
17.800547600,11.3296,-10.87227,2.332522,-0.005349443,-0.5914561,0.8935948,-4.954257,30.89122,-35.58876,1008.327
17.835192680,42.29053,6.350569,9.932113,0.05442441,-0.385051,0.8219568,-5.710136,30.90196,-35.5849,1008.328
17.867367268,39.28044,13.7487,21.82179,0.04447875,-0.519641,0.9231238,-5.721951,30.50945,-36.47559,1008.328
17.902016640,63.4226,9.369005,17.5317,-0.1205625,-0.3231786,0.9908714,-5.721951,30.50945,-36.47559,1008.332
17.934190273,31.17163,10.84863,20.22833,-0.03117574,-0.07011838,0.8200498,-4.233819,29.70297,-38.26473,1008.33
17.968839645,16.05975,-1.698592,35.42752,-0.1454531,-0.4362501,1.103441,-5.001972,27.41635,-39.07851,1008.33
18.001014233,25.58146,-10.3396,35.79524,-0.095043,-0.4285545,1.00085,-5.001972,27.41635,-39.07851,1008.332
18.035659313,0.8250027,-21.28883,23.90555,-0.2154292,-0.2410138,0.6955222,-4.252954,27.01798,-39.59055,1008.332
18.067832947,36.88465,-12.707,9.135381,-0.08493739,-0.289801,0.6842625,-2.741195,26.99651,-39.59829,1008.332
18.102482319,17.34978,-12.64782,-2.57044,-0.1219813,-0.01996976,0.9075884,-2.741195,26.99651,-39.59829,1008.332
18.134656906,0.2721289,-22.11742,-5.941226,0.01909651,-0.001545912,1.310821,-3.509659,25.47134,-40.47954,1008.332
18.169306278,-51.39085,-25.96445,-7.841124,-0.01424759,-0.01064012,1.179954,-3.887341,25.85785,-40.47946,1008.332
18.201480866,-67.0556,-13.29885,-1.95757,-0.006029462,-0.3141719,0.9108291,-3.887341,25.85785,-40.47946,1008.332
18.236125946,-42.91346,-0.2189672,11.15785,-0.08402166,-0.2498365,0.8320752,-4.6377,25.49314,-40.02745,1008.334
18.268299579,-57.28817,-15.90299,12.01587,-0.008122017,-0.4863658,0.861229,-4.990158,27.80886,-38.18781,1008.334
18.300474167,-46.2307,-9.806939,3.680836,0.09419418,-0.5392855,0.9253899,-4.990158,27.80886,-38.18781,1008.335
18.335123539,-23.01,4.338279,-2.325292,0.01693048,-0.6033259,0.879311,-4.960496,28.98068,-35.96199,1008.335
18.367297172,2.852206,8.422045,-2.202718,0.0159959,-0.4253674,0.8562049,-4.960293,30.5044,-36.03318,1008.337
18.401946545,13.11108,8.303675,1.351929,-0.02695372,-0.4034364,0.9030584,-4.960293,30.5044,-36.03318,1008.335
18.434117317,12.86536,5.817904,0.1874759,-0.04175383,-0.3919412,0.9365492,-5.331115,31.27854,-35.52494,1008.337
18.468766212,11.14531,5.048499,-2.693014,-0.05873869,-0.3535681,0.9293121,-4.576318,30.88585,-35.5907,1008.337
18.500940800,11.75962,-1.165927,-1.896283,-0.03454505,-0.3036228,0.9386561,-4.576318,30.88585,-35.5907,1008.337
18.535590172,-8.573851,-0.6924472,-0.6705424,-0.03156794,-0.3161655,0.9505748,-4.587306,30.49416,-36.41764,1008.339
18.567763805,-18.52558,-5.486434,0.555198,0.0008078702,-0.3519192,0.9297341,-4.588388,30.11222,-36.47954,1008.339
18.602413177,-11.58394,-7.913019,2.57767,-0.03843265,-0.4427817,0.8917551,-4.581784,30.11871,-35.96951,1008.339
18.634583950,9.855273,-9.925309,3.19054,-0.01722845,-0.4576761,0.9251745,-4.581784,30.11871,-35.96951,1008.341
18.669232845,25.70432,-5.841544,2.393809,-0.005756425,-0.4023793,0.9279333,-4.582354,30.49903,-36.03512,1008.341
18.701406956,20.91275,-2.586368,1.413216,0.001052955,-0.3695511,0.9093423,-4.971591,30.87416,-36.9276,1008.341
18.736055851,18.08695,-0.4557072,0.7390591,-0.01261526,-0.3496982,0.9573516,-4.971591,30.87416,-36.9276,1008.342
18.768230438,19.62271,2.858654,-1.467274,-0.002028718,-0.3465024,0.9379992,-5.35056,29.355,-36.91823,1008.342
18.800404549,5.309423,6.646494,-2.999449,-0.003631554,-0.2581656,0.9368144,-5.356339,29.34932,-37.36451,1008.342
18.835049629,-30.50451,7.534269,-2.876875,-0.04587832,-0.33123,0.9390162,-5.356339,29.34932,-37.36451,1008.342
18.867224216,3.282219,2.444358,0.003614825,-0.02326722,-0.4162637,0.9414782,-5.356596,28.96818,-37.36265,1008.342
18.901873589,7.950931,4.042354,-2.815588,-0.01170724,-0.33284,0.9410941,-4.971795,29.35044,-36.85641,1008.341
18.934048176,-7.468103,6.528124,-3.980042,-0.008618136,-0.3104638,0.9494438,-4.971795,29.35044,-36.85641,1008.341
18.968697071,-19.07845,6.173014,-2.815588,-0.04316974,-0.3044016,0.9580101,-4.978398,29.34395,-37.36644,1008.341
19.000871181,-19.63132,2.977023,-1.834996,-0.04169446,-0.3609388,0.9286102,-4.9671,28.97418,-36.47202,1008.338
19.035516262,-15.57692,0.8463631,-2.815588,-0.02686053,-0.398516,0.911774,-4.9671,28.97418,-36.47202,1008.338
19.067690849,-5.379469,0.9055481,-2.080144,-0.02849242,-0.4097835,0.8972365,-4.204103,29.73221,-35.96957,1008.338
19.102340221,2.790776,0.9647331,-0.7318295,-0.02831622,-0.3994683,0.9132258,-4.204157,30.8748,-36.03891,1008.337
19.134513855,4.572258,1.201473,-0.3641073,-0.02865699,-0.3775714,0.9201575,-4.204157,30.8748,-36.03891,1008.337
19.169163227,4.87941,1.142288,-0.6705424,-0.03582643,-0.3686939,0.9337935,-4.581528,30.49985,-35.97136,1008.338
19.201337814,1.316446,0.372883,-0.9769775,-0.03433109,-0.3483628,0.9276813,-4.58127,30.88098,-35.97322,1008.338
19.235982895,-0.3421752,0.432068,-0.2415333,-0.02460774,-0.3648858,0.9313102,-4.58127,30.88098,-35.97322,1008.338
19.268156528,-0.3421752,0.6096231,-0.2415333,-0.02956173,-0.3789525,0.9293125,-4.971848,30.49303,-36.92574,1008.34
19.302805900,-0.9564793,0.3136979,-0.4253944,-0.03346575,-0.371196,0.925557,-4.966328,30.11758,-36.4776,1008.344
19.334980488,-0.9564793,-0.3373372,-0.5479684,-0.03248373,-0.3716789,0.9265077,-4.966328,30.11758,-36.4776,1008.344
19.367155075,-1.140771,0.01777287,-0.6092554,-0.02774173,-0.3834343,0.9157626,-4.592827,30.86961,-36.86578,1008.344
19.401804447,0.2721289,0.1953279,-0.2415333,-0.03250169,-0.3779817,0.92742,-4.599688,30.48198,-37.37396,1008.344
19.433974266,-0.2807448,-0.1597822,-0.1802462,-0.02415351,-0.3808767,0.9350302,-4.599688,30.48198,-37.37396,1008.344
19.468623161,0.0878377,0.432068,0.1261889,-0.03204222,-0.3770429,0.9235675,-4.960549,30.12327,-36.03133,1008.342
19.500797748,0.4564202,0.372883,-0.0576722,-0.03492682,-0.3861767,0.933159,-4.966328,30.11758,-36.4776,1008.34
19.535447121,-0.1578839,-0.04141214,-0.1189592,-0.03245759,-0.3663359,0.9270335,-4.966328,30.11758,-36.4776,1008.34
19.567621231,-0.8336185,0.01777287,0.06490185,-0.02907838,-0.3683206,0.9236117,-4.587306,30.49416,-36.41764,1008.34
19.602270126,-0.3421752,0.07695788,-0.1189592,-0.02761574,-0.3842869,0.9311784,-4.592827,30.86961,-36.86578,1008.34
19.634440899,0.2721289,0.1361429,-0.3641073,-0.03151144,-0.3803914,0.9302828,-4.592827,30.86961,-36.86578,1008.338
19.669089794,0.7021418,0.3136979,-0.3028203,-0.03203209,-0.3765502,0.9245353,-4.960549,30.12327,-36.03133,1008.34
19.701263905,0.3335594,0.550438,-0.0576722,-0.03343296,-0.376969,0.9322571,-4.960549,30.12327,-36.03133,1008.34
19.735913277,-0.03502312,0.1953279,-0.2415333,-0.03443961,-0.3716728,0.926044,-4.215713,30.86343,-36.93147,1008.344
19.768087387,-1.447923,-0.1597822,-0.2415333,-0.03836115,-0.378923,0.9274669,-4.215713,30.86343,-36.93147,1008.344
19.802736759,-0.2193144,0.372883,-0.0576722,-0.02670689,-0.3838692,0.9229794,-5.343754,30.88522,-36.47939,1008.344
19.834907532,0.6407114,0.1953279,-0.1802462,-0.03448992,-0.3809064,0.9245224,-4.966328,30.11758,-36.4776,1008.344
19.867081165,0.3949898,0.01777287,-0.1189592,-0.0340123,-0.3775333,0.9216538,-4.966328,30.11758,-36.4776,1008.344
19.901730537,-0.09645353,-0.04141214,-0.0576722,-0.03199979,-0.3726522,0.9264952,-5.343754,30.88522,-36.47939,1008.344
19.933905125,-0.2193144,0.2545129,-0.1802462,-0.03009433,-0.3799577,0.9244892,-4.587874,30.87448,-36.48326,1008.344
19.968554020,1.009294,0.1361429,-0.1802462,-0.03252616,-0.3760697,0.92358,-4.587874,30.87448,-36.48326,1008.344
20.000728130,-0.2807448,0.1361429,0.003614825,-0.03831882,-0.3725981,0.9294466,-4.960549,30.12327,-36.03133,1008.34
20.035373211,-0.5878968,-0.1597822,0.432624,-0.03345308,-0.3808559,0.9317431,-4.954771,30.12895,-35.58504,1008.34
20.067547798,0.579281,0.1361429,0.003614825,-0.03310731,-0.3809876,0.9148689,-4.954771,30.12895,-35.58504,1008.34
20.102197170,1.132155,0.1953279,-0.0576722,-0.03743243,-0.369783,0.9174116,-4.588132,30.49335,-36.4814,1008.34
20.134370804,0.1492681,0.1361429,0.2487629,-0.03001773,-0.3682824,0.9279587,-4.966071,30.49872,-36.47946,1008.34
20.169020176,0.1492681,0.432068,-0.1802462,-0.03247927,-0.379412,0.930782,-4.966071,30.49872,-36.47946,1008.342
20.201194763,-0.1578839,0.07695788,-0.1802462,-0.03197737,-0.3740825,0.9298573,-4.58261,30.1179,-36.03326,1008.342
20.235839844,-1.202201,-0.2781522,0.003614825,-0.03984553,-0.3750657,0.9231746,-4.588388,30.11222,-36.47954,1008.344
20.268014431,-0.5878968,-0.3965222,-0.0576722,-0.02968722,-0.3877708,0.918637,-4.588388,30.11222,-36.47954,1008.344
20.302663803,0.9478635,0.3136979,-0.1802462,-0.02662397,-0.3765403,0.929305,-4.966328,30.11758,-36.4776,1008.344
20.334837437,-0.1578839,0.1361429,-0.2415333,-0.02805563,-0.3707007,0.9303305,-4.582354,30.49903,-36.03512,1008.344
20.369486809,-0.3421752,0.3136979,0.003614825,-0.03151364,-0.3770084,0.9283828,-4.582354,30.49903,-36.03512,1008.344
20.401661396,-0.4036056,-0.04141214,0.06490185,-0.03636098,-0.3711517,0.9294403,-5.343754,30.88522,-36.47939,1008.345
20.433831215,-0.7721881,-0.04141214,-0.1189592,-0.03303418,-0.3809212,0.9235448,-4.204414,30.49367,-36.03705,1008.345
20.468480587,0.3949898,0.2545129,0.06490185,-0.0301328,-0.3824105,0.9210954,-4.204414,30.49367,-36.03705,1008.345
20.500654697,0.6407114,0.01777287,0.1261889,-0.03982301,-0.3784302,0.9274846,-5.350045,30.11727,-36.92195,1008.344
20.535304069,0.8250027,-0.04141214,0.003614825,-0.03005008,-0.3712133,0.925525,-4.587874,30.87448,-36.48326,1008.344
20.567478180,0.3335594,-0.1005972,-0.1189592,-0.02908215,-0.3741269,0.9259738,-4.587874,30.87448,-36.48326,1008.344
20.602127075,-0.09645353,-0.04141214,0.003614825,-0.02997671,-0.3759822,0.9365709,-5.344268,30.12295,-36.47567,1008.344
20.634297848,-0.3421752,0.07695788,-0.1802462,-0.03011072,-0.3770712,0.9211392,-4.971848,30.49303,-36.92574,1008.345
20.668946743,0.0878377,-0.04141214,0.06490185,-0.03110288,-0.3770811,0.9192204,-4.971848,30.49303,-36.92574,1008.345
20.701121330,-0.1578839,-0.1597822,-0.2415333,-0.03585863,-0.3745261,0.9327818,-5.349789,30.4984,-36.92381,1008.345
20.735770702,-1.263631,-0.3373372,0.003614825,-0.0305257,-0.374101,0.9283975,-4.210193,30.48798,-36.48333,1008.345
20.767944813,-0.2193144,0.1361429,0.1261889,-0.03012031,-0.388202,0.9253855,-4.588132,30.49335,-36.4814,1008.344
20.802593708,1.377876,0.432068,-0.1802462,-0.0324895,-0.3779706,0.928866,-4.588132,30.49335,-36.4814,1008.344
20.834764481,-0.5264664,0.1361429,0.1261889,-0.02957441,-0.3692926,0.9231263,-4.965556,31.26098,-36.48318,1008.344
20.869413376,-0.3421752,0.1953279,0.003614825,-0.0315621,-0.3828553,0.9254431,-4.204414,30.49367,-36.03705,1008.344
20.901587486,0.3335594,-0.1005972,0.06490185,-0.03495155,-0.3794293,0.9269489,-4.204414,30.49367,-36.03705,1008.344
20.933762074,-0.09645353,-0.2781522,0.06490185,-0.02613621,-0.3726743,0.9274043,-4.582354,30.49903,-36.03512,1008.342
20.968410969,0.3949898,-0.4557072,-0.1189592,-0.02764227,-0.3818931,0.9268604,-4.588388,30.11222,-36.47954,1008.336
21.000585079,0.3949898,-0.1005972,-0.2415333,-0.03296346,-0.3736033,0.9284244,-4.588388,30.11222,-36.47954,1008.336
21.035230160,-0.465036,0.01777287,0.003614825,-0.03304833,-0.3823847,0.9225687,-4.58261,30.1179,-36.03326,1008.336
21.067404747,0.5178506,0.2545129,-0.0576722,-0.03300986,-0.3799319,0.9259626,-4.959981,29.74295,-35.96571,1008.336
21.102054119,0.3335594,0.1361429,-0.1189592,-0.0295235,-0.3716642,0.9303362,-4.959981,29.74295,-35.96571,1008.336
21.134227753,-0.2193144,0.01777287,0.003614825,-0.03401626,-0.3794711,0.9221198,-4.960549,30.12327,-36.03133,1008.338
21.168877125,0.2106985,0.491253,0.06490185,-0.03302826,-0.3775308,0.9226086,-4.203845,30.11334,-35.97144,1008.336
21.201051712,0.5178506,0.1361429,0.003614825,-0.03639118,-0.3764985,0.9284325,-4.203845,30.11334,-35.97144,1008.336
21.235696793,-0.1578839,-0.04141214,0.003614825,-0.03542369,-0.3707082,0.9246151,-4.210449,30.10685,-36.48147,1008.336
21.267871380,-0.2193144,-0.04141214,-0.1189592,-0.024668,-0.3784806,0.9307168,-4.587049,30.8753,-36.41951,1008.336
21.302520752,0.3949898,0.1953279,0.003614825,-0.02572104,-0.3795129,0.9220421,-4.587049,30.8753,-36.41951,1008.338
21.334694385,0.7635722,0.3136979,0.1261889,-0.02958855,-0.3707562,0.9221504,-4.587306,30.49416,-36.41764,1008.338
21.369343757,0.3949898,0.07695788,0.003614825,-0.03347368,-0.3750718,0.926489,-4.587306,30.49416,-36.41764,1008.338
21.401518345,-0.465036,-0.2189672,-0.0576722,-0.03150175,-0.3711948,0.9269846,-4.587306,30.49416,-36.41764,1008.336
21.433688164,-0.7721881,-0.2781522,-0.1802462,-0.03005008,-0.3712133,0.925525,-4.582096,30.88017,-36.03698,1008.336
21.468337536,-0.5878968,-0.04141214,-0.0576722,-0.02869331,-0.3824401,0.9181896,-4.582042,29.73758,-35.96764,1008.336
21.500512123,0.02640729,-0.1005972,0.06490185,-0.03203395,-0.3799368,0.9259535,-4.582042,29.73758,-35.96764,1008.334
21.535161018,1.255016,0.372883,0.06490185,-0.03298362,-0.3765231,0.9274365,-4.588132,30.49335,-36.4814,1008.336
21.567335129,-0.5264664,-0.2189672,0.06490185,-0.03144321,-0.363888,0.9304183,-4.960293,30.5044,-36.03318,1008.336
21.601984024,-1.01791,0.1953279,0.1261889,-0.02819708,-0.3853364,0.9205711,-4.960293,30.5044,-36.03318,1008.336
21.634154797,1.193585,0.2545129,-0.2415333,-0.0315479,-0.3823588,0.926893,-4.210193,30.48798,-36.48333,1008.336
21.668804169,0.3335594,0.07695788,-0.0576722,-0.04074082,-0.3624146,0.9266611,-4.960549,30.12327,-36.03133,1008.334
21.700977802,-1.140771,-0.5148922,0.06490185,-0.03295954,-0.3706983,0.9274843,-4.960549,30.12327,-36.03133,1008.334
21.735627651,-0.2807448,-0.1597822,-0.0576722,-0.02713405,-0.38091,0.9287918,-4.588132,30.49335,-36.4814,1008.334
21.767801762,-0.2807448,-0.1005972,0.003614825,-0.03252998,-0.3809088,0.9254681,-4.582354,30.49903,-36.03512,1008.336
21.802450657,0.2106985,0.07695788,-0.4253944,-0.03102956,-0.3808829,0.9297923,-4.588132,30.49335,-36.4814,1008.336
21.834621429,0.2106985,0.1953279,-0.1189592,-0.03203439,-0.371233,0.9216872,-4.588132,30.49335,-36.4814,1008.336
21.869270325,-0.9564793,0.1361429,-0.1189592,-0.03491713,-0.3769802,0.9298608,-4.966071,30.49872,-36.47946,1008.336
21.901444435,0.2106985,0.3136979,0.1874759,-0.03158843,-0.38433,0.9230212,-4.960293,30.5044,-36.03318,1008.336
21.936093807,1.193585,0.432068,0.1261889,-0.03346977,-0.3721668,0.925549,-4.960293,30.5044,-36.03318,1008.336
21.968268394,-0.09645353,-0.2189672,0.003614825,-0.03391906,-0.3735799,0.9308435,-4.588388,30.11222,-36.47954,1008.338
22.000442028,-0.7721881,-0.3965222,-0.1189592,-0.03201604,-0.372667,0.9245672,-4.210193,30.48798,-36.48333,1008.336
22.035087109,-0.03502312,0.07695788,0.2487629,-0.0329756,-0.3745815,0.9274524,-4.210193,30.48798,-36.48333,1008.332
22.067261696,0.4564202,0.1361429,-0.1802462,-0.03100939,-0.3779632,0.9307802,-5.721951,30.50945,-36.47559,1008.332
22.101911068,0.8250027,0.07695788,0.003614825,-0.02905777,-0.3741047,0.9288658,-4.588132,30.49335,-36.4814,1008.332
22.134084702,-0.03502312,-0.04141214,-0.1802462,-0.03145109,-0.3687308,0.9318244,-4.588132,30.49335,-36.4814,1008.33
22.168734074,-0.8950489,-0.2781522,0.003614825,-0.0315178,-0.3750779,0.9269527,-4.588388,30.11222,-36.47954,1008.329
22.200908661,-0.5878968,-0.3373372,-0.0576722,-0.0286425,-0.3828775,0.9244516,-4.588388,30.11222,-36.47954,1008.33
22.235553742,0.8864331,0.1953279,0.1261889,-0.03106832,-0.3775333,0.9235543,-4.588388,30.11222,-36.47954,1008.329
22.267728329,0.2721289,-0.1005972,0.06490185,-0.03444969,-0.3731327,0.9255502,-4.582354,30.49903,-36.03512,1008.329
22.302377701,0.579281,-0.04141214,-0.0576722,-0.03831882,-0.3725981,0.9294466,-4.588132,30.49335,-36.4814,1008.329
22.334551334,-0.8336185,-0.1597822,0.003614825,-0.02565227,-0.3736476,0.9273918,-4.588132,30.49335,-36.4814,1008.327
22.369200706,0.02640729,0.1953279,0.06490185,-0.03593323,-0.385716,0.9293162,-4.960293,30.5044,-36.03318,1008.327
22.401375294,0.8864331,-0.1005972,-0.1189592,-0.02655922,-0.3716457,0.9346468,-4.588132,30.49335,-36.4814,1008.329
22.436020374,-1.325062,-0.1597822,-0.0576722,-0.03442326,-0.3735922,0.9289201,-4.588132,30.49335,-36.4814,1008.329
22.468194485,-0.6493273,-0.2189672,-0.0576722,-0.03206028,-0.3814115,0.9235316,-4.587874,30.87448,-36.48326,1008.329
22.500369072,-0.03502312,-0.04141214,0.06490185,-0.0291167,-0.3736747,0.9216399,-4.959467,30.50521,-35.96943,1008.329
22.535017967,-0.5878968,-0.2189672,0.06490185,-0.0300698,-0.3828368,0.9288033,-4.959467,30.50521,-35.96943,1008.329
22.567192078,0.2106985,0.1953279,-0.1189592,-0.03547004,-0.3780039,0.9226274,-4.587306,30.49416,-36.41764,1008.329
22.601840973,0.02640729,0.07695788,-0.0576722,-0.03249983,-0.374595,0.9260018,-4.965759,29.73726,-36.41199,1008.329
22.634011745,-0.5878968,-0.1597822,0.2487629,-0.02769518,-0.380007,0.9196464,-4.965759,29.73726,-36.41199,1008.329
22.668661117,0.5178506,0.2545129,-0.0576722,-0.02868709,-0.3848523,0.9200977,-5.337976,30.89091,-36.03311,1008.326
22.700834751,1.009294,0.3136979,0.06490185,-0.03395973,-0.3726498,0.9255496,-4.966328,30.11758,-36.4776,1008.325
22.735484123,-0.3421752,-0.3965222,-0.0576722,-0.03494797,-0.3697547,0.9226906,-4.203588,30.49448,-35.9733,1008.325
22.767658710,-1.01791,-0.3965222,0.06490185,-0.03161315,-0.3775825,0.916811,-4.203588,30.49448,-35.9733,1008.325
22.802307606,0.2106985,0.01777287,0.003614825,-0.02765431,-0.3848055,0.9268365,-4.587563,30.11303,-36.41579,1008.325
22.834478378,0.1492681,0.1361429,0.1261889,-0.03111923,-0.3751617,0.9163443,-4.593341,30.10734,-36.86206,1008.325
22.869194984,0.7021418,0.07695788,0.003614825,-0.03784882,-0.3789032,0.9303542,-4.593341,30.10734,-36.86206,1008.323
22.901369572,-0.2193144,-0.2189672,0.003614825,-0.03440931,-0.3682603,0.9279999,-4.58261,30.1179,-36.03326,1008.321
22.936018467,-0.8336185,-0.1597822,-0.1189592,-0.03016329,-0.3819547,0.9172434,-4.960293,30.5044,-36.03318,1008.321
22.968192577,0.7021418,-0.04141214,-0.1189592,-0.02859801,-0.3789685,0.9278574,-4.960293,30.5044,-36.03318,1008.321
23.000367165,0.4564202,0.1361429,0.06490185,-0.03245328,-0.3711677,0.9298857,-4.954515,30.51009,-35.5869,1008.321
23.035012245,-0.4036056,-0.1597822,-0.0576722,-0.03343125,-0.3706811,0.9294168,-5.349789,30.4984,-36.92381,1008.319
23.067186356,-0.2807448,-0.1597822,-0.3028203,-0.02864681,-0.3780457,0.9215995,-5.349789,30.4984,-36.92381,1008.319
23.101835251,0.1492681,-0.2189672,0.003614825,-0.03106206,-0.3809125,0.9259364,-4.209367,30.48879,-36.41958,1008.319
23.134009838,0.4564202,-0.2189672,-0.0576722,-0.02959022,-0.3780113,0.9254646,-5.337407,30.51058,-35.96749,1008.319
23.168659210,0.0878377,0.1953279,0.1261889,-0.03248569,-0.3731315,0.9269778,-5.337407,30.51058,-35.96749,1008.319
23.200832844,-0.2807448,-0.1597822,-0.1802462,-0.03481161,-0.3749499,0.9414445,-4.581784,30.11871,-35.96951,1008.318
23.235478401,-0.1578839,0.07695788,-0.1802462,-0.03005017,-0.3692791,0.9245768,-4.966071,30.49872,-36.47946,1008.318
23.267652988,-1.632214,-0.2781522,0.003614825,-0.03345112,-0.3794034,0.9312731,-4.966071,30.49872,-36.47946,1008.318
23.302301884,-0.09645353,-0.2189672,0.003614825,-0.02772513,-0.3901892,0.9210088,-4.966328,30.11758,-36.4776,1008.318
23.334475994,0.9478635,-0.2189672,-0.3028203,-0.02760032,-0.3678315,0.9250479,-4.588388,30.11222,-36.47954,1008.318
23.369124889,-0.5264664,-0.1005972,0.1261889,-0.02866291,-0.3809617,0.9210936,-4.588388,30.11222,-36.47954,1008.316
23.401299476,0.02640729,0.1361429,0.003614825,-0.03293688,-0.3769641,0.9332164,-4.971024,30.49384,-36.86199,1008.316
23.435945034,0.2721289,0.1953279,-0.2415333,-0.03589936,-0.3726288,0.9270138,-4.965502,30.1184,-36.41385,1008.32
23.468119144,-0.2193144,0.07695788,0.003614825,-0.02665246,-0.375599,0.9254571,-4.965502,30.1184,-36.41385,1008.322
23.502768516,0.6407114,0.2545129,0.1874759,-0.03010857,-0.3794871,0.9225652,-5.343185,30.5049,-36.41378,1008.323
23.534942627,1.255016,0.3136979,0.2487629,-0.03441513,-0.3735848,0.9298841,-4.959723,30.12408,-35.96757,1008.323
23.567117214,-0.09645353,-0.3965222,-0.2415333,-0.0305258,-0.3721668,0.9274495,-4.959723,30.12408,-35.96757,1008.323
23.601766109,-0.4036056,-0.3373372,-0.1189592,-0.0320341,-0.3770356,0.9245314,-4.57575,30.50553,-35.52509,1008.319
23.633935928,0.1492681,0.2545129,-0.0576722,-0.0290493,-0.3808669,0.933148,-4.965502,30.1184,-36.41385,1008.321
23.668585300,0.7635722,0.3136979,0.1261889,-0.02523538,-0.3741983,0.9191894,-4.965502,30.1184,-36.41385,1008.321
23.700759888,0.4564202,0.1953279,0.2487629,-0.03492326,-0.3765022,0.9289008,-4.965502,30.1184,-36.41385,1008.321
23.735409260,0.02640729,-0.1597822,-0.1189592,-0.03197761,-0.369247,0.9274871,-4.593909,30.48766,-36.92768,1008.321
23.767582893,-0.8336185,-0.3965222,0.06490185,-0.0305398,-0.3765317,0.9278956,-4.593909,30.48766,-36.92768,1008.321
23.802232265,0.3949898,0.1361429,-0.0576722,-0.03502041,-0.3833604,0.9206511,-4.960293,30.5044,-36.03318,1008.321
23.834402561,0.9478635,0.1361429,0.06490185,-0.03007455,-0.3693012,0.9216849,-4.58127,30.88098,-35.97322,1008.321
23.869051933,0.4564202,0.07695788,-0.1189592,-0.03442967,-0.3673117,0.9251159,-4.215145,30.48311,-36.86586,1008.321
23.901225567,-0.03502312,-0.1597822,-0.0576722,-0.03103206,-0.3716974,0.9250481,-4.215145,30.48311,-36.86586,1008.321
23.935874939,-0.1578839,0.07695788,0.003614825,-0.03052565,-0.3750681,0.9288716,-4.97128,30.11271,-36.86013,1008.323
23.968049526,0.02640729,-0.1005972,-0.0576722,-0.03244315,-0.3706749,0.9308537,-4.58261,30.1179,-36.03326,1008.323
24.002698898,1.070724,0.1361429,0.1261889,-0.03389874,-0.3735614,0.9332534,-4.58261,30.1179,-36.03326,1008.325
24.034869194,-0.09645353,-0.1597822,0.003614825,-0.0275617,-0.3682799,0.9298639,-5.343185,30.5049,-36.41378,1008.326
24.067043304,-0.09645353,0.372883,0.1874759,-0.03499408,-0.3818858,0.9230731,-4.58261,30.1179,-36.03326,1008.326
24.101692200,1.009294,0.1361429,-0.2415333,-0.03196743,-0.3697214,0.9289291,-4.58261,30.1179,-36.03326,1008.326
24.133866787,-0.4036056,0.01777287,0.06490185,-0.03340917,-0.3653417,0.9294606,-4.587306,30.49416,-36.41764,1008.326
24.168516159,-0.7682123,-0.3364069,-0.11907,-0.03301,-0.3770306,0.9245405,-4.966071,30.49872,-36.47946,1008.326
24.200689793,0.3381799,-0.03955629,-0.17991,-0.02812856,-0.3746356,0.9235508,-4.966071,30.49872,-36.47946,1008.321
24.235335350,-0.03196328,-0.03919686,0.004452439,-0.02709803,-0.3702388,0.9279154,-4.588388,30.11222,-36.47954,1008.321
24.267509937,0.4587234,0.1382578,0.004415085,-0.02958008,-0.3775185,0.9264325,-4.215713,30.86343,-36.93147,1008.325
24.302158832,0.2720916,0.1963534,0.06581715,-0.03343736,-0.3702031,0.9284568,-4.215713,30.86343,-36.93147,1008.325
24.334332943,-0.3418956,0.01831367,0.1270473,-0.03249767,-0.3770109,0.9274279,-4.210449,30.10685,-36.48147,1008.325
24.368981838,-0.1562196,0.2547689,0.1879304,-0.03255842,-0.3809347,0.9220942,-4.593084,30.48848,-36.86392,1008.325
24.401156425,1.070269,0.4903775,0.1259543,-0.03539319,-0.371164,0.9284672,-4.593084,30.48848,-36.86392,1008.325
24.435801983,0.2068952,-0.3976934,0.002808367,-0.03875846,-0.3638474,0.9309689,-5.337407,30.51058,-35.96749,1008.323
24.467975616,-0.344278,-0.2184614,-0.2420628,-0.03054185,-0.37605,0.9274176,-4.593909,30.48766,-36.92768,1008.325
24.502624988,-0.2200796,0.07806945,0.003302067,-0.03004176,-0.3750742,0.928385,-4.593909,30.48766,-36.92768,1008.322
24.534799576,-0.157675,0.01836201,0.003403942,-0.0285939,-0.3799319,0.9288135,-5.344525,29.74182,-36.47381,1008.326
24.566973209,0.4554792,0.07734229,0.0646771,-0.03102383,-0.3736242,0.9269601,-4.203331,30.87561,-35.97516,1008.321
24.601622581,0.1466558,0.1953541,0.06450846,-0.03782499,-0.368243,0.9280319,-4.203331,30.87561,-35.97516,1008.321
24.633792877,-1.080045,-0.218679,0.003266077,-0.03151379,-0.3741072,0.9269607,-4.97128,30.11271,-36.86013,1008.326
24.668442249,-0.5228733,-0.09951638,0.06484605,-0.02962052,-0.3814238,0.9235088,-5.344525,29.74182,-36.47381,1008.326
24.700616836,0.644412,0.1371095,-0.05787685,-0.03105805,-0.3799417,0.9259443,-5.344525,29.74182,-36.47381,1008.325
24.735266209,0.7635387,0.07713672,0.1257576,-0.03346776,-0.3716814,0.925553,-4.576832,30.12359,-35.58698,1008.323
24.767439842,-0.4052476,-0.3965273,-0.1196914,-0.03782494,-0.3692101,0.928506,-4.971024,30.49384,-36.86199,1008.323
24.802089214,-0.4026597,-0.09965982,-0.1806835,-0.03056608,-0.3789734,0.9259477,-4.971024,30.49384,-36.86199,1008.321
24.834259510,0.4563474,-0.04060711,0.1259113,-0.0329637,-0.3687678,0.9260542,-4.204414,30.49367,-36.03705,1008.321
24.868908882,-0.4039082,0.314495,0.2479707,-0.03440721,-0.3697091,0.928952,-4.21597,30.48229,-36.92961,1008.321
24.901082993,0.5794488,0.1953996,0.06373338,-0.03054591,-0.3760537,0.9269356,-5.344011,30.50409,-36.47753,1008.321
24.935731888,-0.2819827,-0.04158533,-0.05839009,-0.03044905,-0.3633928,0.9323411,-5.344011,30.50409,-36.47753,1008.321
24.967906475,-1.505818,-0.5145059,-0.3033,-0.03495575,-0.3765317,0.9250448,-4.588132,30.49335,-36.4814,1008.321
25.002555847,0.2796125,-0.2171766,-0.1802979,-0.02912825,-0.386258,0.9263563,-5.338233,30.50977,-36.03125,1008.315
25.034725666,0.3382078,0.01961334,-0.179909,-0.02561982,-0.3726509,0.9307737,-5.338233,30.50977,-36.03125,1008.315
25.069375038,-0.02997068,-0.03921236,0.06550968,-0.02961028,-0.3828652,0.9254248,-4.581528,30.49985,-35.97136,1008.318
25.101549149,0.460207,0.2561114,-0.05727372,-0.03396164,-0.3750694,0.9264936,-5.33849,30.12864,-36.02939,1008.318
25.133723259,-0.3387415,-0.09974531,0.00428515,-0.032492,-0.3687851,0.9241217,-5.33849,30.12864,-36.02939,1008.318
25.168372631,-0.519503,0.0189697,0.06541859,-0.03017929,-0.386805,0.9176856,-4.203845,30.11334,-35.97144,1008.319
25.200547218,1.137786,0.4914439,0.004095613,-0.03645202,-0.378488,0.9221507,-4.587563,30.11303,-36.41579,1008.318
25.235192299,-0.09377313,-0.16069,0.003693276,-0.03824589,-0.3686632,0.9362264,-4.587563,30.11303,-36.41579,1008.314
25.267365932,-0.828686,-0.4556999,-0.1188572,-0.03203204,-0.3775173,0.9250094,-4.959723,30.12408,-35.96757,1008.314
25.302015304,0.09372904,-0.09998184,-0.05733705,-0.03147722,-0.3740739,0.9312986,-4.959467,30.50521,-35.96943,1008.314
25.334189892,-0.1522394,0.07738665,0.004068264,-0.03295323,-0.3750447,0.9303403,-4.959467,30.50521,-35.96943,1008.312
25.368839264,0.5226985,0.1955468,0.004108083,-0.03001547,-0.3726325,0.9303328,-4.960293,30.5044,-36.03318,1008.314
25.401013374,-0.154453,-0.1598219,-0.05706101,-0.0339355,-0.3697263,0.9270194,-4.582354,30.49903,-36.03512,1008.312
25.435658932,-0.8889551,-0.1590832,-0.05665678,-0.02957612,-0.3755806,0.9259664,-4.582354,30.49903,-36.03512,1008.312
25.467832565,-0.2109267,0.1377131,0.1273391,-0.03349355,-0.3837941,0.9283453,-4.966328,30.11758,-36.4776,1008.312
25.502481937,0.9547483,0.01892362,0.004763574,-0.03542961,-0.3740986,0.9255514,-4.581784,30.11871,-35.96951,1008.312
25.534656525,-0.2756505,0.01832695,-0.05648527,-0.03488312,-0.3667943,0.9289804,-4.581784,30.11871,-35.96951,1008.312
25.569305897,-0.5796081,-0.3952504,-0.1176778,-0.03152783,-0.3775049,0.9269328,-4.960293,30.5044,-36.03318,1008.312
25.601479530,0.4642957,0.1377449,-0.05596887,-0.03444548,-0.3760303,0.9274542,-4.588388,30.11222,-36.47954,1008.314
25.633650303,-0.3342261,0.2560915,0.188888,-0.03253028,-0.3751063,0.9226239,-4.588388,30.11222,-36.47954,1008.314
25.668299198,1.200283,0.3735041,-0.0563589,-0.03248764,-0.3745839,0.9274479,-4.210449,30.10685,-36.48147,1008.314
25.700473308,-0.216101,0.01772602,-0.05586016,-0.03042066,-0.3623998,0.935241,-4.966071,30.49872,-36.47946,1008.315
25.735122204,-1.868262,-0.5730325,0.00555668,-0.02964508,-0.3775776,0.9187207,-4.966071,30.49872,-36.47946,1008.315
25.767296791,0.4699306,0.01966826,-0.1781348,-0.02816473,-0.3824056,0.9230051,-5.338233,30.50977,-36.03125,1008.317
25.801946163,0.4050697,-0.0396586,-0.05512479,-0.03392752,-0.3668177,0.9265613,-4.594423,29.7254,-36.92396,1008.317
25.834115982,-0.2707932,-0.2166435,-0.2388766,-0.02960441,-0.3785077,0.9240146,-4.594423,29.7254,-36.92396,1008.317
25.868765354,0.2815536,0.1978969,-0.0547548,-0.03052188,-0.3692618,0.9265094,-4.966071,30.49872,-36.47946,1008.317
25.900939941,-0.08777168,-0.03964961,-0.05441628,-0.02997725,-0.3653442,0.9313565,-4.959723,30.12408,-35.96757,1008.317
25.935588837,-1.067672,-0.03934567,0.1293376,-0.02665025,-0.378982,0.9273571,-5.343442,30.12377,-36.41192,1008.317
25.967762947,0.2241363,0.1971644,-0.1160111,-0.03300193,-0.3760561,0.9250305,-5.343442,30.12377,-36.41192,1008.317
26.002411842,0.2832923,-0.1000525,0.06772494,-0.03637522,-0.3706811,0.9275163,-4.582354,30.49903,-36.03512,1008.317
26.034582615,-0.268771,-0.2178103,-0.1775263,-0.032506,-0.3731499,0.9245678,-4.954515,30.51009,-35.5869,1008.317
26.069231987,0.1002008,-0.03963383,-0.05476905,-0.03253419,-0.3780113,0.9235641,-4.954515,30.51009,-35.5869,1008.317
26.101406574,-0.02281795,0.1378972,0.06773995,-0.02615212,-0.3794588,0.9287946,-5.344525,29.74182,-36.47381,1008.317
26.136055470,0.4680696,0.1377743,0.006251545,-0.02471474,-0.3780395,0.9249368,-4.587563,30.11303,-36.41579,1008.315
26.168229580,0.5256079,-0.09969404,-0.1778847,-0.02949301,-0.37212,0.9341882,-4.587563,30.11303,-36.41579,1008.315
26.200404167,-0.764664,-0.04017684,-0.05523902,-0.02952375,-0.3668287,0.9279661,-4.972105,30.1119,-36.92389,1008.315
26.235049248,-0.6382359,-0.09879631,-0.05490061,-0.0290354,-0.3745679,0.9317538,-4.588646,29.73108,-36.47768,1008.315
26.267222881,-0.5747241,0.1379195,0.06801241,-0.02956389,-0.3765366,0.9278865,-4.588646,29.73108,-36.47768,1008.311
26.301872253,1.083567,0.1373509,0.06788687,-0.03492316,-0.3784363,0.9298488,-4.965245,30.49953,-36.41571,1008.311
26.334046841,0.6492718,0.1957349,-0.1157703,-0.03735514,-0.371647,0.9275175,-4.587049,30.8753,-36.41951,1008.311
26.368785858,0.2169101,-0.3370653,0.00698542,-0.03145515,-0.3687345,0.9313424,-4.587049,30.8753,-36.41951,1008.317
26.400960445,-0.8267874,-0.2766545,0.1297232,-0.02670106,-0.3785446,0.9210953,-4.959467,30.50521,-35.96943,1008.317
26.435606003,0.8940978,0.196647,0.251843,-0.03396962,-0.377978,0.9269517,-4.588388,30.11222,-36.47954,1008.315
26.467779636,0.2762843,0.1958825,-0.05434978,-0.03238867,-0.3633718,0.9338053,-4.588388,30.11222,-36.47954,1008.313
26.502429008,-2.053483,-0.3366209,-0.05434193,-0.03204614,-0.3799479,0.9245075,-4.960549,30.12327,-36.03133,1008.317
26.534603596,0.2848101,-0.09852763,-0.05446662,-0.02910808,-0.3833382,0.9273442,-4.959723,30.12408,-35.96757,1008.317
26.569252491,-0.08644715,-0.09816958,0.006963361,-0.03005204,-0.3726657,0.9259949,-4.959723,30.12408,-35.96757,1008.317
26.601426601,-0.1466579,-0.1568989,0.06779911,-0.02868738,-0.3790497,0.9172536,-4.965502,30.1184,-36.41385,1008.317
26.636071682,0.7717422,0.1978048,0.00654153,-0.02753327,-0.3682541,0.9332378,-4.587563,30.11303,-36.41579,1008.317
26.668246269,-1.254771,-0.2163498,0.06818629,-0.03192881,-0.3701698,0.933745,-4.587563,30.11303,-36.41579,1008.317
26.700420380,-0.3295304,-0.03804283,0.007025074,-0.02523705,-0.3814533,0.9225035,-4.581528,30.49985,-35.97136,1008.315
26.735069275,-2.357907,-1.103168,-0.5436655,-0.04482491,-0.2741781,1.036841,-4.58261,30.1179,-36.03326,1008.315
26.767243862,-131.361,-23.59313,-12.3106,-0.1302136,0.01133704,1.248697,-4.58261,30.1179,-36.03326,1008.317
26.801893234,-292.063,-14.24189,-33.5772,-0.1657264,-0.4146315,1.061393,-4.965502,30.1184,-36.41385,1008.317
26.834063053,-407.5522,-43.53848,-72.43317,-0.08758997,-0.6851702,1.024693,-5.261831,32.48934,-30.23891,1008.319
26.868712425,-481.5144,-52.47541,-140.7682,0.1170702,-1.785793,0.3013149,-5.261831,32.48934,-30.23891,1008.319
26.900887012,-258.6449,-31.22799,-188.6946,0.2648065,-2.225052,0.2081092,-6.967523,39.93396,-16.42989,1008.317
26.935535908,-179.0925,0.199249,-230.3698,0.2027305,-1.533482,0.09388988,-11.28562,45.22697,0.08119583,1008.317
26.967710018,-80.06664,27.2468,-240.5435,0.2410053,-1.393728,0.05130493,-19.19521,42.00136,7.279367,1008.315
27.002358913,44.69853,47.19215,-234.2309,0.3284509,-1.190939,-0.09388506,-19.19521,42.00136,7.279367,1008.314
27.034529686,72.03506,59.73937,-226.3862,0.5165751,-0.7231447,-0.1751698,-26.35845,35.20137,9.071283,1008.312
27.069179058,53.05307,81.51946,-210.0225,0.5759003,-0.6182882,-0.134853,-33.57752,28.7908,6.52573,1008.31
27.101353169,48.75294,87.02367,-196.0491,0.5448723,-0.3405661,0.04558389,-33.57752,28.7908,6.52573,1008.31
27.136002541,50.35013,85.36649,-174.9051,0.5830127,-0.2199051,0.1705786,-38.23902,21.93805,2.056192,1008.31
27.168176651,28.17375,81.99294,-151.0031,0.6836812,-0.02837345,0.2107422,-42.05776,15.0337,-0.5683498,1008.308
27.200351238,-3.462914,83.05827,-133.2299,0.6833581,-0.02528233,0.1707648,-42.05776,15.0337,-0.5683498,1008.304
27.234996319,-45.97276,78.9745,-112.0859,0.7567382,0.09299307,0.1349052,-43.62011,8.53043,-4.099226,1008.302
27.267169952,-87.99116,97.20349,-88.8581,0.7061476,0.03257384,0.00907726,-43.66994,3.149082,-7.643421,1008.302
27.301819324,-79.82092,152.3047,-61.27893,0.8855044,0.2786931,-0.3115789,-43.66994,3.149082,-7.643421,1008.301
27.333993912,-127.2452,220.3675,-23.70999,0.6498113,0.2131012,-0.2202685,-43.72951,-0.781812,-12.02356,1008.299
27.368643284,-766.4286,-175.8762,44.37989,-8.571704,-1.720863,9.988211,-41.54983,-2.804963,-18.72006,1008.297
27.400816917,961.6703,-48.33246,-53.80192,2.374106,2.837565,2.598709,-41.54983,-2.804963,-18.72006,1008.297
27.435461998,-219.8823,30.67953,-6.120614,-0.08764473,0.2664064,0.6156093,-39.69192,0.1839647,-21.35855,1008.295
27.467636585,32.59674,5.821825,38.37376,0.5677909,0.03800935,1.254936,-38.58558,-6.33415,-23.11784,1008.295
27.502285957,-48.49141,-26.55238,49.95701,0.7974166,-0.05699489,1.041858,-38.58558,-6.33415,-23.11784,1008.294
27.534459591,6.304522,-39.39553,66.5045,0.5072517,-0.3017371,0.7769663,-38.20739,-5.958385,-23.12163,1008.292
27.569108963,184.1456,-46.32017,85.25833,0.5131887,-0.3702845,0.7035639,-39.32258,-4.019557,-21.78629,1008.292
27.601283550,190.7801,-50.1672,108.3635,0.3916288,0.4987992,0.9745526,-39.32258,-4.019557,-21.78629,1008.292
27.635928631,2.98728,-71.29624,126.5658,0.3502616,0.2048381,0.7816434,-39.68717,-1.334884,-20.90483,1008.292
27.668102741,27.37515,-75.97186,152.3676,0.1952149,-0.2427957,0.6661299,-40.41498,-1.296535,-18.73331,1008.292
27.702751636,116.5107,-81.12096,183.5627,0.2106353,-0.07629444,0.6784446,-40.41498,-1.296535,-18.73331,1008.294
27.734926224,72.64937,-61.05724,205.3809,0.3927398,0.09186641,0.2578282,-41.88394,2.258457,-15.61867,1008.294
27.767100334,23.68933,-51.41008,235.8406,0.3305805,-0.2617789,0.1166769,-42.22969,8.389574,-13.47886,1008.294
27.801749706,132.9126,-38.27101,267.5872,0.7133107,-0.6832499,0.2788128,-42.22969,8.389574,-13.47886,1008.294
27.833920002,150.1131,7.834116,276.1061,0.5056427,-0.7285168,0.4432932,-39.94613,14.848,-12.62953,1008.294
27.868569374,99.18731,55.71479,256.862,0.4333128,-0.6848088,0.5257864,-36.18414,23.22004,-14.47524,1008.294
27.900743961,94.27288,73.29274,230.6925,0.09293592,-0.9465531,0.8564922,-36.18414,23.22004,-14.47524,1008.292
27.935392857,51.76303,63.1721,173.9407,-0.09863826,-1.131623,1.02931,-30.12613,29.17616,-18.87157,1008.294
27.967566967,29.70951,59.44345,125.2175,0.05145964,-1.175035,0.9094616,-21.8612,33.57968,-23.01673,1008.291
28.002215862,17.9763,73.52948,80.47794,-0.006652752,-0.879844,0.8198935,-15.40636,35.74021,-25.73877,1008.291
28.034386635,56.12459,69.56409,58.47591,-0.0143506,-0.8996435,1.01694,-15.40636,35.74021,-25.73877,1008.291
28.069036007,65.40058,62.28433,43.03158,0.0526522,-0.6020003,0.9483966,-10.89394,36.03418,-27.54896,1008.293
28.101209641,56.49317,55.24131,32.42892,0.06377458,-0.6070961,1.113095,-6.77731,35.5542,-30.69234,1008.299
28.135859013,63.0048,20.79563,32.24506,-0.2065304,-1.628128,1.845623,-6.77731,35.5542,-30.69234,1008.297
28.168033600,-12.1246,-32.17495,-29.34839,0.1882608,-0.1813124,1.144845,-3.405773,33.95293,-32.9337,1008.297
28.202682495,-7.763042,-9.684649,-11.3913,-0.1872514,-0.1281137,0.6258181,-2.290006,31.63377,-34.20343,1008.302
28.234852791,22.39929,-4.772293,1.172542,0.02506895,-0.4026797,0.5309576,-2.290006,31.63377,-34.20343,1008.306
28.267026901,42.17988,8.662705,6.443226,0.03323712,-0.3281828,0.9445691,-3.795986,31.66093,-33.74941,1008.306
28.301676273,14.96621,-2.345707,-3.669133,-0.1459442,-0.3764747,1.3647,-3.819098,31.63819,-35.53453,1008.309
28.333850384,-37.74109,-8.560133,-7.039919,0.04753786,-0.2347515,0.858928,-3.819098,31.63819,-35.53453,1008.309
28.368499279,-30.18514,-10.03976,2.766005,-0.05456891,-0.3691914,0.7941844,-4.198068,30.11903,-35.52516,1008.313
28.400673866,-17.10046,-8.027468,0.4983847,-0.01218335,-0.5812691,0.8884405,-4.174441,30.90404,-33.74376,1008.309
28.435318947,-0.4528232,1.087024,-0.9725038,-0.03178925,-0.5102405,0.9600629,-4.174441,30.90404,-33.74376,1008.31
28.467493057,-9.114511,-2.641632,-1.340226,-0.03795478,-0.4041078,0.8718255,-4.546345,31.29622,-33.2974,1008.312
28.502142429,20.61781,-5.364142,0.6209587,0.1017268,-0.3800342,0.8736126,-4.551866,31.67167,-33.74554,1008.314
28.534317016,6.243092,0.8502842,-0.4822077,-0.01390627,-0.424933,0.9562613,-4.551866,31.67167,-33.74554,1008.314
28.568965912,-14.3361,-1.043636,-6.733484,-0.03430079,-0.4169647,0.9063894,-4.551866,31.67167,-33.74554,1008.314
28.601140022,-9.114511,-1.872226,-11.20744,0.01021148,-0.4639588,0.8834147,-4.179961,31.27948,-34.19189,1008.314
28.635785103,10.35893,-3.647777,-11.63645,0.01396943,-0.4438384,0.9143934,-4.179961,31.27948,-34.19189,1008.317
28.667959690,-3.155761,-3.588592,-7.959225,-0.01779327,-0.3523629,0.923156,-5.307745,31.68241,-33.74168,1008.319
28.702609062,-0.8214056,-7.435618,-2.565967,0.02002267,-0.4185425,0.9256315,-5.313008,32.43899,-34.19168,1008.319
28.734783173,-4.4458,-6.192733,-3.607846,0.03795076,-0.4448236,0.8649976,-5.313008,32.43899,-34.19168,1008.315
28.766957283,-10.40455,0.08087893,-2.811115,0.01015597,-0.4509529,0.8705084,-6.058415,32.07915,-33.35714,1008.315
28.801606655,2.065824,1.087024,-2.504679,0.01380032,-0.4420953,0.9515234,-6.435785,31.7042,-33.28959,1008.319
28.833776951,-11.5103,2.92176,1.662838,0.009933445,-0.3573803,0.856822,-6.435785,31.7042,-33.28959,1008.322
28.868548393,-29.26369,5.5259,8.955994,-0.01807686,-0.4082312,0.916432,-5.679392,32.45573,-33.29718,1008.322
28.900722980,-16.42473,-3.411037,7.546392,-0.01808807,-0.4677204,0.9438977,-6.051811,32.08565,-32.84711,1008.322
28.935371876,-27.42077,-2.996742,6.075504,-0.01850713,-0.5275431,0.8648425,-6.051811,32.08565,-32.84711,1008.324
28.967545986,-0.575684,0.6135441,12.20421,-0.06003829,-0.5230319,0.8565912,-5.661286,33.61618,-31.96392,1008.324
29.002194881,-2.172875,4.874865,12.75579,-0.18137,-0.4256266,0.9472142,-5.661029,33.99732,-31.96578,1008.326
29.034365654,-19.49625,7.005525,14.77826,-0.2979183,-0.5685551,0.9683315,-4.910928,33.9809,-32.41593,1008.327
29.069015026,-10.46598,17.89557,15.57499,-0.2360721,-0.4152428,0.9367243,-4.910928,33.9809,-32.41593,1008.327
29.101188660,7.348839,22.80792,16.92331,-0.2088377,-0.438079,0.7622801,-4.522258,33.98609,-31.58906,1008.327
29.135838032,15.88767,39.97158,18.88449,-0.3007915,-0.4654158,0.8087027,-3.376572,33.21989,-30.63482,1008.329
29.168012619,24.91794,52.93309,18.33291,-0.5049369,-0.7252702,1.031631,-3.376572,33.21989,-30.63482,1008.329
29.202661514,53.29879,63.76395,11.03975,-0.2598459,-0.4033556,0.8893262,-1.87116,33.57306,-31.15445,1008.327
29.234832287,17.54629,66.95995,17.29103,-0.2322924,-0.287192,0.8018209,0.007036209,32.39226,-31.98735,1008.327
29.269480705,-9.790245,59.14752,26.66794,-0.3625269,-0.8148444,0.7741041,0.007036209,32.39226,-31.98735,1008.327
29.301655292,17.17771,68.67632,19.92637,-0.3278033,-0.4094198,0.8773783,2.268125,31.21096,-32.43965,1008.329
29.333829880,-32.33521,60.21285,21.33597,0.012975,-0.4621512,0.8048378,4.99351,30.42727,-31.11095,1008.329
29.368479252,-46.34134,71.1029,32.85793,-0.01849699,-0.3098531,0.6444353,4.99351,30.42727,-31.11095,1008.329
29.400652885,-37.61823,68.38039,45.42177,-0.2159641,-0.6278719,0.8191039,7.271934,29.26303,-30.22441,1008.329
29.435297966,-60.90035,53.05146,42.23485,-0.1323832,-0.2254637,0.8144115,10.33615,29.64101,-27.11777,1008.329
29.467472553,-66.18336,41.09609,41.43811,0.05936555,-0.6846828,0.7418385,10.33615,29.64101,-27.11777,1008.329
29.502121925,12.69329,25.82636,54.98255,0.3299911,-0.09407233,0.7788863,12.62138,30.00699,-25.7924,1008.331
29.534295559,-92.35272,-0.3926012,40.33495,0.16475,-0.5483041,1.312185,14.52181,29.9907,-24.97326,1008.331
29.568944931,-42.04121,18.01394,47.44424,-0.2528903,-0.674968,0.9193161,14.52181,29.9907,-24.97326,1008.331
29.601119518,32.35102,21.26911,15.51371,-0.9058474,-0.5795668,0.4070819,16.42859,29.59978,-23.64223,1008.331
29.635764599,-34.05526,19.37519,3.869171,-1.016776,-0.3570514,0.8042269,17.94638,29.96513,-23.20554,1008.331
29.667938709,-42.34837,13.8118,-5.99804,-0.683156,-0.7814264,0.8728073,17.94638,29.96513,-23.20554,1008.331
29.702587604,-8.868789,9.077001,-1.524087,-0.4160022,-0.4492228,0.5052876,19.0915,29.57926,-22.31692,1008.335
29.734762192,-0.3299623,9.728036,-0.05319853,-0.4700471,-0.438316,0.6890416,20.23739,30.33679,-21.43388,1008.335
29.769411564,-8.868789,9.195371,3.133727,-0.5489288,-0.6359915,0.7474338,20.23739,30.33679,-21.43388,1008.335
29.801585674,-4.752952,8.781075,8.22055,-0.3633524,-0.2948661,0.5402907,19.8658,29.96752,-20.92005,1008.335
29.833755970,-3.770066,15.35061,10.97847,-0.6457167,-0.6386005,0.7873576,19.48703,29.97208,-20.98187,1008.335
29.868405342,-15.07326,5.28916,5.891643,-0.6036302,-0.5187383,0.6852871,19.48703,29.97208,-20.98187,1008.33
29.900578976,-0.1456711,2.270724,7.607679,-0.3898899,-0.4176559,0.4614422,20.24265,29.58021,-20.98388,1008.336
29.935228348,-10.52741,1.323764,9.936586,-0.6374199,-0.6686222,0.8019746,20.63241,29.96734,-20.09511,1008.336
29.967402935,-0.08424069,-9.566278,13.67509,-0.5188887,-0.4069767,0.378384,20.63241,29.96734,-20.09511,1008.336
30.002052307,-8.254485,-11.16427,25.62606,-0.7117019,-0.7712017,0.6066122,21.01035,29.96197,-20.09705,1008.338
30.034222126,18.34488,-24.8952,26.36151,-0.4572119,-0.2708928,0.5673922,21.01695,29.96847,-19.58701,1008.338
30.068871021,5.690218,-27.67689,24.0326,-0.5295715,-0.5085741,0.6663638,22.13261,29.9345,-20.99541,1008.34
30.101045609,-19.49625,-28.74222,29.60972,-0.5515601,-0.5844116,0.6996838,22.13261,29.9345,-20.99541,1008.337
30.135694981,32.84246,-25.07275,25.99379,-0.5997018,-0.4882706,0.6734516,22.12054,29.16086,-21.88425,1008.337
30.167868614,8.024575,-25.36868,23.84874,-0.4730319,-0.2266994,0.8122779,22.86409,27.99535,-22.7751,1008.337
30.202517986,-7.271599,-25.90134,40.27366,-0.5546237,-0.5735104,0.852596,22.86409,27.99535,-22.7751,1008.336
30.234688759,38.12548,-22.76454,37.94476,-0.468839,-0.2346393,0.7924113,22.85202,27.22171,-23.66394,1008.337
30.269337654,15.82624,-16.72766,41.92841,-0.5337529,-0.3449892,0.7284834,22.47382,26.84595,-23.66014,1008.342
30.301512241,2.434406,-12.28879,44.19603,-0.5788,-0.3184573,0.9301162,22.47382,26.84595,-23.66014,1008.343
30.336160660,3.171571,-5.304957,57.61789,-0.4915143,-0.4368667,0.8632556,23.65226,25.28736,-24.99767,1008.343
30.368335247,1.635811,3.217685,66.93351,-0.6471661,-0.3291333,0.6973785,24.0234,23.75177,-25.43843,1008.341
30.400509834,4.768762,15.23224,74.90083,-0.749265,-0.3095317,0.9076804,24.0234,23.75177,-25.43843,1008.345
30.435154915,-31.41375,14.87713,78.27161,-0.6764715,-0.3759174,0.7170281,25.53991,22.21145,-24.99245,1008.347
30.467329025,15.70338,20.914,80.35537,-0.6623848,-0.1236613,0.6452304,27.05172,21.04739,-24.93085,1008.343
30.501978397,4.52304,25.47125,77.10716,-0.6838884,-0.3596399,0.8719534,27.05172,21.04739,-24.93085,1008.343
30.534152985,-24.8407,39.79402,70.05915,-0.428741,-0.09118047,0.7908099,28.95108,19.44305,-24.10396,1008.344
30.568801880,-7.39446,44.11453,70.18172,-0.9346743,-0.362707,0.8790881,30.85155,18.28417,-23.21548,1008.346
30.600975990,-52.85297,42.99001,66.56579,-0.6009431,0.02537734,0.6256418,30.85155,18.28417,-23.21548,1008.346
30.635621071,-52.97583,39.4981,60.3758,-0.9036404,-0.4075677,0.9353047,32.37936,16.37409,-21.87507,1008.346
30.667795658,-20.84772,26.59577,56.147,-0.7157242,0.1661635,0.4292897,34.67564,15.98917,-19.65341,1008.346
30.702445030,-89.77264,34.70411,66.38193,-0.9746038,-0.4778536,0.7127036,34.67564,15.98917,-19.65341,1008.346
30.734618664,-26.74504,29.19991,87.03566,-0.8921119,-0.3248782,0.5247332,35.82602,14.84672,-18.31479,1008.348
30.769268036,-53.77442,16.77105,95.55455,-0.8982659,-0.3574819,0.44692,36.98795,13.71564,-16.0836,1008.346
30.801442623,-84.18247,7.242265,95.18683,-0.9504041,-0.1773768,0.5433632,36.98795,13.71564,-16.0836,1008.346
30.836087704,-186.8941,-14.71537,41.43811,-0.7159911,-0.3481504,0.7046118,38.89421,12.56245,-14.74885,1008.348
30.868261337,-254.1604,-17.43789,3.869171,-0.9481028,-0.1285271,1.026226,40.04326,10.65692,-13.47026,1008.348
30.900435925,-194.6958,-50.87742,-8.326946,-1.304725,-0.5701703,1.369096,40.04326,10.65692,-13.47026,1008.348
30.935085297,-101.0144,-20.45632,-5.017447,-0.7623023,0.320825,0.5028172,40.45194,12.20532,-11.18448,1008.344
30.967259407,-321.7953,-38.27101,-29.65483,-0.7166538,-0.08691808,0.1505442,40.08184,15.26544,-10.75115,1008.344
31.001908302,53.7288,44.70638,19.55865,0.1055288,-0.05075895,-0.1696471,40.08184,15.26544,-10.75115,1008.344
31.034079075,44.32995,115.4917,67.05608,0.06668517,0.7689637,-0.07817694,40.12357,17.2109,-7.636492,1008.344
31.068727970,-98.68005,107.1466,88.81298,-0.113333,-0.4461215,0.2841432,40.15271,17.62046,-5.406949,1008.343
31.100902081,222.9696,151.8313,101.3768,-0.1467627,-0.142609,-0.4731559,41.72097,15.75017,-0.9425755,1008.343
31.135551453,-107.4646,125.5531,118.4146,-2.173182,0.3562804,1.23349,41.72097,15.75017,-0.9425755,1008.337
31.167725563,-119.4435,22.86711,48.6087,-1.083032,-0.4367783,-0.07353313,42.89844,11.9682,2.640474,1008.337
31.202374935,-64.89333,66.07217,70.42687,-1.164415,-0.3393714,-0.3978024,43.37095,7.422449,5.338232,1008.335
31.234544754,-4.200078,66.24973,71.77518,-0.759499,-0.1764845,0.08947368,43.37095,7.422449,5.338232,1008.335
31.269194126,-7.025877,72.16823,66.38193,-1.388502,-0.2089778,0.6320224,42.96289,4.794887,8.031197,1008.335
31.301368713,12.26327,52.5188,50.44731,-1.332717,-0.075497,-0.4022505,42.606,1.773927,9.833139,1008.335
31.336018085,4.891623,54.41272,55.28898,-1.062246,-0.2427797,-0.01669781,42.606,1.773927,9.833139,1008.335
31.368191719,67.24349,60.98226,68.34312,-1.041574,0.007692339,-0.0008478053,42.62619,-1.316736,11.5697,1008.335
31.400366306,53.05307,49.20444,57.31145,-1.439058,0.001099131,0.1469246,41.89817,-2.802109,13.81242,1008.335
31.435011387,-3.155761,34.40818,52.34721,-0.9523454,-0.3172935,0.1474702,41.89817,-2.802109,13.81242,1008.333
31.467185497,68.22638,71.45801,67.79153,-1.097364,-0.08103986,-0.1509606,41.15916,-4.679173,15.22818,1008.333
31.501834392,46.84859,50.56569,53.87938,-1.27476,0.4579684,0.08119608,39.68156,-5.385856,17.91733,1008.333
31.534008980,30.13952,45.29823,39.96723,-1.225928,0.3428906,-0.207962,39.68156,-5.385856,17.91733,1008.335
31.568658352,41.93416,36.53885,27.8324,-1.214819,0.1497862,-0.1281997,39.32571,-6.882282,19.71183,1008.335
31.600831985,-10.7117,16.77105,11.7752,-1.324956,0.1678037,-0.002667586,38.58639,-7.99789,21.06012,1008.333
31.635477543,-24.47211,13.10158,9.139854,-1.15604,0.3402585,-0.2524978,38.58639,-7.99789,21.06012,1008.335
31.667652130,-22.0149,8.189225,6.994809,-1.03378,0.127008,0.05597505,37.09171,-8.340496,22.40856,1008.335
31.702301025,-30.308,-5.600883,-6.672197,-1.224409,0.4675067,0.02874895,36.73085,-8.699205,23.75119,1008.331
31.734475136,-37.12678,-18.44403,4.665902,-0.9566022,0.2674863,-0.1195168,36.73085,-8.699205,23.75119,1008.331
31.769124031,18.46774,-21.16654,-1.401513,-1.185837,0.2536713,0.01843217,35.96341,-8.699839,22.8625,1008.331
31.801298618,16.13339,-37.56079,-16.41683,-1.040601,0.1939339,-0.2075453,35.97471,-9.069603,23.75692,1008.331
31.835944176,52.19304,-12.99901,6.504513,-0.9082847,0.3539974,-0.4513521,35.97471,-9.069603,23.75692,1008.33
31.868117809,1.205798,-12.76227,10.24302,-1.09291,0.368714,-0.3613021,35.97497,-8.688469,23.75506,1008.328
31.902767181,3.601584,-11.16427,5.891643,-0.9029138,0.2780158,-0.3561107,36.34733,-7.175801,23.23565,1008.328
31.934941769,28.72662,3.158499,3.195014,-0.844121,0.2473977,-0.1973699,36.34733,-7.175801,23.23565,1008.328
31.967115402,-4.630091,7.360635,12.51064,-0.8564109,0.3131044,-0.1817715,36.34187,-7.94294,22.85684,1008.332
32.001764774,-35.89817,3.39524,14.53311,-0.8096964,0.1666756,-0.06869872,36.34815,-7.174989,23.2994,1008.332
32.033935070,-53.40584,-6.843768,5.340059,-0.7652856,0.09210061,-0.2066158,36.34815,-7.174989,23.2994,1008.33
32.068584442,-95.36281,-11.4602,2.582143,-0.8789306,0.1970566,-0.07599622,35.98177,-7.158251,24.1939,1008.328
32.100759029,-109.0618,-11.10509,-2.014383,-0.7855366,-0.06187094,-0.04478034,35.96919,-8.694153,23.30878,1008.328
32.135407448,-105.2531,-6.902953,-1.401513,-0.9097136,0.1522388,-0.1170484,35.96156,-10.22519,22.80619,1008.326
32.167582035,-121.9622,-6.547843,-7.959225,-0.7786694,-0.08344667,-0.320726,35.96156,-10.22519,22.80619,1008.325
32.202231407,11.77183,36.00618,-8.020512,-0.8947593,0.05428766,-0.03219957,36.31541,-12.92042,21.09591,1008.321
32.234401703,-26.49932,25.82636,-3.607846,-0.9854616,0.3289809,-0.1573005,37.07026,-14.45569,21.09948,1008.319
32.269051075,-65.75335,44.11453,12.57193,-0.6901924,0.2637878,-0.238677,37.07026,-14.45569,21.09948,1008.316
32.301225185,-10.77313,49.61873,25.80993,-0.9780652,0.2022817,-0.02875617,36.70305,-14.43976,21.93023,1008.316
32.335874081,-40.01401,47.31052,39.78337,-0.9841103,0.4796326,-0.06931122,35.2142,-15.91927,23.79428,1008.314
32.368048668,-103.7788,35.88781,45.36049,-1.001939,0.3638719,0.01376872,35.2142,-15.91927,23.79428,1008.312
32.402698040,-144.8757,23.34059,42.72514,-0.8550537,0.2910526,0.1067517,33.3229,-17.03664,23.74578,1008.309
32.434867859,-180.0139,10.08315,37.82218,-0.8053114,0.2138504,0.198195,32.55311,-20.531,22.87414,1008.305
32.467042446,-219.6365,-10.2765,28.93556,-0.7160961,0.03440662,0.2744491,32.55311,-20.531,22.87414,1008.305
32.501691341,-217.8551,-28.15037,20.29409,-0.7218005,-0.1239624,0.2529527,30.98652,-24.75315,18.88582,1008.305
32.533865452,-178.9082,-38.09346,13.1848,-0.7253733,-0.2212481,0.2232641,30.15244,-29.38992,13.11037,1008.301
32.568514824,-94.19563,-51.23253,1.356403,-0.6150836,-0.3083893,0.3237005,30.15244,-29.38992,13.11037,1008.3
32.600689411,-40.07544,-51.05497,-15.00723,-0.6189415,-0.2381733,0.2370734,30.08155,-31.74494,7.766167,1008.298
32.635334492,-21.15487,-54.72445,-33.88364,-0.5884359,-0.2013076,0.1908207,30.03456,-32.93382,4.201504,1008.298
32.667508125,-8.500206,-54.25097,-49.57311,-0.5899609,-0.326154,0.3021116,30.03456,-32.93382,4.201504,1008.296
32.702157497,-22.56777,-63.42464,-72.67833,-0.5948974,-0.2923687,0.3371401,30.76707,-33.34843,2.414373,1008.296
32.734332085,-80.74237,-80.11481,-91.61601,-0.5146371,-0.1852428,0.3705324,32.26175,-33.00582,1.065937,1008.294
32.768981457,-244.1473,-88.34153,-138.1329,-0.2421169,-0.4728158,0.01231307,32.26175,-33.00582,1.065937,1008.292
32.801155090,-185.9112,-47.44469,-190.5332,-0.3503231,-1.607913,-0.4105546,34.47316,-30.80808,-3.419638,1008.291
32.835800171,-9.114511,-6.429473,-258.7458,-0.248947,-1.781278,-0.1675921,36.65669,-27.11423,-10.14406,1008.291
32.868041038,12.26327,17.30372,-334.1901,-0.08369206,-1.953889,-0.1633271,36.65669,-27.11423,-10.14406,1008.289
32.902689934,163.0135,30.3836,-359.7468,-0.0705358,-1.700771,0.7578098,40.42416,-19.18117,-11.54131,1008.286
32.934864044,292.0788,27.48354,-320.0941,-0.1419378,-0.6267359,-0.2453503,43.08327,-7.715538,-11.1647,1008.286
32.969513416,157.3005,24.10999,-133.1073,-0.1510928,0.8695746,0.5551399,43.08327,-7.715538,-11.1647,1008.286
33.001687527,483.6802,174.3808,42.54128,-2.37243,-0.0527719,-1.839806,43.10259,3.79336,-10.32827,1008.286
33.033857822,297.4232,-279.6275,-65.75289,-8.489947,2.208992,-11.52553,41.2102,8.388119,-10.78721,1008.287
33.068506718,-930.2021,-277.7928,-185.6916,-2.055905,-2.891227,7.938191,41.2102,8.388119,-10.78721,1008.294
33.100681305,889.4896,132.241,-21.62623,1.182021,0.07636848,0.5192913,42.67265,3.747564,-14.34287,1008.301
33.135330677,-27.60506,137.5085,92.55149,-1.467849,1.139932,1.281087,39.23491,8.711634,-17.40986,1008.306
33.167504311,149.8674,200.8956,143.7875,-1.744968,-1.157443,0.7740573,39.23491,8.711634,-17.40986,1008.306
33.202153683,64.97057,140.1126,118.2308,-1.328218,0.01980171,0.3778863,41.16114,4.150171,-14.33699,1008.315
33.234324455,112.3334,144.0188,49.83444,-0.2839651,0.8339902,0.3237626,43.55906,-0.06989431,-8.909017,1008.318
33.268973350,-43.14696,80.27657,64.35946,-0.6567096,0.0286563,0.2593876,43.63687,-4.563908,-2.63876,1008.324
33.301147461,-74.29218,77.49488,-6.672197,-0.4306237,-0.2875468,0.3129931,43.63687,-4.563908,-2.63876,1008.327
33.335796356,3.417293,66.78239,-21.93266,-0.6114987,0.6398393,0.1753164,43.67051,-6.054333,0.04636765,1008.332
33.367970943,-46.70993,30.0285,-26.16147,-0.9223905,-0.173651,0.100175,42.87945,-6.396222,2.220066,1008.332
33.402619839,-39.39971,-17.02359,-22.17781,-0.9954643,-0.02821482,0.2191817,42.87945,-6.396222,2.220066,1008.332
33.434790134,-50.45718,-49.51616,-9.368826,-1.023376,-0.2457704,0.3130845,42.90307,-5.611216,4.001469,1008.337
33.469439506,-26.74504,-59.2225,-27.69365,-0.891822,0.07864469,0.4220173,42.50228,-5.247453,2.216417,1008.343
33.501613140,-58.44313,-62.77361,-29.34839,-1.041775,-0.1049772,0.4946846,42.50228,-5.247453,2.216417,1008.346
33.533787727,-33.56382,-52.71215,-3.914281,-1.076619,-0.4550503,0.5827397,43.22401,-4.530032,-0.4688549,1008.346
33.568437099,7.225978,-39.75064,6.933522,-0.8656204,-0.08328416,0.7149396,42.81717,-4.553089,-2.698323,1008.347
33.600611687,-14.76611,-33.24028,3.501449,-0.8346288,0.05814024,0.4434866,42.81717,-4.553089,-2.698323,1008.351
33.635256290,-48.73713,-27.85445,3.624023,-0.7651188,-0.3625268,0.382012,43.1783,-3.813244,-4.042821,1008.354
33.667430401,14.65906,-9.980574,2.153134,-0.8077102,-0.05329163,0.7392284,42.77698,-4.211749,-5.824149,1008.352
33.702079773,-9.913106,4.697309,-0.9725038,-0.8481941,-0.03558947,0.6168423,42.77698,-4.211749,-5.824149,1008.354
33.734253883,-4.50723,13.87099,4.482041,-0.7895341,-0.2087943,0.5382291,42.77698,-4.211749,-5.824149,1008.354
33.768902779,0.9600764,15.23224,7.117383,-0.8241878,-0.111914,0.4906692,43.15467,-4.598251,-5.824222,1008.359
33.801077366,1.881533,10.20152,13.49123,-0.8338571,-0.1925018,0.482383,43.15467,-4.598251,-5.824222,1008.361
33.835722446,-0.2685319,6.11775,20.78439,-0.8758528,-0.1058349,0.5533794,43.60741,-4.212011,-4.935778,1008.365
33.867896557,-0.6985448,5.111605,23.05201,-0.9043612,-0.1005238,0.4683752,43.16623,-4.586881,-4.931661,1008.368
33.902545929,-2.111444,2.507464,27.46468,-0.8267845,-0.1739039,0.4439104,43.16623,-4.586881,-4.931661,1008.368
33.934720516,5.628788,7.479005,20.47795,-0.8503271,0.01261249,0.5719516,43.2353,-5.343546,-4.418226,1008.372
33.969369411,-7.333029,11.8587,8.83342,-0.8940153,-0.01348061,0.4959882,42.79329,-5.719229,-4.477863,1008.373
34.001543522,-5.060104,12.21381,1.41769,-0.8427729,-0.03742718,0.5078446,42.79329,-5.719229,-4.477863,1008.377
34.033713818,-1.865723,12.33218,-7.22378,-0.842293,0.001732097,0.487919,43.17624,-6.862313,-4.027934,1008.379
34.068363190,-5.92013,10.20152,-13.04605,-0.8905561,-0.06322844,0.4671078,43.56573,-6.856311,-3.137307,1008.379
34.100536823,-4.261509,4.993235,-11.63645,-0.8927625,-0.09149706,0.4505074,43.56573,-6.856311,-3.137307,1008.379
34.135186195,-6.595865,-0.2150461,-9.736548,-0.8653697,-0.09689289,0.4608113,43.62981,-6.47526,-3.075736,1008.38
34.167360783,-1.43571,-3.055927,-4.956161,-0.8868912,-0.12101,0.4665973,43.18805,-6.46981,-3.137235,1008.378
34.202010155,-12.67747,-7.553988,-6.427049,-0.7820655,-0.02054974,0.4066795,42.81037,-6.083308,-3.137161,1008.38
34.234179974,-13.35321,-4.298812,-11.75902,-0.861708,-0.1411747,0.5115041,42.81037,-6.083308,-3.137161,1008.384
34.268828869,-4.998674,1.797244,-5.99804,-0.9605048,-0.1389901,0.5423279,43.17701,-5.718912,-4.033517,1008.384
34.301003456,0.3457722,5.229975,1.295116,-0.9047506,-0.1599108,0.5088592,43.18882,-5.326409,-3.142817,1008.386
34.335652828,1.697241,4.93405,6.136791,-0.8669424,-0.114393,0.4563437,43.18882,-5.326409,-3.142817,1008.389
34.367876530,4.46161,3.099314,5.278772,-0.819602,-0.08802728,0.4440694,43.18882,-5.326409,-3.142817,1008.389
34.402525902,0.2229114,1.856429,-0.6660687,-0.8852467,-0.08023322,0.4683641,43.56651,-5.712911,-3.14289,1008.391
34.434696674,1.758672,1.678874,-0.1757726,-0.9034446,-0.1324982,0.476779,43.56651,-5.712911,-3.14289,1008.391
34.469345569,-3.401483,2.685019,-3.423985,-0.8449894,-0.06522149,0.4898022,43.18304,-5.332094,-3.589097,1008.391
34.501519680,-2.541457,5.17079,-6.181901,-0.9100788,-0.09359902,0.4814996,42.81063,-5.702174,-3.139022,1008.387
34.533694267,0.4686331,6.058565,-6.181901,-0.8695378,-0.09763465,0.4878361,42.81063,-5.702174,-3.139022,1008.385
34.568343162,-4.630091,3.809535,-7.346354,-0.855149,-0.1312645,0.4160886,43.64105,-5.702436,-2.250651,1008.385
34.600517273,0.161481,1.442134,-5.936753,-0.8966461,-0.1257926,0.4695409,43.57832,-5.320408,-2.25219,1008.385
34.635162353,-1.49714,-1.162006,-4.34329,-0.8625574,-0.0969752,0.3889665,43.57832,-5.320408,-2.25219,1008.385
34.667336941,-9.053081,-4.890663,-3.73042,-0.8637057,-0.2209208,0.4284433,43.1946,-5.320724,-2.696536,1008.387
34.701985359,-2.234305,-2.700817,-2.07567,-0.9204207,-0.07577885,0.519821,43.19511,-4.558457,-2.700257,1008.387
34.734159946,0.2229114,-1.043636,1.049968,-0.8855428,-0.1694792,0.4763071,43.19511,-4.558457,-2.700257,1008.387
34.768809318,1.635811,0.6135441,0.3758106,-0.8828705,-0.1073833,0.4739021,44.01424,-4.188955,-2.706308,1008.387
34.800982952,1.758672,0.08087893,1.356403,-0.8652565,-0.1591329,0.4463192,44.01976,-4.564404,-2.258167,1008.387
34.835632324,1.45152,-0.1558611,3.195014,-0.8970245,-0.1227891,0.4811372,44.01976,-4.564404,-2.258167,1008.387
34.867803097,3.540154,-1.398746,5.769069,-0.8786685,-0.1336905,0.464006,42.43923,-4.54772,-2.69639,1008.387
34.902451992,5.505927,-2.878372,7.301244,-0.890708,-0.1107564,0.4720194,43.18908,-4.945275,-3.144677,1008.389
34.934626102,4.154458,-6.843768,11.7752,-0.8881947,-0.1522513,0.4427339,43.18908,-4.945275,-3.144677,1008.389
34.969274998,6.734535,-9.447908,14.96212,-0.8621716,-0.1000468,0.4944954,43.57254,-5.326093,-2.69847,1008.389
35.001449585,3.785875,-9.270353,12.81708,-0.8623211,-0.07745496,0.4657631,43.63001,-4.951539,-3.146934,1008.389
35.036098957,2.864419,-8.560133,8.465697,-0.857134,-0.05398853,0.4909721,43.63001,-4.951539,-3.146934,1008.389
35.068268776,-3.892926,-6.666213,6.810948,-0.8656746,-0.1025267,0.4853497,42.80459,-6.088993,-3.583442,1008.39
35.100443363,3.908736,-2.523262,0.9273939,-0.8510072,-0.004484671,0.557357,43.18857,-5.707542,-3.140956,1008.392
35.135092735,-3.892926,2.92176,-5.323883,-0.8566222,-0.08443412,0.5085504,43.18857,-5.707542,-3.140956,1008.392
35.167266369,-1.189988,6.058565,-8.020512,-0.8512999,-0.0719296,0.4970358,42.79829,-6.856945,-4.026001,1008.392
35.201915741,-5.428687,7.123895,-10.10427,-0.8566177,-0.1230783,0.4696718,42.80433,-6.470126,-3.581581,1008.392
35.234090328,-3.032901,7.952486,-12.18803,-0.8449607,-0.07099819,0.4960203,42.80433,-6.470126,-3.581581,1008.392
35.268735409,-3.770066,8.72189,-14.45565,-0.8758911,-0.1029309,0.4892977,43.18279,-5.713227,-3.587236,1008.39
35.300909519,-14.09037,8.011671,-14.27179,-0.819291,-0.1558529,0.3977174,43.18279,-5.713227,-3.587236,1008.394
35.335558414,-3.278622,3.98709,-17.21356,-0.8464638,-0.08984832,0.442377,43.56702,-4.950644,-3.146611,1008.394
35.367733002,-8.561637,9.609666,-24.44543,-0.9187765,-0.06450025,0.5358046,43.56702,-4.950644,-3.146611,1008.394
35.402382374,-5.305826,9.905591,-21.38108,-0.9453149,-0.2810659,0.444133,42.82269,-4.928537,-2.250182,1008.39
35.434556007,0.2229114,8.425965,-11.51387,-0.9144568,-0.1926588,0.4730119,43.19537,-4.177323,-2.702118,1008.392
35.469201565,-3.032901,6.59123,-8.510808,-0.8068236,-0.1252053,0.4147237,43.19537,-4.177323,-2.702118,1008.392
35.501375675,5.751648,2.685019,-11.94288,-0.8415903,-0.1295311,0.4608023,43.5796,-3.414741,-2.261494,1008.392
35.536025047,-10.03597,-0.4517862,-12.92347,-0.8156524,-0.1348367,0.3559227,43.20166,-3.409372,-2.25956,1008.39
35.568199158,0.03862014,-1.576301,-7.83665,-0.9931912,-0.2582235,0.5430959,43.20166,-3.409372,-2.25956,1008.39
35.600373745,-1.620001,-1.457931,1.295116,-0.9716229,-0.2664257,0.5004111,43.19691,-1.890522,-2.713283,1008.39
35.635022640,3.847306,-0.5109712,3.378875,-0.838306,-0.1427242,0.451505,43.20847,-1.879153,-1.820722,1008.392
35.667192459,1.45152,-0.9844513,1.478977,-0.8445383,-0.2034835,0.4361202,43.20847,-1.879153,-1.820722,1008.393
35.701841831,2.004393,-0.7477112,0.6822457,-0.854491,-0.1586758,0.4495965,43.20244,-2.265971,-2.265141,1008.393
35.734016418,-0.575684,2.862575,-0.2370596,-0.7141874,-0.02136499,0.4706273,42.44656,-2.255234,-2.261274,1008.393
35.768665791,-0.2071015,-0.9252663,-3.607846,-0.8564363,-0.237928,0.4306453,42.44656,-2.255234,-2.261274,1008.393
35.800839424,-15.87186,7.77493,-19.29732,-0.81598,0.0005989,0.4838082,43.58012,-2.652473,-2.265215,1008.392
