Time (s),Gyroscope X (deg/s),Gyroscope Y (deg/s),Gyroscope Z (deg/s),Accelerometer X (g),Accelerometer Y (g),Accelerometer Z (g),Magnetometer X (uT),Magnetometer Y (uT),Magnetometer Z (uT),Barometer (hPa)
0.024667740,-11.54755,1.652425,-2.205038,-0.2071115,-0.8256657,-0.5297979,16.37017,24.58292,35.42673,1008.021
0.056839466,-11.48612,1.238129,-1.592168,-0.2067111,-0.8223628,-0.5418244,15.99693,24.21202,35.81306,1008.019
0.091485977,-10.4418,0.1727992,-3.308205,-0.1747319,-0.7845659,-0.5292792,15.99693,24.21202,35.81306,1008.019
0.123657703,-6.81741,0.7054643,-1.837316,-0.1900626,-0.8354127,-0.5869133,15.99693,24.21202,35.81306,1008.021
0.155829906,2.581443,-0.1231259,0.3077297,-0.1831158,-0.8300229,-0.5758477,16.00245,23.83657,36.2612,1008.021
0.190476418,5.222951,-0.537421,1.165748,-0.1925444,-0.8175839,-0.5423992,16.00245,23.83657,36.2612,1008.021
0.222648144,15.60469,3.25042,1.227035,-0.2170884,-0.7857157,-0.5168435,16.00245,23.83657,36.2612,1008.021
0.257294655,-8.906044,-0.892531,-0.1825666,-0.2009382,-0.8355238,-0.5453608,15.61955,23.83707,35.8806,1008.023
0.289466381,13.08604,3.13205,-1.837316,-0.1824314,-0.8588608,-0.5384958,15.61955,23.83707,35.8806,1008.023
0.324113369,-7.431714,-0.004755882,-0.1825666,-0.2029066,-0.8297263,-0.5501146,16.00245,23.83657,36.2612,1008.021
0.356285095,-6.387397,0.05442913,-0.8567238,-0.2119573,-0.8096527,-0.5334767,16.00797,23.46113,36.70934,1008.021
0.390931606,-16.03197,0.2319842,-3.798501,-0.2088812,-0.8109832,-0.5152004,16.00219,23.45544,36.26306,1008.021
0.423103333,-74.82088,2.717755,-17.77194,-0.2397886,-0.7230819,-0.4028454,16.00219,23.45544,36.26306,1008.021
0.457749844,-161.9292,-21.19299,-71.94967,-0.3151636,-0.7354103,-0.5396136,16.01349,23.08568,37.15748,1008.021
0.489922047,-173.8467,-23.50121,-94.5033,-0.2049301,-0.6890256,-0.6848596,15.28413,20.83723,39.34016,1008.019
0.524568558,-85.32548,-26.87475,-71.39809,-0.2233665,-0.7791138,-0.8608781,15.28413,20.83723,39.34016,1008.019
0.556740284,-7.247423,-27.40742,-32.17439,-0.04764088,-0.5654252,-0.6684383,14.92673,17.054,41.14582,1008.019
0.591386795,30.65514,-16.63574,11.03296,-0.007236805,-0.4960082,-0.830195,14.54648,13.62917,41.16451,1008.019
0.623558521,6.943003,0.2319842,11.82969,-0.165371,-0.7334948,-0.950213,14.54648,13.62917,41.16451,1008.017
0.655730724,60.44889,-7.166142,0.3077297,-0.1191123,-0.6497877,-0.8284908,15.30261,13.99956,41.15878,1008.019
0.690377236,7.127294,4.07901,-3.859788,-0.0173429,-0.6168327,-0.580457,16.0472,14.35859,40.26049,1008.017
0.722548962,-26.53657,0.2911692,-9.927203,-0.1719572,-0.705786,-0.7600154,16.0472,14.35859,40.26049,1008.017
0.757195473,-17.81345,-17.64189,-19.30412,-0.1429158,-0.6385232,-0.7047839,16.42039,15.87207,39.80483,1008.017
0.789367199,-26.84373,-18.23374,-18.32352,-0.07741292,-0.6541833,-0.7421561,16.054,15.88881,40.69933,1008.016
0.824014187,-12.46901,-7.106957,-3.553353,-0.08290667,-0.6711212,-0.8651544,16.054,15.88881,40.69933,1008.016
0.856185913,2.827165,-5.035482,7.478312,-0.09764355,-0.6247515,-0.8410167,16.79807,15.48557,39.80476,1008.014
0.890832424,57.68452,2.244274,5.700988,-0.124557,-0.6982251,-0.7560573,16.05297,14.36427,40.70677,1008.012
0.923004150,36.06102,4.730045,8.336329,-0.1519572,-0.6333945,-0.7379152,16.05297,14.36427,40.70677,1008.012
0.957650661,41.58976,5.85456,13.23929,-0.1840334,-0.6490728,-0.7146092,17.55395,15.47483,39.80089,1008.012
0.989822865,45.45987,2.421829,10.97167,-0.1987347,-0.7027695,-0.6377948,17.17183,16.61873,39.41471,1008.012
1.024469376,18.30763,1.119759,2.268914,-0.1798641,-0.6890244,-0.6055636,17.17183,16.61873,39.41471,1008.012
1.056641102,-17.19915,1.178944,-3.675927,-0.1751163,-0.6954553,-0.6181929,16.78831,18.14213,38.89917,1008.012
1.091287613,-25.79941,-3.970152,-6.249981,-0.1544054,-0.7387706,-0.7459911,16.78965,18.90521,38.95921,1008.012
1.123459339,-10.81039,-0.596606,-0.9180108,-0.1279725,-0.7329873,-0.797282,16.78965,18.90521,38.95921,1008.01
1.158106804,10.5674,-2.490527,5.578414,-0.1473655,-0.6854228,-0.747063,16.78914,18.14294,38.96292,1008.012
1.190278053,22.4849,-3.141562,7.90732,-0.1557403,-0.6874249,-0.6973554,16.41589,17.77205,39.34924,1008.012
1.222449780,14.49894,-2.727267,4.352674,-0.1769541,-0.6909523,-0.6648926,16.41589,17.77205,39.34924,1008.014
1.257097244,-0.5515079,-0.714976,-0.1212795,-0.1799621,-0.7113204,-0.6645504,16.78862,17.38068,38.96665,1008.014
1.289268494,-4.175902,0.2319842,-2.756622,-0.1785915,-0.714314,-0.6742278,17.16708,18.13758,38.96099,1008.014
1.323915482,-4.298763,0.4095392,-1.898603,-0.1708128,-0.712445,-0.678623,17.16708,18.13758,38.96099,1008.014
1.356087208,-6.325967,0.5870943,-0.6115757,-0.1523923,-0.7136165,-0.6927826,17.16708,18.13758,38.96099,1008.014
1.390733719,-6.325967,0.4687243,-0.9180108,-0.1443168,-0.7070881,-0.7222061,17.16625,18.13676,38.89724,1008.014
1.422905922,-2.947294,0.1136141,1.104461,-0.1493462,-0.7178383,-0.7347797,17.16682,17.75644,38.96285,1008.018
1.457552433,2.15143,-0.655791,3.739803,-0.1543735,-0.6962248,-0.7046707,17.16682,17.75644,38.96285,1008.018
1.489724159,0.6771004,-0.774161,2.636636,-0.1639419,-0.6892323,-0.6852437,17.93369,18.1374,39.78593,1008.018
1.524370670,-5.588802,-0.419051,0.06258155,-0.1709737,-0.7024364,-0.702639,16.7878,17.37987,38.90289,1008.016
1.556542397,-7.185992,-0.596606,-0.4890017,-0.1647109,-0.7160817,-0.7057019,16.7878,17.37987,38.90289,1008.016
1.591189385,-2.517281,-0.3598659,0.7980258,-0.1642077,-0.6957604,-0.7137331,17.1726,17.76213,39.40913,1008.016
1.623361111,0.4313788,-0.004755882,1.043174,-0.157793,-0.7000796,-0.7032245,16.79466,17.7675,39.41106,1008.016
1.658007622,-3.070155,-0.1823109,0.7980258,-0.165979,-0.6912342,-0.6943992,16.79466,17.7675,39.41106,1008.016
1.690179348,-3.991611,-0.1823109,-0.4890017,-0.1564268,-0.6972744,-0.7162282,16.79987,18.1535,39.79173,1008.014
1.724825859,15.54326,-3.733412,-1.34702,-0.1500835,-0.6644611,-0.6740829,17.5492,16.99368,39.34716,1008.012
1.756998062,-2.39442,-0.714976,0.7367388,-0.1661734,-0.7020496,-0.7123206,17.5492,16.99368,39.34716,1008.012
1.789169788,-0.6743687,-0.655791,0.7980258,-0.1728467,-0.6941343,-0.6972511,17.1726,17.76213,39.40913,1008.01
1.823816299,-3.930181,-0.419051,0.001294531,-0.1683925,-0.6878131,-0.6929026,17.17234,17.38099,39.41099,1008.01
1.855988026,-4.790206,0.5870943,-0.4890017,-0.1786415,-0.721092,-0.7350152,17.17234,17.38099,39.41099,1008.01
1.890634537,-7.308853,0.1727992,-0.3664276,-0.1632659,-0.704017,-0.7138099,17.54425,16.98881,38.96464,1008.016
1.922806740,-1.841547,1.82998,-0.3664276,-0.1519823,-0.6991827,-0.7090554,17.1773,17.38587,39.79352,1008.016
1.957453251,-2.640142,0.1136141,1.104461,-0.1647708,-0.6963098,-0.7224083,17.1773,17.38587,39.79352,1008.016
1.989624977,38.70253,-1.780306,0.9205999,-0.1683279,-0.6800172,-0.6889829,17.1773,17.38587,39.79352,1008.016
2.024271488,-0.1829254,-0.478236,1.594757,-0.1632154,-0.6986519,-0.7103922,17.16548,16.99336,38.90282,1008.016
2.056443691,-3.623029,-0.714976,1.594757,-0.1620838,-0.6844916,-0.698718,17.16548,16.99336,38.90282,1008.014
2.091090202,-3.131585,-0.537421,0.7980258,-0.1695086,-0.6884192,-0.7092851,17.9227,17.7457,38.95898,1008.014
2.123261929,-0.06006456,-1.306826,1.165748,-0.1695389,-0.6908646,-0.711715,17.16656,17.37531,38.96471,1008.014
2.157908440,24.57353,1.474869,0.1238686,-0.1824299,-0.6470562,-0.6408616,17.16656,17.37531,38.96471,1008.014
2.190080166,-6.448828,0.2911692,-1.898603,-0.1635668,-0.7086801,-0.6892636,17.5558,17.00018,39.8572,1008.014
2.224726677,-3.930181,0.2319842,-1.163159,-0.1666831,-0.7141562,-0.7090417,17.166,17.75563,38.8991,1008.016
2.256898880,-0.428647,-0.2414959,0.6754518,-0.1627475,-0.7035082,-0.7104366,17.166,17.75563,38.8991,1008.018
2.289070606,0.9842525,-0.1231259,1.104461,-0.1724602,-0.6980975,-0.7074094,17.17152,17.38018,39.34724,1008.016
2.323717117,-1.718686,-0.0639409,0.6754518,-0.1704518,-0.691286,-0.703998,17.54476,17.75107,38.96092,1008.014
2.355888844,-2.578712,0.1136141,-0.2438536,-0.1665522,-0.6932435,-0.7035685,17.54476,17.75107,38.96092,1008.014
2.390535355,-3.438737,-0.004755882,-0.8567238,-0.1656232,-0.688939,-0.7112536,17.54971,17.75595,39.34344,1008.014
2.422707558,-2.025838,0.2319842,-1.101872,-0.1637623,-0.6991864,-0.7171395,17.54945,17.37481,39.3453,1008.014
2.457354069,-1.227242,0.05442913,-0.7954367,-0.1661473,-0.6976737,-0.7113207,17.54971,17.75595,39.34344,1008.014
2.489525795,-2.947294,0.1136141,-1.101872,-0.1680444,-0.6951962,-0.7059807,17.54971,17.75595,39.34344,1008.014
2.524172306,-4.544485,0.2911692,-1.101872,-0.1730251,-0.7030007,-0.7141925,17.5492,16.99368,39.34716,1008.014
2.556344509,-21.06927,0.6462793,-4.350084,-0.1909924,-0.672924,-0.601953,17.55498,16.99936,39.79345,1008.014
2.590991020,-94.54004,-8.645767,-30.27449,-0.2598448,-0.6383274,-0.5658394,17.55498,16.99936,39.79345,1008.013
2.623162747,-164.325,-17.64189,-75.44303,-0.3997869,-0.6848446,-0.645893,16.79884,16.62897,39.79918,1008.016
2.657809734,-282.3328,0.1136141,-151.0712,-0.2151638,-0.887113,-0.7615891,17.19206,13.59159,41.15097,1008.016
2.689980984,-199.7703,-1.839491,-145.0651,-0.2247674,-1.314545,-1.059043,17.19206,13.59159,41.15097,1008.016
2.724628449,17.4476,-5.864072,-181.7147,-0.1914368,-0.9438652,-0.9304962,16.45435,7.526115,42.90598,1008.016
2.756800175,59.83459,-17.40515,-195.6269,-0.08126769,-0.4789925,-0.9373317,15.69538,2.963251,42.93217,1008.016
2.791446686,24.81925,-20.06847,-190.7239,0.1053853,-0.4249455,-1.109738,15.69538,2.963251,42.93217,1008.018
2.823618412,18.98336,-8.764137,-183.8598,0.2315768,-0.2559467,-1.331724,16.43732,6.747606,41.63461,1008.016
2.855790615,1.291405,40.95127,-158.2418,0.3776694,-0.01769736,-1.309433,14.91632,10.18791,40.73304,1008.014
2.890437126,-39.9284,73.38466,-112.4604,0.3413604,0.1113407,-1.27911,14.91632,10.18791,40.73304,1008.014
2.922608852,-36.4883,97.47296,-72.99155,0.3598672,0.1609852,-1.249472,13.40085,13.25277,40.27961,1008.014
2.957255363,35.07813,120.1408,-18.9364,0.3789814,0.2189565,-1.209648,8.876868,12.94743,41.19724,1008.013
2.989427567,60.69461,134.582,17.40681,0.3531006,0.3007179,-1.134987,8.876868,12.94743,41.19724,1008.011
3.024074078,4.547216,144.8802,47.43745,0.3087598,0.3642718,-1.041505,5.475154,12.61461,41.2165,1008.009
3.056245804,-67.26494,149.4966,74.95532,0.2719515,0.2844376,-0.9695198,1.319104,14.57933,41.22847,1008.009
3.090892315,-95.76865,141.2699,101.2475,0.1982798,0.1876577,-0.9787882,1.319104,14.57933,41.22847,1008.009
3.123064041,-74.39086,131.2084,125.0881,0.2849987,0.2770016,-0.9812708,-2.460806,13.87075,41.25153,1008.009
3.157710552,-79.67388,134.7003,178.8981,0.1371563,0.4852052,-1.079395,-6.231218,10.12447,42.18204,1008.009
3.189882755,-157.9362,129.788,245.8848,0.07695378,0.6554819,-1.066825,-6.231218,10.12447,42.18204,1008.007
3.224529266,-284.9129,125.8818,325.6805,-0.1207868,0.4983177,-1.118814,-10.02872,9.017698,40.86812,1008.006
3.256700993,-2012.275,-340.2002,-529.2734,-9.214055,-10.2931,-8.193862,-13.4377,5.249807,40.5216,1008
3.291347504,1070.979,348.6542,230.1341,-0.2185017,0.775705,-0.395026,-13.4377,5.249807,40.5216,1008
3.323519707,670.76,-39.48116,18.44869,-0.6153552,-0.3403212,-2.308277,-14.68721,-4.814281,32.16052,1007.999
3.358166218,7.127294,-44.98537,0.06258155,1.109285,0.8151525,0.8562303,-18.84096,-16.11525,37.97583,1007.999
3.390337944,-326.1941,-0.537421,83.96452,0.3168728,0.1959296,-0.4587852,-18.84096,-16.11525,37.97583,1007.997
3.422509194,-306.6592,-55.46112,77.40681,0.1469637,-0.686523,-1.203862,-16.15492,1.026606,40.10996,1007.997
3.457156181,53.69155,-57.35504,30.03194,0.1442257,-0.9492478,-1.286496,-15.78821,-5.845662,39.63148,1007.997
3.489327431,201.5546,-83.1597,4.720396,0.1382306,-0.6261365,-0.9945769,-15.78821,-5.845662,39.63148,1007.999
3.523974896,210.7691,-75.40646,-4.779093,0.2218362,-0.4301898,-0.8963777,-15.04243,-13.48394,39.28231,1007.997
3.556146622,159.9047,-86.23732,-25.31025,0.179184,-0.3533824,-0.7825586,-13.0523,-8.142513,41.86019,1007.997
3.590793133,37.71964,-102.5132,-47.31229,0.2170889,-0.4818242,-0.7974672,-10.00053,-0.5400515,43.59263,1007.997
3.622964859,39.99257,-99.7315,-70.78522,0.2657142,-0.6349581,-0.8603973,-10.00053,-0.5400515,43.59263,1007.997
3.657611370,157.6318,-116.0666,-69.37562,0.184877,-0.386405,-0.844098,-6.218515,3.281121,43.55437,1007.995
3.689783573,119.1764,-135.8344,-43.88021,0.2086973,-0.1058401,-0.7002993,-2.815515,5.519605,43.52581,1007.995
3.724430084,-35.13683,-119.9728,-6.249981,0.2545588,-0.3496464,-0.8160071,-2.815515,5.519605,43.52581,1007.995
3.756601810,-59.09469,-112.5155,-0.5502887,0.2416895,-0.6270928,-1.051944,1.334638,11.92845,42.58034,1007.995
3.791248321,-5.588802,-95.05589,-3.798501,0.1949442,-0.6021053,-1.051784,5.497495,11.49395,43.00721,1007.997
3.823420525,4.608647,-87.95368,-8.088593,0.10721,-0.5222684,-1.077781,5.497495,11.49395,43.00721,1007.997
3.858067036,40.48401,-80.96986,-17.71066,0.1317906,-0.5879157,-1.14073,9.270598,10.67231,42.54531,1007.997
3.890238762,30.83943,-51.43653,-22.00075,0.07437282,-0.4507038,-1.071101,12.27729,11.37458,41.18727,1007.997
3.922410488,-24.38651,-38.00154,-18.4461,-0.009247886,-0.3518739,-1.023234,12.27729,11.37458,41.18727,1008.001
3.957056999,-53.38166,-32.2014,-8.395028,0.0421753,-0.302191,-0.967392,14.9126,13.23129,40.27187,1008.001
3.989229202,-74.20657,-22.96854,6.129997,0.08449579,-0.3126796,-0.9784772,15.3021,13.2373,41.1625,1008.001
4.023875713,-35.99686,-14.0316,19.85829,0.07944182,-0.3896638,-1.020035,15.3021,13.2373,41.1625,1008.001
4.056047440,2.028569,-7.284513,32.91243,0.01776095,-0.3344823,-0.9534524,16.06221,10.94544,41.61607,1008.001
4.090693951,-30.71384,0.2911692,41.18617,0.01644485,-0.3643218,-0.9213921,16.81154,9.78562,41.17151,1008.001
4.122865677,-49.14296,6.505595,43.08607,-0.038692,-0.4346057,-0.944593,16.81154,9.78562,41.17151,1008.003
4.157512188,-51.29303,8.813811,38.61212,-0.06687473,-0.5218438,-0.9460133,17.19475,9.02367,41.61958,1008.003
4.189684391,-12.34615,10.0567,33.83173,-0.08677687,-0.5607801,-0.9726585,17.59369,7.134561,43.34832,1008.003
4.224330902,187.6713,-1.070086,38.06054,-0.1714381,-1.139557,-1.243668,17.59369,7.134561,43.34832,1008.003
4.256502628,227.7853,16.09357,34.87361,-0.09751518,-0.3941592,-0.646799,17.58636,4.842075,42.9132,1008.003
4.291149139,10.07595,21.59777,15.93592,-0.147812,-0.5361091,-0.581948,17.20027,8.648222,42.06772,1008.003
4.323321343,-3.991611,2.954494,9.745931,-0.1873058,-0.5991551,-0.6635572,17.20027,8.648222,42.06772,1008.003
4.357967854,-33.23249,2.65857,10.48138,-0.1215273,-0.6246447,-0.7795789,16.05323,14.74541,40.70491,1008.003
4.390139580,-13.39046,2.481014,8.029895,-0.1241881,-0.6649323,-0.8444742,17.19257,14.35385,41.14725,1008.003
4.424786091,11.73458,1.711609,7.600885,-0.114448,-0.579928,-0.8298864,17.19257,14.35385,41.14725,1008.004
4.456957817,19.6591,2.007534,6.68158,-0.1061135,-0.5929904,-0.8189858,16.4417,13.22688,41.60298,1008.004
4.489130020,7.434446,0.4095392,4.659109,-0.1168364,-0.590991,-0.8183872,17.19757,13.21614,41.59911,1008.006
4.523776531,14.74467,2.066719,2.759211,-0.07981206,-0.645876,-0.7994232,17.19757,13.21614,41.59911,1008.008
4.555948258,8.233042,-0.596606,3.126933,-0.1127971,-0.6228028,-0.7868752,16.43643,13.98346,41.15298,1008.008
4.590594769,12.28745,0.9422044,3.310794,-0.12976,-0.6163254,-0.7760596,16.82015,13.98377,41.59732,1008.008
4.622766495,11.61171,0.6462793,0.8593129,-0.1398713,-0.6088967,-0.763372,16.82015,13.98377,41.59732,1008.008
4.657413483,-1.964407,0.1136141,-1.285733,-0.1305872,-0.6234388,-0.7549025,16.43065,13.97777,40.7067,1008.01
4.689585209,-9.151765,1.82998,-3.61464,-0.1275965,-0.6248469,-0.7467481,16.43695,14.74573,41.14925,1008.011
4.724231720,-21.56071,3.072865,-8.824037,-0.1078714,-0.6116633,-0.7868294,16.81489,14.74036,41.14732,1008.011
4.756403446,-15.66339,1.356499,-6.433843,-0.09424177,-0.6310678,-0.8396545,16.81489,14.74036,41.14732,1008.011
4.791050911,-4.360193,-2.904822,-0.7954367,-0.09448881,-0.6148885,-0.8187928,17.19835,14.35954,41.59352,1008.011
4.823222637,13.63892,-5.153852,6.436432,-0.1106962,-0.6303769,-0.8235893,16.06401,13.61338,41.60305,1008.011
4.857869148,19.10622,-5.035482,7.662173,-0.128261,-0.6274229,-0.766525,16.06401,13.61338,41.60305,1008.013
4.890040874,31.82232,-4.266077,10.72652,-0.1163505,-0.637939,-0.737803,16.82015,13.98377,41.59732,1008.011
4.924687386,36.06102,-4.562002,11.52325,-0.1409606,-0.6568682,-0.7536353,16.81463,14.35922,41.14918,1008.011
4.956859589,31.26945,-5.864072,13.30058,-0.1366578,-0.6357315,-0.7163873,16.81463,14.35922,41.14918,1008.011
4.991506100,15.11325,-7.462068,12.19741,-0.1358325,-0.6702068,-0.7176432,16.79832,15.8667,39.80289,1008.011
5.023677826,-3.193016,-12.90709,3.80109,-0.09557627,-0.7069005,-0.7294073,17.93818,16.23742,40.24151,1008.011
5.055849552,-18.42776,-15.57041,0.9818869,-0.1158616,-0.6263722,-0.6851742,17.93818,16.23742,40.24151,1008.011
5.090496540,-22.72789,-14.14997,2.820498,-0.1534682,-0.6653455,-0.7280425,17.54894,16.61255,39.34903,1008.011
5.122668266,-22.66646,-19.83173,-0.9792979,-0.1126644,-0.6213436,-0.5974386,18.31008,15.84523,39.79516,1008.01
5.157314777,4.792938,-20.12766,3.739803,-0.1838053,-0.6429877,-0.806623,18.31008,15.84523,39.79516,1008.01
5.189486504,31.45374,-20.12766,7.355738,-0.1780398,-0.6397516,-0.7608603,18.30983,15.46409,39.79702,1008.01
5.224133015,31.5766,-24.50735,12.44256,-0.1556519,-0.6587766,-0.758816,19.81663,15.43775,39.40676,1008.008
5.256305218,33.78809,-23.50121,16.54879,-0.1718909,-0.6917022,-0.7589359,19.81663,15.43775,39.40676,1008.008
5.290951729,42.26549,-24.27061,19.73572,-0.2369473,-0.697843,-0.7159635,20.93337,15.78572,38.06026,1008.008
5.323123455,64.07329,-18.82559,22.55492,-0.2436275,-0.7141125,-0.6900073,21.67821,16.52588,37.1601,1008.006
5.357769966,49.76,-21.78484,22.1872,-0.3250454,-0.7190313,-0.5620403,21.67821,16.52588,37.1601,1008.006
5.389941692,33.29665,-26.87475,15.93592,-0.3149486,-0.7593559,-0.5605389,22.41201,18.01694,35.36367,1008.006
5.424588204,6.144407,-28.88704,4.536534,-0.2590763,-0.8270754,-0.5572805,23.54165,19.13936,34.96976,1008.006
5.456760407,-36.05829,-29.30134,-3.859788,-0.2216886,-0.8381087,-0.5162685,23.54165,19.13936,34.96976,1008.006
5.491406918,-114.6892,-40.42812,-7.72087,-0.01007388,-0.6518444,-0.3952436,25.03684,20.24423,33.6176,1008.006
5.523578644,-195.0402,-39.06687,-6.066121,0.08077263,-0.6376784,-0.4509224,25.79195,19.0901,33.61932,1008.008
5.555750847,-312.0037,17.57319,-49.27347,-0.2048062,-0.5144566,-0.5802737,25.79195,19.0901,33.61932,1008.01
5.590397358,-104.3689,-47.29358,-17.89452,-0.534794,-1.053949,-1.202458,26.19012,16.05759,35.35363,1008.01
5.622569084,62.84468,-84.69851,-31.99053,-0.1102992,-0.5758935,-0.7445779,26.5918,8.457973,37.62032,1008.01
5.657215595,22.17774,-48.06299,-7.782157,-0.1047492,-0.3128052,-0.6759448,26.5918,8.457973,37.62032,1008.01
5.689387322,-55.65459,-51.85083,-1.34702,-0.2234951,-0.6158218,-0.8971266,27.30651,6.121452,34.56741,1008.01
5.724033833,40.05399,-43.62411,-6.924139,-0.2162924,-0.7574637,-1.133095,28.79041,7.596088,32.32083,1008.011
5.756206036,91.71697,-20.30521,-2.450186,-0.3891604,-0.4024811,-0.9699779,28.79041,7.596088,32.32083,1008.011
5.790852547,14.8061,-8.113102,3.004359,-0.5458788,-0.2389555,-0.8249777,30.27803,6.02734,30.53541,1008.015
5.823024273,-42.50848,1.711609,6.804154,-0.642229,-0.2836457,-0.8287851,31.4024,7.906345,29.6915,1008.015
5.857670784,-42.81563,5.795375,10.91038,-0.71527,-0.3106644,-0.8548362,31.77457,7.895291,29.24329,1008.014
5.889842510,-45.94859,-2.017046,12.81028,-0.7554473,-0.3077487,-0.8173233,31.77457,7.895291,29.24329,1008.014
5.924489498,-64.62343,-2.668082,11.7684,-0.7025473,-0.3691702,-0.8805012,31.77277,5.227357,29.25631,1008.017
5.956661224,-65.1763,4.31575,5.823562,-0.7714152,-0.4456964,-0.9667674,32.90556,3.686718,29.25795,1008.017
5.991308212,-68.86213,5.38108,-1.101872,-0.7323373,-0.464231,-0.9533068,32.90556,3.686718,29.25795,1008.017
6.023480415,-66.22062,6.623965,-4.350084,-0.6878622,-0.4441549,-0.8388405,32.53181,1.347448,29.71764,1008.017
6.058126926,-52.89022,-2.017046,-1.224446,-0.6740385,-0.4542324,-0.8149526,32.90764,-0.5644006,29.66125,1008.017
6.090298653,-42.26276,-12.49279,3.372081,-0.6750722,-0.4049933,-0.787545,32.90764,-0.5644006,29.66125,1008.019
6.122470379,-48.89724,-21.1338,4.597822,-0.684062,-0.4476537,-0.8495088,33.27934,-2.480309,29.2861,1008.019
6.157116890,-14.92622,-27.22986,3.494655,-0.6452813,-0.4465949,-0.9390318,32.89536,-2.86176,28.84361,1008.019
6.189289093,-10.62609,-23.56039,-2.450186,-0.6340204,-0.3532881,-0.9798197,32.89536,-2.86176,28.84361,1008.019
6.223935604,-46.3786,-17.16841,-13.42056,-0.588761,-0.3836077,-0.9800099,34.01634,-4.794902,27.95456,1008.013
6.256107330,-19.04206,-10.00702,-18.32352,-0.5242348,-0.4003054,-0.9007377,34.76041,-5.198142,27.05999,1008.013
6.290753841,23.65207,-6.870218,-21.69431,-0.4888866,-0.373244,-0.8304725,34.76041,-5.198142,27.05999,1008.014
6.322926045,47.91709,-4.798742,-25.55539,-0.4467497,-0.3066033,-0.7845263,35.51025,-5.595698,26.6117,1008.014
6.357572556,48.22424,1.59324,-26.53599,-0.4212156,-0.2340873,-0.7427149,36.26772,-4.462222,26.666,1008.014
6.389744282,28.56651,6.209671,-27.21014,-0.4214607,-0.2164555,-0.7223232,36.26772,-4.462222,26.666,1008.012
6.424390793,15.91184,8.754626,-29.90677,-0.3924573,-0.2632748,-0.7326198,36.27453,-2.932003,27.10484,1008.01
6.456562519,35.07813,6.91989,-30.27449,-0.3768127,-0.2159364,-0.7521375,35.8921,-1.026652,26.65119,1008.01
6.491209030,7.250154,5.085155,-29.90677,-0.3473924,-0.1603809,-0.7042361,35.8921,-1.026652,26.65119,1008.01
6.523381233,-37.65548,12.54247,-28.86489,-0.3640837,-0.2459433,-0.7327417,36.64875,0.1060116,26.64174,1008.01
6.558027744,-23.83364,8.044406,-28.92618,-0.3683725,-0.230837,-0.7277572,35.91045,1.721047,27.91294,1008.01
6.590199471,-48.28294,8.636256,-29.2939,-0.3114907,-0.2477935,-0.6869757,35.91045,1.721047,27.91294,1008.008
6.624845982,-59.77043,16.86297,-30.09063,-0.3017461,-0.3135839,-0.715083,35.91122,2.864448,27.90736,1008.007
6.657017708,-30.77527,19.70386,-28.86489,-0.3048738,-0.1615388,-0.6381264,35.53906,2.875501,28.35557,1008.005
6.689189911,-77.33952,14.14046,-23.28777,-0.2829816,-0.2255405,-0.6152403,35.53906,2.875501,28.35557,1008.005
6.723836422,-53.56596,5.61782,-16.91392,-0.2816103,-0.4106895,-0.7690914,35.16613,1.743154,28.80937,1008.005
6.756008148,32.9895,-2.194602,-15.68818,-0.2545388,-0.2911331,-0.8575283,34.42017,0.557526,29.64794,1008.005
6.790654659,-21.00784,-1.366011,-11.94968,-0.2931308,-0.1290574,-0.8245021,35.18213,-0.208981,30.15783,1008.003
6.822826862,-85.07976,4.374935,-9.436907,-0.3215711,-0.2957977,-0.8762212,35.18213,-0.208981,30.15783,1008.003
6.857473373,-29.30094,2.65857,-8.027306,-0.3377179,-0.3745412,-0.9013017,34.41573,1.31492,29.26169,1008.001
6.889645100,10.69026,0.2319842,-13.29799,-0.3388856,-0.2534097,-0.8665522,34.41888,-1.348142,29.65724,1008.001
6.924291611,-17.13772,-4.562002,-15.99462,-0.4211346,-0.3155873,-0.9260653,34.41888,-1.348142,29.65724,1008.001
6.956463337,0.6771004,-9.651913,-20.346,-0.4122083,-0.3647882,-0.9434242,34.40841,-0.9775658,28.82657,1008
6.991109848,18.92193,-9.533543,-24.81995,-0.4022678,-0.2254419,-0.9312822,34.79264,-0.2149824,29.2672,1008
7.023282051,-31.38958,-12.78872,-28.55846,-0.3802408,-0.2337478,-0.8611842,34.79264,-0.2149824,29.2672,1008
7.057929039,-40.78843,-10.71724,-30.02935,-0.4090317,-0.3858536,-0.9036216,34.40918,0.1658348,28.82099,1007.998
7.090100288,17.20188,-15.57041,-30.33578,-0.4222752,-0.3524835,-0.9278048,35.543,0.1497294,28.81519,1007.998
7.124747753,17.07902,-20.06847,-30.94865,-0.4058197,-0.2313887,-0.8864721,35.543,0.1497294,28.81519,1007.996
7.156919479,-26.29085,-21.90321,-34.74845,-0.4334835,-0.320498,-0.9414145,35.5317,0.519493,27.92077,1007.996
7.189090729,-3.377307,-24.38898,-35.30003,-0.3911625,-0.3416246,-0.9472856,35.53328,2.869816,27.90929,1007.996
7.223737717,12.90175,-22.96854,-35.54518,-0.3324645,-0.2939535,-0.8958664,35.53328,2.869816,27.90929,1007.998
7.255909920,16.0347,-25.75023,-34.07429,-0.3322223,-0.256461,-0.9432775,36.27786,3.228843,27.01101,1007.998
7.290556431,-0.6743687,-21.31136,-30.09063,-0.3079692,-0.2185508,-0.9210192,36.64007,4.350633,25.7284,1007.998
7.322728157,-8.353169,-18.41129,-24.5748,-0.3280496,-0.2271844,-0.983563,36.64007,4.350633,25.7284,1007.998
7.357374668,4.854369,-15.98471,-18.50739,-0.27035,-0.2399002,-1.021802,37.02481,5.875483,26.1653,1007.998
7.389546394,-6.633119,-6.988588,-11.03037,-0.2459442,-0.1443813,-0.8930305,37.39146,6.239878,25.26895,1007.998
7.424192906,-21.37642,5.73619,-0.3664276,-0.2297254,-0.1637368,-0.8118836,37.39146,6.239878,25.26895,1007.998
7.456365109,11.9803,7.866851,12.87157,-0.3075376,-0.2355669,-0.8613957,37.75835,6.985407,24.37073,1007.998
7.491011620,42.01977,-4.088522,18.93899,-0.3143956,-0.1910683,-0.8860288,37.39197,7.002145,25.26523,1007.998
7.523183346,18.98336,12.72002,25.12897,-0.4181496,-0.1318311,-0.9501241,37.39197,7.002145,25.26523,1007.996
7.557829857,-39.9284,8.399516,15.93592,-0.531777,-0.229846,-0.8934781,37.76331,6.99028,24.75326,1007.998
7.590002060,-56.14603,1.119759,1.962479,-0.5348867,-0.4050488,-0.8303055,38.14181,6.604589,24.81694,1007.997
7.624648571,16.71044,-16.75411,-7.659583,-0.5219007,-0.3222625,-0.6605624,38.14181,6.604589,24.81694,1007.997
7.656820297,12.71746,-36.69947,-16.60749,-0.4891372,-0.2185078,-0.5284268,38.14027,4.317789,24.8281,1007.997
7.691466808,-11.30183,-46.34662,-19.97827,-0.5697197,-0.3655047,-0.6971046,38.51295,5.069002,24.37617,1007.995
7.723638535,11.85744,-64.39805,-24.08451,-0.622407,-0.356524,-0.6994309,38.51295,5.069002,24.37617,1007.993
7.755810738,12.96318,-81.44334,-25.55539,-0.6928227,-0.2925501,-0.6312486,38.4906,6.189663,22.58546,1007.993
7.790457249,12.65603,-115.2972,-28.74232,-0.7753255,-0.3429814,-0.5523285,39.9743,6.140577,20.41008,1007.993
7.822628975,52.77009,-141.4569,-26.84242,-0.7960932,-0.4479494,-0.708204,39.9743,6.140577,20.41008,1007.993
7.857275486,94.84992,-140.4508,-19.42669,-0.857705,-0.2156441,-0.8353718,41.06266,7.222393,16.82845,1007.993
7.889447212,-14.18906,-135.716,-20.65243,-0.8090078,-0.107772,-0.725523,43.32163,9.784943,11.12936,1007.993
7.924093723,-60.01615,-133.0527,-20.52986,-1.025394,-0.3016884,-0.7718565,43.63183,10.85557,5.830231,1007.993
7.956265926,13.76178,-163.0595,-6.311269,-0.7460572,-0.3493488,-0.666888,43.63183,10.85557,5.830231,1007.991
7.990912437,44.41555,-145.5999,26.17085,-0.6918903,-0.2530166,-0.5393514,44.32523,11.16424,0.9791718,1007.991
8.023084164,5.652964,-133.3486,42.71835,-0.7847537,-0.2652977,-0.4923142,43.87383,11.09733,-4.693035,1007.993
8.057730675,-56.63747,-110.2073,41.86033,-0.7260642,-0.4269075,-0.5149202,43.87383,11.09733,-4.693035,1007.993
8.089902878,-43.42994,-81.14741,34.50589,-0.829181,-0.5768852,-0.5180864,44.50347,10.2635,-9.538191,1007.993
8.124549866,58.8517,-53.09372,37.99925,-1.022634,-0.4988543,-0.4057421,43.39091,8.333251,-12.64737,1007.993
8.156721592,107.5046,-38.9485,28.00946,-0.7485145,-0.2863787,-0.1183126,43.39091,8.333251,-12.64737,1007.995
8.191368103,42.01977,1.356499,18.01968,-0.771381,-0.2389241,0.04135184,42.60697,8.316376,-14.81115,1007.995
8.223540306,-14.18906,21.06511,-1.898603,-0.9524213,-0.3588373,-0.01578738,42.90252,5.24578,-16.13672,1007.995
8.255712032,-38.5155,30.12042,-16.30105,-0.9768821,-0.3872649,-0.06736743,42.90252,5.24578,-16.13672,1007.995
8.290358543,-71.13506,33.90825,-24.32965,-0.8996427,-0.3232466,-0.02418043,42.91382,4.876016,-15.2423,1007.995
8.322530270,-84.71117,35.15114,-22.85876,-0.8697419,-0.3469308,-0.05502067,44.12848,5.638337,-13.9133,1007.999
8.357176781,-68.43211,23.0774,-18.01709,-0.9780484,-0.3589025,-0.1037547,44.12848,5.638337,-13.9133,1007.999
8.389348984,-61.12189,-0.9517161,-19.67184,-1.026056,-0.4115039,-0.1582063,42.96102,7.588617,-11.74883,1007.999
8.423995495,-35.13683,-17.70107,-14.21729,-0.900104,-0.4159157,-0.2085819,44.10139,8.721597,-11.31394,1007.999
8.456167221,-26.35228,-17.76026,-8.885324,-0.8417943,-0.3642455,-0.205326,44.10139,8.721597,-11.31394,1007.999
8.490813732,-22.85075,-18.58885,-8.640176,-0.8612683,-0.3142992,-0.2240125,43.72422,9.870365,-11.31758,1007.997
8.522985935,-26.04513,-22.3175,-7.414435,-0.8136122,-0.2644351,-0.2100681,43.78143,9.863787,-11.76419,1007.997
8.557632446,-41.21844,-21.31136,-9.436907,-0.8308483,-0.3089435,-0.2652222,43.78143,9.863787,-11.76419,1007.997
8.589804173,-23.71077,-21.84402,-8.578889,-0.8746055,-0.3380007,-0.3479573,43.39297,11.38232,-12.66226,1007.998
8.624450684,-13.82048,-23.73795,-6.556417,-0.8356713,-0.2957737,-0.3229086,43.01529,11.76882,-12.66219,1007.998
8.656622410,-22.17501,-18.17455,-3.185631,-0.86472,-0.3074701,-0.3477979,43.01529,11.76882,-12.66219,1007.998
8.691268921,-24.20222,-12.19687,-4.595232,-0.8742989,-0.3280131,-0.3743878,42.62084,11.75795,-13.93534,1007.998
8.723441124,-14.6805,-2.668082,2.023766,-0.8703867,-0.303884,-0.3269895,42.18042,12.52648,-13.9368,1007.998
8.758087635,-12.89902,5.321895,-1.776029,-0.9645759,-0.2676377,-0.3450918,42.18042,12.52648,-13.9368,1007.997
8.790259361,-15.11052,6.623965,1.656044,-0.7976778,-0.3385805,-0.310602,41.80274,12.91298,-13.93673,1007.995
8.822431087,-3.254446,12.66084,9.316922,-0.9130539,-0.306767,-0.3507151,42.19192,13.68044,-13.11358,1008.001
8.857078075,4.301495,7.393371,11.21682,-0.8152069,-0.3108947,-0.3193682,42.19192,13.68044,-13.11358,1008.002
8.889249802,7.004433,4.493305,15.01661,-0.8755438,-0.2799333,-0.3715698,42.2544,12.91727,-13.11018,1008.002
8.923896313,18.61478,-0.3006809,19.36799,-0.8016231,-0.2370492,-0.3646761,42.26595,12.92864,-12.21762,1008.002
8.956068039,61.73893,-6.159997,39.40885,-0.7775265,-0.2369999,-0.3427285,42.26595,12.92864,-12.21762,1007.998
8.990714550,104.1259,-8.645767,53.01457,-0.8120216,-0.18398,-0.3501636,41.87703,12.54232,-13.04263,1007.998
9.022886753,100.0715,0.2319842,69.31692,-0.8982575,-0.1892648,-0.2727645,42.93502,10.61007,-13.93137,1007.997
9.057533264,122.8622,11.41795,75.38433,-1.045006,-0.1013677,-0.2986265,42.98439,7.54874,-14.80937,1008.001
9.089704990,92.51556,46.27792,63.06564,-0.9906331,-0.2643376,-0.3115634,42.98439,7.54874,-14.80937,1008.001
9.124351978,130.2953,87.35233,70.23622,-0.8673778,-0.585893,-0.703856,44.12141,3.726985,-14.35028,1008.001
9.156523228,303.6519,116.2346,70.66523,-0.8477383,-0.1068882,-0.5728425,45.28672,0.2504526,-11.72509,1008.001
9.191170692,460.8524,191.5771,100.1443,-1.306273,-0.7664496,-0.986593,45.28672,0.2504526,-11.72509,1008.002
9.223342419,572.0414,-7.639623,42.22805,-1.513777,-0.09849267,-0.1019109,46.1138,-4.260795,-5.96874,1008.002
9.257988930,334.3671,-16.93167,-33.03241,-0.4513677,0.7192673,0.3190769,46.96265,-9.512383,1.512705,1008.001
9.290161133,-263.658,46.51466,13.54573,-0.8233593,0.4939712,0.005462937,46.96265,-9.512383,1.512705,1008.001
9.324807644,-311.9423,77.40924,-16.48491,-1.27316,-0.4563393,-0.9708494,46.98076,-8.351927,2.845964,1007.999
9.356979370,-63.94769,39.59002,-26.78113,-1.174072,-0.5995365,-0.7825646,46.98551,-9.870777,3.299686,1007.995
9.389151096,-94.54004,64.80283,-63.43078,-0.7661847,-0.3755459,-0.5522003,46.98551,-9.870777,3.299686,1007.995
9.423797608,-212.1793,85.99107,-108.8445,-0.9399403,-0.2522923,-0.7312767,46.61882,-9.092583,4.126707,1007.993
9.455969811,-137.9099,110.7896,-68.21117,-0.7381687,-0.5490283,-0.5606399,47.03271,-7.158175,6.793152,1007.993
9.490616322,31.88375,106.7058,-56.87307,-0.7501651,-0.4230922,-0.5392458,47.03271,-7.158175,6.793152,1007.995
9.522788048,71.44494,92.14631,-48.04773,-0.8073646,-0.2150434,-0.5360329,46.70145,-5.202472,10.29227,1007.999
9.557434559,61.49321,70.60297,-44.9221,-0.6026427,-0.02816732,-0.6549744,46.37675,-2.097684,14.23209,1007.999
9.589606285,-22.5436,68.59068,-33.33885,-0.572276,-0.03067189,-0.5824965,46.37675,-2.097684,14.23209,1007.999
9.624253273,-68.92356,79.30316,-25.55539,-0.5112373,-0.2164053,-0.836683,46.03502,0.2285948,16.90054,1007.999
9.656424999,-75.74233,102.3261,-25.73925,-0.5263255,-0.4206943,-0.9654742,44.18546,1.056686,19.9667,1007.999
9.691071510,-17.93632,116.5305,-32.35825,-0.6221439,-0.6117192,-1.125697,44.18546,1.056686,19.9667,1007.999
9.723243237,39.07111,108.4814,-44.00279,-0.5398754,-0.4075039,-0.9001691,43.09156,1.55643,23.03054,1007.999
9.757889748,13.76178,105.9364,-52.76683,-0.5415009,-0.4897755,-0.9957861,39.67252,1.650308,26.55476,1007.999
9.790061951,52.46294,88.29929,-52.82812,-0.4793912,-0.4358014,-1.006043,39.67252,1.650308,26.55476,1007.999
9.824708462,50.92718,84.03796,-44.00279,-0.2513534,-0.2999892,-0.9969289,37.44635,3.246847,29.68289,1007.999
9.856880188,-9.643209,106.765,-34.38073,-0.2126117,-0.2734489,-0.9291096,34.45874,6.372159,32.2974,1007.999
9.889051914,-46.01001,133.5166,-34.5033,-0.2308778,-0.3276354,-1.044102,34.45874,6.372159,32.2974,1007.999
9.923698425,-29.4238,131.6227,-28.3746,-0.233726,-0.3730038,-1.012637,32.22705,8.344149,34.97738,1007.999
9.955870628,-35.874,137.2453,-24.39094,-0.224774,-0.3227155,-0.8426424,28.49249,8.822821,38.4376,1007.999
9.990517139,-26.7823,108.5997,-14.52373,-0.2764102,-0.5467143,-0.7813473,28.49249,8.822821,38.4376,1007.999
10.022688866,69.41773,89.06869,-15.1366,-0.1860244,-0.4856896,-0.7402357,23.60714,7.396502,40.70158,1007.999
10.057336330,16.0347,64.56609,-7.230574,-0.2004606,-0.2733318,-0.5281985,18.71652,6.726765,42.51557,1007.997
10.089507103,-14.43478,35.15114,3.004359,-0.1522613,-0.4620788,-0.7408381,18.71652,6.726765,42.51557,1007.997
10.124154568,56.8245,8.577071,-6.556417,-0.08605337,-0.3754361,-0.9181174,14.94362,9.072123,42.90627,1007.997
10.156326294,-10.87182,-6.219182,-17.0365,0.02137394,-0.2048357,-0.8184214,13.81036,8.707908,42.97769,1007.994
10.190972805,-73.22369,-3.378302,-23.53292,0.1401491,-0.3647152,-0.8926657,13.04948,9.856359,42.52969,1007.994
10.223145008,-58.97183,0.2319842,-34.9936,0.255718,-0.4136873,-0.9375278,13.04948,9.856359,42.52969,1007.992
10.257791519,-35.01397,14.55476,-39.83527,0.1580675,-0.4887235,-0.8490293,13.43846,9.100094,43.42404,1007.99
10.289963245,35.99959,1.178944,-39.52884,0.1680271,-0.4991542,-0.9364501,13.06393,6.823534,43.81966,1007.988
10.324609757,48.65425,-7.876363,-37.50637,0.2850398,-0.3171926,-0.804938,13.06393,6.823534,43.81966,1007.988
10.356781483,24.26638,-8.290657,-32.72598,0.3387152,-0.2942889,-0.758496,11.92542,7.215901,43.44108,1007.988
10.391427994,9.154498,-10.00702,-30.76479,0.3927487,-0.3062854,-0.7687391,12.29861,8.729382,42.98542,1007.988
10.423600197,-9.151765,-4.857927,-30.27449,0.3748963,-0.3137105,-0.7989997,12.29861,8.729382,42.98542,1007.984
10.455771923,-12.34615,-6.988588,-29.11004,0.3610319,-0.3820082,-0.7897935,12.67732,9.867414,42.97791,1007.984
10.490418434,1.905709,-4.680372,-29.35519,0.4044865,-0.4111423,-0.889249,11.93217,9.888708,43.81058,1007.987
10.522590637,-4.851637,2.5402,-20.71372,0.4148064,-0.3744138,-0.8403606,11.93217,9.888708,43.81058,1007.987
10.557237148,-5.158789,6.860705,-6.372556,0.3196477,-0.3753543,-0.8978023,11.91566,9.872465,42.53549,1007.987
10.589408875,18.73764,2.362644,2.330201,0.3057516,-0.2749901,-0.8578033,11.92747,10.26497,43.42619,1007.985
10.624055386,-12.89902,4.374935,12.74899,0.3207903,-0.2732494,-0.8111753,11.92747,10.26497,43.42619,1007.985
10.656227112,-20.63925,-8.231472,18.32611,0.3304386,-0.4053762,-0.8186206,11.54979,10.65147,43.42627,1007.985
10.690873623,11.30456,-12.49279,16.54879,0.3937648,-0.4323531,-0.8772738,11.54871,10.26953,43.36437,1007.985
10.723045826,-12.96045,-5.686517,12.68771,0.4321481,-0.3896973,-0.8599283,11.54871,10.26953,43.36437,1007.985
10.757692337,-38.45407,5.203525,6.620293,0.391266,-0.4691458,-0.8664678,11.92092,9.115883,42.9855,1007.983
10.789864063,-21.62214,0.6462793,2.14634,0.3747627,-0.5057341,-0.8381775,12.30356,8.734255,43.36795,1007.983
10.824510574,18.43049,-2.076231,5.210692,0.4031648,-0.3389912,-0.8491178,12.30356,8.734255,43.36795,1007.983
10.891329288,-34.95254,-2.964007,33.035,0.3190128,-0.2488278,-0.9184433,11.92567,7.597034,43.43922,1007.981
10.923501015,-24.32508,-5.449777,44.92468,0.2961558,-0.2326472,-0.9749725,11.92567,7.597034,43.43922,1007.981
10.958148003,-24.69366,-3.555857,51.60497,0.2193004,-0.1700673,-1.091829,12.68682,6.829715,43.88535,1007.981
10.990320206,-57.4975,2.244274,50.93081,0.1581626,-0.2467031,-1.187327,13.82481,5.675082,44.26766,1007.977
11.022491455,-35.38255,4.78923,45.72141,0.1274462,-0.333568,-1.141966,13.82481,5.675082,44.26766,1007.977
11.057138443,8.478764,8.577071,38.36697,0.04237825,-0.3217581,-1.049977,13.82436,3.770227,44.34072,1007.981
11.089310169,44.29269,3.36879,22.92264,0.06299485,-0.2313973,-0.9631466,13.4553,1.054696,45.1848,1007.981
11.123956680,44.72271,-1.010901,10.78781,0.1405013,-0.1468263,-0.8981026,13.4553,1.054696,45.1848,1007.976
11.156128883,23.16063,-2.135417,9.991079,0.1782959,-0.07230672,-0.9662849,13.44952,1.049011,44.73851,1007.976
11.190775394,-47.05433,11.53632,16.11978,0.132733,-0.09831978,-1.033072,13.06739,3.399018,44.28269,1007.976
11.222947121,-70.33646,8.458701,21.45175,0.05248589,-0.2967909,-1.078786,13.07317,3.404703,44.72897,1007.978
11.257593632,-22.85075,-5.153852,19.98087,0.1442956,-0.441773,-1.000826,13.07317,3.404703,44.72897,1007.978
11.289765835,55.35017,-0.892531,11.70712,0.2536759,-0.3571818,-0.9756028,13.07184,1.435513,44.73859,1007.972
11.324412346,65.11761,9.997512,-0.6728628,0.2320585,-0.1189203,-0.9339129,12.69287,-0.08365226,44.74796,1007.97
11.356584072,-5.035928,9.997512,-3.553353,0.2101945,-0.05734819,-0.8941593,12.69287,-0.08365226,44.74796,1007.974
11.391230583,-53.56596,11.35877,-0.4890017,0.26727,-0.2930359,-0.9568848,12.69416,1.822015,44.73866,1007.969
11.423402310,-16.64628,17.75075,-2.388899,0.274154,-0.4424079,-0.9364905,12.32807,2.283409,45.63099,1007.973
11.458048821,79.43089,6.505595,-3.859788,0.2817904,-0.2947052,-0.9122082,12.32807,2.283409,45.63099,1007.973
11.490221024,60.81747,11.00366,-0.05999249,0.3058972,-0.03895072,-0.8385068,11.94303,0.3139031,45.19625,1007.973
11.522392750,-28.56378,12.12817,6.375145,0.2295955,-0.03728069,-0.859953,11.19008,3.438042,45.24868,1007.971
11.557039261,-55.77745,5.49945,13.48444,0.2607957,-0.2849396,-0.9181978,11.19008,3.438042,45.24868,1007.971
11.589210987,-17.5063,4.67086,12.74899,0.2986325,-0.401875,-0.8886669,10.43992,4.597053,45.62949,1007.971
11.623857498,39.50112,0.05442913,1.901192,0.3117428,-0.3415913,-0.8675662,10.8108,2.680332,45.19058,1007.971
11.656029701,34.89384,-8.409027,-6.433843,0.3692302,-0.2404898,-0.8118392,10.8108,2.680332,45.19058,1007.971
11.690676212,2.028569,-11.84176,-5.943546,0.3294715,-0.2573912,-0.8892095,10.06069,2.696754,45.64073,1007.971
11.722847939,-2.578712,-19.53581,-5.208102,0.290209,-0.3555272,-0.9262841,9.683528,3.845523,45.63708,1007.971
11.757494450,16.89473,-44.80781,-6.617704,0.3391453,-0.5054394,-1.011845,9.683528,3.845523,45.63708,1007.971
11.789666653,79.06231,-50.31202,8.091182,0.288572,-0.4246408,-1.203988,10.80579,3.818048,44.73871,1007.971
11.824313641,37.41249,-37.58724,14.34246,0.2786687,-0.04344834,-0.9987957,11.9346,4.939658,44.28105,1007.971
11.856484890,-125.6238,7.452556,27.02887,0.1207188,-0.2131798,-0.955341,11.9346,4.939658,44.28105,1007.971
11.891131878,-75.12803,12.18736,22.98393,0.006322633,-0.5888668,-1.030153,14.19801,7.188562,43.812,1007.973
11.923304081,70.46205,-3.082377,16.18107,0.08825675,-0.4318244,-0.8797207,14.57992,4.520945,44.26937,1007.973
11.957950592,33.97239,6.56478,23.1065,0.08888993,-0.1963088,-0.8021111,14.57992,4.520945,44.26937,1007.973
11.990122318,-52.58307,9.760772,24.63868,0.03584598,-0.3079865,-0.9047207,14.5726,2.228459,43.83426,1007.973
12.024768829,-33.96965,17.98749,14.83275,0.02701771,-0.4350497,-1.022812,13.82404,4.531682,44.27324,1007.974
12.056940556,11.05884,18.40178,1.778618,0.06773104,-0.3287497,-0.9331455,13.82404,4.531682,44.27324,1007.976
12.089112759,-2.947294,22.24881,-1.530881,0.1301804,-0.2846215,-0.8981784,14.2007,2.620646,44.28061,1007.976
12.123759270,-17.62916,28.40405,2.881785,0.05315513,-0.3150415,-0.9902544,13.06662,2.255618,44.28827,1007.976
12.155930996,-27.51946,22.24881,2.452775,-0.02389866,-0.3209001,-0.9813897,13.06662,2.255618,44.28827,1007.976
12.190577507,-17.13772,10.41181,0.8593129,0.02557733,-0.3455981,-1.005191,12.31652,2.272039,44.73842,1007.976
12.222749710,-5.650232,7.393371,-2.817909,0.1605634,-0.3126657,-0.927613,11.17637,1.456671,44.30197,1007.976
12.257396221,-13.45189,14.08128,-3.124344,0.1635463,-0.2787804,-0.9374835,11.1756,0.3132704,44.30756,1007.976
12.289567947,-23.21933,4.966785,-3.185631,0.1868782,-0.270276,-0.9525731,11.1756,0.3132704,44.30756,1007.976
12.324214459,-26.04513,7.807666,-3.369492,0.2594679,-0.3162031,-0.9449531,10.04838,0.3358729,44.82339,1007.976
12.356386185,-7.554575,13.43024,-3.246918,0.2482027,-0.3234385,-0.9463536,10.4192,-0.4382595,44.31514,1007.976
12.391032696,15.35897,11.2404,-1.285733,0.2609775,-0.2654315,-0.9059886,10.4192,-0.4382595,44.31514,1007.978
12.423204899,7.188724,12.60165,1.472183,0.2227176,-0.2248386,-0.890837,9.675189,-1.177608,45.27905,1007.976
12.457851410,-9.397487,8.517886,-0.9180108,0.2547465,-0.2382174,-0.9057061,9.285125,-0.8032875,44.32281,1007.978
12.490023136,-25.67655,8.932181,-0.1212795,0.2684475,-0.3122376,-0.8654743,9.285125,-0.8032875,44.32281,1007.976
12.524669647,0.3085179,-1.306826,-2.634048,0.3137774,-0.3221457,-0.9252648,8.157084,-0.781497,44.77489,1007.976
12.556841850,1.291405,5.440265,-6.004834,0.3346924,-0.2507816,-0.9099296,8.534251,-1.930266,44.77854,1007.976
12.589013577,-10.38037,7.570926,-0.7954367,0.2827158,-0.2599391,-0.9350662,8.534251,-1.930266,44.77854,1007.974
12.623660088,-1.964407,4.493305,7.968608,0.3215689,-0.3328379,-0.9220517,8.157136,-1.924086,44.84423,1007.973
12.655831814,31.51517,5.49945,6.865441,0.3518779,-0.2396483,-0.9027683,8.151616,-1.548637,44.39608,1007.973
12.690478325,-0.6129383,12.06899,14.58761,0.2817664,-0.08545385,-0.8420389,8.151616,-1.548637,44.39608,1007.973
12.722650528,-60.13901,0.7054643,22.00334,0.2623022,-0.2350633,-0.9954026,7.778888,-1.157262,44.77869,1007.973
12.757297516,-0.428647,3.309605,13.30058,0.2061303,-0.1816023,-1.085536,7.400947,-1.151894,44.78062,1007.973
12.789469242,-36.4883,-2.017046,11.15553,0.1195081,-0.08773517,-0.9277856,7.400947,-1.151894,44.78062,1007.974
12.824115753,-43.36851,-6.396738,8.091182,0.1510948,-0.3354889,-0.9980848,7.021979,-2.671059,44.79,1007.973
12.856287956,37.35106,-21.1338,-4.962954,0.1200971,-0.3239616,-1.033851,7.393111,-4.206647,44.34922,1007.973
12.890934467,22.30061,-28.35438,-13.97215,0.110799,-0.1687884,-0.9958526,7.393111,-4.206647,44.34922,1007.973
12.923106194,-14.61907,-34.62799,-17.46551,0.06476444,-0.2030423,-0.9985974,7.776572,-4.587464,44.79543,1007.975
12.957752705,5.10009,-43.20982,-25.61668,0.1184825,-0.292734,-0.9506741,8.9059,-2.703587,44.33405,1007.971
12.989924908,48.3471,-57.71015,-35.30003,0.2161129,-0.1205933,-0.9723378,8.9059,-2.703587,44.33405,1007.973
13.024571419,0.2470875,-52.02839,-31.6841,0.3526403,-0.05326437,-0.9022028,10.79534,-3.111563,44.32624,1007.971
13.056743145,-45.82572,-32.43814,-22.36847,0.2573784,-0.1635107,-1.035255,13.05328,-1.629797,43.47839,1007.973
13.091389656,-29.11665,-28.53193,-20.52986,0.2847202,-0.2395165,-1.054935,13.05328,-1.629797,43.47839,1007.973
13.123561382,-12.10042,-3.733412,-21.69431,0.2763312,-0.3028702,-1.093456,14.56478,-2.032405,43.47251,1007.975
13.155733585,8.601624,0.3503542,-32.11311,0.1931793,-0.1963604,-0.9934745,16.06472,-2.446382,42.57407,1007.975
13.190380096,8.601624,8.162776,-35.30003,0.1249579,-0.1089644,-0.9077675,16.06472,-2.446382,42.57407,1007.971
13.222551823,-2.33299,-5.272222,-33.76786,0.1182583,-0.09329864,-0.9577037,15.68652,-2.822147,42.57787,1007.975
13.257198334,-20.94641,-12.31524,-19.73313,0.3657817,-0.03401848,-0.9156628,16.06498,-2.065248,42.57221,1007.975
13.289370060,-74.14514,16.44868,6.007423,0.3310459,-0.06576736,-1.026942,16.06498,-2.065248,42.57221,1007.977
13.324016571,-42.87706,25.74073,21.02274,0.09843954,-0.2127283,-1.226013,16.07127,-1.297297,43.01477,1007.977
13.356188774,22.4849,12.54247,18.63255,0.1136046,-0.09916819,-1.21847,16.44215,-3.214017,42.57586,1007.977
13.390835285,-6.694549,24.14273,25.92571,0.211467,-0.03960023,-0.9836768,15.3073,-4.722446,42.58911,1007.977
13.423007012,-22.5436,27.87139,29.66422,0.2042336,-0.1240724,-0.9905717,15.3073,-4.722446,42.58911,1007.977
13.457653523,-0.4900775,34.08581,31.56411,0.1811587,-0.2173765,-1.020046,14.93514,-4.711393,43.03732,1007.977
13.489825726,57.50023,19.76304,28.3159,0.1087489,-0.1441686,-1.07757,14.18427,-5.838372,43.49305,1007.975
13.524472714,59.46601,3.25042,25.12897,0.103405,-0.03397845,-0.9537022,14.18427,-5.838372,43.49305,1007.975
13.556643963,3.56433,0.5279093,28.19333,0.1595455,-0.03137384,-0.8944367,13.0457,-4.303417,43.04513,1007.975
13.591290951,-53.93454,-3.615042,28.86748,0.1735746,-0.1258891,-0.8052128,11.91182,-3.144722,42.98159,1007.973
13.623463154,-25.12367,-25.33594,16.42622,0.1865309,-0.2165442,-0.845605,11.91182,-3.144722,42.98159,1007.973
13.658109665,22.4849,-17.40515,4.41396,0.222195,-0.3088592,-1.086735,11.53394,-4.281943,43.05286,1007.975
13.690281391,86.00394,-6.811033,-16.66878,0.231558,-0.3180102,-1.071473,13.04467,-5.827951,43.05257,1007.975
13.722453118,90.79552,-13.08464,-35.11617,0.2444345,-0.2217088,-1.037542,13.04467,-5.827951,43.05257,1007.973
13.757100105,63.45898,-5.864072,-41.85774,0.2813281,-0.1583131,-0.9751853,13.42859,-4.303912,43.42572,1007.973
13.789271831,37.35106,-2.253787,-41.1223,0.2626424,-0.1743077,-0.9843009,13.80441,-0.1216851,43.02079,1007.973
13.823918343,27.46076,5.38108,-39.09983,0.2729499,-0.1965112,-1.024586,13.80441,-0.1216851,43.02079,1007.973
13.856090069,36.4296,3.072865,-33.76786,0.2676429,-0.166039,-0.9158354,14.17841,2.598718,42.55924,1007.973
13.890736580,47.97852,4.730045,-22.92005,0.3374349,-0.09239152,-0.9505835,13.4296,4.520808,43.00009,1007.975
13.922908783,14.25322,11.47714,-9.498195,0.310704,-0.04677857,-0.8434361,13.4296,4.520808,43.00009,1007.975
13.957555294,-23.9565,9.819957,8.091182,0.3039483,-0.1278776,-0.8531997,13.41933,6.415105,42.09822,1007.977
13.989727020,-6.264536,5.49945,21.51304,0.2967126,-0.2389107,-0.9056215,13.81537,7.570192,43.42955,1007.977
14.024373531,15.60469,5.02597,25.68056,0.2861931,-0.233304,-0.940663,13.81537,7.570192,43.42955,1007.977
14.056545258,-5.220219,-5.568147,25.98699,0.2457618,-0.1972905,-0.8913069,13.04716,6.426158,42.54644,1007.977
14.091191769,-28.31805,-25.69105,29.7255,0.2663037,-0.425929,-1.007617,14.18124,6.791186,42.53878,1007.977
14.123363972,50.98861,-33.44429,35.18005,0.3565176,-0.4046385,-1.083958,14.18124,6.791186,42.53878,1007.977
14.158010483,-24.69366,12.77921,43.94409,0.2951459,-0.2211422,-0.8683463,14.55289,6.017866,42.09428,1007.977
14.190182209,-96.50581,34.61847,37.20251,-0.009412562,-0.4525313,-1.11034,15.69248,6.007445,42.53476,1007.977
14.222354412,-3.86875,20.47326,11.40068,-0.006418253,-0.5554484,-1.110734,15.69248,6.007445,42.53476,1007.977
14.257000923,31.94518,20.17734,-1.163159,0.1605169,-0.3571963,-0.9115918,15.69641,4.487784,42.92473,1007.977
14.289172649,-3.86875,35.6838,-3.921075,0.1608906,-0.3084622,-0.9487894,15.69569,2.201796,42.99965,1007.977
14.323819161,-46.93147,45.09422,-4.717806,-0.0005052714,-0.4249367,-1.05091,15.69569,2.201796,42.99965,1007.977
14.355990887,-17.99775,42.84519,-9.865916,-0.149581,-0.5791181,-1.062358,15.31852,3.350564,42.996,1007.977
14.390637398,80.41377,7.985221,-19.67184,-0.04196887,-0.4562602,-0.8594271,13.433,2.238879,43.39378,1007.978
14.422809601,93.62132,-2.253787,-19.3654,0.122875,-0.2629235,-0.7326055,13.433,2.238879,43.39378,1007.978
14.457456589,3.932912,-4.621187,-13.78829,0.08774254,-0.1563983,-0.7256154,11.9215,2.641487,43.39965,1007.977
14.489628315,-67.87924,-13.61731,-16.17848,0.1146373,-0.3946569,-0.9524424,11.54588,6.077057,43.38484,1007.978
14.524275303,-23.1579,-13.02546,-26.78113,0.227839,-0.5377717,-1.059273,11.92516,6.834767,43.44294,1007.978
14.556447029,22.73062,6.209671,-32.48083,0.2469856,-0.4140804,-0.9311835,11.92516,6.834767,43.44294,1007.977
14.591093540,34.89384,-1.780306,-34.07429,0.2102723,-0.2695643,-0.7821577,12.29521,4.917234,42.94027,1007.977
14.623265267,17.38617,-6.574293,-28.98747,0.2379369,-0.1886375,-0.7812666,11.55744,6.088427,44.2774,1007.978
14.657911778,-12.16186,-12.25605,-21.2653,0.2554483,-0.2491475,-0.8749548,11.55744,6.088427,44.2774,1007.978
14.690083981,-12.40758,-13.49894,-17.09778,0.3109966,-0.3272792,-0.9633592,11.5417,7.215584,42.99673,1007.978
14.724730492,-9.397487,-5.568147,-13.727,0.3282914,-0.3803238,-0.9702238,12.29784,7.585981,42.991,1007.978
14.756902218,13.57749,-1.306826,-15.32046,0.2821195,-0.3591294,-0.9580503,12.29784,7.585981,42.991,1007.98
14.789073944,13.94607,-2.490527,-17.0365,0.2631884,-0.3188445,-0.9074136,12.67444,6.817533,42.92904,1007.982
14.823720455,5.16152,-7.876363,-16.85264,0.266883,-0.3306973,-0.8685039,12.67,7.574928,42.54279,1007.98
14.855892658,10.93598,-13.43975,-16.91392,0.3091871,-0.3392665,-0.8824652,12.67,7.574928,42.54279,1007.98
14.890539169,8.601624,-14.26834,-17.9558,0.3718423,-0.2978154,-0.8798161,12.67,7.574928,42.54279,1007.98
14.922710896,-16.64628,-12.8479,-16.85264,0.3217188,-0.2930863,-0.8653314,13.43083,7.569064,42.92145,1007.98
14.957357407,-10.81039,-18.64803,-12.50126,0.3192695,-0.3051719,-0.8605882,13.43083,7.569064,42.92145,1007.98
14.989529133,-15.17195,-17.81944,-5.146815,0.3872111,-0.2759482,-0.8036233,13.04845,8.331826,42.53713,1007.98
15.024176121,-21.49928,-16.8133,2.820498,0.344606,-0.293728,-0.8708523,14.18201,7.934587,42.53319,1007.976
15.056347847,-16.40055,-19.65418,10.72652,0.3792449,-0.2590909,-0.8887239,14.18201,7.934587,42.53319,1007.978
15.090994358,-25.30796,-16.33982,19.61314,0.3734811,-0.1840249,-0.9140792,14.93186,7.537032,42.0849,1007.978
15.123166084,-47.54577,-11.54583,29.11263,0.3588012,-0.1293454,-0.9453034,15.3148,6.393948,42.53484,1007.984
15.157812595,-94.6629,-1.543566,38.30568,0.3391405,-0.0525264,-0.9411128,15.3148,6.393948,42.53484,1007.98
15.189984798,-172.1266,-2.668082,49.0922,0.2921122,-0.1351485,-0.9225571,16.07486,5.244683,42.91908,1007.984
15.224631786,-186.9928,-8.113102,53.38229,0.3413446,-0.3461674,-1.001394,17.20137,1.729981,42.5478,1007.985
15.256803513,-121.6309,-27.17068,53.62744,0.3483661,-0.3069346,-0.8816002,17.20137,1.729981,42.5478,1007.985
15.291450024,-3.86875,-68.77774,61.41089,0.07371788,-0.005859783,-0.7252076,17.94684,-5.146844,42.13115,1007.985
15.323622227,107.566,-99.02128,96.89608,-0.1927236,0.06569628,-0.9332473,17.92044,-11.26691,40.43955,1007.987
15.355793953,156.8332,-163.9472,88.37718,-0.1058862,-0.1887069,-0.6970831,17.92044,-11.26691,40.43955,1007.987
15.390440464,320.2381,-85.88221,110.0115,-0.06760357,-0.1838962,-1.370754,20.176,-12.07275,39.53911,1007.987
15.422612667,206.469,-110.5032,123.1882,-0.1051765,0.2365121,-0.8184221,25.07998,-8.723715,38.60466,1007.987
15.457259178,71.19921,-58.65711,142.2485,-0.08781751,-0.07060713,-1.043318,28.09079,-1.923313,37.21685,1007.983
15.489430905,76.11365,-41.07916,165.415,-0.5792388,-0.3566056,-1.311974,28.09079,-1.923313,37.21685,1007.983
15.524077416,148.8473,-18.29292,151.319,-0.3893051,-0.5261074,-1.392263,31.09883,-0.4579699,35.91885,1007.985
15.556249142,140.1856,44.384,131.7071,-0.4992028,-0.5769851,-1.262964,32.21981,-2.391113,35.02979,1007.985
15.590895653,32.80521,45.15341,72.81028,-0.06027224,-0.9128849,-0.667811,32.21981,-2.391113,35.02979,1007.987
15.623067856,153.2088,92.14631,50.93081,-0.5282493,-0.7280222,-1.103914,31.47517,-1.607551,35.85875,1007.987
15.657714367,-32.00388,22.48555,-28.74232,-0.4419568,-0.112945,-0.6562087,29.23694,-0.7846484,38.09803,1007.987
15.689886093,-165.3693,20.82837,-59.44712,-0.1592253,-0.4181975,-0.7196853,29.23694,-0.7846484,38.09803,1007.987
15.724532604,-145.8344,43.02275,-45.47368,-0.1847458,-0.6124485,-0.8752884,27.7328,1.973967,38.53872,1007.987
15.756704330,-39.06838,40.65535,-29.90677,-0.226705,-0.4754198,-0.8824432,26.97926,-1.885281,38.94403,1007.987
15.791351318,-4.913067,26.92443,-31.1938,-0.1898165,-0.3124135,-0.8689116,26.97926,-1.885281,38.94403,1007.987
15.823523045,-35.25969,14.90987,-38.42567,-0.1524199,-0.3707911,-0.8620299,25.47701,-4.901505,39.85921,1007.987
15.855694771,-35.93542,13.25269,-38.42567,-0.1284461,-0.3505436,-0.8644966,24.72824,-4.122004,40.36939,1007.987
15.890341282,-25.1851,14.19965,-39.95785,-0.1531433,-0.3245428,-0.9705737,24.72824,-4.122004,40.36939,1007.987
15.922513485,-28.87093,10.8261,-47.49615,-0.1263579,-0.3392325,-0.9699808,23.97654,-5.249794,40.76136,1007.987
15.957159996,-23.89507,3.783085,-48.23159,-0.04603047,-0.3539049,-0.8696314,23.97133,-5.635801,40.3807,1007.987
15.989331722,-9.827499,9.938327,-45.47368,-0.05245497,-0.3887263,-0.9204684,23.97133,-5.635801,40.3807,1007.987
16.023978233,8.970206,-3.200747,-47.98645,-0.05877464,-0.3760999,-0.9236794,23.59282,-5.250111,40.31702,1007.988
16.056149960,16.21899,-14.62345,-40.44814,-0.06627101,-0.2979232,-0.9244109,23.59365,-5.249299,40.38077,1007.99
16.090797424,-10.50323,-14.38671,-32.41954,-0.0472266,-0.2573865,-0.9425704,23.59365,-5.249299,40.38077,1007.996
16.122969151,-38.33121,2.89531,-27.21014,-0.03128877,-0.2551996,-0.9634271,24.3503,-4.116635,40.37132,1007.996
16.157615662,-29.79239,8.813811,-27.14886,-0.05213727,-0.2844701,-0.9331079,25.10669,-3.365105,40.36374,1007.996
16.189787865,-38.20835,14.02209,-23.71678,-0.03931732,-0.3061736,-0.9068964,25.10669,-3.365105,40.36374,1007.998
16.224434376,-41.03415,20.59163,-11.45938,-0.1033484,-0.4131907,-1.041659,25.10535,-4.128184,40.3037,1007.998
16.256606102,2.704304,23.19577,-6.556417,-0.1310596,-0.5520759,-1.194375,23.97102,-4.874346,40.31322,1007.998
16.291252613,64.74902,19.58549,-11.76581,-0.08874342,-0.421962,-1.099708,23.97102,-4.874346,40.31322,1007.999
16.323424339,50.80432,23.31414,-11.76581,-0.07734308,-0.3001099,-0.9633676,23.59835,-5.62556,40.76516,1007.995
16.358070850,-5.588802,23.01822,-12.74641,-0.08828483,-0.3490843,-0.9641512,22.85505,-4.078919,41.65414,1007.995
16.390243054,-19.04206,18.7569,-13.11413,-0.08195844,-0.41393,-0.9348609,22.85505,-4.078919,41.65414,1007.999
16.422414780,7.188724,15.44253,-9.865916,-0.08960813,-0.5002315,-0.990449,22.47211,-2.935834,41.20422,1007.998
16.457061291,64.13472,5.321895,-10.47879,-0.03538406,-0.401392,-0.9154301,21.72778,-2.913728,42.10064,1007.998
16.489233017,57.68452,9.701587,-4.84038,0.00760448,-0.2546341,-0.8649754,21.72778,-2.913728,42.10064,1007.998
16.523879528,19.29052,6.505595,2.14634,0.0462786,-0.2189674,-0.8096123,20.21679,-1.748853,42.1028,1007.998
16.556051731,0.001365848,12.77921,14.21988,0.05548376,-0.2717458,-0.8501393,19.85113,0.5538738,42.92237,1007.994
16.590698242,-17.26058,13.37106,28.62234,0.07734815,-0.3184016,-0.780838,20.23041,1.311584,42.98048,1007.994
16.622869969,-7.554575,13.54861,43.8828,0.06200001,-0.355278,-0.7891928,20.23041,1.311584,42.98048,1007.994
16.657516480,5.468673,3.36879,60.79802,0.02892,-0.4134935,-0.806716,19.47953,0.1846058,43.43621,1007.992
16.689688683,-22.91218,-1.957861,66.62029,0.07717897,-0.4103588,-0.8726925,18.72206,-0.9488697,43.3819,1007.992
16.724335194,-38.26978,7.807666,71.21681,0.1536265,-0.4586903,-0.9856281,18.72206,-0.9488697,43.3819,1007.992
16.756506920,-10.87182,18.40178,69.56207,0.1662923,-0.5481589,-1.061194,19.10552,-1.329687,43.82811,1007.992
16.791153908,19.47481,33.43477,67.35573,0.1450435,-0.4313468,-1.033041,19.47036,-3.633226,42.94478,1007.992
16.823325157,15.72755,42.49008,66.62029,0.1037918,-0.3782619,-0.973414,19.47036,-3.633226,42.94478,1007.992
16.857972622,16.95616,42.78601,66.98801,0.07850266,-0.3297376,-0.9284341,17.20856,-4.737919,43.472,1007.992
16.890144348,-6.87884,46.15955,76.67136,0.10855,-0.2934009,-0.8546689,16.08546,-4.711256,44.30661,1007.992
16.924790859,-15.78625,47.1657,88.3159,0.04258645,-0.3182585,-0.9106523,16.08546,-4.711256,44.30661,1007.992
16.956962585,-6.81741,49.1188,95.85419,-0.03502039,-0.3139815,-0.9725528,14.57319,-5.452049,44.31806,1007.99
16.989134789,-17.01486,46.98814,95.54776,-0.04208557,-0.3180656,-0.9402266,11.18278,-6.15463,45.23175,1007.99
17.023781300,-20.39353,44.02889,93.21886,-0.01530056,-0.3651548,-0.9239948,11.18278,-6.15463,45.23175,1007.988
17.055953026,-4.790206,43.79215,89.11263,-0.03750338,-0.3831589,-0.94418,8.914111,-7.646952,45.2508,1007.988
17.090599537,4.670077,39.47165,82.98392,-0.06103121,-0.3033857,-0.9370368,7.02942,-8.757824,45.71233,1007.988
17.122771740,-28.93236,43.73297,77.8971,-0.03245905,-0.3163385,-0.8988503,7.02942,-8.757824,45.71233,1007.988
17.157418251,-23.83364,43.79215,72.01354,-0.07744655,-0.3828943,-0.9356111,4.372542,-8.350481,44.83144,1007.987
17.189589977,1.291405,32.90211,68.52019,-0.06851827,-0.3286843,-0.8865656,1.359553,-9.820698,45.74692,1007.987
17.224236488,-20.39353,29.46938,64.90425,-0.02362022,-0.2921537,-0.9040353,1.359553,-9.820698,45.74692,1007.983
17.256408215,-39.49839,25.79991,60.18515,-0.0167727,-0.3221174,-0.9457982,-0.5304031,-10.17499,45.75845,1007.983
17.291054726,-24.75509,20.59163,54.97575,0.01042206,-0.3407122,-1.010793,-2.821666,-10.92778,43.98865,1007.983
17.323226929,-21.06927,22.66311,50.80824,0.03328708,-0.2737117,-0.9935843,-2.821666,-10.92778,43.98865,1007.983
17.357873440,-27.76518,24.49784,47.74389,0.01447241,-0.2463772,-0.9228114,-3.583014,-11.68419,43.61372,1007.981
17.390045166,-16.70771,15.14661,46.08913,0.05122092,-0.2700811,-0.9517877,-5.101321,-12.8118,43.18075,1007.981
17.424691677,-9.028904,12.18736,40.02172,0.0575246,-0.2792997,-1.010245,-5.101321,-12.8118,43.18075,1007.985
17.456863880,0.1856571,7.807666,29.60293,0.01575271,-0.2865757,-1.099567,-6.613905,-12.79114,43.12473,1007.985
17.489035606,7.434446,0.2319842,21.51304,0.08766365,-0.2326498,-1.046773,-8.508814,-13.1503,42.75374,1007.985
17.523682118,-10.56466,6.91989,21.26789,0.1111803,-0.1887142,-0.9989124,-8.508814,-13.1503,42.75374,1007.985
17.555853844,-21.00784,7.985221,22.61621,0.08219904,-0.20857,-1.01182,-8.119061,-12.76317,43.64251,1007.984
17.590500355,3.932912,4.07901,23.35165,0.1111643,-0.2244755,-1.041623,-8.508556,-12.76917,42.75188,1007.984
17.622673035,18.49192,7.275001,24.94511,0.1453909,-0.1690111,-1.002443,-8.508556,-12.76917,42.75188,1007.984
17.657319546,-3.438737,10.11588,25.74184,0.1335427,-0.1536401,-0.9679839,-9.259482,-12.75356,43.13827,1007.982
17.689490795,-22.42074,12.54247,24.02581,0.1353342,-0.236486,-0.9469936,-9.636082,-11.98511,43.20024,1007.982
17.724137783,18.18477,17.1589,21.14532,0.1059327,-0.3012123,-0.9882228,-10.02006,-12.36656,42.75775,1007.982
17.756309986,50.25144,13.43024,19.797,0.1142703,-0.1528346,-0.9388774,-10.02006,-12.36656,42.75775,1007.98
17.790956497,20.94914,10.35262,26.96758,0.1490213,-0.09250398,-0.8977343,-11.52635,-11.57795,43.14429,1007.976
17.823128223,-1.718686,5.795375,36.22192,0.1017274,-0.1782316,-0.9674077,-11.53001,-9.677153,42.75246,1007.976
17.857774734,16.58758,-23.61958,42.35063,0.0821014,-0.2376355,-1.067488,-11.53001,-9.677153,42.75246,1007.98
17.889946938,2.028569,-21.1338,59.44971,0.07167364,-0.2937301,-1.236071,-12.28538,-8.904148,42.75261,1007.98
17.924593449,-79.24387,-7.402883,78.01968,0.07305478,-0.2586616,-1.030463,-11.52899,-8.152618,42.74502,1007.978
17.991411686,55.53446,19.11201,81.94205,0.06347847,-0.418024,-0.9314317,-11.52899,-8.152618,42.74502,1007.978
18.023583412,78.38657,8.636256,81.81947,0.06311973,-0.1153393,-0.8301231,-13.04807,-10.42363,42.31764,1007.978
18.055755615,-48.4058,5.85456,80.7163,0.1291923,-0.2836606,-0.9000893,-13.04807,-10.42363,42.31764,1007.977
18.090402126,-57.31321,25.08969,70.66523,0.2119258,-0.6404065,-1.16119,-13.7843,-6.965636,43.6436,1007.977
18.122573853,60.51032,39.17572,60.79802,0.1482355,-0.475126,-0.9804112,-14.55777,-7.353087,42.31049,1007.977
18.157220364,73.10355,48.82288,59.08199,-0.04424729,-0.2414339,-0.8860728,-14.55777,-7.353087,42.31049,1007.977
18.189392090,30.47085,34.14499,60.98188,-0.04160779,-0.1426539,-0.852025,-16.51598,-6.949901,41.87234,1007.977
18.224038601,-22.23644,28.69998,72.74899,0.04896889,-0.2152921,-0.897813,-18.40336,-3.492857,41.86526,1007.977
18.256210804,-30.77527,31.12656,78.26482,0.06945609,-0.3434728,-0.9530448,-18.40336,-3.492857,41.86526,1007.978
18.290857315,13.63892,30.88982,72.68771,0.005046393,-0.3397254,-1.012181,-18.79735,-1.598876,40.51905,1007.978
18.323029041,13.57749,27.22035,67.17187,-0.01655215,-0.2648557,-0.9472562,-20.68653,-0.8097665,40.525,1007.978
18.357676506,-14.6805,23.13659,67.60088,0.01304562,-0.3280219,-0.9369671,-20.68653,-0.8097665,40.525,1007.978
18.389847756,-13.14474,21.00592,72.62642,-0.02754957,-0.4091064,-0.9666588,-21.45345,-0.04813218,39.63258,1007.978
18.424494743,-3.80732,16.92216,74.83275,-0.06043528,-0.4845163,-1.010836,-22.5849,2.255586,39.69097,1007.978
18.456666470,26.47787,10.8261,66.0687,-0.02865651,-0.429047,-0.9725968,-22.5849,2.255586,39.69097,1007.978
18.491312981,15.60469,13.54861,54.48546,-0.02262349,-0.3738255,-0.9201419,-23.3413,2.710167,39.62891,1007.978
18.523485184,-3.008724,9.228106,42.35063,-0.03980923,-0.3801234,-0.9296735,-23.35023,5.367544,38.78708,1007.978
18.558131695,-14.80336,6.44641,38.06054,-0.0545827,-0.4048342,-0.9335954,-23.35023,5.367544,38.78708,1007.978
18.590303421,-5.834523,2.599385,35.67034,-0.1122436,-0.4553561,-0.9763718,-23.34946,6.510944,38.7815,1007.978
18.622475147,3.56433,-5.508962,42.59578,-0.05616872,-0.4310133,-0.9935643,-23.36076,6.880708,37.88708,1007.977
18.657122135,-5.650232,9.524032,40.32816,-0.1242828,-0.4391917,-0.9650401,-23.36076,6.880708,37.88708,1007.977
18.689293862,17.07902,-5.035482,32.42213,-0.06183697,-0.4139633,-0.863231,-22.59389,7.261662,38.71016,1007.977
18.723940373,7.373015,-3.082377,33.89302,0.0427667,-0.3645919,-0.7505301,-23.35395,8.410927,38.32592,1007.977
18.756112099,-6.87884,1.060574,33.40272,-0.05789555,-0.4381271,-0.847079,-23.35395,8.410927,38.32592,1007.975
18.790758610,18.98336,-7.639623,22.43235,-0.04358907,-0.4177095,-0.8966901,-22.21467,9.161962,38.69892,1007.975
18.822930813,9.093067,-2.549712,18.44869,0.04299735,-0.3696267,-0.8368517,-22.5973,9.543591,38.31647,1007.975
18.857577324,-11.2404,6.860705,16.79394,0.02234216,-0.428628,-0.8853454,-22.5905,11.07381,38.75531,1007.977
18.889749050,16.21899,5.440265,13.05543,0.03331499,-0.4235927,-0.9177002,-22.5905,11.07381,38.75531,1007.977
18.924395561,7.557307,13.54861,12.62642,0.05070258,-0.3919657,-0.8963938,-21.84617,11.0517,37.85888,1007.977
18.956567287,-4.851637,19.17119,10.72652,0.06310897,-0.4304866,-0.9112871,-21.83988,11.81965,38.30143,1007.977
18.991213799,4.055773,22.84066,10.66524,0.04542524,-0.4073308,-0.8781552,-21.83988,11.81965,38.30143,1007.977
19.023386002,-3.86875,21.59777,9.071774,0.06008232,-0.3706366,-0.8938954,-22.22334,12.20047,37.85522,1007.977
19.058032513,-16.892,23.78762,9.745931,0.08959271,-0.3932626,-0.9136373,-22.61284,12.19447,36.9646,1007.977
19.090204239,-14.49621,24.08355,13.60701,0.05223034,-0.4334272,-0.9849557,-22.61284,12.19447,36.9646,1007.977
19.122376442,-7.616005,24.91214,13.6683,0.04267615,-0.4597505,-1.00581,-23.36872,12.20521,36.96847,1007.977
19.157022953,8.908776,20.94674,14.64889,0.1116487,-0.4348337,-0.9402138,-24.50831,12.21563,36.52799,1007.977
19.189194679,8.110181,24.61621,15.81335,0.1310072,-0.3490767,-0.8847395,-24.50831,12.21563,36.52799,1007.973
19.223841667,-8.107449,19.5263,19.85829,0.08138657,-0.3070645,-0.944662,-25.26394,12.6075,36.52999,1007.975
19.256013870,-22.60503,9.287292,25.98699,0.07629803,-0.3434602,-1.009984,-25.65921,12.59581,35.19308,1007.975
19.290660381,-16.27769,15.73846,34.56717,0.07936779,-0.4268538,-1.185184,-25.65921,12.59581,35.19308,1007.977
19.322832108,22.30061,18.57934,34.19945,0.163085,-0.3076931,-1.036527,-26.03111,12.988,35.63944,1007.977
19.357478619,17.01759,37.40017,41.37003,0.124323,-0.174861,-0.8933628,-25.28075,13.35271,35.18743,1007.974
19.389650345,8.663054,29.58775,48.41804,-0.01602742,-0.1256315,-0.8940574,-25.28075,13.35271,35.18743,1007.974
19.424297333,-8.168879,14.90987,57.18209,0.01045501,-0.1343104,-0.932454,-25.66922,14.87124,34.28936,1007.978
19.456469059,-22.23644,15.08742,62.3302,0.04242947,-0.1868705,-0.9929537,-26.05134,16.01514,33.90319,1007.978
19.491115570,-41.64846,16.44868,62.51406,0.06153032,-0.2579868,-0.9503381,-26.05134,16.01514,33.90319,1007.977
19.523287296,-38.39264,18.63853,57.30466,0.04998032,-0.3698947,-0.993087,-26.05057,17.15854,33.89761,1007.977
19.557933808,14.25322,16.33031,45.04726,0.05188853,-0.3510851,-1.00741,-25.29469,17.1478,33.89374,1007.977
19.590106011,19.29052,18.10586,31.01253,0.08031609,-0.2849014,-0.9666413,-25.29469,17.1478,33.89374,1007.977
19.624752522,5.775825,21.71614,16.73265,-0.01883123,-0.2690493,-0.9260615,-24.91706,17.90389,33.82433,1007.977
19.656924248,18.61478,7.393371,4.046238,-0.03098711,-0.2752351,-0.9178051,-24.54882,19.4125,32.98614,1007.975
19.689095974,19.96625,6.268855,-3.063057,0.003470812,-0.2765468,-0.9398274,-24.54882,19.4125,32.98614,1007.975
19.723742485,20.82627,2.362644,-5.882259,-0.02036767,-0.3116247,-0.9721882,-24.93806,19.78763,32.09365,1007.975
19.755914688,16.09613,-13.67649,-8.701463,-0.07601141,-0.368867,-1.003953,-25.32096,19.78812,31.71306,1007.977
19.790561199,33.23522,-24.09306,4.781682,-0.1538891,-0.4145692,-1.190137,-25.32101,20.93071,31.64373,1007.977
19.822732925,-27.82661,-39.7179,8.029895,-0.007389578,-0.3273815,-0.9300232,-25.32101,20.93071,31.64373,1007.977
19.857380390,-67.94067,-11.13154,6.68158,0.1824426,-0.6275766,-0.9010113,-24.56487,21.30111,31.638,1007.977
19.889551163,61.18606,6.032115,-6.311269,0.02165172,-0.5216549,-0.8644158,-23.41423,20.53979,32.97476,1007.978
19.924198627,61.98465,-5.035482,-6.801565,-0.08980229,-0.1752276,-0.76412,-23.41423,20.53979,32.97476,1007.984
19.956370354,-36.97974,-15.45204,0.4915907,-0.004625218,-0.2957414,-0.7904903,-23.04785,20.52305,32.08027,1007.984
19.991016865,-14.92622,1.060574,10.8491,-0.01977664,-0.4763183,-1.054527,-23.04759,20.90419,32.0784,1007.984
20.023189068,6.390129,7.511741,18.69384,-0.1441772,-0.4302476,-1.013945,-23.04759,20.90419,32.0784,1007.984
20.057835579,6.328699,0.2319842,16.54879,-0.1676739,-0.4036387,-0.9773562,-22.28016,20.90482,32.96709,1007.98
20.090007305,-6.694549,-1.425196,13.54573,-0.02933067,-0.4191336,-0.8833389,-22.28542,21.6614,32.5171,1007.978
20.124653816,-10.56466,6.80152,8.152469,0.05919492,-0.5054296,-0.8762004,-22.28542,21.6614,32.5171,1007.978
20.156825542,9.215928,9.583217,0.5528777,0.02432927,-0.4435963,-0.8739192,-21.90697,22.4183,32.51144,1007.978
20.188997746,18.61478,4.67086,-1.653455,0.01444525,-0.35182,-0.8749985,-21.90748,21.65603,32.51516,1007.978
20.223644257,-4.605915,3.96064,3.126933,0.04406199,-0.2767057,-0.8712816,-21.90748,21.65603,32.51516,1007.978
20.255815983,-22.97361,0.8238344,13.54573,0.08569425,-0.3033317,-0.8983995,-22.66336,21.66677,32.51903,1007.978
20.290462494,-3.070155,1.238129,21.63561,0.08963721,-0.3409593,-0.9917724,-22.29094,22.03685,32.06895,1007.977
20.322634697,2.888595,-6.929403,26.04828,0.1190691,-0.3066329,-0.9903181,-22.29094,22.03685,32.06895,1007.977
20.357281208,-19.47208,-3.437487,29.66422,0.1466273,-0.3925596,-1.037556,-21.53506,22.02611,32.06509,1007.977
20.389452934,-12.53044,-2.727267,28.00946,0.1502967,-0.4609755,-1.03237,-21.15109,22.40756,32.50757,1007.977
20.424099445,11.1817,2.77694,25.25155,0.1385744,-0.5073121,-1.069275,-21.15109,22.40756,32.50757,1007.975
20.456271172,37.78107,13.1935,21.26789,0.08322902,-0.4168692,-1.020777,-20.76737,22.40788,32.95192,1007.975
20.490917683,30.47085,20.47326,21.94205,0.007527357,-0.3276858,-0.8969069,-20.01701,22.77259,32.49991,1007.975
20.523089886,9.40022,20.23652,22.24849,-0.02502764,-0.323527,-0.8821089,-20.01701,22.77259,32.49991,1007.975
20.557736397,-14.0662,18.10586,21.08403,-0.01677554,-0.3946926,-0.8528886,-19.64852,24.66233,31.65987,1007.975
20.589908123,-0.7357991,18.3426,16.42622,-0.04831248,-0.4122237,-0.8806948,-20.41048,25.42884,31.14997,1007.975
20.624555588,-12.28472,14.85068,9.439496,-0.06231578,-0.3941262,-0.871739,-20.41048,25.42884,31.14997,1007.973
20.656727314,-22.29787,15.14661,2.820498,-0.09594951,-0.4369248,-0.9045539,-20.0375,25.4186,30.76551,1007.973
20.691373825,-8.353169,7.985221,-3.124344,-0.1433659,-0.4773458,-0.9526447,-20.41626,25.42315,30.70369,1007.973
20.723545551,-0.3672166,2.717755,-10.17235,-0.0524049,-0.4147935,-0.9018858,-20.41626,25.42315,30.70369,1007.973
20.755717754,-22.3593,9.938327,-14.6463,-0.01824071,-0.4405881,-0.8889213,-20.03306,24.6612,31.15176,1007.969
20.790364265,7.004433,3.01368,-24.02322,-0.02275514,-0.4532132,-0.9554991,-20.7942,25.42852,30.70563,1007.967
20.857182503,-24.50937,4.19738,-29.72291,0.08610542,-0.3831555,-0.9270174,-21.17317,23.90936,30.715,1007.966
20.889354229,-9.336057,1.178944,-30.09063,0.08246035,-0.4577792,-0.9762806,-22.30121,23.93115,31.16709,1007.966
20.924000740,16.40329,5.558635,-25.80054,0.1582005,-0.347884,-0.9013714,-22.67389,23.17993,31.61903,1007.966
20.956172943,-3.008724,11.2404,-17.52679,0.1307257,-0.3343795,-0.8672637,-22.67389,23.17993,31.61903,1007.966
20.990819454,9.338789,3.546345,-10.84651,0.1204975,-0.3773109,-0.9022261,-22.67332,22.79961,31.68464,1007.966
21.022991180,15.17468,-0.714976,-6.372556,0.1594841,-0.3263321,-0.8751777,-23.814,22.42809,31.18227,1007.967
21.057637692,-4.667346,-0.833346,-5.146815,0.1579003,-0.3230488,-0.8910418,-23.814,22.42809,31.18227,1007.967
21.089809895,-22.91218,-1.247641,-4.901667,0.154803,-0.3846015,-0.8813984,-23.82447,22.79867,30.3516,1007.967
21.124456406,-11.30183,-6.811033,-2.082464,0.1863783,-0.3935946,-0.8942991,-23.42476,22.05296,32.07476,1007.969
21.156628132,-17.99775,-6.396738,5.639701,0.2548449,-0.3348418,-0.8472177,-23.42476,22.05296,32.07476,1007.971
21.191274643,-37.83977,5.85456,13.54573,0.2072912,-0.391829,-0.9036377,-23.81947,21.66095,30.80346,1007.97
21.223446369,-9.336057,-0.537421,10.29751,0.1474475,-0.4159547,-0.9866641,-23.41924,21.67751,32.5229,1007.97
21.258092880,-4.421624,-6.751848,4.41396,0.2121041,-0.3208295,-0.9459952,-23.41924,21.67751,32.5229,1007.97
21.290265083,-32.98677,-1.839491,-0.7954367,0.2714103,-0.3450285,-0.9616901,-23.43131,20.90387,31.63406,1007.97
21.322436810,-30.40669,-0.3598659,-4.84038,0.2734148,-0.3430561,-0.9563906,-23.04207,20.52874,32.52655,1007.97
21.357083321,-34.27681,10.47099,-4.84038,0.3068704,-0.280147,-0.8964162,-23.04207,20.52874,32.52655,1007.971
21.389255047,-57.43607,24.32029,0.06258155,0.2302169,-0.3218718,-0.8806209,-22.65283,20.15361,33.41903,1007.973
21.423902512,-5.650232,23.13659,3.739803,0.2195702,-0.3313714,-0.9234979,-23.02551,19.40239,33.87097,1007.973
21.456074238,31.02372,31.89597,13.54573,0.1949195,-0.1260363,-0.9365171,-23.02551,19.40239,33.87097,1007.973
21.490720749,3.810051,21.06511,23.04522,-0.1123056,-0.1232379,-1.086421,-23.78768,18.64518,33.43228,1007.973
21.522892952,-2.025838,-9.000877,11.40068,-0.09591046,-0.3296843,-1.47484,-24.1827,19.01463,32.09351,1007.975
21.557539463,7.065864,8.695441,3.372081,0.0844375,-0.2825646,-1.290564,-24.1827,19.01463,32.09351,1007.975
21.589711189,-17.87489,31.00819,1.53347,-0.1537932,-0.3599133,-1.088949,-24.55486,19.02568,32.54173,1007.973
21.624357700,32.31376,-3.259932,-9.559482,-0.2086473,-0.3023901,-0.9660172,-24.94384,19.78194,31.64737,1007.973
21.656529427,41.2826,-18.05618,-13.17542,0.01700809,-0.1515975,-0.8410777,-24.94384,19.78194,31.64737,1007.975
21.691175938,18.00048,-16.16226,-12.3174,0.1377207,-0.0611607,-0.8057906,-25.32756,19.78163,31.20303,1007.975
21.723348141,-14.74193,-9.355988,-2.817909,0.05105185,-0.05422897,-0.8439667,-24.94307,20.92534,31.64179,1007.975
21.757994652,-20.20924,-22.3175,4.842969,0.04628917,-0.1386479,-0.9053501,-24.94307,20.92534,31.64179,1007.971
21.790166378,-9.397487,-20.83788,13.42315,0.0884138,-0.2440568,-0.9519202,-24.55935,20.92566,32.08614,1007.971
21.822338104,20.33483,-24.44817,17.22295,0.1323512,-0.2200428,-1.019612,-24.17037,20.1694,32.98049,1007.971
21.856984615,-7.308853,-11.54583,21.20661,0.187126,-0.2206892,-1.005187,-24.17037,20.1694,32.98049,1007.971
21.889156818,-7.861727,-5.094667,18.14225,0.09429717,-0.2570426,-1.058604,-22.27489,20.14824,33.4171,1007.971
21.923803329,1.537126,-4.917112,11.33939,0.1186521,-0.2557538,-1.064605,-21.90248,20.51832,32.96702,1007.971
21.955975056,7.065864,6.0913,5.517127,0.134982,-0.2918959,-1.020229,-21.90248,20.51832,32.96702,1007.975
21.990621567,22.17774,5.321895,-0.5502887,0.1305964,-0.2677645,-0.9149133,-21.90196,21.28059,32.9633,1007.975
22.022793770,11.12027,5.440265,-0.6728628,0.1880036,-0.2619617,-0.8806971,-21.15212,20.88303,32.51502,1007.975
22.057440758,14.37608,12.06899,0.4303037,0.1779927,-0.2949868,-0.9526939,-22.2799,21.28595,32.96524,1007.975
22.089612484,35.13956,13.84454,-2.817909,0.1112597,-0.2630743,-1.011576,-22.2799,21.28595,32.96524,1007.975
22.124258995,36.61389,12.12817,-11.58195,0.01922728,-0.1913884,-0.9643363,-21.91275,22.41262,32.06516,1007.975
22.156431198,26.72359,-2.490527,-16.11719,0.06152346,-0.2512605,-0.8962987,-22.68462,23.16938,30.79022,1007.975
22.191077709,14.19179,-20.71951,-20.03956,0.1219643,-0.3952077,-0.8932294,-22.68462,23.16938,30.79022,1007.975
22.223249435,45.5213,-26.51964,-0.9180108,0.04285969,-0.3619401,-0.9731929,-22.69014,23.54483,30.34208,1007.977
22.257895947,-49.08154,-44.57107,20.96146,0.1348427,-0.2872615,-0.9228256,-22.69014,23.54483,30.34208,1007.977
22.290068150,-73.40798,-18.17455,23.47423,0.290302,-0.5452984,-1.113901,-22.69014,23.54483,30.34208,1007.978
22.324714661,32.68235,24.49784,20.16473,-0.0007225582,-0.4811161,-1.223927,-21.53904,24.68836,31.60578,1007.978
22.356886387,60.20317,7.807666,11.64583,-0.1233814,-0.3000338,-0.9831813,-20.39469,23.15909,32.49998,1007.978
22.389058113,8.908776,1.770795,6.988015,0.009126639,-0.2826355,-0.8444945,-20.39469,23.15909,32.49998,1007.978
22.423704624,-33.17106,17.69156,7.600885,-0.03640075,-0.446917,-0.840122,-20.79446,25.04739,30.70749,1007.977
22.455876827,13.02461,17.1589,6.06871,-0.2254427,-0.5384371,-0.9340665,-20.0312,26.18655,31.20808,1007.978
22.490523338,48.28567,-12.67035,3.80109,-0.2408471,-0.4448758,-0.8960375,-20.0312,26.18655,31.20808,1007.978
22.522695065,28.01363,-24.15224,-1.653455,-0.02138919,-0.4219523,-0.8660843,-20.41544,25.42397,30.76745,1007.978
22.557341576,0.8613916,-10.42132,-10.4175,0.05630236,-0.5092141,-0.9282605,-20.42044,26.56168,30.31559,1007.977
22.589513302,20.15054,-8.941692,-23.1652,0.003613965,-0.5190936,-0.9215844,-20.42044,26.56168,30.31559,1007.977
22.624159813,24.45067,-10.65806,-31.25509,0.02084581,-0.5006645,-0.9124352,-20.03647,26.94313,30.75807,1007.975
22.656332016,43.43267,-8.409027,-30.15192,0.06808078,-0.4473522,-0.8921925,-20.42705,26.55519,29.80555,1007.975
22.690978527,35.87673,-3.615042,-21.81688,0.05258252,-0.3534301,-0.8074057,-20.42705,26.55519,29.80555,1007.973
22.723150253,12.90175,-3.319117,-14.46244,0.009635498,-0.374497,-0.7975386,-21.18762,26.94218,29.42503,1007.973
22.757797718,8.355903,-14.4459,-8.027306,0.059611,-0.4267504,-0.8066297,-21.94902,27.32837,28.98076,1007.973
22.789969444,2.520013,-11.13154,-4.043649,0.1271342,-0.4317195,-0.8410407,-21.94902,27.32837,28.98076,1007.973
22.824615955,-11.8547,-0.2414959,-1.101872,0.09404327,-0.4430761,-0.8244376,-21.57609,28.46072,28.52696,1007.971
22.856787682,-14.92622,-2.017046,-1.224446,0.08233213,-0.510196,-0.8499457,-20.81495,27.6934,28.97309,1007.971
22.888959885,-3.500168,-2.017046,-5.514537,0.1345994,-0.4959011,-0.8507975,-20.81495,27.6934,28.97309,1007.971
22.923606396,-4.114472,3.25042,-4.350084,0.1476518,-0.4864074,-0.8701209,-20.81495,27.6934,28.97309,1007.97
22.955778122,2.212861,9.464847,-4.533945,0.08805338,-0.4271737,-0.9061905,-21.5653,27.32869,29.42511,1007.97
22.990424633,-11.91613,8.872996,-2.021177,-0.005567413,-0.4145517,-0.9032848,-21.5653,27.32869,29.42511,1007.968
23.022596359,-19.59494,-0.9517161,-2.082464,0.05206262,-0.4361096,-0.8292904,-21.94902,27.32837,28.98076,1007.968
23.057243347,-25.73798,-7.521253,0.6754518,0.1553927,-0.5087886,-0.8091637,-21.56582,26.56642,29.42883,1007.968
23.089415073,-5.34308,-3.082377,-3.553353,0.1835016,-0.5110033,-0.8894562,-21.56004,26.5721,29.87511,1007.968
23.124061585,-3.86875,0.05442913,-7.108,0.1291562,-0.4456517,-0.8840723,-21.56004,26.5721,29.87511,1007.968
23.156233311,-8.660322,-0.774161,-8.824037,0.1131625,-0.4599412,-0.9221189,-22.31643,25.82057,29.8827,1007.968
23.190879822,3.011456,-3.615042,-6.801565,0.1000744,-0.4129273,-0.8763012,-21.55503,25.43439,30.32697,1007.97
23.223052025,-6.694549,-4.502817,0.06258155,0.1017462,-0.3890506,-0.863106,-21.55503,25.43439,30.32697,1007.968
23.257698536,-18.18204,-10.30295,4.168812,0.112549,-0.4349447,-0.8910592,-21.93349,24.67749,30.33263,1007.968
23.289870262,-14.00477,-8.645767,1.962479,0.1394091,-0.473224,-0.9282573,-21.92745,25.06431,30.77705,1007.97
23.324516773,-7.063132,-8.231472,-4.595232,0.1130952,-0.4938523,-0.9137218,-21.92745,25.06431,30.77705,1007.97
23.356688500,7.065864,-11.60502,-11.88839,0.1179129,-0.4838156,-0.8678941,-21.5443,25.44495,31.15578,1007.971
23.391335011,13.14748,-15.98471,-15.01403,0.1300842,-0.3983852,-0.7964495,-21.1611,24.68299,31.60385,1007.971
23.423507214,-20.3321,-21.01543,-12.50126,0.1503165,-0.3721676,-0.7824441,-21.1611,24.68299,31.60385,1007.971
23.455678940,-34.03108,-23.20528,-9.620769,0.213686,-0.4459738,-0.8713678,-21.54507,24.30155,31.16136,1007.971
23.490326405,-13.63619,-10.77643,-5.943546,0.1770713,-0.4090546,-0.8909658,-20.77212,23.92673,32.4982,1007.971
23.522498131,-24.14079,-14.50508,-5.024241,0.1362881,-0.354948,-0.9503891,-20.77212,23.92673,32.4982,1007.971
23.557144642,-49.08154,-8.586582,-6.433843,0.2349295,-0.4809929,-1.055979,-20.76711,22.78901,32.95006,1007.971
23.589316368,-4.483054,7.156631,-4.411371,0.09519472,-0.4005893,-1.230906,-20.38365,22.4082,33.39626,1007.971
23.623962879,1.475696,-3.023192,-0.7341497,-0.1523747,-0.2352385,-1.096611,-20.38365,22.4082,33.39626,1007.971
23.656135082,-44.71997,-23.20528,8.213756,-0.0147249,-0.2117862,-0.9878056,-20.37287,21.27617,34.29441,1007.971
23.690781593,-65.66775,13.13432,22.06462,0.07187901,-0.3000166,-0.9180052,-20.36183,20.52527,35.19069,1007.971
23.722953320,-12.46901,23.96518,22.30977,-0.2041318,-0.3254361,-1.056383,-20.36183,20.52527,35.19069,1007.971
23.757599831,3.687191,0.8830193,6.68158,-0.1394784,-0.1766749,-0.9839422,-19.97367,19.76819,36.02129,1007.971
23.789771557,-19.10349,12.89758,-4.166223,0.04223277,-0.2252139,-1.055928,-19.98574,18.99455,35.13245,1007.971
23.824418068,0.7999612,39.35328,-9.682055,-0.1170179,-0.318832,-1.08799,-19.98574,18.99455,35.13245,1007.97
23.856590271,28.7508,21.18348,-12.19482,-0.2305657,-0.2325721,-1.052961,-19.98523,19.75682,35.12872,1007.97
23.891236782,5.714394,15.67927,-6.127408,-0.06290714,-0.260678,-1.064879,-20.74657,19.00042,34.75379,1007.97
23.923408508,13.02461,23.19577,-2.082464,-0.06381238,-0.2523882,-1.060465,-20.74657,19.00042,34.75379,1007.97
23.958055019,-2.39442,20.71,-0.3051406,0.01021457,-0.1766743,-0.8243511,-21.89143,19.76742,33.86331,1007.97
23.990227222,-6.87884,18.93445,8.213756,0.009573059,-0.2015108,-0.772494,-23.40319,19.78889,33.87104,1007.97
24.022398949,1.107113,6.150486,11.15553,0.005248539,-0.1936532,-0.8263727,-23.40319,19.78889,33.87104,1007.968
24.057045460,-8.721752,-6.219182,9.807218,0.09754483,-0.2138035,-0.925246,-23.03707,19.39102,32.9784,1007.968
24.089217186,-6.203106,-2.964007,4.41396,0.1958148,-0.2425799,-1.00593,-23.79872,19.39607,32.536,1007.966
24.123864651,-15.4791,12.24654,1.717331,0.119769,-0.238743,-0.9979589,-23.40923,19.40207,33.42662,1007.968
24.156035900,-10.01179,6.623965,-4.595232,0.1210624,-0.3858356,-1.06329,-23.40923,19.40207,33.42662,1007.968
24.190682888,38.4568,10.58936,-14.6463,0.171233,-0.3997096,-1.067728,-23.40345,19.40776,33.8729,1007.968
24.222854614,60.57175,14.49557,-24.81995,0.1482615,-0.2846508,-0.9532952,-23.7932,19.02063,32.98413,1007.966
24.257501602,42.63407,-0.419051,-26.65856,0.1093331,-0.2249517,-0.852666,-23.7932,19.02063,32.98413,1007.966
24.289673328,22.23918,-13.79486,-24.5748,0.2364954,-0.2200045,-0.8215178,-24.56539,20.53884,31.64172,1007.964
24.324319840,2.15143,-1.543566,-13.66571,0.4003234,-0.2862263,-0.8062404,-25.33282,20.53821,30.75303,1007.964
24.356491566,8.171612,20.41407,-6.433843,0.2507596,-0.3900768,-0.9001729,-25.33282,20.53821,30.75303,1007.964
24.391138077,55.10445,-9.651913,-16.11719,0.06705325,-0.365559,-1.112264,-25.32679,20.92503,31.19744,1007.964
24.423310280,19.53624,-22.37669,-18.69125,0.2466346,-0.38133,-1.279396,-25.33834,20.91366,30.30489,1007.961
24.457956791,-80.53391,2.362644,-17.83323,0.2584896,-0.4437505,-1.057819,-25.33834,20.91366,30.30489,1007.959
24.490128517,-31.32815,40.0635,-21.93946,0.05870393,-0.778831,-1.209101,-25.72155,21.67561,29.85682,1007.959
24.522300243,141.9056,21.42022,-38.05795,-0.1445065,-0.4030584,-0.9500936,-25.69889,19.79349,31.715,1007.959
24.556946755,89.32119,-0.2414959,-33.03241,-0.09015615,-0.00938852,-0.5959777,-25.69889,19.79349,31.715,1007.959
24.589118958,-59.27898,-11.60502,-24.69737,0.04679142,-0.1823454,-0.5919334,-27.63456,20.15599,28.15256,1007.959
24.623765469,-80.16532,-13.32138,-25.49411,0.08357339,-0.5351052,-0.8063006,-29.1503,22.83972,27.70099,1007.957
24.655937195,3.994343,-17.64189,-31.13251,0.1236761,-0.603742,-0.9952205,-29.1503,22.83972,27.70099,1007.957
24.690583706,53.75298,-7.521253,-34.56459,0.1568402,-0.3782099,-0.9324566,-28.74635,19.81289,29.88159,1007.957
24.722755909,31.45374,5.85456,-30.88737,0.1423382,-0.2852413,-0.844795,-28.74738,18.28835,29.88903,1007.957
24.757402420,-9.581779,-0.774161,-31.86796,0.1009652,-0.385967,-0.8413833,-28.74738,18.28835,29.88903,1007.959
24.789574146,-4.790206,-7.580438,-36.46449,0.119096,-0.3641905,-0.9011409,-29.1408,19.80202,28.60844,1007.959
24.824221134,-24.81652,-11.42746,-38.48696,0.1634554,-0.4011687,-0.9471676,-29.51373,18.66967,29.06223,1007.959
24.856393337,-18.61205,-5.449777,-38.48696,0.141986,-0.4353186,-1.046541,-29.51373,18.66967,29.06223,1007.959
24.891039848,5.652964,-5.153852,-37.8128,0.1564102,-0.3911737,-0.9773855,-30.25908,17.16724,29.96611,1007.959
24.923211575,-0.85866,-10.18458,-33.76786,0.1841179,-0.3585647,-0.9479732,-30.24861,16.79667,30.79677,1007.959
24.957858086,2.212861,-11.42746,-31.1938,0.2265482,-0.3297844,-0.9650018,-30.24861,16.79667,30.79677,1007.961
24.990029812,-10.31894,-10.8948,-27.70044,0.2941419,-0.3410505,-0.8717355,-31.0113,15.27719,30.3618,1007.959
25.024676800,2.458582,-2.312972,-22.00075,0.3181612,-0.3700483,-0.9030467,-31.01124,14.1346,30.43114,1007.959
25.056848526,22.17774,-5.035482,-16.85264,0.2647631,-0.2689809,-0.8602633,-31.01124,14.1346,30.43114,1007.959
25.089020252,-9.213196,-9.947838,-10.35621,0.258513,-0.1939482,-0.8272924,-31.0068,13.3772,30.81739,1007.961
25.123666763,-48.59009,-10.95398,-2.082464,0.318987,-0.1991183,-0.8293453,-31.01201,12.9912,30.43672,1007.961
25.155838966,-75.12803,-10.77643,4.781682,0.3569806,-0.2017889,-0.8364698,-31.01201,12.9912,30.43672,1007.961
25.190485477,-105.5361,-6.219182,8.765339,0.344908,-0.2711718,-0.9039271,-31.00154,12.62062,31.26739,1007.961
25.222657204,-85.07976,-5.449777,1.962479,0.3701732,-0.289253,-0.9664899,-30.23565,10.33445,32.16725,1007.963
25.257303715,-85.5712,1.652425,-3.063057,0.3904631,-0.2373539,-0.9580573,-29.84744,8.434786,33.06718,1007.963
25.289475441,-72.8551,6.56478,-6.372556,0.3726597,-0.248603,-0.9806378,-29.84744,8.434786,33.06718,1007.963
25.324121952,-33.0482,9.819957,-8.027306,0.3369925,-0.1798363,-0.9609401,-30.2214,5.777904,33.52842,1007.966
25.356294155,-16.76914,9.642402,-8.333741,0.2948743,-0.1135533,-0.9527708,-30.60692,3.109653,33.0971,1007.966
25.390940666,-13.75905,8.340331,-5.085528,0.2651175,-0.04718398,-0.925436,-30.60692,3.109653,33.0971,1007.968
25.423112393,-21.19213,2.5402,-5.146815,0.2400873,-0.07181463,-0.9885474,-30.61325,2.278179,32.65485,1007.968
25.457759857,9.830233,-1.247641,2.207627,0.2179868,-0.01666931,-1.09007,-30.61377,1.515912,32.65857,1007.966
25.489931584,-4.483054,-2.076231,13.6683,0.1345941,0.03985124,-1.052677,-30.61377,1.515912,32.65857,1007.964
25.524578095,-10.56466,-15.27449,12.87157,0.07698387,-0.07099602,-1.176445,-30.6198,1.129094,32.21415,1007.966
25.556749821,23.83637,-14.26834,7.11059,0.1822621,-0.03927471,-1.149209,-30.60825,1.140463,33.10671,1007.966
25.591396332,1.659987,-7.047772,6.191284,0.08807112,0.02449591,-1.122741,-30.60825,1.140463,33.10671,1007.966
25.623568535,-13.14474,-5.035482,2.023766,0.07563456,-0.02356944,-1.069519,-30.22427,1.521913,33.5492,1007.966
25.655740261,-10.56466,-4.739557,-1.34702,0.07369552,-0.03515363,-1.062366,-29.84665,2.277999,33.47979,1007.964
25.690386772,-6.018815,5.14434,-2.817909,0.09876419,-0.007103052,-0.9963353,-29.84665,2.277999,33.47979,1007.966
25.722558499,-7.124562,-3.615042,-1.95989,0.05015306,-0.06758176,-1.002646,-29.47392,1.886625,33.09719,1007.966
25.757205009,30.1637,-3.910967,-8.088593,0.1080453,-0.1066812,-1.063277,-29.84633,1.516545,33.54726,1007.966
25.789377212,24.88068,-0.892531,-13.66571,0.1306705,-0.01531147,-0.9701906,-29.84633,1.516545,33.54726,1007.966
25.824023724,2.520013,2.65857,-12.50126,0.1072976,-0.05721946,-0.9438081,-29.46865,1.130043,33.54719,1007.966
25.856195450,14.8061,-3.674227,-14.21729,0.1149451,-0.03954943,-0.9133678,-29.47366,2.267758,33.09533,1007.968
25.890841961,0.922822,-1.661936,-12.19482,0.1943856,0.03290648,-0.8445858,-29.47366,2.267758,33.09533,1007.968
25.923014164,-9.95036,-3.378302,-5.45325,0.2423234,0.03329381,-0.8893739,-29.47969,1.88094,32.65091,1007.968
25.957660675,-22.85075,2.421829,-0.1825666,0.2608867,-0.01316579,-0.9227061,-29.47392,1.886625,33.09719,1007.968
25.989832401,-7.800296,8.813811,-0.05999249,0.2325408,-0.03861805,-1.031583,-29.47392,1.886625,33.09719,1007.968
26.024478912,-3.500168,20.94674,-2.143751,0.208579,-0.05401903,-1.030041,-29.47443,1.124358,33.10091,1007.968
26.091298103,41.52832,20.41407,-19.91699,0.2478181,-0.09468865,-0.9285582,-29.47443,1.124358,33.10091,1007.968
26.123469830,48.40853,18.7569,-32.35825,0.2290621,-0.01552151,-0.9339966,-30.62006,0.7479601,32.21601,1007.968
26.158116341,28.19793,9.938327,-41.55131,0.2542808,0.02769347,-0.9155596,-30.62584,0.7422752,31.76973,1007.968
26.190288067,14.31465,8.872996,-44.55437,0.2775363,-0.01025684,-0.9753754,-30.62584,0.7422752,31.76973,1007.968
26.222460270,15.72755,9.050551,-45.59625,0.2585464,-0.03426537,-1.016848,-31.75858,1.140326,31.83743,1007.968
26.257106781,34.27954,3.901455,-47.31229,0.275417,-0.02390187,-1.046804,-31.76461,0.753508,31.39301,1007.968
26.289278507,41.4669,1.474869,-47.49615,0.3240941,0.01826117,-1.023775,-31.76461,0.753508,31.39301,1007.968
26.323925018,32.55948,-4.562002,-43.26735,0.334119,0.02377296,-0.9949029,-32.14859,0.372058,30.95052,1007.968
26.356097221,24.94211,-10.24376,-38.60953,0.3835233,0.001873865,-0.9704803,-32.52787,-0.3856524,30.89242,1007.968
26.390743733,23.28349,-14.32753,-31.50023,0.3441066,-0.02825649,-1.000727,-32.52209,-0.3799675,31.3387,1007.968
26.422915459,21.50201,-30.2483,-26.41341,0.3248999,-0.06358425,-1.062535,-32.52209,-0.3799675,31.3387,1007.968
26.457561970,27.58362,-32.31977,-15.74947,0.3498651,-0.06166574,-1.112398,-31.76012,-1.146475,31.84859,1007.966
26.489733696,-4.483054,-20.30521,1.962479,0.3468862,-0.1018711,-1.040884,-30.24315,-0.7819424,32.22152,1007.964
26.524380207,-15.60196,-7.935548,15.81335,0.2501587,-0.2460735,-0.9833301,-30.24315,-0.7819424,32.22152,1007.964
26.556552410,28.56651,-5.213037,15.75206,0.198803,-0.3048828,-1.026716,-29.48149,-0.7869945,32.66394,1007.964
26.591198921,51.48005,-2.549712,15.50691,0.1585454,-0.146443,-0.8997139,-29.47572,-0.7813096,33.11021,1007.963
26.623370648,-15.35624,-1.839491,13.6683,0.1015357,-0.1402787,-0.8923831,-29.47572,-0.7813096,33.11021,1007.963
26.658018112,-39.3141,1.238129,4.781682,0.1031139,-0.2865914,-0.982292,-29.47969,1.88094,32.65091,1007.961
26.690189839,-8.353169,8.695441,-4.472658,0.05308336,-0.3103085,-0.9429787,-29.10201,1.494438,32.65084,1007.961
26.722361088,0.06279626,4.07901,-13.54314,0.008673498,-0.3197988,-0.8804646,-29.10201,1.494438,32.65084,1007.961
26.757008076,25.06497,-9.355988,-25.86183,0.03898417,-0.2923356,-0.887269,-29.85841,0.742908,32.65842,1007.961
26.789180279,23.0992,-15.51123,-33.82914,0.05451509,-0.2141896,-0.8771297,-28.71329,0.3570387,33.54704,1007.963
26.823826790,1.229974,-21.66647,-38.42567,0.05659848,-0.1966339,-0.9280963,-28.71329,0.3570387,33.54704,1007.963
26.855998516,-14.00477,-24.3298,-43.69635,0.1333743,-0.2374507,-0.9474652,-29.09675,0.7378558,33.10083,1007.963
26.890645027,3.932912,-25.15839,-46.57684,0.1822837,-0.2341707,-0.9941666,-28.33008,-0.404912,33.99511,1007.963
26.922816753,20.15054,-21.25217,-45.71883,0.1894442,-0.1638257,-0.9309934,-28.33008,-0.404912,33.99511,1007.961
26.957463264,11.24313,-26.2829,-40.93844,0.2091915,-0.1153588,-0.9274042,-27.5692,-1.553365,34.44311,1007.963
26.989635468,-2.271559,-26.57882,-33.76786,0.2906535,-0.1172443,-0.9305899,-26.79733,-2.310126,35.71805,1007.963
27.024281979,-15.11052,-20.3644,-25.49411,0.2108181,-0.1828431,-0.9915996,-26.79733,-2.310126,35.71805,1007.963
27.056453705,-1.411534,-28.70949,-24.02322,0.2610072,-0.2000854,-0.9922101,-25.66402,-3.088498,35.71597,1007.963
27.091100216,-8.291739,-21.25217,-18.9364,0.3336148,-0.1686624,-0.9617806,-24.9084,-3.480369,35.71396,1007.963
27.123272419,-15.17195,-16.75411,-13.17542,0.3725396,-0.1713786,-0.9742162,-24.9084,-3.480369,35.71396,1007.963
27.157918930,-28.50235,0.8238344,-7.537009,0.321833,-0.2358092,-1.053804,-23.39029,-3.87648,36.21812,1007.963
27.190090656,-4.298763,4.55249,-6.801565,0.2398525,-0.2653436,-1.097145,-23.39189,-5.020692,36.15995,1007.963
27.224737167,20.70341,14.49557,-9.37562,0.3021868,-0.1715873,-0.9836835,-23.39189,-5.020692,36.15995,1007.964
27.256908894,15.60469,16.33031,-6.004834,0.1760396,-0.08566748,-0.9379361,-23.0139,-6.168649,36.22735,1007.964
27.289081097,-14.49621,4.611675,-1.040585,0.205358,-0.09641618,-0.9281762,-23.01472,-6.169461,36.1636,1007.964
27.323728085,-31.51244,9.464847,10.60395,0.1856547,-0.1704722,-0.9141429,-24.532,-5.772538,35.72319,1007.964
27.355899811,-20.70068,9.997512,18.14225,0.1561852,-0.2647954,-0.8910276,-24.532,-5.772538,35.72319,1007.964
27.390546322,-0.5515079,8.044406,14.89404,0.1123757,-0.3200876,-0.8510687,-24.16531,-6.550731,34.89618,1007.966
27.422718525,40.54544,-13.91323,4.41396,0.09038922,-0.3005854,-0.9798786,-24.54299,-6.16423,34.89625,1007.966
27.457365036,68.25056,-14.62345,-9.314333,-0.0127705,-0.1405222,-1.312586,-24.54299,-6.16423,34.89625,1007.966
27.489536762,-29.73096,-23.56039,-27.94559,-0.02266426,-0.0250972,-1.268162,-24.53804,-6.159357,35.27877,1007.966
27.524183273,-87.72127,-0.1231259,-30.45835,0.005430195,-0.2803063,-1.111469,-23.40262,-5.03125,35.33114,1007.966
27.556355477,3.748621,-0.3598659,-38.67082,-0.07640544,-0.3701924,-1.050232,-23.40262,-5.03125,35.33114,1007.966
27.591001988,76.97367,-2.076231,-51.23466,0.008395313,-0.1300465,-0.9473416,-23.02648,-7.704552,35.34223,1007.966
27.623173714,41.58976,4.43412,-53.31842,-0.03747726,0.02968334,-0.9084827,-22.65458,-8.096739,34.89588,1007.966
27.657820225,-6.510258,-5.272222,-56.07633,-0.04361487,-0.005806901,-0.982946,-22.65458,-8.096739,34.89588,1007.968
27.689991951,-14.37335,-1.898676,-54.29901,0.03496086,-0.08687057,-1.059057,-22.64333,-7.323915,35.72097,1007.968
27.724638462,7.250154,10.23425,-49.76377,-0.07409941,-0.1044008,-1.13675,-21.88848,-8.859186,35.72454,1007.968
27.756810665,18.8605,0.1727992,-49.6412,-0.03253854,-0.1021523,-1.070122,-21.88848,-8.859186,35.72454,1007.968
27.788982391,23.65207,4.07901,-50.92822,0.01548248,-0.1186889,-0.9805721,-21.51049,-10.00714,35.79194,1007.968
27.823628902,24.81925,1.59324,-58.34395,-0.1095936,-0.09938258,-0.9493618,-21.13389,-10.77559,35.72998,1007.966
27.855800629,41.95834,-19.1807,-68.45631,-0.02561392,-0.0437022,-0.9130544,-21.13389,-10.77559,35.72998,1007.968
27.890447617,22.4849,-20.42358,-72.13353,0.04689419,-0.01188624,-0.8946707,-20.75595,-10.78096,35.72804,1007.968
27.922619343,7.680168,-28.17682,-76.23976,-0.04802059,-0.03912651,-1.02656,-19.98826,-10.39919,36.61488,1007.966
27.957266331,6.021546,-33.56266,-77.28164,0.0701244,-0.05413697,-1.071648,-19.98826,-10.39919,36.61488,1007.966
27.989438534,-1.657255,-22.96854,-75.01402,0.08051357,-0.09322846,-1.035917,-18.47124,-11.17725,37.05714,1007.966
28.024085045,7.311585,-22.55424,-74.83016,0.08910791,-0.1031532,-0.995591,-16.19307,-12.72262,37.94554,1007.966
28.056256771,13.3932,-16.10308,-72.43996,0.06737585,-0.07092153,-0.9840366,-16.19307,-12.72262,37.94554,1007.964
28.090903282,11.85744,-14.38671,-74.27858,0.02747825,-0.07976599,-1.023743,-13.85718,-13.51231,38.38362,1007.964
28.123075008,9.645941,-15.03775,-78.81382,-0.01603812,-0.09800307,-1.024933,-12.72362,-13.90955,38.37968,1007.963
28.157721520,14.8061,-17.81944,-85.61668,0.02483252,-0.1442557,-1.01702,-12.72362,-13.90955,38.37968,1007.963
28.189893723,25.37213,-7.876363,-89.53905,0.03804767,-0.1394497,-1.014694,-11.5851,-14.30192,38.75827,1007.963
28.224540234,24.69639,-1.129271,-94.62587,-0.02664364,-0.1674652,-0.9757611,-9.695353,-15.47135,38.81793,1007.963
28.256711960,49.45285,-6.159997,-101.7965,-0.00933598,-0.2021597,-0.9318647,-9.695353,-15.47135,38.81793,1007.963
28.291358471,69.9706,-16.87248,-107.4349,0.05577046,-0.1254846,-0.8286921,-8.933749,-14.33381,39.19101,1007.963
28.323530674,68.37341,-41.49345,-105.8414,0.1201562,-0.1204747,-0.8928756,-7.415387,-14.34879,39.69331,1007.963
28.355702400,53.44582,-42.4996,-102.6545,0.1540364,-0.0730252,-0.9491945,-7.415387,-14.34879,39.69331,1007.963
28.390348911,-34.4611,-22.08076,-88.92618,0.1514437,-0.07951304,-0.8480039,-5.502115,-12.44804,41.3957,1007.963
28.422520638,-34.58396,-13.79486,-82.06203,0.003222865,-0.3458853,-0.9938987,-2.855252,-10.57995,41.37286,1007.961
28.457167149,75.31506,-39.65872,-87.57787,0.1031386,-0.2203574,-0.9533082,-1.34478,-12.50709,41.37443,1007.965
28.489339352,9.215928,-23.44202,-79.05897,0.1957809,-0.09627622,-0.7902339,-1.34478,-12.50709,41.37443,1007.965
28.523986340,-20.82355,-26.81557,-77.9558,0.05669066,-0.2434189,-0.9525829,-0.204669,-11.75524,41.81119,1007.965
28.556158066,10.38311,-34.45044,-83.71678,0.08258225,-0.3063486,-0.9769613,1.685544,-11.01982,41.79779,1007.965
28.590805054,41.71262,-31.72792,-83.90064,0.04769038,-0.2314081,-1.100374,1.685544,-11.01982,41.79779,1007.967
28.622976780,2.335721,-29.59726,-78.81382,0.1065786,-0.2120944,-1.012558,4.325084,-11.44422,41.33984,1007.967
28.657623291,6.205838,-21.25217,-70.8465,0.1318673,-0.2601729,-0.9996945,5.47149,-9.924419,42.21915,1007.967
28.689795017,-0.1829254,-14.14997,-60.79543,0.179769,-0.2241837,-0.8335549,5.47149,-9.924419,42.21915,1007.967
28.724441528,3.810051,-1.129271,-52.09268,-0.01320323,-0.2702529,-0.952634,7.355668,-9.575813,41.76134,1007.967
28.756613731,7.311585,-13.38057,-51.84753,0.1459891,-0.2052931,-0.797416,7.728086,-9.205732,41.31127,1007.967
28.791260242,-7.370284,2.65857,-47.18972,0.1298195,-0.2840947,-0.7670668,7.728086,-9.205732,41.31127,1007.965
28.823431969,47.17992,-10.4805,-54.66673,0.0469935,-0.2626562,-0.935781,7.734122,-8.818914,41.75569,1007.965
28.858078480,47.79423,-0.3598659,-60.30514,0.1018443,-0.1505245,-1.02502,7.350917,-8.056963,41.30762,1007.967
28.890250206,0.2470875,13.43024,-61.83731,0.0381283,-0.1905599,-1.096574,7.350917,-8.056963,41.30762,1007.967
28.922422409,9.338789,23.13659,-63.24692,0.01923094,-0.2783154,-1.096157,8.497579,-6.156032,42.18508,1007.967
28.957068920,32.74377,21.59777,-60.85672,0.08690666,-0.1599852,-0.9396451,7.736436,-5.388713,41.73894,1007.968
28.989240646,9.277359,24.85295,-51.9701,0.1561328,-0.08938222,-0.865963,7.736436,-5.388713,41.73894,1007.968
29.023887157,-1.350103,25.20806,-40.81586,0.1937779,-0.07157618,-0.9244894,6.992627,-4.604339,42.63165,1007.968
29.056059837,-32.12674,29.94286,-29.04875,0.3306907,-0.09521668,-0.8806539,5.853288,-4.212785,42.18931,1007.968
29.090706348,-44.71997,41.48394,-18.75253,0.2832144,-0.301965,-0.9715672,5.853288,-4.212785,42.18931,1007.968
29.122878075,34.21811,20.94674,-20.16214,0.3157945,-0.3113829,-1.038947,3.969367,-4.180257,42.64526,1007.97
29.157524586,22.4849,19.70386,-24.39094,0.4730543,-0.2631339,-1.16389,2.451058,-5.307869,42.2123,1007.97
29.189696789,-5.834523,33.02048,-27.57787,0.5177554,-0.2292003,-1.203552,2.451058,-5.307869,42.2123,1007.972
29.224343300,-39.19124,37.04506,-23.10391,0.5383118,-0.3365993,-1.144379,0.9403315,-3.761861,42.21259,1007.972
29.256515026,0.06279626,30.65308,-23.53292,0.6043724,-0.3348273,-1.123773,-0.949625,-4.116152,42.22412,1007.972
29.291161537,-1.718686,30.53471,-18.99768,0.6366084,-0.243158,-1.048608,-0.949625,-4.116152,42.22412,1007.974
29.323333263,-30.46812,32.42863,-12.74641,0.6441491,-0.280712,-1.004162,-2.82828,-4.840207,43.13007,1007.975
29.357979775,-16.33912,40.00431,-7.598296,0.6680184,-0.3423573,-0.863185,-3.95689,-4.438095,43.51654,1007.975
29.390151978,4.240065,40.77372,-4.350084,0.6535931,-0.318953,-0.7327176,-3.95689,-4.438095,43.51654,1007.977
29.422323704,13.63892,36.98587,-3.063057,0.6548187,-0.2844348,-0.6615905,-5.096691,-5.951396,43.14726,1007.977
29.456970215,17.50903,37.34098,-2.266325,0.5888311,-0.2822719,-0.6754169,-6.614484,-6.316741,42.71058,1007.979
29.489142418,32.86664,30.12042,-6.924139,0.6149471,-0.2840678,-0.7026674,-6.614484,-6.316741,42.71058,1007.979
29.523788929,30.40942,31.89597,-15.38175,0.6501558,-0.2928427,-0.7478942,-8.125214,-4.770733,42.71087,1007.985
29.555960655,39.13254,34.5001,-22.61362,0.6180481,-0.2804653,-0.8000305,-9.258518,-3.99236,42.71295,1007.982
29.590607166,30.83943,29.76531,-30.88737,0.6269089,-0.249007,-0.8061199,-10.7758,-3.595438,42.27254,1007.984
29.622778893,16.8333,27.45709,-34.68716,0.6092619,-0.2615645,-0.8094327,-10.7758,-3.595438,42.27254,1007.984
29.657426357,30.22513,22.30799,-37.07735,0.6078652,-0.2629468,-0.8007551,-11.91462,-2.441616,41.82648,1007.984
29.689598084,27.82934,17.09971,-37.19993,0.5925018,-0.2471655,-0.7783096,-13.0487,-2.806644,41.83414,1007.986
29.724244595,44.47699,9.819957,-37.26122,0.5601977,-0.2973844,-0.7654083,-13.0487,-2.806644,41.83414,1007.992
29.756416321,66.77622,0.6462793,-38.18052,0.5804191,-0.2934211,-0.7419463,-13.05345,-1.287795,41.38042,1007.993
29.791063309,65.11761,1.474869,-32.72598,0.5958616,-0.2439233,-0.6703464,-14.18624,0.2528443,41.37878,1007.993
29.823235035,57.00879,-2.845637,-22.6749,0.5786401,-0.266695,-0.6761574,-14.18624,0.2528443,41.37878,1007.993
29.857881546,65.9162,-10.59887,-12.74641,0.5769489,-0.2398518,-0.6580864,-14.18521,1.777378,41.37133,1007.993
29.890053272,29.91798,-11.36828,-4.656519,0.6133825,-0.198635,-0.6397706,-14.1894,4.122017,40.91358,1007.993
29.924699783,-12.89902,-13.49894,2.943072,0.6222767,-0.2884474,-0.6993979,-14.1894,4.122017,40.91358,1007.995
29.956871986,-5.465941,-12.55198,4.352674,0.6014601,-0.3688725,-0.7567426,-13.81595,6.016631,40.45606,1007.995
29.989043713,11.91887,-14.4459,3.433368,0.6065455,-0.3416301,-0.7454795,-13.04274,6.022949,41.79103,1007.995
30.023690224,-9.028904,-13.91323,2.636636,0.6116402,-0.2984214,-0.7408328,-13.04274,6.022949,41.79103,1007.997
30.055861950,-19.96352,-13.14383,2.452775,0.6139858,-0.3251156,-0.7391468,-13.4262,6.403765,41.34483,1007.997
30.090508461,-10.81039,-16.63574,-0.1825666,0.6736292,-0.349975,-0.7143623,-12.29264,6.006526,41.34089,1007.999
30.122680664,1.168544,-11.96013,-3.492066,0.7075905,-0.3416207,-0.7420843,-12.29264,6.006526,41.34089,1007.999
30.157327652,-0.4900775,-7.106957,-3.61464,0.6325489,-0.3348615,-0.7321703,-11.53753,4.852389,41.3426,1007.999
30.189499855,0.8613916,-9.888653,-6.004834,0.6686037,-0.3456937,-0.791882,-10.76984,5.234156,42.22943,1007.999
30.224146366,3.441469,-4.206892,-6.924139,0.7018448,-0.3003881,-0.7489207,-10.76984,5.234156,42.22943,1007.999
30.256318092,-10.25751,3.36879,-2.879196,0.6660351,-0.2998967,-0.7712365,-11.14752,5.620657,42.22951,1008
30.290964603,-7.493145,8.103591,-0.1825666,0.6746421,-0.3092892,-0.7877823,-10.77536,5.609604,41.78129,1008
30.323136330,-2.455851,6.80152,0.4303037,0.724137,-0.2740448,-0.7802415,-10.77536,5.609604,41.78129,1008
30.357782841,-16.21626,13.31187,5.026831,0.7378679,-0.1855958,-0.7569866,-10.77587,4.847337,41.78501,1008
30.389955044,-36.30401,10.88529,10.29751,0.7947056,-0.1339256,-0.7546809,-11.14804,4.85839,42.23323,1008
30.424601555,-83.3597,11.71388,19.06156,0.9917324,-0.1621338,-0.697948,-11.14804,4.85839,42.23323,1007.999
30.456773281,-69.04642,30.29797,32.85114,0.8032624,-0.2574112,-0.8382007,-11.91573,4.476624,41.3464,1007.999
30.488945007,-49.2044,-1.247641,13.42315,0.8451487,-0.1141855,-0.7429389,-11.52808,1.751169,42.25036,1007.999
30.523591519,-129.3097,15.91601,25.06769,0.9001054,-0.141597,-0.9263554,-11.52808,1.751169,42.25036,1007.999
30.555763722,-60.81474,23.72844,28.92877,0.8631786,-0.41385,-1.007785,-12.66922,-0.5252118,41.82104,1007.999
30.590410233,48.83854,23.78762,-0.05999249,0.8908756,-0.3628378,-1.046665,-11.92092,-3.209568,41.38392,1007.999
30.622581959,39.2554,44.56156,-16.48491,0.6297639,-0.007749569,-0.9897274,-12.68386,-5.110184,40.95081,1007.997
30.657228470,-99.20876,24.32029,3.126933,0.7244102,0.04963665,-0.7881796,-12.68386,-5.110184,40.95081,1007.997
30.689400673,-124.7024,32.66537,4.168812,0.59989,-0.2513424,-1.000615,-13.82712,-3.198968,40.1185,1007.997
30.724047661,-60.81474,26.27339,-2.021177,0.5798307,-0.2527779,-0.9479015,-15.03228,-6.998987,39.69695,1007.995
30.756219387,-38.57693,7.275001,-0.5502887,0.4563491,-0.1831437,-0.8092873,-15.03228,-6.998987,39.69695,1007.992
30.790865898,-20.70068,5.795375,-4.043649,0.5623327,-0.08163053,-0.7318375,-15.42409,-10.43519,38.82307,1007.99
30.823038101,-63.08767,-10.24376,1.778618,0.3924704,-0.1084619,-0.6070819,-15.0527,-11.58965,38.38044,1007.988
30.857684612,-36.18115,13.84454,5.271979,0.4307382,-0.2615324,-0.8574125,-15.0527,-11.58965,38.38044,1007.986
30.889856338,-100.8674,-8.941692,12.87157,0.355176,-0.2930024,-0.832867,-15.43193,-13.48994,38.39168,1007.986
30.924502850,23.28349,-6.396738,-21.32659,0.5654129,-0.3299117,-0.825975,-15.0658,-13.88782,37.49904,1007.985
30.956674576,187.6713,10.11588,-27.94559,0.5786175,0.1635861,-0.7709379,-15.0658,-13.88782,37.49904,1007.983
30.991321564,59.83459,10.70773,-20.03956,0.4485525,0.2914338,-0.5146565,-14.61512,-16.55064,38.40237,1007.983
31.023493290,-21.25356,-5.627332,-14.95274,0.6013781,0.02214812,-0.7814742,-14.59526,-11.57966,39.65327,1007.983
31.055665016,5.714394,26.15502,-11.88839,0.5883979,0.1104011,-0.8008696,-14.59526,-11.57966,39.65327,1007.983
31.090311527,-49.45012,32.66537,4.107525,0.7721607,-0.0319068,-0.7574854,-15.04037,-10.43487,39.26742,1007.985
31.122483730,7.065864,29.70612,15.0779,0.7125869,0.0132885,-0.725709,-15.0346,-10.42919,39.7137,1007.985
31.157130241,-22.85075,49.17799,28.86748,0.677122,0.04414928,-0.8379115,-15.0346,-10.42919,39.7137,1007.983
31.189301968,2.274291,50.00658,54.3016,0.788489,0.1142178,-0.7434192,-16.93611,-10.79485,38.83267,1007.982
31.223948956,58.66741,63.26402,79.06155,0.6196427,-0.08707564,-0.6456573,-18.45339,-10.39793,38.39226,1007.98
31.256121159,140.4313,59.59455,88.7449,0.788282,-0.1800177,-0.5675031,-18.45339,-10.39793,38.39226,1007.98
31.290767670,269.2509,53.61686,83.35165,0.8542889,-0.01570324,-0.8063182,-20.73784,-9.620504,37.06131,1007.978
31.322939396,258.132,84.2747,131.2781,0.8981379,0.1307953,-0.5370459,-23.75776,-4.241687,37.05072,1007.976
31.357585907,83.4853,95.10556,156.7122,0.675292,-0.09380881,-0.3498023,-23.75776,-4.241687,37.05072,1007.976
31.389758110,-26.96659,105.818,140.1034,0.5092016,-0.5827726,-0.4819415,-25.2956,7.244017,34.3884,1007.975
31.424404621,241.6072,120.5551,107.3762,0.6211111,-1.152566,-0.594205,-26.47019,14.07586,30.85421,1007.975
31.456576347,530.0844,95.46067,79.24541,0.5945996,-0.7722359,-0.4486323,-26.47019,14.07586,30.85421,1007.975
31.491222859,424.4241,115.3468,26.23214,0.7525675,-0.09827717,0.2538671,-27.68073,18.96792,24.65165,1007.971
31.523394585,160.9491,132.6289,21.32918,0.6037455,0.1173661,0.6166052,-28.23993,29.07873,10.06735,1007.971
31.558041096,-14.25049,91.67283,43.8828,0.7102589,-0.1983678,0.8429221,-28.36205,33.91003,0.3524933,1007.969
31.590213299,-56.33032,93.80349,58.16268,0.3375783,-0.6879851,0.8076592,-28.36205,33.91003,0.3524933,1007.969
31.622385025,53.26154,51.72294,55.58862,-0.01704306,-1.24654,0.3412339,-27.62216,34.64531,-0.9301815,1007.971
31.657031536,165.1877,55.98426,48.11161,0.1871956,-0.5650809,0.9132235,-25.76033,36.11458,-3.178698,1007.969
31.689203262,83.85388,76.22554,46.76329,-0.2868502,-0.497259,1.031476,-25.76033,36.11458,-3.178698,1007.973
31.723849774,120.0978,-67.00219,27.88689,0.02796276,0.01321661,0.9647848,-24.32177,36.40196,-8.862432,1007.972
31.756021976,-40.60414,-85.05362,66.0687,0.6649074,0.2914058,1.132727,-22.46071,36.72783,-11.10537,1007.972
31.790668964,-243.1402,-103.6969,70.84909,0.07398466,-0.9368238,0.2802779,-22.46071,36.72783,-11.10537,1007.972
31.822841167,13.08604,-125.7137,64.84296,0.1579935,-1.309447,0.35306,-21.65943,36.76176,-7.602743,1007.972
31.857487678,56.0259,-147.6122,44.67953,0.3494507,-0.8578894,0.5603279,-19.69364,39.47594,-1.887545,1007.972
31.889659405,-82.80683,-169.1555,3.310794,0.4761072,-0.8755716,0.4259685,-19.69364,39.47594,-1.887545,1007.972
31.924305916,-266.9752,-170.6351,-87.27143,0.3731924,-1.095668,0.01589675,-17.78558,40.99068,-0.565815,1007.972
31.956477642,-339.0945,-182.2354,-151.4389,0.7072718,-1.273785,-0.2706586,-17.66615,40.72731,8.680431,1007.972
31.991124153,-235.2157,-110.9767,-230.4992,0.8227124,-0.9747791,-0.3830227,-17.66615,40.72731,8.680431,1007.97
32.023296356,-207.572,-121.8667,-271.2551,0.4910991,-0.3227895,-0.2646575,-20.14529,35.59632,21.85342,1007.97
32.057942867,-248.6689,-155.8981,-226.5155,1.000685,-0.08007871,-0.3107914,-23.46104,26.96871,28.99036,1007.97
32.090114594,-233.0042,-33.68103,-190.9691,1.028557,-0.2958006,-0.257882,-23.46104,26.96871,28.99036,1007.97
32.122286320,-39.68268,-81.56171,-155.3613,0.8486874,-0.1920203,-0.5744317,-24.88946,16.02665,36.06503,1007.97
32.156933308,81.02808,-100.5601,-90.64221,1.16016,0.2976729,-0.505821,-24.5019,4.604328,37.45776,1007.97
32.189105034,-38.39264,-59.66325,-23.1652,1.01596,0.3092534,-0.4817261,-24.5019,4.604328,37.45776,1007.972
32.223751545,-84.52689,-59.01221,31.80926,0.6922967,0.1019956,-0.6279065,-21.45108,2.239481,39.68517,1007.973
32.255923271,-10.07322,-33.91777,30.09322,0.7223132,0.01172135,-0.6708647,-19.17926,1.068742,40.06168,1007.973
32.290570736,14.8061,-68.24507,41.61518,0.5114323,0.01356228,-0.505002,-19.17926,1.068742,40.06168,1007.973
32.322742462,45.45987,-65.28583,75.20047,0.8519176,-0.05241728,-0.7222488,-17.28481,-0.4769495,40.50573,1007.973
32.357388973,86.3111,-13.67649,131.5232,0.6124025,-0.05460497,-0.5937481,-15.3833,-0.1112888,41.38676,1007.973
32.389560700,140.3084,5.85456,146.416,0.381402,-0.246937,-0.695844,-15.3833,-0.1112888,41.38676,1007.973
32.424207211,312.0064,55.4516,166.5794,0.120194,0.07161132,-1.097588,-12.66056,3.736464,42.24654,1007.973
32.456379414,255.6747,-85.29036,206.9676,0.8269544,0.5418297,-0.08907154,-12.68508,10.18731,39.98351,1007.975
32.491025925,65.42476,112.3876,231.8501,1.018873,-0.6714137,-0.8224176,-12.68508,10.18731,39.98351,1007.975
32.523197651,29.73368,159.2029,339.5927,-0.4761262,-0.7585335,-0.8096679,-10.08823,22.28996,35.51138,1007.975
32.557844162,567.7412,-23.56039,335.4252,0.4130318,-1.373369,-0.9748633,-5.57241,26.39608,33.74633,1007.975
32.590016365,737.842,120.3776,280.2055,0.2379476,-0.3852558,-0.2199123,-5.57241,26.39608,33.74633,1007.975
32.624662876,294.7445,165.2398,134.9553,-0.9200892,-0.6058428,1.397025,0.3238688,31.49419,21.76727,1007.975
32.656834603,146.6358,21.36103,64.29138,-0.8644337,-0.5378039,1.947992,8.768312,42.55296,1.903118,1007.981
32.689006329,-314.0923,-76.64935,-6.127408,-0.5146317,-1.104914,1.455643,8.768312,42.55296,1.903118,1007.981
32.723652840,-356.6636,-132.5792,-72.37868,-0.2770984,-1.721819,0.2867223,13.21831,42.02376,-4.684929,1007.983
32.755825043,-298.3047,-146.8428,-124.7791,-0.1010512,-1.124219,0.09913447,14.11565,41.39043,6.280678,1007.984
32.790472031,-373.4955,-113.2849,-164.9834,0.1759098,-0.7247296,-0.4115579,12.34538,41.1539,15.53659,1007.984
32.822643757,-460.7881,-72.21047,-181.8986,0.3720701,-0.7838917,-0.9079254,12.34538,41.1539,15.53659,1007.984
32.857290745,-402.1835,-16.51737,-176.1989,0.4115205,-0.8232152,-1.072498,9.09019,37.91821,27.04653,1007.984
32.889462471,-261.1393,9.642402,-145.1877,0.3300962,-0.6048434,-0.8790658,6.195924,27.80455,37.63171,1007.984
32.924108982,-200.2618,18.57934,-99.59012,0.4635055,-0.5759868,-0.638591,6.195924,27.80455,37.63171,1007.986
32.956280708,-24.44794,48.29021,-57.54722,0.3799948,-0.6330255,-0.8508437,2.838956,17.99374,41.65026,1007.984
32.990927219,109.0404,19.82223,-39.2224,0.1976302,-0.310563,-0.7568318,0.5826826,10.41953,42.97417,1007.984
33.023099422,58.42169,-19.06233,-15.6269,0.4535331,-0.1527867,-0.4619712,0.5826826,10.41953,42.97417,1007.984
33.057745934,-45.64143,33.84907,-18.75253,0.5608845,-0.3254026,-0.4957259,-0.9442987,12.33043,41.69752,1007.984
33.089917660,-36.54973,30.47552,-12.86898,0.3201721,-0.4229376,-0.5217579,-0.9367199,15.00405,42.13077,1007.984
33.124564171,-43.42994,40.41861,9.13306,0.2704461,-0.6668105,-0.4558245,-0.9367199,15.00405,42.13077,1007.986
33.156735897,69.17201,32.72455,-4.288797,0.1324299,-0.7851514,-0.9110017,-2.450022,12.73872,42.14967,1007.984
33.191382408,197.1316,38.99817,-6.924139,0.1586046,-0.3122534,-0.8123935,-3.590648,11.2246,41.71664,1007.986
33.223555088,157.0175,77.29087,-28.00687,0.05630374,0.06879947,-0.6849056,-3.590648,11.2246,41.71664,1007.986
33.255726337,3.932912,36.0981,2.881785,0.1478459,-0.02427517,-0.5477113,-5.506663,15.03436,39.4763,1007.984
33.290373802,-177.7782,85.04411,7.11059,0.4262703,-0.5044434,-0.5745118,-7.420568,20.75059,37.29041,1007.98
33.322545528,-114.6278,111.4406,30.09322,0.01172166,-0.7300673,-0.9581032,-7.420568,20.75059,37.29041,1007.986
33.357192040,-29.17808,-48.24054,18.20354,0.609359,-0.5533299,-0.2498276,-8.904207,19.65709,39.53513,1007.984
33.389363766,-0.428647,17.63238,50.68566,0.8322024,-0.3289523,-0.08858731,-13.06514,14.38027,39.58245,1007.984
33.424010277,-80.22675,-33.74022,45.23112,0.6931655,-0.3868082,-0.6946043,-13.06514,14.38027,39.58245,1007.984
33.456182480,-60.26187,-11.07235,74.21988,0.2923415,-0.5371199,-0.933103,-11.54895,13.6014,39.96096,1007.984
33.490828991,-48.46723,-185.1355,75.93591,0.5857959,-0.4142197,-0.8567442,-10.40434,12.45327,40.85331,1007.984
33.523000717,-66.09776,-58.71629,138.3261,0.8539546,-0.5197368,-0.8345703,-10.40434,12.45327,40.85331,1007.984
33.557647228,-33.35535,-93.813,118.1627,0.4371658,-0.7321851,-1.084518,-7.730906,10.91958,43.07861,1007.986
33.589818955,17.01759,-91.62315,117.3659,0.5434143,-0.5356889,-0.9633901,-3.569647,9.340864,43.44731,1007.986
33.624465466,-145.0358,-78.66164,98.73469,0.4255954,-0.4448704,-1.032396,-3.569647,9.340864,43.44731,1007.986
33.656637669,-217.708,-64.33887,88.56104,0.4508769,-0.2870298,-1.003857,-0.1500311,9.310415,44.8325,1007.988
33.691284657,-322.8769,-61.61636,91.07381,0.1461013,-0.2915632,-1.032862,3.637523,5.455953,45.66058,1007.99
33.723455906,-290.8102,-58.302,65.51712,0.1661109,-0.4878404,-1.170109,3.637523,5.455953,45.66058,1007.991
33.755628109,-95.40007,-125.1219,92.78985,-0.2734134,-1.823242,-3.235154,5.527299,-3.013664,46.13843,1007.991
33.790275097,-43.73709,-154.7144,-35.97419,-0.284646,0.1432126,-1.51497,6.611665,-16.40924,43.0738,1007.991
33.822446823,-14.98765,9.701587,-0.6115757,-0.2396438,-0.166769,-1.526621,6.611665,-16.40924,43.0738,1007.993
33.857093334,-62.59623,13.90372,17.83582,-0.07126737,-0.05387725,-0.9401863,11.90128,-18.7712,43.05788,1007.993
33.889265537,-150.5646,-18.05618,-11.52067,-0.2460465,0.02748947,-0.6978489,13.41463,-17.64846,43.10832,1007.995
33.923912048,-77.46239,-25.39512,-10.4175,-0.1901784,0.1170756,-1.003701,13.01178,-20.33376,41.33816,1007.997
33.956083775,-51.60018,-5.094667,-7.475722,-0.1570233,0.2015841,-1.164302,13.01178,-20.33376,41.33816,1007.997
33.990730286,-0.6129383,1.711609,-0.1212795,-0.2049054,0.1697406,-0.9814398,13.73625,-25.32685,39.19083,1007.997
34.022902012,27.03075,0.7646493,2.820498,-0.1821615,0.1800535,-0.9512011,14.10186,-26.48699,38.30192,1007.998
34.057549000,41.4669,-0.9517161,2.943072,-0.220904,0.164597,-0.9663909,14.10186,-26.48699,38.30192,1008
34.089720726,22.30061,-4.562002,5.333266,-0.2362185,0.1838452,-0.9979013,13.73522,-26.85138,39.19828,1008
34.124367237,-4.667346,3.96064,10.42009,-0.2011544,0.102887,-1.025406,13.75276,-25.31061,40.46592,1008.002
34.156538963,-42.1399,0.8238344,3.065646,-0.2104238,0.06811841,-1.008254,13.75276,-25.31061,40.46592,1008.002
34.191186428,-68.61641,1.711609,-6.372556,-0.2027491,0.03991141,-1.010486,13.74229,-24.94003,39.63525,1008.002
34.223358154,-77.21667,2.89531,-13.66571,-0.3144081,0.08741868,-0.9642268,13.72418,-26.10048,38.30199,1008
34.258004665,-73.53084,3.7239,-15.81076,-0.1198781,0.1640307,-0.8487663,13.72418,-26.10048,38.30199,1008
34.290176392,-45.64143,2.066719,-23.53292,-0.1861821,0.2272818,-0.8717263,13.69952,-28.41003,36.52803,1008
34.322348595,-32.67962,3.901455,-23.47163,-0.1643579,0.301519,-0.9238558,14.44205,-31.10007,35.64463,1008
34.356995106,-28.93236,6.742335,-15.38175,-0.1000265,0.2953574,-0.9890949,14.44205,-31.10007,35.64463,1008
34.389166832,-29.48523,7.097445,-10.66265,-0.1238448,0.2960447,-0.9782628,14.79744,-31.5085,33.92319,1008
34.423813343,-45.27285,4.138195,-6.311269,-0.1751278,0.3406731,-0.8887286,14.79115,-32.27644,33.48063,1008
34.455985546,-64.37771,-9.592728,-4.288797,-0.2830457,0.38898,-0.8622593,14.79115,-32.27644,33.48063,1007.998
34.522803784,15.48183,-7.639623,-0.3051406,-0.176666,0.4039605,-0.9281984,15.13344,-34.98304,30.87779,1008
34.557450295,16.95616,-5.804887,5.517127,-0.2218464,0.3912768,-0.8396755,15.13344,-34.98304,30.87779,1008.001
34.589622021,-5.650232,-1.247641,30.09322,-0.1817893,0.4675198,-0.8717147,15.5103,-35.37036,30.81396,1008.003
34.624268532,-1.841547,-2.135417,11.15553,-0.2208397,0.3531353,-0.8756673,15.89485,-35.36923,31.32206,1008.005
34.656440735,8.04875,-1.129271,11.7684,-0.2219702,0.3970045,-0.9153011,15.89485,-35.36923,31.32206,1008.007
34.691087723,-0.121495,-2.076231,13.91345,-0.2249614,0.4071164,-0.9277217,14.75525,-35.35881,30.88158,1008.007
34.723259449,11.85744,-2.964007,11.95226,-0.273376,0.3168351,-0.8962023,14.37648,-35.35426,30.81976,1008.008
34.757906437,33.91095,1.297314,3.372081,-0.2448335,0.3362919,-0.9353502,14.37648,-35.35426,30.81976,1008.008
34.790078163,38.4568,7.156631,4.107525,-0.2144402,0.3039051,-0.9614468,13.99963,-34.96694,30.88359,1008.01
34.824724674,36.61389,10.88529,3.739803,-0.2038483,0.2829273,-0.9684666,13.64371,-35.32078,32.60876,1008.012
34.856896400,21.87059,10.88529,1.656044,-0.1934933,0.2757203,-0.9522345,13.6563,-33.78487,33.49387,1008.012
34.889068603,15.54326,10.64855,-0.1212795,-0.1612293,0.2731938,-0.9443625,13.6563,-33.78487,33.49387,1008.012
34.923715115,7.434446,8.932181,-1.530881,-0.1577908,0.2649766,-0.9377143,12.5343,-33.37627,34.39038,1008.012
34.955886841,-15.84768,7.748481,-3.798501,-0.157563,0.2985501,-0.9268357,13.29621,-33.00019,34.83093,1008.012
34.990533352,-27.82661,3.309605,-3.124344,-0.1686914,0.3165847,-0.9241732,13.29621,-33.00019,34.83093,1008.014
35.022705078,-25.12367,2.65857,-1.530881,-0.1769555,0.3447018,-0.9339862,12.52903,-32.61968,33.94037,1008.014
35.057351589,-15.84768,5.02597,-1.653455,-0.1663291,0.3232718,-0.936672,12.90094,-33.01187,33.49402,1008.014
35.089523792,-5.220219,6.44641,-2.205038,-0.1455946,0.3490163,-0.9207473,12.90094,-33.01187,33.49402,1008.014
35.124170303,3.011456,5.73619,-2.695334,-0.1446159,0.3330562,-0.912694,12.52248,-33.76877,33.49968,1008.012
35.156342030,9.830233,5.085155,-1.837316,-0.1418644,0.3236934,-0.9291849,12.89464,-33.77982,33.05146,1008.01
35.190989494,14.31465,5.203525,-0.1825666,-0.1233997,0.3302993,-0.9418347,12.89464,-33.77982,33.05146,1008.01
35.223161221,4.178634,3.783085,2.085053,-0.1077022,0.3365824,-0.9351813,12.15006,-34.13885,33.94975,1008.01
35.257807732,10.44454,5.321895,3.004359,-0.1091013,0.3497424,-0.9919359,12.5343,-33.37627,34.39038,1008.008
35.289979458,69.90917,14.67313,9.194347,-0.1124745,0.3222722,-1.031655,12.5343,-33.37627,34.39038,1008.01
35.324625969,150.6287,31.48167,13.23929,-0.1489914,0.249585,-1.102767,12.16188,-33.74635,34.84045,1008.01
35.356798172,189.5142,72.61526,7.171876,-0.07233559,0.1728749,-1.119057,11.81907,-31.80202,37.44701,1008.012
35.388969898,107.1974,145.8271,40.69588,0.020194,0.09546687,-1.278654,11.81907,-31.80202,37.44701,1008.012
35.423616409,123.1693,45.5677,24.27096,0.2724298,0.2547066,-1.363081,9.612243,-25.99676,41.82975,1008.012
35.455788136,-17.93632,111.9141,69.3782,0.380223,0.3858377,-0.9682482,4.346204,-21.70721,43.55773,1008.012
35.490434647,-120.4022,89.95647,97.7541,0.08160512,0.356925,-1.007634,4.346204,-21.70721,43.55773,1008.012
35.522606850,-174.9525,56.33937,107.4374,0.1284401,0.2211696,-0.7691545,1.308238,-18.63144,42.28323,1008.012
35.557253361,-206.7734,35.62462,111.9727,0.07864933,-0.05121794,-0.8133514,-4.03166,-23.55568,38.828,1008.012
35.589425087,-111.2491,5.02597,80.40987,0.0856686,-0.1516639,-0.7424271,-4.03166,-23.55568,38.828,1008.012
35.624071598,-38.57693,-2.372157,39.22499,0.02933914,0.1723029,-0.7498347,-7.883427,-29.2864,33.58364,1008.012
35.656243801,-75.6809,-18.29292,37.57024,0.001640628,0.4940463,-0.7753617,-11.70476,-32.7019,30.55951,1008.012
35.690890789,-142.5786,-32.97081,34.13816,0.05000765,0.1330419,-1.233315,-11.70476,-32.7019,30.55951,1008.006
35.723062515,1.475696,-18.82559,21.26789,0.2145758,0.2661279,-1.052039,-12.11814,-33.87404,27.88935,1008.008
35.757709026,-25.86084,-5.568147,20.96146,0.2062931,0.593742,-0.7441555,-12.90414,-36.93998,25.74045,1008.008
35.789881229,-118.0679,-11.30909,19.12285,0.09977181,0.2152131,-0.8677461,-12.90414,-36.93998,25.74045,1008.008
35.824527740,18.18477,-26.57882,14.28117,0.2109519,0.5650981,-0.9309689,-13.29389,-37.32712,24.85168,1008.001
35.856699467,-34.64539,-25.45431,41.49261,0.1285847,0.7884156,-0.8522033,-14.07944,-38.48821,22.62973,1007.999
35.891345978,-143.5615,-2.786452,33.58658,0.2913488,0.4646005,-1.071363,-14.45712,-38.1017,22.6298,1007.999
35.923517704,-39.43696,5.321895,28.49976,0.2688802,0.1929272,-0.9422896,-14.45712,-38.1017,22.6298,1007.999
35.955689907,21.6863,-0.1823109,26.04828,0.3055646,0.6045618,-0.7247486,-14.88726,-39.67122,18.68641,1007.999
35.990336418,-53.81168,0.6462793,24.76125,0.2340373,0.5326839,-0.8393896,-16.08299,-39.27227,18.75443,1007.999
36.022508144,-52.03019,-1.070086,24.82254,0.2659785,0.5017046,-0.6818472,-16.08299,-39.27227,18.75443,1007.999
36.057154655,-30.34526,-14.4459,30.46095,0.3113596,0.6648861,-0.7030974,-16.49008,-39.67647,16.52682,1008.001
36.089326859,-35.62827,-15.33367,49.52121,0.3167729,0.715638,-0.6641695,-17.26381,-40.44505,15.19557,1008.003
36.123973370,16.89473,-20.66032,79.49056,0.5155374,-0.6500629,-1.147715,-17.26381,-40.44505,15.19557,1007.999
36.156145096,172.9894,-17.16841,6.191284,0.2225126,0.6226693,-0.5700665,-18.40892,-40.05918,14.30695,1007.999
36.190792084,-30.59098,-18.58885,7.968608,0.2339672,0.367611,-0.5934841,-19.11285,-38.85469,18.258,1007.999
36.222963333,-81.14821,-37.64643,-21.57174,0.06219515,0.6567104,-0.7909737,-19.11285,-38.85469,18.258,1007.999
36.257610798,-203.7633,0.1136141,-21.38788,0.318815,0.5398781,-0.8589193,-19.49472,-37.32966,17.86996,1007.999
36.289782524,-131.214,52.25561,-50.92822,-0.1239749,0.2815314,-1.161059,-18.80286,-39.30779,13.03007,1007.997
36.324429035,199.4659,46.45548,-67.10799,0.1631999,0.1003194,-0.871695,-18.80286,-39.30779,13.03007,1007.997
36.356601238,356.6049,-32.14222,-78.38481,0.05890873,1.019111,-0.3117399,-17.71624,-42.0365,9.530804,1008
36.391247749,10.75169,12.54247,-81.14272,0.2311901,0.5968271,-1.209492,-15.30085,-41.92334,20.93123,1008
36.423419476,75.74506,74.44999,-92.66469,0.1705764,0.1471681,-1.526897,-15.30085,-41.92334,20.93123,1008
36.458065987,235.4027,61.60684,-93.64528,0.2349694,0.07894146,-1.206085,-13.29441,-38.08939,24.8554,1008
36.490237713,304.6962,57.87819,-112.2152,0.2525487,-0.09715442,-1.119495,-10.958,-37.67305,30.13356,1008
36.522409916,352.4277,13.90372,-137.7719,0.140982,0.05812326,-0.8819575,-10.958,-37.67305,30.13356,1008
36.557056427,233.9898,-47.29358,-147.9456,0.297269,0.3469358,-0.7161911,-9.345037,-30.73911,37.55159,1008
