Time (s),Gyroscope X (deg/s),Gyroscope Y (deg/s),Gyroscope Z (deg/s),Accelerometer X (g),Accelerometer Y (g),Accelerometer Z (g),Magnetometer X (uT),Magnetometer Y (uT),Magnetometer Z (uT),Barometer (hPa)
0.005273819,-0.04169029,-0.06153485,-0.01431186,0.05917228,-0.5248007,-0.8608449,-0.5590668,12.12057,32.67698,1008.229
0.037834167,-0.5954374,-0.06153485,-0.01431186,0.06546827,-0.5208505,-0.8564402,-0.5590668,12.12057,32.67698,1008.231
0.072899342,-0.2878001,-0.1210158,-0.01431186,0.06353374,-0.5209001,-0.851122,0.160881,12.8509,32.2233,1008.231
0.105459213,0.01983716,0.05742703,0.04688754,0.06447063,-0.5189174,-0.8568932,0.5403452,12.12851,32.67341,1008.229
0.138019562,0.3274744,-0.1210158,-0.01431186,0.06021578,-0.5296712,-0.855603,0.5403452,12.12851,32.67341,1008.231
0.173084736,0.7581667,0.2358698,0.04688754,0.06257842,-0.5233247,-0.8550251,0.1698241,12.49226,33.11806,1008.231
0.205641270,0.1428921,-0.002053916,0.1080869,0.05960075,-0.5180289,-0.8525245,0.1698241,12.49226,33.11806,1008.231
0.238201618,-0.2878001,-0.002053916,-0.1367106,0.06844625,-0.5242446,-0.8497276,0.1698241,12.49226,33.11806,1008.233
0.270761490,0.01983716,-0.1804967,-0.01431186,0.06158407,-0.5233001,-0.8632412,0.1698241,12.49226,33.11806,1008.229
0.305826664,-0.1032177,-0.06153485,-0.1367106,0.06743659,-0.5222895,-0.855014,0.1755054,12.12845,33.12067,1008.23
0.338387013,0.265947,-0.002053916,-0.07551125,0.05527185,-0.5234156,-0.8559862,0.1755054,12.12845,33.12067,1008.23
0.370947361,0.4505294,0.2358698,-0.19791,0.06843587,-0.5251768,-0.8584426,-0.557436,12.12315,33.12305,1008.232
0.406008720,0.8196941,0.1763889,-0.01431186,0.06402955,-0.5218613,-0.8521039,-0.5533857,11.75676,32.67958,1008.234
0.438568592,0.3890019,-0.002053916,0.04688754,0.06110142,-0.5209363,-0.8501534,-0.5533857,11.75676,32.67958,1008.235
0.471128941,-0.04169029,-0.1210158,0.04688754,0.06258399,-0.5223837,-0.8482435,-0.1982775,12.48703,32.67318,1008.237
0.506194115,-0.8415473,-0.002053916,-0.07551125,0.0577428,-0.5263038,-0.8550659,-0.5631173,12.48697,33.12043,1008.237
0.538754463,-0.2262726,0.05742703,0.04688754,0.05968855,-0.525799,-0.8536099,-0.5631173,12.48697,33.12043,1008.239
0.571315289,-0.04169029,-0.2399777,0.1080869,0.0654779,-0.5208681,-0.8525735,-0.5647483,12.48438,32.67436,1008.237
0.606376171,-0.2878001,0.116908,-0.01431186,0.06931715,-0.5173852,-0.8592914,-0.1925964,12.12322,32.67579,1008.237
0.638936043,0.1428921,-0.2399777,0.1080869,0.05964389,-0.5228637,-0.8579155,-0.1925964,12.12322,32.67579,1008.237
0.671496391,0.3890019,-0.1210158,-0.01431186,0.06160212,-0.5233331,-0.855991,0.1795559,11.76205,32.67721,1008.237
0.704057217,0.265947,-0.06153485,0.04688754,0.06013242,-0.5223847,-0.8550084,-0.5517547,11.75934,33.12566,1008.239
0.739121914,0.265947,0.1763889,0.04688754,0.0659677,-0.5218182,-0.8559721,-0.5517547,11.75934,33.12566,1008.239
0.771682739,0.4505294,0.116908,-0.1367106,0.06455317,-0.5257267,-0.855547,0.1771364,12.13103,33.56674,1008.239
0.804238319,0.3890019,-0.1210158,-0.01431186,0.05870984,-0.5258029,-0.8555425,-0.1909654,12.1258,33.12186,1008.239
0.839303493,0.1428921,0.05742703,0.04688754,0.06554233,-0.5262176,-0.8516884,-0.1909654,12.1258,33.12186,1008.241
0.871863842,0.01983716,-0.1210158,-0.1367106,0.06062424,-0.5238141,-0.8598644,0.1657739,12.85865,33.56152,1008.241
0.904424667,0.01983716,-0.002053916,0.2304857,0.06360786,-0.527694,-0.8531592,-0.1966467,12.48961,33.11925,1008.234
0.939489841,-0.04169029,0.116908,0.04688754,0.06454431,-0.5247594,-0.8545654,-0.1966467,12.48961,33.11925,1008.234
0.972049713,-0.1647452,-0.06153485,0.1080869,0.0611108,-0.5242827,-0.862289,-0.1909654,12.1258,33.12186,1008.236
1.004605770,0.265947,0.116908,0.2304857,0.06306257,-0.523789,-0.8584163,-0.1909654,12.1258,33.12186,1008.236
1.039670944,-0.1647452,-0.1804967,0.1692863,0.0611227,-0.5214508,-0.8438774,-0.1909654,12.1258,33.12186,1008.236
1.072231770,-0.410855,-0.1210158,-0.07551125,0.05917018,-0.5228943,-0.8525984,0.5362947,12.49491,33.11687,1008.236
1.104792118,-0.2262726,0.2358698,-0.07551125,0.0616279,-0.5257582,-0.8569948,0.1811867,11.76464,33.12328,1008.238
1.137351990,0.2044195,-0.002053916,-0.01431186,0.06886118,-0.5193506,-0.8559373,0.1811867,11.76464,33.12328,1008.238
1.172417164,0.1428921,0.05742703,0.2916851,0.06405128,-0.5233277,-0.8501928,0.541976,12.13109,33.11948,1008.24
1.204973698,-0.5339099,-0.06153485,0.1692863,0.06259488,-0.5238305,-0.8506824,-0.202328,12.85342,33.11663,1008.24
1.237534046,-0.7800198,-0.1804967,0.04688754,0.06501155,-0.5237658,-0.8579345,-0.202328,12.85342,33.11663,1008.238
1.272599220,0.08136462,-0.1804967,-0.07551125,0.06060695,-0.5228313,-0.8622663,0.1755054,12.12845,33.12067,1008.24
1.305159092,1.250386,-0.1210158,0.1080869,0.06015256,-0.524324,-0.8560048,0.5346637,12.49232,32.6708,1008.24
1.337719441,1.373441,0.05742703,-0.1367106,0.06019766,-0.5282112,-0.8560641,0.5346637,12.49232,32.6708,1008.24
1.372784615,1.004277,0.116908,-0.19791,0.06112202,-0.5238276,-0.8555148,-0.202328,12.85342,33.11663,1008.24
1.405341148,0.6351117,0.05742703,-0.01431186,0.0630983,-0.5243298,-0.8463401,0.1698241,12.49226,33.11806,1008.241
1.437901497,0.4505294,0.2358698,-0.1367106,0.06258202,-0.5233313,-0.8535751,0.1698241,12.49226,33.11806,1008.243
1.472965717,-0.04169029,0.05742703,-0.07551125,0.06554113,-0.5262154,-0.8521718,0.1738744,12.12586,32.6746,1008.239
1.505526543,-0.5339099,-0.002053916,0.2304857,0.06017467,-0.5253156,-0.8516695,0.1625118,12.85349,32.66938,1008.241
1.538086891,-1.02613,-0.4184205,0.2304857,0.06690446,-0.5169816,-0.8481652,0.1625118,12.85349,32.66938,1008.241
1.570647240,-0.5339099,-0.2994586,0.1692863,0.05923023,-0.529187,-0.8580116,-0.1982775,12.48703,32.67318,1008.239
1.605708599,-0.4723825,-0.2994586,0.2916851,0.05429555,-0.5234239,-0.8569521,-0.1966467,12.48961,33.11925,1008.237
1.638268471,-0.2262726,-0.06153485,0.1080869,0.06065648,-0.5272023,-0.8628165,0.1755054,12.12845,33.12067,1008.236
1.670828819,0.3274744,0.116908,-0.01431186,0.06110111,-0.5228382,-0.8593667,0.1755054,12.12845,33.12067,1008.234
1.705893994,-0.04169029,0.2358698,-0.01431186,0.06154581,-0.519901,-0.8627059,0.1698241,12.49226,33.11806,1008.232
1.738454342,-0.1647452,0.2953508,-0.07551125,0.06696655,-0.5237535,-0.8550359,-0.1982775,12.48703,32.67318,1008.232
1.771014690,0.6966392,0.116908,-0.19791,0.0649933,-0.519452,-0.8448174,-0.1982775,12.48703,32.67318,1008.232
1.806075573,0.2044195,0.2358698,-0.07551125,0.06051059,-0.5121918,-0.8509862,-0.1966467,12.48961,33.11925,1008.232
1.838635921,0.3890019,-0.06153485,0.04688754,0.06112329,-0.5252567,-0.8618205,-0.1982775,12.48703,32.67318,1008.232
1.871196270,0.7581667,-0.1210158,0.1080869,0.06254782,-0.5208908,-0.8559547,-0.1982775,12.48703,32.67318,1008.23
1.906261444,0.8196941,0.05742703,-0.1367106,0.06452491,-0.5218703,-0.8487209,-0.202328,12.85342,33.11663,1008.23
1.938821793,0.3890019,0.3548317,0.1692863,0.06554233,-0.5262176,-0.8516884,-0.1925964,12.12322,32.67579,1008.23
1.971381664,0.5120568,0.2358698,-0.1367106,0.06516536,-0.5364126,-0.8552273,-0.1925964,12.12322,32.67579,1008.228
2.006443024,-0.5339099,-0.1210158,-0.07551125,0.06409594,-0.526263,-0.8458872,-0.1925964,12.12322,32.67579,1008.23
2.039003372,-1.395294,-0.2399777,0.1080869,0.06254744,-0.5213658,-0.8583788,-0.1909654,12.1258,33.12186,1008.23
2.071563721,-1.087657,-0.1210158,0.04688754,0.05723577,-0.5257978,-0.8608582,-0.1909654,12.1258,33.12186,1008.23
2.104124069,-0.7800198,-0.002053916,-0.2591094,0.05962495,-0.5209267,-0.8564358,0.1681933,12.48968,32.67199,1008.23
2.139188767,0.2044195,0.3548317,-0.07551125,0.06258406,-0.5238107,-0.8550325,0.1755054,12.12845,33.12067,1008.231
2.171749115,0.5735843,0.2358698,-0.01431186,0.0557648,-0.5234203,-0.8535698,0.1755054,12.12845,33.12067,1008.231
2.204305649,0.3890019,0.116908,-0.1367106,0.06601393,-0.5242807,-0.8487591,0.1755054,12.12845,33.12067,1008.231
2.239370823,0.1428921,0.05742703,-0.01431186,0.06409398,-0.5272106,-0.8512188,0.1755054,12.12845,33.12067,1008.231
2.271931171,0.01983716,-0.06153485,-0.1367106,0.06455273,-0.5247747,-0.8511821,0.1755054,12.12845,33.12067,1008.231
2.304491043,0.3890019,-0.1804967,0.1080869,0.06451815,-0.5228091,-0.8559859,-0.1982775,12.48703,32.67318,1008.227
2.339556217,0.5735843,-0.1210158,-0.1367106,0.06162302,-0.5243225,-0.8521391,0.541976,12.13109,33.11948,1008.229
2.372116566,0.4505294,-0.1210158,0.1692863,0.06070551,-0.5291943,-0.8522126,0.541976,12.13109,33.11948,1008.229
2.404673100,0.01983716,0.116908,0.2916851,0.06305205,-0.5218673,-0.8535532,0.1681933,12.48968,32.67199,1008.229
2.439738274,-0.2878001,-0.06153485,0.04688754,0.0669979,-0.5252376,-0.849258,0.5362947,12.49491,33.11687,1008.231
2.472298145,-0.410855,-0.1210158,-0.07551125,0.06214657,-0.5267611,-0.8487932,0.5362947,12.49491,33.11687,1008.231
2.504858494,-0.3493276,0.2953508,-0.1367106,0.06556336,-0.5300608,-0.8614146,-0.1966467,12.48961,33.11925,1008.232
2.537419319,-0.04169029,0.4737936,-0.19791,0.06986363,-0.5212925,-0.853551,0.1795559,11.76205,32.67721,1008.234
2.572484493,0.3274744,0.116908,0.04688754,0.0606153,-0.5214198,-0.8520939,0.1795559,11.76205,32.67721,1008.234
2.605040074,0.6351117,-0.2994586,0.1080869,0.06853285,-0.5320125,-0.8512964,0.1641428,12.85607,33.11545,1008.236
2.637600422,-0.1647452,-0.5373824,0.3528845,0.07037389,-0.52228,-0.8487328,-0.1982775,12.48703,32.67318,1008.236
2.672665596,-1.456822,-0.5968633,0.4140839,0.06110104,-0.5214112,-0.8525776,-0.1982775,12.48703,32.67318,1008.236
2.705225945,-1.272239,-0.1210158,0.1692863,0.06010739,-0.5190097,-0.8491564,-0.1925964,12.12322,32.67579,1008.236
2.737786770,0.2044195,0.2358698,-0.07551125,0.04944346,-0.5258972,-0.8613355,-0.1982775,12.48703,32.67318,1008.236
2.772850990,1.988716,0.8306792,-0.503907,0.05581764,-0.5296997,-0.8618831,-0.1982775,12.48703,32.67318,1008.232
2.805407524,2.542463,1.306527,-0.503907,0.06210876,-0.524314,-0.8526229,0.9043964,12.50014,33.56175,1008.236
2.837967873,1.496496,1.068603,-0.5651065,0.06986109,-0.5184342,-0.8409395,-0.1950157,12.4922,33.56532,1008.236
2.873033047,0.5735843,0.2953508,-0.2591094,0.07187457,-0.5251873,-0.8463617,-0.1950157,12.4922,33.56532,1008.232
2.905593872,0.5735843,-0.1804967,0.2304857,0.07042944,-0.5266619,-0.8468661,-0.1982775,12.48703,32.67318,1008.232
2.938153267,1.004277,-0.4184205,0.5364827,0.06117599,-0.5286823,-0.8565556,0.5362947,12.49491,33.11687,1008.232
2.970714092,0.3890019,-0.3589395,0.2304857,0.0626251,-0.5267394,-0.852177,0.5362947,12.49491,33.11687,1008.232
3.005774975,-0.7184923,-0.5968633,0.2916851,0.06257872,-0.5214229,-0.8458119,0.5346637,12.49232,32.6708,1008.232
3.038335800,-1.210712,-0.3589395,0.3528845,0.06552617,-0.52381,-0.8468179,0.1681933,12.48968,32.67199,1008.234
3.070896149,-0.9030747,-0.2399777,0.04688754,0.06264202,-0.5281971,-0.8521993,0.1681933,12.48968,32.67199,1008.229
3.105960369,-0.4723825,0.1763889,-0.1367106,0.05344734,-0.5350809,-0.8609962,-0.1966467,12.48961,33.11925,1008.229
3.138521194,-0.2262726,0.6522364,-0.4427077,0.05874893,-0.5296792,-0.8580186,0.1738744,12.12586,32.6746,1008.229
3.171081543,-0.1647452,0.3548317,-0.19791,0.0595939,-0.5175408,-0.8530005,0.1738744,12.12586,32.6746,1008.229
3.206142426,0.8196941,1.247046,-0.4427077,0.07526152,-0.5251033,-0.8550645,0.5346637,12.49232,32.6708,1008.229
3.238703251,3.034683,0.3548317,0.2916851,0.07282868,-0.5227605,-0.8429419,-0.1869149,11.75941,32.6784,1008.229
3.271263123,2.173298,-0.9537489,0.9036791,0.06942976,-0.5242495,-0.8458617,-0.1869149,11.75941,32.6784,1008.229
3.306327820,-1.641404,-0.8347871,0.2916851,0.06068296,-0.5272506,-0.8521829,0.1625118,12.85349,32.66938,1008.229
3.338888645,-1.272239,-0.5373824,0.1080869,0.05874975,-0.5301563,-0.8599594,-0.1852841,11.76199,33.12447,1008.229
3.371448994,-0.3493276,0.116908,-0.01431186,0.06063513,-0.5252608,-0.8623034,-0.1852841,11.76199,33.12447,1008.229
3.404005051,1.004277,0.1763889,0.2304857,0.05731058,-0.5302149,-0.8512582,0.1755054,12.12845,33.12067,1008.229
3.439069748,1.434969,0.2953508,0.04688754,0.06505215,-0.5257424,-0.850714,0.5403452,12.12851,32.67341,1008.229
3.471630573,2.173298,0.2358698,-0.01431186,0.06316962,-0.5315943,-0.8517681,-0.202328,12.85342,33.11663,1008.231
3.504190922,1.927188,0.3548317,-0.19791,0.05780633,-0.5297491,-0.8454509,-0.202328,12.85342,33.11663,1008.232
3.539256096,0.3890019,0.4737936,-0.19791,0.06473028,-0.5393674,-0.8480212,0.1625118,12.85349,32.66938,1008.234
3.571815968,-2.133624,0.3548317,-0.2591094,0.07189673,-0.5276059,-0.8488155,-0.1925964,12.12322,32.67579,1008.234
3.604372502,-2.933481,-0.06153485,-0.07551125,0.07512177,-0.5129578,-0.8543956,-0.1925964,12.12322,32.67579,1008.234
3.639437676,-1.456822,-0.4779014,0.4140839,0.07042824,-0.5266597,-0.8473495,0.5403452,12.12851,32.67341,1008.236
3.671998024,-1.087657,-1.072711,0.8424797,0.05740326,-0.5394208,-0.8571991,0.1625118,12.85349,32.66938,1008.236
3.704557896,-1.518349,-1.01323,0.5976821,0.05348509,-0.536101,-0.8503774,0.1625118,12.85349,32.66938,1008.236
3.739623070,-1.272239,-0.5373824,0.1080869,0.059184,-0.5267245,-0.8652245,-0.1942272,12.12063,32.22971,1008.238
3.772183418,2.542463,-0.2994586,-0.07551125,0.0620781,-0.5204531,-0.8467634,-0.1925964,12.12322,32.67579,1008.238
3.804739952,-0.6569648,-0.7753062,-0.6263058,0.06128582,-0.4923163,-0.8376325,-0.1925964,12.12322,32.67579,1008.235
3.837300301,-3.241118,0.7117173,-0.1367106,0.04070376,-0.5350943,-0.8943371,0.1649313,12.48451,31.77984,1008.235
3.872364998,3.896067,1.722893,-1.054702,0.100559,-0.5180715,-0.8327463,0.1681933,12.48968,32.67199,1008.235
3.904925346,5.618836,0.7117173,-0.6263058,0.002123489,-0.523026,-0.8800977,0.1681933,12.48968,32.67199,1008.235
3.937485695,16.20156,3.150436,1.515673,0.04906876,-0.5769436,-0.8592137,-0.1966467,12.48961,33.11925,1008.235
3.972550869,5.311199,2.496145,-0.07551125,0.09048769,-0.5284749,-0.8183939,0.5387142,12.12593,32.22734,1008.235
4.005107403,1.681079,-0.1210158,0.5364827,0.0511001,-0.5447847,-0.8712928,0.5387142,12.12593,32.22734,1008.235
4.037667274,3.280792,0.8901601,0.04688754,0.08366734,-0.5385459,-0.8673621,0.1641428,12.85607,33.11545,1008.235
4.072732449,4.818979,-0.2994586,0.7812803,0.06244541,-0.5449046,-0.812817,-0.203959,12.85084,32.67056,1008.235
4.105292797,1.927188,-0.7753062,0.7200809,0.06733527,-0.5524881,-0.8409733,-0.203959,12.85084,32.67056,1008.237
4.137853146,0.942749,-1.072711,0.5364827,0.06056226,-0.5545602,-0.8322976,-0.5720603,12.84561,32.22568,1008.237
4.172917843,-2.195151,-0.7158252,0.1692863,0.06040111,-0.5390463,-0.8243268,0.1551998,13.21471,32.22069,1008.233
4.205474377,-3.241118,-0.1804967,0.04688754,0.05896121,-0.5490915,-0.8636321,0.1551998,13.21471,32.22069,1008.235
4.238034725,0.6966392,0.2953508,-0.1367106,0.05895512,-0.5476534,-0.8592598,-0.5777416,13.20942,32.22307,1008.235
4.305660248,3.957594,0.8901601,-0.3203089,0.06872553,-0.5442548,-0.8306981,-0.2055898,12.84826,32.22449,1008.235
4.338220120,7.833824,2.674588,1.270876,0.05347051,-0.5332208,-0.8425995,-0.2080092,13.21723,33.11403,1008.235
4.370780468,6.603275,2.020298,0.5364827,0.068797,-0.5543731,-0.8497043,0.5233011,13.21994,32.66558,1008.235
4.405841827,4.511342,0.6522364,-0.3203089,0.06743669,-0.5598075,-0.8343178,0.5233011,13.21994,32.66558,1008.236
4.438402176,7.649242,2.436665,0.4752833,0.05755534,-0.5496864,-0.8438213,-0.5744798,13.21459,33.11521,1008.236
4.470962525,12.2638,3.685764,-0.5651065,0.07432321,-0.5665038,-0.8382936,-0.2153215,13.57846,32.66534,1008.236
4.506027222,11.03325,3.209917,-0.6263058,0.06760935,-0.5729645,-0.8263013,-0.2153215,13.57846,32.66534,1008.236
4.538587570,14.84795,5.351231,-1.360699,0.06916617,-0.5840598,-0.8400066,-0.2153215,13.57846,32.66534,1008.238
4.571147919,6.664803,5.529674,-2.707085,0.07162923,-0.5726651,-0.7740958,-0.2283146,14.3035,32.21405,1008.238
4.606209278,-12.22413,6.005521,-2.523487,0.07155796,-0.5668276,-0.7754569,-0.2283146,14.3035,32.21405,1008.238
4.638769150,-31.60528,4.577978,-4.237071,0.08856154,-0.563204,-0.775418,-0.9612558,14.2982,32.21643,1008.238
4.671329498,-46.12576,0.6522364,-4.726665,0.08109666,-0.5653837,-0.8513342,-0.9482627,13.57317,32.66772,1008.234
4.706394673,-27.42141,-1.01323,-0.2591094,0.07632532,-0.5438037,-0.9075555,-0.9482627,13.57317,32.66772,1008.234
4.738955021,-11.23969,-0.2399777,1.699271,0.04634104,-0.5198978,-0.9066784,-0.9425812,13.20936,32.67033,1008.234
4.771515846,12.87908,-3.57091,6.411624,0.03493166,-0.5486178,-0.9293409,-0.9255376,12.11792,32.67817,1008.232
4.804071426,54.96386,-4.82001,12.34797,0.09144806,-0.4956758,-0.8671989,-0.9255376,12.11792,32.67817,1008.232
4.839136600,50.22624,-4.046758,13.32716,0.03593537,-0.5263057,-0.8105742,-0.913228,11.32967,32.68382,1008.232
4.871696949,3.34232,-11.48187,12.77636,0.03614245,-0.5898849,-0.8294294,-0.211271,13.21207,32.22188,1008.232
4.904257297,6.603275,-7.139767,15.16314,0.05827497,-0.5510564,-0.7549016,-0.211271,13.21207,32.22188,1008.232
4.939321995,-9.393865,-9.578485,14.42875,0.05044707,-0.5971696,-0.7899173,-0.2169523,13.57588,32.21927,1008.232
4.971882343,-7.424985,-16.06191,13.93915,0.02693226,-0.573911,-0.7354016,0.1478875,13.57594,31.77201,1008.232
5.004438877,-3.487228,-13.68267,13.75555,0.06727144,-0.6216999,-0.7980419,0.1478875,13.57594,31.77201,1008.234
5.039504051,4.695924,-6.782881,17.67231,0.01489282,-0.6038027,-0.8223705,1.243249,13.95027,32.2119,1008.234
5.072064400,10.66409,-9.28108,16.87672,0.003722248,-0.6097094,-0.8379179,1.250561,13.58905,32.66059,1008.236
5.104624271,1.619551,-10.4707,14.18395,0.02679605,-0.5769914,-0.8060215,1.250561,13.58905,32.66059,1008.236
5.139689446,-4.471667,-8.210423,14.24515,-0.02064901,-0.5496357,-0.7591542,1.61782,13.22013,31.3238,1008.236
5.172249794,-11.4858,-8.269904,14.67354,-0.001737915,-0.5511449,-0.8002825,2.354023,13.23059,32.21356,1008.236
5.204806328,-9.947612,-2.024406,15.40794,-0.005066053,-0.5214282,-0.8249615,3.148043,13.23633,32.21098,1008.236
5.237366200,-20.65339,-5.176896,13.51075,0.0002198934,-0.5596988,-0.8371515,3.148043,13.23633,32.21098,1008.237
5.272431374,-19.792,-8.983675,12.34797,-0.02328568,-0.5535791,-0.8607209,3.146412,13.23375,31.76491,1008.233
5.304991722,-3.610283,-11.24395,12.77636,-0.05018236,-0.5527675,-0.902253,3.170768,11.78109,32.22143,1008.233
5.337552548,13.18671,-14.03956,10.51198,-0.0809091,-0.537858,-0.8493078,3.170768,11.78109,32.22143,1008.233
5.372711659,21.55445,-11.18447,8.798401,-0.06722753,-0.5420468,-0.850835,3.531558,12.14754,32.21763,1008.233
5.405268192,44.7503,-9.519004,8.920799,-0.08698454,-0.5583817,-0.8423644,4.255556,12.51148,31.3205,1008.235
5.437827587,51.7029,-8.269904,8.186407,-0.08516051,-0.5804285,-0.7987152,4.255556,12.51148,31.3205,1008.233
5.472892761,38.90519,-9.87589,8.492404,-0.08946215,-0.6210049,-0.7592099,5.343605,13.24704,31.31171,1008.233
5.505453587,24.01555,-14.63436,11.18518,-0.08481385,-0.6442626,-0.7615027,4.956829,14.33066,30.41292,1008.233
5.538013935,20.01626,-17.25153,12.59276,-0.09969361,-0.6643531,-0.7680787,4.956829,14.33066,30.41292,1008.233
5.573079109,17.98586,-10.41122,11.12398,-0.1546144,-0.6752484,-0.7739924,5.672726,15.42739,30.40271,1008.232
5.605634689,26.04595,-14.15852,9.349195,-0.172874,-0.6579181,-0.7896619,6.405667,15.43268,30.40033,1008.233
5.638195515,25.79984,-18.97647,5.126437,-0.1880151,-0.6475677,-0.7580699,6.405667,15.43268,30.40033,1008.233
5.670755863,39.95116,-12.73097,-0.8711034,-0.1753585,-0.6388344,-0.7187953,7.127246,16.1656,30.39273,1008.233
5.705821037,46.84223,-11.7198,-3.625076,-0.1516633,-0.6609956,-0.6940207,7.471779,17.25193,29.04549,1008.235
5.738380909,36.19798,-7.972499,-5.093862,-0.1650534,-0.7143571,-0.6479343,7.471779,17.25193,29.04549,1008.235
5.770941257,21.92361,-4.225201,-5.155061,-0.1185075,-0.7447158,-0.6784118,7.451707,18.33856,28.20924,1008.235
5.806002140,23.03111,-0.2399777,-2.033892,-0.1406846,-0.7140791,-0.6392528,7.444394,18.69979,27.76056,1008.234
5.838562965,11.46394,2.258222,-0.1367106,-0.1483673,-0.7248422,-0.6456935,7.444394,18.69979,27.76056,1008.234
5.871123314,19.89321,2.496145,0.2916851,-0.1384796,-0.742109,-0.6677184,7.428982,19.79381,28.1988,1008.234
5.906187534,49.98013,-3.332987,3.412854,-0.05858563,-0.7710953,-0.7968161,7.421669,20.15503,27.75011,1008.233
5.938748360,64.31603,1.366008,1.82167,-0.2331764,-0.7228902,-0.4643155,7.421669,20.15503,27.75011,1008.234
5.971308708,26.78428,-1.608039,-1.605496,-0.2137579,-0.8194417,-0.551365,7.412726,20.51368,26.85536,1008.234
6.006370068,21.43139,3.566802,-5.889454,-0.1700566,-0.8604429,-0.6008537,7.385108,21.96117,25.5067,1008.234
6.038929462,23.40027,2.079779,-5.399859,-0.1474887,-0.8680682,-0.5695724,7.385108,21.96117,25.5067,1008.234
6.071490288,13.06366,2.436665,-4.481868,-0.1443269,-0.8404632,-0.5391849,7.372115,22.68621,25.0554,1008.236
6.104050636,9.987285,1.782374,-2.033892,-0.1143598,-0.7788386,-0.5382736,7.363172,23.04485,24.16065,1008.238
6.139115810,6.664803,1.128084,-1.544297,-0.1434828,-0.8188109,-0.4890676,7.363172,23.04485,24.16065,1008.236
6.171676159,-5.640689,0.9496411,-1.054702,-0.1314938,-0.8596377,-0.5607585,7.359121,23.41125,24.60411,1008.236
6.204232216,-23.60671,1.603931,-1.605496,-0.1337676,-0.8257747,-0.5326871,6.620499,23.76977,24.60388,1008.232
6.239297390,-26.68308,5.410711,-0.9935022,-0.1485724,-0.8003988,-0.4911987,6.620499,23.76977,24.60388,1008.233
6.271857739,-43.60313,9.693339,0.7200809,-0.1378769,-0.7660392,-0.5346721,6.623761,23.77493,25.49602,1008.233
6.304418087,-73.19784,12.66739,3.963649,-0.1319253,-0.7300697,-0.518661,6.640804,22.6835,25.50385,1008.233
6.339482784,-121.9891,8.50372,8.614802,-0.05853431,-0.6932442,-0.6037277,6.640804,22.6835,25.50385,1008.233
6.372130871,-109.499,-1.66752,13.14356,-0.1408725,-0.6900107,-0.8013,6.290589,21.96098,26.84848,1008.233
6.404687405,-84.70347,-9.043157,13.69435,-0.1751914,-0.7147064,-0.8127614,6.332832,19.79103,29.09451,1008.233
6.439752579,-88.70275,-22.9617,10.51198,-0.2685347,-0.644493,-0.8096666,6.332832,19.79103,29.09451,1008.233
6.472313404,-94.8555,-30.87266,7.819211,-0.2862922,-0.624806,-0.8078989,7.480723,16.89328,29.94025,1008.232
6.504872799,-91.16385,-30.39681,3.84125,-0.2209636,-0.5519158,-0.8315021,7.890224,14.35442,30.84948,1008.233
6.537433624,-58.06208,-29.02875,3.657652,-0.1371256,-0.4223075,-0.9828362,7.890224,14.35442,30.84948,1008.233
6.572498799,12.75602,-12.43357,-1.544297,-0.1083759,-0.3682806,-0.9182339,8.294044,12.17937,31.7561,1008.235
6.605054855,32.1987,-3.868315,-8.39863,-0.2694847,-0.4474479,-0.8578974,9.432541,9.577415,31.32518,1008.235
6.637614727,20.69306,1.247046,-12.00939,-0.2124602,-0.4885984,-0.8368283,9.432541,9.577415,31.32518,1008.235
6.672679901,22.16972,5.708116,-8.704627,-0.1551692,-0.5506868,-0.8064113,9.421178,10.30504,31.31996,1008.233
6.705240727,15.46323,9.990745,-5.705856,-0.2295817,-0.5537251,-0.7793167,9.774656,11.03272,30.86747,1008.233
6.737801075,11.09478,12.13206,-6.807445,-0.2149662,-0.5521209,-0.7696388,9.774656,11.03272,30.86747,1008.235
6.772866249,1.927188,14.33285,-6.31785,-0.2404812,-0.5929441,-0.8427435,9.398453,11.76028,31.30951,1008.233
6.805421829,-0.1032177,9.455416,5.677232,-0.5069734,-0.6792943,-0.8935915,8.664565,11.81562,31.31145,1008.233
6.837982178,-8.04026,21.88693,31.87057,-0.6550744,-0.702555,-1.22395,8.664565,11.81562,31.31145,1008.235
6.873047352,-89.74872,-140.7934,43.62086,-0.9291631,-0.9584581,-1.204871,7.936621,11.3833,30.87081,1008.235
6.905608177,72.3146,-12.9689,-1.666695,-0.9099402,-1.305276,-0.7688574,8.669562,11.38859,30.86843,1008.235
6.938168049,23.03111,-64.06303,-20.69971,-0.6340249,-0.8281333,-0.38046,9.446322,8.480816,30.44087,1008.235
6.970728397,26.66123,-57.52012,-13.66178,-0.2875563,-0.6602132,-0.2965418,9.446322,8.480816,30.44087,1008.235
7.005789280,-71.59812,-48.8359,-53.44138,-0.4333797,-1.189071,-0.9082072,9.802452,8.839895,29.16258,1008.235
7.038350105,84.00482,-57.2822,-87.10105,-0.3238066,-1.300636,-0.6441578,10.19733,7.023488,29.17445,1008.235
7.070909977,37.67464,-60.49417,-91.07902,-0.3512387,-0.6280591,-0.4946577,10.19733,7.023488,29.17445,1008.235
7.105974674,-41.01898,-83.98914,-118.8635,-0.380812,-0.7217932,-0.4873584,8.742809,6.28528,29.18442,1008.233
7.138535500,1.373441,-80.0634,-129.5122,-0.44717,-0.6787121,-0.5320745,9.120409,5.559935,29.12473,1008.233
7.171095848,28.19941,-93.92245,-121.7399,-0.4470412,-0.4542604,-0.406356,9.120409,5.559935,29.12473,1008.232
7.206156731,7.280077,-99.51366,-103.1965,-0.3248465,-0.308671,-0.3298127,8.800231,3.020946,30.92849,1008.232
7.238716602,17.8628,-99.0973,-80.79752,-0.3371946,-0.2211094,-0.3821197,11.00232,3.041993,31.8135,1008.226
7.271277428,15.52476,-104.5101,-48.48423,-0.3230293,-0.03959911,-0.4973082,11.00232,3.041993,31.8135,1008.224
7.306342602,-13.88537,-96.83702,-6.31785,-0.2675301,0.1292367,-0.6987709,12.83388,3.426785,33.14315,1008.224
7.338902950,-24.0374,-107.6626,24.46545,-0.3143384,0.2565684,-0.5126166,16.12402,4.183393,34.01938,1008.224
7.371462822,-108.9453,-110.3392,30.58539,-0.1875674,0.01610792,-0.6019652,16.12402,4.183393,34.01938,1008.224
7.404019356,-100.0853,-91.66218,45.94643,-0.1749068,-0.1329028,-0.7149441,18.33094,3.466486,33.12532,1008.222
7.439084053,-101.2544,-97.31287,62.10308,-0.3310798,-0.1560611,-0.5599827,21.68031,0.2160115,33.13813,1008.222
7.471644878,-127.5266,-89.58035,70.2426,-0.2408569,-0.2459252,-0.7383566,21.68031,0.2160115,33.13813,1008.222
7.504204750,-123.6504,-62.39756,76.05654,-0.4503726,-0.2693455,-0.8902921,23.63865,-4.141209,32.27118,1008.222
7.539269924,-117.4976,-48.30057,75.87294,-0.6460218,-0.2582924,-0.7831084,25.93742,-10.73972,31.41933,1008.222
7.571830273,-66.42982,-50.79877,68.71261,-0.8990976,-0.1739639,-0.7085876,25.93742,-10.73972,31.41933,1008.222
7.604386807,-40.03454,-50.26344,67.67222,-0.9864091,0.05366258,-0.676028,26.02366,-16.56808,30.18662,1008.222
7.639451027,-61.07693,-65.19316,58.98191,-0.993295,0.157747,-0.6062772,26.44205,-20.21128,28.87333,1008.224
7.672011852,-59.35416,-84.64343,58.18631,-1.06845,0.2088578,-0.6252434,26.44205,-20.21128,28.87333,1008.224
7.704572201,-60.27707,-103.7368,54.08596,-1.036276,0.2828758,-0.4588304,26.12346,-23.49339,28.00587,1008.222
7.739637375,-41.63425,-101.9524,36.15453,-0.9844727,0.1254706,-0.5376554,25.77965,-25.69699,24.90023,1008.222
7.772197723,-22.86838,-108.0194,24.22065,-1.054014,0.09871253,-0.6235541,25.77965,-25.69699,24.90023,1008.223
7.804753303,-21.08408,-105.6402,15.95873,-1.03941,0.1668665,-0.5002341,26.16569,-27.58953,22.2361,1008.225
7.837314129,-21.88394,-111.5883,-10.90781,-1.061941,-0.1186393,-0.5176193,25.7945,-28.34526,17.84551,1008.227
7.872379303,3.34232,-100.049,-9.500219,-1.029338,-0.2245435,-0.4351589,25.7945,-28.34526,17.84551,1008.229
7.904939651,18.41655,-76.73247,16.20353,-1.176596,-0.2384041,-0.3748062,26.53712,-29.81587,14.285,1008.229
7.937499523,40.01268,-90.53204,5.493634,-1.30282,-0.0175474,-0.3543967,27.99401,-30.19234,10.26821,1008.226
7.972564697,-25.51406,-65.90694,-14.82457,-1.269177,0.08400574,-0.2533042,27.99401,-30.19234,10.26821,1008.228
8.005121231,-83.53445,-59.95884,-33.67398,-1.157359,-0.1925271,-0.2556975,28.72471,-30.5634,8.101809,1008.229
8.037681580,-73.69006,-27.24432,-29.20642,-0.9748295,-0.362911,-0.3121279,30.54807,-30.93723,4.08383,1008.233
8.072745800,-2.318206,-29.80201,-22.16849,-0.8767768,-0.1947643,-0.2419845,30.54807,-30.93723,4.08383,1008.233
8.105306625,-12.77787,-18.14374,-13.17218,-0.7456059,-0.08036115,-0.2282813,31.99522,-30.58349,0.5078878,1008.229
8.137866974,15.52476,5.767597,-12.19299,-0.809869,-0.04323053,-0.2411874,33.43777,-29.49144,-1.225264,1008.231
8.172932148,1.250386,6.183964,-0.01431186,-0.8646665,0.2297321,-0.03975231,33.43777,-29.49144,-1.225264,1008.234
8.205487728,-50.86337,29.85738,9.165597,-1.034543,0.1380894,-0.03953635,34.53289,-29.11747,-0.8490934,1008.236
8.238048554,-63.35344,8.860606,26.66862,-1.154111,0.1494428,0.1125326,35.61223,-28.0229,-1.688912,1008.236
8.273113728,-36.83511,-7.199248,54.14716,-1.105672,0.2194526,0.1391729,35.61223,-28.0229,-1.688912,1008.239
8.305674076,-75.78199,-8.745751,52.00518,-1.248222,0.2197426,0.2007038,35.97786,-28.39439,-3.471778,1008.239
8.338234425,-105.1306,-8.924194,12.40917,-0.9706505,-0.5704672,-0.1881704,35.60892,-28.77376,-5.698338,1008.243
8.370933056,-76.0281,-33.48982,19.93669,-1.011667,-0.581202,-0.08340183,35.60892,-28.77376,-5.698338,1008.245
8.405993939,-9.209282,-21.11779,27.21942,-0.9775589,0.06002614,0.1883383,36.34343,-29.51159,-8.371925,1008.245
8.438553810,-62.55359,5.291749,4.024848,-1.178797,0.01816547,-0.05234439,35.97286,-29.89355,-11.04456,1008.242
8.471114159,36.6902,-3.57091,27.77021,-2.228696,0.1079116,-0.7759938,35.97286,-29.89355,-11.04456,1008.242
8.506179333,3.157737,-14.39644,19.3859,-0.5808136,0.3095415,0.1091046,35.59908,-29.53497,-11.49205,1008.245
8.538740158,-53.50905,-9.102637,1.82167,-0.8055601,0.1076191,0.04920248,34.87042,-29.90628,-11.86941,1008.247
8.571300507,-45.57201,1.484969,-5.889454,-1.111643,0.06710474,-0.04102828,34.87042,-29.90628,-11.86941,1008.247
8.606360912,-19.48437,-3.927796,-5.644657,-1.076722,-0.1154947,0.0272086,34.87875,-30.6387,-12.69261,1008.249
8.638921261,11.34089,1.247046,-2.095091,-0.969031,0.1327556,0.03814271,34.84708,-28.82481,-13.59781,1008.25
8.671482086,-8.28637,3.923688,-3.25788,-0.9711322,0.1007241,0.022188,34.84708,-28.82481,-13.59781,1008.252
8.706546784,-3.302645,3.745245,-6.195451,-1.0089,0.03473465,-0.002951149,35.21923,-29.18598,-13.59638,1008.252
8.739106655,-4.533195,4.934864,-8.949425,-1.000879,0.1046968,0.02517758,35.21597,-29.19114,-14.48853,1008.254
8.771667480,-15.23897,8.325278,-11.1526,-0.9967965,0.08395459,0.002621854,34.84708,-28.82481,-13.59781,1008.254
8.804223537,0.2044195,13.08375,-10.47941,-0.986844,-0.02701531,-0.04065116,34.84708,-28.82481,-13.59781,1008.253
8.839288712,26.41512,19.74562,-8.582228,-0.9820442,0.03066894,0.006145061,35.20624,-28.46094,-14.04768,1008.253
8.871848583,20.20084,24.68254,-9.561419,-0.9791405,0.07015994,-0.01259032,35.93839,-28.08409,-12.71445,1008.255
8.904409409,8.449099,24.38513,-11.0302,-0.9914299,0.02460948,-0.07707915,35.93839,-28.08409,-12.71445,1008.258
8.939474106,-4.225557,22.3033,-7.480639,-1.008108,0.02889643,-0.1055169,36.30789,-28.07664,-11.88722,1008.258
8.972034931,0.5120568,17.6043,-5.889454,-0.9906861,-0.03857849,-0.07369348,37.40629,-27.69751,-10.61891,1008.26
9.004590511,12.14075,19.98354,-4.114672,-0.9778314,-0.02027457,-0.107263,37.40629,-27.69751,-10.61891,1008.264
9.039655685,20.13932,19.92406,-2.156291,-0.9919892,0.02140615,-0.1220815,38.13923,-27.69222,-10.62128,1008.265
9.072216034,4.265232,14.21389,-3.502677,-0.9971361,0.0451544,-0.1221976,38.14249,-27.68705,-9.72914,1008.267
9.104776859,-0.8415473,11.41829,-5.950654,-0.9993868,-0.006524129,-0.09349788,38.14249,-27.68705,-9.72914,1008.267
9.139841080,6.603275,12.36998,-6.685046,-0.9927959,-0.003168151,-0.1707933,38.13844,-27.32066,-9.285679,1008.267
9.172401428,11.40242,10.22867,-7.235841,-0.9886388,-0.02261965,-0.1565928,38.50491,-27.31801,-9.286868,1008.267
9.204957962,4.880507,7.254621,-7.847835,-1.012316,0.04653835,-0.149231,38.50491,-27.31801,-9.286868,1008.267
9.237518787,-9.824556,2.198741,-8.643428,-0.9940353,-0.05918299,-0.1474779,39.60516,-26.93593,-7.508758,1008.267
9.272583008,3.34232,2.853031,-6.073052,-0.9959191,-0.02608769,-0.1629226,38.86559,-26.51678,-7.509427,1008.267
9.305143356,4.880507,0.7711983,-6.195451,-1.005015,-0.04076143,-0.1684548,38.86559,-26.51678,-7.509427,1008.269
9.337704182,0.3890019,-3.154544,-2.278689,-0.9737903,-0.03713609,-0.1283094,39.23869,-26.93858,-7.507569,1008.271
9.372769356,-12.53176,-4.938972,-1.115901,-0.984807,-0.01341569,-0.1390545,39.60516,-26.93593,-7.508758,1008.271
9.405325413,-7.671095,-4.284682,1.148477,-0.9705492,-0.06859639,-0.1476442,39.60516,-26.93593,-7.508758,1008.271
9.437885285,3.526902,-3.927796,2.617262,-0.9961355,-0.004289904,-0.1476051,39.9577,-26.14761,-7.961676,1008.271
9.472950459,-8.717062,-4.106239,2.127667,-0.9749889,-0.01818954,-0.1299527,39.59364,-26.51923,-8.850019,1008.272
9.505511284,-5.456107,-3.57091,2.066468,-0.9729025,-0.03030748,-0.1311063,39.59364,-26.51923,-8.850019,1008.272
9.538071633,-0.5339099,-0.4779014,3.229256,-0.9905575,-0.01936895,-0.1289889,39.23543,-26.94374,-8.399713,1008.272
9.573135853,-3.302645,0.05742703,1.148477,-0.9883356,-0.003728772,-0.1418036,39.22717,-26.52188,-8.848831,1008.272
9.605692387,5.126616,0.4737936,0.4140839,-0.9872249,-0.01347821,-0.1322859,39.22717,-26.52188,-8.848831,1008.272
9.638253212,1.065804,-0.8347871,0.1080869,-0.9934529,-0.02135728,-0.1275663,38.4926,-26.52975,-9.292525,1008.276
9.670813561,5.372726,-0.1210158,0.1080869,-0.9823484,-0.01532978,-0.1386027,39.23217,-26.94891,-9.291857,1008.276
9.705877781,3.465375,1.484969,-0.9935022,-0.9934955,-0.01890136,-0.1333293,39.23217,-26.94891,-9.291857,1008.272
9.738438606,4.572869,1.722893,-1.911493,-0.9806137,0.007913773,-0.1150477,38.86733,-26.94897,-8.844596,1008.272
9.770998955,-5.086942,1.128084,-2.033892,-0.9908647,-0.03587423,-0.1340742,39.60921,-27.30232,-7.952218,1008.272
9.806059837,5.926473,1.782374,-1.483097,-0.9850141,-0.03723818,-0.1379676,39.60921,-27.30232,-7.952218,1008.276
9.838619709,6.357165,1.841855,-1.483097,-0.9954397,-0.01893335,-0.1318778,38.86396,-26.51936,-7.955498,1008.273
9.871180534,8.63368,0.5332745,-1.299499,-0.9799976,-0.008486508,-0.1404341,38.49181,-26.1582,-7.956921,1008.275
9.906245232,6.418693,0.7117173,-0.1367106,-1.001504,-0.04185583,-0.1317383,38.49181,-26.1582,-7.956921,1008.275
9.938806057,5.926473,0.9496411,-0.3203089,-0.9835184,-0.03728287,-0.1239518,39.2288,-26.5193,-8.40276,1008.275
9.971365929,10.9102,2.020298,-0.1367106,-0.9744371,-0.02448463,-0.1334329,39.22312,-26.15549,-8.40537,1008.275
10.006426811,1.434969,-0.1804967,-0.07551125,-1.001809,-0.0194205,-0.149764,39.22312,-26.15549,-8.40537,1008.275
10.038987160,8.818263,-0.5373824,0.8424797,-0.9667867,-0.01794314,-0.1604096,39.23869,-26.93858,-7.507569,1008.273
10.071547985,15.58628,0.9496411,4.330845,-0.9732365,-0.007819401,-0.1607323,39.58717,-25.78386,-7.517026,1008.275
10.104107857,1.188859,0.4737936,5.554833,-0.9946354,-0.03948243,-0.09980581,39.58717,-25.78386,-7.517026,1008.275
10.139172554,6.172583,2.734069,7.452014,-0.9806699,-0.07748268,-0.1463198,39.60679,-26.93335,-7.062685,1008.275
10.171733379,13.67893,4.756421,8.8596,-0.9634593,-0.004908811,-0.1316947,38.87385,-26.93864,-7.060308,1008.275
10.204289913,1.619551,5.232269,9.349195,-0.9854879,-0.03584174,-0.1258615,38.87385,-26.93864,-7.060308,1008.275
10.239354134,6.111055,5.529674,9.716392,-0.9959767,-0.01979944,-0.1565427,38.51307,-27.3051,-7.056508,1008.275
10.271914482,10.60256,8.206316,10.32839,-0.9612799,-0.03336745,-0.1727346,38.51633,-27.29993,-6.164364,1008.275
10.304475308,18.97029,9.574378,11.36878,-1.017021,-0.01750228,-0.1874235,38.51633,-27.29993,-6.164364,1008.275
10.339540482,13.24824,5.172788,9.655192,-1.04102,0.03612885,-0.1865821,38.14986,-27.30258,-6.163176,1008.277
10.372099876,18.72418,1.068603,7.635612,-0.9140429,0.04988771,-0.1763438,38.53095,-28.02239,-5.266998,1008.279
10.404656410,5.557308,3.150436,4.82044,-0.9930952,0.1047559,-0.1778473,38.53095,-28.02239,-5.266998,1008.279
10.439721584,-3.4257,0.2953508,-0.9323028,-1.017448,0.06312542,-0.1774922,38.17179,-28.38626,-4.817127,1008.279
10.472282410,-0.6569648,-2.91662,0.7200809,-0.9560698,-0.02018904,-0.1701217,37.81831,-29.11395,-4.364644,1008.279
10.504841805,11.34089,-7.794056,5.493634,-1.007812,-0.05862433,-0.202561,37.811,-28.75272,-4.813327,1008.279
10.537402630,26.72275,-8.864714,12.77636,-1.010781,0.06776991,-0.217548,37.811,-28.75272,-4.813327,1008.28
10.572467804,-3.302645,-16.00243,8.553603,-0.9654379,-0.07373041,-0.07328739,37.824,-29.47776,-4.362032,1008.282
10.605023861,6.48022,-9.162118,13.44955,-0.9980721,0.09257814,-0.07990279,36.73026,-29.84951,-4.355855,1008.282
10.637583733,10.41798,-5.950148,6.962419,-0.9614038,-0.07065914,-0.2018227,36.73026,-29.84951,-4.355855,1008.282
10.672648907,9.741175,-10.64914,16.93792,-0.9615006,0.04640734,-0.08209261,36.72863,-29.85209,-4.801927,1008.282
10.705209732,25.30762,0.8306792,10.20599,-1.000235,0.1385488,-0.1483222,36.36216,-29.85474,-4.800738,1008.282
10.737770081,34.16758,-4.879491,11.55237,-1.049651,0.1093797,-0.1811058,36.36216,-29.85474,-4.800738,1008.282
10.772834301,14.60184,-10.05433,9.226796,-0.964528,0.08598257,-0.1361075,36.37111,-30.21338,-3.905983,1008.28
10.805390835,5.741891,-8.448347,5.187637,-1.033815,0.05685666,-0.128751,35.27006,-30.22391,-4.348489,1008.28
10.837951183,2.60399,-13.02838,7.819211,-1.015648,0.0040794,-0.1203895,35.27006,-30.22391,-4.348489,1008.28
10.873016357,8.387571,-17.19205,10.63438,-0.989213,-0.008198164,-0.1235026,34.9109,-30.58778,-3.898617,1008.28
10.905576229,9.248956,-14.09904,11.12398,-1.069372,0.05260696,-0.1510168,35.28874,-31.31276,-3.894584,1008.28
10.938137054,20.38543,-15.7645,12.28677,-1.119602,0.05779701,-0.1537894,35.28874,-31.31276,-3.894584,1008.282
10.970697403,15.83239,-16.24035,13.14356,-1.108775,0.132764,-0.1492725,34.91496,-30.95417,-4.342078,1008.282
11.005758286,8.87979,-8.805232,13.32716,-1.021618,0.1462772,-0.09259536,34.19743,-32.05348,-4.777939,1008.282
11.038318157,15.95545,4.518497,8.981998,-0.9295266,0.1473696,-0.06898212,34.19743,-32.05348,-4.777939,1008.282
11.070878506,18.84724,12.90531,1.332075,-0.8696486,0.1249307,0.01327519,33.11669,-33.15027,-4.320467,1008.28
11.105943680,23.70791,17.18794,-7.725436,-0.8801634,0.110161,0.02466105,32.76079,-33.50898,-2.978451,1008.28
11.138504505,21.12375,11.41829,-17.27254,-0.8947392,0.0647834,0.02204932,32.76079,-33.50898,-2.978451,1008.278
11.171064377,16.44767,3.269398,-18.31293,-0.9128152,0.1036012,-0.01552779,32.76242,-33.5064,-2.532379,1008.278
11.206125259,1.742606,-4.106239,-15.31416,-0.9336555,0.08459962,-0.06461862,32.38357,-32.41023,-1.264533,1008.278
11.238685608,-1.764459,-3.630391,-7.664237,-0.9663613,-0.01211687,-0.1579042,32.38357,-32.41023,-1.264533,1008.278
11.271246433,5.434253,-1.905444,2.678462,-0.9890744,0.01432263,-0.158929,33.48563,-32.7709,-2.093907,1008.278
11.306310654,-7.486513,0.6522364,10.81798,-1.022347,0.0731034,-0.1415653,33.84377,-32.03584,-1.271899,1008.278
11.338871002,-18.62298,2.13926,14.36755,-0.9985756,0.04319391,-0.1227095,33.84377,-32.03584,-1.271899,1008.278
11.371431828,-19.60742,8.563202,18.7739,-0.9939221,0.06124923,-0.1253388,33.48158,-32.4045,-1.650446,1008.276
11.406492710,-21.69935,19.09133,18.7739,-1.099765,0.07160787,-0.1415134,33.47427,-32.04328,-2.09913,1008.276
11.439052582,-16.34647,19.03185,8.8596,-1.137917,0.08711901,-0.1349561,33.47427,-32.04328,-2.09913,1008.276
11.471612930,-18.74604,21.11368,3.718851,-1.057587,0.009355438,-0.118335,33.12484,-33.13736,-2.090108,1008.276
11.504173756,3.649957,15.04662,-2.033892,-1.001911,0.04396744,-0.08885811,32.03275,-33.50652,-1.637857,1008.276
11.539238930,8.449099,8.206316,-5.216261,-0.9135612,0.1188118,-0.04913139,32.03275,-33.50652,-1.637857,1008.275
11.571798325,15.27865,9.276973,-3.441478,-0.8777598,0.1330234,-0.07891849,32.02846,-33.1405,-1.258121,1008.275
11.604354859,17.8628,14.33285,0.1692863,-0.9142861,0.1586605,-0.1563158,31.67094,-33.50179,-0.3621788,1008.275
11.639420033,-1.272239,22.95759,4.514443,-1.020329,0.1774686,-0.2139317,31.67094,-33.50179,-0.3621788,1008.276
11.671980381,-17.51549,39.49329,10.57318,-1.243472,0.1234741,-0.3083152,30.94126,-33.50192,0.5323429,1008.276
11.704540253,-41.57272,35.50807,14.61234,-1.422583,0.1447091,-0.3609898,30.93153,-32.77171,0.9731922,1008.276
11.739605427,-24.22198,38.36316,28.50461,-1.281013,0.1909721,-0.4024744,30.93153,-32.77171,0.9731922,1008.276
11.772166252,19.2164,32.65298,38.35771,-1.252035,0.1043867,-0.5159667,30.57642,-33.50198,0.9796038,1008.276
11.804722309,84.8662,43.538,34.99174,-1.226774,0.04971023,-0.6033497,28.75301,-33.87386,1.880302,1008.272
11.839787006,132.673,30.63063,23.97585,-1.088315,0.1912938,-0.6670626,28.75301,-33.87386,1.880302,1008.272
11.872347355,143.1327,43.65696,13.69435,-1.0705,0.4802608,-0.5698628,26.58833,-35.3269,5.020382,1008.27
11.904908180,77.54443,39.55277,-16.41575,-1.146238,0.3886037,-0.510766,24.40642,-34.94318,11.20619,1008.27
11.937468529,44.99641,47.93959,-44.13908,-1.005977,0.2526328,-0.5608301,24.40642,-34.94318,11.20619,1008.272
11.972532749,41.92003,58.34875,-50.07542,-1.067214,0.195551,-0.5814603,22.9317,-33.10372,16.55075,1008.272
12.005089283,68.80753,58.94356,-53.68618,-1.039502,0.08201095,-0.5435824,22.11236,-30.5399,20.48597,1008.272
12.037649632,88.4348,80.77306,-49.83062,-0.9572703,0.09075243,-0.7325287,22.11236,-30.5399,20.48597,1008.272
12.072714806,99.01752,79.1076,-54.48177,-0.9398993,0.162082,-0.657984,22.09053,-27.96481,25.37449,1008.272
12.105274677,98.89446,88.92195,-60.72411,-0.8253697,0.1410419,-0.7256049,22.86988,-26.05614,29.37307,1008.269
12.137835503,110.5847,92.96665,-63.72289,-0.7738909,0.1448194,-0.7671674,22.86988,-26.05614,29.37307,1008.267
12.172900200,119.4446,99.688,-50.01422,-0.6760815,0.2920636,-0.6968592,23.19719,-23.13305,31.07155,1008.265
12.205456734,117.1681,103.7922,-34.65317,-0.5817701,0.398579,-0.6576219,23.15826,-20.21223,32.83495,1008.265
12.238016605,88.49632,100.7587,-19.90412,-0.490176,0.4153792,-0.5631955,20.8294,-15.49126,34.14655,1008.263
12.273081780,77.29832,102.3052,-3.502677,-0.3723981,0.190972,-0.4690907,20.8294,-15.49126,34.14655,1008.26
12.305642128,83.57413,109.5024,20.36509,-0.1895202,0.1258472,-0.4794449,19.67807,-11.85334,35.46222,1008.258
12.338202953,83.45107,129.0121,40.56089,-0.3245431,0.118691,-0.3624466,15.97359,-9.333137,35.45583,1008.255
12.370762825,73.54515,120.9227,47.35402,-0.5198196,-0.08236209,-0.316021,15.97359,-9.333137,35.45583,1008.255
12.405823708,64.2545,99.9854,53.77996,-0.5749714,-0.1801814,-0.2323858,12.24218,-5.302217,34.54642,1008.25
12.438384056,43.21211,82.14112,55.24874,-0.5096068,-0.3139705,-0.2291729,8.909861,-3.143173,34.54145,1008.246
12.470944882,28.99927,58.58667,56.22794,-0.565578,-0.3707621,-0.08593898,8.909861,-3.143173,34.54145,1008.243
12.506009102,-7.363458,20.69731,49.0676,-0.6018131,-0.6092886,-0.1064613,6.672056,-0.9839382,33.1947,1008.245
12.538569451,-0.7184923,-29.2072,41.84608,-0.6700398,-0.7368446,0.06567422,5.917178,0.09445143,31.85103,1008.245
12.571130276,19.46251,-75.48337,29.3002,-0.7077045,-0.8866187,0.08227726,5.917178,0.09445143,31.85103,1008.242
12.606191158,63.39312,-126.8154,14.18395,-0.6925882,-0.9776668,0.05477126,6.265762,0.8143868,30.06033,1008.24
12.638751030,105.0472,-160.2437,16.32593,-0.6151525,-0.8251801,-0.01645037,8.064206,2.265152,26.98516,1008.24
12.671311379,-1.149184,-45.50497,-74.55518,0.2224876,-1.486672,-2.190462,8.064206,2.265152,26.98516,1008.236
12.706376553,166.4516,-48.06265,-71.5564,-1.178457,-2.463271,-1.573202,10.5921,3.715676,22.95175,1008.236
12.738937378,186.5096,-23.43754,3.780051,-1.59543,0.2157209,0.1966272,10.20937,4.432901,21.6095,1008.234
12.771496773,2.111771,-75.84025,-30.79761,-1.046677,0.2623585,0.1711901,10.20937,4.432901,21.6095,1008.234
12.804053307,-23.05296,-37.11816,-56.74615,-0.5695524,-1.061963,-0.8215456,12.70323,8.811993,20.6777,1008.233
12.839118481,79.32874,-41.16286,-11.94819,-0.4873155,-0.7984704,-0.3907833,13.06239,9.175865,20.22783,1008.229
12.871768475,-17.94618,-42.293,0.3528845,-0.1500513,-0.5846792,-0.2674863,13.06239,9.175865,20.22783,1008.229
12.904328823,13.67893,-9.994851,-15.86496,-0.3783219,-0.7684173,-0.4875888,13.78257,9.906567,19.83788,1008.227
12.939393997,35.45965,-19.03596,-23.20888,-0.5769604,-0.7425347,-0.3371553,14.48929,11.36157,18.86919,1008.227
12.971953869,74.65264,-14.57488,-28.77803,-0.7012199,-0.6817422,-0.2752025,14.48929,11.36157,18.86919,1008.227
13.004510403,47.2114,-15.52658,-26.02406,-0.7224703,-0.7840115,-0.2907601,14.86004,10.99819,18.48827,1008.229
13.039575577,28.26094,-20.40402,-21.0669,-0.6985663,-0.8963893,-0.4114084,14.45933,12.86748,17.13775,1008.229
13.072135925,52.25665,-20.58246,-22.78049,-0.579074,-0.711818,-0.2583776,14.45933,12.86748,17.13775,1008.229
13.104695797,42.78142,-12.43357,-27.24804,-0.5096366,-0.6720282,-0.1529448,14.79981,14.32021,16.23397,1008.229
13.139760971,43.21211,-8.091461,-26.02406,-0.4905465,-0.9109172,-0.2552167,14.42766,14.68137,16.23255,1008.227
13.172321320,49.30333,-13.20682,-24.37167,-0.4605333,-0.856511,-0.2698837,14.42766,14.68137,16.23255,1008.227
13.204877853,32.38328,-12.49305,-29.75722,-0.497177,-0.760269,-0.05811109,14.40004,16.12886,14.88389,1008.227
13.237437725,-0.8415473,-7.556133,-35.20396,-0.5164774,-0.9608576,-0.1428434,14.36837,17.94275,13.97869,1008.225
13.272502899,5.926473,4.459016,-43.46589,-0.4580522,-1.211402,-0.3473236,14.36837,17.94275,13.97869,1008.225
13.305063248,25.43068,22.12486,-25.16726,-0.3630149,-0.969038,-0.3606359,13.99217,18.67031,14.42073,1008.225
13.337623119,5.311199,40.0881,-20.51611,-0.3508482,-0.8781356,-0.3297748,13.99217,18.67031,14.42073,1008.227
13.372688294,-38.00413,50.19986,-4.849064,-0.0837304,-0.6486195,-0.3376487,13.99217,18.67031,14.42073,1008.227
13.405244827,-78.0585,96.05966,-1.666695,-0.1712826,-0.9179088,-0.5790106,13.96944,20.12556,14.41028,1008.227
13.437805176,-98.85478,112.9522,-0.07551125,-0.008961999,-1.135137,-0.7584305,12.86683,20.85815,16.63899,1008.225
13.472869396,-50.30962,131.7482,1.087277,-0.1000406,-0.9970996,-0.7011318,12.86683,20.85815,16.63899,1008.221
13.505430222,-19.17673,148.4624,-16.72175,-0.1720616,-1.029935,-0.6343737,12.87903,20.50467,18.42588,1008.221
13.537990570,1.742606,148.1055,-38.75353,-0.307527,-0.895613,-0.4228916,11.78349,20.87567,21.03955,1008.221
13.573055744,-21.63783,146.6185,-51.6666,-0.4323661,-0.7382193,-0.337229,11.78349,20.87567,21.03955,1008.221
13.605611324,-45.07979,128.6552,-56.68495,-0.4638839,-0.6875654,-0.2383004,10.30709,21.96685,22.82076,1008.219
13.638172150,-57.50834,113.1902,-46.70945,-0.3793964,-0.6574841,-0.1987694,7.740217,22.69144,25.50029,1008.217
13.670732498,-76.15115,93.26406,-30.73641,-0.3744875,-0.7391869,-0.1734349,7.740217,22.69144,25.50029,1008.215
13.705797672,-79.65822,64.1184,-18.43533,-0.3936704,-0.7594796,-0.1481071,4.441193,23.03918,26.84659,1008.214
13.738357544,-64.03024,33.66416,-16.23215,-0.3266446,-0.8703662,-0.1532471,1.831685,22.67411,29.9165,1008.214
13.770917892,-16.77716,2.13926,5.616033,-0.4333649,-0.7133992,-0.02893839,1.831685,22.67411,29.9165,1008.215
13.805978775,2.050243,-43.8395,46.43603,-0.5156585,-0.3045186,0.1306095,-0.3354702,20.84435,30.82883,1008.215
13.838539600,-2.256679,-86.24941,71.22179,-0.5645727,-0.2800204,0.1605165,0.770411,20.11691,29.49228,1008.215
13.871099472,-424.9503,391.8584,-209.0103,2.089532,-1.419119,-1.544475,0.770411,20.11691,29.49228,1008.214
13.906164646,-50.86337,9.693339,11.98077,-0.3898093,-1.83283,-1.892075,3.014291,20.85348,28.20523,1008.214
13.938724995,-20.16117,61.38227,-67.39484,0.7820528,-0.4805932,-0.3905425,5.635376,17.60509,29.4949,1008.215
13.971285343,-101.3774,-1.370116,-2.951883,-1.113954,-0.1289396,-0.3267924,5.635376,17.60509,29.4949,1008.215
14.006345749,-30.68236,9.812302,2.984459,0.002564217,-0.7057685,-0.7726763,5.277849,17.2438,30.39084,1008.215
14.038906574,-38.86552,9.09853,-2.339889,-0.03710549,-0.7704955,-0.9727768,3.458489,16.50552,30.84808,1008.215
14.071466923,-8.594007,11.35881,-7.725436,0.008397005,-0.605961,-0.9002208,3.839585,15.78571,31.74426,1008.215
14.106531143,6.849385,3.209917,0.3528845,0.02660419,-0.6963289,-0.8552129,3.839585,15.78571,31.74426,1008.217
14.139091969,-6.871238,2.734069,-1.727895,0.0467049,-0.6179519,-0.8260007,3.484477,15.05545,31.75067,1008.217
14.171652317,2.419408,-1.964925,1.209676,-0.02259486,-0.4959759,-0.7017786,3.118006,15.0528,31.75186,1008.217
14.204208851,3.834539,-8.745751,7.574413,-0.005634009,-0.5397799,-0.7459671,3.118006,15.0528,31.75186,1008.217
14.239274025,-8.717062,-9.87589,8.737202,0.030753,-0.6297902,-0.8334166,3.482846,15.05286,31.3046,1008.217
14.271833897,-10.93205,-9.93537,8.920799,-0.01051216,-0.6381683,-0.8194866,3.127737,14.3226,31.31101,1008.219
14.304394245,-13.82384,4.04265,8.8596,0.2206639,-0.6254164,-0.8233823,3.127737,14.3226,31.31101,1008.219
14.339459419,-8.163315,0.7117173,6.472824,-0.1073293,-0.5621728,-0.8153335,4.236093,13.97189,32.20219,1008.219
14.372019768,-6.809711,-0.4184205,4.698041,-0.1309476,-0.5311155,-0.7660158,3.86394,14.33305,32.20078,1008.219
14.404575348,-2.318206,-0.1804967,2.984459,-0.072413,-0.6042028,-0.8773972,3.86394,14.33305,32.20078,1008.219
14.439640522,9.802702,3.031474,0.4752833,-0.1420451,-0.5994052,-0.8497044,3.867991,13.96666,31.75731,1008.219
14.472201347,17.49364,6.124483,-1.605496,-0.1153722,-0.6358992,-0.8705888,4.234461,13.96931,31.75612,1008.221
14.504761219,22.29278,8.325278,-2.768285,-0.01441121,-0.5883289,-0.7824692,4.234461,13.96931,31.75612,1008.221
14.539825916,9.1259,4.280574,-2.768285,-0.07650589,-0.6052646,-0.7633325,4.595251,14.33577,31.75232,1008.222
14.572386742,7.033967,7.373582,-5.461058,-0.04657155,-0.6419208,-0.8456114,4.585519,15.06597,32.19317,1008.222
14.604943276,13.24824,8.087354,-5.522258,-0.01087414,-0.5994582,-0.7831258,4.585519,15.06597,32.19317,1008.222
14.637502670,23.83096,6.421887,-3.074282,-0.09622543,-0.5898574,-0.7877307,3.850947,15.05809,31.74948,1008.222
14.672567845,16.14003,5.94604,-3.992273,-0.01136703,-0.6445814,-0.8012153,3.477164,15.41668,31.30199,1008.222
14.705128670,12.57144,7.492544,-7.419439,-0.01971635,-0.6825525,-0.8114541,3.477164,15.41668,31.30199,1008.218
14.737689018,18.66266,9.09853,-12.49899,-0.02013415,-0.6337526,-0.7498037,3.464171,16.14171,30.85069,1008.224
14.772753239,11.77158,6.302926,-9.683817,0.01580667,-0.6079054,-0.6667867,3.092019,16.50288,30.84927,1008.224
14.805309772,11.587,3.507321,-4.849064,0.004558922,-0.662128,-0.7449433,3.092019,16.50288,30.84927,1008.22
14.837870598,21.36987,2.734069,-2.951883,-0.02757801,-0.7271773,-0.8532143,2.662839,16.4972,30.40458,1008.224
14.872935772,50.59541,6.719292,-8.582228,0.07732385,-0.6967611,-0.8286827,2.280955,17.58857,30.84401,1008.222
14.905495167,66.10033,10.05023,-8.827025,0.0114009,-0.703407,-0.7325284,2.280955,17.58857,30.84401,1008.222
14.938055992,56.56357,5.351231,-6.685046,0.00865607,-0.667677,-0.6889602,2.62712,18.67749,29.94284,1008.222
14.973121166,44.62724,4.221093,-5.093862,0.03741476,-0.7485741,-0.6655699,1.520396,19.03078,29.49773,1008.222
15.005677223,62.96243,5.648635,-5.032662,0.06214279,-0.7784401,-0.6534817,1.520396,19.03078,29.49773,1008.218
15.038237095,80.55928,6.838254,-1.360699,0.01925892,-0.8515967,-0.6139527,1.114945,21.20324,28.14503,1008.218
15.070797920,79.6979,6.540849,1.882869,0.009914816,-0.8448904,-0.6191586,1.467024,21.92871,27.3102,1008.22
15.105863094,72.68377,3.626283,2.739661,0.003025321,-0.8177373,-0.5186786,1.467024,21.92871,27.3102,1008.22
15.138422489,65.66964,5.529674,1.270876,0.04247887,-0.8576148,-0.5072407,0.6951025,24.09854,25.9587,1008.22
15.170983315,69.36128,10.70452,-0.1367106,0.06148195,-0.8887244,-0.4521453,0.2937016,25.90461,24.16254,1008.224
15.206044197,61.23965,12.66739,0.04688754,0.04424282,-0.9080331,-0.423904,0.2937016,25.90461,24.16254,1008.225
15.238604546,48.31889,12.54842,-1.850294,0.02954764,-0.9218022,-0.3245243,0.9990246,27.3574,22.8115,1008.225
15.271164417,27.9533,12.36998,-3.135481,0.07096676,-0.9379616,-0.3924835,0.2368345,28.79702,21.01915,1008.225
15.306229591,7.157022,10.16919,-6.746246,0.06771213,-0.9021963,-0.3580984,0.2368345,28.79702,21.01915,1008.227
15.338790417,-12.40871,7.611506,-12.37659,0.07158373,-0.8792724,-0.2586601,0.2165287,29.88328,20.11917,1008.227
15.371350765,-36.65053,3.804726,-20.39371,0.09120052,-0.988552,-0.3251188,-0.8812523,29.87793,20.56881,1008.225
15.406411171,-76.82796,8.741645,-37.28474,0.1033942,-0.9632782,-0.3967681,-0.8812523,29.87793,20.56881,1008.224
15.438971520,-155.337,9.336453,-56.44016,0.1366405,-0.9369879,-0.4181511,-1.244461,29.88045,21.46215,1008.221
15.471531868,-133.8024,13.91649,-52.76819,0.1854064,-1.041538,-0.691451,-1.946522,28.43283,23.70533,1008.221
15.504092693,1.619551,-9.93537,-35.08157,0.1226023,-0.7050828,-0.4745382,-1.946522,28.43283,23.70533,1008.221
15.539156914,-34.1279,-8.567308,-11.6422,0.1077121,-0.4624738,-0.4297355,-3.357169,25.52725,26.4074,1008.223
15.571717739,-48.64838,-21.89104,8.492404,0.1436321,-0.4537106,-0.4368871,-4.05276,23.34426,27.31759,1008.223
15.604273796,-19.42284,-32.77605,44.41645,0.1701759,-0.8914169,-0.8283585,-4.05276,23.34426,27.31759,1008.223
15.639338493,-24.0374,-14.69385,34.68575,0.1626685,-0.825982,-0.5987157,-3.299513,22.26328,28.21519,1008.224
15.671898842,-1.825987,-6.188072,6.534023,0.1190021,-0.9418858,-0.8846673,-2.200335,22.27085,28.1479,1008.223
15.704459191,1.496496,-4.879491,3.474054,0.1044318,-0.7587259,-0.5927996,-2.200335,22.27085,28.1479,1008.223
15.739524365,1.127331,-0.1210158,0.8424797,0.10468,-0.7544786,-0.6705587,-1.820637,21.54883,28.66173,1008.223
15.772084236,14.41726,-0.5968633,2.250066,0.09721096,-0.7376264,-0.6572432,-1.833631,22.27387,28.21043,1008.224
15.804640770,26.41512,-1.310635,4.453244,0.1098572,-0.7312521,-0.6334727,-1.455798,21.5489,28.21447,1008.224
15.839705944,35.58271,-0.3589395,6.840021,0.08827168,-0.8034214,-0.6427703,-1.455798,21.5489,28.21447,1008.224
15.872266293,41.55087,2.971993,6.717622,0.1168711,-0.8317657,-0.6335628,-1.100923,22.27879,28.14433,1008.224
15.904826164,47.82667,5.470192,7.146018,0.1115266,-0.8275766,-0.6083581,-1.122626,23.36285,26.86201,1008.224
15.937386990,55.02538,5.470192,7.390815,0.1198868,-0.8271432,-0.5730731,-1.122626,23.36285,26.86201,1008.222
15.972451687,61.05507,1.782374,8.798401,0.1086472,-0.8062894,-0.4891199,-1.505352,24.08007,25.51976,1008.222
16.005007744,35.52118,-1.370116,8.492404,0.07055289,-0.8692487,-0.433972,-0.7854047,24.81041,25.06609,1008.222
16.037568092,13.24824,-2.26233,6.105628,0.07845506,-0.8855208,-0.4666141,-0.7854047,24.81041,25.06609,1008.222
16.072633266,1.927188,-1.964925,4.086048,0.07448655,-0.8863896,-0.5004599,-1.550014,26.619,24.16327,1008.224
16.105193615,-7.79415,-1.01323,0.8424797,0.07418711,-0.8554035,-0.4753347,-0.8138111,26.62946,25.05303,1008.224
16.137753487,-18.06923,-0.4779014,-0.4427077,0.0676974,-0.8423533,-0.4780296,-0.8138111,26.62946,25.05303,1008.224
16.172818661,-24.28351,-0.06153485,-2.401088,0.0736267,-0.8538488,-0.4980291,-0.8227539,26.98811,24.15828,1008.224
16.205375195,-23.54518,-0.06153485,-2.401088,0.08105351,-0.8691971,-0.5214725,-0.8097608,26.26307,24.60957,1008.226
16.237935543,-19.42284,-0.1804967,-1.727895,0.08849775,-0.8883823,-0.5560922,-0.8097608,26.26307,24.60957,1008.227
16.273000240,-13.02398,-0.1804967,-1.483097,0.08819218,-0.8635679,-0.5629639,-1.1746,26.263,25.05683,1008.226
16.305560589,-7.363458,-0.06153485,-0.19791,0.09062659,-0.8217372,-0.5632949,-0.7951362,25.54061,25.50694,1008.226
16.338120937,-2.195151,0.05742703,0.5976821,0.08564952,-0.8101894,-0.5519962,-0.7951362,25.54061,25.50694,1008.226
16.370680809,-2.810426,-0.2994586,0.9036791,0.08110263,-0.837952,-0.551932,-0.4229844,25.17945,25.50836,1008.226
16.405742169,-0.7800198,-0.1210158,0.1080869,0.07731546,-0.8486642,-0.5583757,-1.165657,25.90436,25.95159,1008.227
16.438302517,-2.810426,0.05742703,-0.9323028,0.07298794,-0.8492974,-0.5385627,-1.165657,25.90436,25.95159,1008.226
16.470862866,-10.56289,0.7117173,-2.645886,0.0733205,-0.8328382,-0.5233272,-1.154294,25.17674,25.95681,1008.226
16.505927563,-27.05224,2.317703,-5.461058,0.07606842,-0.8224949,-0.5454075,-1.150244,24.81034,25.51335,1008.226
16.538487911,-34.80471,3.983169,-6.929844,0.08066311,-0.8133687,-0.6148789,-1.150244,24.81034,25.51335,1008.226
16.571048260,-25.08336,3.209917,-6.501448,0.1073468,-0.8047545,-0.61574,-0.7764614,24.45176,25.96084,1008.226
16.606109619,-16.28494,0.8901601,-3.135481,0.09945047,-0.7932492,-0.6034724,-1.132358,24.09305,27.30286,1008.226
16.638669491,-10.99358,0.116908,-1.605496,0.1042839,-0.7945468,-0.6247655,-1.132358,24.09305,27.30286,1008.226
16.671229839,-3.056536,-0.6563442,-0.4427077,0.1042646,-0.7930847,-0.6257099,-1.119364,23.36801,27.75415,1008.226
16.706295014,1.434969,0.05742703,-0.3203089,0.09942843,-0.7936846,-0.6145967,-1.115314,23.00162,27.31069,1008.221
16.738854885,4.880507,-0.1210158,0.6588815,0.1082165,-0.797893,-0.625787,-1.115314,23.00162,27.31069,1008.221
16.771415234,9.61812,-1.370116,2.127667,0.1042758,-0.7926295,-0.6189356,-1.485835,23.36537,27.75534,1008.221
16.806476593,7.46466,-2.143368,3.229256,0.09513257,-0.7939,-0.5797927,-1.113683,23.0042,27.75676,1008.221
16.839036941,2.111771,-1.727001,2.80086,0.08598825,-0.8056319,-0.5910805,-1.113683,23.0042,27.75676,1008.221
16.871596813,4.142177,-1.132192,1.944069,0.08790716,-0.8055538,-0.6026822,-1.120995,23.36543,27.30808,1008.223
16.904157162,3.403847,-1.01323,1.576872,0.09377716,-0.8098068,-0.6124203,-0.7528937,23.37066,27.75296,1008.223
16.939222336,-0.04169029,-0.894268,1.209676,0.08301237,-0.8041442,-0.6060396,-0.7528937,23.37066,27.75296,1008.225
16.971782207,-3.241118,0.116908,0.1080869,0.08548941,-0.8084702,-0.6094916,-1.494779,23.72401,26.86058,1008.221
17.004338741,-4.717777,0.1763889,-0.6263058,0.09516659,-0.8010963,-0.6002043,-1.493147,23.72659,27.30666,1008.221
17.039403915,-5.702216,0.1763889,-0.503907,0.0976029,-0.8005918,-0.5972987,-1.493147,23.72659,27.30666,1008.219
17.071964264,-5.148469,-1.01323,0.8424797,0.09849115,-0.7961422,-0.6112496,-0.7602057,23.73189,27.30428,1008.221
17.104524136,0.5735843,-1.786482,2.005268,0.09312356,-0.7966672,-0.6180198,-1.125046,23.73182,27.75154,1008.221
17.139589310,7.341605,-2.440773,3.106858,0.08879871,-0.8030127,-0.6243962,-1.125046,23.73182,27.75154,1008.222
17.172149658,11.09478,-2.500253,3.168057,0.08838093,-0.8069502,-0.6147884,-0.7472124,23.00685,27.75557,1008.222
17.204706192,13.00213,-2.440773,3.412854,0.0786767,-0.8104698,-0.6167663,-1.119364,23.36801,27.75415,1008.221
17.239770413,12.01769,-1.905444,2.250066,0.07828336,-0.8139763,-0.5950674,-1.119364,23.36801,27.75415,1008.221
17.272331238,9.987285,-1.429597,1.638072,0.08321582,-0.8149792,-0.5743022,-0.7528937,23.37066,27.75296,1008.219
17.304891586,5.372726,-1.132192,1.087277,0.07838767,-0.8146424,-0.5554407,-0.7748303,24.45434,26.40691,1008.217
17.337451458,-1.087657,-0.7158252,1.454474,0.07887342,-0.8146339,-0.5559245,-0.7748303,24.45434,26.40691,1008.217
17.372516632,-3.548755,-0.894268,1.087277,0.07644182,-0.82133,-0.586477,-0.04188895,24.45963,26.40454,1008.217
17.405073166,-6.625128,-0.8347871,0.6588815,0.07972228,-0.80821,-0.5766125,-0.03457665,24.09841,26.85322,1008.217
17.437633515,-13.20857,-1.072711,0.6588815,0.07773586,-0.805311,-0.5784999,-0.03457665,24.09841,26.85322,1008.217
17.472697735,-20.40728,-1.429597,-0.01431186,0.07325201,-0.7994758,-0.591941,-0.3996494,24.09798,27.23676,1008.219
17.505258560,-21.51477,-0.894268,-0.19791,0.06596579,-0.8057868,-0.6142657,-0.03294563,24.10099,27.29929,1008.219
17.537818909,-16.90021,-0.4184205,-0.6263058,0.07321123,-0.802255,-0.6219528,-0.03294563,24.10099,27.29929,1008.219
17.572883129,-10.31678,-0.002053916,-1.115901,0.07736925,-0.7875195,-0.6439674,-0.03294563,24.10099,27.29929,1008.216
17.605439663,-2.502789,0.4143127,-0.5651065,0.07686818,-0.7855976,-0.6405539,-0.01427102,23.01214,27.7532,1008.216
17.638000488,5.065089,0.116908,-0.1367106,0.07390661,-0.7812823,-0.6361348,-0.379344,23.01171,28.13673,1008.215
17.673065663,8.695209,0.05742703,0.3528845,0.07595174,-0.7876176,-0.6265659,-0.379344,23.01171,28.13673,1008.216
17.705625057,10.29492,-0.4184205,0.7200809,0.07263815,-0.7954454,-0.6247486,-0.3766916,22.6431,27.31092,1008.216
17.738185883,12.44838,-0.3589395,0.7812803,0.07079006,-0.800409,-0.607421,-0.02563357,23.73976,27.74797,1008.216
17.770746231,12.63297,-0.4184205,0.6588815,0.07527681,-0.8086277,-0.604167,-0.02563357,23.73976,27.74797,1008.216
17.805806637,12.07922,-0.2399777,0.5976821,0.06700599,-0.8087488,-0.6012607,-0.3826058,23.00654,27.24459,1008.216
17.838366985,12.50991,-0.1210158,0.4752833,0.07088824,-0.8072469,-0.5997913,-0.02749753,23.73681,27.23818,1008.216
17.870927811,11.09478,-0.1804967,0.2304857,0.07194739,-0.812146,-0.5882661,-0.02749753,23.73681,27.23818,1008.216
17.905992985,5.988,-0.2994586,0.4140839,0.069618,-0.8176019,-0.5709456,-0.4012804,24.09539,26.79068,1008.216
17.938552380,4.388287,-0.06153485,0.4140839,0.07545816,-0.8184712,-0.576765,-0.767751,24.09274,26.79187,1008.212
17.971113205,3.34232,0.116908,-0.01431186,0.07010621,-0.8190247,-0.5772516,-0.767751,24.09274,26.79187,1008.214
18.006174088,0.942749,0.116908,-0.2591094,0.07445781,-0.8184355,-0.5873978,-0.4026785,24.09318,26.40834,1008.216
18.038733959,-0.7184923,-0.1804967,0.1080869,0.0768927,-0.813648,-0.5646083,-0.4026785,24.09318,26.40834,1008.216
18.071294308,-0.3493276,0.05742703,0.1080869,0.06812461,-0.8161348,-0.5772055,-0.4026785,24.09318,26.40834,1008.209
18.106359482,0.01983716,0.2953508,-0.2591094,0.06961656,-0.8209286,-0.5874311,-0.414041,24.8208,26.40311,1008.209
18.138920307,1.434969,0.2358698,-0.19791,0.07060368,-0.82094,-0.5821151,-0.414041,24.8208,26.40311,1008.209
18.171479702,1.804133,-0.002053916,-0.1367106,0.07114217,-0.825784,-0.584123,-0.414041,24.8208,26.40311,1008.21
18.204036236,2.60399,0.116908,0.2304857,0.07300591,-0.8208489,-0.5951672,-0.04593921,24.82603,26.848,1008.21
18.239101410,3.280792,0.2358698,-0.01431186,0.07205722,-0.8194808,-0.5782272,-0.04188895,24.45963,26.40454,1008.209
18.271661282,2.911628,-0.002053916,0.04688754,0.07402913,-0.8209263,-0.5753509,-0.04188895,24.45963,26.40454,1008.209
18.304221630,2.111771,-0.2994586,0.4140839,0.07455916,-0.824328,-0.5739532,-0.41241,24.82338,26.84919,1008.207
18.339286804,0.942749,-0.2994586,0.6588815,0.07802977,-0.8296285,-0.5740374,-0.04757023,24.82345,26.40193,1008.209
18.371846676,0.7581667,-0.5968633,0.7812803,0.07747759,-0.8238084,-0.5729813,-0.04757023,24.82345,26.40193,1008.209
18.404403210,-1.210712,-0.5373824,0.9036791,0.0721079,-0.822427,-0.5715049,-0.4156721,24.81822,25.95704,1008.209
18.439468384,-1.087657,-0.7753062,1.087277,0.06820309,-0.8219854,-0.5729445,-0.4099908,24.4544,25.95966,1008.21
18.472028732,-0.8415473,-0.06153485,0.3528845,0.06482027,-0.824455,-0.5739457,-0.4099908,24.4544,25.95966,1008.21
18.504588604,0.6351117,0.8306792,-0.7487046,0.06135369,-0.8201131,-0.5767764,0.3286319,24.09589,25.95989,1008.212
18.539653778,1.927188,1.009122,-1.421898,0.06922291,-0.8263371,-0.5749454,-0.4067287,24.45957,26.8518,1008.212
18.572214127,1.927188,1.128084,-1.115901,0.07409678,-0.8267573,-0.5754399,-0.4067287,24.45957,26.8518,1008.212
18.604770184,0.8196941,0.4737936,-0.3815083,0.08089987,-0.8247402,-0.572032,-0.4099908,24.4544,25.95966,1008.212
18.637330532,0.3274744,-0.06153485,0.2304857,0.07650573,-0.8243004,-0.574438,-0.414041,24.8208,26.40311,1008.214
18.672395706,-0.2878001,-0.1210158,0.2916851,0.07118842,-0.8282465,-0.57691,-0.414041,24.8208,26.40311,1008.216
18.704956055,-0.7184923,-0.002053916,0.2304857,0.07114685,-0.8229389,-0.5686115,-0.41241,24.82338,26.84919,1008.216
18.737515927,-0.3493276,-0.1210158,0.3528845,0.07653474,-0.827207,-0.5764158,-0.4083598,24.45699,26.40573,1008.217
18.772581100,0.2044195,-0.3589395,0.7200809,0.07358165,-0.8243341,-0.5754024,-0.4083598,24.45699,26.40573,1008.217
18.805137634,0.942749,-0.2399777,0.5364827,0.06628756,-0.825399,-0.575895,-0.4083598,24.45699,26.40573,1008.217
18.837697506,1.742606,0.3548317,-0.19791,0.06346452,-0.833227,-0.5726281,-0.4043095,24.0906,25.96227,1008.217
18.872762680,2.357881,1.068603,-1.483097,0.05714679,-0.8357105,-0.5789438,-0.4043095,24.0906,25.96227,1008.219
18.905323029,3.773012,1.603931,-1.605496,0.0810424,-0.8364151,-0.5693101,-0.4197223,25.18461,26.40051,1008.219
18.937883377,1.681079,0.5927554,-0.3203089,0.07847914,-0.8238462,-0.5618652,-0.4099908,24.4544,25.95966,1008.219
18.972948074,-0.2262726,0.2358698,-0.01431186,0.07602947,-0.8214725,-0.5565095,-0.4099908,24.4544,25.95966,1008.221
19.005504608,-3.302645,0.2358698,-0.3203089,0.07798941,-0.8243231,-0.5652556,-0.7748303,24.45434,26.40691,1008.223
19.038064957,-4.963887,0.05742703,-0.4427077,0.07415114,-0.8311371,-0.5740567,-0.4156721,24.81822,25.95704,1008.218
19.070624828,-3.733338,0.05742703,-0.3815083,0.0716259,-0.8252962,-0.5831493,-0.4156721,24.81822,25.95704,1008.218
19.105690002,-3.4257,-0.1804967,0.2304857,0.07544334,-0.8189197,-0.5849892,-1.13562,24.08788,26.41071,1008.223
19.138250351,-1.641404,-0.7158252,0.8424797,0.07550821,-0.8252212,-0.588469,-0.4083598,24.45699,26.40573,1008.218
19.170810223,2.173298,-0.9537489,1.209676,0.07558112,-0.832013,-0.5909896,-0.4083598,24.45699,26.40573,1008.22
19.205871105,6.48022,-0.4779014,0.8424797,0.07021447,-0.8268322,-0.5701202,-0.4083598,24.45699,26.40573,1008.222
19.238431931,6.787858,-0.1804967,0.4752833,0.06096607,-0.8255326,-0.561874,-0.7650988,23.72414,25.96606,1008.222
19.270992279,5.680363,0.05742703,0.4140839,0.06785101,-0.8327015,-0.5687573,-0.7650988,23.72414,25.96606,1008.222
19.306056500,3.465375,0.2358698,0.04688754,0.07310472,-0.8238831,-0.5691112,-0.7805116,24.81816,26.4043,1008.224
19.338617325,1.250386,0.2358698,-0.07551125,0.08284308,-0.8213771,-0.5579647,-0.4156721,24.81822,25.95704,1008.224
19.371177673,-0.7184923,-0.1210158,0.3528845,0.07663798,-0.8307249,-0.5508507,-0.7805116,24.81816,26.4043,1008.225
19.406238079,-1.272239,-0.6563442,0.6588815,0.07081246,-0.8341628,-0.5595983,-0.7805116,24.81816,26.4043,1008.225
19.438798428,-2.871953,-0.4184205,0.6588815,0.07417881,-0.8311876,-0.5629398,-0.414041,24.8208,26.40311,1008.225
19.471359253,-5.209997,-0.1210158,0.04688754,0.07064345,-0.8224396,-0.5729538,-0.7691491,24.09053,26.40953,1008.225
19.506423473,-4.963887,0.2358698,-0.01431186,0.06914323,-0.8204842,-0.5796898,-0.7691491,24.09053,26.40953,1008.225
19.538983822,-2.933481,-0.002053916,-0.07551125,0.0692668,-0.8302221,-0.5754881,-0.414041,24.8208,26.40311,1008.225
19.571544647,0.265947,-0.002053916,-0.1367106,0.07218201,-0.829221,-0.5735421,-0.4099908,24.4544,25.95966,1008.225
19.604101181,1.434969,0.1763889,-0.3203089,0.07264114,-0.8263102,-0.5710813,-0.4099908,24.4544,25.95966,1008.221
19.639165402,1.558024,0.4143127,-0.5651065,0.06969497,-0.8253523,-0.576381,-0.04025793,24.46222,26.85061,1008.221
19.671725750,0.6351117,0.4737936,-0.5651065,0.06918623,-0.8224652,-0.5715027,-0.7764614,24.45176,25.96084,1008.223
19.704286575,0.2044195,0.4143127,-0.5651065,0.07508181,-0.8248625,-0.5618774,-0.7764614,24.45176,25.96084,1008.225
19.739350796,1.250386,-0.1804967,0.1080869,0.07025386,-0.8288066,-0.563383,-0.0532515,25.18726,26.39931,1008.225
19.771911144,2.480936,-0.3589395,0.3528845,0.06629598,-0.8254144,-0.5725116,-0.7748303,24.45434,26.40691,1008.225
19.804467678,2.111771,-0.2399777,0.3528845,0.07400259,-0.8194511,-0.5791954,-0.7748303,24.45434,26.40691,1008.226
19.839532375,0.7581667,-0.002053916,0.2304857,0.07059556,-0.8190228,-0.5762852,-0.7805116,24.81816,26.4043,1008.226
19.872092724,-0.1032177,0.116908,0.04688754,0.07413219,-0.8292,-0.5725769,-0.4156721,24.81822,25.95704,1008.228
19.904653072,0.1428921,0.05742703,-0.07551125,0.07219074,-0.8273345,-0.5609455,-0.4156721,24.81822,25.95704,1008.228
19.939718246,0.4505294,0.116908,0.2304857,0.07416671,-0.8297387,-0.5609841,-0.4083598,24.45699,26.40573,1008.23
19.972278118,-0.2262726,0.2358698,-0.3815083,0.06542066,-0.83179,-0.5624571,-0.4197223,25.18461,26.40051,1008.23
20.004834652,-1.149184,0.4737936,-0.8711034,0.06447389,-0.837084,-0.5765549,-0.4197223,25.18461,26.40051,1008.23
20.037395000,-2.072096,0.8306792,-0.9935022,0.07360059,-0.8262712,-0.5768822,-0.414041,24.8208,26.40311,1008.232
20.072459698,-1.518349,0.8306792,-1.1771,0.06875363,-0.8268513,-0.5701191,-0.414041,24.8208,26.40311,1008.233
20.105020046,0.265947,0.5927554,-0.809904,0.07851513,-0.8300949,-0.5769452,-0.414041,24.8208,26.40311,1008.233
20.137580395,2.296353,0.3548317,-0.3815083,0.08193863,-0.8310289,-0.5755126,-0.04188895,24.45963,26.40454,1008.233
20.172645092,4.572869,0.5332745,-0.19791,0.07701914,-0.8243424,-0.5638048,-0.7805116,24.81816,26.4043,1008.235
20.205201626,5.618836,0.9496411,-0.6263058,0.07604247,-0.8248256,-0.5671949,-0.7805116,24.81816,26.4043,1008.231
20.237761974,5.741891,0.6522364,-0.503907,0.07564889,-0.831661,-0.5614983,-0.04757023,24.82345,26.40193,1008.231
20.272826672,6.111055,0.6522364,-0.3203089,0.07668239,-0.836989,-0.5625473,-0.4156721,24.81822,25.95704,1008.231
20.305387020,6.23411,0.5927554,-0.4427077,0.08211847,-0.842772,-0.557807,-0.4156721,24.81822,25.95704,1008.231
20.337947369,5.926473,1.068603,-0.3815083,0.07376907,-0.8356155,-0.5523727,-0.7821426,24.81557,25.95823,1008.231
20.373012543,5.988,2.615107,-2.033892,0.06415213,-0.8445262,-0.5442819,-0.7764614,24.45176,25.96084,1008.229
20.405568600,5.249671,4.340055,-3.319079,0.07390786,-0.84443,-0.5375226,-0.7764614,24.45176,25.96084,1008.229
20.438128948,4.880507,10.58555,0.04688754,0.05687395,-0.8513275,-0.5656472,-0.7821426,24.81557,25.95823,1008.229
20.470689297,4.757452,8.622683,-2.401088,0.04524284,-0.8558618,-0.5637717,-1.150244,24.81034,25.51335,1008.229
20.505753994,4.019122,2.13926,-6.195451,0.03646214,-0.8545206,-0.5632593,-1.150244,24.81034,25.51335,1008.229
20.538314343,-8.840117,-3.035582,-8.153832,0.07795903,-0.8095236,-0.5070246,-1.522396,25.17151,25.51193,1008.229
20.570874691,-27.23683,-4.998453,-9.255422,0.1247945,-0.8214422,-0.5304537,-1.522396,25.17151,25.51193,1008.229
20.605935097,-51.17101,-9.697447,-8.765826,0.1297936,-0.8325546,-0.530628,-1.522396,25.17151,25.51193,1008.229
20.638495922,-66.55287,-10.05433,-6.562647,0.103475,-0.7977145,-0.5721249,-1.520765,25.17409,25.958,1008.229
20.671056271,-92.76357,-20.04713,-6.440248,0.1423339,-0.7975056,-0.6132462,-0.7604387,23.73152,27.24055,1008.229
20.706120491,-93.93259,-19.92817,-5.27746,0.09252821,-0.7152569,-0.6733322,-0.7604387,23.73152,27.24055,1008.225
20.738681317,-87.34915,-16.24035,-2.584687,0.09674422,-0.7139445,-0.7356719,-1.104973,22.64519,28.58779,1008.225
20.771241665,-86.30318,-17.19205,-0.4427077,0.09558319,-0.6480364,-0.6974453,-0.6978905,20.4753,30.38656,1008.225
20.806302547,-46.12576,-3.987277,6.044428,0.09051336,-0.6244844,-0.8667462,-0.6978905,20.4753,30.38656,1008.227
20.838862419,-32.28208,-7.080286,5.922029,0.02962855,-0.6009912,-0.7575693,-0.2867582,17.93902,31.74186,1008.227
20.871603489,-26.19086,-1.251154,10.81798,0.07876761,-0.6653759,-0.8857272,-0.258352,16.11997,31.75492,1008.228
20.904164314,17.30905,-0.06153485,11.85837,0.007779716,-0.5805218,-0.8321593,-0.258352,16.11997,31.75492,1008.228
20.939228535,11.89464,-6.782881,11.55237,0.03958362,-0.6350276,-0.8320549,-0.2339959,14.66731,32.21144,1008.228
20.971789360,14.78643,-5.4743,11.98077,0.0217997,-0.5563719,-0.759298,0.1284246,15.03635,32.65371,1008.23
21.004345417,0.3890019,-7.437171,9.961189,0.01999289,-0.6212825,-0.8115244,0.1284246,15.03635,32.65371,1008.23
21.039410114,2.788573,-6.842362,13.87795,0.009829567,-0.5764024,-0.7707096,0.8540535,15.40287,32.20265,1008.228
21.071970463,-9.455392,-14.75333,9.961189,0.02293688,-0.6535712,-0.7569149,0.8540535,15.40287,32.20265,1008.23
21.104530811,18.41655,-9.519004,17.48872,0.01943678,-0.6173577,-0.8211316,1.224574,15.03912,31.758,1008.23
21.139595509,7.095495,-10.58966,14.48994,0.04336547,-0.6489819,-0.7457469,1.224574,15.03912,31.758,1008.23
21.172155857,10.54103,-8.448347,14.67354,0.02723886,-0.6471841,-0.7597219,1.951834,15.40823,31.75301,1008.23
21.204712391,13.06366,-8.567308,15.53033,0.007521458,-0.6260735,-0.7559971,2.318305,15.41088,31.75182,1008.23
21.239777088,18.90877,-4.998453,16.38713,-0.0188045,-0.6244574,-0.7593307,2.318305,15.41088,31.75182,1008.232
21.272337437,8.941318,-9.043157,15.77513,-0.05239271,-0.6187325,-0.7253746,3.110694,15.41403,31.30317,1008.229
21.304897785,6.357165,-12.61201,19.3247,-0.03092513,-0.5900487,-0.7723286,3.465802,16.1443,31.29676,1008.229
21.337458134,2.911628,-14.39644,16.08113,-0.009632938,-0.6645615,-0.7846036,3.465802,16.1443,31.29676,1008.235
21.372522831,-3.979447,-12.49305,16.26473,-0.01508561,-0.6554188,-0.7801085,4.193062,16.5134,31.29177,1008.231
21.405079365,-2.379734,-11.12499,15.89753,-0.09509864,-0.6879891,-0.7940627,4.926003,16.51869,31.2894,1008.231
21.437639713,-10.809,-13.74215,15.04074,-0.07714935,-0.6652768,-0.7144597,4.926003,16.51869,31.2894,1008.233
21.472704411,-11.79344,-11.89824,17.85591,-0.09423424,-0.6711299,-0.7585198,4.924372,16.51611,30.84333,1008.233
21.505264759,-1.887514,-10.23277,20.91588,-0.1098364,-0.6375837,-0.8053639,6.031096,16.16282,31.28844,1008.234
21.537825108,-3.056536,-10.35174,21.95627,-0.159422,-0.5875475,-0.7291459,6.031096,16.16282,31.28844,1008.234
21.572889805,-7.178875,-1.727001,19.0187,-0.1218708,-0.5781251,-0.6632991,6.036777,15.79901,31.29105,1008.234
21.605446339,-19.66895,1.54445,16.93792,-0.107439,-0.6284472,-0.7771909,6.771349,15.80689,31.73475,1008.236
21.638006687,-26.25239,-13.98007,18.7127,-0.0635923,-0.5780317,-0.73006,6.771349,15.80689,31.73475,1008.236
21.673070908,-28.5289,12.25102,16.57072,-0.1037169,-0.5724885,-0.7811746,6.7754,15.4405,31.29129,1008.236
21.705631733,-12.03955,11.53725,14.48994,-0.2027711,-0.5657942,-0.8268977,7.527016,14.35694,31.74281,1008.236
21.738192082,-0.3493276,-4.582086,12.89876,-0.215138,-0.5936055,-0.8384277,7.527016,14.35694,31.74281,1008.238
21.770751953,6.111055,-10.4707,15.04074,-0.1767783,-0.6057466,-0.9435427,7.535959,13.99829,32.63757,1008.24
21.805812836,35.58271,-10.17329,15.10194,-0.2549377,-0.6413931,-0.8110824,7.913792,13.27332,32.6416,1008.24
21.838373661,-7.05582,-11.89824,11.12398,-0.2331659,-0.6180211,-0.7585422,7.913792,13.27332,32.6416,1008.242
21.870933533,-20.65339,-6.425995,12.28677,-0.328768,-0.5781244,-0.8279309,8.261588,14.36481,32.18651,1008.242
21.905998230,-3.91792,10.10971,-2.401088,-0.2080333,-0.5565239,-0.7436103,8.637791,13.63726,31.74447,1008.242
21.938559055,-24.0374,6.362406,1.026078,-0.1840475,-0.6253502,-0.8225072,8.637791,13.63726,31.74447,1008.242
21.971119404,-30.80542,-4.82001,4.575643,-0.1958967,-0.5786512,-0.8652872,8.633739,14.00365,32.18793,1008.242
22.006179810,-26.92919,-12.37409,2.984459,-0.2174478,-0.5174028,-0.8227615,8.293257,12.55093,33.09171,1008.237
22.038740158,-17.94618,-6.663919,-0.4427077,-0.1959537,-0.5172487,-0.7952275,8.293257,12.55093,33.09171,1008.237
22.071300983,-26.31391,-10.64914,-3.869874,-0.1714747,-0.5314403,-0.8104523,8.297306,12.18453,32.64825,1008.242
22.106365204,-38.74246,-9.340561,-1.666695,-0.1700434,-0.5247086,-0.7905325,8.663776,12.18718,32.64706,1008.24
22.138925552,-58.43125,-6.128591,3.596453,-0.2510666,-0.5182806,-0.8328934,8.663776,12.18718,32.64706,1008.24
22.171486378,-79.166,-11.24395,11.98077,-0.2035396,-0.468848,-0.8790727,8.672036,11.76532,33.09618,1008.236
22.204041958,-87.47221,-17.48945,13.75555,-0.1813935,-0.4115509,-0.9106061,9.446377,9.226519,33.55815,1008.236
22.239107132,-59.29263,-5.950148,11.12398,-0.2315743,-0.4154876,-0.9367201,9.446377,9.226519,33.55815,1008.236
22.271667481,-26.12933,0.8306792,18.22311,-0.3462211,-0.260753,-0.8781772,9.841254,7.410113,33.57001,1008.236
22.304227352,-30.68236,11.41829,16.57072,-0.2647152,-0.4020742,-0.8823453,10.61155,5.237708,34.47545,1008.236
22.339292526,-29.02112,19.86458,12.89876,-0.2845166,-0.3337801,-0.8875682,10.61155,5.237708,34.47545,1008.236
22.371852875,-28.95959,19.03185,9.89999,-0.3428943,-0.4790632,-0.9554675,10.62696,4.143692,34.03721,1008.237
22.404408932,-0.410855,15.64143,16.32593,-0.4650092,-0.4585561,-1.005308,10.27185,3.413424,34.04362,1008.236
22.439474106,-21.14561,18.79392,6.595223,-0.4431191,-0.3114318,-0.9126931,10.27185,3.413424,34.04362,1008.231
22.472034454,-99.71617,-20.87986,-11.275,-0.7632249,-0.3205003,-1.011131,9.189482,2.314051,34.05502,1008.231
22.504594326,-65.13774,-105.2238,-19.10852,-0.7343511,-0.7412817,-1.165009,8.82301,2.311405,34.05621,1008.231
22.539659500,7.033967,-40.15168,-42.18069,-0.6445519,-0.7622483,-0.7883814,8.82301,2.311405,34.05621,1008.23
22.572219849,41.79698,-36.46387,-37.46834,-0.4819826,-0.971425,-1.027134,9.589196,-0.2403083,32.28782,1008.231
22.604775906,105.2933,-59.18559,-53.56379,-0.491267,-0.8445534,-0.6336543,10.33429,-1.334197,30.95506,1008.23
22.639841080,126.6434,-68.40514,-80.73631,-0.5300742,-0.6415722,-0.6000674,9.951563,-0.616971,29.61282,1008.23
22.672401428,82.159,-80.83665,-105.5833,-0.5897045,-0.5098858,-0.6584228,9.951563,-0.616971,29.61282,1008.23
22.704961300,29.98371,-106.5919,-134.4082,-0.5096648,-0.6383747,-0.6034219,10.27742,1.558209,27.81167,1008.23
22.737521649,16.38614,-113.1348,-148.9736,-0.492553,-0.6862594,-0.6051357,10.27742,1.558209,27.81167,1008.226
22.772586822,43.33517,-111.2909,-134.653,-0.4399202,-0.446752,-0.6460032,9.90061,1.911993,26.53576,1008.226
22.805142403,37.7977,-103.261,-119.1083,-0.3602709,-0.4244009,-0.630271,9.549552,0.81533,26.09871,1008.224
22.837703228,46.90376,-95.88533,-89.91623,-0.2733176,-0.2846447,-0.6538417,9.549552,0.81533,26.09871,1008.224
22.872768402,22.90805,-85.3572,-54.78777,-0.2535107,-0.1667309,-0.5563533,11.77763,-0.6137004,27.88631,1008.224
22.905327797,22.04667,-77.50571,-18.43533,-0.2894155,0.009269264,-0.4598584,14.33785,0.1424117,29.59333,1008.219
22.937888622,-32.34361,-68.99995,18.28431,-0.2487313,0.2391703,-0.45349,17.28019,-0.1924758,30.92464,1008.219
22.972953796,-68.39869,-65.66901,49.3124,-0.3916765,0.1808416,-0.4344235,17.28019,-0.1924758,30.92464,1008.219
23.005509377,-99.40853,-66.91811,73.60857,-0.5246912,0.1227653,-0.3360889,19.48469,-0.5404062,30.92012,1008.219
23.038069725,-115.3441,-83.69173,87.31723,-0.6204861,-0.01648965,-0.3410212,21.3828,-4.523925,31.83504,1008.219
23.073134899,-98.4241,-94.27934,97.35393,-0.6976208,-0.1529907,-0.469674,21.3828,-4.523925,31.83504,1008.219
23.105694771,-66.24523,-103.023,102.7395,-0.8192055,-0.09503843,-0.5228107,22.58784,-11.49419,30.98938,1008.214
23.138255119,-56.21626,-108.9711,108.8594,-0.89951,0.05200727,-0.5978301,24.21706,-18.03176,31.03143,1008.216
23.170815945,-65.93759,-115.0382,91.78478,-0.9608693,0.0003803789,-0.6425458,24.21706,-18.03176,31.03143,1008.216
23.205876350,-89.07191,-119.2613,65.65264,-1.052505,-0.1336529,-0.7145918,25.422,-24.56724,31.96701,1008.22
23.238436699,-86.85693,-110.3987,58.61471,-1.113004,-0.07060444,-0.8576178,27.32021,-28.98554,31.10069,1008.22
23.270997047,-80.76571,-112.0047,31.01378,-0.9651524,-0.2264479,-0.6856391,27.32021,-28.98554,31.10069,1008.219
23.306061745,-29.45181,-95.46896,18.8963,-0.9694667,-0.1230572,-0.5632134,29.16956,-30.80944,27.98529,1008.222
23.338622093,-4.225557,-90.23464,10.14479,-1.145433,-0.0238279,-0.5513787,31.35472,-31.188,22.69164,1008.222
23.371182442,11.46394,-81.6099,6.105628,-1.180694,0.04499091,-0.5029238,31.35472,-31.188,22.69164,1008.22
23.406243324,-1.395294,-64.24147,6.962419,-1.333051,0.03861926,-0.5004571,32.42241,-30.11187,18.66559,1008.223
23.438803673,5.126616,-84.58395,3.902449,-1.465192,0.005471344,-0.3244028,34.21596,-28.66885,14.25221,1008.227
23.471364021,22.72347,-71.3197,6.962419,-1.341896,-0.1669558,-0.3155514,34.21596,-28.66885,14.25221,1008.226
23.506428719,29.18385,-66.26382,21.09948,-1.244942,-0.09022003,-0.1336913,34.93912,-28.67906,11.5734,1008.228
23.538989067,27.2765,-50.20396,36.64413,-1.107156,-0.02756573,-0.05069434,36.02796,-28.31506,10.229,1008.228
23.571549416,-15.85425,-33.60878,41.29528,-1.056451,0.01192537,-0.0395065,36.02796,-28.31506,10.229,1008.233
23.604105473,-47.72547,-29.98045,39.0309,-0.9631699,0.05110501,0.05477631,36.04742,-29.77547,9.347303,1008.232
23.639170647,-56.40084,-23.61599,39.7653,-0.8626701,0.08863404,0.1055231,35.69575,-31.2459,7.192301,1008.234
23.671730995,-67.90647,-12.13616,35.48134,-0.8887209,0.05455222,0.04460612,35.69575,-31.2459,7.192301,1008.236
23.704290867,-84.88805,-10.11381,38.9697,-1.031239,0.1374287,0.1141642,34.97654,-33.0935,3.193088,1008.236
23.739356041,-92.14829,-10.82758,42.58047,-1.120102,0.03414491,0.1276589,34.63195,-34.92553,1.423044,1008.241
23.771916389,-70.24451,-18.32218,45.94643,-1.238808,0.03429965,0.1804639,34.63195,-34.92553,1.423044,1008.239
23.804471970,-70.67521,-8.329385,29.1166,-1.259032,-0.1398143,0.04296498,33.54082,-36.41159,-2.513868,1008.242
23.839537144,-46.61798,-18.97647,31.38098,-1.244744,-0.03356426,0.01846983,32.81755,-37.89279,-6.069622,1008.245
23.872097969,-34.00485,-16.24035,24.95504,-1.081025,0.01302872,0.07412761,32.81755,-37.89279,-6.069622,1008.245
23.904657841,-31.54375,-8.805232,9.471594,-0.9594878,0.02829634,0.05780841,31.3492,-38.2801,-8.292616,1008.247
23.939722538,-22.2531,-9.816408,-13.35578,-0.8800352,-0.01737062,0.0676693,30.26761,-39.75103,-9.61682,1008.247
23.972283363,-14.25453,-2.143368,-27.98244,-0.8399874,-0.08740126,-0.02092897,30.26761,-39.75103,-9.61682,1008.251
24.004838943,6.23411,6.60033,-30.85881,-0.8805718,-0.02822543,-0.00451893,29.52899,-39.39252,-9.617054,1008.251
24.037399292,10.54103,12.90531,-28.83923,-0.9069515,0.13075,0.1221598,30.25462,-39.026,-10.06811,1008.251
24.072464466,-34.62012,26.28852,-37.59074,-0.9098916,0.03525864,0.05835014,30.25462,-39.026,-10.06811,1008.248
24.105024338,-26.19086,25.87215,-34.46957,-0.9508123,-0.04265688,0.08136977,30.61136,-38.29314,-9.628454,1008.25
24.137585163,-28.5289,25.57475,-19.04732,-0.9906379,0.0882108,0.1520443,32.4283,-37.18589,-9.196158,1008.251
24.172649860,-30.19014,19.98354,-13.17218,-0.9692993,0.0520824,0.1422883,32.4283,-37.18589,-9.196158,1008.253
24.205205917,-16.10036,15.81988,-10.90781,-0.9466195,0.02617936,0.1322037,33.51635,-36.45033,-9.204947,1008.253
24.237766266,-2.810426,11.53725,-5.155061,-0.955363,0.0212697,0.1181193,33.85683,-34.99761,-10.10872,1008.253
24.272831440,36.50562,-6.842362,13.69435,-1.029381,0.1295899,0.2392374,33.85683,-34.99761,-10.10872,1008.253
24.305391312,15.89392,-16.7162,21.46668,-0.925862,0.240111,0.2790104,34.57436,-33.8983,-9.672863,1008.251
24.337951660,21.43139,-23.2591,19.2635,-0.8996596,-0.03965511,0.1021514,34.58331,-34.25695,-8.778109,1008.253
24.405572891,23.40027,-12.0172,28.19861,-0.6146096,-0.04252173,-0.05236467,33.48795,-34.63128,-9.218002,1008.254
24.438133240,33.73688,-7.615614,35.48134,-0.8575501,0.1956173,0.3193527,32.7631,-35.36936,-10.10255,1008.256
24.470693112,15.52476,9.931263,35.97093,-1.373394,0.3454021,-0.0017267,32.7631,-35.36936,-10.10255,1008.258
24.505758286,-96.51674,4.994345,8.920799,-1.20534,0.08765919,-0.02032243,32.41204,-36.46602,-10.5396,1008.26
24.538318634,-40.28065,-8.388866,11.85837,-1.072655,0.0120176,0.1064904,32.77525,-36.46854,-11.43293,1008.26
24.570878506,-69.81383,3.090955,1.087277,-1.017792,0.100012,0.2571433,32.77525,-36.46854,-11.43293,1008.263
24.605939388,-28.40585,18.79392,-1.1771,-1.319873,-0.3378139,-0.0885753,32.7692,-36.47814,-13.08977,1008.26
24.638500214,78.15971,1.960817,10.14479,-1.190802,0.3972139,0.02934026,33.11452,-35.76337,-15.77261,1008.26
24.671060085,-9.086227,11.29932,0.9036791,-0.8612437,0.1452581,0.1619739,33.46884,-34.66154,-14.44342,1008.262
24.706124783,9.310483,19.92406,2.739661,-0.9518475,0.2633482,0.1189089,33.46884,-34.66154,-14.44342,1008.266
24.738685608,-16.16188,20.22146,-1.299499,-1.063731,0.03318838,0.07248497,33.11294,-35.02025,-13.1014,1008.266
24.771245480,17.00142,19.21029,4.208447,-0.9704928,0.01542875,0.07695779,33.47941,-35.0176,-13.10259,1008.267
24.806306362,21.12375,22.12486,10.69558,-0.9531437,0.1181331,0.09252588,33.47941,-35.0176,-13.10259,1008.267
24.838866711,8.941318,25.21786,12.71516,-1.010483,0.09909073,0.05458731,33.48975,-35.37403,-11.82549,1008.265
24.871479988,19.33946,28.96516,11.85837,-1.037396,0.1061158,0.03586876,34.23141,-35.72775,-10.99683,1008.267
24.904040337,3.649957,33.36676,10.51198,-0.9885759,0.2219281,0.0380719,34.23141,-35.72775,-10.99683,1008.267
24.939105511,7.587714,32.77195,9.961189,-1.064014,0.1144488,-0.05533664,33.50741,-36.09169,-10.0997,1008.269
24.971665382,15.58628,27.77554,9.410395,-1.019381,0.08923166,-0.04658027,33.51798,-36.44775,-8.758875,1008.27
25.004221916,31.89106,28.31087,10.94038,-0.9615923,0.0931291,-0.09636441,33.51798,-36.44775,-8.758875,1008.272
25.039286613,35.15201,27.65658,11.49117,-1.015333,0.1545278,-0.07217373,33.16777,-37.17027,-7.414248,1008.274
25.071846962,36.93631,21.76797,8.553603,-1.016596,0.133696,-0.09037527,32.82244,-37.88504,-4.731406,1008.274
25.104407311,31.0912,19.92406,8.125207,-0.9328267,0.1699009,-0.1164895,32.82244,-37.88504,-4.731406,1008.276
25.139472008,20.38543,17.18794,8.125207,-0.9380385,0.1923408,-0.1494951,32.4625,-37.87736,-2.945929,1008.276
25.172032356,15.89392,15.04662,9.777591,-0.9602922,0.1798922,-0.1477301,32.10474,-38.23902,-2.11371,1008.276
25.204588890,13.43282,9.336453,13.51075,-0.9502685,0.1443037,-0.2014541,32.10474,-38.23902,-2.11371,1008.277
25.239653111,19.70862,-0.5373824,27.34182,-0.9638063,0.1729064,-0.2242068,31.0159,-38.60302,-0.7693167,1008.277
25.272213936,10.23339,-12.67149,46.86443,-1.048042,0.1157305,-0.2897702,30.65106,-38.60308,-0.3220568,1008.277
25.304774284,-21.5763,-31.22955,69.9978,-1.239128,0.09274338,-0.2715682,30.65106,-38.60308,-0.3220568,1008.277
25.337334156,-57.69292,-49.7876,94.04916,-1.355828,0.06475596,-0.3294044,29.19817,-39.33871,0.1339931,1008.277
25.372399330,-74.2438,-53.89178,107.0234,-1.421754,0.03052948,-0.3661162,25.90882,-40.46687,-2.077835,1008.279
25.404955864,-92.8251,-65.72849,89.76521,-1.233272,0.08756468,-0.2914713,25.90882,-40.46687,-2.077835,1008.279
25.437515259,-123.4658,-75.42388,21.16068,-0.6835414,-0.3393679,-0.3787559,21.83784,-42.69959,-5.553744,1008.279
25.472580433,-3.794865,-10.29226,-62.80489,0.1425761,-0.9667904,-1.322526,16.68284,-42.02969,-9.1109,1008.279
25.505141258,45.18099,84.57984,-94.93458,-0.05355266,-0.3585231,-0.5580222,16.68284,-42.02969,-9.1109,1008.279
25.537700653,438.0338,12.48894,4.330845,-2.023399,2.508474,0.2054336,17.37275,-39.48289,-10.0237,1008.277
25.572765827,-122.7274,-56.15206,-21.0057,-0.7483682,1.109386,0.7237566,21.01648,-36.50719,-3.365396,1008.277
25.605321884,212.6587,-54.48659,68.40662,-1.149154,1.843325,0.8445839,21.01648,-36.50719,-3.365396,1008.277
25.637882233,-188.1927,-89.46139,39.7653,-0.6015141,0.1486633,-0.1606372,20.65569,-36.87365,-3.361597,1008.278
25.672947407,170.3894,-62.63548,69.8754,-1.379276,0.3369457,0.3423143,19.20358,-37.98083,-4.241152,1008.278
25.705507279,-232.4309,-76.3161,63.87786,-1.415608,0.3772259,-0.3850017,19.20358,-37.98083,-4.241152,1008.278
25.738067627,-98.91631,-127.0533,86.76643,-1.233157,0.6046844,0.02771262,17.3777,-38.72943,-5.568202,1008.278
25.773132801,-117.0669,-150.1319,96.55833,-0.7183352,0.5009432,-0.05074054,14.41905,-38.42038,-11.36024,1008.278
25.805688858,-145.9848,-145.9683,87.99042,-0.524004,0.09028642,0.3904137,14.41905,-38.42038,-11.36024,1008.278
25.838249207,-14.43912,-136.5703,84.99165,-0.3653546,-0.01051249,0.4597791,10.01608,-39.57899,-17.4557,1008.278
25.870809555,35.02896,-144.7192,92.88638,-0.07016721,0.1551715,0.673741,5.21316,-38.18362,-21.84768,1008.28
25.905874252,44.25808,-143.589,115.7749,-1.004106,0.3879832,0.4539075,5.21316,-38.18362,-21.84768,1008.277
25.938434601,130.5196,-193.7315,133.8288,-0.615465,0.4612632,0.2042611,-1.089282,-37.50143,-21.8325,1008.277
25.970994949,179.6185,-180.6457,163.9389,0.1866129,0.7384791,0.1120077,-6.554064,-38.98125,-19.19152,1008.277
26.006055355,150.3929,-129.2541,215.4688,0.5769797,2.005707,1.077416,-6.554064,-38.98125,-19.19152,1008.277
26.038616180,-52.89378,-127.8266,160.8177,0.4713022,0.3088309,-0.03065087,-13.84928,-39.72564,-12.91751,1008.279
26.071176529,-199.6983,-140.0202,72.56818,0.5858607,0.9079123,1.077094,-23.07658,-38.68089,-9.454302,1008.279
26.106240749,467.3209,25.51527,-34.34717,0.2535094,2.58502,1.009709,-23.07658,-38.68089,-9.454302,1008.279
26.138801575,-47.29478,92.96665,44.90604,0.7105471,2.179718,1.559935,-28.2583,-35.44365,-9.46116,1008.281
26.171361446,445.3556,143.2281,181.1971,0.3804294,0.787062,0.137214,-28.97512,-34.67778,-1.944506,1008.279
26.206422329,230.7478,120.8632,132.6048,-0.4827879,1.926356,-0.1070449,-30.4442,-33.94783,0.285387,1008.279
26.238982678,40.5049,131.1534,38.60251,-1.072001,2.090223,0.1087096,-30.4442,-33.94783,0.285387,1008.277
26.271542549,-314.0163,15.81988,-0.2591094,-1.347299,0.4733528,-0.2738745,-33.79515,-29.95424,2.943795,1008.277
26.304103375,-218.7103,-35.09581,-6.991043,-0.6787761,-0.1347675,-0.04404254,-33.79515,-29.95424,2.943795,1008.276
26.339168072,-128.5725,-53.17801,52.43357,0.1943814,0.1752121,-0.190003,-34.57831,-28.54783,-4.583771,1008.274
26.371727944,20.26237,-31.28903,74.71015,0.1870736,0.1994351,0.1245686,-34.58894,-28.93747,-9.041879,1008.274
26.404284477,106.8315,-19.69024,103.9635,0.3228561,0.4693114,0.375077,-35.73069,-26.34068,-9.503098,1008.272
26.439349651,74.52959,-7.139767,126.6684,0.757958,0.5613759,0.2948543,-35.73069,-26.34068,-9.503098,1008.272
26.471909523,75.88319,-2.321811,104.8815,1.787381,0.8631204,0.4816641,-37.64601,-24.52497,-7.725723,1008.272
26.504469872,21.6775,58.88408,75.87294,1.30661,1.357881,0.8120887,-40.62728,-21.26927,-7.293642,1008.268
26.539534569,-60.70776,78.39382,16.99912,0.9177244,1.238017,0.9387303,-40.62728,-21.26927,-7.293642,1008.268
26.572094917,-51.29406,30.63063,-41.01791,-0.1789038,1.334003,1.054363,-42.1435,-18.37712,-8.647991,1008.266
26.604651451,-157.675,-80.30132,-38.99833,-0.1443175,0.8356478,0.8756115,-40.69877,-17.65441,-11.3344,1008.266
26.639715672,-374.2517,-108.3168,-4.604267,0.9326984,-1.030059,-0.7524192,-40.69877,-17.65441,-11.3344,1008.266
26.672276497,217.2118,-87.91488,59.2267,1.017932,-0.1800614,-0.2875763,-39.96862,-17.65354,-12.10147,1008.265
26.704836846,140.4255,45.20346,38.05171,1.500589,0.3594484,-0.300113,-40.35091,-15.81721,-8.672214,1008.263
26.737396717,-131.1567,122.2313,-2.095091,0.3656261,0.3412383,0.127043,-40.35091,-15.81721,-8.672214,1008.261
26.772461891,-162.5357,142.9901,-65.80367,0.2028752,-0.5008711,0.2661329,-41.829,-15.47432,-10.45436,1008.257
26.805018425,-64.21483,144.6556,-95.60777,-0.1216971,-0.8470838,0.1219517,-40.76495,-14.77676,-17.02678,1008.257
26.837578297,183.4947,51.98429,-99.27973,-0.1814537,0.05754421,-0.2934279,-40.76495,-14.77676,-17.02678,1008.257
26.872642994,-51.90934,48.29647,-130.1854,0.6073889,0.5206578,0.2673094,-37.83651,-15.50646,-21.04571,1008.255
26.905202866,-78.73531,132.7594,-149.708,0.70764,0.5140446,0.4048741,-35.5074,-20.22705,-22.29359,1008.253
26.937763691,16.26309,259.5133,-200.3811,-0.2735033,-0.2145885,0.604007,-35.5074,-20.22705,-22.29359,1008.253
26.972828865,1107.76,54.60145,291.2948,-3.389948,8.946005,3.585644,-32.56276,-22.42232,-28.08637,1008.255
27.005384445,-1265.354,-47.8842,82.29887,-0.628194,1.953178,0.3082419,-22.56231,-27.83766,-22.726,1008.257
27.037944794,391.4575,-96.06377,13.32716,0.6379006,-0.6308646,0.4928505,-22.56231,-27.83766,-22.726,1008.257
27.073009968,-44.40299,-37.41556,-5.705856,-0.01557085,0.4833375,0.06335624,-25.08795,-31.89427,-28.93396,1008.259
27.105569840,-72.82867,-12.61201,-18.55773,0.1944571,-0.3042084,-0.2504887,-26.57403,-29.32718,-23.59462,1008.26
27.138130188,28.26094,17.84223,-5.583457,-0.14082,0.1641005,-0.09752398,-26.57403,-29.32718,-23.59462,1008.26
27.170691013,-32.83583,7.492544,-22.16849,0.08319567,0.08391672,0.1137223,-26.95675,-28.60996,-24.93687,1008.26
27.205751419,74.89876,51.09208,-50.99341,0.06752437,0.144279,0.3664977,-26.57487,-29.70133,-25.3763,1008.26
27.238311768,390.5961,21.0542,66.81543,-0.6107601,2.070051,0.6261367,-26.57487,-29.70133,-25.3763,1008.262
27.270871639,-157.9211,32.17714,-4.053472,-0.0387588,2.957747,1.567695,-25.81999,-30.77972,-24.03263,1008.264
27.305936813,7.649242,-38.12933,-12.56019,0.04693558,0.9655416,0.4370522,-26.45811,-35.48134,-18.26109,1008.264
27.338497162,-94.4248,2.674588,-7.419439,0.09546072,0.6340013,0.3797426,-26.45811,-35.48134,-18.26109,1008.262
27.371057034,-48.83297,-23.2591,2.311265,0.1325971,0.2784595,0.3307786,-25.74468,-34.76134,-20.49905,1008.264
27.406117916,-16.22341,-0.4184205,10.32839,0.01533209,0.3936015,0.3249144,-25.77938,-32.95225,-22.23267,1008.264
27.438678742,46.16543,-0.1210158,10.45078,0.1548355,0.3712035,0.3065531,-25.77938,-32.95225,-22.23267,1008.266
27.471238613,98.34071,21.29212,4.88164,0.09751474,0.861849,0.5122784,-26.15884,-32.22986,-22.68278,1008.266
27.506303787,45.55016,15.46299,-2.339889,-0.07815497,1.260736,0.6780479,-26.51171,-32.58377,-20.51234,1008.266
27.538863182,10.04881,-9.697447,-4.971463,-0.06971515,1.276188,0.6178533,-26.51171,-32.58377,-20.51234,1008.267
27.571424008,-7.855678,-12.25513,-2.645886,0.02750651,1.074479,0.5789123,-26.11762,-34.02862,-19.16487,1008.267
27.603980541,0.3274744,-6.901843,3.657652,-0.03313419,0.7791987,0.4647394,-26.10058,-35.12005,-19.15704,1008.263
27.639044762,23.03111,-6.307034,3.84125,0.005938382,0.6683107,0.3803524,-26.10058,-35.12005,-19.15704,1008.263
27.671605110,42.84295,-1.608039,6.472824,0.01327293,0.8284097,0.3576523,-26.47515,-34.38991,-18.26893,1008.263
27.704165936,30.4144,-1.132192,3.535253,-0.001483911,0.9182702,0.3271346,-26.09974,-34.74591,-17.37536,1008.261
27.739230156,1.742606,-1.727001,-1.1771,0.001286331,0.8962866,0.3596662,-26.09974,-34.74591,-17.37536,1008.26
27.771790504,-4.533195,-0.9537489,-2.339889,0.03160733,0.9377647,0.4095742,-26.44995,-35.46843,-16.03073,1008.261
27.804347038,-4.779305,-0.002053916,1.454474,0.04088764,0.9402116,0.4323213,-26.44995,-35.46843,-16.03073,1008.261
27.839411735,3.403847,-3.808834,4.514443,0.02597374,0.9211347,0.4165765,-26.44995,-35.46843,-16.03073,1008.261
27.871972084,21.12375,-1.01323,8.431204,0.04485682,1.014212,0.4160448,-26.45158,-35.47101,-16.4768,1008.261
27.904531956,-5.825271,-3.57091,11.12398,0.05787942,1.017941,0.3817694,-26.82373,-35.10984,-16.47823,1008.261
27.939597130,-12.71635,-5.652743,14.91834,0.02110254,0.9595434,0.3997656,-27.1902,-35.11249,-16.47704,1008.261
27.972157478,-22.68379,-4.938972,16.57072,0.04871686,0.8794208,0.3569462,-27.1902,-35.11249,-16.47704,1008.261
28.004713535,-3.179591,-1.905444,17.67231,0.03621657,0.821945,0.3488307,-27.56236,-34.75133,-16.47846,1008.261
28.037273884,1.496496,-1.727001,17.06032,0.03741775,0.842414,0.3399577,-27.56236,-34.75133,-16.47846,1008.257
28.072338104,2.60399,2.555626,15.77513,0.01964975,1.002735,0.4096102,-27.5794,-33.6599,-16.48629,1008.257
28.104898930,-11.67038,0.2358698,16.99912,-0.01262795,0.9802721,0.447002,-28.68044,-33.67042,-16.9288,1008.259
28.137459278,-24.09892,-3.273506,21.09948,0.0410114,0.8915287,0.4504301,-28.68044,-33.67042,-16.9288,1008.261
28.172523499,-11.23969,-0.5968633,23.91465,0.07678043,0.8682815,0.4282889,-28.69749,-32.57899,-16.93663,1008.261
28.205080032,-7.978733,-0.4779014,23.05786,0.114161,0.8813447,0.4415033,-29.06559,-32.58422,-17.38152,1008.261
28.237640858,-19.42284,0.2358698,20.67109,0.1493823,0.8273429,0.4474128,-29.82289,-31.13685,-17.83566,1008.261
28.272705078,-31.91291,2.555626,18.03951,0.1432311,0.7632569,0.4150214,-29.82289,-31.13685,-17.83566,1008.261
28.305265427,-33.88179,4.280574,15.46914,0.1879498,0.7269452,0.4057236,-30.19099,-31.14208,-18.28054,1008.262
28.337825298,-34.49707,12.54842,15.10194,0.1651223,0.7640572,0.4087286,-30.94991,-29.6973,-19.18075,1008.262
28.372890472,-40.8344,7.849431,9.716392,0.1416908,0.6670003,0.5223142,-30.94991,-29.6973,-19.18075,1008.262
28.405447006,-22.62227,2.912512,-1.972692,0.2251701,0.5261332,0.5307188,-30.97185,-28.61361,-20.5268,1008.264
28.438006878,28.26094,5.827078,-5.093862,0.1611797,0.7294835,0.6242745,-32.09391,-27.47687,-21.80599,1008.266
28.473072052,1.927188,6.957216,-8.276231,0.1886489,0.7693692,0.6954295,-32.09391,-27.47687,-21.80599,1008.266
28.505632401,32.01411,5.291749,-10.35701,0.1337322,0.767979,0.7365483,-30.97916,-28.25239,-20.97548,1008.266
28.538192272,53.4872,5.94604,-10.29581,0.1514233,0.8505032,0.5961609,-30.23486,-28.97471,-20.97264,1008.266
28.570752621,66.46949,1.722893,-6.929844,0.06563409,0.9801714,0.5856541,-30.23486,-28.97471,-20.97264,1008.264
28.605813027,41.98156,-11.24395,2.250066,0.05626092,0.9655282,0.466529,-30.58508,-29.69723,-19.62801,1008.264
28.638373852,72.00697,-7.437171,14.18395,0.09390982,1.190367,0.4022501,-31.28471,-31.51383,-18.27436,1008.266
28.670934200,34.2291,-6.961324,19.0187,0.07671252,1.187097,0.3243932,-31.28471,-31.51383,-18.27436,1008.266
28.705998898,-50.06351,-24.86509,7.329616,0.0971318,0.8335915,0.420006,-30.90441,-31.86208,-16.04258,1008.266
28.738559246,-10.68594,-23.91339,19.2635,0.1443833,0.9153934,0.4154079,-31.63572,-31.86479,-15.59413,1008.268
28.771119118,14.97101,-25.4599,22.69066,0.1648139,0.9555945,0.3976332,-31.63572,-31.86479,-15.59413,1008.269
28.806180000,-0.2262726,-22.06948,18.7127,0.191414,0.9064476,0.4862824,-32.75623,-30.4149,-15.15494,1008.271
28.838740349,-6.932765,-34.85788,18.8963,0.2237127,0.8015743,0.4488814,-32.74728,-30.77355,-14.26018,1008.271
28.871300220,1.004277,-39.43791,18.16191,0.211521,0.8028755,0.4484296,-32.74728,-30.77355,-14.26018,1008.267
28.906365395,2.788573,-43.60158,19.99789,0.2605974,0.9162621,0.3442526,-33.86048,-29.68489,-13.3723,1008.269
28.938926220,-10.56289,-41.3413,20.12029,0.2988752,0.9313807,0.3357455,-34.96231,-29.32385,-12.47921,1008.269
28.971485615,-7.178875,-36.34491,17.42752,0.2693369,0.9824777,0.4496638,-34.96231,-29.32385,-12.47921,1008.27
29.004046440,-23.79129,-40.27065,9.165597,0.2305227,0.9265405,0.2429293,-35.33976,-28.22548,-10.82901,1008.27
29.039106846,-28.03668,-40.50857,-6.623847,0.2881446,0.7327452,0.379613,-36.49862,-28.23128,-10.37918,1008.272
29.071667194,-46.12576,-37.11816,-8.276231,0.3365552,0.7747456,0.2608129,-36.49862,-28.23128,-10.37918,1008.274
29.104227543,-18.37687,-24.38924,-14.82457,0.3331944,0.7997658,0.2002924,-36.07349,-27.85921,-9.49103,1008.269
29.139292240,-28.83654,-28.01758,-7.664237,0.4271409,0.8447536,0.1955709,-36.49778,-27.85713,-8.597498,1008.269
29.171852589,-31.72833,-11.77928,-5.950654,0.3945479,0.8229223,0.306446,-36.49778,-27.85713,-8.597498,1008.271
29.204412460,3.403847,-5.652743,0.6588815,0.2921755,0.7301151,0.2224715,-35.70376,-27.8514,-8.600074,1008.271
29.239473820,-0.2262726,-7.734576,16.99912,0.3232809,1.056035,0.3540585,-35.69971,-28.21779,-9.043535,1008.273
29.272034168,-14.86981,7.433064,26.54623,0.2297072,1.041646,0.2582207,-35.69971,-28.21779,-9.043535,1008.275
29.304594040,-41.14203,-6.604438,28.13741,0.2725911,0.7443798,0.4479616,-36.44659,-27.43741,-9.492887,1008.275
29.339659214,-16.22341,-2.381292,25.99543,0.400195,0.69231,0.4011233,-37.24061,-27.44314,-9.490311,1008.275
29.372218609,-9.024699,11.65621,12.34797,0.4625738,0.4360584,0.3928032,-37.24061,-27.44314,-9.490311,1008.275
29.404779434,32.01411,32.23662,-1.911493,0.5559142,0.6727072,0.4552955,-37.26497,-25.99049,-9.946828,1008.276
29.437335968,17.67822,29.20309,-20.27131,0.4606402,0.7718763,0.603847,-37.27959,-25.26803,-10.84419,1008.276
29.472400189,19.70862,21.29212,-19.84292,0.3658161,0.9375943,0.6552878,-37.27959,-25.26803,-10.84419,1008.276
29.504960537,30.90662,14.68974,-12.13179,0.2777402,0.9795032,0.4863469,-37.65338,-24.90945,-11.29169,1008.278
29.537520409,-0.1032177,11.12088,-12.80499,0.2422475,0.9157396,0.4061346,-36.90339,-25.99559,-11.28623,1008.278
29.572585583,-6.009854,8.325278,-10.66301,0.2809692,0.8468708,0.3784608,-36.90339,-25.99559,-11.28623,1008.274
29.605145931,-1.579877,6.957216,-6.868644,0.2043754,0.9150443,0.4501478,-36.52127,-27.08659,-11.66193,1008.274
29.637701988,-13.45468,1.663412,-8.031433,0.2661249,0.8922944,0.4995289,-36.08804,-27.44731,-11.66071,1008.276
29.672767162,-6.379018,0.1763889,-6.562647,0.3115502,0.7990457,0.5082134,-36.08804,-27.44731,-11.66071,1008.277
29.705327034,0.6351117,-0.4184205,-7.419439,0.3207816,0.7569298,0.4978944,-35.3565,-27.44423,-12.04544,1008.277
29.737887383,6.72633,0.5927554,-13.35578,0.3613106,0.6978551,0.4592506,-35.72297,-27.44688,-12.04425,1008.276
29.772952557,22.10819,0.8306792,-18.68013,0.3291292,0.7792089,0.432487,-35.71066,-28.23513,-12.03859,1008.276
29.805512428,13.37129,-0.7753062,-19.90412,0.2716358,0.9077217,0.4364366,-35.71066,-28.23513,-12.03859,1008.272
29.838068962,17.186,1.960817,-18.00694,0.2484767,0.8813426,0.3998033,-34.23631,-28.58393,-11.27604,1008.272
29.870628834,14.17115,0.7711983,-17.02774,0.2653078,0.7808132,0.4311229,-34.23631,-28.58393,-11.27604,1008.272
29.905693531,22.60041,2.020298,-13.41698,0.2461614,0.8663488,0.3773414,-34.96193,-28.95045,-10.82498,1008.272
29.938254356,18.60113,1.603931,-16.10975,0.2160036,0.8525782,0.3268892,-34.19895,-30.76163,-10.36823,1008.272
29.970814228,13.49435,-1.727001,-19.84292,0.217409,0.861735,0.3478128,-34.19895,-30.76163,-10.36823,1008.272
30.005879402,16.75531,0.05742703,-17.70094,0.2284148,0.9885815,0.2738472,-34.19895,-30.76163,-10.36823,1008.272
30.038435459,5.557308,6.124483,-17.33374,0.2997309,0.9206702,0.2360056,-33.46275,-30.75117,-9.478461,1008.272
30.070995331,2.111771,15.28455,-19.72052,0.2454354,1.022613,0.4261303,-33.44976,-31.47621,-9.027167,1008.266
30.106060505,-7.240403,9.75282,-37.10115,0.1662376,0.9167923,0.5966744,-33.44976,-31.47621,-9.027167,1008.266
30.138620377,-9.763029,0.8306792,-50.19782,0.3039194,0.7839072,0.5021893,-32.33088,-32.92867,-9.912433,1008.266
30.171180725,27.2765,10.16919,-54.78777,0.2537915,1.01164,0.4051696,-31.21279,-34.00958,-9.462093,1008.266
30.206245422,18.72418,17.72326,-52.095,0.2184942,1.226791,0.3383965,-31.21279,-34.00958,-9.462093,1008.267
30.238801956,-31.17458,26.46696,-49.27983,0.1719845,1.079426,0.3342596,-29.7396,-34.36023,-9.018166,1008.267
30.271362305,-36.15831,34.14001,-46.58705,0.1724372,0.9251434,0.3826599,-27.8821,-36.17121,-9.903198,1008.267
30.303922176,-13.63926,52.63858,-47.68864,0.002679347,0.8266254,0.3987224,-27.8821,-36.17121,-9.903198,1008.267
30.338987351,-13.33162,53.88768,-60.47932,-0.03561223,0.9540493,0.4828774,-26.42112,-36.16837,-11.24617,1008.267
30.371547222,-28.89807,53.29287,-73.39239,-0.05941402,0.903272,0.4656909,-24.57046,-37.61739,-12.45243,1008.267
30.404107571,-39.78843,45.20346,-85.08147,-0.09560402,0.7558695,0.4992469,-24.57046,-37.61739,-12.45243,1008.267
30.439168930,-13.63926,45.97672,-88.38624,-0.0671267,0.7419611,0.3274084,-22.36843,-38.34205,-14.6847,1008.267
30.471728325,1.065804,47.2853,-81.28711,-0.164547,0.901759,0.284503,-17.96595,-39.04824,-16.47803,1008.267
30.504289150,-6.748183,48.89128,-79.20633,-0.1992823,0.7482039,0.2860608,-17.96595,-39.04824,-16.47803,1008.267
30.539353371,-8.347898,45.3819,-81.28711,-0.3569124,0.723593,0.4356843,-14.96579,-39.38785,-16.03906,1008.267
30.571913719,-23.66823,44.66813,-84.77547,-0.3738338,0.5815828,0.4079151,-12.38834,-40.46851,-17.37776,1008.267
30.604474545,-18.99215,43.00267,-86.91746,-0.467832,0.5442991,0.4282222,-12.38834,-40.46851,-17.37776,1008.267
30.639534950,-0.5954374,44.07333,-89.97742,-0.5254159,0.5280818,0.3033191,-8.713907,-41.17224,-17.8305,1008.267
30.672095299,4.880507,48.47491,-81.9603,-0.6305942,0.7713146,0.2732951,-5.039469,-41.87598,-18.28324,1008.267
30.704655171,-9.024699,51.56792,-72.2296,-0.7196355,0.8042142,0.2646988,-5.039469,-41.87598,-18.28324,1008.263
30.737215519,-29.51334,52.34118,-66.53806,-0.7462014,0.6566727,0.2499058,-1.367451,-42.21074,-17.84644,1008.263
30.772280693,-34.62012,51.56792,-59.37773,-0.7680067,0.6984652,0.2950351,1.554583,-41.45936,-17.4151,1008.265
30.804840565,-48.52533,47.99907,-54.23698,-0.7166675,0.5624142,0.327713,1.554583,-41.45936,-17.4151,1008.265
30.837397099,-33.69721,46.98789,-50.93221,-0.7602642,0.5082127,0.3651149,4.16875,-41.08691,-19.21052,1008.265
30.872617722,-29.26723,39.85018,-53.07419,-0.7199419,0.3820895,0.321098,7.44668,-39.97683,-20.1212,1008.265
30.905177116,-0.410855,37.47094,-54.35938,-0.72069,0.451944,0.3477834,7.44668,-39.97683,-20.1212,1008.265
30.937737942,-16.77716,35.38911,-53.56379,-0.6887103,0.4830364,0.2293162,9.27009,-39.60495,-21.0219,1008.262
30.972802162,-11.30122,40.86135,-51.6054,-0.7197977,0.5276171,0.2759472,10.71893,-38.50293,-21.03448,1008.267
31.005362988,-32.71277,47.8801,-52.0338,-0.6802968,0.4263548,0.2134587,10.71893,-38.50293,-21.03448,1008.262
31.037919045,-25.63711,53.76872,-51.789,-0.9167103,0.4223521,0.3083677,13.65069,-38.48175,-21.04399,1008.262
31.072983742,-22.99143,51.56792,-52.40099,-0.9082142,0.3123064,0.271394,16.19894,-37.3718,-21.06015,1008.262
31.105544090,-14.99286,47.40426,-53.74738,-0.9249787,0.3257883,0.2513141,16.19894,-37.3718,-21.06015,1008.264
31.173169136,-33.20499,51.15156,-54.48177,-0.9224488,0.2624453,0.1875063,20.55114,-34.42955,-21.0953,1008.264
31.205729008,-40.89592,56.74276,-51.36061,-1.24992,0.1802594,0.1150287,20.55114,-34.42955,-21.0953,1008.266
31.238285542,-13.33162,46.0362,-49.34103,-1.250069,0.1064479,0.1008516,22.7305,-32.95326,-20.22074,1008.266
31.270845890,-19.1152,39.73122,-46.77065,-1.100387,0.120837,0.03808766,25.3301,-31.11266,-19.79624,1008.267
31.305910587,1.188859,36.99509,-44.56747,-1.046456,0.2267595,0.0918563,25.3301,-31.11266,-19.79624,1008.269
31.338470936,1.742606,35.92443,-46.15866,-1.015848,0.1394082,0.04408992,26.40842,-29.64689,-19.36418,1008.271
31.371030808,-18.49993,26.22904,-46.15866,-1.035963,0.05915579,-0.0001355662,28.58047,-27.80937,-18.93829,1008.274
31.406095982,-0.04169029,25.81267,-41.5075,-1.05462,0.03499311,0.02271589,30.77187,-26.99749,-17.61287,1008.272
31.438652516,-0.6569648,25.15838,-38.50873,-0.9816216,-0.01053004,-0.0172026,30.77187,-26.99749,-17.61287,1008.272
31.471211910,-6.255963,27.95399,-36.30555,-0.9898738,0.0382474,0.02705344,31.4894,-25.89818,-17.17701,1008.274
31.506277084,-10.3783,25.99112,-36.61155,-0.9813815,0.06216465,0.02886027,33.67281,-24.78828,-16.7459,1008.275
31.538836956,-2.072096,36.3408,-41.9359,-0.9986686,-0.0473117,0.006421536,33.67281,-24.78828,-16.7459,1008.277
31.571397305,-35.54303,27.47814,-36.36675,-0.9618378,-0.03746938,-0.02149971,34.01982,-23.32523,-15.86539,1008.277
31.606462002,-12.40871,24.44461,-30.73641,-0.9806949,-0.09973514,-0.06303512,35.83513,-22.22056,-15.87917,1008.277
31.639018536,-2.748899,26.58593,-25.41206,-1.000118,-0.1086498,-0.08200407,35.83513,-22.22056,-15.87917,1008.279
31.671578884,-9.639974,26.22904,-24.00447,-0.9564046,-0.1886179,-0.1127523,37.29455,-21.4746,-14.55093,1008.281
31.704138756,0.01983716,24.02824,-16.04855,-0.9801583,-0.1596912,-0.1292062,37.64724,-20.37536,-13.66781,1008.281
31.739203930,3.649957,19.09133,-8.704627,-0.9930376,-0.1922186,-0.1736773,37.64724,-20.37536,-13.66781,1008.281
31.771763802,-2.933481,16.95001,-2.339889,-0.9725671,-0.1382975,-0.1095521,38.73123,-19.2734,-13.23314,1008.281
31.804324150,-1.825987,17.36638,0.5976821,-0.9520844,-0.1941543,-0.1650456,38.7345,-19.26824,-12.34099,1008.281
31.839384556,5.803418,18.02067,1.393274,-0.9798152,-0.03069768,-0.1717092,38.7345,-19.26824,-12.34099,1008.281
31.871944904,13.86351,15.99832,2.433664,-0.9540777,-0.2254315,-0.1331346,39.48019,-19.98835,-11.9558,1008.281
31.904505730,12.57144,25.99112,4.82044,-0.9633276,-0.1039657,-0.151091,39.09808,-18.89735,-11.5801,1008.277
31.939569950,55.9483,29.85738,10.45078,-0.9491326,-0.1955981,-0.1597533,39.09808,-18.89735,-11.5801,1008.277
31.972130775,40.19727,39.61226,16.01993,-1.009709,-0.05636523,-0.1706218,39.47676,-19.24818,-9.794386,1008.275
32.004690170,64.06992,45.85775,23.97585,-0.9829652,-0.1171893,-0.07876727,39.50359,-20.32412,-7.110121,1008.275
32.039751530,34.84438,51.80585,30.03459,-0.9557404,-0.206533,-0.125594,39.50359,-20.32412,-7.110121,1008.275
32.072311878,52.19512,41.69409,37.43972,-1.058509,-0.03921057,-0.1287426,39.5231,-21.03882,-4.874539,1008.275
32.104871750,-14.25453,32.11766,40.92809,-1.382481,-0.3038185,0.1633597,38.81676,-22.12042,-2.251621,1008.275
32.137432098,128.9814,-38.72414,55.61594,-1.833267,-0.2280641,0.8044581,38.81676,-22.12042,-2.251621,1008.275
32.172496796,243.607,-76.91091,92.02958,-1.416722,-0.05699407,0.08160073,38.11306,-23.57063,-0.4545116,1008.277
32.205057144,185.4021,-92.49491,105.8606,-1.20265,0.6391641,0.1205342,35.59164,-25.75652,2.245908,1008.272
32.237613201,69.05365,-105.4618,92.58038,-0.9671167,0.3047362,-0.1535528,35.59164,-25.75652,2.245908,1008.278
32.272678375,18.23196,-113.1348,90.1936,-0.5131482,0.3350256,-0.3811994,33.43764,-28.0004,4.945574,1008.278
32.305238724,-99.65464,-76.97039,59.3491,-0.4188334,0.2496099,-0.4580003,30.92916,-31.65704,4.980007,1008.278
32.337798596,-70.36757,-117.239,55.73834,-1.094036,0.07264594,0.8155831,30.92916,-31.65704,4.980007,1008.274
32.372863770,-311.0015,25.81267,-5.644657,-0.1434683,-1.428715,-2.197442,27.27655,-33.52839,0.5442305,1008.274
32.405423164,594.4981,88.80299,49.3736,-1.380317,0.4045145,-1.361524,26.55346,-35.75492,-6.06508,1008.272
32.437979698,-163.3971,68.99583,-6.379049,-1.897003,1.670458,-0.8936212,26.55346,-35.75492,-6.06508,1008.272
32.473044396,-352.9632,9.633859,1.209676,-0.9843249,-0.3088982,-0.3533485,26.96048,-35.68807,5.021805,1008.274
32.505604744,-23.05296,-1.905444,14.36755,-1.244633,-0.4688727,-0.01669074,26.93848,-35.35009,0.5584745,1008.274
32.538165093,42.84295,-6.009629,8.370005,-0.8742397,0.1942184,0.2589254,26.93848,-35.35009,0.5584745,1008.272
32.570724964,31.21426,8.44424,10.81798,-0.63093,0.1781896,0.1003818,27.31384,-36.45179,-1.66524,1008.272
32.605790138,60.99355,23.49292,9.532793,-0.8082148,0.3132316,0.1417667,26.58821,-36.81831,-1.214179,1008.274
32.638346195,2.234826,13.38116,-3.319079,-0.9565653,0.1845872,0.005085065,26.58821,-36.81831,-1.214179,1008.274
32.670906544,-14.68523,4.518497,-1.605496,-1.421926,0.1078374,-0.2672945,26.22827,-36.81062,0.5712967,1008.274
32.705970764,-4.533195,-0.8347871,-6.134252,-1.21253,0.1604337,-0.2251237,26.9872,-38.25541,1.471508,1008.27
32.738531590,20.93917,7.314102,-0.809904,-0.8184957,0.07091412,-0.03835284,26.9872,-38.25541,1.471508,1008.272
32.771091938,51.0261,11.53725,0.9648786,-0.8442522,0.2842313,0.004079984,26.60205,-37.1692,1.018791,1008.273
32.806156635,2.60399,3.566802,-6.31785,-0.8747109,0.2364017,0.06718542,27.70309,-37.15868,1.461297,1008.273
32.838712692,-7.178875,0.116908,-8.827025,-1.005682,-0.03895774,-0.03356452,27.70309,-37.15868,1.461297,1008.275
32.871272564,23.89249,-2.381292,-4.665466,-1.117468,0.02947753,-0.01307748,27.33825,-37.15874,1.908558,1008.275
32.906337738,27.39956,-8.507828,-2.095091,-1.021135,0.02660334,-0.06638575,27.34557,-37.51997,2.357241,1008.277
32.938897610,29.79913,-4.106239,-0.3203089,-0.8781976,0.2967917,-0.07593618,27.34557,-37.51997,2.357241,1008.277
32.971457958,-3.056536,9.217492,1.393274,-0.9441584,0.3015739,-0.1405721,28.07041,-36.78189,3.241785,1008.277
33.004018784,-38.00413,2.912512,-4.543067,-1.137354,0.0761018,0.04372475,27.34478,-37.14841,3.692845,1008.279
33.039079189,4.880507,-0.894268,-5.522258,-0.9854105,0.04285747,-0.1178936,27.34478,-37.14841,3.692845,1008.275
33.071639538,4.634397,5.113307,-3.25788,-0.9060046,0.300328,-0.07827228,27.70394,-36.78454,3.242973,1008.275
33.104199410,-2.502789,9.990745,0.6588815,-0.9538102,0.2038983,-0.1710555,27.3391,-36.7846,3.690234,1008.275
33.139264584,-19.36131,10.34763,-0.6263058,-1.058596,0.138607,-0.114912,26.971,-36.78983,3.245351,1008.275
33.171824455,-20.8995,2.615107,-2.278689,-0.9778948,0.09340154,0.009998389,26.971,-36.78983,3.245351,1008.275
33.204384804,-14.99286,-1.251154,-3.074282,-0.9936333,-0.01478923,0.02963156,27.3391,-36.7846,3.690234,1008.276
33.239445210,24.56929,3.626283,-1.483097,-0.9006778,0.1399169,-0.05752262,27.3342,-36.79235,2.352018,1008.276
33.272005558,17.30905,9.217492,-1.972692,-0.9677402,0.2366019,-0.1352566,27.3342,-36.79235,2.352018,1008.278
33.304566383,14.7249,6.302926,-5.583457,-1.020902,0.2489063,-0.1079485,27.33342,-36.42079,3.687623,1008.278
33.339630604,-20.16117,-2.202849,-11.581,-1.049665,-0.04066608,-0.1041211,26.95884,-35.69065,4.575733,1008.278
33.372190952,31.82953,-2.91662,-14.57977,-1.023221,0.1037687,-0.1541478,26.95884,-35.69065,4.575733,1008.278
33.404750824,35.82882,1.603931,-11.887,-0.9517843,0.1386779,-0.2508429,26.94585,-34.96561,4.124439,1008.275
33.437307358,32.1987,4.399536,-9.500219,-0.998172,0.1981799,-0.216054,27.67801,-34.58876,5.457666,1008.277
33.472372055,6.97244,3.864207,-11.3974,-0.9076307,0.1586246,-0.02339412,27.67801,-34.58876,5.457666,1008.277
33.504932404,14.78643,2.079779,-7.29704,-0.9083287,0.1177367,0.09441008,27.67535,-34.22015,6.283476,1008.277
33.537492752,28.19941,2.496145,-2.768285,-0.8718663,0.1852699,-0.0090042,27.6713,-33.85376,6.726936,1008.279
33.572557449,14.84795,-7.556133,-2.523487,-0.8875013,0.2578761,0.1173132,27.6713,-33.85376,6.726936,1008.279
33.605117798,-9.209282,-8.150942,-2.890683,-1.035629,-0.0597706,-0.03143626,28.03698,-33.47955,8.061352,1008.275
33.637673855,33.92146,-4.998453,1.515673,-1.130067,0.0286676,-0.190477,28.02967,-33.11832,7.612669,1008.275
33.672738552,1.311914,-0.5968633,-1.911493,-1.058752,-0.04685128,-0.2651712,28.02967,-33.11832,7.612669,1008.275
33.705298424,23.03111,6.302926,-1.421898,-1.012188,0.1318051,-0.08944162,28.04103,-33.84594,7.617891,1008.276
33.737859249,17.98586,2.674588,-0.6875052,-0.9127731,0.07784116,-0.121297,28.03862,-33.47697,8.507423,1008.278
33.772923469,-1.149184,4.340055,1.026078,-1.022522,0.2135634,-0.1423225,28.03862,-33.47697,8.507423,1008.278
33.805483818,-30.3132,-0.8347871,-6.134252,-1.041145,-0.002110491,-0.2210017,27.66404,-32.74683,9.395535,1008.28
33.838039875,-2.256679,1.247046,-3.074282,-1.007695,0.03950268,-0.08553701,27.66241,-32.74941,8.949463,1008.28
33.870600224,5.557308,-0.06153485,-2.033892,-0.9814246,0.04749924,-0.05885464,27.66241,-32.74941,8.949463,1008.276
33.905665398,16.44767,-5.236377,-3.074282,-0.9676824,0.1248943,-0.04560272,28.0232,-32.38295,8.945663,1008.277
33.938225269,19.2164,-4.641567,-4.543067,-0.9664019,0.1271449,-0.108892,28.02888,-32.74676,8.948275,1008.277
33.970785618,-1.764459,-2.976101,-6.501448,-0.9608054,0.1424162,-0.137667,28.02888,-32.74676,8.948275,1008.276
34.005850315,-13.14704,1.603931,-7.970233,-0.98868,0.1171193,-0.1056398,27.647,-31.6554,9.387701,1008.276
34.038406849,-21.39172,-1.964925,-8.031433,-0.9779775,0.04129061,-0.07297062,28.74315,-31.65262,8.491989,1008.276
34.070966721,-1.764459,-2.024406,-7.113442,-0.9925681,0.03916526,-0.07492246,28.74315,-31.65262,8.491989,1008.276
34.106031418,3.957594,-4.641567,-5.33866,-0.9857104,0.03252176,-0.0904985,28.73747,-31.28881,8.489378,1008.276
34.138591290,11.15631,-4.82001,-2.951883,-0.9893814,0.04342005,-0.145917,28.73747,-31.28881,8.489378,1008.276
34.171152115,8.449099,-4.701048,-1.789094,-0.9849569,0.08710109,-0.1201193,28.73747,-31.28881,8.489378,1008.276
34.206216812,8.326043,-2.738177,1.209676,-0.9672765,0.08087222,-0.08929527,29.10231,-31.28875,8.042118,1008.273
34.238772869,12.81755,-3.273506,4.636842,-1.00695,0.06323702,-0.06584055,29.09663,-30.92494,8.039507,1008.273
34.271333218,2.788573,-2.500253,2.005268,-1.004126,0.02308336,-0.09835875,29.09663,-30.92494,8.039507,1008.275
34.306397915,4.572869,-3.57091,2.433664,-1.007282,0.05153369,-0.05828476,29.09989,-30.91977,8.931652,1008.275
34.338958263,4.265232,-1.489077,3.412854,-0.9831959,0.06897447,-0.08366089,28.00048,-30.92771,8.935219,1008.275
34.371518135,0.2044195,1.54445,3.902449,-0.9804949,0.08701319,-0.08822206,28.00048,-30.92771,8.935219,1008.273
34.404078484,0.265947,1.841855,2.984459,-0.9806809,0.1030482,-0.08797725,28.74315,-31.65262,8.491989,1008.275
34.439138889,-6.009854,0.7711983,0.7812803,-0.9740697,0.0793124,-0.08641224,29.10557,-31.28358,8.934263,1008.272
34.471699715,-6.379018,4.637459,2.80086,-0.9848263,0.08163082,-0.09265039,29.10557,-31.28358,8.934263,1008.272
34.504259110,-8.347898,2.258222,4.147247,-1.017585,0.04345635,-0.1280043,28.36532,-30.92765,8.487955,1008.272
34.539324284,-15.91577,7.908911,5.065238,-1.021608,0.008022336,-0.1493262,28.36695,-30.92506,8.934029,1008.274
34.571885109,-7.240403,1.960817,7.146018,-0.9922649,0.0428367,-0.132872,28.36695,-30.92506,8.934029,1008.276
34.604444981,-10.93205,9.395935,12.28677,-1.00093,0.1090143,-0.1748745,29.11693,-32.0112,8.939486,1008.276
34.639505863,-33.82027,-3.808834,11.30758,-1.011242,0.0525514,-0.07953399,28.37668,-31.65527,8.493177,1008.276
34.672065735,-9.393865,-5.533782,14.12275,-0.9441189,0.06165077,-0.07124254,28.37668,-31.65527,8.493177,1008.276
34.704626084,9.310483,-2.500253,16.44833,-0.9345489,0.1670855,-0.03725698,27.287,-32.39341,8.055895,1008.272
34.739690781,15.27865,-4.641567,12.77636,-0.9943562,0.1153106,-0.04523981,26.9189,-32.39864,7.611012,1008.273
34.772251129,13.80199,-8.983675,8.186407,-1.004805,0.05434244,-0.02779155,26.9189,-32.39864,7.611012,1008.275
34.804811001,13.00213,-7.020805,2.617262,-0.9941571,0.1410504,-0.04049691,26.93352,-33.1211,8.508377,1008.275
34.837367535,-3.302645,-3.154544,-0.9935022,-0.9544855,0.192877,-0.1011334,26.55974,-32.76252,8.060884,1008.275
34.872431755,-1.02613,1.901336,-1.360699,-0.9257838,0.19901,-0.08511607,26.56947,-33.49272,7.620035,1008.277
34.904992580,-11.11663,7.849431,-0.503907,-0.9415355,0.1677814,-0.1029789,26.56947,-33.49272,7.620035,1008.277
34.937552929,-15.9773,12.19154,-2.401088,-1.005176,0.1457498,-0.1428905,26.92621,-32.75987,8.059694,1008.277
34.972617149,-17.94618,11.95362,-5.644657,-1.004205,0.1153836,-0.08921648,26.19327,-32.76516,8.062073,1008.277
35.005177975,-16.96174,3.923688,-7.603037,-1.000054,0.07079279,0.00194082,26.19327,-32.76516,8.062073,1008.279
35.037733555,1.496496,-5.712224,-9.071823,-0.9860144,0.03836412,0.01255019,26.93026,-33.12626,7.616234,1008.279
35.072798729,10.04881,-7.139767,-6.807445,-0.9883713,0.05715929,-0.06546783,26.93431,-33.49266,7.172773,1008.279
35.105358601,8.756736,-8.031981,-4.359469,-0.9893792,0.08997038,-0.1224881,26.93431,-33.49266,7.172773,1008.276
35.137918949,5.988,-11.24395,-1.727895,-1.023435,0.04339114,-0.1304165,27.29105,-32.75981,7.612434,1008.276
35.172983646,-1.456822,-6.663919,0.8424797,-0.9872964,0.07643207,-0.1318808,27.28537,-32.396,7.609823,1008.276
35.205543995,5.249671,-1.132192,1.882869,-0.9803497,0.1556006,-0.1007104,27.28537,-32.396,7.609823,1008.276
35.238099575,0.6351117,1.009122,1.393274,-0.9711367,0.1235064,-0.07075614,27.65752,-32.75716,7.611246,1008.276
35.270660400,-3.056536,-4.463124,0.3528845,-0.9805758,0.101905,-0.0502914,27.27805,-32.03477,7.16114,1008.278
35.305724621,0.5735843,-5.771705,0.2304857,-0.993442,0.07220733,-0.07586765,27.27805,-32.03477,7.16114,1008.278
35.338284969,2.60399,-11.36291,-0.9935022,-0.9985064,0.09818294,-0.03147918,26.92053,-32.39606,8.057083,1008.278
35.370844841,15.58628,-7.080286,-0.7487046,-0.9722536,0.08956607,-0.09157471,27.28537,-32.396,7.609823,1008.278
35.405910015,13.30977,-6.544957,0.5364827,-0.9789567,0.1657314,-0.08025531,27.28537,-32.396,7.609823,1008.274
35.438466549,-2.810426,-11.77928,0.1692863,-1.024518,0.06260383,-0.0837182,27.28863,-32.39083,8.501966,1008.275
35.471026421,-1.825987,-9.87589,1.209676,-1.013552,-0.0123348,-0.1385269,27.27805,-32.03477,7.16114,1008.275
35.506091595,12.87908,-4.106239,3.168057,-0.9849461,0.2210377,-0.07553875,27.27805,-32.03477,7.16114,1008.277
35.538651466,-5.333052,-0.5968633,3.963649,-0.9443057,0.189765,-0.1355104,27.28374,-32.39858,7.163752,1008.277
35.571211815,-8.963172,2.496145,5.922029,-0.9724916,0.1926223,-0.09676949,27.27401,-31.66838,7.604601,1008.277
35.606276512,-27.79057,-1.191673,-0.9935022,-0.9727913,0.1120063,-0.005190756,27.27401,-31.66838,7.604601,1008.279
35.638832569,-14.99286,1.901336,-3.808674,-0.9304612,0.1572731,-0.005507759,27.28616,-32.76756,6.27422,1008.281
35.671392441,-14.80828,4.221093,-3.319079,-0.958148,0.112133,0.008814973,26.91401,-32.40639,6.272797,1008.281
35.703953266,-4.902359,2.496145,-1.911493,-0.9620978,0.02620645,-0.02391164,26.91401,-32.40639,6.272797,1008.281
35.739017487,-1.149184,9.693339,-3.563877,-0.9817128,0.07133076,-0.06332455,26.55019,-32.77765,5.448177,1008.282
35.771577835,-15.11592,35.62703,-7.480639,-1.036348,-0.03753131,-0.2200966,26.91829,-32.77242,5.893061,1008.282
35.804137707,7.710769,51.27052,-2.890683,-1.347911,0.02895719,-0.4493523,26.91829,-32.77242,5.893061,1008.282
35.839199066,13.24824,47.2853,4.514443,-1.231764,0.1107465,-0.3612087,28.02641,-33.12349,6.720526,1008.282
35.871758938,34.78285,34.49689,0.6588815,-1.148258,0.2026025,-0.2293762,28.01831,-32.3907,7.607447,1008.276
35.904319286,82.34357,33.90208,-5.093862,-1.020818,0.2206926,-0.208438,28.01831,-32.3907,7.607447,1008.276
35.939383507,30.78357,48.77232,-7.174642,-0.8980702,0.3680694,-0.09609815,27.28947,-32.01669,10.28364,1008.276
35.971944332,-49.94046,49.66453,-8.031433,-0.9201062,0.2977297,-0.08168194,26.56795,-32.0039,13.40853,1008.276
36.004504681,-94.30175,38.60108,-10.23461,-0.8657207,0.05981917,-0.08488071,26.56795,-32.0039,13.40853,1008.276
36.039565086,-56.21626,22.24382,-14.51857,-0.8215871,-0.1306718,-0.0713947,26.1958,-31.64274,13.4071,1008.276
36.072125435,-26.86766,20.1025,-17.08894,-0.7090768,-0.2019104,-0.008301012,25.11017,-32.74727,12.52636,1008.276
